set title 'mp-235 - Density of States'
set xlabel 'Energy (eV)'
set ylabel 'DOS (states/eV)'
set grid
set xrange [-10:10]
set yrange [0:14.036]
set xzeroaxis lt -1
set terminal png size 800,600
set output 'mp-235_dos_gnuplot.png'
plot '-' using 1:2 with lines title 'DOS'
-20.936300 0.000000
-20.917100 0.000000
-20.898000 0.000000
-20.878900 0.000000
-20.859700 0.000000
-20.840600 0.000000
-20.821500 0.000000
-20.802300 0.000000
-20.783200 0.000000
-20.764100 0.000000
-20.744900 0.000000
-20.725800 0.000000
-20.706700 0.000000
-20.687500 0.000000
-20.668400 0.000000
-20.649200 0.000000
-20.630100 0.000000
-20.611000 0.000000
-20.591800 0.000000
-20.572700 0.000000
-20.553600 0.000000
-20.534400 0.000000
-20.515300 0.000000
-20.496200 0.000000
-20.477000 0.000000
-20.457900 0.000000
-20.438800 0.000000
-20.419600 0.000000
-20.400500 0.000000
-20.381300 0.000000
-20.362200 0.000000
-20.343100 0.000000
-20.323900 0.000000
-20.304800 0.000000
-20.285700 0.000000
-20.266500 0.000000
-20.247400 0.000000
-20.228300 0.000000
-20.209100 0.000000
-20.190000 0.000000
-20.170900 0.000000
-20.151700 0.000000
-20.132600 0.000000
-20.113400 0.000000
-20.094300 0.000000
-20.075200 0.000000
-20.056000 0.000000
-20.036900 0.000000
-20.017800 0.000000
-19.998600 0.000000
-19.979500 0.000000
-19.960400 0.000000
-19.941200 0.000000
-19.922100 0.000000
-19.903000 0.000000
-19.883800 0.000000
-19.864700 0.000000
-19.845500 0.000000
-19.826400 0.000000
-19.807300 0.000000
-19.788100 0.000000
-19.769000 0.000000
-19.749900 0.000000
-19.730700 0.000000
-19.711600 0.000000
-19.692500 0.000000
-19.673300 0.000000
-19.654200 0.000000
-19.635100 0.000000
-19.615900 0.000000
-19.596800 0.000000
-19.577600 0.000000
-19.558500 0.000000
-19.539400 0.000000
-19.520200 0.000000
-19.501100 0.000000
-19.482000 0.000000
-19.462800 0.000000
-19.443700 0.000000
-19.424600 0.000000
-19.405400 0.000000
-19.386300 0.000000
-19.367100 0.000000
-19.348000 0.000000
-19.328900 0.000000
-19.309700 0.000000
-19.290600 0.000000
-19.271500 0.000000
-19.252300 0.000000
-19.233200 0.000000
-19.214100 0.000000
-19.194900 0.099500
-19.175800 3.455100
-19.156700 9.469300
-19.137500 15.468700
-19.118400 12.000700
-19.099200 6.871000
-19.080100 5.788000
-19.061000 5.788100
-19.041800 5.788100
-19.022700 5.692700
-19.003600 5.182000
-18.984400 4.359200
-18.965300 3.499800
-18.946200 3.499800
-18.927000 3.499900
-18.907900 3.499900
-18.888800 3.499900
-18.869600 3.499900
-18.850500 3.499900
-18.831300 3.499900
-18.812200 3.441600
-18.793100 3.201900
-18.773900 2.824200
-18.754800 2.530800
-18.735700 2.530800
-18.716500 2.530800
-18.697400 2.530800
-18.678300 2.530800
-18.659100 2.530800
-18.640000 2.530800
-18.620900 2.530800
-18.601700 2.530800
-18.582600 2.530800
-18.563400 2.530800
-18.544300 2.530800
-18.525200 2.505400
-18.506000 2.373400
-18.486900 2.163600
-18.467800 2.003900
-18.448600 2.003900
-18.429500 2.003900
-18.410400 2.003900
-18.391200 2.003900
-18.372100 2.003900
-18.353000 2.003900
-18.333800 2.003900
-18.314700 2.003900
-18.295500 2.003900
-18.276400 2.003900
-18.257300 2.003900
-18.238100 2.003900
-18.219000 2.003900
-18.199900 2.003900
-18.180700 2.003900
-18.161600 5.446300
-18.142500 7.958800
-18.123300 11.562500
-18.104200 0.000000
-18.085100 0.000000
-18.065900 0.000000
-18.046800 0.000000
-18.027600 0.000000
-18.008500 0.000000
-17.989400 0.000000
-17.970200 0.000000
-17.951100 0.000000
-17.932000 0.000000
-17.912800 0.000000
-17.893700 0.000000
-17.874600 0.000000
-17.855400 0.000000
-17.836300 0.000000
-17.817200 0.000000
-17.798000 0.000000
-17.778900 0.000000
-17.759700 0.000000
-17.740600 0.000000
-17.721500 4.668800
-17.702300 8.814200
-17.683200 10.085500
-17.664100 1.472500
-17.644900 1.472500
-17.625800 1.472500
-17.606700 1.472500
-17.587500 1.472500
-17.568400 1.472500
-17.549200 1.472500
-17.530100 1.472500
-17.511000 1.472500
-17.491800 1.472500
-17.472700 1.472500
-17.453600 1.472500
-17.434400 1.472500
-17.415300 1.472500
-17.396200 1.472500
-17.377000 1.472500
-17.357900 1.472500
-17.338800 1.472500
-17.319600 1.472500
-17.300500 1.472500
-17.281300 1.472500
-17.262200 1.472500
-17.243100 1.472500
-17.223900 1.454300
-17.204800 1.404500
-17.185700 1.343400
-17.166500 1.343400
-17.147400 1.343400
-17.128300 1.343400
-17.109100 1.343400
-17.090000 1.343400
-17.070900 1.343400
-17.051700 1.343400
-17.032600 1.343400
-17.013400 1.343400
-16.994300 1.343400
-16.975200 1.343400
-16.956000 1.343400
-16.936900 1.343400
-16.917800 1.343400
-16.898600 1.343400
-16.879500 1.343400
-16.860400 1.343400
-16.841200 1.343400
-16.822100 1.343400
-16.803000 1.343400
-16.783800 1.343400
-16.764700 1.343400
-16.745500 1.343400
-16.726400 1.343400
-16.707300 1.343400
-16.688100 1.340800
-16.669000 1.319500
-16.649900 1.295800
-16.630700 1.291700
-16.611600 1.291700
-16.592500 1.291700
-16.573300 1.291700
-16.554200 1.291700
-16.535100 1.291700
-16.515900 1.291700
-16.496800 1.291700
-16.477600 1.291700
-16.458500 1.291700
-16.439400 1.291700
-16.420200 1.291700
-16.401100 1.291700
-16.382000 1.291700
-16.362800 1.291700
-16.343700 1.291700
-16.324600 1.291700
-16.305400 1.291700
-16.286300 1.291700
-16.267200 1.291700
-16.248000 1.291700
-16.228900 1.291700
-16.209700 1.291700
-16.190600 1.291700
-16.171500 1.291700
-16.152300 1.291700
-16.133200 1.291700
-16.114100 1.317600
-16.094900 1.369800
-16.075800 1.402200
-16.056700 1.402200
-16.037500 1.402200
-16.018400 1.402200
-15.999300 1.402200
-15.980100 1.402200
-15.961000 1.402200
-15.941800 1.402200
-15.922700 1.402200
-15.903600 1.402200
-15.884400 1.402200
-15.865300 1.402200
-15.846200 1.402200
-15.827000 1.402200
-15.807900 1.402200
-15.788800 1.402200
-15.769600 1.402200
-15.750500 1.402200
-15.731400 1.402200
-15.712200 1.402200
-15.693100 1.402200
-15.673900 1.402200
-15.654800 1.402200
-15.635700 1.402200
-15.616500 1.402200
-15.597400 1.711500
-15.578300 2.274100
-15.559100 2.792500
-15.540000 2.819700
-15.520900 2.819700
-15.501700 2.819600
-15.482600 2.819600
-15.463400 2.819600
-15.444300 2.819600
-15.425200 2.819600
-15.406000 2.819600
-15.386900 2.819600
-15.367800 2.819600
-15.348600 2.541800
-15.329500 1.421900
-15.310400 0.497900
-15.291200 0.000000
-15.272100 0.000000
-15.253000 0.000000
-15.233800 0.000000
-15.214700 0.000000
-15.195500 0.000000
-15.176400 0.000000
-15.157300 0.000000
-15.138100 0.000000
-15.119000 0.000000
-15.099900 0.000000
-15.080700 0.000000
-15.061600 0.000000
-15.042500 0.000000
-15.023300 0.000000
-15.004200 0.000000
-14.985100 0.000000
-14.965900 0.000000
-14.946800 0.000000
-14.927600 0.000000
-14.908500 0.000000
-14.889400 0.000000
-14.870200 0.000000
-14.851100 0.000000
-14.832000 0.000000
-14.812800 0.000000
-14.793700 0.000000
-14.774600 0.000000
-14.755400 0.000000
-14.736300 0.000000
-14.717200 0.000000
-14.698000 0.000000
-14.678900 0.000000
-14.659700 0.000000
-14.640600 0.000000
-14.621500 0.000000
-14.602300 0.000000
-14.583200 0.000000
-14.564100 0.000000
-14.544900 0.000000
-14.525800 0.000000
-14.506700 0.000000
-14.487500 0.000000
-14.468400 0.000000
-14.449300 0.000000
-14.430100 0.000000
-14.411000 0.000000
-14.391800 0.000000
-14.372700 0.000000
-14.353600 0.000000
-14.334400 0.000000
-14.315300 0.000000
-14.296200 0.000000
-14.277000 0.000000
-14.257900 0.000000
-14.238800 0.000000
-14.219600 0.000000
-14.200500 0.000000
-14.181400 0.000000
-14.162200 0.000000
-14.143100 0.000000
-14.123900 0.000000
-14.104800 0.000000
-14.085700 0.000000
-14.066500 0.000000
-14.047400 0.000000
-14.028300 0.000000
-14.009100 0.000000
-13.990000 0.000000
-13.970900 0.000000
-13.951700 0.000000
-13.932600 0.000000
-13.913500 0.000000
-13.894300 0.000000
-13.875200 0.000000
-13.856000 0.000000
-13.836900 0.000000
-13.817800 0.000000
-13.798600 0.000000
-13.779500 0.000000
-13.760400 0.539800
-13.741200 1.989500
-13.722100 2.681500
-13.703000 2.681500
-13.683800 2.681500
-13.664700 2.681500
-13.645500 2.681500
-13.626400 2.681500
-13.607300 2.681500
-13.588100 2.681500
-13.569000 2.681500
-13.549900 2.681500
-13.530700 2.681600
-13.511600 2.681600
-13.492500 2.277400
-13.473300 1.949100
-13.454200 1.297600
-13.435100 1.297600
-13.415900 1.297600
-13.396800 1.297600
-13.377600 1.297600
-13.358500 1.297600
-13.339400 1.297600
-13.320200 1.297600
-13.301100 1.297600
-13.282000 1.297600
-13.262800 1.297600
-13.243700 1.297600
-13.224600 1.297600
-13.205400 1.297600
-13.186300 1.297600
-13.167200 1.297600
-13.148000 1.297600
-13.128900 1.297600
-13.109700 1.297600
-13.090600 1.297600
-13.071500 1.297600
-13.052300 1.297600
-13.033200 1.297600
-13.014100 1.297600
-12.994900 1.297600
-12.975800 1.297600
-12.956700 1.297600
-12.937500 1.251600
-12.918400 1.217200
-12.899300 1.185500
-12.880100 1.141100
-12.861000 1.139400
-12.841800 1.139400
-12.822700 1.139400
-12.803600 1.139400
-12.784400 1.139400
-12.765300 1.139400
-12.746200 1.139400
-12.727000 1.139400
-12.707900 1.139400
-12.688800 1.139400
-12.669600 1.139400
-12.650500 1.139400
-12.631400 1.139400
-12.612200 1.139400
-12.593100 1.139400
-12.573900 1.139400
-12.554800 1.139400
-12.535700 1.139400
-12.516500 1.139400
-12.497400 1.139400
-12.478300 1.139400
-12.459100 1.139400
-12.440000 1.139400
-12.420900 1.139400
-12.401700 1.139400
-12.382600 1.139400
-12.363500 1.139400
-12.344300 1.139400
-12.325200 1.139400
-12.306000 1.129500
-12.286900 1.122000
-12.267800 1.118300
-12.248600 1.110100
-12.229500 1.105000
-12.210400 1.104400
-12.191200 1.104400
-12.172100 1.104400
-12.153000 1.104400
-12.133800 1.104400
-12.114700 1.104400
-12.095600 1.104400
-12.076400 1.104400
-12.057300 1.104400
-12.038100 1.104400
-12.019000 1.104400
-11.999900 1.104400
-11.980700 1.104400
-11.961600 1.104400
-11.942500 1.104400
-11.923300 1.104400
-11.904200 1.104400
-11.885100 1.104400
-11.865900 1.104400
-11.846800 1.104400
-11.827600 1.104400
-11.808500 1.104400
-11.789400 1.104400
-11.770200 1.104400
-11.751100 1.104400
-11.732000 1.104400
-11.712800 1.104400
-11.693700 1.104400
-11.674600 1.104400
-11.655400 1.101500
-11.636300 1.099500
-11.617200 1.098700
-11.598000 1.097500
-11.578900 1.096300
-11.559700 1.095900
-11.540600 1.095900
-11.521500 1.095900
-11.502300 1.095900
-11.483200 1.095900
-11.464100 1.095900
-11.444900 1.095900
-11.425800 1.095900
-11.406700 1.095900
-11.387500 1.095900
-11.368400 1.095900
-11.349300 1.095900
-11.330100 1.095900
-11.311000 1.095900
-11.291800 1.095800
-11.272700 1.095800
-11.253600 1.095800
-11.234400 1.095800
-11.215300 1.095800
-11.196200 1.095800
-11.177000 1.095800
-11.157900 1.095800
-11.138800 1.095800
-11.119600 1.095800
-11.100500 1.095800
-11.081400 1.095800
-11.062200 1.095800
-11.043100 1.095800
-11.023900 1.095800
-11.004800 9.198400
-10.985700 3.862300
-10.966500 1.928900
-10.947400 2.955500
-10.928300 4.343500
-10.909100 2.426600
-10.890000 1.979400
-10.870900 0.000000
-10.851700 0.000000
-10.832600 0.000000
-10.813500 0.000000
-10.794300 0.000000
-10.775200 0.000000
-10.756000 0.000000
-10.736900 0.000000
-10.717800 0.000000
-10.698600 0.000000
-10.679500 0.000000
-10.660400 0.000000
-10.641200 0.000000
-10.622100 0.000000
-10.603000 0.000000
-10.583800 0.000000
-10.564700 0.000000
-10.545600 0.000000
-10.526400 0.000000
-10.507300 0.000000
-10.488100 0.000000
-10.469000 0.000000
-10.449900 0.000000
-10.430700 0.000000
-10.411600 0.000000
-10.392500 0.000000
-10.373300 0.000000
-10.354200 0.000000
-10.335100 3.936100
-10.315900 4.121200
-10.296800 1.730000
-10.277700 3.573700
-10.258500 4.498200
-10.239400 3.006800
-10.220200 2.772000
-10.201100 1.094900
-10.182000 1.094900
-10.162800 1.094900
-10.143700 1.094900
-10.124600 1.094900
-10.105400 1.094900
-10.086300 1.094900
-10.067200 1.094900
-10.048000 1.094900
-10.028900 1.094900
-10.009800 1.094900
-9.990600 1.094900
-9.971500 1.094900
-9.952300 1.094900
-9.933200 1.094900
-9.914100 1.094900
-9.894900 1.094900
-9.875800 1.094900
-9.856700 1.094900
-9.837500 1.094900
-9.818400 1.094900
-9.799300 1.094900
-9.780100 1.094900
-9.761000 1.094900
-9.741800 1.094900
-9.722700 1.094900
-9.703600 1.094900
-9.684400 1.094900
-9.665300 1.097600
-9.646200 1.100300
-9.627000 1.101700
-9.607900 1.104100
-9.588800 1.107900
-9.569600 1.110800
-9.550500 1.112800
-9.531400 1.112800
-9.512200 1.112800
-9.493100 1.112800
-9.473900 1.112800
-9.454800 1.112800
-9.435700 1.112800
-9.416500 1.112800
-9.397400 1.112800
-9.378300 1.112800
-9.359100 1.112800
-9.340000 1.112800
-9.320900 1.112800
-9.301700 1.112800
-9.282600 1.112800
-9.263500 1.112800
-9.244300 1.112800
-9.225200 1.112800
-9.206000 1.112800
-9.186900 1.112800
-9.167800 1.112800
-9.148600 1.112800
-9.129500 1.112800
-9.110400 1.112800
-9.091200 1.112800
-9.072100 1.112800
-9.053000 1.112800
-9.033800 1.112800
-9.014700 1.118300
-8.995600 1.136400
-8.976400 1.146000
-8.957300 1.154100
-8.938100 1.168100
-8.919000 1.177100
-8.899900 1.179700
-8.880700 1.179700
-8.861600 1.179700
-8.842500 1.179700
-8.823300 1.179700
-8.804200 1.179700
-8.785100 1.179700
-8.765900 1.179700
-8.746800 1.179700
-8.727700 1.179700
-8.708500 1.179700
-8.689400 1.179800
-8.670200 1.179800
-8.651100 1.179800
-8.632000 1.179800
-8.612800 1.179800
-8.593700 1.179800
-8.574600 1.179800
-8.555400 1.179800
-8.536300 1.179800
-8.517200 1.179800
-8.498000 1.179800
-8.478900 1.179800
-8.459800 1.179800
-8.440600 1.179800
-8.421500 1.179800
-8.402300 1.181600
-8.383200 1.254700
-8.364100 1.310100
-8.344900 1.332300
-8.325800 1.390700
-8.306700 1.430400
-8.287500 1.430400
-8.268400 1.430300
-8.249300 1.430300
-8.230100 1.430300
-8.211000 1.430300
-8.191900 1.430300
-8.172700 1.430300
-8.153600 1.430300
-8.134400 1.430300
-8.115300 1.430300
-8.096200 1.430300
-8.077000 1.430300
-8.057900 1.430300
-8.038800 1.430300
-8.019600 1.430300
-8.000500 1.430300
-7.981400 1.430300
-7.962200 1.430300
-7.943100 1.430300
-7.923900 1.430300
-7.904800 1.456900
-7.885700 1.865800
-7.866500 2.198400
-7.847400 2.413200
-7.828300 2.626400
-7.809100 2.893200
-7.790000 3.264100
-7.770900 3.264000
-7.751700 3.263900
-7.732600 3.263900
-7.713500 3.263900
-7.694300 3.239000
-7.675200 2.541200
-7.656000 2.084200
-7.636900 1.622100
-7.617800 1.522500
-7.598600 1.132200
-7.579500 0.783100
-7.560400 0.236300
-7.541200 0.000000
-7.522100 0.000000
-7.503000 0.000000
-7.483800 0.000000
-7.464700 0.000000
-7.445600 0.000000
-7.426400 0.000000
-7.407300 0.000000
-7.388100 0.000000
-7.369000 0.000000
-7.349900 0.000000
-7.330700 0.000000
-7.311600 0.000000
-7.292500 0.000000
-7.273300 0.000000
-7.254200 0.000000
-7.235100 0.000000
-7.215900 0.000000
-7.196800 0.000000
-7.177700 0.000000
-7.158500 0.000000
-7.139400 0.000000
-7.120200 0.000000
-7.101100 0.000000
-7.082000 0.000000
-7.062800 0.000000
-7.043700 0.000000
-7.024600 0.000000
-7.005400 0.000000
-6.986300 0.000000
-6.967200 0.000000
-6.948000 0.000000
-6.928900 0.000000
-6.909800 0.000000
-6.890600 0.000000
-6.871500 0.000000
-6.852300 0.000000
-6.833200 0.000000
-6.814100 0.000000
-6.794900 0.000000
-6.775800 0.000000
-6.756700 0.000000
-6.737500 0.000000
-6.718400 0.000000
-6.699300 0.000000
-6.680100 0.000000
-6.661000 0.000000
-6.641900 0.000000
-6.622700 0.000000
-6.603600 0.000000
-6.584400 0.000000
-6.565300 0.000000
-6.546200 0.000000
-6.527000 0.000000
-6.507900 0.000000
-6.488800 0.000000
-6.469600 0.000000
-6.450500 0.000000
-6.431400 0.000000
-6.412200 0.000000
-6.393100 0.000000
-6.374000 0.000000
-6.354800 0.000000
-6.335700 0.000000
-6.316500 0.000000
-6.297400 0.000000
-6.278300 0.000000
-6.259100 0.000000
-6.240000 0.000000
-6.220900 0.000000
-6.201700 0.000000
-6.182600 0.000000
-6.163500 0.000000
-6.144300 0.000000
-6.125200 0.000000
-6.106000 0.349000
-6.086900 1.475800
-6.067800 2.144900
-6.048600 2.683200
-6.029500 3.246000
-6.010400 3.316900
-5.991200 2.851500
-5.972100 2.639100
-5.953000 2.725200
-5.933800 2.758900
-5.914700 2.802600
-5.895600 2.979900
-5.876400 3.204700
-5.857300 3.369200
-5.838100 3.535000
-5.819000 3.652500
-5.799900 3.634000
-5.780700 3.529100
-5.761600 3.399000
-5.742500 3.259000
-5.723300 3.253700
-5.704200 3.319600
-5.685100 3.646500
-5.665900 4.278400
-5.646800 4.960700
-5.627700 5.902600
-5.608500 6.456500
-5.589400 6.469700
-5.570200 6.249400
-5.551100 5.991200
-5.532000 5.713600
-5.512800 5.446300
-5.493700 5.206100
-5.474600 4.921000
-5.455400 4.534100
-5.436300 4.200700
-5.417200 3.848400
-5.398000 3.830600
-5.378900 3.820100
-5.359800 3.813500
-5.340600 3.792400
-5.321500 3.817300
-5.302300 4.045200
-5.283200 4.289000
-5.264100 4.360000
-5.244900 4.371000
-5.225800 4.453700
-5.206700 4.549700
-5.187500 4.632100
-5.168400 4.718700
-5.149300 4.822600
-5.130100 4.952800
-5.111000 5.111900
-5.091900 5.284600
-5.072700 5.473500
-5.053600 5.691700
-5.034400 5.972600
-5.015300 6.227800
-4.996200 6.254000
-4.977000 6.193800
-4.957900 6.211300
-4.938800 6.233800
-4.919600 6.227200
-4.900500 6.228400
-4.881400 6.251300
-4.862200 6.269800
-4.843100 6.291700
-4.824000 6.393300
-4.804800 6.517300
-4.785700 6.630800
-4.766500 6.738800
-4.747400 6.984700
-4.728300 7.334800
-4.709100 7.638500
-4.690000 7.715700
-4.670900 7.677100
-4.651700 7.715500
-4.632600 7.799400
-4.613500 7.927000
-4.594300 7.873000
-4.575200 7.507700
-4.556100 7.217300
-4.536900 7.109500
-4.517800 7.006900
-4.498600 6.886000
-4.479500 6.789800
-4.460400 6.689100
-4.441200 7.659400
-4.422100 8.566200
-4.403000 12.760000
-4.383800 8.236200
-4.364700 8.023500
-4.345600 8.058000
-4.326400 7.128000
-4.307300 4.764100
-4.288200 4.479500
-4.269000 4.466300
-4.249900 4.595800
-4.230700 4.830000
-4.211600 4.755100
-4.192500 4.850800
-4.173300 4.970600
-4.154200 5.100300
-4.135100 5.300000
-4.115900 5.769800
-4.096800 6.559300
-4.077700 6.527000
-4.058500 6.757300
-4.039400 6.499200
-4.020200 5.209900
-4.001100 5.085700
-3.982000 6.157500
-3.962800 5.805400
-3.943700 3.689000
-3.924600 3.177800
-3.905400 2.256500
-3.886300 1.974600
-3.867200 1.872700
-3.848000 1.724800
-3.828900 1.601700
-3.809800 2.199300
-3.790600 1.366100
-3.771500 1.185900
-3.752300 0.998800
-3.733200 1.573200
-3.714100 1.663400
-3.694900 1.653700
-3.675800 1.495500
-3.656700 1.373600
-3.637500 1.212700
-3.618400 1.268700
-3.599300 1.547000
-3.580100 1.405000
-3.561000 1.312500
-3.541900 1.369900
-3.522700 1.398400
-3.503600 1.403300
-3.484400 1.428700
-3.465300 1.469800
-3.446200 1.520400
-3.427000 1.676900
-3.407900 1.738900
-3.388800 1.800100
-3.369600 1.932200
-3.350500 2.249200
-3.331400 2.362200
-3.312200 2.176200
-3.293100 2.124700
-3.274000 2.122200
-3.254800 2.069200
-3.235700 1.572100
-3.216500 1.564200
-3.197400 1.556100
-3.178300 1.548000
-3.159100 1.538900
-3.140000 1.527300
-3.120900 1.517700
-3.101700 1.509900
-3.082600 1.503500
-3.063500 1.497400
-3.044300 1.492100
-3.025200 1.487000
-3.006100 1.482200
-2.986900 1.477300
-2.967800 1.471500
-2.948600 1.465500
-2.929500 1.459400
-2.910400 1.453100
-2.891200 1.444700
-2.872100 1.435600
-2.853000 1.429400
-2.833800 1.424300
-2.814700 1.419800
-2.795600 1.418100
-2.776400 1.418200
-2.757300 1.418400
-2.738200 1.417500
-2.719000 1.415500
-2.699900 1.413400
-2.680700 1.411000
-2.661600 1.408200
-2.642500 1.404800
-2.623300 1.400900
-2.604200 1.398000
-2.585100 1.395000
-2.565900 1.392400
-2.546800 1.390600
-2.527700 1.388800
-2.508500 1.386900
-2.489400 1.384800
-2.470300 1.381800
-2.451100 1.378900
-2.432000 1.375900
-2.412800 1.373000
-2.393700 1.369300
-2.374600 1.381800
-2.355400 1.669000
-2.336300 1.869800
-2.317200 1.873000
-2.298000 2.510600
-2.278900 2.977100
-2.259800 3.983800
-2.240600 4.433500
-2.221500 4.827800
-2.202300 4.739200
-2.183200 4.944900
-2.164100 5.254200
-2.144900 4.893300
-2.125800 4.533600
-2.106700 4.258400
-2.087500 3.782600
-2.068400 3.777200
-2.049300 3.767500
-2.030100 3.760000
-2.011000 3.751600
-1.991900 3.740800
-1.972700 3.720000
-1.953600 3.688300
-1.934400 4.613100
-1.915300 5.848000
-1.896200 6.197900
-1.877000 6.104600
-1.857900 6.242300
-1.838800 6.489200
-1.819600 6.986000
-1.800500 8.035800
-1.781400 7.503300
-1.762200 7.435600
-1.743100 6.053800
-1.724000 6.053700
-1.704800 6.053900
-1.685700 6.122600
-1.666500 6.220900
-1.647400 6.305700
-1.628300 6.405600
-1.609100 6.527000
-1.590000 7.167500
-1.570900 7.552500
-1.551700 7.923200
-1.532600 8.092500
-1.513500 8.398300
-1.494300 8.630100
-1.475200 8.500400
-1.456100 8.333600
-1.436900 8.220500
-1.417800 8.201000
-1.398600 8.075700
-1.379500 8.000300
-1.360400 7.950600
-1.341200 7.910300
-1.322100 7.817700
-1.303000 7.512500
-1.283800 7.166400
-1.264700 6.503100
-1.245600 5.932800
-1.226400 5.575900
-1.207300 5.360700
-1.188200 5.268200
-1.169000 5.272000
-1.149900 5.240600
-1.130700 5.246900
-1.111600 5.220700
-1.092500 5.146300
-1.073300 5.155600
-1.054200 5.230300
-1.035100 5.305500
-1.015900 5.158900
-0.996800 4.936600
-0.977700 4.646700
-0.958500 4.385200
-0.939400 4.250200
-0.920300 4.067900
-0.901100 3.987200
-0.882000 4.202300
-0.862800 4.744100
-0.843700 3.475800
-0.824600 2.382200
-0.805400 2.186200
-0.786300 2.185300
-0.767200 2.223300
-0.748000 2.268700
-0.728900 2.364500
-0.709800 2.567500
-0.690600 2.750100
-0.671500 3.048100
-0.652400 3.947900
-0.633200 6.838300
-0.614100 6.446300
-0.594900 4.669900
-0.575800 3.218800
-0.556700 3.395500
-0.537500 5.340800
-0.518400 8.904900
-0.499300 4.647900
-0.480100 1.135700
-0.461000 0.037200
-0.441900 0.256800
-0.422700 1.854200
-0.403600 3.054200
-0.384500 3.665400
-0.365300 3.661500
-0.346200 3.657700
-0.327000 3.654100
-0.307900 3.650700
-0.288800 3.175900
-0.269600 2.793300
-0.250500 2.503200
-0.231400 2.282300
-0.212200 2.204500
-0.193100 2.131500
-0.174000 2.037800
-0.154800 1.845300
-0.135700 1.685000
-0.116500 1.607100
-0.097400 1.554400
-0.078300 1.514600
-0.059100 1.496400
-0.040000 1.496200
-0.020900 1.496100
-0.001700 1.496000
0.017400 1.495800
0.036500 1.495700
0.055700 1.495600
0.074800 1.495400
0.093900 1.495300
0.113100 1.495200
0.132200 1.495100
0.151400 1.494900
0.170500 1.486600
0.189600 1.478700
0.208800 1.471400
0.227900 1.469300
0.247000 1.467800
0.266200 1.465000
0.285300 1.458400
0.304400 1.456000
0.323600 1.453900
0.342700 1.452600
0.361800 1.451800
0.381000 1.451400
0.400100 1.451100
0.419300 1.451000
0.438400 1.451000
0.457500 1.451100
0.476700 1.451200
0.495800 1.451300
0.514900 1.451400
0.534100 1.451200
0.553200 1.451100
0.572300 1.450900
0.591500 1.450700
0.610600 1.450600
0.629700 1.450400
0.648900 1.447000
0.668000 1.443700
0.687200 1.441900
0.706300 1.441300
0.725400 1.440900
0.744600 1.438700
0.763700 1.437400
0.782800 1.437300
0.802000 1.437300
0.821100 1.437600
0.840200 1.437900
0.859400 1.438200
0.878500 1.438700
0.897600 1.439200
0.916800 1.440100
0.935900 1.441200
0.955100 1.441900
0.974200 1.442700
0.993300 1.443500
1.012500 1.444200
1.031600 1.444900
1.050700 1.445600
1.069900 1.446100
1.089000 1.446800
1.108100 1.447000
1.127300 1.445900
1.146400 1.441600
1.165500 1.440000
1.184700 1.439700
1.203800 1.439800
1.223000 1.439400
1.242100 1.439400
1.261200 1.440200
1.280400 1.441600
1.299500 1.443100
1.318600 1.445700
1.337800 1.447800
1.356900 1.449600
1.376000 1.451500
1.395200 1.453700
1.414300 1.456200
1.433400 1.459700
1.452600 1.464200
1.471700 1.467500
1.490900 1.470800
1.510000 1.474100
1.529100 1.477700
1.548300 1.481600
1.567400 1.485700
1.586500 1.489600
1.605700 1.493300
1.624800 3.518600
1.643900 3.890300
1.663100 2.150400
1.682200 1.912400
1.701400 2.056700
1.720500 1.928300
1.739600 1.659100
1.758800 1.456600
1.777900 1.314100
1.797000 1.162400
1.816200 0.998500
1.835300 0.921100
1.854400 0.846800
1.873600 0.864100
1.892700 0.966700
1.911800 0.718000
1.931000 0.664200
1.950100 0.612900
1.969300 0.563200
1.988400 0.518900
2.007500 0.476300
2.026700 0.435900
2.045800 0.393600
2.064900 0.356400
2.084100 0.354800
2.103200 0.319200
2.122300 0.157500
2.141500 0.733900
2.160600 1.166000
2.179700 1.060300
2.198900 1.454600
2.218000 1.143500
2.237200 1.710000
2.256300 1.664500
2.275400 1.538600
2.294600 1.466500
2.313700 1.413900
2.332800 1.407000
2.352000 1.435900
2.371100 1.468100
2.390200 1.491700
2.409400 1.510800
2.428500 1.528100
2.447600 1.576800
2.466800 1.598200
2.485900 1.566200
2.505100 1.574000
2.524200 1.579300
2.543300 1.581500
2.562500 1.579900
2.581600 1.988500
2.600700 1.735800
2.619900 1.748700
2.639000 1.760300
2.658100 1.767800
2.677300 1.812800
2.696400 1.817600
2.715500 1.878200
2.734700 1.769200
2.753800 1.549900
2.773000 1.551400
2.792100 1.552000
2.811200 1.552500
2.830400 1.553000
2.849500 1.553700
2.868600 1.554700
2.887800 1.556000
2.906900 1.557400
2.926000 1.558900
2.945200 1.560600
2.964300 1.562500
2.983400 1.564600
3.002600 1.567200
3.021700 1.570500
3.040900 1.573400
3.060000 1.576400
3.079100 1.579500
3.098300 1.582900
3.117400 1.588900
3.136500 1.616300
3.155700 1.641400
3.174800 1.663700
3.193900 1.684600
3.213100 1.699400
3.232200 1.712000
3.251300 1.731100
3.270500 1.746800
3.289600 1.759900
3.308800 1.774200
3.327900 1.784900
3.347000 1.793700
3.366200 1.802100
3.385300 1.810100
3.404400 1.819100
3.423600 1.831000
3.442700 1.842200
3.461800 1.851800
3.481000 1.861200
3.500100 1.870400
3.519300 1.879900
3.538400 1.934000
3.557500 2.017100
3.576700 2.102400
3.595800 2.186200
3.614900 2.247900
3.634100 2.284300
3.653200 2.336500
3.672300 2.399900
3.691500 2.447600
3.710600 2.485500
3.729700 2.519300
3.748900 2.562100
3.768000 2.607500
3.787200 2.643300
3.806300 2.678000
3.825400 2.926100
3.844600 3.518300
3.863700 4.003400
3.882800 4.708400
3.902000 5.012600
3.921100 5.075800
3.940200 4.683800
3.959400 4.317800
3.978500 3.985800
3.997600 3.336100
4.016800 3.263400
4.035900 2.583300
4.055100 2.099800
4.074200 1.794700
4.093300 1.543300
4.112500 1.375900
4.131600 0.965000
4.150700 0.592700
4.169900 0.215100
4.189000 0.375000
4.208100 0.502100
4.227300 0.635800
4.246400 0.765000
4.265500 0.897000
4.284700 0.984500
4.303800 1.048000
4.323000 1.150900
4.342100 1.268400
4.361200 1.371200
4.380400 1.431400
4.399500 1.473400
4.418600 1.507400
4.437800 1.523100
4.456900 1.551800
4.476000 1.613700
4.495200 1.717000
4.514300 1.772600
4.533400 1.737200
4.552600 1.711000
4.571700 1.687600
4.590900 1.662200
4.610000 1.642900
4.629100 1.685100
4.648300 1.853300
4.667400 2.030600
4.686500 2.187200
4.705700 2.356200
4.724800 2.550500
4.743900 2.762800
4.763100 2.996600
4.782200 3.245600
4.801300 3.528400
4.820500 4.022900
4.839600 4.360800
4.858800 4.501400
4.877900 4.322600
4.897000 4.356300
4.916200 4.378100
4.935300 4.268800
4.954400 4.218200
4.973600 4.145000
4.992700 4.023600
5.011800 3.831100
5.031000 3.657000
5.050100 3.700300
5.069200 4.380600
5.088400 5.084600
5.107500 6.779700
5.126700 6.275800
5.145800 5.968800
5.164900 5.761700
5.184100 5.106400
5.203200 4.534000
5.222300 4.074200
5.241500 3.781600
5.260600 3.520500
5.279700 3.446900
5.298900 4.405200
5.318000 5.060300
5.337100 6.366900
5.356300 7.877000
5.375400 7.206800
5.394600 6.384300
5.413700 5.999000
5.432800 5.793700
5.452000 5.668400
5.471100 5.281400
5.490200 5.260800
5.509400 5.711800
5.528500 5.973200
5.547600 6.151600
5.566800 6.273100
5.585900 6.633700
5.605100 6.698500
5.624200 6.558900
5.643300 6.577700
5.662500 6.494800
5.681600 6.274300
5.700700 6.405600
5.719900 6.484000
5.739000 5.966700
5.758100 5.762200
5.777300 5.631500
5.796400 5.763800
5.815500 6.540500
5.834700 5.506300
5.853800 5.153200
5.873000 5.208200
5.892100 4.680900
5.911200 4.340300
5.930400 3.819100
5.949500 3.164600
5.968600 2.590000
5.987800 2.219200
6.006900 1.944400
6.026000 1.786400
6.045200 2.149500
6.064300 1.979000
6.083400 1.796600
6.102600 1.942800
6.121700 2.102600
6.140900 2.828600
6.160000 2.938900
6.179100 2.496800
6.198300 2.234400
6.217400 2.062000
6.236500 1.991100
6.255700 1.946600
6.274800 1.859800
6.293900 1.861400
6.313100 1.954300
6.332200 1.841900
6.351300 1.212500
6.370500 1.050200
6.389600 0.880400
6.408800 0.700900
6.427900 0.519200
6.447000 0.355000
6.466200 0.187500
6.485300 0.083200
6.504400 0.018600
6.523600 0.000000
6.542700 0.007100
6.561800 0.052000
6.581000 0.144800
6.600100 0.249000
6.619200 0.344500
6.638400 0.460700
6.657500 0.662900
6.676700 0.986200
6.695800 1.167200
6.714900 1.324400
6.734100 1.481500
6.753200 1.636300
6.772300 1.822100
6.791500 1.978800
6.810600 1.979100
6.829700 1.927400
6.848900 1.891600
6.868000 1.847600
6.887100 1.828400
6.906300 1.869000
6.925400 1.963300
6.944600 2.102500
6.963700 2.217200
6.982800 2.295800
7.002000 3.282300
7.021100 3.943700
7.040200 4.011200
7.059400 4.388300
7.078500 5.310400
7.097600 5.548100
7.116800 6.110200
7.135900 6.554000
7.155000 7.359700
7.174200 8.398300
7.193300 8.094400
7.212500 6.787400
7.231600 6.337700
7.250700 5.869900
7.269900 5.816200
7.289000 5.973400
7.308100 5.758300
7.327300 5.520700
7.346400 5.653300
7.365500 4.537700
7.384700 4.253000
7.403800 4.060200
7.423000 3.833700
7.442100 4.203600
7.461200 4.562100
7.480400 4.953600
7.499500 5.614600
7.518600 5.760600
7.537800 5.890200
7.556900 5.702000
7.576000 5.529500
7.595200 4.972400
7.614300 4.396700
7.633400 3.909800
7.652600 4.019300
7.671700 3.321900
7.690900 3.297800
7.710000 4.299600
7.729100 4.706200
7.748300 5.320000
7.767400 6.200600
7.786500 6.015600
7.805700 5.407000
7.824800 5.161600
7.843900 5.569500
7.863100 4.708300
7.882200 3.422900
7.901300 2.837700
7.920500 2.483600
7.939600 2.303100
7.958800 2.166600
7.977900 2.024000
7.997000 1.869300
8.016200 1.791000
8.035300 1.736300
8.054400 1.692400
8.073600 1.664200
8.092700 1.644900
8.111800 1.635000
8.131000 1.636300
8.150100 1.640400
8.169200 1.646700
8.188400 1.654500
8.207500 1.663700
8.226700 1.757200
8.245800 2.072300
8.264900 2.663400
8.284100 3.375000
8.303200 4.069900
8.322300 4.576300
8.341500 4.482300
8.360600 4.453800
8.379700 4.412800
8.398900 3.928700
8.418000 4.285300
8.437100 5.287600
8.456300 6.218800
8.475400 6.645300
8.494600 6.813700
8.513700 6.686000
8.532800 6.429100
8.552000 6.393800
8.571100 6.705500
8.590200 6.126300
8.609400 6.225000
8.628500 6.730700
8.647600 8.068500
8.666800 7.855800
8.685900 7.066100
8.705000 6.884100
8.724200 6.800100
8.743300 6.825100
8.762500 6.851000
8.781600 7.219200
8.800700 7.368800
8.819900 6.767100
8.839000 6.132400
8.858100 5.896300
8.877300 5.770300
8.896400 5.711600
8.915500 5.549800
8.934700 5.352000
8.953800 5.208000
8.972900 5.098000
8.992100 5.050400
9.011200 5.298700
9.030400 6.112700
9.049500 5.339100
9.068600 5.471000
9.087800 6.891400
9.106900 6.721200
9.126000 6.048500
9.145200 5.400900
9.164300 5.028000
9.183400 4.893500
9.202600 4.778900
9.221700 4.656900
9.240900 4.618600
9.260000 4.928500
9.279100 5.148500
9.298300 5.038100
9.317400 4.714400
9.336500 4.658000
9.355700 4.694400
9.374800 4.673100
9.393900 4.524100
9.413100 4.355400
9.432200 4.294800
9.451300 4.368700
9.470500 4.561700
9.489600 4.826600
9.508800 5.026500
9.527900 5.137900
9.547000 5.305700
9.566200 5.434700
9.585300 5.543400
9.604400 5.678600
9.623600 5.796400
9.642700 5.791600
9.661800 5.528000
9.681000 5.319800
9.700100 5.046900
9.719200 4.426700
9.738400 4.056400
9.757500 3.916400
9.776700 3.918100
9.795800 3.932900
9.814900 4.066300
9.834100 3.805200
9.853200 3.514400
9.872300 3.359200
9.891500 2.961900
9.910600 2.864800
9.929700 2.894200
9.948900 2.851700
9.968000 2.851400
9.987100 2.831400
10.006300 2.753800
10.025400 2.695600
10.044600 2.700900
10.063700 2.695000
10.082800 2.602400
10.102000 2.571700
10.121100 2.629400
10.140200 2.705500
10.159400 2.793600
10.178500 2.840700
10.197600 2.684000
10.216800 2.544300
10.235900 2.487800
10.255000 2.475500
10.274200 2.412300
10.293300 2.421600
10.312500 2.525900
10.331600 2.918100
10.350700 3.363300
10.369900 3.200800
10.389000 3.109500
10.408100 3.030000
10.427300 3.047100
10.446400 3.106700
10.465500 3.111300
10.484700 3.120500
10.503800 3.188500
10.522900 3.336200
10.542100 3.512600
10.561200 3.640900
10.580400 3.754500
10.599500 3.996700
10.618600 4.152900
10.637800 4.272000
10.656900 4.739500
10.676000 4.895200
10.695200 4.494000
10.714300 4.518200
10.733400 5.209900
10.752600 4.990000
10.771700 4.371300
10.790800 3.894300
10.810000 3.763600
10.829100 3.725500
10.848300 4.021300
10.867400 4.210900
10.886500 4.072400
10.905700 4.235000
10.924800 4.294200
10.943900 4.320400
10.963100 4.064900
10.982200 3.671400
11.001300 3.487800
11.020500 3.403700
11.039600 3.546300
11.058700 3.711600
11.077900 3.971500
11.097000 4.819100
11.116200 5.350000
11.135300 4.987300
11.154400 3.892200
11.173600 3.626300
11.192700 3.541700
11.211800 3.533000
11.231000 3.398700
11.250100 3.341000
11.269200 3.293400
11.288400 3.378000
11.307500 3.516400
11.326700 3.604100
11.345800 3.665800
11.364900 3.944200
11.384100 4.289000
11.403200 4.518800
11.422300 4.640700
11.441500 4.812700
11.460600 4.893400
11.479700 4.517400
11.498900 4.590300
11.518000 4.894200
11.537100 5.428300
11.556300 5.880700
11.575400 5.926700
11.594600 6.147800
11.613700 6.781200
11.632800 6.904400
11.652000 6.876200
11.671100 6.828600
11.690200 6.875800
11.709400 6.971600
11.728500 7.297100
11.747600 7.628400
11.766800 7.858500
11.785900 7.834200
11.805000 7.766400
11.824200 7.472900
11.843300 6.994200
11.862500 6.477200
11.881600 5.992600
11.900700 5.551500
11.919900 4.992800
11.939000 4.632300
11.958100 4.387700
11.977300 4.240700
11.996400 4.044200
12.015500 3.506300
12.034700 2.946300
12.053800 2.405100
12.072900 2.110300
12.092100 2.025700
12.111200 2.015600
12.130400 1.962200
12.149500 1.977500
12.168600 2.060700
12.187800 2.236900
12.206900 2.190000
12.226000 2.212300
12.245200 2.300800
12.264300 2.496600
12.283400 2.744000
12.302600 2.923500
12.321700 3.126500
12.340800 3.273900
12.360000 3.457700
12.379100 3.654500
12.398300 3.894900
12.417400 4.145200
12.436500 4.413700
12.455700 4.700200
12.474800 5.215200
12.493900 5.140000
12.513100 4.692300
12.532200 4.621300
12.551300 4.691500
12.570500 4.826200
12.589600 4.983400
12.608700 5.189500
12.627900 5.518400
12.647000 5.592100
12.666200 5.430900
12.685300 5.347800
12.704400 5.198900
12.723600 5.206500
12.742700 5.267600
12.761800 5.320500
12.781000 5.381700
12.800100 5.374700
12.819200 5.363800
12.838400 5.306100
12.857500 5.143000
12.876600 5.122000
12.895800 4.957600
12.914900 4.859100
12.934100 4.824100
12.953200 4.793500
12.972300 5.102000
12.991500 5.394100
13.010600 5.828000
13.029700 6.113200
13.048900 6.000400
13.068000 5.786400
13.087100 5.680500
13.106300 5.643300
13.125400 5.596100
13.144600 5.624000
13.163700 6.010600
13.182800 5.795300
13.202000 5.479600
13.221100 5.210500
13.240200 4.870100
13.259400 4.629400
13.278500 4.361400
13.297600 4.085800
13.316800 3.856100
13.335900 3.616100
13.355000 3.471000
13.374200 3.528900
13.393300 3.585200
13.412500 3.491500
13.431600 3.637200
13.450700 3.751500
13.469900 3.883500
13.489000 4.201200
13.508100 4.478200
13.527300 4.909600
13.546400 5.866300
13.565500 5.173500
13.584700 5.024000
13.603800 4.938500
13.622900 4.922700
13.642100 5.032000
13.661200 5.382000
13.680400 5.287900
13.699500 5.602000
13.718600 5.923600
13.737800 6.081600
13.756900 5.391200
13.776000 4.820400
13.795200 4.717200
13.814300 4.728900
13.833400 4.677000
13.852600 4.312300
13.871700 3.874900
13.890800 3.570900
13.910000 3.217200
13.929100 3.039900
13.948300 3.011000
13.967400 3.119800
13.986500 3.296200
14.005700 3.847300
14.024800 4.374400
14.043900 4.624500
14.063100 5.023600
14.082200 5.900700
14.101300 6.842100
14.120500 7.712200
14.139600 8.432000
14.158700 7.321700
14.177900 6.809800
14.197000 6.598800
14.216200 6.744600
14.235300 7.574200
14.254400 7.492300
14.273600 6.989800
14.292700 7.053500
14.311800 6.991400
14.331000 6.346200
14.350100 5.995400
14.369200 5.978400
14.388400 5.903600
14.407500 5.968000
14.426600 5.950000
14.445800 5.977600
14.464900 6.208000
14.484100 6.162200
14.503200 5.877800
14.522300 5.695400
14.541500 5.468800
14.560600 5.303600
14.579700 5.705200
14.598900 6.031400
14.618000 6.424300
14.637100 6.558600
14.656300 6.459900
14.675400 6.381900
14.694500 6.574300
14.713700 6.522500
14.732800 6.551800
14.752000 6.517100
14.771100 6.352700
14.790200 6.426000
14.809400 6.801400
14.828500 6.789500
14.847600 6.620900
14.866800 6.648800
14.885900 6.876000
14.905000 6.865100
14.924200 6.799800
14.943300 6.616300
14.962400 6.240400
14.981600 5.987900
15.000700 5.356300
15.019900 5.014000
15.039000 5.156500
15.058100 4.936700
15.077300 4.539100
15.096400 4.221300
15.115500 3.869000
15.134700 3.588000
15.153800 3.376000
15.172900 3.210300
15.192100 3.033100
15.211200 2.856600
15.230400 2.648300
15.249500 2.378700
15.268600 2.103800
15.287800 1.852700
15.306900 1.631100
15.326000 1.423000
15.345200 1.102600
15.364300 0.979700
15.383400 0.885500
15.402600 0.789300
15.421700 0.668100
15.440800 0.537700
15.460000 0.424100
15.479100 0.319600
15.498300 0.222700
15.517400 0.138200
15.536500 0.069700
15.555700 0.021200
15.574800 0.001200
15.593900 0.000000
15.613100 0.000000
15.632200 0.000000
15.651300 0.000000
15.670500 0.000000
15.689600 0.000000
15.708700 0.000000
15.727900 0.000000
15.747000 0.000000
15.766200 0.000000
15.785300 0.000000
15.804400 0.000000
15.823600 0.000000
15.842700 0.000000
15.861800 0.000000
15.881000 0.000000
15.900100 0.000000
15.919200 0.000000
15.938400 0.000000
15.957500 0.000000
15.976600 0.000000
15.995800 0.000000
16.014900 0.000000
16.034100 0.000000
16.053200 0.000000
16.072300 0.000000
16.091500 0.000000
16.110600 0.000000
16.129700 0.000000
16.148900 0.000000
16.168000 0.000000
16.187100 0.000000
16.206300 0.000000
16.225400 0.000000
16.244500 0.000000
16.263700 0.000000
16.282800 0.000000
16.302000 0.000000
16.321100 0.000000
16.340200 0.000000
16.359400 0.000000
16.378500 0.000000
16.397600 0.000000
16.416800 0.000000
16.435900 0.000000
16.455000 0.000000
16.474200 0.000000
16.493300 0.000000
16.512400 0.000000
16.531600 0.000000
16.550700 0.000000
16.569900 0.000000
16.589000 0.000000
16.608100 0.000000
16.627300 0.000000
16.646400 0.000000
16.665500 0.000000
16.684700 0.000000
16.703800 0.000000
16.722900 0.000000
16.742100 0.000000
16.761200 0.000000
16.780300 0.000000
16.799500 0.000000
16.818600 0.000000
16.837800 0.000000
16.856900 0.000000
16.876000 0.000000
16.895200 0.000000
16.914300 0.000000
16.933400 0.000000
16.952600 0.000000
16.971700 0.000000
16.990800 0.000000
17.010000 0.000000
17.029100 0.000000
17.048300 0.000000
17.067400 0.000000
17.086500 0.000000
17.105700 0.000000
17.124800 0.000000
17.143900 0.000000
17.163100 0.000000
17.182200 0.000000
17.201300 0.000000
17.220500 0.000000
17.239600 0.000000
17.258700 0.000000
17.277900 0.000000
17.297000 0.000000
17.316200 0.000000
17.335300 0.000000
e
