set title 'mp-1080826 - Density of States'
set xlabel 'Energy (eV)'
set ylabel 'DOS (states/eV)'
set grid
set xrange [-10:10]
set yrange [0:4.089]
set xzeroaxis lt -1
set terminal png size 800,600
set output 'mp-1080826_dos_gnuplot.png'
plot '-' using 1:2 with lines title 'DOS'
-15.125500 0.000000
-15.094600 0.000000
-15.063800 0.000000
-15.032900 0.000000
-15.002100 0.000000
-14.971200 0.000000
-14.940300 0.000000
-14.909500 0.000000
-14.878600 0.000000
-14.847800 0.000000
-14.816900 0.000000
-14.786000 0.000000
-14.755200 0.000000
-14.724300 0.000000
-14.693500 0.000000
-14.662600 0.000000
-14.631700 0.000000
-14.600900 0.000000
-14.570000 0.000000
-14.539200 0.000000
-14.508300 0.000000
-14.477500 0.000000
-14.446600 0.000000
-14.415700 0.000000
-14.384900 0.000000
-14.354000 0.000000
-14.323200 0.000000
-14.292300 0.000000
-14.261400 0.000000
-14.230600 0.000000
-14.199700 0.000000
-14.168900 0.000000
-14.138000 0.000000
-14.107100 0.000000
-14.076300 0.000000
-14.045400 0.000000
-14.014600 0.000000
-13.983700 0.000000
-13.952800 0.000000
-13.922000 0.000000
-13.891100 0.000000
-13.860300 0.000000
-13.829400 0.000000
-13.798500 0.000000
-13.767700 0.000000
-13.736800 0.000000
-13.706000 0.000000
-13.675100 0.000000
-13.644200 0.000000
-13.613400 0.000000
-13.582500 0.000000
-13.551700 0.000000
-13.520800 0.000000
-13.489900 0.000000
-13.459100 0.000000
-13.428200 0.000000
-13.397400 0.000000
-13.366500 0.000000
-13.335600 0.000000
-13.304800 0.000000
-13.273900 0.000000
-13.243100 0.000000
-13.212200 0.000000
-13.181300 0.000000
-13.150500 0.000000
-13.119600 0.000000
-13.088800 0.000000
-13.057900 0.000000
-13.027000 0.000000
-12.996200 0.000000
-12.965300 0.000000
-12.934500 0.000000
-12.903600 0.000000
-12.872700 0.000000
-12.841900 0.000000
-12.811000 0.000000
-12.780200 0.000000
-12.749300 0.000000
-12.718400 0.000000
-12.687600 0.000000
-12.656700 0.000000
-12.625900 0.000000
-12.595000 0.000000
-12.564100 0.000000
-12.533300 0.000000
-12.502400 0.000000
-12.471600 0.000000
-12.440700 0.000000
-12.409800 0.000000
-12.379000 0.000000
-12.348100 0.000000
-12.317300 0.000100
-12.286400 0.007300
-12.255500 0.027000
-12.224700 0.058900
-12.193800 0.092700
-12.163000 0.122200
-12.132100 0.148200
-12.101200 0.173800
-12.070400 0.199900
-12.039500 0.227100
-12.008700 0.255300
-11.977800 0.284500
-11.947000 0.314800
-11.916100 0.343000
-11.885200 0.358300
-11.854400 0.370500
-11.823500 0.380900
-11.792700 0.393800
-11.761800 0.406600
-11.730900 0.419100
-11.700100 0.432100
-11.669200 0.446200
-11.638400 0.461100
-11.607500 0.476400
-11.576600 0.503900
-11.545800 0.531900
-11.514900 0.555400
-11.484100 0.572600
-11.453200 0.587400
-11.422300 0.602300
-11.391500 0.617000
-11.360600 0.629800
-11.329800 0.640600
-11.298900 0.650000
-11.268000 0.657700
-11.237200 0.663500
-11.206300 0.667300
-11.175500 0.669500
-11.144600 0.671300
-11.113700 0.676900
-11.082900 0.686700
-11.052000 0.695700
-11.021200 0.701700
-10.990300 0.706300
-10.959400 0.708900
-10.928600 0.710300
-10.897700 0.711000
-10.866900 0.711100
-10.836000 0.712000
-10.805100 0.711300
-10.774300 0.705200
-10.743400 0.693800
-10.712600 0.677500
-10.681700 0.657900
-10.650800 0.637400
-10.620000 0.618200
-10.589100 0.600300
-10.558300 0.582500
-10.527400 0.563000
-10.496500 0.540400
-10.465700 0.519200
-10.434800 0.500900
-10.404000 0.485700
-10.373100 0.473400
-10.342200 0.464100
-10.311400 0.457600
-10.280500 0.453500
-10.249700 0.450300
-10.218800 0.449500
-10.187900 0.451300
-10.157100 0.455100
-10.126200 0.459900
-10.095400 0.509800
-10.064500 0.532500
-10.033600 0.558000
-10.002800 0.586300
-9.971900 0.616500
-9.941100 0.642200
-9.910200 0.672900
-9.879300 0.712500
-9.848500 0.758700
-9.817600 0.811700
-9.786800 0.846700
-9.755900 0.875300
-9.725000 0.899300
-9.694200 0.924100
-9.663300 0.949100
-9.632500 0.968200
-9.601600 0.981600
-9.570700 0.989800
-9.539900 0.991900
-9.509000 0.988100
-9.478200 0.978200
-9.447300 0.952800
-9.416500 0.932200
-9.385600 0.922500
-9.354700 0.912300
-9.323900 0.902100
-9.293000 0.894200
-9.262200 0.887500
-9.231300 0.881800
-9.200400 0.876900
-9.169600 0.871900
-9.138700 0.866800
-9.107900 0.861500
-9.077000 0.855200
-9.046100 0.854700
-9.015300 0.855700
-8.984400 0.859000
-8.953600 0.870100
-8.922700 0.885400
-8.891800 0.903700
-8.861000 0.922200
-8.830100 0.942300
-8.799300 0.975400
-8.768400 1.029900
-8.737500 1.078500
-8.706700 1.105800
-8.675800 1.110100
-8.645000 1.103300
-8.614100 1.094100
-8.583200 1.081900
-8.552400 1.068400
-8.521500 1.055300
-8.490700 1.039100
-8.459800 1.019800
-8.428900 0.999000
-8.398100 0.974600
-8.367200 0.947900
-8.336400 0.924900
-8.305500 0.902100
-8.274600 0.878900
-8.243800 0.854800
-8.212900 0.842200
-8.182100 0.841400
-8.151200 0.845100
-8.120300 0.850000
-8.089500 0.856600
-8.058600 0.864500
-8.027800 0.874200
-7.996900 0.886100
-7.966000 0.899800
-7.935200 0.912200
-7.904300 0.920500
-7.873500 0.927800
-7.842600 0.931900
-7.811700 0.928000
-7.780900 0.913200
-7.750000 0.889300
-7.719200 0.864700
-7.688300 0.826300
-7.657400 0.776900
-7.626600 0.736200
-7.595700 0.712800
-7.564900 0.706200
-7.534000 0.711200
-7.503100 0.728100
-7.472300 0.707800
-7.441400 0.696700
-7.410600 0.699800
-7.379700 0.711200
-7.348800 0.720200
-7.318000 0.712200
-7.287100 0.710600
-7.256300 0.720300
-7.225400 0.730300
-7.194500 0.740700
-7.163700 0.751500
-7.132800 0.764600
-7.102000 0.793500
-7.071100 0.828300
-7.040200 0.869600
-7.009400 0.917600
-6.978500 0.970400
-6.947700 1.032700
-6.916800 1.107200
-6.886000 1.178000
-6.855100 1.241400
-6.824200 1.294200
-6.793400 1.340400
-6.762500 1.385000
-6.731700 1.446400
-6.700800 1.494900
-6.669900 1.525200
-6.639100 1.528500
-6.608200 1.509700
-6.577400 1.509700
-6.546500 1.532400
-6.515600 1.558700
-6.484800 1.588100
-6.453900 1.627300
-6.423100 1.691100
-6.392200 1.785500
-6.361300 1.895400
-6.330500 1.925400
-6.299600 1.806800
-6.268800 1.694600
-6.237900 1.623300
-6.207000 1.572400
-6.176200 1.509000
-6.145300 1.465300
-6.114500 1.432100
-6.083600 1.407600
-6.052700 1.393400
-6.021900 1.385400
-5.991000 1.377700
-5.960200 1.425400
-5.929300 1.374400
-5.898400 1.368700
-5.867600 1.397800
-5.836700 1.427100
-5.805900 1.453400
-5.775000 1.459200
-5.744100 1.441800
-5.713300 1.411400
-5.682400 1.383200
-5.651600 1.375300
-5.620700 1.381100
-5.589800 1.398200
-5.559000 1.427400
-5.528100 1.459800
-5.497300 1.496100
-5.466400 1.491600
-5.435500 1.470100
-5.404700 1.442800
-5.373800 1.421600
-5.343000 1.400500
-5.312100 1.374600
-5.281200 1.344100
-5.250400 1.292300
-5.219500 1.242000
-5.188700 1.188000
-5.157800 1.140100
-5.126900 1.098900
-5.096100 1.063100
-5.065200 1.032000
-5.034400 0.994500
-5.003500 0.944500
-4.972600 0.901900
-4.941800 0.865300
-4.910900 0.818600
-4.880100 0.762200
-4.849200 0.705300
-4.818300 0.698700
-4.787500 0.694500
-4.756600 0.692700
-4.725800 0.693200
-4.694900 0.695800
-4.664000 0.702900
-4.633200 0.719500
-4.602300 0.754200
-4.571500 0.807200
-4.540600 0.881700
-4.509700 1.022200
-4.478900 1.169300
-4.448000 1.358500
-4.417200 1.595600
-4.386300 1.776200
-4.355500 1.865400
-4.324600 1.916400
-4.293700 1.915600
-4.262900 1.724600
-4.232000 1.457900
-4.201200 1.281700
-4.170300 1.181400
-4.139400 1.093500
-4.108600 0.995500
-4.077700 0.902500
-4.046900 0.843700
-4.016000 0.801800
-3.985100 0.770100
-3.954300 0.738200
-3.923400 0.709400
-3.892600 0.688300
-3.861700 0.672400
-3.830800 0.658900
-3.800000 0.655800
-3.769100 0.670500
-3.738300 0.703500
-3.707400 0.809600
-3.676500 1.036000
-3.645700 1.134500
-3.614800 1.188900
-3.584000 1.325500
-3.553100 1.437800
-3.522200 1.530000
-3.491400 1.606000
-3.460500 1.675300
-3.429700 1.737900
-3.398800 1.792500
-3.367900 1.823200
-3.337100 1.720900
-3.306200 1.643800
-3.275400 1.645000
-3.244500 1.680400
-3.213600 1.729900
-3.182800 1.733500
-3.151900 1.654500
-3.121100 1.682300
-3.090200 1.725100
-3.059300 1.744200
-3.028500 1.740000
-2.997600 1.711500
-2.966800 1.682600
-2.935900 1.673000
-2.905000 1.644100
-2.874200 1.619600
-2.843300 1.594100
-2.812500 1.587600
-2.781600 1.674800
-2.750700 1.656300
-2.719900 1.623900
-2.689000 1.598700
-2.658200 1.602800
-2.627300 1.584300
-2.596400 1.541800
-2.565600 1.461300
-2.534700 1.353300
-2.503900 1.259300
-2.473000 1.170400
-2.442100 1.095200
-2.411300 1.034700
-2.380400 0.984900
-2.349600 0.946300
-2.318700 0.917400
-2.287800 0.893600
-2.257000 0.902000
-2.226100 0.950500
-2.195300 0.962300
-2.164400 0.982200
-2.133500 1.017900
-2.102700 1.072400
-2.071800 1.147500
-2.041000 1.239800
-2.010100 1.333400
-1.979200 1.438000
-1.948400 1.559100
-1.917500 1.643100
-1.886700 1.608000
-1.855800 1.611000
-1.825000 1.639700
-1.794100 1.674300
-1.763200 1.704000
-1.732400 1.728400
-1.701500 1.753100
-1.670700 1.789100
-1.639800 1.851600
-1.608900 1.865200
-1.578100 1.851200
-1.547200 1.809400
-1.516400 1.738800
-1.485500 1.664100
-1.454600 1.653300
-1.423800 1.613000
-1.392900 1.558100
-1.362100 1.490600
-1.331200 1.430000
-1.300300 1.380900
-1.269500 1.327500
-1.238600 1.272300
-1.207800 1.220800
-1.176900 1.171900
-1.146000 1.175200
-1.115200 1.223200
-1.084300 1.321400
-1.053500 1.134300
-1.022600 1.138200
-0.991700 1.157100
-0.960900 1.186600
-0.930000 1.228800
-0.899200 1.274000
-0.868300 1.319400
-0.837400 1.360500
-0.806600 1.372500
-0.775700 1.383000
-0.744900 1.391100
-0.714000 1.399300
-0.683100 1.405800
-0.652300 1.405600
-0.621400 1.401200
-0.590600 1.407800
-0.559700 1.429600
-0.528800 1.461600
-0.498000 1.513300
-0.467100 1.584200
-0.436300 1.659400
-0.405400 1.727600
-0.374500 1.779900
-0.343700 1.812200
-0.312800 1.825600
-0.282000 1.830300
-0.251100 1.822200
-0.220200 1.811500
-0.189400 1.825100
-0.158500 1.846400
-0.127700 1.857300
-0.096800 1.870000
-0.065900 1.882600
-0.035100 1.902900
-0.004200 1.920100
0.026600 1.907800
0.057500 1.863300
0.088400 1.815100
0.119200 1.775900
0.150100 1.757200
0.180900 1.793000
0.211800 1.813100
0.242700 1.858100
0.273500 1.914200
0.304400 1.974300
0.335200 2.026600
0.366100 2.069900
0.397000 2.076400
0.427800 2.089900
0.458700 2.110800
0.489500 2.139000
0.520400 2.171100
0.551300 2.151900
0.582100 2.135100
0.613000 2.146700
0.643800 2.179100
0.674700 2.215100
0.705500 2.243300
0.736400 2.259900
0.767300 2.277700
0.798100 2.268000
0.829000 2.193000
0.859800 2.186300
0.890700 2.152600
0.921600 2.109100
0.952400 2.068500
0.983300 2.030500
1.014100 1.996100
1.045000 1.925700
1.075900 1.864400
1.106700 1.825100
1.137600 1.772000
1.168400 1.755300
1.199300 1.812800
1.230200 1.825600
1.261000 1.697500
1.291900 1.678000
1.322700 1.679900
1.353600 1.695400
1.384500 1.724100
1.415300 1.763300
1.446200 1.783800
1.477000 1.847200
1.507900 1.937000
1.538800 2.015600
1.569600 2.078900
1.600500 2.136500
1.631300 2.197400
1.662200 2.291300
1.693100 2.378800
1.723900 2.088600
1.754800 2.012700
1.785600 1.996200
1.816500 2.007900
1.847400 2.019400
1.878200 2.026700
1.909100 2.030400
1.939900 2.033000
1.970800 2.046400
2.001700 2.098200
2.032500 2.067200
2.063400 2.056000
2.094200 2.097600
2.125100 2.118500
2.156000 2.151500
2.186800 2.192100
2.217700 2.207300
2.248500 2.263600
2.279400 2.390300
2.310300 2.314200
2.341100 2.278900
2.372000 2.294100
2.402800 2.292100
2.433700 2.278800
2.464600 2.261600
2.495400 2.239100
2.526300 2.211000
2.557100 2.205400
2.588000 2.207100
2.618900 2.224100
2.649700 2.258800
2.680600 2.326700
2.711400 2.401600
2.742300 2.438000
2.773200 2.464300
2.804000 2.481800
2.834900 2.463100
2.865700 2.496900
2.896600 2.597300
2.927500 2.670100
2.958300 2.742800
2.989200 2.832600
3.020000 2.912400
3.050900 2.955400
3.081800 2.958600
3.112600 2.984600
3.143500 2.855700
3.174300 2.755200
3.205200 2.689900
3.236100 2.648500
3.266900 2.661300
3.297800 2.672800
3.328600 2.647100
3.359500 2.635700
3.390300 2.660400
3.421200 2.708900
3.452100 2.772100
3.482900 2.847200
3.513800 2.899900
3.544600 3.002100
3.575500 3.031200
3.606400 3.062500
3.637200 3.095500
3.668100 3.086400
3.698900 3.052200
3.729800 3.017600
3.760700 2.980700
3.791500 2.928900
3.822400 2.850300
3.853200 2.782100
3.884100 2.716900
3.915000 2.659400
3.945800 2.617000
3.976700 2.608800
4.007500 2.618000
4.038400 2.654100
4.069300 2.726300
4.100100 2.839500
4.131000 2.858500
4.161800 2.846200
4.192700 2.895400
4.223600 2.961500
4.254400 3.007200
4.285300 2.948100
4.316100 2.852700
4.347000 2.779900
4.377900 2.768600
4.408700 2.764800
4.439600 2.776000
4.470400 2.801400
4.501300 2.826300
4.532200 2.869900
4.563000 2.929300
4.593900 2.961500
4.624700 3.020900
4.655600 3.144600
4.686500 3.271800
4.717300 3.404500
4.748200 3.684000
4.779000 3.717300
4.809900 3.402300
4.840800 3.190300
4.871600 3.101600
4.902500 3.041800
4.933300 3.001600
4.964200 2.960300
4.995100 2.961200
5.025900 2.981300
5.056800 3.023500
5.087600 3.091100
5.118500 3.023900
5.149400 2.985000
5.180200 2.953100
5.211100 2.906200
5.241900 2.862800
5.272800 2.857200
5.303700 2.901300
5.334500 2.866400
5.365400 2.787800
5.396200 2.798800
5.427100 2.819600
5.458000 2.833300
5.488800 2.853400
5.519700 2.877200
5.550500 2.981500
5.581400 2.956300
5.612300 2.942100
5.643100 2.956900
5.674000 2.978000
5.704800 3.003800
5.735700 3.035200
5.766600 3.072600
5.797400 3.103500
5.828300 3.114100
5.859100 3.110600
5.890000 3.112800
5.920800 3.065500
5.951700 3.026600
5.982600 3.000800
6.013400 2.984400
6.044300 2.994600
6.075100 2.937100
6.106000 2.837200
6.136900 2.790900
6.167700 2.727900
6.198600 2.692300
6.229400 2.653800
6.260300 2.597900
6.291200 2.521700
6.322000 2.448600
6.352900 2.403700
6.383700 2.374700
6.414600 2.351600
6.445500 2.328300
6.476300 2.304800
6.507200 2.279900
6.538000 2.250200
6.568900 2.217700
6.599800 2.182400
6.630600 2.141100
6.661500 2.097200
6.692300 2.037200
6.723200 1.973200
6.754100 1.911300
6.784900 1.853500
6.815800 1.821800
6.846600 1.799200
6.877500 1.779400
6.908400 1.770400
6.939200 1.760500
6.970100 1.734600
7.000900 1.719600
7.031800 1.677000
7.062700 1.624300
7.093500 1.570500
7.124400 1.538900
7.155200 1.530100
7.186100 1.525800
7.217000 1.509500
7.247800 1.462000
7.278700 1.405100
7.309500 1.351600
7.340400 1.304000
7.371300 1.253400
7.402100 1.212700
7.433000 1.174600
7.463800 1.129200
7.494700 1.072100
7.525600 1.021100
7.556400 0.986200
7.587300 0.952500
7.618100 0.919700
7.649000 0.885400
7.679900 0.838100
7.710700 0.793200
7.741600 0.755200
7.772400 0.715800
7.803300 0.672000
7.834200 0.629800
7.865000 0.589800
7.895900 0.556100
7.926700 0.524700
7.957600 0.493300
7.988500 0.462300
8.019300 0.431000
8.050200 0.400300
8.081000 0.370600
8.111900 0.345500
8.142800 0.321700
8.173600 0.298400
8.204500 0.273900
8.235300 0.250100
8.266200 0.227800
8.297100 0.206700
8.327900 0.186600
8.358800 0.166400
8.389600 0.146000
8.420500 0.125500
8.451300 0.105200
8.482200 0.085200
8.513100 0.066800
8.543900 0.051300
8.574800 0.038800
8.605600 0.029000
8.636500 0.021000
8.667400 0.014200
8.698200 0.008800
8.729100 0.004600
8.759900 0.001800
8.790800 0.000300
8.821700 0.000000
8.852500 0.000000
8.883400 0.000000
8.914200 0.000000
8.945100 0.000000
8.976000 0.000000
9.006800 0.000000
9.037700 0.000000
9.068500 0.000000
9.099400 0.000000
9.130300 0.000000
9.161100 0.000000
9.192000 0.000000
9.222800 0.000000
9.253700 0.000000
9.284600 0.000000
9.315400 0.000000
9.346300 0.000000
9.377100 0.000000
9.408000 0.000000
9.438900 0.000000
9.469700 0.000000
9.500600 0.000000
9.531400 0.000000
9.562300 0.000000
9.593200 0.000000
9.624000 0.000000
9.654900 0.000000
9.685700 0.000000
9.716600 0.000000
9.747500 0.000000
9.778300 0.000000
9.809200 0.000000
9.840000 0.000000
9.870900 0.000000
9.901800 0.000000
9.932600 0.000000
9.963500 0.000000
9.994300 0.000000
10.025200 0.000000
10.056100 0.000000
10.086900 0.000000
10.117800 0.000000
10.148600 0.000000
10.179500 0.000000
10.210400 0.000000
10.241200 0.000000
10.272100 0.000000
10.302900 0.000000
10.333800 0.000000
10.364700 0.000000
10.395500 0.000000
10.426400 0.000000
10.457200 0.000000
10.488100 0.000000
10.519000 0.000000
10.549800 0.000000
10.580700 0.000000
10.611500 0.000000
10.642400 0.000000
10.673300 0.000000
10.704100 0.000000
10.735000 0.000000
10.765800 0.000000
10.796700 0.000000
10.827600 0.000000
10.858400 0.000000
10.889300 0.000000
10.920100 0.000000
10.951000 0.000000
10.981800 0.000000
11.012700 0.000000
11.043600 0.000000
11.074400 0.000000
11.105300 0.000000
11.136100 0.000000
11.167000 0.000000
11.197900 0.000000
11.228700 0.000000
11.259600 0.000000
11.290400 0.000000
11.321300 0.000000
11.352200 0.000000
11.383000 0.000000
11.413900 0.000000
11.444700 0.000000
11.475600 0.000000
11.506500 0.000000
11.537300 0.000000
11.568200 0.000000
11.599000 0.000000
11.629900 0.000000
11.660800 0.000000
11.691600 0.000000
11.722500 0.000000
11.753300 0.000000
11.784200 0.000000
11.815100 0.000000
11.845900 0.000000
11.876800 0.000000
11.907600 0.000000
11.938500 0.000000
11.969400 0.000000
12.000200 0.000000
12.031100 0.000000
12.061900 0.000000
12.092800 0.000000
12.123700 0.000000
12.154500 0.000000
12.185400 0.000000
12.216200 0.000000
12.247100 0.000000
12.278000 0.000000
12.308800 0.000000
12.339700 0.000000
12.370500 0.007400
12.401400 0.014800
12.432300 0.020600
12.463100 0.026700
12.494000 0.033100
12.524800 0.039900
12.555700 0.047000
12.586600 0.054400
12.617400 0.062100
12.648300 0.069900
12.679100 0.078000
12.710000 0.086200
12.740900 0.094800
12.771700 0.103800
12.802600 0.113200
12.833400 0.123200
12.864300 0.133600
12.895200 0.144600
12.926000 0.156000
12.956900 0.168000
12.987700 0.180800
13.018600 0.195200
13.049500 0.212100
13.080300 0.234500
13.111200 0.260900
13.142000 0.291200
13.172900 0.323200
13.203800 0.356400
13.234600 0.387900
13.265500 0.417200
13.296300 0.452200
13.327200 0.513800
13.358100 0.623900
13.388900 0.746600
13.419800 0.880600
13.450600 1.037900
13.481500 1.258400
13.512300 1.497000
13.543200 1.735900
13.574100 1.852600
13.604900 1.946000
13.635800 2.040700
13.666600 2.209000
13.697500 1.981100
13.728400 1.892900
13.759200 1.858500
13.790100 1.781300
13.820900 1.692900
13.851800 1.516500
13.882700 1.471900
13.913500 1.431500
13.944400 1.400100
13.975200 1.375500
14.006100 1.357100
14.037000 1.344800
14.067800 1.339100
14.098700 1.340800
14.129500 1.348700
14.160400 1.362500
14.191300 1.387000
14.222100 1.420700
14.253000 1.458200
14.283800 1.504600
14.314700 1.564700
14.345600 1.608000
14.376400 1.627900
14.407300 1.611700
14.438100 1.624600
14.469000 1.634600
14.499900 1.654000
14.530700 1.684900
14.561600 1.731200
14.592400 1.792400
14.623300 1.880400
14.654200 2.001500
14.685000 2.155000
14.715900 2.431800
14.746700 2.667200
14.777600 2.939500
14.808500 3.037400
14.839300 3.037300
14.870200 3.057600
14.901000 3.015100
14.931900 2.779800
14.962800 2.490500
14.993600 2.345800
15.024500 2.288400
15.055300 2.225900
15.086200 2.146500
15.117100 2.011200
15.147900 1.903400
15.178800 1.918500
15.209600 2.036500
15.240500 2.205900
15.271400 2.354300
15.302200 2.512500
15.333100 2.723900
15.363900 2.529600
15.394800 2.577400
15.425700 2.640800
15.456500 2.715400
15.487400 2.803000
15.518200 2.799900
15.549100 2.919500
15.580000 3.191600
15.610800 3.315600
15.641700 3.351800
15.672500 3.483500
15.703400 3.412300
15.734300 3.531700
15.765100 3.511900
15.796000 3.187600
15.826800 3.012200
15.857700 2.880500
15.888600 2.751200
15.919400 2.622300
15.950300 2.505400
15.981100 2.359000
16.012000 2.238300
16.042800 2.099400
16.073700 1.953500
16.104600 1.865400
16.135400 1.953000
16.166300 2.080200
16.197100 2.039100
16.228000 2.023800
16.258900 2.029500
16.289700 2.047100
16.320600 2.115300
16.351400 2.144100
16.382300 2.180200
16.413200 2.272800
16.444000 2.347200
16.474900 2.405200
16.505700 2.515400
16.536600 2.684000
16.567500 2.821400
16.598300 2.910500
16.629200 3.028400
16.660000 3.153800
16.690900 3.286900
16.721800 3.433100
16.752600 3.594800
16.783500 3.900700
16.814300 4.041500
16.845200 4.036400
16.876100 3.758400
16.906900 3.510100
16.937800 3.493700
16.968600 3.565100
16.999500 3.588100
17.030400 3.598800
17.061200 3.583900
17.092100 3.498700
17.122900 3.498800
17.153800 3.573700
17.184700 3.567900
17.215500 3.539900
17.246400 3.524800
17.277200 3.490600
17.308100 3.729500
17.339000 4.110100
17.369800 4.199900
17.400700 4.235100
17.431500 4.247800
17.462400 3.965500
17.493300 3.583300
17.524100 3.491000
17.555000 3.437300
17.585800 3.371700
17.616700 3.299900
17.647600 3.228700
17.678400 3.117400
17.709300 3.020400
17.740100 2.964900
17.771000 2.928200
17.801900 2.884500
17.832700 2.837700
17.863600 2.829400
17.894400 2.791800
17.925300 2.745200
17.956200 2.728400
17.987000 2.704600
18.017900 2.742700
18.048700 2.788300
18.079600 2.875200
18.110500 2.983400
18.141300 2.979700
18.172200 2.856900
18.203000 2.881600
18.233900 2.870700
18.264800 2.804500
18.295600 2.711600
18.326500 2.795800
18.357300 2.828100
18.388200 2.802600
18.419100 2.828100
18.449900 2.840300
18.480800 2.845200
18.511600 2.881400
18.542500 2.912500
18.573300 2.930300
18.604200 2.916800
18.635100 2.864500
18.665900 2.841300
18.696800 2.861900
18.727600 2.794200
18.758500 2.726500
18.789400 2.656300
18.820200 2.596800
18.851100 2.573200
18.881900 2.578300
18.912800 2.622200
18.943700 2.701700
18.974500 2.821600
19.005400 2.958200
19.036200 3.099500
19.067100 3.207500
19.098000 3.206700
19.128800 2.974800
19.159700 2.903500
19.190500 2.925100
19.221400 2.956300
19.252300 3.007200
19.283100 3.098400
19.314000 3.225100
19.344800 3.333200
19.375700 3.333400
19.406600 3.196400
19.437400 3.110100
19.468300 3.127100
19.499100 3.046300
19.530000 2.881300
19.560900 2.747800
19.591700 2.662700
19.622600 2.604700
19.653400 2.562300
19.684300 2.533100
19.715200 2.499300
19.746000 2.481500
19.776900 2.367900
19.807700 2.311600
19.838600 2.265400
19.869500 2.257200
19.900300 2.276900
19.931200 2.331700
19.962000 2.364800
19.992900 2.364200
20.023800 2.409200
20.054600 2.428100
20.085500 2.437900
20.116300 2.473200
20.147200 2.537900
20.178100 2.659400
20.208900 2.745700
20.239800 2.796100
20.270600 2.721800
20.301500 2.561800
20.332400 2.386600
20.363200 2.330200
20.394100 2.315900
20.424900 2.318800
20.455800 2.382000
20.486700 2.566800
20.517500 2.712300
20.548400 2.987000
20.579200 2.820400
20.610100 2.840700
20.641000 2.853800
20.671800 2.863800
20.702700 2.873400
20.733500 2.905300
20.764400 3.001300
20.795300 3.143900
20.826100 3.214800
20.857000 3.173800
20.887800 3.111100
20.918700 3.032900
20.949600 2.947200
20.980400 2.875400
21.011300 2.812300
21.042100 2.757500
21.073000 2.726800
21.103800 2.776000
21.134700 2.801400
21.165600 2.763800
21.196400 2.779500
21.227300 2.857500
21.258100 2.920500
21.289000 2.921900
21.319900 2.745800
21.350700 2.727500
21.381600 2.774500
21.412400 2.792400
21.443300 2.833600
21.474200 2.871900
21.505000 2.924600
21.535900 3.115500
21.566700 3.325400
21.597600 3.611200
21.628500 3.742200
21.659300 3.382300
21.690200 2.981400
21.721000 2.668600
21.751900 2.646900
21.782800 2.685000
21.813600 2.657800
21.844500 2.742500
21.875300 2.812700
21.906200 2.976200
21.937100 2.935200
21.967900 2.887800
21.998800 2.945100
22.029600 2.977300
22.060500 2.973000
22.091400 2.977100
22.122200 2.977700
22.153100 2.943300
22.183900 2.928100
22.214800 2.875800
22.245700 2.891400
22.276500 3.074200
22.307400 3.166900
22.338200 3.179200
22.369100 3.135300
22.400000 3.069000
22.430800 2.953200
22.461700 2.949700
22.492500 3.052600
22.523400 3.114600
22.554300 3.052300
22.585100 2.949100
22.616000 2.876100
22.646800 2.894500
22.677700 2.919100
22.708600 2.991900
22.739400 2.930800
22.770300 2.993700
22.801100 3.017000
22.832000 3.005000
22.862900 2.961700
22.893700 2.860000
22.924600 2.750800
22.955400 2.651700
22.986300 2.417100
23.017200 2.170000
23.048000 2.105700
23.078900 2.130300
23.109700 2.154200
23.140600 2.225300
23.171500 2.332100
23.202300 2.428900
23.233200 2.514600
23.264000 2.590800
23.294900 2.688800
23.325800 2.801600
23.356600 2.851200
23.387500 2.836300
23.418300 2.831500
23.449200 2.642500
23.480100 2.439100
23.510900 2.191000
23.541800 2.135800
23.572600 2.102200
23.603500 2.021800
23.634300 2.108600
23.665200 2.118700
23.696100 2.092500
23.726900 2.098500
23.757800 2.164800
23.788600 2.079100
23.819500 1.975100
23.850400 1.914800
23.881200 1.903200
23.912100 2.033100
23.942900 2.115400
23.973800 2.239300
24.004700 2.226100
24.035500 2.174400
24.066400 2.088900
24.097200 1.986200
24.128100 1.902600
24.159000 1.838800
24.189800 1.813200
24.220700 1.799900
24.251500 1.785900
24.282400 1.691400
24.313300 1.618900
24.344100 1.519000
24.375000 1.426000
24.405800 1.385300
24.436700 1.378000
24.467600 1.416700
24.498400 1.571600
24.529300 1.888400
24.560100 2.339400
24.591000 2.793200
24.621900 3.397900
24.652700 4.077200
24.683600 3.859300
24.714400 3.647900
24.745300 3.474100
24.776200 3.315800
24.807000 3.246600
24.837900 3.018200
24.868700 2.884400
24.899600 2.795300
24.930500 2.673100
24.961300 2.549700
24.992200 2.411900
25.023000 2.309700
25.053900 2.364300
25.084800 2.378600
25.115600 2.321400
25.146500 2.427000
25.177300 2.459500
25.208200 2.477900
25.239100 2.354300
25.269900 2.090100
25.300800 1.771900
25.331600 1.546700
25.362500 1.458500
25.393400 1.449100
25.424200 1.812400
25.455100 1.938600
25.485900 1.842200
25.516800 1.826700
25.547700 1.882600
25.578500 1.965300
25.609400 2.047800
25.640200 2.153500
25.671100 2.271700
25.702000 2.456700
25.732800 2.676900
25.763700 2.840300
25.794500 2.973500
25.825400 3.133700
25.856300 3.236800
25.887100 3.755100
25.918000 3.251400
25.948800 2.774600
25.979700 2.254800
26.010600 1.931700
26.041400 1.708400
26.072300 1.535500
26.103100 1.442400
26.134000 1.287600
26.164900 1.096800
26.195700 1.022600
26.226600 0.971600
26.257400 0.936700
26.288300 0.917900
26.319100 0.925600
26.350000 0.969900
26.380900 1.024100
26.411700 1.079400
26.442600 1.132000
26.473400 1.183600
26.504300 1.234700
26.535200 1.285000
26.566000 1.349700
26.596900 1.423300
26.627700 1.496900
26.658600 1.565600
26.689500 1.636400
26.720300 1.699000
26.751200 1.754400
26.782000 1.802800
26.812900 1.851200
26.843800 1.946900
26.874600 2.100800
26.905500 2.203500
26.936300 2.246900
26.967200 2.330600
26.998100 2.438200
27.028900 2.494100
27.059800 2.500200
27.090600 2.375400
27.121500 2.259000
27.152400 2.105400
27.183200 1.789800
27.214100 1.502700
27.244900 1.650700
27.275800 1.759000
27.306700 1.806100
27.337500 2.182500
27.368400 2.646000
27.399200 2.523900
27.430100 2.510000
27.461000 2.545000
27.491800 2.674700
27.522700 2.951400
27.553500 3.416100
27.584400 3.318400
27.615300 3.138800
27.646100 2.935900
27.677000 2.731400
27.707800 2.643400
27.738700 2.668300
27.769600 2.592800
27.800400 2.583700
27.831300 2.594000
27.862100 2.665300
27.893000 2.664200
27.923900 2.550700
27.954700 2.413700
27.985600 2.217600
28.016400 2.018800
28.047300 1.858500
28.078200 1.695600
28.109000 1.543200
28.139900 1.400400
28.170700 1.263600
28.201600 1.208200
28.232500 1.204400
28.263300 1.205700
28.294200 1.218100
28.325000 1.247400
28.355900 1.301300
28.386800 1.402700
28.417600 1.544300
28.448500 1.717800
28.479300 1.801100
28.510200 1.923100
28.541100 2.068900
28.571900 2.214400
28.602800 2.353000
28.633600 2.472700
28.664500 2.684600
28.695400 3.066200
28.726200 3.169500
28.757100 3.307300
28.787900 3.356500
28.818800 3.226700
28.849600 3.203800
28.880500 3.091600
28.911400 2.686400
28.942200 2.422300
28.973100 2.225900
29.003900 2.080900
29.034800 1.955500
29.065700 1.838500
29.096500 1.716300
29.127400 1.582300
29.158200 1.453600
29.189100 1.347800
29.220000 1.274500
29.250800 1.222300
29.281700 1.187900
29.312500 1.166800
29.343400 1.114900
29.374300 1.088700
29.405100 1.068000
29.436000 1.044600
29.466800 1.045600
29.497700 1.096800
29.528600 1.174500
29.559400 1.255600
29.590300 1.349800
29.621100 1.460100
29.652000 1.591500
29.682900 1.692200
29.713700 1.742800
29.744600 1.808000
29.775400 1.782500
29.806300 1.739300
29.837200 1.705100
29.868000 1.684600
29.898900 1.673400
29.929700 1.670000
29.960600 1.670400
29.991500 1.668300
30.022300 1.666300
30.053200 1.642100
30.084000 1.619300
30.114900 1.621800
30.145800 1.660900
30.176600 1.689100
30.207500 1.722100
30.238300 1.760300
30.269200 1.802400
30.300100 1.862000
30.330900 1.925000
30.361800 1.965500
30.392600 1.985500
30.423500 1.994100
30.454400 1.989600
30.485200 1.955900
30.516100 1.946200
30.546900 1.955500
30.577800 1.990500
30.608700 2.085500
30.639500 2.200500
30.670400 2.250900
30.701200 2.237900
30.732100 2.241900
30.763000 2.176800
30.793800 2.097100
30.824700 2.059400
30.855500 2.056900
30.886400 2.065600
30.917300 2.081600
30.948100 2.097900
30.979000 2.110200
31.009800 2.097500
31.040700 2.078700
31.071600 2.057600
31.102400 2.050800
31.133300 2.054200
31.164100 2.066400
31.195000 2.087100
31.225900 2.078600
31.256700 2.064700
31.287600 2.084700
31.318400 2.096100
31.349300 2.102900
31.380100 2.101700
31.411000 2.123400
31.441900 2.213000
31.472700 2.312700
31.503600 2.386600
31.534400 2.425900
31.565300 2.466300
31.596200 2.509300
31.627000 2.574600
31.657900 2.637300
31.688700 2.684700
31.719600 2.656900
31.750500 2.675900
31.781300 2.643000
31.812200 2.555300
31.843000 2.544100
31.873900 2.681400
31.904800 2.555800
31.935600 2.315600
31.966500 2.126500
31.997300 1.981500
32.028200 1.891500
32.059100 1.822700
32.089900 1.775500
32.120800 1.818300
32.151600 1.910500
32.182500 2.014900
32.213400 2.106100
32.244200 2.155700
32.275100 2.155500
32.305900 2.230000
32.336800 2.119700
32.367700 2.183500
32.398500 2.340500
32.429400 2.451800
32.460200 2.436700
32.491100 2.352700
32.522000 2.281400
32.552800 2.109000
32.583700 1.973500
32.614500 2.004300
32.645400 2.078700
32.676300 2.175700
32.707100 2.275700
32.738000 2.354800
32.768800 2.397600
32.799700 2.414000
32.830600 2.479900
32.861400 2.581300
32.892300 2.671200
32.923100 2.699000
32.954000 2.716300
32.984900 2.752200
33.015700 2.795800
33.046600 2.845200
33.077400 2.905100
33.108300 2.908000
33.139200 2.849800
33.170000 2.866400
33.200900 2.616400
33.231700 2.527200
33.262600 2.495800
33.293500 2.477800
33.324300 2.467300
33.355200 2.550500
33.386000 2.864500
33.416900 3.240500
33.447800 3.278600
33.478600 3.236600
33.509500 3.240100
33.540300 3.165000
33.571200 3.080700
33.602100 2.992400
33.632900 2.928900
33.663800 2.718600
33.694600 2.609900
33.725500 2.547700
33.756400 2.400700
33.787200 2.301700
33.818100 2.209100
33.848900 2.119200
33.879800 2.032600
33.910600 1.973100
33.941500 1.969600
33.972400 2.018100
34.003200 1.991600
34.034100 2.025900
34.064900 2.135200
34.095800 2.224500
34.126700 2.311600
34.157500 2.366100
34.188400 2.399900
34.219200 2.433400
34.250100 2.491000
34.281000 2.589300
34.311800 2.693100
34.342700 2.528900
34.373500 2.534400
34.404400 2.458500
34.435300 2.305000
34.466100 2.090300
34.497000 1.915800
34.527800 1.719800
34.558700 1.606200
34.589600 1.530800
34.620400 1.456200
34.651300 1.394700
34.682100 1.343800
34.713000 1.303300
34.743900 1.276800
34.774700 1.260700
34.805600 1.244300
34.836400 1.206700
34.867300 1.183100
34.898200 1.157100
34.929000 1.119000
34.959900 1.080000
34.990700 1.070100
35.021600 1.100900
35.052500 1.159000
35.083300 1.219000
35.114200 1.258000
35.145000 1.268200
35.175900 1.271500
35.206800 1.300300
35.237600 1.362300
35.268500 1.458300
35.299300 1.584500
35.330200 1.653800
35.361100 1.734100
35.391900 1.848800
35.422800 1.852300
35.453600 1.845000
35.484500 1.870400
35.515400 1.921100
35.546200 1.978200
35.577100 2.031200
35.607900 2.083800
35.638800 2.327100
35.669700 2.991600
35.700500 2.693500
35.731400 2.180100
35.762200 2.087900
35.793100 2.060200
35.824000 2.097400
35.854800 2.149100
35.885700 2.132400
35.916500 2.082600
35.947400 2.041400
35.978300 2.021200
36.009100 1.923600
36.040000 1.808600
36.070800 1.721700
36.101700 1.700500
36.132600 1.699800
36.163400 1.735700
36.194300 1.787700
36.225100 1.838700
36.256000 1.898100
36.286900 2.007900
36.317700 2.057300
36.348600 2.118700
36.379400 2.161000
36.410300 2.196100
36.441100 2.253600
36.472000 2.300600
36.502900 2.317600
36.533700 2.316700
36.564600 2.254800
36.595400 2.205200
36.626300 2.126200
36.657200 2.076500
36.688000 2.071800
36.718900 2.071700
36.749700 2.081700
36.780600 2.069700
36.811500 2.033800
36.842300 1.992800
36.873200 1.949300
36.904000 1.902500
36.934900 1.852000
36.965800 1.795600
36.996600 1.752900
37.027500 1.703700
37.058300 1.650000
37.089200 1.616000
37.120100 1.671500
37.150900 1.557400
37.181800 1.486600
37.212600 1.458000
37.243500 1.435600
37.274400 1.416400
37.305200 1.421600
37.336100 1.430100
37.366900 1.432500
37.397800 1.432100
37.428700 1.430400
37.459500 1.390900
37.490400 1.360300
37.521200 1.369500
37.552100 1.439600
37.583000 1.477100
37.613800 1.501000
37.644700 1.515000
37.675500 1.502900
37.706400 1.494500
37.737300 1.491100
37.768100 1.525400
37.799000 1.624400
37.829800 1.725000
37.860700 1.795000
37.891600 1.944800
37.922400 2.111300
37.953300 2.221400
37.984100 2.256700
38.015000 2.231500
38.045900 2.204700
38.076700 2.180100
38.107600 2.155700
38.138400 2.111900
38.169300 2.082100
38.200200 2.047600
38.231000 2.005000
38.261900 1.971200
38.292700 1.963700
38.323600 1.959700
38.354500 1.908000
38.385300 1.925500
38.416200 1.944200
38.447000 1.953700
38.477900 1.984400
38.508800 2.048100
38.539600 2.108100
38.570500 1.957700
38.601300 1.933500
38.632200 1.885500
38.663100 1.935900
38.693900 2.004300
38.724800 1.973900
38.755600 1.948000
38.786500 1.859100
38.817400 1.847000
38.848200 1.927800
38.879100 2.201700
38.909900 2.512200
38.940800 2.850900
38.971600 3.074800
39.002500 3.060900
39.033400 2.979500
39.064200 2.893400
39.095100 2.741800
39.125900 2.529900
39.156800 2.395000
39.187700 2.272000
39.218500 2.149700
39.249400 2.034500
39.280200 1.970200
39.311100 1.924400
39.342000 1.998300
39.372800 1.969500
39.403700 1.818000
39.434500 1.714300
39.465400 1.643900
39.496300 1.597300
39.527100 1.559200
39.558000 1.519900
39.588800 1.490900
39.619700 1.472200
39.650600 1.456200
39.681400 1.442800
39.712300 1.431700
39.743100 1.419300
39.774000 1.404500
39.804900 1.376200
39.835700 1.350300
39.866600 1.325800
39.897400 1.302700
39.928300 1.280700
39.959200 1.251400
39.990000 1.265800
40.020900 1.240700
40.051700 1.218400
40.082600 1.215200
40.113500 1.223600
40.144300 1.324100
40.175200 1.333300
40.206000 1.375700
40.236900 1.416800
40.267800 1.440000
40.298600 1.476800
40.329500 1.521700
40.360300 1.586600
40.391200 1.672700
40.422100 1.866300
40.452900 1.906600
40.483800 1.833800
40.514600 1.800400
40.545500 1.767600
40.576400 1.731100
40.607200 1.715600
40.638100 1.686600
40.668900 1.605300
40.699800 1.622300
40.730700 1.637700
40.761500 1.647300
40.792400 1.654100
40.823200 1.665900
40.854100 1.665700
40.885000 1.664400
40.915800 1.663600
40.946700 1.626100
40.977500 1.598900
41.008400 1.565100
41.039300 1.524400
41.070100 1.515000
41.101000 1.519200
41.131800 1.500700
41.162700 1.464100
41.193600 1.423700
41.224400 1.367200
41.255300 1.249300
41.286100 1.161200
41.317000 1.103200
41.347900 1.073300
41.378700 1.079800
41.409600 1.086900
41.440400 1.101200
41.471300 1.128500
41.502100 1.155900
41.533000 1.225600
41.563900 1.283600
41.594700 1.155200
41.625600 0.944600
41.656400 0.788500
41.687300 0.711600
41.718200 0.679600
41.749000 0.653000
41.779900 0.627300
41.810700 0.602300
41.841600 0.578100
41.872500 0.557100
41.903300 0.539700
41.934200 0.523500
41.965000 0.508600
41.995900 0.494900
42.026800 0.482400
42.057600 0.471600
42.088500 0.464500
42.119300 0.461100
42.150200 0.458200
42.181100 0.455100
42.211900 0.451500
42.242800 0.447400
42.273600 0.442200
42.304500 0.432400
42.335400 0.410900
42.366200 0.377800
42.397100 0.345800
42.427900 0.322600
42.458800 0.305500
42.489700 0.294200
42.520500 0.286400
42.551400 0.280500
42.582200 0.275200
42.613100 0.270600
42.644000 0.266800
42.674800 0.263200
42.705700 0.258100
42.736500 0.251000
42.767400 0.241500
42.798300 0.231000
42.829100 0.220700
42.860000 0.210600
42.890800 0.200900
42.921700 0.191400
42.952600 0.182200
42.983400 0.173300
43.014300 0.164600
43.045100 0.156200
43.076000 0.148100
43.106900 0.140300
43.137700 0.132700
43.168600 0.125400
43.199400 0.118300
43.230300 0.111300
43.261200 0.104300
43.292000 0.097500
43.322900 0.090900
43.353700 0.084400
43.384600 0.078000
43.415500 0.071800
43.446300 0.065700
43.477200 0.059800
43.508000 0.053700
43.538900 0.047100
43.569800 0.040500
43.600600 0.033900
43.631500 0.027300
43.662300 0.020700
43.693200 0.014200
43.724100 0.007600
43.754900 0.002100
43.785800 0.000000
43.816600 0.000000
43.847500 0.000000
43.878400 0.000000
43.909200 0.000000
43.940100 0.000000
43.970900 0.000000
44.001800 0.000000
44.032600 0.000000
44.063500 0.000000
44.094400 0.000000
44.125200 0.000000
44.156100 0.000000
44.186900 0.000000
44.217800 0.000000
44.248700 0.000000
44.279500 0.000000
44.310400 0.000000
44.341200 0.000000
44.372100 0.000000
44.403000 0.000000
44.433800 0.000000
44.464700 0.000000
44.495500 0.000000
44.526400 0.000000
44.557300 0.000000
44.588100 0.000000
44.619000 0.000000
44.649800 0.000000
44.680700 0.000000
44.711600 0.000000
44.742400 0.000000
44.773300 0.000000
44.804100 0.000000
44.835000 0.000000
44.865900 0.000000
44.896700 0.000000
44.927600 0.000000
44.958400 0.000000
44.989300 0.000000
45.020200 0.000000
45.051000 0.000000
45.081900 0.000000
45.112700 0.000000
45.143600 0.000000
45.174500 0.000000
45.205300 0.000000
45.236200 0.000000
45.267000 0.000000
45.297900 0.000000
45.328800 0.000000
45.359600 0.000000
45.390500 0.000000
45.421300 0.000000
45.452200 0.000000
45.483100 0.000000
45.513900 0.000000
45.544800 0.000000
45.575600 0.000000
45.606500 0.000000
45.637400 0.000000
45.668200 0.000000
45.699100 0.000000
45.729900 0.000000
45.760800 0.000000
45.791700 0.000000
45.822500 0.000000
45.853400 0.000000
45.884200 0.000000
45.915100 0.000000
45.946000 0.000000
45.976800 0.000000
46.007700 0.000000
46.038500 0.000000
46.069400 0.000000
46.100300 0.000000
46.131100 0.000000
46.162000 0.000000
46.192800 0.000000
46.223700 0.000000
46.254600 0.000000
46.285400 0.000000
46.316300 0.000000
46.347100 0.000000
46.378000 0.000000
46.408900 0.000000
46.439700 0.000000
46.470600 0.000000
46.501400 0.000000
46.532300 0.000000
46.563100 0.000000
46.594000 0.000000
e
