set title 'mp-82 - Density of States'
set xlabel 'Energy (eV)'
set ylabel 'DOS (states/eV)'
set grid
set xrange [-10:10]
set yrange [0:64.185]
set xzeroaxis lt -1
set terminal png size 800,600
set output 'mp-82_dos_gnuplot.png'
plot '-' using 1:2 with lines title 'DOS'
-7.571500 0.000000
-7.555300 0.000000
-7.539200 0.000000
-7.523000 0.000000
-7.506800 0.000000
-7.490700 0.000000
-7.474500 0.000000
-7.458300 0.000000
-7.442200 0.000000
-7.426000 0.000000
-7.409900 0.000000
-7.393700 0.000000
-7.377500 0.000000
-7.361400 0.000000
-7.345200 0.000000
-7.329000 0.000000
-7.312900 0.000000
-7.296700 0.000000
-7.280500 0.000000
-7.264400 0.000000
-7.248200 0.000000
-7.232100 0.000000
-7.215900 0.000000
-7.199700 0.000000
-7.183600 0.000000
-7.167400 0.000000
-7.151200 0.000000
-7.135100 0.000000
-7.118900 0.000000
-7.102700 0.000000
-7.086600 0.000000
-7.070400 0.000000
-7.054300 0.000000
-7.038100 0.000000
-7.021900 0.000000
-7.005800 0.000000
-6.989600 0.000000
-6.973400 0.000000
-6.957300 0.000000
-6.941100 0.000000
-6.924900 0.000000
-6.908800 0.000000
-6.892600 0.000000
-6.876500 0.000000
-6.860300 0.000000
-6.844100 0.000000
-6.828000 0.000000
-6.811800 0.000000
-6.795600 0.000000
-6.779500 0.000000
-6.763300 0.000000
-6.747100 0.000000
-6.731000 0.000000
-6.714800 0.000000
-6.698700 0.000000
-6.682500 0.000000
-6.666300 0.000000
-6.650200 0.000000
-6.634000 0.000000
-6.617800 0.000000
-6.601700 0.000000
-6.585500 0.000000
-6.569300 0.000000
-6.553200 0.000000
-6.537000 0.000000
-6.520900 0.000000
-6.504700 0.000000
-6.488500 0.000000
-6.472400 0.000000
-6.456200 0.000000
-6.440000 0.000000
-6.423900 0.000000
-6.407700 0.000000
-6.391500 0.000000
-6.375400 0.000000
-6.359200 0.000000
-6.343100 0.000000
-6.326900 0.000000
-6.310700 0.000000
-6.294600 0.000000
-6.278400 0.000000
-6.262200 0.000000
-6.246100 0.000000
-6.229900 0.000000
-6.213700 0.000000
-6.197600 0.000000
-6.181400 0.000000
-6.165300 0.000000
-6.149100 0.000000
-6.132900 0.000000
-6.116800 0.000000
-6.100600 0.042800
-6.084400 2.173100
-6.068300 3.311600
-6.052100 4.659700
-6.035900 5.890400
-6.019800 7.485500
-6.003600 14.103400
-5.987500 22.865500
-5.971300 29.730400
-5.955100 35.334500
-5.939000 37.785400
-5.922800 28.851300
-5.906600 28.233400
-5.890500 25.120400
-5.874300 32.949300
-5.858100 51.943000
-5.842000 34.198800
-5.825800 40.989700
-5.809700 41.756300
-5.793500 34.198900
-5.777300 30.478100
-5.761200 26.829000
-5.745000 28.411000
-5.728800 28.405600
-5.712700 26.220700
-5.696500 22.771900
-5.680300 16.708700
-5.664200 25.690000
-5.648000 39.313400
-5.631900 28.683800
-5.615700 34.895600
-5.599500 30.610000
-5.583400 30.823800
-5.567200 28.458900
-5.551000 29.854500
-5.534900 32.560700
-5.518700 31.290500
-5.502500 29.150000
-5.486400 35.658700
-5.470200 39.141300
-5.454100 44.801200
-5.437900 58.350200
-5.421700 38.285200
-5.405600 13.019400
-5.389400 0.000000
-5.373200 0.000000
-5.357100 0.000000
-5.340900 0.000000
-5.324700 0.000000
-5.308600 0.000000
-5.292400 0.000000
-5.276300 0.000000
-5.260100 0.000000
-5.243900 0.000000
-5.227800 0.000000
-5.211600 0.000000
-5.195400 0.000000
-5.179300 0.000000
-5.163100 0.000000
-5.146900 0.000000
-5.130800 0.000000
-5.114600 0.000000
-5.098400 0.000000
-5.082300 0.000000
-5.066100 0.000000
-5.050000 0.000000
-5.033800 0.000000
-5.017600 0.000000
-5.001500 0.000000
-4.985300 0.000000
-4.969100 0.000000
-4.953000 0.000000
-4.936800 0.000000
-4.920600 0.000000
-4.904500 0.000000
-4.888300 0.000000
-4.872200 0.000000
-4.856000 0.000000
-4.839800 0.000000
-4.823700 0.000000
-4.807500 0.000000
-4.791300 0.000000
-4.775200 0.000000
-4.759000 0.000000
-4.742800 0.000000
-4.726700 0.000000
-4.710500 0.000000
-4.694400 0.000000
-4.678200 0.000000
-4.662000 0.000000
-4.645900 0.000000
-4.629700 0.000000
-4.613500 0.000000
-4.597400 0.000000
-4.581200 0.000000
-4.565000 0.000000
-4.548900 0.000000
-4.532700 0.000000
-4.516600 0.000000
-4.500400 0.000000
-4.484200 0.000000
-4.468100 0.000000
-4.451900 0.000000
-4.435700 0.000000
-4.419600 0.000000
-4.403400 0.000000
-4.387200 0.000000
-4.371100 0.000000
-4.354900 0.000000
-4.338800 0.000000
-4.322600 0.000000
-4.306400 0.000000
-4.290300 0.000000
-4.274100 0.000000
-4.257900 0.000000
-4.241800 0.000000
-4.225600 0.000000
-4.209400 0.000000
-4.193300 0.000000
-4.177100 0.000000
-4.161000 0.000000
-4.144800 0.000000
-4.128600 0.000000
-4.112500 0.000000
-4.096300 0.000000
-4.080100 0.000000
-4.064000 0.000000
-4.047800 0.000000
-4.031600 0.000000
-4.015500 0.000000
-3.999300 0.000000
-3.983200 0.000000
-3.967000 0.000000
-3.950800 0.000000
-3.934700 0.000000
-3.918500 0.000000
-3.902300 0.000000
-3.886200 0.000000
-3.870000 0.000000
-3.853800 0.000000
-3.837700 0.000000
-3.821500 0.000000
-3.805400 0.000000
-3.789200 0.000000
-3.773000 0.000000
-3.756900 0.000000
-3.740700 0.000000
-3.724500 0.001600
-3.708400 0.015700
-3.692200 0.044600
-3.676000 0.080700
-3.659900 0.091900
-3.643700 0.094600
-3.627600 0.099600
-3.611400 0.111100
-3.595200 0.123000
-3.579100 0.135300
-3.562900 0.147700
-3.546700 0.156900
-3.530600 0.161700
-3.514400 0.162900
-3.498200 0.166200
-3.482100 0.171300
-3.465900 0.177400
-3.449800 0.183800
-3.433600 0.190100
-3.417400 0.196400
-3.401300 0.202600
-3.385100 0.209100
-3.368900 0.215900
-3.352800 0.223000
-3.336600 0.227200
-3.320400 0.230100
-3.304300 0.232300
-3.288100 0.236000
-3.272000 0.239800
-3.255800 0.243500
-3.239600 0.247000
-3.223500 0.250500
-3.207300 0.254200
-3.191100 0.258000
-3.175000 0.262000
-3.158800 0.266400
-3.142600 0.270900
-3.126500 0.275600
-3.110300 0.280300
-3.094200 0.285100
-3.078000 0.289900
-3.061800 0.294500
-3.045700 0.298300
-3.029500 0.300800
-3.013300 0.302700
-2.997200 0.304700
-2.981000 0.307400
-2.964800 0.310300
-2.948700 0.313300
-2.932500 0.316200
-2.916400 0.319100
-2.900200 0.322000
-2.884000 0.324900
-2.867900 0.327900
-2.851700 0.331100
-2.835500 0.334400
-2.819400 0.337800
-2.803200 0.341300
-2.787000 0.344800
-2.770900 0.348300
-2.754700 0.351800
-2.738600 0.355300
-2.722400 0.358900
-2.706200 0.362400
-2.690100 0.366000
-2.673900 0.368800
-2.657700 0.387900
-2.641600 0.406600
-2.625400 0.424100
-2.609200 0.401500
-2.593100 0.403200
-2.576900 0.404700
-2.560800 0.406100
-2.544600 0.407500
-2.528400 0.408900
-2.512300 0.410200
-2.496100 0.408700
-2.479900 0.406800
-2.463800 0.405100
-2.447600 0.404500
-2.431400 0.405400
-2.415300 0.406200
-2.399100 0.407000
-2.383000 0.407700
-2.366800 0.408500
-2.350600 0.409200
-2.334500 0.409900
-2.318300 0.410700
-2.302100 0.411400
-2.286000 0.408900
-2.269800 0.409300
-2.253600 0.409700
-2.237500 0.410100
-2.221300 0.410200
-2.205200 0.410000
-2.189000 0.425500
-2.172800 0.445700
-2.156700 0.467300
-2.140500 0.449500
-2.124300 0.453300
-2.108200 0.457200
-2.092000 0.461200
-2.075800 0.465100
-2.059700 0.469200
-2.043500 0.473400
-2.027400 0.474700
-2.011200 0.474900
-1.995000 0.474600
-1.978900 0.475600
-1.962700 0.478000
-1.946500 0.481100
-1.930400 0.484200
-1.914200 0.487400
-1.898000 0.490600
-1.881900 0.493900
-1.865700 0.497200
-1.849600 0.500600
-1.833400 0.504000
-1.817200 0.503900
-1.801100 0.506500
-1.784900 0.509300
-1.768700 0.512000
-1.752600 0.514700
-1.736400 0.517400
-1.720200 0.520100
-1.704100 0.523200
-1.687900 0.526000
-1.671800 0.528700
-1.655600 0.531500
-1.639400 0.533300
-1.623300 0.535800
-1.607100 0.538300
-1.590900 0.540700
-1.574800 0.543300
-1.558600 0.545900
-1.542400 0.547600
-1.526300 0.549400
-1.510100 0.551200
-1.494000 0.553500
-1.477800 0.556100
-1.461600 0.558700
-1.445500 0.561300
-1.429300 0.564000
-1.413100 0.566600
-1.397000 0.569200
-1.380800 0.571900
-1.364600 0.574600
-1.348500 0.577200
-1.332300 0.580100
-1.316200 0.582900
-1.300000 0.585800
-1.283800 0.588800
-1.267700 0.591700
-1.251500 0.594700
-1.235300 0.597700
-1.219200 0.600700
-1.203000 0.603500
-1.186800 0.605200
-1.170700 0.607700
-1.154500 0.610200
-1.138400 0.613000
-1.122200 0.615700
-1.106000 0.618400
-1.089900 0.621100
-1.073700 0.623800
-1.057500 0.626600
-1.041400 0.629600
-1.025200 0.632500
-1.009000 0.635400
-0.992900 0.638300
-0.976700 0.641300
-0.960600 0.644300
-0.944400 0.647300
-0.928200 0.650300
-0.912100 0.653400
-0.895900 0.656500
-0.879700 0.659600
-0.863600 0.662800
-0.847400 0.666000
-0.831200 0.669300
-0.815100 0.672600
-0.798900 0.675900
-0.782800 0.679200
-0.766600 0.682400
-0.750400 0.685500
-0.734300 0.688500
-0.718100 0.691600
-0.701900 0.694900
-0.685800 0.698000
-0.669600 0.701300
-0.653400 0.704700
-0.637300 0.708200
-0.621100 0.711800
-0.605000 0.715400
-0.588800 0.719000
-0.572600 0.722800
-0.556500 0.726600
-0.540300 0.730500
-0.524100 0.734400
-0.508000 0.738400
-0.491800 0.742400
-0.475600 0.746500
-0.459500 0.750700
-0.443300 0.755100
-0.427200 0.759400
-0.411000 0.763800
-0.394800 0.768300
-0.378700 0.772900
-0.362500 0.777700
-0.346300 0.782900
-0.330200 0.788200
-0.314000 0.793800
-0.297800 0.799500
-0.281700 0.805300
-0.265500 0.811300
-0.249400 0.817300
-0.233200 0.823600
-0.217000 0.830100
-0.200900 0.837000
-0.184700 0.844500
-0.168500 0.852200
-0.152400 0.860300
-0.136200 0.868600
-0.120000 0.877200
-0.103900 0.886100
-0.087700 0.895200
-0.071600 0.904500
-0.055400 0.914100
-0.039200 0.923900
-0.023100 0.946600
-0.006900 0.991700
0.009300 1.024900
0.025400 1.027700
0.041600 1.027600
0.057800 1.024500
0.073900 1.018400
0.090100 1.011300
0.106200 1.008000
0.122400 1.005100
0.138600 0.999700
0.154700 0.995200
0.170900 0.992100
0.187100 0.990700
0.203200 0.992000
0.219400 1.044500
0.235600 1.083300
0.251700 1.061100
0.267900 1.030900
0.284000 1.034100
0.300200 1.035500
0.316400 1.037000
0.332500 1.038700
0.348700 1.038400
0.364900 1.031600
0.381000 1.034000
0.397200 1.036600
0.413400 1.039200
0.429500 1.041800
0.445700 1.045200
0.461800 1.048200
0.478000 1.051100
0.494200 1.054000
0.510300 1.053700
0.526500 1.045900
0.542700 1.039500
0.558800 1.035300
0.575000 1.030900
0.591200 1.027600
0.607300 1.025900
0.623500 1.025400
0.639600 1.026100
0.655800 1.028100
0.672000 1.031000
0.688100 1.034300
0.704300 1.038200
0.720500 1.033700
0.736600 1.021500
0.752800 1.013000
0.769000 1.009300
0.785100 1.005000
0.801300 1.051100
0.817400 1.018900
0.833600 0.988900
0.849800 0.963100
0.865900 0.949100
0.882100 0.944400
0.898300 0.940300
0.914400 0.936800
0.930600 0.933900
0.946800 0.931800
0.962900 0.933400
0.979100 0.964500
0.995200 0.998000
1.011400 0.949500
1.027600 0.956000
1.043700 0.962500
1.059900 0.969500
1.076100 1.058800
1.092200 1.016000
1.108400 0.983800
1.124600 0.979600
1.140700 0.974500
1.156900 0.969000
1.173000 0.966000
1.189200 0.972000
1.205400 1.003300
1.221500 1.048900
1.237700 1.108200
1.253900 1.157000
1.270000 1.250100
1.286200 1.414700
1.302400 1.598100
1.318500 1.635000
1.334700 1.684600
1.350800 1.797800
1.367000 1.888400
1.383200 1.622900
1.399300 1.616700
1.415500 1.631500
1.431700 1.774900
1.447800 1.939500
1.464000 1.952000
1.480200 2.109000
1.496300 2.203800
1.512500 2.198500
1.528700 2.094800
1.544800 1.995900
1.561000 1.919000
1.577100 1.602700
1.593300 1.480700
1.609500 1.386400
1.625600 1.305800
1.641800 1.232400
1.658000 1.164600
1.674100 1.105300
1.690300 1.132000
1.706500 1.140900
1.722600 1.073700
1.738800 0.998900
1.754900 0.927300
1.771100 0.798100
1.787300 0.692700
1.803400 0.659300
1.819600 0.582200
1.835800 0.498700
1.851900 0.423300
1.868100 0.356400
1.884300 0.298300
1.900400 0.246500
1.916600 0.189600
1.932700 0.058400
1.948900 0.000000
1.965100 0.000000
1.981200 0.000000
1.997400 0.000000
2.013600 0.000000
2.029700 0.000000
2.045900 0.000000
2.062100 0.000000
2.078200 0.000000
2.094400 0.000000
2.110500 0.000000
2.126700 0.000000
2.142900 0.000000
2.159000 0.000000
2.175200 0.000000
2.191400 0.000000
2.207500 0.000000
2.223700 0.000000
2.239900 0.000000
2.256000 0.000000
2.272200 0.000000
2.288300 0.000000
2.304500 0.000000
2.320700 0.000000
2.336800 0.000000
2.353000 0.000000
2.369200 0.000000
2.385300 0.000000
2.401500 0.000000
2.417700 0.000000
2.433800 0.000000
2.450000 0.000000
2.466100 0.000000
2.482300 0.000000
2.498500 0.000000
2.514600 0.000000
2.530800 0.000000
2.547000 0.000000
2.563100 0.000000
2.579300 0.000000
2.595500 0.000000
2.611600 0.000000
2.627800 0.000000
2.643900 0.000000
2.660100 0.000000
2.676300 0.000000
2.692400 0.000000
2.708600 0.000000
2.724800 0.000000
2.740900 0.000000
2.757100 0.000000
2.773300 0.000000
2.789400 0.000000
2.805600 0.000000
2.821700 0.000000
2.837900 0.000000
2.854100 0.000000
2.870200 0.000000
2.886400 0.000000
2.902600 0.000000
2.918700 0.000000
2.934900 0.000000
2.951100 0.000000
2.967200 0.000000
2.983400 0.000000
2.999500 0.000000
3.015700 0.000000
3.031900 0.000000
3.048000 0.000000
3.064200 0.000000
3.080400 0.000000
3.096500 0.000000
3.112700 0.000000
3.128900 0.000000
3.145000 0.000000
3.161200 0.000000
3.177300 0.000000
3.193500 0.000300
3.209700 0.001700
3.225800 0.004000
3.242000 0.007400
3.258200 0.010500
3.274300 0.012900
3.290500 0.015300
3.306700 0.017800
3.322800 0.020500
3.339000 0.023200
3.355100 0.026000
3.371300 0.028900
3.387500 0.031900
3.403600 0.034900
3.419800 0.037800
3.436000 0.040600
3.452100 0.043300
3.468300 0.046000
3.484500 0.048700
3.500600 0.051500
3.516800 0.054300
3.532900 0.059100
3.549100 0.069600
3.565300 0.085500
3.581400 0.106500
3.597600 0.134200
3.613800 0.162500
3.629900 0.192600
3.646100 0.222500
3.662300 0.249800
3.678400 0.274400
3.694600 0.296500
3.710700 0.315900
3.726900 0.332700
3.743100 0.366800
3.759200 0.359800
3.775400 0.338700
3.791600 0.320100
3.807700 0.328800
3.823900 0.339100
3.840100 0.349900
3.856200 0.361200
3.872400 0.373100
3.888500 0.385600
3.904700 0.402200
3.920900 0.419600
3.937000 0.438100
3.953200 0.458100
3.969400 0.476100
3.985500 0.491400
4.001700 0.503800
4.017900 0.515900
4.034000 0.528800
4.050200 0.645900
4.066300 0.590800
4.082500 0.564100
4.098700 0.577200
4.114800 0.589000
4.131000 0.595100
4.147200 0.605600
4.163300 0.614500
4.179500 0.625000
4.195700 0.635800
4.211800 0.646500
4.228000 0.657000
4.244100 0.668000
4.260300 0.679800
4.276500 0.692200
4.292600 0.705200
4.308800 0.718700
4.325000 0.732800
4.341100 0.747300
4.357300 0.762400
4.373500 0.778300
4.389600 0.794900
4.405800 0.817900
4.421900 0.833000
4.438100 0.847900
4.454300 0.861300
4.470400 0.873900
4.486600 0.888100
4.502800 0.904700
4.518900 0.919900
4.535100 0.938000
4.551300 0.957900
4.567400 0.979700
4.583600 1.003000
4.599700 1.028200
4.615900 1.059200
4.632100 1.094600
4.648200 1.126300
4.664400 1.160800
4.680600 1.198000
4.696700 1.237300
4.712900 1.278700
4.729100 1.323900
4.745200 1.375100
4.761400 1.430200
4.777500 1.557500
4.793700 1.638700
4.809900 1.682400
4.826000 1.712200
4.842200 1.724900
4.858400 1.717800
4.874500 1.683000
4.890700 1.636000
4.906900 1.609400
4.923000 1.565600
4.939200 1.600800
4.955300 1.562400
4.971500 1.499600
4.987700 1.412800
5.003800 1.332000
5.020000 1.295900
5.036200 1.270800
5.052300 1.250100
5.068500 1.234900
5.084700 1.229200
5.100800 1.234800
5.117000 1.242200
5.133100 1.247200
5.149300 1.253000
5.165500 1.257400
5.181600 1.257800
5.197800 1.247400
5.214000 1.242200
5.230100 1.234000
5.246300 1.225300
5.262500 1.213900
5.278600 1.200800
5.294800 1.186100
5.310900 1.172100
5.327100 1.159700
5.343300 1.148400
5.359400 1.140400
5.375600 1.140200
5.391800 1.141700
5.407900 1.140500
5.424100 1.134700
5.440300 1.124800
5.456400 1.111500
5.472600 1.095300
5.488700 1.078200
5.504900 1.070600
5.521100 1.053700
5.537200 1.030700
5.553400 1.002600
5.569600 0.969500
5.585700 0.942800
5.601900 0.926200
5.618100 0.906700
5.634200 0.873700
5.650400 0.854200
5.666500 0.847800
5.682700 0.842100
5.698900 0.837200
5.715000 0.833000
5.731200 0.829600
5.747400 0.826900
5.763500 0.825100
5.779700 0.824300
5.795900 0.824900
5.812000 0.826900
5.828200 0.829500
5.844300 0.832400
5.860500 0.836700
5.876700 0.844500
5.892800 0.856600
5.909000 0.872300
5.925200 0.891300
5.941300 0.905200
5.957500 0.908400
5.973700 0.915900
5.989800 0.920700
6.006000 0.927900
6.022100 0.940000
6.038300 0.953300
6.054500 0.967700
6.070600 0.983200
6.086800 0.999700
6.103000 1.018200
6.119100 1.045300
6.135300 1.062600
6.151500 1.077100
6.167600 1.089300
6.183800 1.099200
6.199900 1.093800
6.216100 1.099200
6.232300 1.108400
6.248400 1.119500
6.264600 1.132400
6.280800 1.137100
6.296900 1.142800
6.313100 1.149300
6.329300 1.147600
6.345400 1.152000
6.361600 1.162600
6.377700 1.174500
6.393900 1.187600
6.410100 1.201900
6.426200 1.215500
6.442400 1.227700
6.458600 1.241900
6.474700 1.250300
6.490900 1.252000
6.507100 1.245700
6.523200 1.235400
6.539400 1.220700
6.555500 1.201400
6.571700 1.177400
6.587900 1.148800
6.604000 1.118100
6.620200 1.084800
6.636400 1.045300
6.652500 1.009300
6.668700 0.973600
6.684900 0.939600
6.701000 0.914500
6.717200 0.899900
6.733300 0.889600
6.749500 0.881100
6.765700 0.872200
6.781800 0.866400
6.798000 0.863600
6.814200 0.863600
6.830300 0.866300
6.846500 0.871800
6.862700 0.880000
6.878800 0.902200
6.895000 0.923700
6.911100 0.947600
6.927300 0.969300
6.943500 0.988800
6.959600 1.007300
6.975800 1.024800
6.992000 1.041700
7.008100 1.064200
7.024300 1.082500
7.040500 1.097800
7.056600 1.112700
7.072800 1.127900
7.088900 1.143900
7.105100 1.159700
7.121300 1.175300
7.137400 1.190700
7.153600 1.206100
7.169800 1.222100
7.185900 1.276800
7.202100 1.308300
7.218300 1.322100
7.234400 1.333600
7.250600 1.340200
7.266700 1.331500
7.282900 1.319600
7.299100 1.304700
7.315200 1.287400
7.331400 1.265900
7.347600 1.241100
7.363700 1.215100
7.379900 1.189700
7.396100 1.164500
7.412200 1.146800
7.428400 1.134400
7.444500 1.129000
7.460700 1.123700
7.476900 1.120400
7.493000 1.116200
7.509200 1.112100
7.525400 1.109500
7.541500 1.105200
7.557700 1.097200
7.573900 1.085400
7.590000 1.059300
7.606200 1.048200
7.622300 1.037300
7.638500 1.026500
7.654700 1.016000
7.670800 1.005600
7.687000 0.995500
7.703200 0.985600
7.719300 0.975900
7.735500 0.968200
7.751700 0.964700
7.767800 0.964000
7.784000 0.965500
7.800100 0.967300
7.816300 0.968400
7.832500 0.971400
7.848600 0.975600
7.864800 0.981800
7.881000 0.989800
7.897100 0.999300
7.913300 1.016300
7.929500 1.027900
7.945600 1.039800
7.961800 1.081300
7.977900 1.136300
7.994100 1.129600
8.010300 1.147600
8.026400 1.165300
8.042600 1.177900
8.058800 1.186000
8.074900 1.198900
8.091100 1.214100
8.107300 1.229900
8.123400 1.244800
8.139600 1.278600
8.155700 1.545500
8.171900 1.171900
8.188100 1.082500
8.204200 1.087300
8.220400 1.092400
8.236600 1.097300
8.252700 1.102100
8.268900 1.106600
8.285100 1.109800
8.301200 1.111700
8.317400 1.112400
8.333600 1.111900
8.349700 1.110000
8.365900 1.105900
8.382000 1.099500
8.398200 1.090600
8.414400 1.079100
8.430500 1.065400
8.446700 1.065700
8.462900 1.066000
8.479000 1.064200
8.495200 1.062500
8.511400 1.060700
8.527500 1.058700
8.543700 1.056300
8.559800 1.053300
8.576000 1.050900
8.592200 1.048500
8.608300 1.046100
8.624500 1.042400
8.640700 1.039000
8.656800 1.036300
8.673000 1.036000
8.689200 1.040000
8.705300 1.052100
8.721500 1.072900
8.737600 1.089100
8.753800 1.092000
8.770000 1.093900
8.786100 1.096600
8.802300 1.098400
8.818500 1.099200
8.834600 1.098700
8.850800 1.097000
8.867000 1.094600
8.883100 1.092400
8.899300 1.089700
8.915400 1.086600
8.931600 1.084200
8.947800 1.084500
8.963900 1.084900
8.980100 1.084800
8.996300 1.086900
9.012400 1.089200
9.028600 1.091600
9.044800 1.094300
9.060900 1.097200
9.077100 1.100200
9.093200 1.104300
9.109400 1.109500
9.125600 1.115300
9.141700 1.122800
9.157900 1.130500
9.174100 1.141100
9.190200 1.156200
9.206400 1.170600
9.222600 1.184200
9.238700 1.188800
9.254900 1.200000
9.271000 1.213400
9.287200 1.226000
9.303400 1.236900
9.319500 1.249400
9.335700 1.341000
9.351900 1.364800
9.368000 1.425800
9.384200 1.489000
9.400400 1.795600
9.416500 1.314800
9.432700 1.329900
9.448800 1.345200
9.465000 1.358000
9.481200 1.369400
9.497300 1.381000
9.513500 1.409000
9.529700 1.427000
9.545800 1.435800
9.562000 1.442700
9.578200 1.447000
9.594300 1.449800
9.610500 1.466600
9.626600 1.482800
9.642800 1.494000
9.659000 1.497100
9.675100 1.527500
9.691300 1.588000
9.707500 1.559000
9.723600 1.531700
9.739800 1.505600
9.756000 1.480400
9.772100 1.456500
9.788300 1.445400
9.804400 1.438200
9.820600 1.433500
9.836800 1.429500
9.852900 1.416200
9.869100 1.417600
9.885300 1.421300
9.901400 1.426700
9.917600 1.435100
9.933800 1.429400
9.949900 1.420800
9.966100 1.412400
9.982200 1.405500
9.998400 1.392700
10.014600 1.385200
10.030700 1.387600
10.046900 1.390200
10.063100 1.385600
10.079200 1.376900
10.095400 1.368900
10.111600 1.361400
10.127700 1.354900
10.143900 1.349500
10.160000 1.345200
10.176200 1.341400
10.192400 1.338600
10.208500 1.337100
10.224700 1.335900
10.240900 1.334800
10.257000 1.333700
10.273200 1.332500
10.289400 1.331600
10.305500 1.329700
10.321700 1.328100
10.337800 1.326600
10.354000 1.325900
10.370200 1.326300
10.386300 1.328000
10.402500 1.329700
10.418700 1.331400
10.434800 1.335400
10.451000 1.344800
10.467200 1.350500
10.483300 1.353900
10.499500 1.346600
10.515600 1.340600
10.531800 1.345200
10.548000 1.349400
10.564100 1.353800
10.580300 1.358500
10.596500 1.364000
10.612600 1.461700
10.628800 1.437900
10.645000 1.440200
10.661100 1.456200
10.677300 1.484900
10.693400 1.532000
10.709600 1.559000
10.725800 1.592500
10.741900 1.584900
10.758100 1.551800
10.774300 1.521400
10.790400 1.492300
10.806600 1.465600
10.822800 1.442000
10.838900 1.428900
10.855100 1.415300
10.871200 1.402700
10.887400 1.392000
10.903600 1.381100
10.919700 1.369800
10.935900 1.361300
10.952100 1.356500
10.968200 1.357300
10.984400 1.345600
11.000600 1.325700
11.016700 1.305400
11.032900 1.356800
11.049000 1.356100
11.065200 1.335900
11.081400 1.314700
11.097500 1.302400
11.113700 1.308200
11.129900 1.313900
11.146000 1.319800
11.162200 1.326000
11.178400 1.332500
11.194500 1.339500
11.210700 1.345800
11.226800 1.349300
11.243000 1.363500
11.259200 1.391600
11.275300 1.418200
11.291500 1.442900
11.307700 1.419100
11.323800 1.312300
11.340000 1.294300
11.356200 1.274900
11.372300 1.266200
11.388500 1.273000
11.404600 1.278400
11.420800 1.287200
11.437000 1.299000
11.453100 1.299600
11.469300 1.295900
11.485500 1.292600
11.501600 1.292800
11.517800 1.305100
11.534000 1.303900
11.550100 1.319900
11.566300 1.337800
11.582400 1.353300
11.598600 1.365000
11.614800 1.377500
11.630900 1.382300
11.647100 1.391000
11.663300 1.443500
11.679400 1.564400
11.695600 1.486200
11.711800 1.490300
11.727900 1.492900
11.744100 1.496600
11.760200 1.500400
11.776400 1.504200
11.792600 1.513700
11.808700 1.530900
11.824900 1.553500
11.841100 1.587000
11.857200 1.610300
11.873400 1.614300
11.889600 1.610100
11.905700 1.598900
11.921900 1.575100
11.938000 1.575500
11.954200 1.574400
11.970400 1.571000
11.986500 1.567400
12.002700 1.563500
12.018900 1.559300
12.035000 1.555400
12.051200 1.552000
12.067400 1.548500
12.083500 1.545000
12.099700 1.541500
12.115800 1.539600
12.132000 1.556500
12.148200 1.563400
12.164300 1.543300
12.180500 1.547200
12.196700 1.549700
12.212800 1.552100
12.229000 1.553500
12.245200 1.552800
12.261300 1.551300
12.277500 1.549600
12.293600 1.548900
12.309800 1.549000
12.326000 1.545700
12.342100 1.544100
12.358300 1.543700
12.374500 1.548800
12.390600 1.552200
12.406800 1.553200
12.423000 1.552200
12.439100 1.551000
12.455300 1.546700
12.471400 1.538800
12.487600 1.526000
12.503800 1.504700
12.519900 1.484600
12.536100 1.472300
12.552300 1.468100
12.568400 1.457400
12.584600 1.445900
12.600800 1.430100
12.616900 1.404400
12.633100 1.397200
12.649200 1.398600
12.665400 1.398100
12.681600 1.396700
12.697700 1.219200
12.713900 1.203700
12.730100 1.180600
12.746200 1.156100
12.762400 1.135600
12.778600 1.122400
12.794700 1.110200
12.810900 1.098700
12.827000 1.088200
12.843200 1.079200
12.859400 1.071700
12.875500 1.065500
12.891700 1.060200
12.907900 1.054200
12.924000 1.047500
12.940200 1.040200
12.956400 1.033000
12.972500 1.031900
12.988700 1.031100
13.004800 1.027000
13.021000 1.021500
13.037200 1.015900
13.053300 1.010200
13.069500 1.006400
13.085700 1.000900
13.101800 0.995300
13.118000 0.987000
13.134200 0.978700
13.150300 0.970100
13.166500 0.961500
13.182600 0.952800
13.198800 0.944000
13.215000 0.934600
13.231100 0.925000
13.247300 0.919000
13.263500 0.918200
13.279600 0.923500
13.295800 0.917200
13.312000 0.888000
13.328100 0.871600
13.344300 0.861800
13.360400 0.854300
13.376600 0.847000
13.392800 0.840400
13.408900 0.834100
13.425100 0.828300
13.441300 0.821500
13.457400 0.814600
13.473600 0.807500
13.489800 0.800400
13.505900 0.793300
13.522100 0.790600
13.538200 0.795300
13.554400 0.803100
13.570600 0.808900
13.586700 0.814400
13.602900 0.820900
13.619100 0.828200
13.635200 0.832000
13.651400 0.834300
13.667600 0.839400
13.683700 0.851100
13.699900 0.856900
13.716000 0.863700
13.732200 0.870800
13.748400 0.878300
13.764500 0.885000
13.780700 0.892400
13.796900 0.901800
13.813000 0.911500
13.829200 0.925200
13.845400 0.941500
13.861500 0.966700
13.877700 0.987300
13.893800 1.007200
13.910000 1.028200
13.926200 1.048900
13.942300 1.069500
13.958500 1.089900
13.974700 1.129800
13.990800 1.167900
14.007000 1.185600
14.023200 1.201100
14.039300 1.216000
14.055500 1.229000
14.071600 1.240200
14.087800 1.251900
14.104000 1.266000
14.120100 1.297200
14.136300 1.309100
14.152500 1.320300
14.168600 1.329400
14.184800 1.334600
14.201000 1.337800
14.217100 1.339000
14.233300 1.338800
14.249400 1.337800
14.265600 1.338700
14.281800 1.339200
14.297900 1.338400
14.314100 1.335700
14.330300 1.331900
14.346400 1.326500
14.362600 1.320400
14.378800 1.311100
14.394900 1.307200
14.411100 1.306100
14.427200 1.308800
14.443400 1.310400
14.459600 1.313000
14.475700 1.313800
14.491900 1.312400
14.508100 1.309300
14.524200 1.298700
14.540400 1.298300
14.556600 1.298100
14.572700 1.297700
14.588900 1.297300
14.605000 1.297000
14.621200 1.296900
14.637400 1.296900
14.653500 1.296800
14.669700 1.297100
14.685900 1.297700
14.702000 1.299300
14.718200 1.301100
14.734400 1.303800
14.750500 1.309700
14.766700 1.322200
14.782800 1.330200
14.799000 1.338400
14.815200 1.347100
14.831300 1.356700
14.847500 1.367600
14.863700 1.379900
14.879800 1.393500
14.896000 1.408000
14.912200 1.441400
14.928300 1.498400
14.944500 1.567100
14.960600 1.691100
14.976800 1.793000
14.993000 1.862000
15.009100 1.920700
15.025300 1.948100
15.041500 1.935800
15.057600 1.920600
15.073800 1.898600
15.090000 1.886400
15.106100 1.877800
15.122300 1.869100
15.138500 1.858500
15.154600 1.831800
15.170800 1.787700
15.186900 1.758800
15.203100 1.742800
15.219300 1.730000
15.235400 1.696300
15.251600 1.647400
15.267800 1.612400
15.283900 1.577000
15.300100 1.554700
15.316300 1.537500
15.332400 1.523700
15.348600 1.517600
15.364700 1.530300
15.380900 1.540000
15.397100 1.547500
15.413200 1.553100
15.429400 1.555400
15.445600 1.550600
15.461700 1.561200
15.477900 1.554000
15.494100 1.548600
15.510200 1.542500
15.526400 1.537800
15.542500 1.532200
15.558700 1.519400
15.574900 1.500000
15.591000 1.523200
15.607200 1.523600
15.623400 1.529000
15.639500 1.541500
15.655700 1.423300
15.671900 1.409000
15.688000 1.398400
15.704200 1.401100
15.720300 1.415000
15.736500 1.593800
15.752700 1.500300
15.768800 1.414600
15.785000 1.594200
15.801200 1.559800
15.817300 1.522200
15.833500 1.407200
15.849700 1.385400
15.865800 1.379800
15.882000 1.382600
15.898100 1.384100
15.914300 1.389100
15.930500 1.394300
15.946600 1.376800
15.962800 1.381100
15.979000 1.391700
15.995100 1.422600
16.011300 1.430300
16.027500 1.437000
16.043600 1.441700
16.059800 1.444700
16.075900 1.446600
16.092100 1.460800
16.108300 1.465300
16.124400 1.449700
16.140600 1.455300
16.156800 1.457300
16.172900 1.452200
16.189100 1.462600
16.205300 1.469500
16.221400 1.452300
16.237600 1.468700
16.253700 1.482300
16.269900 1.517800
16.286100 1.556000
16.302200 1.598500
16.318400 1.783100
16.334600 2.008900
16.350700 1.753700
16.366900 1.796600
16.383100 1.827100
16.399200 1.856900
16.415400 1.876500
16.431500 1.882500
16.447700 1.875200
16.463900 1.871200
16.480000 1.849300
16.496200 1.835500
16.512400 1.730400
16.528500 1.636500
16.544700 1.582300
16.560900 1.550400
16.577000 1.491100
16.593200 1.428500
16.609300 1.391500
16.625500 1.357600
16.641700 1.340900
16.657800 1.344000
16.674000 1.349700
16.690200 1.374700
16.706300 1.413300
16.722500 1.406400
16.738700 1.321700
16.754800 1.329700
16.771000 1.284000
16.787100 1.338100
16.803300 1.277800
16.819500 1.258000
16.835600 1.250400
16.851800 1.245100
16.868000 1.242500
16.884100 1.252600
16.900300 1.273300
16.916500 1.298900
16.932600 1.318400
16.948800 1.320000
16.964900 1.319000
16.981100 1.240000
16.997300 1.236800
17.013400 1.230800
17.029600 1.221800
17.045800 1.190900
17.061900 1.184100
17.078100 1.187800
17.094300 1.189100
17.110400 1.189000
17.126600 1.192000
17.142700 1.225100
17.158900 1.240600
17.175100 1.231900
17.191200 1.211700
17.207400 1.199900
17.223600 1.208400
17.239700 1.193500
17.255900 1.181000
17.272100 1.166800
17.288200 1.165700
17.304400 1.165700
17.320500 1.166300
17.336700 1.167100
17.352900 1.168800
17.369000 1.171500
17.385200 1.174400
17.401400 1.177400
17.417500 1.180600
17.433700 1.184000
17.449900 1.187500
17.466000 1.191900
17.482200 1.199100
17.498300 1.245300
17.514500 1.192500
17.530700 1.187300
17.546800 1.188900
17.563000 1.220200
17.579200 1.231700
17.595300 1.240100
17.611500 1.244300
17.627700 1.242200
17.643800 1.239300
17.660000 1.235800
17.676100 1.233100
17.692300 1.227900
17.708500 1.220700
17.724600 1.221000
17.740800 1.224900
17.757000 1.229500
17.773100 1.234700
17.789300 1.242100
17.805500 1.272700
17.821600 1.299300
17.837800 1.313200
17.853900 1.330400
17.870100 1.363000
17.886300 1.404000
17.902400 1.454100
17.918600 1.469300
17.934800 1.399800
17.950900 1.420800
17.967100 1.441500
17.983300 1.459300
17.999400 1.473400
18.015600 1.490100
18.031700 1.509900
18.047900 1.539900
18.064100 1.594900
18.080200 1.650200
18.096400 1.717900
18.112600 1.663000
18.128700 1.615500
18.144900 1.602100
18.161100 1.608100
18.177200 1.545200
18.193400 1.603300
18.209500 1.570300
18.225700 1.549900
18.241900 1.549700
18.258000 1.573400
18.274200 1.596100
18.290400 1.624300
18.306500 1.657200
18.322700 1.692300
18.338900 1.729200
18.355000 1.776500
18.371200 1.838200
18.387300 1.922800
18.403500 1.963900
18.419700 2.075100
18.435800 2.265500
18.452000 2.150600
18.468200 2.146800
18.484300 2.132700
18.500500 2.125400
18.516700 2.112600
18.532800 2.125100
18.549000 2.072700
18.565100 2.038300
18.581300 2.005900
18.597500 2.055000
18.613600 1.931100
18.629800 1.892200
18.646000 1.878400
18.662100 1.866800
18.678300 1.866800
18.694500 1.907400
18.710600 1.951600
18.726800 1.798100
18.742900 1.780300
18.759100 1.790100
18.775300 1.786700
18.791400 1.781400
18.807600 1.727400
18.823800 1.716500
18.839900 1.706800
18.856100 1.700400
18.872300 1.702100
18.888400 1.671500
18.904600 1.674500
18.920700 1.684600
18.936900 1.692000
18.953100 1.685800
18.969200 1.663800
18.985400 1.625700
19.001600 1.606300
19.017700 1.579500
19.033900 1.582600
19.050100 1.585800
19.066200 1.632200
19.082400 1.621900
19.098500 1.611000
19.114700 1.600300
19.130900 1.590100
19.147000 1.590500
19.163200 1.594100
19.179400 1.600600
19.195500 1.616900
19.211700 1.593400
19.227900 1.610200
19.244000 1.628700
19.260200 1.651200
19.276300 1.677000
19.292500 1.707800
19.308700 1.870600
19.324800 1.922200
19.341000 1.947100
19.357200 2.130500
19.373300 2.086800
19.389500 2.129100
19.405700 2.169500
19.421800 2.224100
19.438000 2.226400
19.454100 2.229900
19.470300 2.305900
19.486500 2.312300
19.502600 2.318800
19.518800 2.327800
19.535000 2.313200
19.551100 2.266200
19.567300 2.288500
19.583500 2.314900
19.599600 2.308800
19.615800 2.278900
19.631900 2.260900
19.648100 2.253100
19.664300 2.242400
19.680400 2.232400
19.696600 2.225000
19.712800 2.195200
19.728900 2.184500
19.745100 2.155400
19.761300 2.135700
19.777400 2.111100
19.793600 2.089800
19.809700 2.075600
19.825900 2.067300
19.842100 2.062800
19.858200 2.056900
19.874400 2.052400
19.890600 2.050700
19.906700 2.049500
19.922900 2.049400
19.939100 2.107100
19.955200 2.167600
19.971400 2.155500
19.987500 2.104300
20.003700 2.073700
20.019900 2.065000
20.036000 2.053300
20.052200 2.038700
20.068400 2.025200
20.084500 2.017400
20.100700 2.011500
20.116900 2.013000
20.133000 1.934500
20.149200 1.926000
20.165300 1.918000
20.181500 1.909100
20.197700 1.899100
20.213800 1.888000
20.230000 1.908800
20.246200 1.926900
20.262300 1.839400
20.278500 1.827800
20.294700 1.820800
20.310800 1.814000
20.327000 1.810400
20.343100 1.829000
20.359300 1.825100
20.375500 1.814800
20.391600 1.804000
20.407800 1.793400
20.424000 1.783800
20.440100 1.779900
20.456300 1.772900
20.472500 1.758200
20.488600 1.745900
20.504800 1.727900
20.520900 1.714200
20.537100 1.678200
20.553300 1.641600
20.569400 1.620000
20.585600 1.607300
20.601800 1.599100
20.617900 1.597100
20.634100 1.593100
20.650300 1.590400
20.666400 1.583600
20.682600 1.551000
20.698700 1.539600
20.714900 1.530100
20.731100 1.473800
20.747200 1.459800
20.763400 1.462300
20.779600 1.462100
20.795700 1.464400
20.811900 1.462700
20.828100 1.456600
20.844200 1.445800
20.860400 1.467700
20.876500 1.499400
20.892700 1.628900
20.908900 1.545900
20.925000 1.561100
20.941200 1.574300
20.957400 1.590100
20.973500 1.617500
20.989700 1.650100
21.005900 1.684400
21.022000 1.717800
21.038200 1.748800
21.054300 1.744700
21.070500 1.738400
21.086700 1.757200
21.102800 1.736200
21.119000 1.699800
21.135200 1.648600
21.151300 1.578300
21.167500 1.497600
21.183700 1.450400
21.199800 1.413100
21.216000 1.378700
21.232100 1.347900
21.248300 1.326500
21.264500 1.309900
21.280600 1.287500
21.296800 1.275900
21.313000 1.271800
21.329100 1.235800
21.345300 1.155500
21.361500 1.099400
21.377600 1.046200
21.393800 1.004600
21.409900 0.967600
21.426100 0.934200
21.442300 0.903200
21.458400 0.873200
21.474600 0.842900
21.490800 0.814700
21.506900 0.794400
21.523100 0.767300
21.539300 0.739700
21.555400 0.711800
21.571600 0.683400
21.587700 0.645100
21.603900 0.600100
21.620100 0.558900
21.636200 0.517800
21.652400 0.485000
21.668600 0.453200
21.684700 0.424300
21.700900 0.397900
21.717100 0.373300
21.733200 0.350100
21.749400 0.327500
21.765600 0.303700
21.781700 0.280000
21.797900 0.251200
21.814000 0.222700
21.830200 0.213000
21.846400 0.203800
21.862500 0.195900
21.878700 0.189900
21.894900 0.182400
21.911000 0.175300
21.927200 0.168600
21.943400 0.162300
21.959500 0.156400
21.975700 0.150800
21.991800 0.145600
22.008000 0.140900
22.024200 0.137400
22.040300 0.134400
22.056500 0.131400
22.072700 0.128400
22.088800 0.125400
22.105000 0.122500
22.121200 0.119500
22.137300 0.116500
22.153500 0.113500
22.169600 0.110400
22.185800 0.107400
22.202000 0.104300
22.218100 0.101200
22.234300 0.097900
22.250500 0.094500
22.266600 0.090900
22.282800 0.087200
22.299000 0.083400
22.315100 0.071300
22.331300 0.067600
22.347400 0.064500
22.363600 0.061400
22.379800 0.055300
22.395900 0.053400
22.412100 0.051500
22.428300 0.049400
22.444400 0.047400
22.460600 0.045300
22.476800 0.043100
22.492900 0.040900
22.509100 0.038700
22.525200 0.036400
22.541400 0.034100
22.557600 0.031600
22.573700 0.028800
22.589900 0.025400
22.606100 0.021600
22.622200 0.017100
22.638400 0.014800
22.654600 0.014100
22.670700 0.013400
22.686900 0.012700
22.703000 0.012000
22.719200 0.011300
22.735400 0.010700
22.751500 0.010100
22.767700 0.009500
22.783900 0.008900
22.800000 0.008300
22.816200 0.007800
22.832400 0.007300
22.848500 0.006800
22.864700 0.006300
22.880800 0.005800
22.897000 0.005300
22.913200 0.004900
22.929300 0.004500
22.945500 0.004100
22.961700 0.003700
22.977800 0.003400
22.994000 0.003000
23.010200 0.002700
23.026300 0.002400
23.042500 0.002100
23.058600 0.001800
23.074800 0.001600
23.091000 0.001300
23.107100 0.001100
23.123300 0.000900
23.139500 0.000800
23.155600 0.000600
23.171800 0.000500
23.188000 0.000300
23.204100 0.000200
23.220300 0.000200
23.236400 0.000100
23.252600 0.000000
23.268800 0.000000
23.284900 0.000000
23.301100 0.000000
23.317300 0.000000
23.333400 0.000000
23.349600 0.000000
23.365800 0.000000
23.381900 0.000000
23.398100 0.000000
23.414200 0.000000
23.430400 0.000000
23.446600 0.000000
23.462700 0.000000
23.478900 0.000000
23.495100 0.000000
23.511200 0.000000
23.527400 0.000000
23.543600 0.000000
23.559700 0.000000
23.575900 0.000000
23.592000 0.000000
23.608200 0.000000
23.624400 0.000000
23.640500 0.000000
23.656700 0.000000
23.672900 0.000000
23.689000 0.000000
23.705200 0.000000
23.721400 0.000000
23.737500 0.000000
23.753700 0.000000
23.769800 0.000000
23.786000 0.000000
23.802200 0.000000
23.818300 0.000000
23.834500 0.000000
23.850700 0.000000
23.866800 0.000000
23.883000 0.000000
23.899200 0.000000
23.915300 0.000000
23.931500 0.000000
23.947600 0.000000
23.963800 0.000000
23.980000 0.000000
23.996100 0.000000
24.012300 0.000000
24.028500 0.000000
24.044600 0.000000
24.060800 0.000000
24.077000 0.000000
24.093100 0.000000
24.109300 0.000000
24.125400 0.000000
24.141600 0.000000
24.157800 0.000000
24.173900 0.000000
24.190100 0.000000
24.206300 0.000000
24.222400 0.000000
24.238600 0.000000
24.254800 0.000000
24.270900 0.000000
24.287100 0.000000
24.303200 0.000000
24.319400 0.000000
24.335600 0.000000
24.351700 0.000000
24.367900 0.000000
24.384100 0.000000
24.400200 0.000000
24.416400 0.000000
24.432600 0.000000
24.448700 0.000000
24.464900 0.000000
24.481000 0.000000
24.497200 0.000000
24.513400 0.000000
24.529500 0.000000
24.545700 0.000000
24.561900 0.000000
24.578000 0.000000
24.594200 0.000000
24.610400 0.000000
24.626500 0.000000
24.642700 0.000000
24.658800 0.000000
24.675000 0.000000
24.691200 0.000000
24.707300 0.000000
24.723500 0.000000
24.739700 0.000000
24.755800 0.000000
e
