set title 'mp-1079286 - Density of States'
set xlabel 'Energy (eV)'
set ylabel 'DOS (states/eV)'
set grid
set xrange [-10:10]
set yrange [0:4.864]
set xzeroaxis lt -1
set terminal png size 800,600
set output 'mp-1079286_dos_gnuplot.png'
plot '-' using 1:2 with lines title 'DOS'
-17.405400 0.000000
-17.374400 0.000000
-17.343500 0.000000
-17.312600 0.000000
-17.281700 0.000000
-17.250700 0.000000
-17.219800 0.000000
-17.188900 0.000000
-17.157900 0.000000
-17.127000 0.000000
-17.096100 0.000000
-17.065200 0.000000
-17.034200 0.000000
-17.003300 0.000000
-16.972400 0.000000
-16.941400 0.000000
-16.910500 0.000000
-16.879600 0.000000
-16.848700 0.000000
-16.817700 0.000000
-16.786800 0.000000
-16.755900 0.000000
-16.724900 0.000000
-16.694000 0.000000
-16.663100 0.000000
-16.632200 0.000000
-16.601200 0.000000
-16.570300 0.000000
-16.539400 0.000000
-16.508500 0.000000
-16.477500 0.000000
-16.446600 0.000000
-16.415700 0.000000
-16.384700 0.000000
-16.353800 0.000000
-16.322900 0.000000
-16.292000 0.000000
-16.261000 0.000000
-16.230100 0.000000
-16.199200 0.000000
-16.168200 0.000000
-16.137300 0.000000
-16.106400 0.000000
-16.075500 0.000000
-16.044500 0.000000
-16.013600 0.000000
-15.982700 0.000000
-15.951700 0.000000
-15.920800 0.000000
-15.889900 0.000000
-15.859000 0.000000
-15.828000 0.000000
-15.797100 0.000000
-15.766200 0.000000
-15.735300 0.000000
-15.704300 0.000000
-15.673400 0.000000
-15.642500 0.000000
-15.611500 0.000000
-15.580600 0.000000
-15.549700 0.000000
-15.518800 0.000000
-15.487800 0.000000
-15.456900 0.000000
-15.426000 0.000000
-15.395000 0.000000
-15.364100 0.000000
-15.333200 0.000000
-15.302300 0.000000
-15.271300 0.000000
-15.240400 0.000000
-15.209500 0.000000
-15.178600 0.000000
-15.147600 0.000000
-15.116700 0.000000
-15.085800 0.000000
-15.054800 0.000000
-15.023900 0.000000
-14.993000 0.000000
-14.962100 0.000000
-14.931100 0.000000
-14.900200 0.000000
-14.869300 0.000000
-14.838300 0.000000
-14.807400 0.000000
-14.776500 0.000000
-14.745600 0.000000
-14.714600 0.000000
-14.683700 0.000000
-14.652800 0.000000
-14.621800 0.000000
-14.590900 0.001900
-14.560000 0.155600
-14.529100 0.293800
-14.498100 0.446000
-14.467200 0.463700
-14.436300 0.481600
-14.405400 0.487100
-14.374400 0.475300
-14.343500 0.472400
-14.312600 0.488200
-14.281600 0.506300
-14.250700 0.510200
-14.219800 0.506100
-14.188900 0.505200
-14.157900 0.512900
-14.127000 0.521600
-14.096100 0.533100
-14.065100 0.546600
-14.034200 0.554600
-14.003300 0.560400
-13.972400 0.569900
-13.941400 0.580600
-13.910500 0.592000
-13.879600 0.604200
-13.848600 0.616700
-13.817700 0.641500
-13.786800 0.682800
-13.755900 0.708100
-13.724900 0.732800
-13.694000 0.757300
-13.663100 0.778300
-13.632200 0.939300
-13.601200 1.188000
-13.570300 1.261800
-13.539400 0.882500
-13.508400 0.824800
-13.477500 0.737100
-13.446600 0.649300
-13.415700 0.607600
-13.384700 0.583300
-13.353800 0.558700
-13.322900 0.521600
-13.291900 0.482500
-13.261000 0.456200
-13.230100 0.440900
-13.199200 0.425600
-13.168200 0.410200
-13.137300 0.393900
-13.106400 0.374500
-13.075400 0.355900
-13.044500 0.342700
-13.013600 0.330400
-12.982700 0.318000
-12.951700 0.305600
-12.920800 0.294200
-12.889900 0.290000
-12.859000 0.286600
-12.828000 0.273100
-12.797100 0.254600
-12.766200 0.236100
-12.735200 0.222900
-12.704300 0.241600
-12.673400 0.262300
-12.642500 0.198200
-12.611500 0.088900
-12.580600 0.003500
-12.549700 0.000000
-12.518700 0.000000
-12.487800 0.000000
-12.456900 0.000000
-12.426000 0.000000
-12.395000 0.000000
-12.364100 0.000000
-12.333200 0.000000
-12.302200 0.000000
-12.271300 0.000000
-12.240400 0.000000
-12.209500 0.000000
-12.178500 0.000000
-12.147600 0.000000
-12.116700 0.000000
-12.085800 0.000000
-12.054800 0.000000
-12.023900 0.000000
-11.993000 0.000000
-11.962000 0.000000
-11.931100 0.000000
-11.900200 0.000000
-11.869300 0.000000
-11.838300 0.000000
-11.807400 0.000000
-11.776500 0.000000
-11.745500 0.000000
-11.714600 0.000000
-11.683700 0.000000
-11.652800 0.000000
-11.621800 0.000000
-11.590900 0.000000
-11.560000 0.000000
-11.529000 0.000000
-11.498100 0.000000
-11.467200 0.000000
-11.436300 0.000000
-11.405300 0.000000
-11.374400 0.000000
-11.343500 0.000000
-11.312600 0.000000
-11.281600 0.000000
-11.250700 0.000000
-11.219800 0.000000
-11.188800 0.000000
-11.157900 0.000000
-11.127000 0.000000
-11.096100 0.000000
-11.065100 0.000000
-11.034200 0.000000
-11.003300 0.000000
-10.972300 0.000000
-10.941400 0.000000
-10.910500 0.000000
-10.879600 0.000000
-10.848600 0.000000
-10.817700 0.000000
-10.786800 0.000000
-10.755900 0.000000
-10.724900 0.000000
-10.694000 0.000000
-10.663100 0.000000
-10.632100 0.000000
-10.601200 0.000000
-10.570300 0.000000
-10.539400 0.000000
-10.508400 0.000000
-10.477500 0.000000
-10.446600 0.000000
-10.415600 0.000000
-10.384700 0.000000
-10.353800 0.000000
-10.322900 0.000000
-10.291900 0.027000
-10.261000 0.101900
-10.230100 0.179000
-10.199100 0.274300
-10.168200 0.409900
-10.137300 0.498000
-10.106400 0.533500
-10.075400 0.556300
-10.044500 0.560200
-10.013600 0.534300
-9.982700 0.535200
-9.951700 0.539500
-9.920800 0.551200
-9.889900 0.565600
-9.858900 0.582900
-9.828000 0.603000
-9.797100 0.625000
-9.766200 0.646900
-9.735200 0.669200
-9.704300 0.706700
-9.673400 0.743000
-9.642400 0.778300
-9.611500 0.995000
-9.580600 0.997400
-9.549700 0.944900
-9.518700 0.763200
-9.487800 0.649600
-9.456900 0.657400
-9.425900 0.741700
-9.395000 0.565100
-9.364100 0.556300
-9.333200 0.547500
-9.302200 0.665300
-9.271300 0.564600
-9.240400 0.491300
-9.209500 0.484100
-9.178500 0.486500
-9.147600 0.488900
-9.116700 0.491300
-9.085700 0.517800
-9.054800 0.608700
-9.023900 0.451900
-8.993000 0.436900
-8.962000 0.432000
-8.931100 0.428200
-8.900200 0.425300
-8.869200 0.483900
-8.838300 0.490700
-8.807400 0.394300
-8.776500 0.395100
-8.745500 0.395900
-8.714600 0.396700
-8.683700 0.397500
-8.652700 0.398300
-8.621800 0.399500
-8.590900 0.438300
-8.560000 0.516100
-8.529000 0.400500
-8.498100 0.395300
-8.467200 0.389900
-8.436300 0.381000
-8.405300 0.378500
-8.374400 0.378300
-8.343500 0.377700
-8.312500 0.375300
-8.281600 0.372500
-8.250700 0.553400
-8.219800 0.354700
-8.188800 0.355100
-8.157900 0.355600
-8.127000 0.356100
-8.096000 0.356500
-8.065100 0.357000
-8.034200 0.357500
-8.003300 0.378400
-7.972300 0.417100
-7.941400 0.453400
-7.910500 0.361700
-7.879500 0.359400
-7.848600 0.357200
-7.817700 0.355800
-7.786800 0.354400
-7.755800 0.352200
-7.724900 0.349900
-7.694000 0.349900
-7.663100 0.349900
-7.632100 0.349900
-7.601200 0.349900
-7.570300 0.350000
-7.539300 0.390300
-7.508400 0.426400
-7.477500 0.372400
-7.446600 0.344600
-7.415600 0.344800
-7.384700 0.344900
-7.353800 0.345100
-7.322800 0.345300
-7.291900 0.408500
-7.261000 0.424400
-7.230100 0.370400
-7.199100 0.354900
-7.168200 0.355500
-7.137300 0.356600
-7.106300 0.357700
-7.075400 0.359400
-7.044500 0.361600
-7.013600 0.365000
-6.982600 0.369100
-6.951700 0.369200
-6.920800 0.369400
-6.889900 0.369500
-6.858900 0.369700
-6.828000 0.369800
-6.797100 0.370000
-6.766100 0.395200
-6.735200 0.435200
-6.704300 0.429200
-6.673400 0.387800
-6.642400 0.384300
-6.611500 0.380900
-6.580600 0.439400
-6.549600 0.466500
-6.518700 0.478300
-6.487800 0.486700
-6.456900 0.504100
-6.425900 0.531100
-6.395000 0.559100
-6.364100 0.601700
-6.333200 0.673500
-6.302200 0.700200
-6.271300 0.705300
-6.240400 0.711600
-6.209400 0.717900
-6.178500 0.724200
-6.147600 0.718100
-6.116700 0.642000
-6.085700 0.495800
-6.054800 0.327900
-6.023900 0.094100
-5.992900 0.000000
-5.962000 0.000000
-5.931100 0.000000
-5.900200 0.000000
-5.869200 0.000000
-5.838300 0.000000
-5.807400 0.000000
-5.776400 0.000000
-5.745500 0.000000
-5.714600 0.000000
-5.683700 0.000000
-5.652700 0.000000
-5.621800 0.000000
-5.590900 0.000000
-5.560000 0.000000
-5.529000 0.000000
-5.498100 0.000000
-5.467200 0.000000
-5.436200 0.000000
-5.405300 0.000000
-5.374400 0.000000
-5.343500 0.000000
-5.312500 0.000000
-5.281600 0.000000
-5.250700 0.000000
-5.219700 0.000000
-5.188800 0.000000
-5.157900 0.000000
-5.127000 0.000000
-5.096000 0.000000
-5.065100 0.000000
-5.034200 0.000000
-5.003200 0.000000
-4.972300 0.000000
-4.941400 0.000000
-4.910500 0.000000
-4.879500 0.000000
-4.848600 0.000000
-4.817700 0.000000
-4.786800 0.000000
-4.755800 0.000000
-4.724900 0.000000
-4.694000 0.000000
-4.663000 0.030000
-4.632100 0.087900
-4.601200 0.122000
-4.570300 0.090200
-4.539300 0.110000
-4.508400 0.129800
-4.477500 0.151100
-4.446500 0.176400
-4.415600 0.203400
-4.384700 0.234400
-4.353800 0.262300
-4.322800 0.284700
-4.291900 0.305200
-4.261000 0.324200
-4.230000 0.345200
-4.199100 0.370100
-4.168200 0.400800
-4.137300 0.474900
-4.106300 0.518700
-4.075400 0.481500
-4.044500 0.470200
-4.013600 0.458000
-3.982600 0.435100
-3.951700 0.438900
-3.920800 0.445400
-3.889800 0.451900
-3.858900 0.458100
-3.828000 0.463000
-3.797100 0.465700
-3.766100 0.468400
-3.735200 0.472600
-3.704300 0.478800
-3.673300 0.485000
-3.642400 0.491100
-3.611500 0.502100
-3.580600 0.512900
-3.549600 0.527900
-3.518700 0.558400
-3.487800 0.585700
-3.456800 0.597300
-3.425900 0.610400
-3.395000 0.627000
-3.364100 0.639900
-3.333100 0.653100
-3.302200 0.676700
-3.271300 0.721000
-3.240400 0.771000
-3.209400 0.816100
-3.178500 0.863000
-3.147600 0.892700
-3.116600 0.906100
-3.085700 0.911600
-3.054800 0.917000
-3.023900 0.928600
-2.992900 0.937900
-2.962000 0.948900
-2.931100 0.971500
-2.900100 1.008600
-2.869200 1.071400
-2.838300 1.172100
-2.807400 1.309700
-2.776400 1.462200
-2.745500 1.480100
-2.714600 1.257200
-2.683600 0.862600
-2.652700 0.673400
-2.621800 0.651800
-2.590900 0.633400
-2.559900 0.625700
-2.529000 0.618000
-2.498100 0.608500
-2.467200 0.589100
-2.436200 0.570900
-2.405300 0.558000
-2.374400 0.543700
-2.343400 0.529600
-2.312500 0.519500
-2.281600 0.515900
-2.250700 0.520300
-2.219700 0.519800
-2.188800 0.519000
-2.157900 0.509900
-2.126900 0.507600
-2.096000 0.507800
-2.065100 0.509600
-2.034200 0.513900
-2.003200 0.525100
-1.972300 0.555600
-1.941400 0.597300
-1.910500 0.639300
-1.879500 0.683100
-1.848600 0.730100
-1.817700 0.781500
-1.786700 0.836900
-1.755800 0.937300
-1.724900 1.000600
-1.694000 1.010100
-1.663000 1.007000
-1.632100 0.991000
-1.601200 0.955000
-1.570200 0.893900
-1.539300 0.899300
-1.508400 0.926800
-1.477500 0.917600
-1.446500 1.026400
-1.415600 1.288600
-1.384700 1.442000
-1.353700 1.449900
-1.322800 1.415100
-1.291900 1.267500
-1.261000 1.108700
-1.230000 0.990800
-1.199100 0.882200
-1.168200 0.797100
-1.137300 0.764800
-1.106300 0.744900
-1.075400 0.736700
-1.044500 0.670100
-1.013500 0.598900
-0.982600 0.552000
-0.951700 0.505200
-0.920800 0.460100
-0.889800 0.428200
-0.858900 0.405000
-0.828000 0.382200
-0.797000 0.368700
-0.766100 0.362200
-0.735200 0.356400
-0.704300 0.356000
-0.673300 0.360200
-0.642400 0.369600
-0.611500 0.386900
-0.580500 0.405100
-0.549600 0.424000
-0.518700 0.442300
-0.487800 0.460000
-0.456800 0.477700
-0.425900 0.495400
-0.395000 0.516900
-0.364100 0.563400
-0.333100 0.616200
-0.302200 0.666200
-0.271300 0.708600
-0.240300 0.751900
-0.209400 0.785200
-0.178500 0.809900
-0.147600 0.828700
-0.116600 1.147500
-0.085700 1.856300
-0.054800 1.340400
-0.023800 1.197500
0.007100 1.116800
0.038000 1.013400
0.068900 0.978100
0.099900 0.944300
0.130800 0.913900
0.161700 0.888100
0.192700 0.861700
0.223600 0.832200
0.254500 0.813800
0.285400 0.801800
0.316400 0.799600
0.347300 0.797400
0.378200 0.804100
0.409100 0.812200
0.440100 0.807500
0.471000 0.801600
0.501900 0.792200
0.532900 0.776700
0.563800 0.752400
0.594700 0.752700
0.625600 0.748700
0.656600 0.743400
0.687500 0.738100
0.718400 0.731800
0.749400 0.723500
0.780300 0.715800
0.811200 0.711300
0.842100 0.715900
0.873100 0.720700
0.904000 0.726000
0.934900 0.732200
0.965900 0.737800
0.996800 0.860100
1.027700 0.875700
1.058600 0.846400
1.089600 0.903800
1.120500 1.089100
1.151400 0.869400
1.182300 1.043500
1.213300 1.096700
1.244200 1.090300
1.275100 1.070800
1.306100 1.021300
1.337000 0.811500
1.367900 0.769900
1.398800 0.745200
1.429800 0.729000
1.460700 0.723000
1.491600 0.727600
1.522600 0.737300
1.553500 0.759500
1.584400 0.741500
1.615300 0.699600
1.646300 0.648200
1.677200 0.598700
1.708100 0.551400
1.739100 0.511900
1.770000 0.484900
1.800900 0.479400
1.831800 0.466100
1.862800 0.442100
1.893700 0.432200
1.924600 0.427900
1.955500 0.427200
1.986500 0.426800
2.017400 0.431400
2.048300 0.406700
2.079300 0.405400
2.110200 0.407900
2.141100 0.413300
2.172000 0.462200
2.203000 0.398800
2.233900 0.395300
2.264800 0.391100
2.295800 0.386500
2.326700 0.381800
2.357600 0.376900
2.388500 0.372000
2.419500 0.371900
2.450400 0.378000
2.481300 0.388900
2.512200 0.426700
2.543200 0.424500
2.574100 0.436200
2.605000 0.445600
2.636000 0.443600
2.666900 0.445100
2.697800 0.512300
2.728700 0.529200
2.759700 0.534700
2.790600 0.525200
2.821500 0.498100
2.852500 0.494500
2.883400 0.500200
2.914300 0.515000
2.945200 0.517800
2.976200 0.497500
3.007100 0.473500
3.038000 0.463700
3.069000 0.503000
3.099900 0.299200
3.130800 0.182500
3.161700 0.168300
3.192700 0.163400
3.223600 0.176900
3.254500 0.198500
3.285400 0.229400
3.316400 0.268500
3.347300 0.397000
3.378200 0.477200
3.409200 0.550000
3.440100 0.637700
3.471000 0.670200
3.501900 0.704200
3.532900 0.731000
3.563800 0.748900
3.594700 0.767000
3.625700 0.762500
3.656600 0.770100
3.687500 0.789200
3.718400 0.789100
3.749400 0.825500
3.780300 0.867700
3.811200 0.910500
3.842200 0.968700
3.873100 1.039900
3.904000 1.126200
3.934900 1.227400
3.965900 1.349000
3.996800 1.488000
4.027700 1.650300
4.058600 1.823600
4.089600 2.085000
4.120500 3.063300
4.151400 1.435400
4.182400 0.456800
4.213300 0.383800
4.244200 0.393800
4.275100 0.451600
4.306100 0.573600
4.337000 0.776500
4.367900 1.004600
4.398900 1.200600
4.429800 1.417100
4.460700 1.671700
4.491600 1.886800
4.522600 2.146400
4.553500 2.237800
4.584400 2.201500
4.615400 1.966600
4.646300 2.115400
4.677200 2.533700
4.708100 2.805700
4.739100 3.813700
4.770000 3.089500
4.800900 3.043400
4.831800 3.265400
4.862800 3.668100
4.893700 3.704000
4.924600 3.984900
4.955600 4.421600
4.986500 3.716800
5.017400 3.117300
5.048300 3.166300
5.079300 3.015100
5.110200 2.831000
5.141100 3.016800
5.172100 3.401300
5.203000 3.309300
5.233900 2.808700
5.264800 2.472600
5.295800 2.136100
5.326700 1.892800
5.357600 1.766000
5.388600 1.603200
5.419500 1.400300
5.450400 1.455000
5.481300 1.494500
5.512300 1.518000
5.543200 1.504500
5.574100 1.839900
5.605000 1.954300
5.636000 2.025500
5.666900 2.214600
5.697800 2.278300
5.728800 2.234300
5.759700 2.140800
5.790600 1.982000
5.821500 1.963900
5.852500 1.966500
5.883400 1.973200
5.914300 1.658900
5.945300 1.303800
5.976200 1.011400
6.007100 0.880200
6.038000 0.877200
6.069000 0.876400
6.099900 0.858700
6.130800 0.835700
6.161800 0.813700
6.192700 0.796800
6.223600 0.793400
6.254500 0.796100
6.285500 0.815700
6.316400 0.859500
6.347300 0.916700
6.378200 0.990500
6.409200 1.084200
6.440100 1.176400
6.471000 1.164400
6.502000 1.099800
6.532900 1.082900
6.563800 1.118300
6.594700 1.126100
6.625700 0.988000
6.656600 0.853900
6.687500 0.749900
6.718500 0.721500
6.749400 0.675000
6.780300 0.665600
6.811200 0.665500
6.842200 0.601200
6.873100 0.587900
6.904000 0.536500
6.934900 0.494500
6.965900 0.477000
6.996800 0.463900
7.027700 0.450200
7.058700 0.439300
7.089600 0.431400
7.120500 0.425800
7.151400 0.421700
7.182400 0.419400
7.213300 0.417800
7.244200 0.415800
7.275200 0.411400
7.306100 0.406200
7.337000 0.399900
7.367900 0.393400
7.398900 0.385900
7.429800 0.383600
7.460700 0.383400
7.491700 0.386500
7.522600 0.393300
7.553500 0.400500
7.584400 0.424800
7.615400 0.397900
7.646300 0.392700
7.677200 0.391900
7.708100 0.393600
7.739100 0.395000
7.770000 0.397400
7.800900 0.399900
7.831900 0.400600
7.862800 0.404200
7.893700 0.410700
7.924600 0.418800
7.955600 0.428300
7.986500 0.440600
8.017400 0.461000
8.048400 0.484100
8.079300 0.496800
8.110200 0.515700
8.141100 0.536800
8.172100 0.561700
8.203000 0.588100
8.233900 0.638800
8.264900 1.154900
8.295800 0.997600
8.326700 1.022200
8.357600 1.144800
8.388600 1.207700
8.419500 1.223500
8.450400 1.165200
8.481300 1.049700
8.512300 0.972200
8.543200 0.924900
8.574100 0.886500
8.605100 0.862200
8.636000 0.826800
8.666900 0.789600
8.697800 0.778200
8.728800 0.766700
8.759700 0.754200
8.790600 0.791500
8.821600 0.723600
8.852500 0.639200
8.883400 0.549100
8.914300 0.500800
8.945300 0.433400
8.976200 0.380600
9.007100 0.345400
9.038100 0.319400
9.069000 0.294600
9.099900 0.260300
9.130800 0.244000
9.161800 0.229400
9.192700 0.214700
9.223600 0.199600
9.254500 0.186700
9.285500 0.175000
9.316400 0.168000
9.347300 0.164300
9.378300 0.169600
9.409200 0.174400
9.440100 0.177700
9.471000 0.180600
9.502000 0.184000
9.532900 0.187900
9.563800 0.192100
9.594800 0.196600
9.625700 0.201400
9.656600 0.206400
9.687500 0.211800
9.718500 0.217400
9.749400 0.223100
9.780300 0.228900
9.811300 0.240500
9.842200 0.277500
9.873100 0.311100
9.904000 0.347500
9.935000 0.381000
9.965900 0.416000
9.996800 0.450100
10.027700 0.440900
10.058700 0.447500
10.089600 0.455100
10.120500 0.466200
10.151500 0.475300
10.182400 0.469300
10.213300 0.459900
10.244200 0.453800
10.275200 0.449500
10.306100 0.444700
10.337000 0.441600
10.368000 0.441100
10.398900 0.447900
10.429800 0.455700
10.460700 0.464300
10.491700 0.468300
10.522600 0.473900
10.553500 0.482100
10.584500 0.494700
10.615400 0.507100
10.646300 0.526600
10.677200 0.562200
10.708200 0.597900
10.739100 0.638200
10.770000 0.681100
10.800900 0.698100
10.831900 0.720100
10.862800 0.727000
10.893700 0.742200
10.924700 0.757900
10.955600 0.783000
10.986500 0.803500
11.017400 0.827200
11.048400 0.852300
11.079300 0.867100
11.110200 0.874600
11.141200 0.874400
11.172100 0.865500
11.203000 0.872000
11.233900 0.879300
11.264900 0.885900
11.295800 0.924000
11.326700 0.913900
11.357600 0.897700
11.388600 0.917200
11.419500 0.935100
11.450400 0.953000
11.481400 0.978800
11.512300 1.003900
11.543200 1.040700
11.574100 1.077700
11.605100 1.196000
11.636000 1.265100
11.666900 1.221700
11.697900 1.129700
11.728800 1.012500
11.759700 0.951500
11.790600 0.940200
11.821600 0.937400
11.852500 0.914200
11.883400 0.927900
11.914400 0.914400
11.945300 0.910100
11.976200 0.925500
12.007100 0.933900
12.038100 0.953000
12.069000 0.913700
12.099900 0.915700
12.130800 0.909100
12.161800 0.901300
12.192700 0.917900
12.223600 0.940700
12.254600 0.965300
12.285500 0.989300
12.316400 1.064800
12.347300 1.109600
12.378300 1.086100
12.409200 1.068800
12.440100 1.060100
12.471100 1.057600
12.502000 0.985800
12.532900 0.880700
12.563800 0.841200
12.594800 0.797000
12.625700 0.736700
12.656600 0.781800
12.687600 0.691400
12.718500 0.699400
12.749400 0.814100
12.780300 0.876400
12.811300 0.967200
12.842200 1.036700
12.873100 1.075400
12.904000 0.989900
12.935000 1.035400
12.965900 0.733900
12.996800 0.657900
13.027800 0.699700
13.058700 0.714000
13.089600 0.688600
13.120500 0.685300
13.151500 0.689800
13.182400 0.703500
13.213300 0.727100
13.244300 0.854300
13.275200 0.765100
13.306100 0.775600
13.337000 0.768600
13.368000 0.747200
13.398900 0.727200
13.429800 0.720400
13.460800 0.734400
13.491700 0.743200
13.522600 0.731000
13.553500 0.704900
13.584500 0.697600
13.615400 0.700100
13.646300 0.721000
13.677200 0.705500
13.708200 0.734500
13.739100 0.772200
13.770000 0.813600
13.801000 0.839800
13.831900 0.856900
13.862800 0.877500
13.893700 0.881600
13.924700 0.889800
13.955600 0.895200
13.986500 0.906800
14.017500 0.914200
14.048400 0.908000
14.079300 0.956800
14.110200 0.982400
14.141200 1.013800
14.172100 1.032000
14.203000 1.035400
14.234000 1.026800
14.264900 1.033300
14.295800 1.034200
14.326700 1.079500
14.357700 1.097700
14.388600 1.020500
14.419500 1.036700
14.450400 1.093300
14.481400 1.145200
14.512300 1.048700
14.543200 0.988100
14.574200 1.024400
14.605100 1.057900
14.636000 1.053700
14.666900 1.116700
14.697900 1.057500
14.728800 0.986500
14.759700 0.938500
14.790700 0.977500
14.821600 1.000200
14.852500 1.009400
14.883400 0.995000
14.914400 0.993100
14.945300 1.016900
14.976200 1.054900
15.007200 1.066600
15.038100 1.099200
15.069000 1.106900
15.099900 1.103800
15.130900 1.061700
15.161800 1.049300
15.192700 1.048700
15.223600 1.070300
15.254600 1.063600
15.285500 1.039500
15.316400 1.024700
15.347400 1.021900
15.378300 1.028500
15.409200 1.013100
15.440100 0.954800
15.471100 0.942900
15.502000 0.942300
15.532900 0.961000
15.563900 0.980300
15.594800 0.963100
15.625700 0.941900
15.656600 0.935100
15.687600 0.955700
15.718500 0.975900
15.749400 0.871600
15.780300 0.908500
15.811300 0.938900
15.842200 0.924200
15.873100 0.876800
15.904100 0.845200
15.935000 0.829100
15.965900 0.758900
15.996800 0.711300
16.027800 0.661800
16.058700 0.622500
16.089600 0.595300
16.120600 0.562500
16.151500 0.541600
16.182400 0.525100
16.213300 0.503800
16.244300 0.484500
16.275200 0.473200
16.306100 0.472900
16.337100 0.471800
16.368000 0.482400
16.398900 0.524500
16.429800 0.610600
16.460800 0.697900
16.491700 0.731700
16.522600 0.717300
16.553500 0.716000
16.584500 0.733500
16.615400 0.752900
16.646300 0.772000
16.677300 0.790300
16.708200 0.823000
16.739100 0.841400
16.770000 0.836600
16.801000 0.842100
16.831900 0.883800
16.862800 0.899000
16.893800 0.914500
16.924700 0.946500
16.955600 1.179200
16.986500 1.107200
17.017500 1.063900
17.048400 1.066000
17.079300 1.057300
17.110300 1.044900
17.141200 1.047500
17.172100 1.073100
17.203000 1.103800
17.234000 1.057200
17.264900 0.952700
17.295800 0.920300
17.326700 0.883500
17.357700 0.879000
17.388600 0.816000
17.419500 0.835200
17.450500 0.852500
17.481400 0.891000
17.512300 0.938900
17.543200 0.990000
17.574200 1.034200
17.605100 1.074500
17.636000 1.188400
17.667000 1.183800
17.697900 1.085800
17.728800 1.058200
17.759700 1.025100
17.790700 0.992600
17.821600 0.961800
17.852500 0.913100
17.883500 0.850300
17.914400 0.799400
17.945300 0.767000
17.976200 0.746000
18.007200 0.744200
18.038100 0.719800
18.069000 0.704600
18.099900 0.642000
18.130900 0.561200
18.161800 0.533000
18.192700 0.552500
18.223700 0.619600
18.254600 0.618200
18.285500 0.621100
18.316400 0.634400
18.347400 0.677400
18.378300 0.713200
18.409200 0.756800
18.440200 0.807000
18.471100 0.934800
18.502000 0.909500
18.532900 0.903900
18.563900 0.919900
18.594800 0.945400
18.625700 0.962000
18.656700 1.023400
18.687600 0.948400
18.718500 0.944200
18.749400 0.939800
18.780400 0.937500
18.811300 0.938700
18.842200 0.926200
18.873100 0.913900
18.904100 0.912800
18.935000 0.924200
18.965900 0.950600
18.996900 0.953500
19.027800 0.959000
19.058700 0.953600
19.089600 0.952400
19.120600 0.942700
19.151500 0.926900
19.182400 0.908900
19.213400 0.911600
19.244300 0.952800
19.275200 0.933900
19.306100 0.926300
19.337100 0.926800
19.368000 0.971100
19.398900 1.166500
19.429900 1.446400
19.460800 1.242200
19.491700 1.146600
19.522600 1.028000
19.553600 0.927200
19.584500 0.879400
19.615400 0.825800
19.646300 0.798100
19.677300 0.772700
19.708200 0.750700
19.739100 0.737600
19.770100 0.738700
19.801000 0.745600
19.831900 0.765500
19.862800 0.756600
19.893800 0.762100
19.924700 0.773900
19.955600 0.791100
19.986600 0.810500
20.017500 0.824300
20.048400 0.830000
20.079300 0.836000
20.110300 0.844700
20.141200 0.840200
20.172100 0.814300
20.203100 0.773400
20.234000 0.765700
20.264900 0.762800
20.295800 0.759900
20.326800 0.743200
20.357700 0.730600
20.388600 0.721200
20.419500 0.728300
20.450500 0.773700
20.481400 0.819000
20.512300 0.785400
20.543300 0.775300
20.574200 0.766100
20.605100 0.752600
20.636000 0.735900
20.667000 0.717500
20.697900 0.703400
20.728800 0.693200
20.759800 0.682300
20.790700 0.667200
20.821600 0.653100
20.852500 0.643600
20.883500 0.631600
20.914400 0.625400
20.945300 0.619400
20.976200 0.618300
21.007200 0.621800
21.038100 0.627400
21.069000 0.632900
21.100000 0.638600
21.130900 0.640800
21.161800 0.642900
21.192700 0.643900
21.223700 0.642800
21.254600 0.650800
21.285500 0.659300
21.316500 0.671500
21.347400 0.687200
21.378300 0.718800
21.409200 0.757400
21.440200 0.755900
21.471100 0.772800
21.502000 0.765200
21.533000 0.764900
21.563900 0.770100
21.594800 0.772400
21.625700 0.771500
21.656700 0.768200
21.687600 0.762600
21.718500 0.763700
21.749400 0.767900
21.780400 0.758700
21.811300 0.756300
21.842200 0.762900
21.873200 0.771700
21.904100 0.755600
21.935000 0.743300
21.965900 0.768700
21.996900 0.777900
22.027800 0.796400
22.058700 0.812500
22.089700 0.812600
22.120600 0.810000
22.151500 0.784700
22.182400 0.760500
22.213400 0.732600
22.244300 0.689000
22.275200 0.638100
22.306200 0.590100
22.337100 0.549700
22.368000 0.548100
22.398900 0.541400
22.429900 0.532600
22.460800 0.516600
22.491700 0.531100
22.522600 0.552800
22.553600 0.601600
22.584500 0.655100
22.615400 0.703200
22.646400 0.737000
22.677300 0.754300
22.708200 0.763500
22.739100 0.778700
22.770100 0.806600
22.801000 0.843400
22.831900 0.896200
22.862900 0.947600
22.893800 0.853700
22.924700 0.709400
22.955600 0.700900
22.986600 0.697700
23.017500 0.693900
23.048400 0.702000
23.079400 0.733200
23.110300 0.794700
23.141200 0.848900
23.172100 0.893700
23.203100 0.933900
23.234000 0.964800
23.264900 0.959500
23.295800 0.934300
23.326800 0.964800
23.357700 0.946600
23.388600 0.973300
23.419600 1.031300
23.450500 1.048000
23.481400 1.082500
23.512300 1.103000
23.543300 1.111400
23.574200 1.137300
23.605100 1.170700
23.636100 1.185200
23.667000 1.204700
23.697900 1.117800
23.728800 1.078200
23.759800 1.039000
23.790700 0.999300
23.821600 0.927300
23.852600 0.846100
23.883500 0.778400
23.914400 0.723400
23.945300 0.748300
23.976300 0.768900
24.007200 0.768900
24.038100 0.807900
24.069000 0.830800
24.100000 0.884800
24.130900 0.970700
24.161800 1.063900
24.192800 1.164900
24.223700 1.286500
24.254600 1.460500
24.285500 1.594000
24.316500 1.623200
24.347400 1.667600
24.378300 1.871700
24.409300 1.945700
24.440200 1.862600
24.471100 1.655800
24.502000 1.529800
24.533000 1.450600
24.563900 1.376500
24.594800 1.311900
24.625800 1.137100
24.656700 1.107800
24.687600 1.030400
24.718500 0.982300
24.749500 1.005900
24.780400 1.048400
24.811300 0.968500
24.842200 1.029200
24.873200 1.080900
24.904100 1.078400
24.935000 1.101800
24.966000 1.132400
24.996900 1.165400
25.027800 1.203300
25.058700 1.252500
25.089700 1.306000
25.120600 1.359600
25.151500 1.392500
25.182500 1.430200
25.213400 1.464200
25.244300 1.442600
25.275200 1.426000
25.306200 1.396600
25.337100 1.341400
25.368000 1.315200
25.398900 1.246200
25.429900 1.189800
25.460800 1.187600
25.491700 1.194500
25.522700 1.197900
25.553600 1.162500
25.584500 1.128900
25.615400 1.093300
25.646400 1.078000
25.677300 1.085200
25.708200 1.074400
25.739200 1.022300
25.770100 0.983900
25.801000 0.962800
25.831900 0.937700
25.862900 0.936200
25.893800 0.963900
25.924700 0.999500
25.955700 1.039300
25.986600 1.034600
26.017500 0.998900
26.048400 1.033400
26.079400 1.069700
26.110300 1.073300
26.141200 1.073400
26.172100 1.065500
26.203100 1.050500
26.234000 1.038900
26.264900 1.023700
26.295900 1.038900
26.326800 1.055500
26.357700 1.086400
26.388600 1.138800
26.419600 1.225600
26.450500 1.308000
26.481400 1.342700
26.512400 1.390000
26.543300 1.488100
26.574200 1.423800
26.605100 1.388600
26.636100 1.371100
26.667000 1.350500
26.697900 1.347900
26.728900 1.349500
26.759800 1.348400
26.790700 1.349700
26.821600 1.437200
26.852600 1.367100
26.883500 1.286200
26.914400 1.309100
26.945300 1.278300
26.976300 1.246800
27.007200 1.231900
27.038100 1.173500
27.069100 1.176200
27.100000 1.160600
27.130900 1.106400
27.161800 1.079000
27.192800 1.067000
27.223700 1.091600
27.254600 1.165200
27.285600 1.286500
27.316500 1.250800
27.347400 1.186300
27.378300 1.138400
27.409300 1.087500
27.440200 1.066800
27.471100 1.060900
27.502100 1.049600
27.533000 1.037100
27.563900 1.028300
27.594800 1.022600
27.625800 1.011100
27.656700 1.006400
27.687600 0.987200
27.718500 0.970900
27.749500 0.950400
27.780400 0.953300
27.811300 0.953500
27.842300 0.980900
27.873200 1.067700
27.904100 1.088400
27.935000 1.062500
27.966000 1.072500
27.996900 1.090000
28.027800 1.091400
28.058800 1.088500
28.089700 1.082700
28.120600 1.135000
28.151500 1.128300
28.182500 1.130100
28.213400 1.193800
28.244300 1.254800
28.275300 1.236900
28.306200 1.184500
28.337100 1.195000
28.368000 1.218400
28.399000 1.270100
28.429900 1.343400
28.460800 1.383200
28.491700 1.413500
28.522700 1.396000
28.553600 1.396500
28.584500 1.396900
28.615500 1.375800
28.646400 1.397600
28.677300 1.437800
28.708200 1.475300
28.739200 1.382600
28.770100 1.385500
28.801000 1.451600
28.832000 1.527600
28.862900 1.654300
28.893800 1.639700
28.924700 1.645100
28.955700 1.646100
28.986600 1.585900
29.017500 1.602400
29.048500 1.664800
29.079400 1.744900
29.110300 1.638000
29.141200 1.528300
29.172200 1.481400
29.203100 1.434200
29.234000 1.385700
29.264900 1.286500
29.295900 1.178200
29.326800 1.050500
29.357700 0.984300
29.388700 0.982200
29.419600 0.986600
29.450500 0.983700
29.481400 0.975600
29.512400 0.996900
29.543300 1.076600
29.574200 1.109900
29.605200 1.076600
29.636100 1.082500
29.667000 1.094700
29.697900 1.091500
29.728900 1.106900
29.759800 1.141000
29.790700 1.180100
29.821600 1.235400
29.852600 1.286700
29.883500 1.346200
29.914400 1.443000
29.945400 1.446500
29.976300 1.441700
30.007200 1.325500
30.038100 1.250100
30.069100 1.210700
30.100000 1.184200
30.130900 1.175900
30.161900 1.131300
30.192800 1.095900
30.223700 1.061100
30.254600 1.006800
30.285600 1.002000
30.316500 1.000200
30.347400 0.991500
30.378400 1.006800
30.409300 1.024000
30.440200 1.068400
30.471100 1.151200
30.502100 1.222800
30.533000 1.278700
30.563900 1.324800
30.594800 1.365200
30.625800 1.384900
30.656700 1.416600
30.687600 1.400900
30.718600 1.475900
30.749500 1.549800
30.780400 1.508600
30.811300 1.438000
30.842300 1.432200
30.873200 1.443700
30.904100 1.413900
30.935100 1.325300
30.966000 1.230700
30.996900 1.147200
31.027800 1.132500
31.058800 1.132900
31.089700 1.192300
31.120600 1.338700
31.151600 1.446500
31.182500 1.477400
31.213400 1.423200
31.244300 1.352500
31.275300 1.341200
31.306200 1.279800
31.337100 1.286100
31.368000 1.285800
31.399000 1.276900
31.429900 1.258400
31.460800 1.282400
31.491800 1.259100
31.522700 1.173600
31.553600 1.136300
31.584500 1.100400
31.615500 1.067400
31.646400 1.030600
31.677300 1.040700
31.708300 1.055900
31.739200 1.050800
31.770100 1.049300
31.801000 1.080300
31.832000 1.048300
31.862900 0.993700
31.893800 0.960300
31.924800 0.938900
31.955700 0.935500
31.986600 0.942000
32.017500 0.971400
32.048500 0.990600
32.079400 1.014200
32.110300 1.033200
32.141200 1.055900
32.172200 1.092600
32.203100 1.116700
32.234000 1.149400
32.265000 1.164700
32.295900 1.177800
32.326800 1.186100
32.357700 1.198700
32.388700 1.316000
32.419600 1.359400
32.450500 1.234500
32.481500 1.113400
32.512400 1.026000
32.543300 0.984200
32.574200 0.957600
32.605200 0.904200
32.636100 0.861800
32.667000 0.842800
32.698000 0.832400
32.728900 0.863700
32.759800 0.945900
32.790700 1.040300
32.821700 1.099200
32.852600 1.105200
32.883500 1.102400
32.914400 1.150200
32.945400 1.156100
32.976300 1.185900
33.007200 1.144200
33.038200 1.101400
33.069100 1.091000
33.100000 1.087100
33.130900 1.099600
33.161900 1.120800
33.192800 1.127400
33.223700 1.128700
33.254700 1.137200
33.285600 1.139200
33.316500 1.127100
33.347400 1.115100
33.378400 1.078700
33.409300 1.070300
33.440200 1.114000
33.471200 1.475000
33.502100 0.919300
33.533000 0.904500
33.563900 0.901300
33.594900 0.916100
33.625800 0.918400
33.656700 0.920700
33.687600 0.921400
33.718600 0.927400
33.749500 0.936300
33.780400 0.943300
33.811400 0.932100
33.842300 0.920500
33.873200 0.918700
33.904100 0.923000
33.935100 0.938300
33.966000 0.960600
33.996900 1.014300
34.027900 1.023300
34.058800 1.027100
34.089700 1.008200
34.120600 1.008000
34.151600 1.044400
34.182500 1.069800
34.213400 1.046300
34.244300 1.051700
34.275300 1.069100
34.306200 1.075300
34.337100 1.084600
34.368100 1.135000
34.399000 1.169200
34.429900 1.209600
34.460800 1.263400
34.491800 1.389500
34.522700 1.315200
34.553600 1.415000
34.584600 1.460300
34.615500 1.522400
34.646400 1.565500
34.677300 1.539700
34.708300 1.451800
34.739200 1.386600
34.770100 1.335800
34.801100 1.279900
34.832000 1.220700
34.862900 1.161300
34.893800 1.102000
34.924800 1.036800
34.955700 0.980400
34.986600 0.927500
35.017500 0.893600
35.048500 0.868500
35.079400 0.843300
35.110300 0.844200
35.141300 0.839200
35.172200 0.830000
35.203100 0.824900
35.234000 0.816900
35.265000 0.835300
35.295900 0.881500
35.326800 0.931100
35.357800 1.024600
35.388700 1.067400
35.419600 1.098600
35.450500 1.096100
35.481500 1.115900
35.512400 1.134700
35.543300 1.147400
35.574300 1.171900
35.605200 1.198300
35.636100 1.248400
35.667000 1.185500
35.698000 1.155300
35.728900 1.092300
35.759800 1.093500
35.790700 1.051400
35.821700 1.038900
35.852600 1.047800
35.883500 1.076000
35.914500 1.136700
35.945400 1.232500
35.976300 1.354900
36.007200 1.360800
36.038200 1.355700
36.069100 1.327800
36.100000 1.297700
36.131000 1.246300
36.161900 1.202100
36.192800 1.159300
36.223700 1.133800
36.254700 1.151500
36.285600 1.156900
36.316500 1.142600
36.347500 1.122000
36.378400 1.104700
36.409300 1.107400
36.440200 1.098900
36.471200 1.087600
36.502100 1.073700
36.533000 1.055700
36.563900 1.027100
36.594900 1.022200
36.625800 1.003900
36.656700 0.991500
36.687700 0.981200
36.718600 0.973000
36.749500 0.979800
36.780400 1.005200
36.811400 1.016100
36.842300 1.031700
36.873200 1.055800
36.904200 1.094500
36.935100 1.129300
36.966000 1.161300
36.996900 1.173200
37.027900 1.150900
37.058800 1.119400
37.089700 1.096100
37.120700 1.063000
37.151600 1.015600
37.182500 1.004000
37.213400 0.985100
37.244400 0.970400
37.275300 0.959200
37.306200 0.970800
37.337100 1.007700
37.368100 1.037600
37.399000 1.071900
37.429900 1.105400
37.460900 1.141200
37.491800 1.171300
37.522700 1.228500
37.553600 1.205500
37.584600 1.159900
37.615500 1.115800
37.646400 1.074800
37.677400 1.061500
37.708300 1.045400
37.739200 1.053800
37.770100 1.030000
37.801100 1.023900
37.832000 1.026100
37.862900 1.026400
37.893900 1.035900
37.924800 1.072100
37.955700 1.076300
37.986600 1.140000
38.017600 1.178500
38.048500 1.297600
38.079400 1.260000
38.110300 1.316500
38.141300 1.362300
38.172200 1.390900
38.203100 1.408600
38.234100 1.413500
38.265000 1.397600
38.295900 1.391300
38.326800 1.364700
38.357800 1.323500
38.388700 1.290600
38.419600 1.288100
38.450600 1.262300
38.481500 1.223500
38.512400 1.192600
38.543300 1.172800
38.574300 1.152800
38.605200 1.120200
38.636100 1.075900
38.667000 1.050900
38.698000 1.045500
38.728900 1.038600
38.759800 1.019300
38.790800 0.995200
38.821700 0.991400
38.852600 0.989000
38.883500 0.990000
38.914500 1.003400
38.945400 1.021500
38.976300 1.042100
39.007300 1.069400
39.038200 1.115800
39.069100 1.155900
39.100000 1.215600
39.131000 1.284800
39.161900 1.400500
39.192800 1.568600
39.223800 1.643000
39.254700 1.745400
39.285600 1.616100
39.316500 1.533300
39.347500 1.618700
39.378400 1.615100
39.409300 1.642700
39.440200 1.706900
39.471200 1.748600
39.502100 1.822200
39.533000 1.694200
39.564000 1.720500
39.594900 1.773200
39.625800 1.750700
39.656700 1.816700
39.687700 1.973700
39.718600 2.279000
39.749500 2.806200
39.780500 4.028400
39.811400 4.245200
39.842300 4.777600
39.873200 3.744300
39.904200 4.452400
39.935100 5.039600
39.966000 5.759000
39.997000 5.692100
40.027900 4.804800
40.058800 5.616700
40.089700 3.678700
40.120700 3.156900
40.151600 2.401900
40.182500 2.235500
40.213400 2.238800
40.244400 2.381500
40.275300 1.832400
40.306200 1.401600
40.337200 1.146400
40.368100 1.020900
40.399000 0.930000
40.429900 0.785100
40.460900 0.641700
40.491800 0.518900
40.522700 0.433200
40.553700 0.374500
40.584600 0.330900
40.615500 0.293300
40.646400 0.263000
40.677400 0.205400
40.708300 0.157200
40.739200 0.123400
40.770200 0.106100
40.801100 0.094000
40.832000 0.084400
40.862900 0.076000
40.893900 0.068800
40.924800 0.062400
40.955700 0.056200
40.986600 0.050300
41.017600 0.044600
41.048500 0.039100
41.079400 0.033900
41.110400 0.029000
41.141300 0.025000
41.172200 0.022000
41.203100 0.019300
41.234100 0.016600
41.265000 0.014100
41.295900 0.011800
41.326900 0.009700
41.357800 0.007800
41.388700 0.006000
41.419600 0.004500
41.450600 0.003200
41.481500 0.002100
41.512400 0.001200
41.543400 0.000500
41.574300 0.000000
41.605200 0.000000
41.636100 0.000000
41.667100 0.000000
41.698000 0.000000
41.728900 0.000000
41.759800 0.000000
41.790800 0.000000
41.821700 0.000000
41.852600 0.000000
41.883600 0.000000
41.914500 0.000000
41.945400 0.000000
41.976300 0.000000
42.007300 0.000000
42.038200 0.000000
42.069100 0.000000
42.100100 0.000000
42.131000 0.000000
42.161900 0.000000
42.192800 0.000000
42.223800 0.000000
42.254700 0.000000
42.285600 0.000000
42.316600 0.000000
42.347500 0.000000
42.378400 0.000000
42.409300 0.000000
42.440300 0.000000
42.471200 0.000000
42.502100 0.000000
42.533000 0.000000
42.564000 0.000000
42.594900 0.000000
42.625800 0.000000
42.656800 0.000000
42.687700 0.000000
42.718600 0.000000
42.749500 0.000000
42.780500 0.000000
42.811400 0.000000
42.842300 0.000000
42.873300 0.000000
42.904200 0.000000
42.935100 0.000000
42.966000 0.000000
42.997000 0.000000
43.027900 0.000000
43.058800 0.000000
43.089700 0.000000
43.120700 0.000000
43.151600 0.000000
43.182500 0.000000
43.213500 0.000000
43.244400 0.000000
43.275300 0.000000
43.306200 0.000000
43.337200 0.000000
43.368100 0.000000
43.399000 0.000000
43.430000 0.000000
43.460900 0.000000
43.491800 0.000000
43.522700 0.000000
43.553700 0.000000
43.584600 0.000000
43.615500 0.000000
43.646500 0.000000
43.677400 0.000000
43.708300 0.000000
43.739200 0.000000
43.770200 0.000000
43.801100 0.000000
43.832000 0.000000
43.862900 0.000000
43.893900 0.000000
43.924800 0.000000
43.955700 0.000000
43.986700 0.000000
44.017600 0.000000
44.048500 0.000000
44.079400 0.000000
44.110400 0.000000
44.141300 0.000000
44.172200 0.000000
44.203200 0.000000
44.234100 0.000000
44.265000 0.000000
44.295900 0.000000
44.326900 0.000000
44.357800 0.000000
44.388700 0.000000
44.419700 0.000000
44.450600 0.000000
e
