set title 'mp-1219908 - Density of States'
set xlabel 'Energy (eV)'
set ylabel 'DOS (states/eV)'
set grid
set xrange [-10:10]
set yrange [0:6.331]
set xzeroaxis lt -1
set terminal png size 800,600
set output 'mp-1219908_dos_gnuplot.png'
plot '-' using 1:2 with lines title 'DOS'
-4.995900 0.000000
-4.970700 0.000000
-4.945500 0.000000
-4.920300 0.000000
-4.895100 0.000000
-4.869900 0.000000
-4.844800 0.000000
-4.819600 0.000000
-4.794400 0.000000
-4.769200 0.000000
-4.744000 0.000000
-4.718800 0.000000
-4.693600 0.000000
-4.668400 0.000000
-4.643300 0.000000
-4.618100 0.000000
-4.592900 0.000000
-4.567700 0.000000
-4.542500 0.000000
-4.517300 0.000000
-4.492100 0.000000
-4.467000 0.000000
-4.441800 0.000000
-4.416600 0.000000
-4.391400 0.000000
-4.366200 0.000000
-4.341000 0.000000
-4.315800 0.000000
-4.290600 0.000000
-4.265500 0.000000
-4.240300 0.000000
-4.215100 0.000000
-4.189900 0.000000
-4.164700 0.000000
-4.139500 0.000000
-4.114300 0.000000
-4.089200 0.000000
-4.064000 0.000000
-4.038800 0.000000
-4.013600 0.000000
-3.988400 0.000000
-3.963200 0.000000
-3.938000 0.000000
-3.912800 0.000000
-3.887700 0.000000
-3.862500 0.000000
-3.837300 0.000000
-3.812100 0.000000
-3.786900 0.000000
-3.761700 0.000000
-3.736500 0.000000
-3.711400 0.000000
-3.686200 0.000000
-3.661000 0.000000
-3.635800 0.000000
-3.610600 0.000000
-3.585400 0.000000
-3.560200 0.000000
-3.535100 0.000000
-3.509900 0.000000
-3.484700 0.000000
-3.459500 0.000000
-3.434300 0.000000
-3.409100 0.000000
-3.383900 0.000000
-3.358700 0.000000
-3.333600 0.000000
-3.308400 0.000000
-3.283200 0.000000
-3.258000 0.000000
-3.232800 0.000000
-3.207600 0.000000
-3.182400 0.000000
-3.157300 0.000000
-3.132100 0.000000
-3.106900 0.000000
-3.081700 0.000000
-3.056500 0.000000
-3.031300 0.000000
-3.006100 0.000000
-2.980900 0.000000
-2.955800 0.000000
-2.930600 0.000000
-2.905400 0.000000
-2.880200 0.000000
-2.855000 0.000000
-2.829800 0.000000
-2.804600 0.000000
-2.779500 0.000000
-2.754300 0.000000
-2.729100 0.000000
-2.703900 0.000000
-2.678700 0.003600
-2.653500 0.011900
-2.628300 0.022000
-2.603100 0.033700
-2.578000 0.047100
-2.552800 0.061800
-2.527600 0.059600
-2.502400 0.062300
-2.477200 0.065200
-2.452000 0.069600
-2.426800 0.074500
-2.401700 0.079400
-2.376500 0.083800
-2.351300 0.088000
-2.326100 0.092600
-2.300900 0.097400
-2.275700 0.102400
-2.250500 0.107400
-2.225400 0.112100
-2.200200 0.116000
-2.175000 0.119300
-2.149800 0.122400
-2.124600 0.125500
-2.099400 0.128400
-2.074200 0.131700
-2.049000 0.135300
-2.023900 0.139000
-1.998700 0.142900
-1.973500 0.147100
-1.948300 0.151300
-1.923100 0.155700
-1.897900 0.160200
-1.872700 0.164700
-1.847600 0.169400
-1.822400 0.174200
-1.797200 0.179300
-1.772000 0.185600
-1.746800 0.192200
-1.721600 0.199100
-1.696400 0.206800
-1.671200 0.215700
-1.646100 0.224000
-1.620900 0.231600
-1.595700 0.238000
-1.570500 0.240200
-1.545300 0.236100
-1.520100 0.232100
-1.494900 0.234500
-1.469800 0.236900
-1.444600 0.239100
-1.419400 0.241400
-1.394200 0.243700
-1.369000 0.246000
-1.343800 0.248300
-1.318600 0.250400
-1.293400 0.252400
-1.268300 0.254400
-1.243100 0.256200
-1.217900 0.257500
-1.192700 0.258900
-1.167500 0.260400
-1.142300 0.262200
-1.117100 0.264300
-1.092000 0.266900
-1.066800 0.269800
-1.041600 0.272700
-1.016400 0.275600
-0.991200 0.278500
-0.966000 0.281400
-0.940800 0.284400
-0.915700 0.287700
-0.890500 0.291300
-0.865300 0.295100
-0.840100 0.299100
-0.814900 0.303300
-0.789700 0.307700
-0.764500 0.312200
-0.739300 0.316900
-0.714200 0.321600
-0.689000 0.326900
-0.663800 0.333000
-0.638600 0.339500
-0.613400 0.346400
-0.588200 0.353700
-0.563000 0.361400
-0.537900 0.369700
-0.512700 0.378600
-0.487500 0.388000
-0.462300 0.397800
-0.437100 0.408000
-0.411900 0.418800
-0.386700 0.430600
-0.361500 0.527600
-0.336400 0.646100
-0.311200 0.886800
-0.286000 1.026500
-0.260800 1.123800
-0.235600 1.151800
-0.210400 1.147600
-0.185200 1.114000
-0.160100 1.108900
-0.134900 1.111700
-0.109700 1.132500
-0.084500 1.158700
-0.059300 1.183000
-0.034100 1.206400
-0.008900 1.232800
0.016300 1.260600
0.041400 1.290500
0.066600 1.323700
0.091800 1.358800
0.117000 1.463000
0.142200 1.518000
0.167400 1.640200
0.192600 1.644200
0.217700 1.632200
0.242900 1.633600
0.268100 1.578100
0.293300 1.549600
0.318500 1.565900
0.343700 1.606000
0.368900 1.645900
0.394000 1.690300
0.419200 1.739000
0.444400 1.791900
0.469600 1.847100
0.494800 1.895700
0.520000 1.941700
0.545200 1.981700
0.570400 2.023400
0.595500 2.057100
0.620700 2.100000
0.645900 2.225300
0.671100 2.397400
0.696300 2.617500
0.721500 2.700600
0.746700 2.781200
0.771800 2.872400
0.797000 2.999300
0.822200 3.073000
0.847400 3.149900
0.872600 3.319100
0.897800 3.514600
0.923000 3.575700
0.948200 3.608600
0.973300 3.599400
0.998500 3.606700
1.023700 3.594400
1.048900 3.705300
1.074100 3.728100
1.099300 3.728400
1.124500 3.674900
1.149600 3.689600
1.174800 3.683000
1.200000 3.612100
1.225200 3.644500
1.250400 3.623500
1.275600 3.608600
1.300800 3.620700
1.326000 3.744000
1.351100 3.572800
1.376300 3.533100
1.401500 3.543900
1.426700 3.319200
1.451900 2.946100
1.477100 2.599700
1.502300 2.356500
1.527400 2.385200
1.552600 2.256100
1.577800 2.324100
1.603000 2.196600
1.628200 2.191400
1.653400 2.306000
1.678600 2.381400
1.703700 2.448900
1.728900 2.441000
1.754100 2.589000
1.779300 2.617800
1.804500 2.441100
1.829700 2.287500
1.854900 1.945500
1.880100 1.774300
1.905200 1.766700
1.930400 2.203400
1.955600 2.518500
1.980800 3.226500
2.006000 3.651300
2.031200 4.076600
2.056400 4.168700
2.081500 4.110200
2.106700 3.954300
2.131900 3.823700
2.157100 3.470800
2.182300 3.278900
2.207500 3.379000
2.232700 3.323700
2.257900 3.077400
2.283000 2.876900
2.308200 2.767600
2.333400 2.800100
2.358600 2.844500
2.383800 2.871600
2.409000 2.942200
2.434200 2.962600
2.459300 2.974700
2.484500 3.028000
2.509700 2.966600
2.534900 2.957900
2.560100 2.993500
2.585300 3.083500
2.610500 3.279200
2.635700 3.368100
2.660800 3.538000
2.686000 3.795700
2.711200 4.332200
2.736400 4.629500
2.761600 4.429500
2.786800 4.569300
2.812000 4.392100
2.837100 4.184500
2.862300 4.516600
2.887500 4.468000
2.912700 3.997200
2.937900 3.650300
2.963100 3.618800
2.988300 3.685300
3.013400 4.074700
3.038600 4.301500
3.063800 4.172400
3.089000 4.262600
3.114200 4.618100
3.139400 5.110700
3.164600 5.608700
3.189800 5.023800
3.214900 5.693600
3.240100 5.755900
3.265300 5.493500
3.290500 4.649800
3.315700 3.959600
3.340900 3.738100
3.366100 3.770700
3.391200 4.275400
3.416400 3.911900
3.441600 3.614900
3.466800 3.310000
3.492000 3.288000
3.517200 3.395000
3.542400 3.569500
3.567600 3.685800
3.592700 3.473400
3.617900 3.324700
3.643100 3.255600
3.668300 3.063000
3.693500 2.717200
3.718700 2.622700
3.743900 2.608400
3.769000 2.612300
3.794200 2.646100
3.819400 2.722300
3.844600 2.730000
3.869800 2.843000
3.895000 2.940400
3.920200 3.179900
3.945400 3.427100
3.970500 3.545700
3.995700 3.585000
4.020900 3.607700
4.046100 3.452400
4.071300 3.417200
4.096500 3.428100
4.121700 3.460200
4.146800 3.480500
4.172000 3.569700
4.197200 3.603900
4.222400 3.503600
4.247600 3.503400
4.272800 3.517700
4.298000 3.270700
4.323100 3.097600
4.348300 2.987300
4.373500 3.006900
4.398700 3.265900
4.423900 3.687200
4.449100 4.267000
4.474300 4.382400
4.499500 4.205300
4.524600 3.953500
4.549800 3.566600
4.575000 3.432400
4.600200 3.431800
4.625400 3.198700
4.650600 3.252000
4.675800 3.387700
4.700900 3.366200
4.726100 3.292300
4.751300 3.191600
4.776500 3.125500
4.801700 3.074900
4.826900 3.035200
4.852100 2.968400
4.877300 2.906200
4.902400 2.842000
4.927600 2.811300
4.952800 2.819100
4.978000 2.847900
5.003200 2.874600
5.028400 2.870200
5.053600 2.853400
5.078700 2.833800
5.103900 2.830100
5.129100 2.815700
5.154300 2.822200
5.179500 2.840100
5.204700 2.857500
5.229900 2.866800
5.255100 2.879600
5.280200 2.896800
5.305400 2.915300
5.330600 2.942900
5.355800 2.976700
5.381000 3.016600
5.406200 3.067800
5.431400 3.123300
5.456500 3.191100
5.481700 3.302000
5.506900 3.402200
5.532100 3.449600
5.557300 3.456700
5.582500 3.441800
5.607700 3.493500
5.632800 3.593100
5.658000 3.619000
5.683200 3.753600
5.708400 4.017100
5.733600 4.298600
5.758800 4.798300
5.784000 5.331000
5.809200 5.298800
5.834300 5.354300
5.859500 5.569500
5.884700 5.702600
5.909900 4.057600
5.935100 3.574400
5.960300 3.368700
5.985500 3.252700
6.010600 3.183200
6.035800 3.193400
6.061000 3.107300
6.086200 3.102300
6.111400 3.137900
6.136600 2.917000
6.161800 2.561300
6.187000 2.446800
6.212100 2.351600
6.237300 2.824700
6.262500 1.197100
6.287700 0.914000
6.312900 0.629900
6.338100 0.566000
6.363300 0.552900
6.388400 0.543900
6.413600 0.535300
6.438800 0.526000
6.464000 0.523800
6.489200 0.524900
6.514400 0.526100
6.539600 0.527300
6.564800 0.528300
6.589900 0.528900
6.615100 0.529100
6.640300 0.529200
6.665500 0.529300
6.690700 0.529400
6.715900 0.529500
6.741100 0.529700
6.766200 0.529800
6.791400 0.530000
6.816600 0.530100
6.841800 0.529800
6.867000 0.529300
6.892200 0.528600
6.917400 0.525800
6.942500 0.526200
6.967700 0.524600
6.992900 0.525000
7.018100 0.526100
7.043300 0.527200
7.068500 0.528200
7.093700 0.529200
7.118900 0.530000
7.144000 0.530800
7.169200 0.531500
7.194400 0.532300
7.219600 0.532900
7.244800 0.533600
7.270000 0.534300
7.295200 0.535300
7.320300 0.536300
7.345500 0.537500
7.370700 0.538800
7.395900 0.539900
7.421100 0.539500
7.446300 0.537500
7.471500 0.535900
7.496700 0.534800
7.521800 0.534000
7.547000 0.533300
7.572200 0.532800
7.597400 0.532400
7.622600 0.531900
7.647800 0.531700
7.673000 0.534700
7.698100 0.537300
7.723300 0.538500
7.748500 0.538300
7.773700 0.538400
7.798900 0.538900
7.824100 0.539300
7.849300 0.539700
7.874500 0.540100
7.899600 0.540600
7.924800 0.541100
7.950000 0.541500
7.975200 0.542000
8.000400 0.542400
8.025600 0.542900
8.050800 0.543500
8.075900 0.544300
8.101100 0.545400
8.126300 0.546600
8.151500 0.549500
8.176700 0.551700
8.201900 0.551700
8.227100 0.549500
8.252200 0.546800
8.277400 0.544000
8.302600 0.541700
8.327800 0.539700
8.353000 0.538000
8.378200 0.536500
8.403400 0.535200
8.428600 0.534200
8.453700 0.533500
8.478900 0.533000
8.504100 0.532600
8.529300 0.532200
8.554500 0.531800
8.579700 0.531700
8.604900 0.531700
8.630000 0.531900
8.655200 0.532300
8.680400 0.533000
8.705600 0.533200
8.730800 0.533600
8.756000 0.534500
8.781200 0.535800
8.806400 0.537800
8.831500 0.540400
8.856700 0.543800
8.881900 0.551600
8.907100 0.563500
8.932300 0.569500
8.957500 0.569500
8.982700 0.559600
9.007800 0.538400
9.033000 0.523600
9.058200 0.516100
9.083400 0.510400
9.108600 0.506300
9.133800 0.505100
9.159000 0.505300
9.184200 0.505400
9.209300 0.504300
9.234500 0.503400
9.259700 0.503200
9.284900 0.503000
9.310100 0.502600
9.335300 0.501800
9.360500 0.500800
9.385600 0.500000
9.410800 0.499800
9.436000 0.499900
9.461200 0.500400
9.486400 0.501200
9.511600 0.500700
9.536800 0.497500
9.561900 0.494400
9.587100 0.494300
9.612300 0.494900
9.637500 0.498900
9.662700 0.497600
9.687900 0.495400
9.713100 0.493700
9.738300 0.494400
9.763400 0.496700
9.788600 0.499800
9.813800 0.503700
9.839000 0.508700
9.864200 0.514800
9.889400 0.535400
9.914600 0.548000
9.939700 0.546700
9.964900 0.525800
9.990100 0.503700
10.015300 0.493300
10.040500 0.489900
10.065700 0.487000
10.090900 0.484300
10.116100 0.481800
10.141200 0.479200
10.166400 0.476600
10.191600 0.473900
10.216800 0.471100
10.242000 0.468100
10.267200 0.465200
10.292400 0.462500
10.317500 0.461000
10.342700 0.453000
10.367900 0.452100
10.393100 0.451800
10.418300 0.451700
10.443500 0.451800
10.468700 0.454800
10.493900 0.461800
10.519000 0.472700
10.544200 0.484900
10.569400 0.486800
10.594600 0.486000
10.619800 0.482500
10.645000 0.474200
10.670200 0.460800
10.695300 0.442800
10.720500 0.428900
10.745700 0.413700
10.770900 0.418800
10.796100 0.411900
10.821300 0.405900
10.846500 0.400500
10.871600 0.395700
10.896800 0.391100
10.922000 0.388200
10.947200 0.385800
10.972400 0.383700
10.997600 0.377400
11.022800 0.364200
11.048000 0.364300
11.073100 0.364400
11.098300 0.364300
11.123500 0.364000
11.148700 0.363500
11.173900 0.362700
11.199100 0.361800
11.224300 0.360600
11.249400 0.359300
11.274600 0.357700
11.299800 0.356100
11.325000 0.354400
11.350200 0.353200
11.375400 0.357200
11.400600 0.366300
11.425800 0.378900
11.450900 0.382400
11.476100 0.380800
11.501300 0.375900
11.526500 0.378500
11.551700 0.381100
11.576900 0.384100
11.602100 0.387100
11.627200 0.389300
11.652400 0.389000
11.677600 0.387800
11.702800 0.386600
11.728000 0.385400
11.753200 0.384200
11.778400 0.382900
11.803600 0.381700
11.828700 0.379800
11.853900 0.376200
11.879100 0.373000
11.904300 0.369300
11.929500 0.365500
11.954700 0.361500
11.979900 0.362700
12.005000 0.379200
12.030200 0.419900
12.055400 0.456000
12.080600 0.484600
12.105800 0.516200
12.131000 0.553300
12.156200 0.580500
12.181300 0.593400
12.206500 0.612700
12.231700 0.760100
12.256900 0.936100
12.282100 0.917200
12.307300 0.848000
12.332500 0.799200
12.357700 0.771000
12.382800 0.751300
12.408000 0.735100
12.433200 0.722200
12.458400 0.713100
12.483600 0.706700
12.508800 0.702500
12.534000 0.700500
12.559100 0.700400
12.584300 0.703100
12.609500 0.708700
12.634700 0.716200
12.659900 0.706800
12.685100 0.710800
12.710300 0.713600
12.735500 0.702300
12.760600 0.687100
12.785800 0.662900
12.811000 0.649500
12.836200 0.639800
12.861400 0.632700
12.886600 0.627800
12.911800 0.625200
12.936900 0.609000
12.962100 0.606100
12.987300 0.603200
13.012500 0.600700
13.037700 0.598300
13.062900 0.596200
13.088100 0.594300
13.113300 0.592400
13.138400 0.590700
13.163600 0.589300
13.188800 0.586200
13.214000 0.584100
13.239200 0.582500
13.264400 0.581900
13.289600 0.581900
13.314700 0.581800
13.339900 0.582100
13.365100 0.582900
13.390300 0.583900
13.415500 0.585300
13.440700 0.586800
13.465900 0.588500
13.491000 0.590300
13.516200 0.591400
13.541400 0.592400
13.566600 0.596100
13.591800 0.602000
13.617000 0.608100
13.642200 0.603600
13.667400 0.611700
13.692500 0.620400
13.717700 0.629200
13.742900 0.634700
13.768100 0.639900
13.793300 0.644600
13.818500 0.648700
13.843700 0.649400
13.868800 0.645900
13.894000 0.642500
13.919200 0.638500
13.944400 0.632400
13.969600 0.623700
13.994800 0.612300
14.020000 0.605700
14.045200 0.598200
14.070300 0.597700
14.095500 0.601100
14.120700 0.603800
14.145900 0.613200
14.171100 0.617800
14.196300 0.609700
14.221500 0.599800
14.246600 0.590000
14.271800 0.580500
14.297000 0.569300
14.322200 0.556100
14.347400 0.541200
14.372600 0.526100
14.397800 0.512300
14.423000 0.499600
14.448100 0.488200
14.473300 0.477500
14.498500 0.467000
14.523700 0.457300
14.548900 0.449000
14.574100 0.441900
14.599300 0.436300
14.624400 0.432400
14.649600 0.429400
14.674800 0.427300
14.700000 0.426000
14.725200 0.425700
14.750400 0.426300
14.775600 0.427800
14.800700 0.430100
14.825900 0.432600
14.851100 0.427400
14.876300 0.432400
14.901500 0.441200
14.926700 0.450700
14.951900 0.454500
14.977100 0.459800
15.002200 0.466600
15.027400 0.475000
15.052600 0.486600
15.077800 0.504300
15.103000 0.527700
15.128200 0.555400
15.153400 0.572600
15.178500 0.582400
15.203700 0.592800
15.228900 0.600400
15.254100 0.609200
15.279300 0.619600
15.304500 0.630700
15.329700 0.643000
15.354900 0.656200
15.380000 0.668700
15.405200 0.680300
15.430400 0.691100
15.455600 0.702500
15.480800 0.718200
15.506000 0.754700
15.531200 0.784700
15.556300 0.802000
15.581500 0.819400
15.606700 0.830700
15.631900 0.829600
15.657100 0.822100
15.682300 0.820600
15.707500 0.791400
15.732700 0.755200
15.757800 0.729600
15.783000 0.721600
15.808200 0.724500
15.833400 0.727300
15.858600 0.731400
15.883800 0.739800
15.909000 0.706100
15.934100 0.676800
15.959300 0.656000
15.984500 0.643300
16.009700 0.636200
16.034900 0.663900
16.060100 0.612100
16.085300 0.605200
16.110400 0.589200
16.135600 0.567400
16.160800 0.561300
16.186000 0.565400
16.211200 0.573700
16.236400 0.588600
16.261600 0.611900
16.286800 0.640700
16.311900 0.675300
16.337100 0.721700
16.362300 0.774100
16.387500 0.820400
16.412700 0.848300
16.437900 0.884300
16.463100 0.875000
16.488200 0.846100
16.513400 0.827000
16.538600 0.809000
16.563800 0.789100
16.589000 0.772100
16.614200 0.758700
16.639400 0.747500
16.664600 0.738100
16.689700 0.731400
16.714900 0.727800
16.740100 0.727800
16.765300 0.739800
16.790500 0.758100
16.815700 0.769600
16.840900 0.775900
16.866000 0.780300
16.891200 0.782200
16.916400 0.784000
16.941600 0.785000
16.966800 0.785800
16.992000 0.786400
17.017200 0.787000
17.042400 0.787300
17.067500 0.787200
17.092700 0.787300
17.117900 0.787700
17.143100 0.788100
17.168300 0.787000
17.193500 0.784100
17.218700 0.779800
17.243800 0.775300
17.269000 0.774800
17.294200 0.775000
17.319400 0.776000
17.344600 0.777300
17.369800 0.778500
17.395000 0.780700
17.420100 0.783800
17.445300 0.792600
17.470500 0.800800
17.495700 0.806600
17.520900 0.815700
17.546100 0.821000
17.571300 0.823100
17.596500 0.824100
17.621600 0.825100
17.646800 0.826500
17.672000 0.828300
17.697200 0.830700
17.722400 0.835000
17.747600 0.890700
17.772800 0.909800
17.797900 0.864300
17.823100 0.854600
17.848300 0.859200
17.873500 0.864500
17.898700 0.870700
17.923900 0.877400
17.949100 0.888900
17.974300 0.907800
17.999400 0.929200
18.024600 0.944300
18.049800 0.950200
18.075000 0.947600
18.100200 0.942000
18.125400 0.938800
18.150600 0.936500
18.175700 0.933700
18.200900 0.933800
18.226100 0.935700
18.251300 0.938200
18.276500 0.940900
18.301700 0.948500
18.326900 0.967100
18.352100 0.996600
18.377200 1.024500
18.402400 1.037900
18.427600 1.044300
18.452800 1.053800
18.478000 1.080500
18.503200 1.091300
18.528400 1.050400
18.553500 1.032600
18.578700 1.023600
18.603900 1.021000
18.629100 1.026600
18.654300 1.035700
18.679500 1.039900
18.704700 1.040100
18.729800 1.035400
18.755000 1.028400
18.780200 1.027400
18.805400 1.029900
18.830600 1.034200
18.855800 1.038600
18.881000 1.043100
18.906200 1.047500
18.931300 1.051900
18.956500 1.055700
18.981700 1.058900
19.006900 1.061300
19.032100 1.062600
19.057300 1.064700
19.082500 1.064800
19.107600 1.063700
19.132800 1.061800
19.158000 1.060000
19.183200 1.058900
19.208400 1.064200
19.233600 1.071600
19.258800 1.073400
19.284000 1.069700
19.309100 1.064900
19.334300 1.065500
19.359500 1.063700
19.384700 1.059600
19.409900 1.053300
19.435100 1.044500
19.460300 1.035300
19.485400 1.028900
19.510600 1.025300
19.535800 1.023400
19.561000 1.021700
19.586200 1.019100
19.611400 1.015900
19.636600 1.013500
19.661800 1.012600
19.686900 1.011000
19.712100 1.008200
19.737300 1.004800
19.762500 0.999400
19.787700 0.994800
19.812900 0.992400
19.838100 0.992300
19.863200 0.993800
19.888400 0.995300
19.913600 0.996600
19.938800 1.004100
19.964000 1.016300
19.989200 1.036000
20.014400 1.027100
20.039500 1.020600
20.064700 1.024100
20.089900 1.019900
20.115100 1.004200
20.140300 1.004000
20.165500 1.007500
20.190700 1.015200
20.215900 1.027000
20.241000 1.041800
20.266200 1.060800
20.291400 1.083900
20.316600 1.161800
20.341800 1.081200
20.367000 1.080500
20.392200 1.078100
20.417300 1.074200
20.442500 1.063900
20.467700 1.046600
20.492900 1.027900
20.518100 1.011400
20.543300 0.993400
20.568500 0.973500
20.593700 0.954800
20.618800 0.939900
20.644000 0.927100
20.669200 0.920400
20.694400 0.915900
20.719600 0.911900
20.744800 0.907600
20.770000 0.902600
20.795100 0.896900
20.820300 0.890800
20.845500 0.884600
20.870700 0.882200
20.895900 0.885300
20.921100 0.889600
20.946300 0.895500
20.971500 0.891300
20.996600 0.881600
21.021800 0.873600
21.047000 0.868500
21.072200 0.863000
21.097400 0.872800
21.122600 0.858300
21.147800 0.854600
21.172900 0.860800
21.198100 0.867600
21.223300 0.874900
21.248500 0.884400
21.273700 0.896700
21.298900 0.910900
21.324100 0.926300
21.349200 0.945500
21.374400 0.973400
21.399600 1.000300
21.424800 1.015500
21.450000 1.021300
21.475200 1.028000
21.500400 1.024600
21.525600 1.036500
21.550700 1.064900
21.575900 1.069400
21.601100 1.077200
21.626300 1.087100
21.651500 1.098000
21.676700 1.108600
21.701900 1.118700
21.727000 1.128200
21.752200 1.136600
21.777400 1.144200
21.802600 1.151800
21.827800 1.162000
21.853000 1.169000
21.878200 1.171600
21.903400 1.180100
21.928500 1.198000
21.953700 1.214200
21.978900 1.234200
22.004100 1.265100
22.029300 1.325500
22.054500 1.362100
22.079700 1.463500
22.104800 1.520900
22.130000 1.565300
22.155200 1.606000
22.180400 1.727800
22.205600 1.782200
22.230800 1.774800
22.256000 1.710600
22.281200 1.601100
22.306300 1.506200
22.331500 1.446600
22.356700 1.420000
22.381900 1.398400
22.407100 1.376900
22.432300 1.352100
22.457500 1.329200
22.482600 1.307500
22.507800 1.283100
22.533000 1.254100
22.558200 1.229300
22.583400 1.208100
22.608600 1.193100
22.633800 1.178300
22.658900 1.161800
22.684100 1.147800
22.709300 1.134300
22.734500 1.132300
22.759700 1.138100
22.784900 1.145400
22.810100 1.155100
22.835300 1.167200
22.860400 1.176100
22.885600 1.185100
22.910800 1.196500
22.936000 1.199700
22.961200 1.184900
22.986400 1.149800
23.011600 1.114500
23.036700 1.081700
23.061900 1.058200
23.087100 1.053300
23.112300 1.067800
23.137500 1.070900
23.162700 1.084300
23.187900 1.098200
23.213100 1.110500
23.238200 1.123900
23.263400 1.139200
23.288600 1.157600
23.313800 1.180000
23.339000 1.185300
23.364200 1.143000
23.389400 1.127300
23.414500 1.115400
23.439700 1.103900
23.464900 1.091600
23.490100 1.078100
23.515300 1.069100
23.540500 1.062500
23.565700 1.053400
23.590900 1.041900
23.616000 1.029700
23.641200 1.017900
23.666400 1.010400
23.691600 1.006500
23.716800 1.006300
23.742000 1.009700
23.767200 1.012800
23.792300 1.016200
23.817500 1.021100
23.842700 1.032400
23.867900 1.051800
23.893100 1.096500
23.918300 1.147600
23.943500 1.165600
23.968600 1.164300
23.993800 1.077800
24.019000 1.047700
24.044200 1.032200
24.069400 1.025600
24.094600 1.020300
24.119800 1.014300
24.145000 1.007200
24.170100 0.998700
24.195300 0.987700
24.220500 0.971300
24.245700 0.943700
24.270900 0.906600
24.296100 0.870200
24.321300 0.835300
24.346400 0.803100
24.371600 0.786800
24.396800 0.776800
24.422000 0.772000
24.447200 0.773100
24.472400 0.759600
24.497600 0.740200
24.522800 0.717700
24.547900 0.700600
24.573100 0.684800
24.598300 0.672500
24.623500 0.663100
24.648700 0.658500
24.673900 0.661400
24.699100 0.664800
24.724200 0.659600
24.749400 0.654900
24.774600 0.652000
24.799800 0.651500
24.825000 0.654200
24.850200 0.659000
24.875400 0.688100
24.900600 0.678600
24.925700 0.670700
24.950900 0.673800
24.976100 0.684700
25.001300 0.701800
25.026500 0.722300
25.051700 0.740300
25.076900 0.757100
25.102000 0.772500
25.127200 0.787200
25.152400 0.804100
25.177600 0.816000
25.202800 0.824800
25.228000 0.834400
25.253200 0.843800
25.278300 0.899800
25.303500 0.874600
25.328700 0.885600
25.353900 0.883900
25.379100 0.889200
25.404300 0.902000
25.429500 0.916500
25.454700 0.932800
25.479800 0.951000
25.505000 0.970900
25.530200 0.991300
25.555400 1.010900
25.580600 1.035100
25.605800 1.064100
25.631000 1.098600
25.656100 1.134100
25.681300 1.169100
25.706500 1.238600
25.731700 1.318500
25.756900 1.347300
25.782100 1.336900
25.807300 1.340200
25.832500 1.346700
25.857600 1.346100
25.882800 1.340200
25.908000 1.349000
25.933200 1.371100
25.958400 1.400400
25.983600 1.446200
26.008800 1.504700
26.033900 1.547400
26.059100 1.586600
26.084300 1.624900
26.109500 1.658500
26.134700 1.674400
26.159900 1.661900
26.185100 1.647200
26.210300 1.630700
26.235400 1.613500
26.260600 1.596100
26.285800 1.562900
26.311000 1.519000
26.336200 1.475200
26.361400 1.468300
26.386600 1.501600
26.411700 1.537300
26.436900 1.557700
26.462100 1.569200
26.487300 1.579500
26.512500 1.596200
26.537700 1.626500
26.562900 1.656800
26.588000 1.669100
26.613200 1.653600
26.638400 1.640000
26.663600 1.640000
26.688800 1.650300
26.714000 1.666600
26.739200 1.657100
26.764400 1.705100
26.789500 1.892300
26.814700 1.756200
26.839900 1.728100
26.865100 1.725000
26.890300 1.724000
26.915500 1.717200
26.940700 1.703900
26.965800 1.685700
26.991000 1.666400
27.016200 1.651200
27.041400 1.640600
27.066600 1.643900
27.091800 1.645500
27.117000 1.641700
27.142200 1.687600
27.167300 1.599400
27.192500 1.570000
27.217700 1.568300
27.242900 1.565200
27.268100 1.551200
27.293300 1.526400
27.318500 1.513400
27.343600 1.509900
27.368800 1.510700
27.394000 1.513400
27.419200 1.524900
27.444400 1.555500
27.469600 1.620000
27.494800 1.621300
27.520000 1.591900
27.545100 1.605200
27.570300 1.625900
27.595500 1.652000
27.620700 1.686000
27.645900 1.729300
27.671100 1.784000
27.696300 1.864300
27.721400 1.962700
27.746600 2.079700
27.771800 2.228300
27.797000 2.435400
27.822200 2.815100
27.847400 3.494300
27.872600 4.752300
27.897700 99.020300
27.922900 14.239800
27.948100 13.845100
27.973300 15.417600
27.998500 31.328200
28.023700 5.164800
28.048900 3.909100
28.074100 3.241400
28.099200 2.799500
28.124400 2.524900
28.149600 2.343000
28.174800 2.222000
28.200000 2.120200
28.225200 2.038300
28.250400 1.976200
28.275500 1.922800
28.300700 1.860500
28.325900 1.780500
28.351100 1.683200
28.376300 1.624100
28.401500 1.586300
28.426700 1.531000
28.451900 1.452200
28.477000 1.376900
28.502200 1.303800
28.527400 1.216200
28.552600 1.159400
28.577800 1.118700
28.603000 1.077400
28.628200 1.043500
28.653300 1.014700
28.678500 0.990500
28.703700 0.974600
28.728900 0.960000
28.754100 0.944900
28.779300 0.929500
28.804500 0.915100
28.829700 0.904000
28.854800 0.888100
28.880000 0.871400
28.905200 0.856300
28.930400 0.835700
28.955600 0.806300
28.980800 0.788000
29.006000 0.768900
29.031100 0.750400
29.056300 0.732900
29.081500 0.716500
29.106700 0.703100
29.131900 0.692600
29.157100 0.683800
29.182300 0.676600
29.207400 0.669200
29.232600 0.660600
29.257800 0.649700
29.283000 0.638600
29.308200 0.626800
29.333400 0.609800
29.358600 0.591100
29.383800 0.577100
29.408900 0.570600
29.434100 0.567400
29.459300 0.568100
29.484500 0.572800
29.509700 0.570300
29.534900 0.547800
29.560100 0.548400
29.585200 0.547700
29.610400 0.548100
29.635600 0.550700
29.660800 0.555300
29.686000 0.559300
29.711200 0.560300
29.736400 0.556600
29.761600 0.551600
29.786700 0.548500
29.811900 0.546900
29.837100 0.542200
29.862300 0.532700
29.887500 0.520100
29.912700 0.515200
29.937900 0.513400
29.963000 0.514300
29.988200 0.517100
30.013400 0.521800
30.038600 0.529200
30.063800 0.545300
30.089000 0.558200
30.114200 0.570300
30.139400 0.584200
30.164500 0.601000
30.189700 0.614200
30.214900 0.634000
30.240100 0.657400
30.265300 0.679300
30.290500 0.700900
30.315700 0.724800
30.340800 0.748700
30.366000 0.771300
30.391200 0.793300
30.416400 0.813600
30.441600 0.815700
30.466800 0.819200
30.492000 0.828900
30.517100 0.840500
30.542300 0.854200
30.567500 0.869500
30.592700 0.885000
30.617900 0.900800
30.643100 0.916200
30.668300 0.931300
30.693500 0.945300
30.718600 0.957000
30.743800 0.964900
30.769000 0.972400
30.794200 0.979500
30.819400 0.985600
30.844600 1.010900
30.869800 0.991000
30.894900 0.997400
30.920100 1.002900
30.945300 1.015000
30.970500 1.030800
30.995700 1.045300
31.020900 1.054600
31.046100 1.055400
31.071300 1.046800
31.096400 1.030100
31.121600 1.015200
31.146800 1.005400
31.172000 0.999400
31.197200 0.994300
31.222400 0.987500
31.247600 0.989000
31.272700 1.002500
31.297900 0.996900
31.323100 0.985400
31.348300 0.976500
31.373500 0.973500
31.398700 0.980300
31.423900 0.994300
31.449100 1.010400
31.474200 1.023400
31.499400 1.033700
31.524600 1.050500
31.549800 1.083900
31.575000 1.084500
31.600200 1.099400
31.625400 1.120500
31.650500 1.136000
31.675700 1.141500
31.700900 1.138200
31.726100 1.127000
31.751300 1.124200
31.776500 1.133300
31.801700 1.140400
31.826800 1.145400
31.852000 1.149000
31.877200 1.151200
31.902400 1.150000
31.927600 1.148400
31.952800 1.148700
31.978000 1.152300
32.003200 1.147900
32.028300 1.141900
32.053500 1.137700
32.078700 1.134200
32.103900 1.132100
32.129100 1.135800
32.154300 1.129400
32.179500 1.151100
32.204600 1.145400
32.229800 1.139700
32.255000 1.132900
32.280200 1.125400
32.305400 1.120000
32.330600 1.116800
32.355800 1.120700
32.381000 1.125000
32.406100 1.129400
32.431300 1.135000
32.456500 1.142500
32.481700 1.152300
32.506900 1.162000
32.532100 1.174300
32.557300 1.185600
32.582400 1.197900
32.607600 1.220600
32.632800 1.237300
32.658000 1.247600
32.683200 1.259900
32.708400 1.272100
32.733600 1.278300
32.758800 1.301400
32.783900 1.310700
32.809100 1.312800
32.834300 1.311800
32.859500 1.312900
32.884700 1.319200
32.909900 1.343600
32.935100 1.392200
32.960200 1.454200
32.985400 1.542900
33.010600 1.537500
33.035800 1.539200
33.061000 1.568500
33.086200 1.656900
33.111400 1.701400
33.136500 1.738400
33.161700 1.738300
33.186900 1.699900
33.212100 1.564500
33.237300 1.504000
33.262500 1.457200
33.287700 1.423300
33.312900 1.381400
33.338000 1.371100
33.363200 1.364500
33.388400 1.363100
33.413600 1.366400
33.438800 1.371600
33.464000 1.371100
33.489200 1.365700
33.514300 1.356600
33.539500 1.352400
33.564700 1.360100
33.589900 1.381100
33.615100 1.385100
33.640300 1.379200
33.665500 1.360700
33.690700 1.332600
33.715800 1.318100
33.741000 1.310300
33.766200 1.309500
33.791400 1.307100
33.816600 1.306300
33.841800 1.315500
33.867000 1.319900
33.892100 1.324600
33.917300 1.329700
33.942500 1.331500
33.967700 1.341000
33.992900 1.360300
34.018100 1.388300
34.043300 1.355400
34.068500 1.291200
34.093600 1.255400
34.118800 1.243100
34.144000 1.266800
34.169200 1.304200
34.194400 1.296800
34.219600 1.309600
34.244800 1.326000
34.269900 1.350600
34.295100 1.391400
34.320300 1.441800
34.345500 1.488400
34.370700 1.528400
34.395900 1.563500
34.421100 1.587800
34.446200 1.599400
34.471400 1.616900
34.496600 1.568400
34.521800 1.618400
34.547000 1.664400
34.572200 1.706000
34.597400 1.746600
34.622600 1.785000
34.647700 1.817900
34.672900 1.843100
34.698100 1.870600
34.723300 1.878800
34.748500 1.899900
34.773700 1.929400
34.798900 1.963800
34.824000 2.004200
34.849200 2.063900
34.874400 2.125400
34.899600 2.150800
34.924800 2.170600
34.950000 2.210700
34.975200 2.200800
35.000400 2.087400
35.025500 1.984600
35.050700 1.909600
35.075900 1.802600
35.101100 1.673600
35.126300 1.608200
35.151500 1.556000
35.176700 1.505800
35.201800 1.493100
35.227000 1.483700
35.252200 1.485100
35.277400 1.507900
35.302600 1.537900
35.327800 1.555300
35.353000 1.570000
35.378200 1.590000
35.403300 1.608300
35.428500 1.641900
35.453700 1.644100
35.478900 1.652700
35.504100 1.661700
35.529300 1.666900
35.554500 1.671200
35.579600 1.661100
35.604800 1.652900
35.630000 1.664100
35.655200 1.667700
35.680400 1.659100
35.705600 1.643500
35.730800 1.617400
35.755900 1.582800
35.781100 1.558900
35.806300 1.541200
35.831500 1.527700
35.856700 1.515000
35.881900 1.505300
35.907100 1.492300
35.932300 1.478400
35.957400 1.482000
35.982600 1.531500
36.007800 1.542100
36.033000 1.549300
36.058200 1.567100
36.083400 1.609200
36.108600 1.649800
36.133700 1.655500
36.158900 1.603900
36.184100 1.549500
36.209300 1.516400
36.234500 1.502900
36.259700 1.499400
36.284900 1.499200
36.310100 1.497800
36.335200 1.495500
36.360400 1.527300
36.385600 1.503300
36.410800 1.500700
36.436000 1.501600
36.461200 1.496500
36.486400 1.499300
36.511500 1.496800
36.536700 1.491900
36.561900 1.496300
36.587100 1.514700
36.612300 1.544100
36.637500 1.576400
36.662700 1.598100
36.687900 1.612900
36.713000 1.625900
36.738200 1.630600
36.763400 1.670500
36.788600 1.612000
36.813800 1.583000
36.839000 1.558500
36.864200 1.535900
36.889300 1.513700
36.914500 1.491900
36.939700 1.471500
36.964900 1.452900
36.990100 1.435100
37.015300 1.419300
37.040500 1.394100
37.065600 1.368500
37.090800 1.357600
37.116000 1.355600
37.141200 1.365400
37.166400 1.361800
37.191600 1.364100
37.216800 1.356900
37.242000 1.359600
37.267100 1.365300
37.292300 1.372700
37.317500 1.380900
37.342700 1.390000
37.367900 1.406700
37.393100 1.428100
37.418300 1.444200
37.443400 1.452100
37.468600 1.457600
37.493800 1.463800
37.519000 1.491600
37.544200 1.524500
37.569400 1.554500
37.594600 1.583900
37.619800 1.612600
37.644900 1.639500
37.670100 1.664500
37.695300 1.678500
37.720500 1.679900
37.745700 1.694900
37.770900 1.718400
37.796100 1.741200
37.821200 1.749600
37.846400 1.757700
37.871600 1.770000
37.896800 1.792300
37.922000 1.824000
37.947200 1.850000
37.972400 1.866800
37.997600 1.885300
38.022700 1.905200
38.047900 1.924500
38.073100 1.944600
38.098300 1.961800
38.123500 1.978500
38.148700 2.012800
38.173900 2.025600
38.199000 2.009600
38.224200 2.020500
38.249400 2.043700
38.274600 2.072400
38.299800 2.104500
38.325000 2.153400
38.350200 2.216100
38.375300 2.296700
38.400500 2.408500
38.425700 2.546100
38.450900 2.756800
38.476100 2.975300
38.501300 3.287100
38.526500 3.826600
38.551700 3.865800
38.576800 4.387200
38.602000 5.132100
38.627200 6.467000
38.652400 9.951500
38.677600 20.720400
38.702800 28.859500
38.728000 11.714200
38.753100 11.034900
38.778300 15.764300
38.803500 16.212700
38.828700 12.135200
38.853900 8.159800
38.879100 5.714600
38.904300 4.327800
38.929500 3.570800
38.954600 2.996500
38.979800 2.537200
39.005000 2.078900
39.030200 1.867500
39.055400 1.677500
39.080600 1.475600
39.105800 1.325100
39.130900 1.215800
39.156100 1.115700
39.181300 1.029800
39.206500 0.959700
39.231700 0.898800
39.256900 0.843800
39.282100 0.776100
39.307300 0.718800
39.332400 0.675400
39.357600 0.636800
39.382800 0.601600
39.408000 0.571400
39.433200 0.560500
39.458400 0.548200
39.483600 0.499200
39.508700 0.451400
39.533900 0.431400
39.559100 0.410500
39.584300 0.393100
39.609500 0.377700
39.634700 0.363300
39.659900 0.349500
39.685000 0.336800
39.710200 0.325400
39.735400 0.323400
39.760600 0.345200
39.785800 0.324300
39.811000 0.278400
39.836200 0.243600
39.861400 0.232100
39.886500 0.223800
39.911700 0.215500
39.936900 0.207900
39.962100 0.200900
39.987300 0.194300
40.012500 0.187900
40.037700 0.181600
40.062800 0.175600
40.088000 0.169600
40.113200 0.163800
40.138400 0.158200
40.163600 0.152600
40.188800 0.148000
40.214000 0.144400
40.239200 0.140900
40.264300 0.137500
40.289500 0.134300
40.314700 0.131400
40.339900 0.128500
40.365100 0.126000
40.390300 0.123800
40.415500 0.121800
40.440600 0.120200
40.465800 0.118900
40.491000 0.117900
40.516200 0.116900
40.541400 0.115200
40.566600 0.112800
40.591800 0.110200
40.617000 0.107600
40.642100 0.105100
40.667300 0.102700
40.692500 0.100400
40.717700 0.098100
40.742900 0.095900
40.768100 0.093800
40.793300 0.091700
40.818400 0.089800
40.843600 0.087600
40.868800 0.084600
40.894000 0.081800
40.919200 0.079300
40.944400 0.077000
40.969600 0.075000
40.994700 0.073300
41.019900 0.071800
41.045100 0.070600
41.070300 0.069200
41.095500 0.067800
41.120700 0.066500
41.145900 0.065200
41.171100 0.064000
41.196200 0.062900
41.221400 0.061800
41.246600 0.060700
41.271800 0.059500
41.297000 0.058200
41.322200 0.057000
41.347400 0.055900
41.372500 0.054600
41.397700 0.053400
41.422900 0.052100
41.448100 0.050700
41.473300 0.049400
41.498500 0.048100
41.523700 0.046900
41.548900 0.045800
41.574000 0.044800
41.599200 0.043800
41.624400 0.042900
41.649600 0.042100
41.674800 0.041400
41.700000 0.040700
41.725200 0.040100
41.750300 0.039600
41.775500 0.039100
41.800700 0.038500
41.825900 0.037900
41.851100 0.037300
41.876300 0.036600
41.901500 0.035800
41.926700 0.034900
41.951800 0.034000
41.977000 0.033000
42.002200 0.032000
42.027400 0.030900
42.052600 0.029800
42.077800 0.028500
42.103000 0.027100
42.128100 0.025800
42.153300 0.024600
42.178500 0.023400
42.203700 0.022300
42.228900 0.021300
42.254100 0.020300
42.279300 0.019300
42.304400 0.018500
42.329600 0.017700
42.354800 0.017000
42.380000 0.016300
42.405200 0.015600
42.430400 0.014900
42.455600 0.014300
42.480800 0.013700
42.505900 0.013100
42.531100 0.012500
42.556300 0.011900
42.581500 0.011400
42.606700 0.010800
42.631900 0.010300
42.657100 0.009800
42.682200 0.009300
42.707400 0.008900
42.732600 0.008400
42.757800 0.007500
42.783000 0.006300
42.808200 0.005200
42.833400 0.004300
42.858600 0.003400
42.883700 0.002600
42.908900 0.001900
42.934100 0.001300
42.959300 0.000900
42.984500 0.000500
43.009700 0.000200
43.034900 0.000100
43.060000 0.000000
43.085200 0.000000
43.110400 0.000000
43.135600 0.000000
43.160800 0.000000
43.186000 0.000000
43.211200 0.000000
43.236400 0.000000
43.261500 0.000000
43.286700 0.000000
43.311900 0.000000
43.337100 0.000000
43.362300 0.000000
43.387500 0.000000
43.412700 0.000000
43.437800 0.000000
43.463000 0.000000
43.488200 0.000000
43.513400 0.000000
43.538600 0.000000
43.563800 0.000000
43.589000 0.000000
43.614100 0.000000
43.639300 0.000000
43.664500 0.000000
43.689700 0.000000
43.714900 0.000000
43.740100 0.000000
43.765300 0.000000
43.790500 0.000000
43.815600 0.000000
43.840800 0.000000
43.866000 0.000000
43.891200 0.000000
43.916400 0.000000
43.941600 0.000000
43.966800 0.000000
43.991900 0.000000
44.017100 0.000000
44.042300 0.000000
44.067500 0.000000
44.092700 0.000000
44.117900 0.000000
44.143100 0.000000
44.168300 0.000000
44.193400 0.000000
44.218600 0.000000
44.243800 0.000000
44.269000 0.000000
44.294200 0.000000
44.319400 0.000000
44.344600 0.000000
44.369700 0.000000
44.394900 0.000000
44.420100 0.000000
44.445300 0.000000
44.470500 0.000000
44.495700 0.000000
44.520900 0.000000
44.546100 0.000000
44.571200 0.000000
44.596400 0.000000
44.621600 0.000000
44.646800 0.000000
44.672000 0.000000
44.697200 0.000000
44.722400 0.000000
44.747500 0.000000
44.772700 0.000000
44.797900 0.000000
44.823100 0.000000
44.848300 0.000000
44.873500 0.000000
44.898700 0.000000
44.923800 0.000000
44.949000 0.000000
44.974200 0.000000
44.999400 0.000000
45.024600 0.000000
45.049800 0.000000
45.075000 0.000000
45.100200 0.000000
45.125300 0.000000
45.150500 0.000000
45.175700 0.000000
45.200900 0.000000
45.226100 0.000000
45.251300 0.000000
45.276500 0.000000
45.301600 0.000000
45.326800 0.000000
45.352000 0.000000
45.377200 0.000000
e
