set title 'mp-1183195 - Density of States'
set xlabel 'Energy (eV)'
set ylabel 'DOS (states/eV)'
set grid
set xrange [-10:10]
set yrange [0:3.048]
set xzeroaxis lt -1
set terminal png size 800,600
set output 'mp-1183195_dos_gnuplot.png'
plot '-' using 1:2 with lines title 'DOS'
-18.962500 0.000000
-18.932100 0.000000
-18.901600 0.000000
-18.871100 0.000000
-18.840600 0.000000
-18.810100 0.000000
-18.779600 0.000000
-18.749200 0.000000
-18.718700 0.000000
-18.688200 0.000000
-18.657700 0.000000
-18.627200 0.000000
-18.596700 0.000000
-18.566200 0.000000
-18.535800 0.000000
-18.505300 0.000000
-18.474800 0.000000
-18.444300 0.000000
-18.413800 0.000000
-18.383300 0.000000
-18.352800 0.000000
-18.322400 0.000000
-18.291900 0.000000
-18.261400 0.000000
-18.230900 0.000000
-18.200400 0.000000
-18.169900 0.000000
-18.139400 0.000000
-18.109000 0.000000
-18.078500 0.000000
-18.048000 0.000000
-18.017500 0.000000
-17.987000 0.000000
-17.956500 0.000000
-17.926100 0.000000
-17.895600 0.000000
-17.865100 0.000000
-17.834600 0.000000
-17.804100 0.000000
-17.773600 0.000000
-17.743100 0.000000
-17.712700 0.000000
-17.682200 0.000000
-17.651700 0.000000
-17.621200 0.000000
-17.590700 0.000000
-17.560200 0.000000
-17.529700 0.000000
-17.499300 0.000000
-17.468800 0.000000
-17.438300 0.000000
-17.407800 0.000000
-17.377300 0.000000
-17.346800 0.000000
-17.316400 0.000000
-17.285900 0.000000
-17.255400 0.000000
-17.224900 0.000000
-17.194400 0.000000
-17.163900 0.000000
-17.133400 0.000000
-17.103000 0.000000
-17.072500 0.000000
-17.042000 0.000000
-17.011500 0.000000
-16.981000 0.000000
-16.950500 0.000000
-16.920000 0.000000
-16.889600 0.000000
-16.859100 0.000000
-16.828600 0.000000
-16.798100 0.000000
-16.767600 0.000000
-16.737100 0.000000
-16.706600 0.000000
-16.676200 0.000000
-16.645700 0.000000
-16.615200 0.000000
-16.584700 0.000000
-16.554200 0.000000
-16.523700 0.000000
-16.493300 0.000000
-16.462800 0.000000
-16.432300 0.000000
-16.401800 0.000000
-16.371300 0.000000
-16.340800 0.001700
-16.310300 0.063100
-16.279900 1.127300
-16.249400 9.942200
-16.218900 43.542100
-16.188400 95.092100
-16.157900 103.831600
-16.127400 56.713000
-16.096900 15.469500
-16.066500 2.100000
-16.036000 0.141200
-16.005500 0.004700
-15.975000 0.000100
-15.944500 0.000000
-15.914000 0.000000
-15.883500 0.000000
-15.853100 0.000000
-15.822600 0.000000
-15.792100 0.000000
-15.761600 0.000000
-15.731100 0.000000
-15.700600 0.000000
-15.670200 0.000000
-15.639700 0.000000
-15.609200 0.000000
-15.578700 0.000000
-15.548200 0.000000
-15.517700 0.000000
-15.487200 0.000000
-15.456800 0.000000
-15.426300 0.000000
-15.395800 0.000000
-15.365300 0.000000
-15.334800 0.000000
-15.304300 0.000000
-15.273800 0.000000
-15.243400 0.000000
-15.212900 0.000000
-15.182400 0.000000
-15.151900 0.000000
-15.121400 0.000000
-15.090900 0.000000
-15.060500 0.000000
-15.030000 0.000000
-14.999500 0.000000
-14.969000 0.000000
-14.938500 0.000000
-14.908000 0.000000
-14.877500 0.000000
-14.847100 0.000000
-14.816600 0.000000
-14.786100 0.000000
-14.755600 0.000000
-14.725100 0.000000
-14.694600 0.000000
-14.664100 0.000000
-14.633700 0.000000
-14.603200 0.000000
-14.572700 0.000000
-14.542200 0.000000
-14.511700 0.000000
-14.481200 0.000000
-14.450700 0.000000
-14.420300 0.000000
-14.389800 0.000000
-14.359300 0.000000
-14.328800 0.000000
-14.298300 0.000000
-14.267800 0.000000
-14.237400 0.000000
-14.206900 0.000000
-14.176400 0.000000
-14.145900 0.000000
-14.115400 0.000000
-14.084900 0.000000
-14.054400 0.000000
-14.024000 0.000000
-13.993500 0.000000
-13.963000 0.000000
-13.932500 0.000000
-13.902000 0.000000
-13.871500 0.000000
-13.841000 0.000000
-13.810600 0.000000
-13.780100 0.000000
-13.749600 0.000000
-13.719100 0.000000
-13.688600 0.000000
-13.658100 0.000000
-13.627600 0.000000
-13.597200 0.000000
-13.566700 0.000000
-13.536200 0.000000
-13.505700 0.000000
-13.475200 0.000000
-13.444700 0.000000
-13.414300 0.000000
-13.383800 0.000000
-13.353300 0.000000
-13.322800 0.000000
-13.292300 0.000000
-13.261800 0.000000
-13.231300 0.000000
-13.200900 0.000000
-13.170400 0.000000
-13.139900 0.000000
-13.109400 0.000000
-13.078900 0.000000
-13.048400 0.000000
-13.017900 0.000000
-12.987500 0.000000
-12.957000 0.000000
-12.926500 0.000000
-12.896000 0.000000
-12.865500 0.000000
-12.835000 0.000000
-12.804600 0.000000
-12.774100 0.000000
-12.743600 0.000000
-12.713100 0.000000
-12.682600 0.000000
-12.652100 0.000000
-12.621600 0.000000
-12.591200 0.000000
-12.560700 0.000000
-12.530200 0.000000
-12.499700 0.000000
-12.469200 0.000000
-12.438700 0.000000
-12.408200 0.000000
-12.377800 0.000000
-12.347300 0.000000
-12.316800 0.000000
-12.286300 0.000000
-12.255800 0.000000
-12.225300 0.000000
-12.194800 0.000000
-12.164400 0.000000
-12.133900 0.000000
-12.103400 0.000000
-12.072900 0.000000
-12.042400 0.000000
-12.011900 0.000000
-11.981500 0.000000
-11.951000 0.000000
-11.920500 0.000000
-11.890000 0.000000
-11.859500 0.000000
-11.829000 0.000000
-11.798500 0.000000
-11.768100 0.000000
-11.737600 0.000000
-11.707100 0.000000
-11.676600 0.000000
-11.646100 0.000000
-11.615600 0.000000
-11.585100 0.000000
-11.554700 0.000000
-11.524200 0.000000
-11.493700 0.000000
-11.463200 0.000000
-11.432700 0.000000
-11.402200 0.000000
-11.371700 0.000000
-11.341300 0.000000
-11.310800 0.000000
-11.280300 0.000000
-11.249800 0.000000
-11.219300 0.000000
-11.188800 0.000000
-11.158400 0.000000
-11.127900 0.000000
-11.097400 0.000000
-11.066900 0.000000
-11.036400 0.000000
-11.005900 0.000000
-10.975400 0.000000
-10.945000 0.000000
-10.914500 0.000000
-10.884000 0.000000
-10.853500 0.000000
-10.823000 0.000000
-10.792500 0.000000
-10.762000 0.000000
-10.731600 0.000000
-10.701100 0.000000
-10.670600 0.000000
-10.640100 0.000000
-10.609600 0.000000
-10.579100 0.000000
-10.548700 0.000000
-10.518200 0.000000
-10.487700 0.000000
-10.457200 0.000000
-10.426700 0.000000
-10.396200 0.000000
-10.365700 0.000000
-10.335300 0.000000
-10.304800 0.000000
-10.274300 0.000000
-10.243800 0.000000
-10.213300 0.000000
-10.182800 0.000000
-10.152300 0.000000
-10.121900 0.000000
-10.091400 0.000000
-10.060900 0.000000
-10.030400 0.000000
-9.999900 0.000000
-9.969400 0.000000
-9.938900 0.000000
-9.908500 0.000000
-9.878000 0.000000
-9.847500 0.000000
-9.817000 0.000000
-9.786500 0.000000
-9.756000 0.000000
-9.725600 0.000000
-9.695100 0.000000
-9.664600 0.000000
-9.634100 0.000000
-9.603600 0.000000
-9.573100 0.000000
-9.542600 0.000000
-9.512200 0.000000
-9.481700 0.000000
-9.451200 0.000000
-9.420700 0.000000
-9.390200 0.000000
-9.359700 0.000000
-9.329200 0.000000
-9.298800 0.000000
-9.268300 0.000000
-9.237800 0.000000
-9.207300 0.000000
-9.176800 0.000000
-9.146300 0.000000
-9.115800 0.000000
-9.085400 0.000000
-9.054900 0.000000
-9.024400 0.000000
-8.993900 0.000000
-8.963400 0.000000
-8.932900 0.000000
-8.902500 0.000000
-8.872000 0.000000
-8.841500 0.000000
-8.811000 0.000000
-8.780500 0.000000
-8.750000 0.000000
-8.719500 0.000000
-8.689100 0.000000
-8.658600 0.000000
-8.628100 0.000000
-8.597600 0.000000
-8.567100 0.000000
-8.536600 0.000000
-8.506100 0.000000
-8.475700 0.000000
-8.445200 0.000000
-8.414700 0.000000
-8.384200 0.000000
-8.353700 0.000000
-8.323200 0.000000
-8.292800 0.000000
-8.262300 0.000000
-8.231800 0.000000
-8.201300 0.000000
-8.170800 0.000000
-8.140300 0.000000
-8.109800 0.000000
-8.079400 0.000000
-8.048900 0.000000
-8.018400 0.000000
-7.987900 0.000000
-7.957400 0.000000
-7.926900 0.000000
-7.896400 0.000000
-7.866000 0.000000
-7.835500 0.000000
-7.805000 0.000000
-7.774500 0.000000
-7.744000 0.000000
-7.713500 0.000000
-7.683000 0.000000
-7.652600 0.000000
-7.622100 0.000000
-7.591600 0.000000
-7.561100 0.000000
-7.530600 0.000000
-7.500100 0.000000
-7.469700 0.000000
-7.439200 0.000000
-7.408700 0.000000
-7.378200 0.000000
-7.347700 0.000000
-7.317200 0.000000
-7.286700 0.000000
-7.256300 0.000000
-7.225800 0.000000
-7.195300 0.000000
-7.164800 0.000000
-7.134300 0.000000
-7.103800 0.000000
-7.073300 0.000000
-7.042900 0.000000
-7.012400 0.000000
-6.981900 0.000000
-6.951400 0.000000
-6.920900 0.000000
-6.890400 0.000000
-6.859900 0.000000
-6.829500 0.000000
-6.799000 0.000000
-6.768500 0.000000
-6.738000 0.000000
-6.707500 0.000000
-6.677000 0.000000
-6.646600 0.000000
-6.616100 0.000000
-6.585600 0.000000
-6.555100 0.000000
-6.524600 0.000000
-6.494100 0.000000
-6.463600 0.000000
-6.433200 0.000000
-6.402700 0.000000
-6.372200 0.000000
-6.341700 0.000000
-6.311200 0.000000
-6.280700 0.000000
-6.250200 0.000000
-6.219800 0.000000
-6.189300 0.000000
-6.158800 0.000000
-6.128300 0.000000
-6.097800 0.000000
-6.067300 0.000000
-6.036900 0.000000
-6.006400 0.000000
-5.975900 0.000000
-5.945400 0.000000
-5.914900 0.000000
-5.884400 0.000000
-5.853900 0.000000
-5.823500 0.000000
-5.793000 0.000000
-5.762500 0.000000
-5.732000 0.000000
-5.701500 0.000000
-5.671000 0.000000
-5.640500 0.000000
-5.610100 0.000000
-5.579600 0.000000
-5.549100 0.000000
-5.518600 0.000000
-5.488100 0.000000
-5.457600 0.000000
-5.427100 0.000000
-5.396700 0.000000
-5.366200 0.000000
-5.335700 0.000000
-5.305200 0.000000
-5.274700 0.000000
-5.244200 0.000000
-5.213800 0.000000
-5.183300 0.000000
-5.152800 0.000000
-5.122300 0.000000
-5.091800 0.000000
-5.061300 0.000000
-5.030800 0.000000
-5.000400 0.000000
-4.969900 0.000000
-4.939400 0.000000
-4.908900 0.000000
-4.878400 0.000000
-4.847900 0.000000
-4.817400 0.000000
-4.787000 0.000000
-4.756500 0.000000
-4.726000 0.000000
-4.695500 0.000000
-4.665000 0.000000
-4.634500 0.000000
-4.604000 0.000000
-4.573600 0.000000
-4.543100 0.000000
-4.512600 0.000000
-4.482100 0.000000
-4.451600 0.000000
-4.421100 0.000000
-4.390700 0.000000
-4.360200 0.000400
-4.329700 0.003400
-4.299200 0.014900
-4.268700 0.039000
-4.238200 0.071100
-4.207700 0.116700
-4.177300 0.191000
-4.146800 0.234800
-4.116300 0.174000
-4.085800 0.112400
-4.055300 0.176800
-4.024800 0.307600
-3.994300 0.373800
-3.963900 0.382000
-3.933400 0.392600
-3.902900 0.324500
-3.872400 0.180200
-3.841900 0.144600
-3.811400 0.261700
-3.781000 0.401900
-3.750500 0.491000
-3.720000 0.590300
-3.689500 0.641900
-3.659000 0.469500
-3.628500 0.246000
-3.598000 0.230100
-3.567600 0.347500
-3.537100 0.465900
-3.506600 0.608200
-3.476100 0.683300
-3.445600 0.512700
-3.415100 0.306600
-3.384600 0.378700
-3.354200 0.603300
-3.323700 0.692500
-3.293200 0.662600
-3.262700 0.634600
-3.232200 0.538600
-3.201700 0.367100
-3.171200 0.372100
-3.140800 0.644500
-3.110300 0.880300
-3.079800 0.899100
-3.049300 0.877400
-3.018800 0.781200
-2.988300 0.543000
-2.957900 0.382900
-2.927400 0.385200
-2.896900 0.462400
-2.866400 0.653100
-2.835900 0.931900
-2.805400 1.004800
-2.774900 0.891800
-2.744500 0.955000
-2.714000 1.109600
-2.683500 1.106500
-2.653000 0.995000
-2.622500 0.814600
-2.592000 0.639800
-2.561500 0.700300
-2.531100 0.935100
-2.500600 0.965800
-2.470100 0.774300
-2.439600 0.673600
-2.409100 0.806900
-2.378600 1.070600
-2.348100 1.357300
-2.317700 1.522000
-2.287200 1.445600
-2.256700 1.203900
-2.226200 1.017400
-2.195700 1.017800
-2.165200 1.155100
-2.134800 1.350500
-2.104300 1.360900
-2.073800 1.146600
-2.043300 0.938200
-2.012800 0.823200
-1.982300 0.808900
-1.951800 0.916600
-1.921400 1.083200
-1.890900 1.123400
-1.860400 1.015700
-1.829900 0.813900
-1.799400 0.522600
-1.768900 0.331800
-1.738400 0.379000
-1.708000 0.506400
-1.677500 0.548300
-1.647000 0.529800
-1.616500 0.541500
-1.586000 0.614100
-1.555500 0.732700
-1.525100 0.770700
-1.494600 0.603400
-1.464100 0.378400
-1.433600 0.305200
-1.403100 0.334600
-1.372600 0.314700
-1.342100 0.249200
-1.311700 0.235900
-1.281200 0.338800
-1.250700 0.539800
-1.220200 0.666500
-1.189700 0.573300
-1.159200 0.368300
-1.128700 0.224700
-1.098300 0.182400
-1.067800 0.174100
-1.037300 0.150100
-1.006800 0.132700
-0.976300 0.113100
-0.945800 0.105500
-0.915300 0.154800
-0.884900 0.199800
-0.854400 0.180800
-0.823900 0.145700
-0.793400 0.107300
-0.762900 0.063600
-0.732400 0.079700
-0.702000 0.184100
-0.671500 0.297300
-0.641000 0.326700
-0.610500 0.326700
-0.580000 0.414600
-0.549500 0.574000
-0.519000 0.647000
-0.488600 0.660400
-0.458100 0.876300
-0.427600 1.061500
-0.397100 0.843700
-0.366600 0.469600
-0.336100 0.297600
-0.305600 0.334600
-0.275200 0.445100
-0.244700 0.732300
-0.214200 1.222100
-0.183700 1.478300
-0.153200 1.311300
-0.122700 1.074600
-0.092200 0.999600
-0.061800 0.947600
-0.031300 0.822300
-0.000800 0.809600
0.029700 0.994400
0.060200 1.021600
0.090700 0.906500
0.121100 1.017600
0.151600 1.041400
0.182100 0.751600
0.212600 0.653600
0.243100 0.954900
0.273600 1.206100
0.304100 1.237300
0.334500 1.177900
0.365000 0.913000
0.395500 0.674500
0.426000 0.814700
0.456500 1.133000
0.487000 1.378400
0.517500 1.575800
0.547900 1.614300
0.578400 1.306700
0.608900 0.912100
0.639400 0.739700
0.669900 0.832400
0.700400 1.135500
0.730800 1.384000
0.761300 1.311000
0.791800 1.083800
0.822300 1.001900
0.852800 1.073600
0.883300 1.036800
0.913800 0.821300
0.944200 0.760500
0.974700 1.114600
1.005200 1.612300
1.035700 1.752400
1.066200 1.525800
1.096700 1.222200
1.127200 0.983000
1.157600 0.855800
1.188100 0.853900
1.218600 0.957500
1.249100 1.047600
1.279600 1.061500
1.310100 1.068300
1.340600 1.058300
1.371000 0.994300
1.401500 1.033000
1.432000 1.199500
1.462500 1.208500
1.493000 0.986400
1.523500 0.793100
1.553900 0.896000
1.584400 1.241100
1.614900 1.490200
1.645400 1.360500
1.675900 1.002400
1.706400 0.815000
1.736900 0.891500
1.767300 1.032000
1.797800 1.011800
1.828300 0.855500
1.858800 0.775600
1.889300 0.874100
1.919800 1.129600
1.950300 1.384000
1.980700 1.437200
2.011200 1.233800
2.041700 1.041900
2.072200 1.108700
2.102700 1.316200
2.133200 1.378000
2.163700 1.273500
2.194100 1.369700
2.224600 1.651800
2.255100 1.596100
2.285600 1.124600
2.316100 0.788900
2.346600 0.928800
2.377000 1.281900
2.407500 1.410900
2.438000 1.256200
2.468500 0.990400
2.499000 0.914800
2.529500 1.140200
2.560000 1.310200
2.590400 1.091500
2.620900 0.745400
2.651400 0.761200
2.681900 1.174400
2.712400 1.674800
2.742900 1.859800
2.773400 1.621500
2.803800 1.313900
2.834300 1.151500
2.864800 1.069900
2.895300 1.115800
2.925800 1.319600
2.956300 1.424700
2.986700 1.309800
3.017200 1.204100
3.047700 1.283800
3.078200 1.600600
3.108700 1.858500
3.139200 1.710300
3.169700 1.409700
3.200100 1.244700
3.230600 1.229300
3.261100 1.229600
3.291600 0.997900
3.322100 0.662200
3.352600 0.556400
3.383100 0.643700
3.413500 0.781500
3.444000 1.093500
3.474500 1.510900
3.505000 1.568400
3.535500 1.288500
3.566000 1.254700
3.596500 1.466800
3.626900 1.584900
3.657400 1.553600
3.687900 1.507600
3.718400 1.611100
3.748900 1.880300
3.779400 2.126200
3.809800 2.163100
3.840300 1.999000
3.870800 1.780900
3.901300 1.661600
3.931800 1.545600
3.962300 1.351400
3.992800 1.139500
4.023200 0.865000
4.053700 0.585600
4.084200 0.509000
4.114700 0.703300
4.145200 0.998400
4.175700 1.274300
4.206200 1.494800
4.236600 1.596700
4.267100 1.715300
4.297600 1.781600
4.328100 1.619100
4.358600 1.501200
4.389100 1.543000
4.419600 1.607600
4.450000 1.764000
4.480500 1.992900
4.511000 2.153800
4.541500 2.074100
4.572000 1.740300
4.602500 1.427100
4.632900 1.285000
4.663400 1.190600
4.693900 1.092000
4.724400 1.050100
4.754900 1.128700
4.785400 1.348800
4.815900 1.580800
4.846300 1.603700
4.876800 1.336200
4.907300 1.129900
4.937800 1.309000
4.968300 1.656000
4.998800 1.873400
5.029300 1.867400
5.059700 1.431800
5.090200 0.845700
5.120700 0.807100
5.151200 1.291600
5.181700 1.625200
5.212200 1.557200
5.242600 1.472400
5.273100 1.658100
5.303600 2.031400
5.334100 2.229300
5.364600 1.926700
5.395100 1.386500
5.425600 1.048300
5.456000 0.956600
5.486500 1.106000
5.517000 1.412500
5.547500 1.583900
5.578000 1.535800
5.608500 1.470600
5.639000 1.540900
5.669400 1.599100
5.699900 1.426400
5.730400 1.176100
5.760900 1.141600
5.791400 1.560300
5.821900 2.217900
5.852400 2.433700
5.882800 2.095500
5.913300 1.588700
5.943800 1.115200
5.974300 0.867400
6.004800 1.090700
6.035300 1.510000
6.065700 1.667700
6.096200 1.643700
6.126700 1.531800
6.157200 1.248500
6.187700 1.147800
6.218200 1.441200
6.248700 1.806700
6.279100 1.891000
6.309600 1.624400
6.340100 1.243900
6.370600 1.058000
6.401100 1.175600
6.431600 1.430100
6.462100 1.703000
6.492500 1.872300
6.523000 1.640000
6.553500 1.213200
6.584000 0.958700
6.614500 0.900500
6.645000 1.155800
6.675500 1.601000
6.705900 1.790800
6.736400 1.653800
6.766900 1.456100
6.797400 1.427800
6.827900 1.621100
6.858400 1.878000
6.888800 1.986700
6.919300 1.825500
6.949800 1.613900
6.980300 1.631000
7.010800 1.830000
7.041300 1.980600
7.071800 2.020200
7.102200 1.925400
7.132700 1.623500
7.163200 1.363700
7.193700 1.411000
7.224200 1.527600
7.254700 1.442100
7.285200 1.400400
7.315600 1.525300
7.346100 1.653200
7.376600 1.850800
7.407100 2.035200
7.437600 1.965200
7.468100 1.779500
7.498600 1.792100
7.529000 1.860600
7.559500 1.569400
7.590000 1.093500
7.620500 0.875600
7.651000 0.956100
7.681500 1.232800
7.711900 1.537800
7.742400 1.648900
7.772900 1.652600
7.803400 1.791200
7.833900 2.030800
7.864400 2.146800
7.894900 2.077900
7.925300 1.940700
7.955800 1.755900
7.986300 1.595700
8.016800 1.675200
8.047300 1.845500
8.077800 1.814300
8.108300 1.662100
8.138700 1.630200
8.169200 1.708300
8.199700 1.717200
8.230200 1.638600
8.260700 1.547000
8.291200 1.712600
8.321600 2.065900
8.352100 1.893500
8.382600 1.370100
8.413100 1.416600
8.443600 1.974400
8.474100 2.511700
8.504600 2.771000
8.535000 2.494600
8.565500 1.852200
8.596000 1.464400
8.626500 1.380500
8.657000 1.292600
8.687500 1.375000
8.718000 1.797100
8.748400 2.216000
8.778900 2.243000
8.809400 2.014100
8.839900 1.843900
8.870400 1.614600
8.900900 1.233500
8.931400 0.903800
8.961800 0.776100
8.992300 0.875400
9.022800 1.208700
9.053300 1.649100
9.083800 2.041700
9.114300 2.381200
9.144700 2.583500
9.175200 2.513900
9.205700 2.401600
9.236200 2.252100
9.266700 1.851700
9.297200 1.461600
9.327700 1.368000
9.358100 1.560100
9.388600 1.931300
9.419100 2.193600
9.449600 2.012100
9.480100 1.456500
9.510600 1.133300
9.541100 1.428100
9.571500 1.957500
9.602000 2.232100
9.632500 2.351600
9.663000 2.465000
9.693500 2.262100
9.724000 1.769700
9.754500 1.431200
9.784900 1.434600
9.815400 1.749900
9.845900 2.061400
9.876400 2.066000
9.906900 1.864100
9.937400 1.759200
9.967800 1.744700
9.998300 1.715600
10.028800 1.669900
10.059300 1.654600
10.089800 1.909100
10.120300 2.058200
10.150800 1.844700
10.181200 1.763300
10.211700 1.854500
10.242200 1.833900
10.272700 1.887700
10.303200 2.318600
10.333700 2.802600
10.364200 2.848600
10.394600 2.623300
10.425100 2.521100
10.455600 2.401200
10.486100 2.181500
10.516600 2.111300
10.547100 2.164100
10.577500 2.181100
10.608000 2.150200
10.638500 2.041400
10.669000 1.908600
10.699500 1.849600
10.730000 1.697900
10.760500 1.407500
10.790900 1.222500
10.821400 1.390900
10.851900 1.767700
10.882400 1.774000
10.912900 1.405400
10.943400 1.328600
10.973900 1.674000
11.004300 1.939200
11.034800 1.889300
11.065300 1.704700
11.095800 1.649400
11.126300 1.840700
11.156800 2.037700
11.187300 1.969600
11.217700 1.722000
11.248200 1.596000
11.278700 1.707500
11.309200 1.859300
11.339700 2.029500
11.370200 2.405100
11.400600 2.703100
11.431100 2.777600
11.461600 2.796800
11.492100 2.562700
11.522600 1.981400
11.553100 1.500200
11.583600 1.724000
11.614000 2.482700
11.644500 3.096100
11.675000 3.218100
11.705500 3.001400
11.736000 2.728700
11.766500 2.515000
11.797000 2.429300
11.827400 2.341600
11.857900 2.201900
11.888400 2.121600
11.918900 2.060500
11.949400 1.952700
11.979900 1.843500
12.010400 1.859700
12.040800 2.018200
12.071300 2.167600
12.101800 2.260800
12.132300 2.134000
12.162800 1.910500
12.193300 1.987500
12.223700 1.963900
12.254200 1.560700
12.284700 1.395100
12.315200 1.610800
12.345700 1.679800
12.376200 1.531400
12.406700 1.664700
12.437100 1.957800
12.467600 1.887100
12.498100 1.769200
12.528600 1.962700
12.559100 2.144800
12.589600 2.303500
12.620100 2.575400
12.650500 2.664800
12.681000 2.501400
12.711500 2.325800
12.742000 2.195700
12.772500 2.080300
12.803000 1.926600
12.833400 1.739900
12.863900 1.749400
12.894400 2.223700
12.924900 2.747000
12.955400 2.711700
12.985900 2.293100
13.016400 2.104600
13.046800 2.303500
13.077300 2.303600
13.107800 1.920900
13.138300 1.792000
13.168800 2.119700
13.199300 2.572900
13.229800 3.009100
13.260200 3.384600
13.290700 3.475800
13.321200 3.186400
13.351700 2.828200
13.382200 2.616700
13.412700 2.335900
13.443200 1.892200
13.473600 1.579700
13.504100 1.675900
13.534600 2.174600
13.565100 2.379500
13.595600 1.924600
13.626100 1.480400
13.656500 1.426700
13.687000 1.493900
13.717500 1.643600
13.748000 1.971700
13.778500 2.245000
13.809000 2.464400
13.839500 2.846300
13.869900 3.037100
13.900400 2.728800
13.930900 2.208700
13.961400 1.721000
13.991900 1.338900
14.022400 1.197500
14.052900 1.337600
14.083300 1.548100
14.113800 1.706500
14.144300 1.842000
14.174800 1.947400
14.205300 1.978800
14.235800 1.885100
14.266300 1.870600
14.296700 2.056000
14.327200 2.243300
14.357700 2.183500
14.388200 2.118400
14.418700 2.349400
14.449200 2.610400
14.479600 2.726700
14.510100 3.111900
14.540600 3.719000
14.571100 3.773300
14.601600 3.055800
14.632100 2.215300
14.662600 1.685800
14.693000 1.349300
14.723500 1.128400
14.754000 1.186500
14.784500 1.565100
14.815000 1.945200
14.845500 2.019600
14.876000 1.985000
14.906400 2.306800
14.936900 2.869600
14.967400 2.913100
14.997900 2.274400
15.028400 1.730800
15.058900 1.551000
15.089300 1.412900
15.119800 1.415000
15.150300 1.524000
15.180800 1.592900
15.211300 1.870000
15.241800 2.311500
15.272300 2.591000
15.302700 2.608200
15.333200 2.427800
15.363700 2.222700
15.394200 2.016500
15.424700 1.858900
15.455200 1.813600
15.485700 1.921700
15.516100 2.142700
15.546600 2.331700
15.577100 2.373400
15.607600 2.177100
15.638100 2.006400
15.668600 2.080400
15.699100 2.146400
15.729500 2.086900
15.760000 2.147100
15.790500 2.431800
15.821000 2.741400
15.851500 2.739400
15.882000 2.230100
15.912400 1.672000
15.942900 1.600300
15.973400 1.863100
16.003900 1.991200
16.034400 1.714900
16.064900 1.287000
16.095400 1.333100
16.125800 2.143700
16.156300 3.039300
16.186800 2.963500
16.217300 2.185500
16.247800 1.815600
16.278300 1.966300
16.308800 2.125700
16.339200 2.208900
16.369700 2.375000
16.400200 2.560000
16.430700 2.626500
16.461200 2.529900
16.491700 2.252800
16.522200 2.045900
16.552600 2.006600
16.583100 1.939500
16.613600 1.818500
16.644100 1.870800
16.674600 2.273600
16.705100 2.597900
16.735500 2.359800
16.766000 1.956000
16.796500 1.823300
16.827000 1.884900
16.857500 1.854100
16.888000 1.661400
16.918500 1.561600
16.948900 1.649300
16.979400 1.787800
17.009900 1.745700
17.040400 1.526200
17.070900 1.537500
17.101400 1.855800
17.131900 2.156800
17.162300 2.231400
17.192800 2.240100
17.223300 2.566400
17.253800 3.181500
17.284300 3.233300
17.314800 2.470700
17.345200 1.797400
17.375700 1.730600
17.406200 2.170200
17.436700 2.779500
17.467200 3.104100
17.497700 3.011100
17.528200 2.769100
17.558600 2.626000
17.589100 2.718200
17.619600 3.011600
17.650100 3.074600
17.680600 2.711100
17.711100 2.383800
17.741600 2.361100
17.772000 2.316200
17.802500 2.092600
17.833000 2.130900
17.863500 2.559000
17.894000 2.868400
17.924500 2.937500
17.955000 2.960100
17.985400 2.865400
18.015900 2.478300
18.046400 1.893900
18.076900 1.483200
18.107400 1.524800
18.137900 1.951300
18.168300 2.301400
18.198800 2.406500
18.229300 2.470700
18.259800 2.564500
18.290300 2.453700
18.320800 2.148100
18.351300 1.969200
18.381700 2.040000
18.412200 2.231900
18.442700 2.400700
18.473200 2.619300
18.503700 2.833500
18.534200 2.984700
18.564700 3.232700
18.595100 3.225900
18.625600 2.933000
18.656100 2.915900
18.686600 2.983100
18.717100 2.635200
18.747600 2.165600
18.778100 2.279600
18.808500 2.981400
18.839000 3.407800
18.869500 3.009900
18.900000 2.419600
18.930500 2.295400
18.961000 2.531000
18.991400 2.740000
19.021900 2.638000
19.052400 2.474600
19.082900 2.457700
19.113400 2.340500
19.143900 2.105000
19.174400 1.929900
19.204800 1.882700
19.235300 2.116900
19.265800 2.698000
19.296300 3.106400
19.326800 2.925500
19.357300 2.745000
19.387800 3.013200
19.418200 3.363800
19.448700 3.260800
19.479200 2.552400
19.509700 1.990000
19.540200 2.147400
19.570700 2.497300
19.601100 2.465900
19.631600 2.286900
19.662100 2.336600
19.692600 2.560800
19.723100 2.854100
19.753600 3.152900
19.784100 3.276500
19.814500 3.254200
19.845000 3.233400
19.875500 3.082100
19.906000 2.822600
19.936500 2.719300
19.967000 2.935500
19.997500 3.217300
20.027900 3.168500
20.058400 2.784900
20.088900 2.293900
20.119400 1.988000
20.149900 2.076800
20.180400 2.329000
20.210900 2.268500
20.241300 2.052500
20.271800 2.031300
20.302300 2.119100
20.332800 2.117000
20.363300 1.914700
20.393800 1.731400
20.424200 1.775800
20.454700 2.096500
20.485200 2.778600
20.515700 3.284400
20.546200 2.995500
20.576700 2.311900
20.607200 1.986800
20.637600 1.982600
20.668100 2.031700
20.698600 2.032400
20.729100 1.964500
20.759600 2.076100
20.790100 2.331600
20.820600 2.228600
20.851000 1.841200
20.881500 1.861700
20.912000 2.312200
20.942500 2.595700
20.973000 2.298800
21.003500 1.864800
21.034000 1.983400
21.064400 2.450200
21.094900 2.836600
21.125400 3.022300
21.155900 2.758300
21.186400 2.373500
21.216900 2.451900
21.247300 2.702100
21.277800 2.684900
21.308300 2.493300
21.338800 2.399800
21.369300 2.326900
21.399800 2.329300
21.430300 2.622400
21.460700 2.783400
21.491200 2.625100
21.521700 2.541200
21.552200 2.636000
21.582700 2.724000
21.613200 2.763200
21.643700 2.799800
21.674100 2.802400
21.704600 2.775800
21.735100 2.618700
21.765600 2.300900
21.796100 2.191200
21.826600 2.414100
21.857000 2.606500
21.887500 2.790900
21.918000 3.160700
21.948500 3.494500
21.979000 3.528900
22.009500 3.515000
22.040000 3.591500
22.070400 3.405600
22.100900 2.967600
22.131400 2.628300
22.161900 2.399700
22.192400 2.109300
22.222900 1.897500
22.253400 2.030200
22.283800 2.565700
22.314300 3.132800
22.344800 3.469000
22.375300 3.710100
22.405800 3.681300
22.436300 3.354600
22.466800 3.101100
22.497200 2.849200
22.527700 2.455700
22.558200 2.219100
22.588700 2.244800
22.619200 2.325300
22.649700 2.332400
22.680100 2.306700
22.710600 2.311200
22.741100 2.542200
22.771600 3.013200
22.802100 3.254900
22.832600 2.930100
22.863100 2.405300
22.893500 2.076500
22.924000 1.862000
22.954500 1.931200
22.985000 2.443000
23.015500 3.003500
23.046000 3.311400
23.076500 3.345300
23.106900 3.215400
23.137400 3.114900
23.167900 2.901300
23.198400 2.502400
23.228900 2.252800
23.259400 2.375800
23.289900 2.754600
23.320300 2.798900
23.350800 2.555200
23.381300 2.652800
23.411800 2.975600
23.442300 3.056100
23.472800 2.850000
23.503200 2.653100
23.533700 2.478400
23.564200 2.412300
23.594700 2.816400
23.625200 3.388000
23.655700 3.452700
23.686200 2.961400
23.716600 2.458300
23.747100 2.255500
23.777600 2.186000
23.808100 2.209200
23.838600 2.437100
23.869100 2.688700
23.899600 2.797400
23.930000 2.807500
23.960500 2.822500
23.991000 3.028300
24.021500 3.283800
24.052000 3.195400
24.082500 2.594100
24.112900 2.032000
24.143400 2.160100
24.173900 2.618600
24.204400 2.814600
24.234900 2.874900
24.265400 3.110900
24.295900 3.477900
24.326300 3.734300
24.356800 3.580000
24.387300 3.146400
24.417800 2.906900
24.448300 2.908200
24.478800 2.858900
24.509300 2.646200
24.539700 2.749800
24.570200 3.207400
24.600700 3.301400
24.631200 3.134400
24.661700 2.936200
24.692200 2.623700
24.722700 2.490800
24.753100 2.517600
24.783600 2.372500
24.814100 1.960800
24.844600 1.639300
24.875100 1.775900
24.905600 2.132800
24.936000 2.331100
24.966500 2.424600
24.997000 2.409000
25.027500 2.128500
25.058000 1.803600
25.088500 1.828300
25.119000 2.332600
25.149400 2.911200
25.179900 3.204100
25.210400 3.394200
25.240900 3.691800
25.271400 3.875900
25.301900 3.491200
25.332400 2.783200
25.362800 2.152600
25.393300 1.816900
25.423800 1.962100
25.454300 2.118200
25.484800 1.977500
25.515300 2.047300
25.545800 2.395500
25.576200 2.619700
25.606700 2.636700
25.637200 2.602000
25.667700 2.746000
25.698200 3.174200
25.728700 3.470400
25.759100 3.242000
25.789600 2.759500
25.820100 2.512400
25.850600 2.857300
25.881100 3.384300
25.911600 3.652700
25.942100 3.812800
25.972500 3.894200
26.003000 3.644800
26.033500 3.011500
26.064000 2.453900
26.094500 2.334500
26.125000 2.309700
26.155500 2.128300
26.185900 1.962200
26.216400 1.811700
26.246900 1.732300
26.277400 2.019500
26.307900 2.360900
26.338400 2.294600
26.368800 2.104000
26.399300 2.240900
26.429800 2.676300
26.460300 2.888400
26.490800 2.601100
26.521300 2.236900
26.551800 2.239500
26.582200 2.502600
26.612700 2.731800
26.643200 2.699200
26.673700 2.423800
26.704200 2.358400
26.734700 2.827300
26.765200 3.561600
26.795600 3.882800
26.826100 3.728700
26.856600 3.664700
26.887100 3.459200
26.917600 2.879900
26.948100 2.425200
26.978600 2.354600
27.009000 2.459800
27.039500 2.604900
27.070000 2.842900
27.100500 3.147200
27.131000 3.363200
27.161500 3.451400
27.191900 3.548200
27.222400 3.629800
27.252900 3.634100
27.283400 3.406900
27.313900 2.957300
27.344400 2.902000
27.374900 3.530700
27.405300 4.188700
27.435800 3.941400
27.466300 2.824400
27.496800 1.935100
27.527300 1.678900
27.557800 1.786300
27.588300 2.199700
27.618700 2.530400
27.649200 2.553100
27.679700 2.691000
27.710200 3.018200
27.740700 3.290500
27.771200 3.400600
27.801700 3.310700
27.832100 3.167100
27.862600 3.195800
27.893100 3.410800
27.923600 3.420500
27.954100 3.111400
27.984600 2.857300
28.015000 2.967400
28.045500 3.594100
28.076000 4.359000
28.106500 4.562200
28.137000 3.938900
28.167500 2.907600
28.198000 2.197300
28.228400 2.009000
28.258900 2.140400
28.289400 2.441900
28.319900 2.795200
28.350400 3.200700
28.380900 3.500600
28.411400 3.335700
28.441800 2.907100
28.472300 2.635900
28.502800 2.505000
28.533300 2.680200
28.563800 3.076600
28.594300 3.100200
28.624700 2.922200
28.655200 2.950300
28.685700 3.023400
28.716200 2.921000
28.746700 2.450400
28.777200 1.898300
28.807700 1.859700
28.838100 2.401900
28.868600 3.045000
28.899100 3.350600
28.929600 3.410500
28.960100 3.356500
28.990600 3.219300
29.021100 3.053300
29.051500 3.101500
29.082000 3.295900
29.112500 2.977100
29.143000 2.288900
29.173500 2.024600
29.204000 2.161100
29.234500 2.254800
29.264900 2.344500
29.295400 2.723200
29.325900 3.178700
29.356400 3.219100
29.386900 2.962400
29.417400 2.800100
29.447800 2.629000
29.478300 2.493800
29.508800 2.714300
29.539300 2.919800
29.569800 2.899200
29.600300 2.850700
29.630800 2.694700
29.661200 2.608600
29.691700 2.752300
29.722200 3.029600
29.752700 3.355900
29.783200 3.350600
29.813700 3.166000
29.844200 3.255000
29.874600 3.362400
29.905100 3.245700
29.935600 3.220200
29.966100 3.518800
29.996600 3.638900
30.027100 3.221400
30.057600 2.760000
30.088000 2.682700
30.118500 2.809100
30.149000 2.748000
30.179500 2.390400
30.210000 2.049300
30.240500 2.193200
30.270900 2.630000
30.301400 2.937500
30.331900 3.188100
30.362400 3.493600
30.392900 3.628000
30.423400 3.404300
30.453900 3.074500
30.484300 2.922200
30.514800 2.903900
30.545300 3.012300
30.575800 3.264200
30.606300 3.413900
30.636800 3.301800
30.667300 3.148800
30.697700 3.140700
30.728200 3.276400
30.758700 3.476900
30.789200 3.549600
30.819700 3.358600
30.850200 2.870000
30.880700 2.302600
30.911100 1.900100
30.941600 1.916200
30.972100 2.479000
31.002600 3.015000
31.033100 3.211300
31.063600 3.503100
31.094000 3.818600
31.124500 3.679500
31.155000 3.495400
31.185500 3.732900
31.216000 3.868300
31.246500 3.380600
31.277000 2.820500
31.307400 2.887100
31.337900 3.060200
31.368400 2.611100
31.398900 2.005300
31.429400 2.029300
31.459900 2.581900
31.490400 3.304300
31.520800 3.790600
31.551300 3.700300
31.581800 3.315000
31.612300 2.796200
31.642800 2.278300
31.673300 2.127000
31.703700 2.170400
31.734200 2.320600
31.764700 2.767400
31.795200 3.256900
31.825700 3.494700
31.856200 3.578300
31.886700 3.439300
31.917100 3.007200
31.947600 2.643500
31.978100 2.765100
32.008600 3.198500
32.039100 3.293000
32.069600 2.976100
32.100100 3.028500
32.130500 3.622800
32.161000 4.044800
32.191500 3.942400
32.222000 3.573800
32.252500 3.195300
32.283000 2.646100
32.313500 2.185000
32.343900 2.681000
32.374400 3.704900
32.404900 4.010100
32.435400 3.991600
32.465900 4.067400
32.496400 3.728000
32.526800 3.288800
32.557300 3.177200
32.587800 2.985300
32.618300 2.532800
32.648800 2.256600
32.679300 2.464300
32.709800 2.964000
32.740200 3.286900
32.770700 3.186300
32.801200 3.008900
32.831700 2.991300
32.862200 2.908600
32.892700 2.587900
32.923200 2.230800
32.953600 2.170500
32.984100 2.317400
33.014600 2.724500
33.045100 3.290800
33.075600 3.553000
33.106100 3.543700
33.136600 3.361000
33.167000 2.986500
33.197500 2.820100
33.228000 3.107700
33.258500 3.336100
33.289000 3.251700
33.319500 3.018800
33.349900 2.676300
33.380400 2.339600
33.410900 2.014300
33.441400 1.696300
33.471900 1.497300
33.502400 1.417300
33.532900 1.608900
33.563300 2.162300
33.593800 2.784500
33.624300 3.276800
33.654800 3.506400
33.685300 3.331100
33.715800 2.911600
33.746300 2.539000
33.776700 2.374000
33.807200 2.422100
33.837700 2.529000
33.868200 2.632400
33.898700 2.790200
33.929200 2.773600
33.959600 2.530200
33.990100 2.443100
34.020600 2.506900
34.051100 2.414400
34.081600 2.236700
34.112100 2.295400
34.142600 2.537900
34.173000 2.725300
34.203500 2.920700
34.234000 3.051700
34.264500 3.027600
34.295000 2.953200
34.325500 2.854200
34.356000 2.818400
34.386400 2.712100
34.416900 2.483200
34.447400 2.529200
34.477900 2.771300
34.508400 2.911300
34.538900 3.043900
34.569400 3.282700
34.599800 3.223000
34.630300 2.734700
34.660800 2.273300
34.691300 1.874100
34.721800 1.367900
34.752300 0.918200
34.782700 0.743000
34.813200 0.850400
34.843700 1.182900
34.874200 1.778000
34.904700 2.378800
34.935200 2.547000
34.965700 2.249000
34.996100 1.912000
35.026600 2.043900
35.057100 2.361100
35.087600 2.258100
35.118100 2.019500
35.148600 1.982400
35.179100 1.887900
35.209500 1.621500
35.240000 1.419600
35.270500 1.553500
35.301000 2.032200
35.331500 2.320700
35.362000 2.133600
35.392500 1.935800
35.422900 2.160900
35.453400 2.475300
35.483900 2.310900
35.514400 1.984700
35.544900 2.028200
35.575400 2.270100
35.605800 2.306000
35.636300 2.107800
35.666800 2.110800
35.697300 2.551500
35.727800 2.905000
35.758300 2.640900
35.788800 2.055900
35.819200 1.731700
35.849700 1.822400
35.880200 2.155100
35.910700 2.495700
35.941200 2.701000
35.971700 2.750300
36.002200 2.646000
36.032600 2.319300
36.063100 1.976500
36.093600 2.097700
36.124100 2.569200
36.154600 2.691300
36.185100 2.180100
36.215500 1.592600
36.246000 1.458600
36.276500 1.583600
36.307000 1.731600
36.337500 2.097200
36.368000 2.570700
36.398500 2.597400
36.428900 2.283500
36.459400 1.998200
36.489900 1.700700
36.520400 1.455600
36.550900 1.247500
36.581400 0.994300
36.611900 0.883500
36.642300 1.002000
36.672800 1.197300
36.703300 1.390500
36.733800 1.544000
36.764300 1.549600
36.794800 1.510500
36.825300 1.589900
36.855700 1.599700
36.886200 1.490900
36.916700 1.442600
36.947200 1.495800
36.977700 1.555800
37.008200 1.597100
37.038600 1.871500
37.069100 2.238400
37.099600 1.990300
37.130100 1.362300
37.160600 1.215000
37.191100 1.526200
37.221600 1.728000
37.252000 1.503400
37.282500 1.082100
37.313000 0.751200
37.343500 0.589600
37.374000 0.707100
37.404500 1.063500
37.435000 1.387900
37.465400 1.428900
37.495900 1.163300
37.526400 0.698000
37.556900 0.311400
37.587400 0.226300
37.617900 0.459500
37.648400 0.826000
37.678800 0.976200
37.709300 0.861800
37.739800 0.703300
37.770300 0.660500
37.800800 0.757900
37.831300 0.831000
37.861700 0.786000
37.892200 0.628500
37.922700 0.402800
37.953200 0.284000
37.983700 0.292200
38.014200 0.298100
38.044700 0.239300
38.075100 0.131000
38.105600 0.090900
38.136100 0.190900
38.166600 0.308100
38.197100 0.262700
38.227600 0.125000
38.258100 0.060600
38.288500 0.137800
38.319000 0.339700
38.349500 0.467500
38.380000 0.421100
38.410500 0.376800
38.441000 0.357800
38.471400 0.292300
38.501900 0.275700
38.532400 0.352100
38.562900 0.374600
38.593400 0.315600
38.623900 0.264300
38.654400 0.215300
38.684800 0.132500
38.715300 0.054100
38.745800 0.025300
38.776300 0.026000
38.806800 0.020500
38.837300 0.008300
38.867800 0.001700
38.898200 0.000200
38.928700 0.000000
38.959200 0.000000
38.989700 0.000000
39.020200 0.000000
39.050700 0.000000
39.081200 0.000000
39.111600 0.000000
39.142100 0.000300
39.172600 0.002400
39.203100 0.010500
39.233600 0.022400
39.264100 0.023900
39.294500 0.012700
39.325000 0.003300
39.355500 0.000400
39.386000 0.000000
39.416500 0.000000
39.447000 0.000000
39.477500 0.000000
39.507900 0.000000
39.538400 0.000000
39.568900 0.000000
39.599400 0.000000
39.629900 0.000000
39.660400 0.000000
39.690900 0.000000
39.721300 0.000000
39.751800 0.000000
39.782300 0.000000
39.812800 0.000000
39.843300 0.000000
39.873800 0.000000
39.904300 0.000000
39.934700 0.000000
39.965200 0.000000
39.995700 0.000000
40.026200 0.000000
40.056700 0.000000
40.087200 0.000000
40.117600 0.000000
40.148100 0.000000
40.178600 0.000000
40.209100 0.000000
40.239600 0.000000
40.270100 0.000000
40.300600 0.000000
40.331000 0.000000
40.361500 0.000000
40.392000 0.000000
40.422500 0.000000
40.453000 0.000000
40.483500 0.000000
40.514000 0.000000
40.544400 0.000000
40.574900 0.000000
40.605400 0.000000
40.635900 0.000000
40.666400 0.000000
40.696900 0.000000
40.727300 0.000000
40.757800 0.000000
40.788300 0.000000
40.818800 0.000000
40.849300 0.000000
40.879800 0.000000
40.910300 0.000000
40.940700 0.000000
40.971200 0.000000
41.001700 0.000000
41.032200 0.000000
41.062700 0.000000
41.093200 0.000000
41.123700 0.000000
41.154100 0.000000
41.184600 0.000000
41.215100 0.000000
41.245600 0.000000
41.276100 0.000000
41.306600 0.000000
41.337100 0.000000
41.367500 0.000000
41.398000 0.000000
41.428500 0.000000
41.459000 0.000000
41.489500 0.000000
41.520000 0.000000
41.550400 0.000000
41.580900 0.000000
41.611400 0.000000
41.641900 0.000000
41.672400 0.000000
41.702900 0.000000
41.733400 0.000000
41.763800 0.000000
41.794300 0.000000
41.824800 0.000000
41.855300 0.000000
41.885800 0.000000
41.916300 0.000000
41.946800 0.000000
41.977200 0.000000
42.007700 0.000000
e
