set title 'mp-894 - Density of States'
set xlabel 'Energy (eV)'
set ylabel 'DOS (states/eV)'
set grid
set xrange [-10:10]
set yrange [0:17.202]
set xzeroaxis lt -1
set terminal png size 800,600
set output 'mp-894_dos_gnuplot.png'
plot '-' using 1:2 with lines title 'DOS'
-6.520900 0.000000
-6.501400 0.000000
-6.481900 0.000000
-6.462400 0.000000
-6.442900 0.000000
-6.423400 0.000000
-6.404000 0.000000
-6.384500 0.000000
-6.365000 0.000000
-6.345500 0.000000
-6.326000 0.000000
-6.306500 0.000000
-6.287100 0.000000
-6.267600 0.000000
-6.248100 0.000000
-6.228600 0.000000
-6.209100 0.000000
-6.189600 0.000000
-6.170200 0.000000
-6.150700 0.000000
-6.131200 0.000000
-6.111700 0.000000
-6.092200 0.000000
-6.072700 0.000000
-6.053300 0.000000
-6.033800 0.000000
-6.014300 0.000000
-5.994800 0.000000
-5.975300 0.000000
-5.955800 0.000000
-5.936400 0.000000
-5.916900 0.000000
-5.897400 0.000000
-5.877900 0.000000
-5.858400 0.000000
-5.838900 0.000000
-5.819500 0.000000
-5.800000 0.000000
-5.780500 0.000000
-5.761000 0.000000
-5.741500 0.000000
-5.722000 0.000000
-5.702600 0.000000
-5.683100 0.000000
-5.663600 0.000000
-5.644100 0.000000
-5.624600 0.000000
-5.605100 0.000000
-5.585700 0.000000
-5.566200 0.000000
-5.546700 0.000000
-5.527200 0.000000
-5.507700 0.000000
-5.488200 0.000000
-5.468800 0.000000
-5.449300 0.000000
-5.429800 0.000000
-5.410300 0.000000
-5.390800 0.000000
-5.371300 0.000000
-5.351900 0.000000
-5.332400 0.000000
-5.312900 0.000000
-5.293400 0.000000
-5.273900 0.000000
-5.254400 0.000000
-5.235000 0.000000
-5.215500 0.000000
-5.196000 0.000000
-5.176500 0.000000
-5.157000 0.000000
-5.137500 0.000000
-5.118100 0.000000
-5.098600 0.000000
-5.079100 0.000000
-5.059600 0.000000
-5.040100 0.000000
-5.020600 0.000000
-5.001200 0.000000
-4.981700 0.000000
-4.962200 0.000000
-4.942700 0.000000
-4.923200 0.000000
-4.903700 0.000000
-4.884300 0.000000
-4.864800 0.000000
-4.845300 0.000000
-4.825800 0.000000
-4.806300 0.000000
-4.786800 0.000000
-4.767400 0.000000
-4.747900 0.000000
-4.728400 0.004000
-4.708900 0.014600
-4.689400 0.029900
-4.669900 0.040000
-4.650500 0.043400
-4.631000 0.044700
-4.611500 0.048200
-4.592000 0.053800
-4.572500 0.059900
-4.553000 0.066300
-4.533600 0.071600
-4.514100 0.074500
-4.494600 0.075300
-4.475100 0.076900
-4.455600 0.079700
-4.436100 0.083000
-4.416700 0.086200
-4.397200 0.089400
-4.377700 0.092500
-4.358200 0.095600
-4.338700 0.098900
-4.319200 0.102500
-4.299800 0.106300
-4.280300 0.109100
-4.260800 0.110800
-4.241300 0.112400
-4.221800 0.114400
-4.202300 0.116800
-4.182900 0.119100
-4.163400 0.121300
-4.143900 0.123500
-4.124400 0.125600
-4.104900 0.127900
-4.085400 0.130600
-4.066000 0.133400
-4.046500 0.136200
-4.027000 0.139100
-4.007500 0.142000
-3.988000 0.144900
-3.968500 0.147800
-3.949100 0.150100
-3.929600 0.151700
-3.910100 0.153400
-3.890600 0.155200
-3.871100 0.157300
-3.851700 0.159500
-3.832200 0.161700
-3.812700 0.164000
-3.793200 0.166200
-3.773700 0.168600
-3.754200 0.171000
-3.734800 0.173500
-3.715300 0.176000
-3.695800 0.178500
-3.676300 0.181100
-3.656800 0.183600
-3.637300 0.186200
-3.617900 0.188800
-3.598400 0.191300
-3.578900 0.194100
-3.559400 0.197100
-3.539900 0.199800
-3.520400 0.202100
-3.501000 0.204500
-3.481500 0.207000
-3.462000 0.209700
-3.442500 0.212300
-3.423000 0.214900
-3.403500 0.217500
-3.384100 0.220100
-3.364600 0.222700
-3.345100 0.225500
-3.325600 0.228200
-3.306100 0.230900
-3.286600 0.233900
-3.267200 0.237100
-3.247700 0.240600
-3.228200 0.244200
-3.208700 0.247900
-3.189200 0.251600
-3.169700 0.255300
-3.150300 0.259100
-3.130800 0.263000
-3.111300 0.266900
-3.091800 0.270700
-3.072300 0.274400
-3.052800 0.278100
-3.033400 0.281900
-3.013900 0.285800
-2.994400 0.289800
-2.974900 0.294600
-2.955400 0.300000
-2.935900 0.305300
-2.916500 0.310900
-2.897000 0.316800
-2.877500 0.322800
-2.858000 0.328900
-2.838500 0.335200
-2.819000 0.341600
-2.799600 0.348200
-2.780100 0.355000
-2.760600 0.361800
-2.741100 0.368800
-2.721600 0.376800
-2.702100 0.386400
-2.682700 0.396900
-2.663200 0.407300
-2.643700 0.418000
-2.624200 0.429600
-2.604700 0.442200
-2.585200 0.456200
-2.565800 0.471600
-2.546300 0.487500
-2.526800 0.506000
-2.507300 0.529100
-2.487800 0.555800
-2.468300 0.584200
-2.448900 0.614100
-2.429400 0.646100
-2.409900 0.680700
-2.390400 0.739800
-2.370900 0.809100
-2.351400 1.108500
-2.332000 1.696300
-2.312500 2.332200
-2.293000 2.356000
-2.273500 2.625600
-2.254000 2.823300
-2.234500 2.990400
-2.215100 3.199200
-2.195600 3.626200
-2.176100 3.901200
-2.156600 4.318700
-2.137100 4.686500
-2.117600 5.166000
-2.098200 5.655100
-2.078700 6.075300
-2.059200 7.036200
-2.039700 8.245300
-2.020200 7.808500
-2.000700 8.074000
-1.981300 8.632600
-1.961800 9.809500
-1.942300 10.023100
-1.922800 10.472000
-1.903300 10.352500
-1.883800 9.767200
-1.864400 9.122100
-1.844900 8.676100
-1.825400 9.480700
-1.805900 11.007900
-1.786400 12.551400
-1.766900 11.350300
-1.747500 11.104400
-1.728000 10.679800
-1.708500 9.610900
-1.689000 9.119400
-1.669500 9.512200
-1.650000 10.766500
-1.630600 11.090400
-1.611100 11.208900
-1.591600 12.405100
-1.572100 13.317700
-1.552600 12.240300
-1.533100 13.389000
-1.513700 13.019900
-1.494200 13.375600
-1.474700 14.025500
-1.455200 12.722400
-1.435700 15.638400
-1.416200 13.433800
-1.396800 13.310200
-1.377300 8.687800
-1.357800 7.376100
-1.338300 12.532000
-1.318800 10.266600
-1.299300 9.105100
-1.279900 7.750100
-1.260400 6.311800
-1.240900 4.165700
-1.221400 3.101500
-1.201900 2.443900
-1.182400 1.919700
-1.163000 1.782700
-1.143500 1.676500
-1.124000 1.628200
-1.104500 1.602700
-1.085000 1.541600
-1.065500 1.491800
-1.046100 1.521500
-1.026600 1.452600
-1.007100 1.867200
-0.987600 0.717500
-0.968100 0.715200
-0.948600 0.714100
-0.929200 0.715100
-0.909700 0.718000
-0.890200 0.721300
-0.870700 0.726800
-0.851200 0.728500
-0.831700 0.728800
-0.812300 0.729600
-0.792800 0.731900
-0.773300 0.734900
-0.753800 0.741500
-0.734300 0.763800
-0.714800 0.778300
-0.695400 0.795800
-0.675900 0.825100
-0.656400 0.840600
-0.636900 0.846600
-0.617400 0.823600
-0.597900 0.811600
-0.578500 0.799500
-0.559000 0.790400
-0.539500 0.758000
-0.520000 0.759800
-0.500500 0.764100
-0.481000 0.766200
-0.461600 0.764700
-0.442100 0.762700
-0.422600 1.202100
-0.403100 0.964500
-0.383600 0.857000
-0.364100 0.863000
-0.344700 0.869800
-0.325200 0.867200
-0.305700 0.870300
-0.286200 0.878200
-0.266700 0.892600
-0.247200 0.906900
-0.227800 0.917100
-0.208300 0.927400
-0.188800 0.937200
-0.169300 0.947200
-0.149800 0.957000
-0.130300 0.981300
-0.110900 1.066600
-0.091400 1.121100
-0.071900 1.157600
-0.052400 1.397200
-0.032900 1.322000
-0.013400 1.271100
0.006000 1.241900
0.025500 1.229000
0.045000 1.214400
0.064500 1.196100
0.084000 1.202300
0.103500 1.297900
0.122900 1.239700
0.142400 1.256300
0.161900 1.297000
0.181400 1.377800
0.200900 1.326200
0.220400 1.238600
0.239800 1.209000
0.259300 1.166600
0.278800 1.049900
0.298300 1.051200
0.317800 1.078600
0.337300 1.101900
0.356700 1.168800
0.376200 1.268700
0.395700 1.341100
0.415200 1.444600
0.434700 1.227700
0.454200 0.935400
0.473600 0.831700
0.493100 0.832300
0.512600 0.819500
0.532100 0.574400
0.551600 0.623600
0.571100 0.656700
0.590500 0.692500
0.610000 0.723700
0.629500 0.766700
0.649000 0.812100
0.668500 0.858600
0.688000 0.912800
0.707400 0.980700
0.726900 1.080300
0.746400 1.174400
0.765900 1.258000
0.785400 1.365000
0.804900 1.504100
0.824300 1.607200
0.843800 1.752100
0.863300 1.928700
0.882800 1.927200
0.902300 2.034700
0.921800 2.096700
0.941200 2.161400
0.960700 2.207700
0.980200 2.289300
0.999700 2.382500
1.019200 2.424500
1.038700 2.499200
1.058100 2.550000
1.077600 2.592700
1.097100 2.644500
1.116600 2.725000
1.136100 2.860400
1.155600 2.943100
1.175000 3.003300
1.194500 3.097300
1.214000 3.210400
1.233500 3.064500
1.253000 2.807500
1.272500 2.610100
1.291900 2.506800
1.311400 2.463500
1.330900 2.403200
1.350400 2.375100
1.369900 2.350000
1.389400 2.325800
1.408800 2.305400
1.428300 2.298800
1.447800 2.305700
1.467300 2.339800
1.486800 2.384000
1.506300 2.492300
1.525700 2.540500
1.545200 2.531900
1.564700 2.510600
1.584200 2.531900
1.603700 2.558500
1.623200 2.565300
1.642600 2.605100
1.662100 2.627100
1.681600 2.654400
1.701100 2.673700
1.720600 2.674200
1.740100 2.706100
1.759500 2.695200
1.779000 2.656400
1.798500 2.630300
1.818000 2.635600
1.837500 2.668300
1.857000 2.686600
1.876400 2.694600
1.895900 2.710000
1.915400 2.784100
1.934900 2.906200
1.954400 3.018300
1.973900 2.901000
1.993300 2.920600
2.012800 2.895700
2.032300 2.888600
2.051800 2.888100
2.071300 2.742800
2.090800 2.700200
2.110200 2.792400
2.129700 2.387800
2.149200 2.303100
2.168700 2.256500
2.188200 2.210300
2.207700 2.235800
2.227100 2.289600
2.246600 2.265900
2.266100 2.329900
2.285600 2.484700
2.305100 2.490200
2.324600 2.459900
2.344000 2.485400
2.363500 2.570900
2.383000 2.530800
2.402500 2.475400
2.422000 2.288100
2.441500 2.196400
2.460900 2.164000
2.480400 2.134600
2.499900 2.104400
2.519400 2.032000
2.538900 1.982700
2.558400 1.938100
2.577800 1.897400
2.597300 1.871300
2.616800 1.846100
2.636300 1.810100
2.655800 1.786200
2.675300 1.718000
2.694700 1.686600
2.714200 1.612300
2.733700 1.572800
2.753200 1.519200
2.772700 1.474400
2.792200 1.458300
2.811600 1.453800
2.831100 1.467600
2.850600 1.475600
2.870100 1.515700
2.889600 1.547100
2.909100 1.793600
2.928500 1.759600
2.948000 1.823400
2.967500 1.927400
2.987000 1.881900
3.006500 1.861100
3.025900 1.925600
3.045400 1.957400
3.064900 1.960600
3.084400 1.987000
3.103900 2.048300
3.123400 2.193700
3.142800 2.160300
3.162300 2.330900
3.181800 2.590900
3.201300 2.914600
3.220800 3.244000
3.240300 3.319900
3.259700 3.439700
3.279200 3.533300
3.298700 3.615600
3.318200 3.684800
3.337700 3.739200
3.357200 3.739300
3.376600 3.781300
3.396100 3.787000
3.415600 3.815800
3.435100 3.829600
3.454600 3.828600
3.474100 3.903200
3.493500 3.810600
3.513000 3.742100
3.532500 3.570600
3.552000 3.489200
3.571500 3.439600
3.591000 3.430700
3.610400 3.405100
3.629900 3.313200
3.649400 3.248100
3.668900 3.166900
3.688400 3.199500
3.707900 3.323200
3.727300 3.545400
3.746800 3.715700
3.766300 3.946800
3.785800 4.034800
3.805300 4.132000
3.824800 4.335400
3.844200 5.375200
3.863700 5.505600
3.883200 3.513200
3.902700 2.883800
3.922200 2.450600
3.941700 2.160000
3.961100 2.018400
3.980600 1.929500
4.000100 1.868700
4.019600 1.826100
4.039100 1.760000
4.058600 1.689600
4.078000 1.662800
4.097500 1.611600
4.117000 1.517300
4.136500 1.435200
4.156000 1.428400
4.175500 1.426600
4.194900 1.428000
4.214400 1.377200
4.233900 1.338300
4.253400 1.298800
4.272900 1.261800
4.292400 1.233300
4.311800 1.216500
4.331300 1.207000
4.350800 1.188400
4.370300 1.158700
4.389800 1.125600
4.409300 1.127500
4.428700 1.175200
4.448200 1.050300
4.467700 0.925800
4.487200 0.790100
4.506700 0.721100
4.526200 0.708400
4.545600 0.695800
4.565100 0.686900
4.584600 0.678100
4.604100 0.667200
4.623600 0.652800
4.643100 0.644800
4.662500 0.638100
4.682000 0.631400
4.701500 0.625100
4.721000 0.619200
4.740500 0.613900
4.760000 0.608900
4.779400 0.604000
4.798900 0.599000
4.818400 0.594500
4.837900 0.590000
4.857400 0.585600
4.876900 0.581100
4.896300 0.576500
4.915800 0.571600
4.935300 0.567500
4.954800 0.563400
4.974300 0.559300
4.993800 0.558000
5.013200 0.553500
5.032700 0.548900
5.052200 0.544700
5.071700 0.541700
5.091200 0.536200
5.110700 0.531000
5.130100 0.525800
5.149600 0.519700
5.169100 0.515400
5.188600 0.511300
5.208100 0.508500
5.227600 0.505300
5.247000 0.501900
5.266500 0.497000
5.286000 0.494200
5.305500 0.491700
5.325000 0.489000
5.344500 0.486600
5.363900 0.484900
5.383400 0.482300
5.402900 0.479300
5.422400 0.473900
5.441900 0.468600
5.461400 0.463300
5.480800 0.458100
5.500300 0.452900
5.519800 0.447700
5.539300 0.449000
5.558800 0.442500
5.578300 0.449300
5.597700 0.460900
5.617200 0.383800
5.636700 0.382600
5.656200 0.381500
5.675700 0.380500
5.695200 0.379500
5.714600 0.378900
5.734100 0.378400
5.753600 0.378000
5.773100 0.377300
5.792600 0.377000
5.812100 0.376600
5.831500 0.376300
5.851000 0.385700
5.870500 0.387700
5.890000 0.389900
5.909500 0.384500
5.929000 0.385200
5.948400 0.386000
5.967900 0.386800
5.987400 0.387700
6.006900 0.388500
6.026400 0.390000
6.045900 0.391600
6.065300 0.392900
6.084800 0.394000
6.104300 0.395100
6.123800 0.396300
6.143300 0.399000
6.162800 0.401900
6.182200 0.404100
6.201700 0.406800
6.221200 0.410100
6.240700 0.413500
6.260200 0.416600
6.279700 0.420000
6.299100 0.423500
6.318600 0.428000
6.338100 0.433900
6.357600 0.438500
6.377100 0.444400
6.396600 0.455500
6.416000 0.467000
6.435500 0.478600
6.455000 0.490800
6.474500 0.504300
6.494000 0.521000
6.513500 0.545000
6.532900 0.579300
6.552400 0.618600
6.571900 0.670500
6.591400 0.793200
6.610900 0.969900
6.630400 1.443300
6.649800 1.141000
6.669300 1.075400
6.688800 1.058200
6.708300 0.948100
6.727800 0.900200
6.747300 0.865000
6.766700 0.837500
6.786200 0.819600
6.805700 0.806400
6.825200 0.794900
6.844700 0.783300
6.864200 0.768700
6.883600 0.758100
6.903100 0.749300
6.922600 0.738700
6.942100 0.723700
6.961600 0.710200
6.981100 0.698300
7.000500 0.686700
7.020000 0.674100
7.039500 0.664300
7.059000 0.656600
7.078500 0.649300
7.098000 0.641400
7.117400 0.634400
7.136900 0.628000
7.156400 0.622400
7.175900 0.617100
7.195400 0.611800
7.214900 0.606500
7.234300 0.601400
7.253800 0.596400
7.273300 0.591500
7.292800 0.587400
7.312300 0.583600
7.331800 0.580100
7.351200 0.576600
7.370700 0.573300
7.390200 0.569700
7.409700 0.565500
7.429200 0.561100
7.448700 0.556800
7.468100 0.552600
7.487600 0.548700
7.507100 0.544600
7.526600 0.540600
7.546100 0.536700
7.565600 0.532900
7.585000 0.530100
7.604500 0.528100
7.624000 0.526400
7.643500 0.524500
7.663000 0.522400
7.682500 0.519600
7.701900 0.516000
7.721400 0.512200
7.740900 0.508100
7.760400 0.504600
7.779900 0.501700
7.799400 0.499400
7.818800 0.497200
7.838300 0.495100
7.857800 0.493000
7.877300 0.490800
7.896800 0.488800
7.916300 0.486600
7.935700 0.484100
7.955200 0.480600
7.974700 0.477200
7.994200 0.474900
8.013700 0.472900
8.033200 0.471100
8.052600 0.469200
8.072100 0.468000
8.091600 0.465800
8.111100 0.463500
8.130600 0.461300
8.150100 0.459100
8.169500 0.457100
8.189000 0.455700
8.208500 0.454500
8.228000 0.453700
8.247500 0.453000
8.267000 0.484700
8.286400 0.494600
8.305900 0.505600
8.325400 0.517600
8.344900 0.531800
8.364400 0.490500
8.383900 0.457000
8.403300 0.442300
8.422800 0.413900
8.442300 0.408600
8.461800 0.403700
8.481300 0.393500
8.500800 0.392100
8.520200 0.391000
8.539700 0.390300
8.559200 0.487900
8.578700 0.445800
8.598200 0.458100
8.617700 0.454600
8.637100 0.467400
8.656600 0.476100
8.676100 0.478100
8.695600 0.486600
8.715100 0.484400
8.734600 0.489500
8.754000 0.495900
8.773500 0.500500
8.793000 0.507700
8.812500 0.510900
8.832000 0.524600
8.851500 0.536900
8.870900 0.603100
8.890400 0.670900
8.909900 0.709200
8.929400 0.688800
8.948900 0.706800
8.968400 0.723000
8.987800 0.732300
9.007300 0.739000
9.026800 0.744200
9.046300 0.752900
9.065800 0.759300
9.085300 0.758600
9.104700 0.765300
9.124200 0.761900
9.143700 0.750100
9.163200 0.745700
9.182700 0.741200
9.202200 0.736000
9.221600 0.730400
9.241100 0.723800
9.260600 0.717700
9.280100 0.741000
9.299600 0.737600
9.319100 0.734100
9.338500 0.719300
9.358000 0.714700
9.377500 0.712500
9.397000 0.715400
9.416500 0.714700
9.436000 0.715600
9.455400 0.717400
9.474900 0.719900
9.494400 0.722600
9.513900 0.738100
9.533400 0.744400
9.552900 0.817200
9.572300 0.742600
9.591800 0.745700
9.611300 0.747500
9.630800 0.749700
9.650300 0.752600
9.669800 0.755100
9.689200 0.758200
9.708700 0.757900
9.728200 0.754200
9.747700 0.747700
9.767200 0.741800
9.786700 0.734800
9.806100 0.729300
9.825600 0.723300
9.845100 0.714900
9.864600 0.703100
9.884100 0.699900
9.903600 0.701200
9.923000 0.701900
9.942500 0.701100
9.962000 0.701000
9.981500 0.695900
10.001000 0.686700
10.020400 0.672600
10.039900 0.665300
10.059400 0.661600
10.078900 0.662200
10.098400 0.665300
10.117900 0.670500
10.137300 0.674600
10.156800 0.677500
10.176300 0.677800
10.195800 0.676100
10.215300 0.674500
10.234800 0.673000
10.254200 0.673300
10.273700 0.675100
10.293200 0.676900
10.312700 0.678200
10.332200 0.679600
10.351700 0.678400
10.371100 0.678000
10.390600 0.678700
10.410100 0.679500
10.429600 0.681000
10.449100 0.697300
10.468600 0.708500
10.488000 0.720200
10.507500 0.744900
10.527000 0.761700
10.546500 0.778200
10.566000 0.789800
10.585500 0.797500
10.604900 0.878500
10.624400 0.822600
10.643900 0.822900
10.663400 0.820200
10.682900 0.811600
10.702400 0.804400
10.721800 0.758200
10.741300 0.744100
10.760800 0.742500
10.780300 0.738400
10.799800 0.732300
10.819300 0.730100
10.838700 0.730700
10.858200 0.733900
10.877700 0.735000
10.897200 0.735900
10.916700 0.739300
10.936200 0.742700
10.955600 0.745800
10.975100 0.743200
10.994600 0.744400
11.014100 0.724500
11.033600 0.713600
11.053100 0.708100
11.072500 0.703000
11.092000 0.695000
11.111500 0.690000
11.131000 0.685500
11.150500 0.681300
11.170000 0.677400
11.189400 0.668000
11.208900 0.662500
11.228400 0.658300
11.247900 0.655200
11.267400 0.652400
11.286900 0.649200
11.306300 0.645700
11.325800 0.641900
11.345300 0.638200
11.364800 0.635500
11.384300 0.633200
11.403800 0.631800
11.423200 0.630300
11.442700 0.633000
11.462200 0.636500
11.481700 0.636300
11.501200 0.633400
11.520700 0.630300
11.540100 0.627100
11.559600 0.627000
11.579100 0.629300
11.598600 0.631400
11.618100 0.633200
11.637600 0.634900
11.657000 0.636600
11.676500 0.638400
11.696000 0.640400
11.715500 0.636300
11.735000 0.637100
11.754500 0.638100
11.773900 0.639100
11.793400 0.639200
11.812900 0.640300
11.832400 0.642000
11.851900 0.644100
11.871400 0.646000
11.890800 0.647600
11.910300 0.647100
11.929800 0.645400
11.949300 0.643800
11.968800 0.642400
11.988300 0.642100
12.007700 0.641500
12.027200 0.640900
12.046700 0.640100
12.066200 0.635700
12.085700 0.634200
12.105200 0.632800
12.124600 0.631500
12.144100 0.629900
12.163600 0.628000
12.183100 0.626200
12.202600 0.623900
12.222100 0.621400
12.241500 0.618900
12.261000 0.616400
12.280500 0.614000
12.300000 0.611600
12.319500 0.609400
12.339000 0.607300
12.358400 0.609200
12.377900 0.607000
12.397400 0.604300
12.416900 0.638800
12.436400 0.662000
12.455900 0.665700
12.475300 0.676300
12.494800 0.684900
12.514300 0.689700
12.533800 0.672800
12.553300 0.663700
12.572800 0.664500
12.592200 0.668200
12.611700 0.672300
12.631200 0.676300
12.650700 0.680500
12.670200 0.682100
12.689700 0.683000
12.709100 0.681700
12.728600 0.680200
12.748100 0.679800
12.767600 0.680200
12.787100 0.680500
12.806600 0.679500
12.826000 0.680900
12.845500 0.680400
12.865000 0.680100
12.884500 0.680100
12.904000 0.680500
12.923500 0.684700
12.942900 0.688100
12.962400 0.692300
12.981900 0.695700
13.001400 0.696900
13.020900 0.691500
13.040400 0.689900
13.059800 0.689200
13.079300 0.726200
13.098800 0.695500
13.118300 0.696800
13.137800 0.698800
13.157300 0.700300
13.176700 0.700700
13.196200 0.700300
13.215700 0.700400
13.235200 0.704300
13.254700 0.711000
13.274200 0.715300
13.293600 0.716900
13.313100 0.720800
13.332600 0.725300
13.352100 0.733600
13.371600 0.738300
13.391100 0.739900
13.410500 0.741400
13.430000 0.742000
13.449500 0.757200
13.469000 0.761600
13.488500 0.761400
13.508000 0.761800
13.527400 0.762200
13.546900 0.762900
13.566400 0.765600
13.585900 0.768900
13.605400 0.771900
13.624900 0.774700
13.644300 0.784000
13.663800 0.787000
13.683300 0.787300
13.702800 0.781600
13.722300 0.780100
13.741800 0.781100
13.761200 0.783300
13.780700 0.784700
13.800200 0.787500
13.819700 0.790500
13.839200 0.794300
13.858700 0.799300
13.878100 0.806700
13.897600 0.813900
13.917100 0.819400
13.936600 0.823100
13.956100 0.829400
13.975600 0.839700
13.995000 0.845800
14.014500 0.851100
14.034000 0.858800
14.053500 0.865100
14.073000 0.867700
14.092500 0.865800
14.111900 0.864300
14.131400 0.859300
14.150900 0.856200
14.170400 0.854800
14.189900 0.857200
14.209400 0.860400
14.228800 0.863100
14.248300 0.865600
14.267800 0.867800
14.287300 0.870800
14.306800 0.873700
14.326300 0.876100
14.345700 0.876900
14.365200 0.878500
14.384700 0.882300
14.404200 0.895300
14.423700 0.884100
14.443200 0.886800
14.462600 0.893000
14.482100 0.904900
14.501600 0.915300
14.521100 0.925100
14.540600 0.933400
14.560100 0.942000
14.579500 0.951800
14.599000 0.969800
14.618500 0.983500
14.638000 1.021800
14.657500 1.054100
14.677000 1.089800
14.696400 1.135300
14.715900 1.167200
14.735400 1.076400
14.754900 1.054500
14.774400 1.033900
14.793900 1.003300
14.813300 0.992000
14.832800 0.982700
14.852300 0.972500
14.871800 0.959700
14.891300 0.943800
14.910800 0.916300
14.930200 0.903700
14.949700 0.892700
14.969200 0.885000
14.988700 0.879200
15.008200 0.874000
15.027700 0.874500
15.047100 0.867200
15.066600 0.861900
15.086100 0.860800
15.105600 0.860700
15.125100 0.862000
15.144600 0.864300
15.164000 0.869200
15.183500 0.875200
15.203000 0.899800
15.222500 0.908000
15.242000 0.916400
15.261500 0.908900
15.280900 0.909000
15.300400 0.924700
15.319900 0.941400
15.339400 0.939200
15.358900 0.934600
15.378400 0.929900
15.397800 0.925900
15.417300 0.924800
15.436800 0.923300
15.456300 0.922100
15.475800 0.921000
15.495300 0.907600
15.514700 0.899900
15.534200 0.896700
15.553700 0.893700
15.573200 0.892400
15.592700 0.890900
15.612200 0.888900
15.631600 0.882200
15.651100 0.875700
15.670600 0.870000
15.690100 0.865200
15.709600 0.859400
15.729100 0.853000
15.748500 0.848400
15.768000 0.845000
15.787500 0.840300
15.807000 0.836300
15.826500 0.832900
15.846000 0.830700
15.865400 0.828600
15.884900 0.829200
15.904400 0.827400
15.923900 0.825900
15.943400 0.829300
15.962900 0.838100
15.982300 0.827500
16.001800 0.827500
16.021300 0.826400
16.040800 0.825000
16.060300 0.824100
16.079800 0.823700
16.099200 0.827600
16.118700 0.831100
16.138200 0.822700
16.157700 0.823000
16.177200 0.824100
16.196700 0.827100
16.216100 0.832900
16.235600 0.840800
16.255100 0.848900
16.274600 0.860100
16.294100 0.867100
16.313600 0.869600
16.333000 0.870400
16.352500 0.871600
16.372000 0.873300
16.391500 0.874100
16.411000 0.865200
16.430500 0.860800
16.449900 0.858200
16.469400 0.857100
16.488900 0.856600
16.508400 0.857100
16.527900 0.858100
16.547400 0.858600
16.566800 0.859700
16.586300 0.861900
16.605800 0.864400
16.625300 0.865400
16.644800 0.866600
16.664300 0.867500
16.683700 0.867200
16.703200 0.868400
16.722700 0.872600
16.742200 0.878900
16.761700 0.886800
16.781200 0.898000
16.800600 0.915000
16.820100 0.930300
16.839600 0.912700
16.859100 0.896400
16.878600 0.884800
16.898100 0.880200
16.917500 0.878000
16.937000 0.877100
16.956500 0.882500
16.976000 0.891300
16.995500 0.898500
17.014900 0.899100
17.034400 0.900600
17.053900 0.906900
17.073400 0.911200
17.092900 0.912300
17.112400 0.912900
17.131800 0.914100
17.151300 0.913100
17.170800 0.916700
17.190300 0.919000
17.209800 0.921500
17.229300 0.923900
17.248700 0.926700
17.268200 0.930300
17.287700 0.929400
17.307200 0.930000
17.326700 0.928200
17.346200 0.929200
17.365600 0.929300
17.385100 0.926900
17.404600 0.920400
17.424100 0.917100
17.443600 0.911700
17.463100 0.906400
17.482500 0.900800
17.502000 0.897500
17.521500 0.897000
17.541000 0.897500
17.560500 0.896500
17.580000 0.895000
17.599400 0.892100
17.618900 0.889100
17.638400 0.885200
17.657900 0.880500
17.677400 0.875000
17.696900 0.868800
17.716300 0.863700
17.735800 0.859000
17.755300 0.861400
17.774800 0.865100
17.794300 0.869200
17.813800 0.873000
17.833200 0.876500
17.852700 0.880000
17.872200 0.886800
17.891700 0.890000
17.911200 0.892300
17.930700 0.893700
17.950100 0.894700
17.969600 0.894900
17.989100 0.895300
18.008600 0.895600
18.028100 0.900900
18.047600 0.900600
18.067000 0.899800
18.086500 0.898600
18.106000 0.897300
18.125500 0.896700
18.145000 0.895800
18.164500 0.893900
18.183900 0.889600
18.203400 0.888900
18.222900 0.889800
18.242400 0.890700
18.261900 0.891700
18.281400 0.892600
18.300800 0.893300
18.320300 0.893700
18.339800 0.894100
18.359300 0.894100
18.378800 0.891600
18.398300 0.888200
18.417700 0.886500
18.437200 0.884400
18.456700 0.882500
18.476200 0.880700
18.495700 0.879300
18.515200 0.878100
18.534600 0.876500
18.554100 0.875300
18.573600 0.874400
18.593100 0.874100
18.612600 0.873800
18.632100 0.873500
18.651500 0.883700
18.671000 0.874600
18.690500 0.864300
18.710000 0.871500
18.729500 0.860600
18.749000 0.862700
18.768400 0.865600
18.787900 0.866800
18.807400 0.862000
18.826900 0.855800
18.846400 0.848600
18.865900 0.841900
18.885300 0.841800
18.904800 0.842800
18.924300 0.848500
18.943800 0.847900
18.963300 0.848700
18.982800 0.851900
19.002200 0.849300
19.021700 0.843900
19.041200 0.841900
19.060700 0.845400
19.080200 0.849500
19.099700 0.850500
19.119100 0.842600
19.138600 0.845600
19.158100 0.851600
19.177600 0.859800
19.197100 0.876900
19.216600 0.887300
19.236000 0.897900
19.255500 0.907400
19.275000 0.917900
19.294500 0.928400
19.314000 0.935900
19.333500 0.939000
19.352900 0.941100
19.372400 0.939500
19.391900 0.941100
19.411400 0.942600
19.430900 0.943100
19.450400 0.942900
19.469800 0.937600
19.489300 0.939200
19.508800 0.944200
19.528300 0.949400
19.547800 0.951400
19.567300 0.955700
19.586700 0.961400
19.606200 0.972100
19.625700 0.981400
19.645200 0.981100
19.664700 0.982200
19.684200 0.979700
19.703600 0.968700
19.723100 0.951900
19.742600 0.935900
19.762100 0.923000
19.781600 0.905800
19.801100 0.894600
19.820500 0.885700
19.840000 0.878100
19.859500 0.871300
19.879000 0.865500
19.898500 0.857600
19.918000 0.847600
19.937400 0.841100
19.956900 0.834900
19.976400 0.834900
19.995900 0.830000
20.015400 0.828600
20.034900 0.827300
20.054300 0.825700
20.073800 0.824800
20.093300 0.824300
20.112800 0.824800
20.132300 0.824900
20.151800 0.825200
20.171200 0.825400
20.190700 0.824200
20.210200 0.824900
20.229700 0.825000
20.249200 0.825300
20.268700 0.825000
20.288100 0.828700
20.307600 0.831900
20.327100 0.835700
20.346600 0.840500
20.366100 0.845500
20.385600 0.850200
20.405000 0.856700
20.424500 0.862900
20.444000 0.872100
20.463500 0.878300
20.483000 0.884100
20.502500 0.889800
20.521900 0.898200
20.541400 0.907100
20.560900 0.918800
20.580400 0.934800
20.599900 0.934800
20.619400 0.946900
20.638800 0.959600
20.658300 0.969100
20.677800 0.979800
20.697300 0.993500
20.716800 1.006900
20.736300 1.019100
20.755700 1.029100
20.775200 1.036200
20.794700 1.055300
20.814200 1.093700
20.833700 1.109700
20.853200 1.132500
20.872600 1.142300
20.892100 1.147200
20.911600 1.143500
20.931100 1.141300
20.950600 1.140000
20.970100 1.135300
20.989500 1.124200
21.009000 1.093300
21.028500 1.058000
21.048000 1.065800
21.067500 1.059900
21.087000 1.055900
21.106400 1.056000
21.125900 1.056400
21.145400 1.055100
21.164900 1.046300
21.184400 1.043900
21.203900 1.034900
21.223300 1.023200
21.242800 1.011100
21.262300 0.998400
21.281800 0.992600
21.301300 0.984700
21.320800 0.978300
21.340200 0.974600
21.359700 0.971000
21.379200 0.969200
21.398700 0.971800
21.418200 0.973200
21.437700 0.970400
21.457100 0.958700
21.476600 0.951200
21.496100 0.950400
21.515600 0.946400
21.535100 0.943700
21.554600 0.939100
21.574000 0.933800
21.593500 0.935900
21.613000 0.931600
21.632500 0.921200
21.652000 0.915800
21.671500 0.902800
21.690900 0.893400
21.710400 0.883200
21.729900 0.873000
21.749400 0.864200
21.768900 0.856500
21.788400 0.850900
21.807800 0.847000
21.827300 0.842200
21.846800 0.839700
21.866300 0.852300
21.885800 0.858000
21.905300 0.859600
21.924700 0.857500
21.944200 0.852900
21.963700 0.848000
21.983200 0.844900
22.002700 0.846400
22.022200 0.843700
22.041600 0.836100
22.061100 0.829900
22.080600 0.827300
22.100100 0.825800
22.119600 0.822900
22.139100 0.815400
22.158500 0.811100
22.178000 0.812900
22.197500 0.818200
22.217000 0.824200
22.236500 0.831100
22.256000 0.839200
22.275400 0.847400
22.294900 0.855000
22.314400 0.862500
22.333900 0.871100
22.353400 0.881800
22.372900 0.884800
22.392300 0.881800
22.411800 0.878200
22.431300 0.896100
22.450800 0.885900
22.470300 0.866900
22.489800 0.851900
22.509200 0.839900
22.528700 0.832000
22.548200 0.850200
22.567700 0.852100
22.587200 0.812800
22.606700 0.787500
22.626100 0.773000
22.645600 0.762900
22.665100 0.755900
22.684600 0.751000
22.704100 0.748200
22.723600 0.745100
22.743000 0.743300
22.762500 0.742300
22.782000 0.741000
22.801500 0.739400
22.821000 0.738300
22.840500 0.737000
22.859900 0.735800
22.879400 0.735200
22.898900 0.734100
22.918400 0.733600
22.937900 0.733200
22.957400 0.732900
22.976800 0.732600
22.996300 0.730900
23.015800 0.728100
23.035300 0.725700
23.054800 0.723900
23.074300 0.723900
23.093700 0.719100
23.113200 0.711500
23.132700 0.709500
23.152200 0.709500
23.171700 0.709700
23.191200 0.710600
23.210600 0.712400
23.230100 0.714600
23.249600 0.719700
23.269100 0.720800
23.288600 0.720900
23.308100 0.721500
23.327500 0.725100
23.347000 0.736600
23.366500 0.754800
23.386000 0.771400
23.405500 0.783700
23.425000 0.798100
23.444400 0.817000
23.463900 0.837600
23.483400 0.860500
23.502900 0.881100
23.522400 0.904700
23.541900 0.929900
23.561300 0.953000
23.580800 0.976200
23.600300 1.009300
23.619800 1.043800
23.639300 1.075900
23.658800 1.116800
23.678200 1.130600
23.697700 1.141600
23.717200 1.145700
23.736700 1.146200
23.756200 1.149000
23.775700 1.156000
23.795100 1.172800
23.814600 1.204500
23.834100 1.242000
23.853600 1.258500
23.873100 1.263900
23.892600 1.276200
23.912000 1.309500
23.931500 1.319600
23.951000 1.326200
23.970500 1.328600
23.990000 1.333500
24.009400 1.348100
24.028900 1.346600
24.048400 1.357600
24.067900 1.368900
24.087400 1.375600
24.106900 1.391500
24.126300 1.419800
24.145800 1.451500
24.165300 1.510600
24.184800 1.500100
24.204300 1.452000
24.223800 1.403800
24.243200 1.367700
24.262700 1.336600
24.282200 1.305600
24.301700 1.272000
24.321200 1.246200
24.340700 1.224700
24.360100 1.213600
24.379600 1.203700
24.399100 1.196700
24.418600 1.190000
24.438100 1.181300
24.457600 1.171300
24.477000 1.165000
24.496500 1.159800
24.516000 1.154500
24.535500 1.149400
24.555000 1.148600
24.574500 1.155500
24.593900 1.165900
24.613400 1.167200
24.632900 1.142000
24.652400 1.117000
24.671900 1.103100
24.691400 1.088100
24.710800 1.076000
24.730300 1.068600
24.749800 1.064600
24.769300 1.066000
24.788800 1.065300
24.808300 1.063200
24.827700 1.062300
24.847200 1.063000
24.866700 1.064600
24.886200 1.067300
24.905700 1.075000
24.925200 1.086100
24.944600 1.099900
24.964100 1.105900
24.983600 1.105700
25.003100 1.089200
25.022600 1.094200
25.042100 1.098900
25.061500 1.113400
25.081000 1.136200
25.100500 1.140700
25.120000 1.150200
25.139500 1.154700
25.159000 1.161400
25.178400 1.168500
25.197900 1.185200
25.217400 1.199600
25.236900 1.212500
25.256400 1.214100
25.275900 1.217100
25.295300 1.225100
25.314800 1.227000
25.334300 1.226100
25.353800 1.225000
25.373300 1.225600
25.392800 1.220500
25.412200 1.221700
25.431700 1.218400
25.451200 1.222600
25.470700 1.224900
25.490200 1.249300
25.509700 1.273800
25.529100 1.308800
25.548600 1.365300
25.568100 1.448500
25.587600 1.451500
25.607100 1.407600
25.626600 1.360300
25.646000 1.343900
25.665500 1.298300
25.685000 1.178000
25.704500 1.137500
25.724000 1.106500
25.743500 1.080900
25.762900 1.058100
25.782400 1.047300
25.801900 1.028400
25.821400 1.011200
25.840900 0.996200
25.860400 0.984100
25.879800 0.972500
25.899300 0.960500
25.918800 0.946200
25.938300 0.933300
25.957800 0.929100
25.977300 0.924400
25.996700 0.902000
26.016200 0.888100
26.035700 0.882200
26.055200 0.881800
26.074700 0.877000
26.094200 0.870700
26.113600 0.868200
26.133100 0.868700
26.152600 0.883400
26.172100 0.876900
26.191600 0.867200
26.211100 0.861600
26.230500 0.858300
26.250000 0.857800
26.269500 0.853900
26.289000 0.849900
26.308500 0.871400
26.328000 0.900000
26.347400 0.837500
26.366900 0.834900
26.386400 0.825300
26.405900 0.824200
26.425400 0.812500
26.444900 0.800800
26.464300 0.796400
26.483800 0.792200
26.503300 0.780100
26.522800 0.767900
26.542300 0.763100
26.561800 0.758400
26.581200 0.750800
26.600700 0.745600
26.620200 0.742300
26.639700 0.736400
26.659200 0.728300
26.678700 0.717000
26.698100 0.705000
26.717600 0.691700
26.737100 0.684700
26.756600 0.679500
26.776100 0.682300
26.795600 0.674100
26.815000 0.651000
26.834500 0.631000
26.854000 0.608400
26.873500 0.590200
26.893000 0.574000
26.912500 0.551800
26.931900 0.536400
26.951400 0.521100
26.970900 0.504700
26.990400 0.484900
27.009900 0.465800
27.029400 0.450400
27.048800 0.437800
27.068300 0.423900
27.087800 0.411500
27.107300 0.399600
27.126800 0.387300
27.146300 0.373100
27.165700 0.356500
27.185200 0.337900
27.204700 0.320000
27.224200 0.302000
27.243700 0.290000
27.263200 0.280500
27.282600 0.271700
27.302100 0.262500
27.321600 0.254700
27.341100 0.247800
27.360600 0.241800
27.380100 0.236300
27.399500 0.231200
27.419000 0.226500
27.438500 0.222200
27.458000 0.218300
27.477500 0.214600
27.497000 0.211100
27.516400 0.207400
27.535900 0.203600
27.555400 0.199900
27.574900 0.197600
27.594400 0.195400
27.613900 0.192700
27.633300 0.190700
27.652800 0.188600
27.672300 0.186500
27.691800 0.184400
27.711300 0.182300
27.730800 0.179800
27.750200 0.177800
27.769700 0.175700
27.789200 0.173600
27.808700 0.171500
27.828200 0.169200
27.847700 0.166900
27.867100 0.164700
27.886600 0.162500
27.906100 0.160300
27.925600 0.158300
27.945100 0.156400
27.964600 0.154400
27.984000 0.152500
28.003500 0.150700
28.023000 0.148900
28.042500 0.147100
28.062000 0.145300
28.081500 0.143600
28.100900 0.142000
28.120400 0.140400
28.139900 0.138700
28.159400 0.137200
28.178900 0.135600
28.198400 0.134000
28.217800 0.132500
28.237300 0.131000
28.256800 0.129600
28.276300 0.128100
28.295800 0.126700
28.315300 0.125300
28.334700 0.124000
28.354200 0.122700
28.373700 0.120800
28.393200 0.119500
28.412700 0.118200
28.432200 0.116400
28.451600 0.115200
28.471100 0.114000
28.490600 0.112800
28.510100 0.111100
28.529600 0.109800
28.549100 0.108600
28.568500 0.107500
28.588000 0.106400
28.607500 0.105300
28.627000 0.104200
28.646500 0.103300
28.666000 0.102400
28.685400 0.101600
28.704900 0.100700
28.724400 0.099800
28.743900 0.098900
28.763400 0.098000
28.782900 0.097100
28.802300 0.096200
28.821800 0.095200
28.841300 0.094300
28.860800 0.093300
28.880300 0.092300
28.899800 0.091300
28.919200 0.090300
28.938700 0.089300
28.958200 0.088200
28.977700 0.087200
28.997200 0.086100
29.016700 0.085000
29.036100 0.083900
29.055600 0.082900
29.075100 0.081800
29.094600 0.080800
29.114100 0.079700
29.133600 0.078700
29.153000 0.077600
29.172500 0.076500
29.192000 0.075400
29.211500 0.074600
29.231000 0.072000
29.250500 0.071100
29.269900 0.070200
29.289400 0.069300
29.308900 0.068400
29.328400 0.067500
29.347900 0.066300
29.367400 0.065500
29.386800 0.064600
29.406300 0.063800
29.425800 0.063100
29.445300 0.062400
29.464800 0.061700
29.484300 0.061100
29.503700 0.060500
29.523200 0.060000
29.542700 0.059400
29.562200 0.060200
29.581700 0.059800
29.601200 0.059500
29.620600 0.059100
29.640100 0.058600
29.659600 0.058200
29.679100 0.057800
29.698600 0.057700
29.718100 0.060300
29.737500 0.058600
29.757000 0.057100
29.776500 0.055600
29.796000 0.054100
29.815500 0.052700
29.835000 0.051400
29.854400 0.050100
29.873900 0.048900
29.893400 0.047700
29.912900 0.046600
29.932400 0.043100
29.951900 0.042300
29.971300 0.041600
29.990800 0.040900
30.010300 0.040200
30.029800 0.039700
30.049300 0.039100
30.068800 0.038700
30.088200 0.038300
30.107700 0.037800
30.127200 0.037700
30.146700 0.037700
30.166200 0.037700
30.185700 0.045900
30.205100 0.046700
30.224600 0.047500
30.244100 0.048200
30.263600 0.048800
30.283100 0.049300
30.302600 0.054300
30.322000 0.051900
30.341500 0.049700
30.361000 0.047500
30.380500 0.046600
30.400000 0.046000
30.419500 0.045300
30.438900 0.044600
30.458400 0.043800
30.477900 0.043000
30.497400 0.042100
30.516900 0.022800
30.536400 0.013100
30.555800 0.011000
30.575300 0.009000
30.594800 0.007000
30.614300 0.005200
30.633800 0.003400
30.653300 0.001700
30.672700 0.000100
30.692200 0.000000
30.711700 0.000000
30.731200 0.000000
30.750700 0.000000
30.770200 0.000000
30.789600 0.000000
30.809100 0.000000
30.828600 0.000000
30.848100 0.000000
30.867600 0.000000
30.887000 0.000000
30.906500 0.000000
30.926000 0.000000
30.945500 0.000000
30.965000 0.000000
30.984500 0.000000
31.003900 0.000000
31.023400 0.000000
31.042900 0.000000
31.062400 0.000000
31.081900 0.000000
31.101400 0.000000
31.120800 0.000000
31.140300 0.000000
31.159800 0.000000
31.179300 0.000000
31.198800 0.000000
31.218300 0.000000
31.237700 0.000000
31.257200 0.000000
31.276700 0.000000
31.296200 0.000000
31.315700 0.000000
31.335200 0.000000
31.354600 0.000000
31.374100 0.000000
31.393600 0.000000
31.413100 0.000000
31.432600 0.000000
31.452100 0.000000
31.471500 0.000000
31.491000 0.000000
31.510500 0.000000
31.530000 0.000000
31.549500 0.000000
31.569000 0.000000
31.588400 0.000000
31.607900 0.000000
31.627400 0.000000
31.646900 0.000000
31.666400 0.000000
31.685900 0.000000
31.705300 0.000000
31.724800 0.000000
31.744300 0.000000
31.763800 0.000000
31.783300 0.000000
31.802800 0.000000
31.822200 0.000000
31.841700 0.000000
31.861200 0.000000
31.880700 0.000000
31.900200 0.000000
31.919700 0.000000
31.939100 0.000000
31.958600 0.000000
31.978100 0.000000
31.997600 0.000000
32.017100 0.000000
32.036600 0.000000
32.056000 0.000000
32.075500 0.000000
32.095000 0.000000
32.114500 0.000000
32.134000 0.000000
32.153500 0.000000
32.172900 0.000000
32.192400 0.000000
32.211900 0.000000
32.231400 0.000000
32.250900 0.000000
32.270400 0.000000
32.289800 0.000000
32.309300 0.000000
32.328800 0.000000
32.348300 0.000000
32.367800 0.000000
32.387300 0.000000
32.406700 0.000000
32.426200 0.000000
32.445700 0.000000
e
