set title 'mp-1223656 - Density of States'
set xlabel 'Energy (eV)'
set ylabel 'DOS (states/eV)'
set grid
set xrange [-10:10]
set yrange [0:39.949]
set xzeroaxis lt -1
set terminal png size 800,600
set output 'mp-1223656_dos_gnuplot.png'
plot '-' using 1:2 with lines title 'DOS'
-9.650000 0.000000
-9.615500 0.000000
-9.581000 0.000000
-9.546500 0.000000
-9.512000 0.000000
-9.477500 0.000000
-9.443000 0.000000
-9.408600 0.000000
-9.374100 0.000000
-9.339600 0.000000
-9.305100 0.000000
-9.270600 0.000000
-9.236100 0.000000
-9.201600 0.000000
-9.167100 0.000000
-9.132600 0.000000
-9.098100 0.000000
-9.063600 0.000000
-9.029100 0.000000
-8.994600 0.000000
-8.960100 0.000000
-8.925700 0.000000
-8.891200 0.000000
-8.856700 0.000000
-8.822200 0.000000
-8.787700 0.000000
-8.753200 0.000000
-8.718700 0.000000
-8.684200 0.000000
-8.649700 0.000000
-8.615200 0.000000
-8.580700 0.000000
-8.546200 0.000000
-8.511700 0.000000
-8.477200 0.000000
-8.442800 0.000000
-8.408300 0.000000
-8.373800 0.000000
-8.339300 0.000000
-8.304800 0.000000
-8.270300 0.000000
-8.235800 0.000000
-8.201300 0.000000
-8.166800 0.000000
-8.132300 0.000000
-8.097800 0.000000
-8.063300 0.000000
-8.028800 0.000000
-7.994400 0.000000
-7.959900 0.000000
-7.925400 0.000000
-7.890900 0.000000
-7.856400 0.000000
-7.821900 0.000000
-7.787400 0.000000
-7.752900 0.000000
-7.718400 0.000000
-7.683900 0.000000
-7.649400 0.000000
-7.614900 0.000000
-7.580400 0.000000
-7.545900 0.000000
-7.511500 0.000000
-7.477000 0.000000
-7.442500 0.000000
-7.408000 0.000000
-7.373500 0.000000
-7.339000 0.000000
-7.304500 0.000000
-7.270000 0.000000
-7.235500 0.000000
-7.201000 0.000000
-7.166500 0.000000
-7.132000 0.000000
-7.097500 0.000000
-7.063000 0.000000
-7.028600 0.000000
-6.994100 0.000000
-6.959600 0.000000
-6.925100 0.000000
-6.890600 0.000000
-6.856100 0.000000
-6.821600 0.000000
-6.787100 0.000000
-6.752600 0.000000
-6.718100 0.000000
-6.683600 0.000000
-6.649100 0.000000
-6.614600 0.000000
-6.580100 0.000000
-6.545700 0.000000
-6.511200 0.176200
-6.476700 4.455800
-6.442200 6.500700
-6.407700 7.508900
-6.373200 8.791200
-6.338700 14.168700
-6.304200 9.160300
-6.269700 9.451800
-6.235200 13.403600
-6.200700 21.940400
-6.166200 18.867700
-6.131700 11.328500
-6.097200 22.046300
-6.062800 12.368600
-6.028300 36.317300
-5.993800 14.278500
-5.959300 29.416400
-5.924800 17.586700
-5.890300 16.370300
-5.855800 7.171200
-5.821300 3.401600
-5.786800 0.000000
-5.752300 0.000000
-5.717800 0.000000
-5.683300 0.000000
-5.648800 0.000000
-5.614300 0.000000
-5.579900 0.000000
-5.545400 0.000000
-5.510900 0.000000
-5.476400 0.000000
-5.441900 0.000000
-5.407400 0.000000
-5.372900 0.000000
-5.338400 0.000000
-5.303900 0.000000
-5.269400 0.000000
-5.234900 0.000000
-5.200400 0.000000
-5.165900 0.000000
-5.131500 0.000000
-5.097000 0.000000
-5.062500 0.000000
-5.028000 0.000000
-4.993500 0.000000
-4.959000 0.000000
-4.924500 0.000000
-4.890000 0.000000
-4.855500 0.000000
-4.821000 0.000000
-4.786500 0.000000
-4.752000 0.000000
-4.717500 0.000000
-4.683000 0.000000
-4.648600 0.000000
-4.614100 0.000000
-4.579600 0.000000
-4.545100 0.000000
-4.510600 0.000000
-4.476100 0.000000
-4.441600 0.000000
-4.407100 0.000000
-4.372600 0.000000
-4.338100 0.000000
-4.303600 0.000000
-4.269100 0.000000
-4.234600 0.000000
-4.200100 0.000000
-4.165700 0.000000
-4.131200 0.000000
-4.096700 0.000000
-4.062200 0.000000
-4.027700 0.000000
-3.993200 0.000000
-3.958700 0.000000
-3.924200 0.000000
-3.889700 0.000000
-3.855200 0.000000
-3.820700 0.000000
-3.786200 0.000000
-3.751700 0.000000
-3.717200 0.000000
-3.682800 0.000000
-3.648300 0.000000
-3.613800 0.000000
-3.579300 0.000000
-3.544800 0.000000
-3.510300 0.000000
-3.475800 0.000000
-3.441300 0.000000
-3.406800 0.000000
-3.372300 0.000000
-3.337800 0.000000
-3.303300 0.000000
-3.268800 0.000000
-3.234300 0.000000
-3.199900 0.000000
-3.165400 0.000000
-3.130900 0.000000
-3.096400 0.000000
-3.061900 0.000000
-3.027400 0.000000
-2.992900 0.000000
-2.958400 0.000000
-2.923900 0.000000
-2.889400 0.000000
-2.854900 0.000000
-2.820400 0.000000
-2.785900 0.000000
-2.751400 0.000000
-2.717000 0.000000
-2.682500 0.000000
-2.648000 0.000000
-2.613500 0.000000
-2.579000 0.000000
-2.544500 0.000000
-2.510000 0.000000
-2.475500 0.000000
-2.441000 0.000000
-2.406500 0.000000
-2.372000 0.000000
-2.337500 0.000000
-2.303000 0.000000
-2.268500 0.000000
-2.234100 0.000000
-2.199600 0.000000
-2.165100 0.000000
-2.130600 0.000000
-2.096100 0.000000
-2.061600 0.000000
-2.027100 0.000000
-1.992600 0.000000
-1.958100 0.000000
-1.923600 0.000000
-1.889100 0.000000
-1.854600 0.006600
-1.820100 0.026500
-1.785700 0.052600
-1.751200 0.070600
-1.716700 0.071800
-1.682200 0.079300
-1.647700 0.088500
-1.613200 0.098000
-1.578700 0.107500
-1.544200 0.114900
-1.509700 0.122300
-1.475200 0.127800
-1.440700 0.132300
-1.406200 0.136200
-1.371700 0.141300
-1.337200 0.147000
-1.302800 0.152300
-1.268300 0.157000
-1.233800 0.162000
-1.199300 0.167400
-1.164800 0.173200
-1.130300 0.179000
-1.095800 0.184900
-1.061300 0.189500
-1.026800 0.193000
-0.992300 0.197100
-0.957800 0.200900
-0.923300 0.204600
-0.888800 0.208500
-0.854300 0.212500
-0.819900 0.216700
-0.785400 0.221100
-0.750900 0.225600
-0.716400 0.230200
-0.681900 0.234900
-0.647400 0.239600
-0.612900 0.244500
-0.578400 0.249500
-0.543900 0.254800
-0.509400 0.260000
-0.474900 0.265000
-0.440400 0.269300
-0.405900 0.273400
-0.371400 0.277500
-0.337000 0.282000
-0.302500 0.286700
-0.268000 0.291400
-0.233500 0.296100
-0.199000 0.301000
-0.164500 0.308200
-0.130000 0.315800
-0.095500 0.323900
-0.061000 0.332500
-0.026500 0.345400
0.008000 0.360800
0.042500 0.369300
0.077000 0.371000
0.111500 0.368100
0.145900 0.377200
0.180400 0.383500
0.214900 0.382400
0.249400 0.379300
0.283900 0.378600
0.318400 0.379600
0.352900 0.382600
0.387400 0.384700
0.421900 0.385600
0.456400 0.385900
0.490900 0.385700
0.525400 0.385200
0.559900 0.384900
0.594400 0.386100
0.628800 0.387100
0.663300 0.388100
0.697800 0.390200
0.732300 0.392300
0.766800 0.394200
0.801300 0.396000
0.835800 0.397800
0.870300 0.399300
0.904800 0.400200
0.939300 0.399800
0.973800 0.400400
1.008300 0.402400
1.042800 0.404500
1.077200 0.406700
1.111700 0.408900
1.146200 0.411100
1.180700 0.413400
1.215200 0.415600
1.249700 0.417700
1.284200 0.420000
1.318700 0.422500
1.353200 0.429300
1.387700 0.449800
1.422200 0.447300
1.456700 0.452200
1.491200 0.457700
1.525700 0.463600
1.560100 0.470100
1.594600 0.477200
1.629100 0.484800
1.663600 0.492400
1.698100 0.499900
1.732600 0.507400
1.767100 0.514600
1.801600 0.521400
1.836100 0.529000
1.870600 0.537200
1.905100 0.545600
1.939600 0.554200
1.974100 0.563000
2.008600 0.572200
2.043000 0.582100
2.077500 0.592900
2.112000 0.604400
2.146500 0.616700
2.181000 0.629700
2.215500 0.644400
2.250000 0.660700
2.284500 0.679000
2.319000 0.701200
2.353500 0.730500
2.388000 0.782400
2.422500 0.862400
2.457000 0.860700
2.491500 0.833700
2.525900 0.836500
2.560400 0.833100
2.594900 0.827400
2.629400 0.854000
2.663900 0.868300
2.698400 0.849500
2.732900 0.809600
2.767400 0.787300
2.801900 0.767100
2.836400 0.749100
2.870900 0.726300
2.905400 0.675700
2.939900 0.636300
2.974400 0.618400
3.008800 0.606800
3.043300 0.597900
3.077800 0.598600
3.112300 0.599200
3.146800 0.603600
3.181300 0.615400
3.215800 0.669600
3.250300 0.750300
3.284800 0.554000
3.319300 0.574200
3.353800 0.627900
3.388300 0.677400
3.422800 0.719000
3.457300 0.782400
3.491700 0.852400
3.526200 0.943000
3.560700 0.981300
3.595200 0.980400
3.629700 1.002100
3.664200 1.046300
3.698700 1.121200
3.733200 1.162200
3.767700 1.185100
3.802200 1.203800
3.836700 1.239500
3.871200 1.278100
3.905700 1.310700
3.940100 1.353900
3.974600 1.428200
4.009100 1.539900
4.043600 1.674600
4.078100 1.727800
4.112600 1.745100
4.147100 1.810700
4.181600 1.903200
4.216100 2.038800
4.250600 2.373400
4.285100 2.551400
4.319600 2.653100
4.354100 2.516700
4.388600 2.050200
4.423000 1.731700
4.457500 2.060600
4.492000 2.118100
4.526500 2.279900
4.561000 2.230200
4.595500 2.170300
4.630000 2.127500
4.664500 2.164200
4.699000 2.238100
4.733500 2.279900
4.768000 2.317700
4.802500 2.284000
4.837000 2.526600
4.871500 2.742900
4.905900 3.116600
4.940400 3.689000
4.974900 3.683900
5.009400 3.736000
5.043900 4.000200
5.078400 4.291600
5.112900 4.896000
5.147400 4.782600
5.181900 4.928000
5.216400 4.823400
5.250900 2.864000
5.285400 3.130200
5.319900 3.961200
5.354400 4.329100
5.388800 4.287900
5.423300 3.903100
5.457800 3.364300
5.492300 3.150400
5.526800 3.102200
5.561300 3.248900
5.595800 2.984600
5.630300 2.834500
5.664800 3.156000
5.699300 3.527800
5.733800 4.039400
5.768300 4.109600
5.802800 4.013000
5.837300 3.823000
5.871700 3.598700
5.906200 3.597800
5.940700 3.669900
5.975200 3.767200
6.009700 4.044900
6.044200 4.478300
6.078700 4.383900
6.113200 3.818200
6.147700 3.199200
6.182200 2.487500
6.216700 2.219900
6.251200 1.937600
6.285700 1.514200
6.320200 1.678500
6.354600 3.965400
6.389100 3.452600
6.423600 2.925600
6.458100 2.436200
6.492600 2.040600
6.527100 1.729200
6.561600 1.440100
6.596100 1.393100
6.630600 1.334000
6.665100 1.268100
6.699600 1.212300
6.734100 1.180400
6.768600 1.161700
6.803000 1.157200
6.837500 1.156600
6.872000 1.161000
6.906500 1.175100
6.941000 1.191900
6.975500 1.215400
7.010000 1.243900
7.044500 1.278800
7.079000 1.311800
7.113500 1.343000
7.148000 1.367100
7.182500 1.398400
7.217000 1.446300
7.251500 1.523400
7.285900 1.595500
7.320400 1.581500
7.354900 1.619700
7.389400 1.687800
7.423900 1.746800
7.458400 1.805500
7.492900 1.888000
7.527400 2.094300
7.561900 2.276600
7.596400 2.385100
7.630900 1.999100
7.665400 1.551600
7.699900 1.398200
7.734400 1.311400
7.768800 1.255900
7.803300 1.201500
7.837800 1.155500
7.872300 1.116400
7.906800 1.072600
7.941300 1.032300
7.975800 0.999600
8.010300 0.976200
8.044800 0.932100
8.079300 0.856400
8.113800 0.785200
8.148300 0.724300
8.182800 0.683000
8.217300 0.641800
8.251700 0.602200
8.286200 0.566600
8.320700 0.535200
8.355200 0.525400
8.389700 0.530600
8.424200 0.537300
8.458700 0.546100
8.493200 0.558300
8.527700 0.573100
8.562200 0.588200
8.596700 0.611100
8.631200 0.633900
8.665700 0.665200
8.700200 0.723300
8.734600 0.780900
8.769100 0.852200
8.803600 0.980400
8.838100 1.111900
8.872600 1.277700
8.907100 1.223100
8.941600 1.275200
8.976100 1.230400
9.010600 1.198800
9.045100 1.170300
9.079600 1.133800
9.114100 1.091300
9.148600 1.032200
9.183100 0.957000
9.217500 0.821500
9.252000 0.756100
9.286500 0.695400
9.321000 0.656400
9.355500 0.624400
9.390000 0.578900
9.424500 0.602400
9.459000 0.701600
9.493500 0.777100
9.528000 0.911500
9.562500 0.962400
9.597000 0.973800
9.631500 0.963700
9.666000 0.941000
9.700400 0.934400
9.734900 0.932800
9.769400 0.915400
9.803900 0.871900
9.838400 0.847300
9.872900 0.826600
9.907400 0.804000
9.941900 0.778100
9.976400 0.732300
10.010900 0.701900
10.045400 0.680400
10.079900 0.665600
10.114400 0.656100
10.148800 0.646000
10.183300 0.594900
10.217800 0.586400
10.252300 0.579900
10.286800 0.574100
10.321300 0.569900
10.355800 0.566900
10.390300 0.563100
10.424800 0.561400
10.459300 0.557900
10.493800 0.555600
10.528300 0.553500
10.562800 0.548400
10.597300 0.539700
10.631700 0.535600
10.666200 0.534500
10.700700 0.534700
10.735200 0.535500
10.769700 0.536700
10.804200 0.546500
10.838700 0.542500
10.873200 0.532000
10.907700 0.535600
10.942200 0.539700
10.976700 0.544300
11.011200 0.549000
11.045700 0.554100
11.080200 0.560600
11.114600 0.569700
11.149100 0.578100
11.183600 0.585900
11.218100 0.592500
11.252600 0.594900
11.287100 0.600100
11.321600 0.605700
11.356100 0.610500
11.390600 0.614000
11.425100 0.615400
11.459600 0.615200
11.494100 0.618900
11.528600 0.627600
11.563100 0.635600
11.597500 0.675200
11.632000 0.751300
11.666500 0.823800
11.701000 0.795200
11.735500 0.806400
11.770000 0.830700
11.804500 0.889600
11.839000 0.989300
11.873500 1.023300
11.908000 0.997900
11.942500 0.999100
11.977000 0.945500
12.011500 0.866600
12.046000 0.866900
12.080400 0.862000
12.114900 0.846600
12.149400 0.834300
12.183900 0.820400
12.218400 0.806400
12.252900 0.791500
12.287400 0.773600
12.321900 0.758700
12.356400 0.748000
12.390900 0.741300
12.425400 0.733900
12.459900 0.717300
12.494400 0.697200
12.528900 0.685300
12.563300 0.664700
12.597800 0.630600
12.632300 0.593700
12.666800 0.575500
12.701300 0.575000
12.735800 0.574700
12.770300 0.573500
12.804800 0.572400
12.839300 0.578900
12.873800 0.591700
12.908300 0.610200
12.942800 0.642100
12.977300 0.687400
13.011700 0.771800
13.046200 0.840100
13.080700 0.881900
13.115200 0.910700
13.149700 0.946000
13.184200 0.989400
13.218700 1.010600
13.253200 1.008500
13.287700 1.011300
13.322200 1.013600
13.356700 1.016600
13.391200 1.037000
13.425700 1.063400
13.460200 1.104200
13.494600 1.130000
13.529100 1.017500
13.563600 0.985400
13.598100 0.962500
13.632600 0.950100
13.667100 0.939300
13.701600 0.931500
13.736100 0.926400
13.770600 0.925600
13.805100 0.928000
13.839600 0.933800
13.874100 0.992100
13.908600 1.141800
13.943100 1.011800
13.977500 1.005600
14.012000 1.007800
14.046500 1.008900
14.081000 1.009900
14.115500 1.010000
14.150000 1.007900
14.184500 1.003500
14.219000 0.999700
14.253500 1.036000
14.288000 1.051000
14.322500 1.039400
14.357000 1.017400
14.391500 0.993100
14.426000 0.967100
14.460400 0.939900
14.494900 0.919500
14.529400 0.908900
14.563900 0.902900
14.598400 0.897400
14.632900 0.890100
14.667400 0.879900
14.701900 0.866600
14.736400 0.861800
14.770900 0.857600
14.805400 0.851900
14.839900 0.846900
14.874400 0.844100
14.908900 0.852800
14.943300 0.886900
14.977800 0.899100
15.012300 0.909000
15.046800 0.916600
15.081300 0.922200
15.115800 0.925800
15.150300 0.930100
15.184800 0.936000
15.219300 0.940800
15.253800 0.944500
15.288300 0.946200
15.322800 0.944600
15.357300 0.943900
15.391800 0.944000
15.426200 0.945000
15.460700 0.946200
15.495200 0.945900
15.529700 0.943700
15.564200 0.940300
15.598700 0.935300
15.633200 0.931600
15.667700 0.929800
15.702200 0.927300
15.736700 0.920400
15.771200 0.911100
15.805700 0.902700
15.840200 0.895300
15.874600 0.889300
15.909100 0.887800
15.943600 0.890100
15.978100 0.895500
16.012600 0.904600
16.047100 0.909600
16.081600 0.914600
16.116100 0.917700
16.150600 0.919200
16.185100 0.918800
16.219600 0.905500
16.254100 0.895500
16.288600 0.892800
16.323100 0.890900
16.357500 0.889000
16.392000 0.887300
16.426500 0.885600
16.461000 0.884200
16.495500 0.882800
16.530000 0.881500
16.564500 0.880500
16.599000 0.879200
16.633500 0.878600
16.668000 0.879400
16.702500 0.880400
16.737000 0.877700
16.771500 0.873200
16.806000 0.869100
16.840400 0.865700
16.874900 0.862000
16.909400 0.858600
16.943900 0.857500
16.978400 0.858400
17.012900 0.859500
17.047400 0.862100
17.081900 0.868100
17.116400 0.874600
17.150900 0.874000
17.185400 0.871300
17.219900 0.868700
17.254400 0.865200
17.288900 0.860500
17.323300 0.854300
17.357800 0.849000
17.392300 0.845500
17.426800 0.843200
17.461300 0.843300
17.495800 0.845400
17.530300 0.848100
17.564800 0.851500
17.599300 0.855500
17.633800 0.860700
17.668300 0.867900
17.702800 0.877200
17.737300 0.888100
17.771800 0.900200
17.806200 0.913700
17.840700 0.929500
17.875200 0.950100
17.909700 0.974200
17.944200 0.941600
17.978700 0.945700
18.013200 0.949800
18.047700 0.953800
18.082200 0.960100
18.116700 0.969300
18.151200 0.981900
18.185700 0.998800
18.220200 1.017800
18.254700 1.016200
18.289100 1.012900
18.323600 1.015200
18.358100 1.023200
18.392600 1.035700
18.427100 1.050500
18.461600 1.058500
18.496100 1.061500
18.530600 1.069100
18.565100 1.075600
18.599600 1.077200
18.634100 1.065700
18.668600 1.045200
18.703100 1.029800
18.737600 1.026500
18.772000 1.035700
18.806500 1.045400
18.841000 1.053000
18.875500 1.057000
18.910000 1.058700
18.944500 1.061300
18.979000 1.068600
19.013500 1.061900
19.048000 1.054200
19.082500 1.044600
19.117000 1.040200
19.151500 1.039700
19.186000 1.041600
19.220400 1.041800
19.254900 1.040500
19.289400 1.039200
19.323900 1.036400
19.358400 1.032000
19.392900 1.034300
19.427400 1.036500
19.461900 1.035100
19.496400 1.038300
19.530900 1.053500
19.565400 1.076900
19.599900 1.107900
19.634400 1.141500
19.668900 1.253700
19.703300 1.202900
19.737800 1.228000
19.772300 1.232900
19.806800 1.242900
19.841300 1.307300
19.875800 1.374400
19.910300 1.392300
19.944800 1.400900
19.979300 1.395400
20.013800 1.392700
20.048300 1.375500
20.082800 1.359000
20.117300 1.342800
20.151800 1.335500
20.186200 1.330500
20.220700 1.341900
20.255200 1.348600
20.289700 1.355400
20.324200 1.365800
20.358700 1.359000
20.393200 1.393100
20.427700 1.389100
20.462200 1.376900
20.496700 1.331000
20.531200 1.300700
20.565700 1.247500
20.600200 1.207100
20.634700 1.182900
20.669100 1.167700
20.703600 1.154400
20.738100 1.140100
20.772600 1.123200
20.807100 1.108800
20.841600 1.118100
20.876100 1.105000
20.910600 1.077100
20.945100 1.045100
20.979600 1.021800
21.014100 1.002700
21.048600 0.985500
21.083100 0.973000
21.117600 0.968200
21.152000 0.973200
21.186500 0.990000
21.221000 1.018800
21.255500 1.039800
21.290000 1.059000
21.324500 1.098000
21.359000 1.168400
21.393500 1.242100
21.428000 1.292900
21.462500 1.381300
21.497000 1.349900
21.531500 1.339400
21.566000 1.337800
21.600500 1.331100
21.634900 1.344700
21.669400 1.360800
21.703900 1.365100
21.738400 1.346700
21.772900 1.325900
21.807400 1.308200
21.841900 1.305200
21.876400 1.299800
21.910900 1.289600
21.945400 1.267600
21.979900 1.241000
22.014400 1.217200
22.048900 1.194400
22.083300 1.164800
22.117800 1.105800
22.152300 1.028100
22.186800 0.974500
22.221300 0.956500
22.255800 0.985500
22.290300 1.001200
22.324800 1.009000
22.359300 1.024000
22.393800 1.050400
22.428300 1.090100
22.462800 1.154000
22.497300 1.195800
22.531800 1.234900
22.566200 1.245600
22.600700 1.241400
22.635200 1.237700
22.669700 1.259800
22.704200 1.295400
22.738700 1.292800
22.773200 1.284700
22.807700 1.324200
22.842200 1.336300
22.876700 1.296200
22.911200 1.259800
22.945700 1.197800
22.980200 1.116800
23.014700 1.077600
23.049100 1.070900
23.083600 1.067200
23.118100 1.067000
23.152600 1.066000
23.187100 1.091800
23.221600 1.123100
23.256100 1.164000
23.290600 1.222300
23.325100 1.244200
23.359600 1.257800
23.394100 1.263300
23.428600 1.268300
23.463100 1.258400
23.497600 1.254700
23.532000 1.266100
23.566500 1.278400
23.601000 1.295600
23.635500 1.312000
23.670000 1.338700
23.704500 1.310900
23.739000 1.265200
23.773500 1.246400
23.808000 1.221400
23.842500 1.222800
23.877000 1.225300
23.911500 1.209600
23.946000 1.197500
23.980500 1.180400
24.014900 1.170500
24.049400 1.172700
24.083900 1.190700
24.118400 1.221300
24.152900 1.244100
24.187400 1.323600
24.221900 1.419200
24.256400 1.422800
24.290900 1.321400
24.325400 1.279800
24.359900 1.260300
24.394400 1.169700
24.428900 1.137900
24.463400 1.098200
24.497800 1.051300
24.532300 0.985700
24.566800 0.915800
24.601300 0.919400
24.635800 0.887400
24.670300 0.859300
24.704800 0.846600
24.739300 0.849000
24.773800 0.824500
24.808300 0.817800
24.842800 0.847800
24.877300 0.907900
24.911800 0.945100
24.946200 0.985000
24.980700 1.030000
25.015200 1.122300
25.049700 1.189400
25.084200 1.244300
25.118700 1.327800
25.153200 1.419500
25.187700 1.392600
25.222200 1.392800
25.256700 1.433700
25.291200 1.404500
25.325700 1.389500
25.360200 1.386400
25.394700 1.370900
25.429100 1.354400
25.463600 1.349600
25.498100 1.323900
25.532600 1.308800
25.567100 1.291500
25.601600 1.282600
25.636100 1.273900
25.670600 1.266200
25.705100 1.255700
25.739600 1.249800
25.774100 1.241800
25.808600 1.229800
25.843100 1.212200
25.877600 1.189000
25.912000 1.144700
25.946500 1.107100
25.981000 1.091400
26.015500 1.105200
26.050000 1.111200
26.084500 1.113300
26.119000 1.117400
26.153500 1.137500
26.188000 1.131000
26.222500 1.124800
26.257000 1.120100
26.291500 1.120400
26.326000 1.124400
26.360500 1.131100
26.394900 1.144000
26.429400 1.162900
26.463900 1.168800
26.498400 1.178200
26.532900 1.198900
26.567400 1.192000
26.601900 1.160600
26.636400 1.176500
26.670900 1.183100
26.705400 1.186200
26.739900 1.185600
26.774400 1.197900
26.808900 1.219500
26.843400 1.199000
26.877800 1.182900
26.912300 1.205800
26.946800 1.224600
26.981300 1.239100
27.015800 1.262400
27.050300 1.282200
27.084800 1.279500
27.119300 1.280000
27.153800 1.292100
27.188300 1.294700
27.222800 1.290800
27.257300 1.303600
27.291800 1.324400
27.326300 1.332800
27.360700 1.312300
27.395200 1.266300
27.429700 1.269200
27.464200 1.257500
27.498700 1.220000
27.533200 1.190500
27.567700 1.180600
27.602200 1.183000
27.636700 1.194300
27.671200 1.215400
27.705700 1.213000
27.740200 1.205000
27.774700 1.158500
27.809200 1.135500
27.843600 1.132500
27.878100 1.113000
27.912600 1.106400
27.947100 1.090400
27.981600 1.080400
28.016100 1.086900
28.050600 1.100800
28.085100 1.110900
28.119600 1.127100
28.154100 1.151800
28.188600 1.178800
28.223100 1.205300
28.257600 1.228500
28.292000 1.264500
28.326500 1.310700
28.361000 1.344800
28.395500 1.374600
28.430000 1.399400
28.464500 1.416500
28.499000 1.434200
28.533500 1.453800
28.568000 1.483900
28.602500 1.505800
28.637000 1.467900
28.671500 1.536200
28.706000 1.533200
28.740500 1.572200
28.774900 1.605600
28.809400 1.626100
28.843900 1.635700
28.878400 1.587200
28.912900 1.534600
28.947400 1.473700
28.981900 1.410000
29.016400 1.373200
29.050900 1.351700
29.085400 1.345500
29.119900 1.328900
29.154400 1.301000
29.188900 1.268000
29.223400 1.218900
29.257800 1.184900
29.292300 1.158600
29.326800 1.146600
29.361300 1.148000
29.395800 1.164000
29.430300 1.194300
29.464800 1.226600
29.499300 1.295000
29.533800 1.353300
29.568300 1.368800
29.602800 1.385500
29.637300 1.412800
29.671800 1.440100
29.706300 1.492900
29.740700 1.602900
29.775200 1.699500
29.809700 1.708900
29.844200 1.689800
29.878700 1.757400
29.913200 1.775500
29.947700 1.822600
29.982200 1.810100
30.016700 1.808000
30.051200 1.763500
30.085700 1.766900
30.120200 1.749500
30.154700 1.720800
30.189200 1.689500
30.223600 1.661100
30.258100 1.628100
30.292600 1.589500
30.327100 1.555200
30.361600 1.540400
30.396100 1.528000
30.430600 1.527000
30.465100 1.529900
30.499600 1.542800
30.534100 1.558700
30.568600 1.573900
30.603100 1.625000
30.637600 1.677200
30.672100 1.646800
30.706500 1.620700
30.741000 1.618900
30.775500 1.578500
30.810000 1.563900
30.844500 1.563800
30.879000 1.560300
30.913500 1.560700
30.948000 1.559000
30.982500 1.602000
31.017000 1.610400
31.051500 1.650000
31.086000 1.615100
31.120500 1.633100
31.154900 1.672500
31.189400 1.712400
31.223900 1.762700
31.258400 1.820900
31.292900 1.880300
31.327400 1.942800
31.361900 2.003400
31.396400 2.052300
31.430900 2.063400
31.465400 2.030500
31.499900 1.981700
31.534400 1.918500
31.568900 1.859900
31.603400 1.814700
31.637800 1.753800
31.672300 1.682700
31.706800 1.669000
31.741300 1.682700
31.775800 1.691700
31.810300 1.707500
31.844800 1.731100
31.879300 1.760500
31.913800 1.791700
31.948300 1.816000
31.982800 1.823200
32.017300 1.833300
32.051800 1.833300
32.086300 1.820900
32.120700 1.803800
32.155200 1.786300
32.189700 1.780100
32.224200 1.782000
32.258700 1.792800
32.293200 1.942000
32.327700 1.936200
32.362200 1.951700
32.396700 1.937000
32.431200 1.917300
32.465700 1.907400
32.500200 1.881300
32.534700 1.847100
32.569200 1.809100
32.603600 1.788000
32.638100 1.754900
32.672600 1.713700
32.707100 1.678100
32.741600 1.678500
32.776100 1.644300
32.810600 1.629700
32.845100 1.629500
32.879600 1.616900
32.914100 1.601100
32.948600 1.588400
32.983100 1.585100
33.017600 1.588100
33.052100 1.584900
33.086500 1.574400
33.121000 1.567500
33.155500 1.560900
33.190000 1.564600
33.224500 1.534800
33.259000 1.507000
33.293500 1.505300
33.328000 1.514500
33.362500 1.521200
33.397000 1.502000
33.431500 1.525200
33.466000 1.563500
33.500500 1.612200
33.535000 1.669000
33.569400 1.762600
33.603900 1.833700
33.638400 1.778900
33.672900 1.809900
33.707400 1.836500
33.741900 1.889400
33.776400 1.879700
33.810900 1.886500
33.845400 2.225700
33.879900 1.892300
33.914400 1.870400
33.948900 1.807000
33.983400 1.783200
34.017800 1.774200
34.052300 1.822100
34.086800 1.816000
34.121300 1.787700
34.155800 1.790200
34.190300 1.782600
34.224800 1.767700
34.259300 1.746300
34.293800 1.717100
34.328300 1.693000
34.362800 1.674300
34.397300 1.687700
34.431800 1.703000
34.466300 1.708900
34.500700 1.667100
34.535200 1.618600
34.569700 1.594300
34.604200 1.584700
34.638700 1.560000
34.673200 1.538300
34.707700 1.531500
34.742200 1.544500
34.776700 1.568700
34.811200 1.584100
34.845700 1.579300
34.880200 1.595500
34.914700 1.626400
34.949200 1.659000
34.983600 1.678900
35.018100 1.633300
35.052600 1.556100
35.087100 1.523700
35.121600 1.486300
35.156100 1.473500
35.190600 1.455300
35.225100 1.432000
35.259600 1.414900
35.294100 1.410600
35.328600 1.446800
35.363100 1.412800
35.397600 1.417200
35.432100 1.427700
35.466500 1.435300
35.501000 1.443300
35.535500 1.518400
35.570000 1.461500
35.604500 1.463800
35.639000 1.492700
35.673500 1.538700
35.708000 1.566200
35.742500 1.542400
35.777000 1.531400
35.811500 1.547300
35.846000 1.583400
35.880500 1.613600
35.915000 1.661300
35.949400 1.742300
35.983900 1.789600
36.018400 1.777100
36.052900 1.763600
36.087400 1.730700
36.121900 1.703500
36.156400 1.667400
36.190900 1.668500
36.225400 1.622400
36.259900 1.613400
36.294400 1.659400
36.328900 1.718300
36.363400 1.788600
36.397900 1.881600
36.432300 1.977500
36.466800 2.029700
36.501300 2.094900
36.535800 2.041200
36.570300 1.999600
36.604800 1.914400
36.639300 1.845000
36.673800 1.757300
36.708300 1.696300
36.742800 1.647900
36.777300 1.609200
36.811800 1.585000
36.846300 1.563000
36.880700 1.541300
36.915200 1.533300
36.949700 1.527300
36.984200 1.501100
37.018700 1.519500
37.053200 1.505300
37.087700 1.457200
37.122200 1.443200
37.156700 1.386600
37.191200 1.346300
37.225700 1.324000
37.260200 1.320000
37.294700 1.313400
37.329200 1.312800
37.363600 1.389000
37.398100 1.507800
37.432600 1.548300
37.467100 1.449100
37.501600 1.413000
37.536100 1.410800
37.570600 1.417000
37.605100 1.503700
37.639600 1.469500
37.674100 1.454400
37.708600 1.490200
37.743100 1.531300
37.777600 1.585500
37.812100 1.844200
37.846500 1.708800
37.881000 1.762300
37.915500 1.759900
37.950000 1.788300
37.984500 1.816500
38.019000 1.869600
38.053500 1.868400
38.088000 1.843300
38.122500 1.892300
38.157000 1.869300
38.191500 1.839800
38.226000 1.779200
38.260500 1.735200
38.295000 1.700000
38.329400 1.660300
38.363900 1.652800
38.398400 1.677200
38.432900 1.679200
38.467400 1.670500
38.501900 1.706400
38.536400 1.720300
38.570900 1.748600
38.605400 1.754300
38.639900 1.724000
38.674400 1.689600
38.708900 1.658200
38.743400 1.667100
38.777900 1.653500
38.812300 1.661200
38.846800 1.639100
38.881300 1.626800
38.915800 1.653000
38.950300 1.691200
38.984800 1.726700
39.019300 1.749100
39.053800 1.767000
39.088300 1.829900
39.122800 1.933500
39.157300 1.912200
39.191800 1.930300
39.226300 1.945800
39.260800 1.949800
39.295200 1.951400
39.329700 1.965300
39.364200 1.934100
39.398700 1.961600
39.433200 1.973200
39.467700 1.995500
39.502200 2.040700
39.536700 2.039500
39.571200 2.060600
39.605700 2.080400
39.640200 2.091100
39.674700 2.117300
39.709200 2.152500
39.743700 2.162900
39.778100 2.118900
39.812600 2.103300
39.847100 2.092000
39.881600 2.080600
39.916100 2.113400
39.950600 2.065900
39.985100 2.018100
40.019600 1.994900
40.054100 1.925800
40.088600 1.883800
40.123100 1.864400
40.157600 1.853800
40.192100 1.850800
40.226500 1.852400
40.261000 1.864200
40.295500 1.906300
40.330000 1.936300
40.364500 1.972300
40.399000 2.033500
40.433500 2.087400
40.468000 2.128600
40.502500 2.163700
40.537000 2.116100
40.571500 2.087600
40.606000 2.059900
40.640500 2.035200
40.675000 2.026800
40.709400 2.039100
40.743900 2.054100
40.778400 2.077100
40.812900 2.064000
40.847400 2.097100
40.881900 2.134700
40.916400 2.254100
40.950900 2.197700
40.985400 2.237000
41.019900 2.315700
41.054400 2.480300
41.088900 2.680200
41.123400 2.868800
41.157900 3.078100
41.192300 3.372700
41.226800 3.601400
41.261300 3.879800
41.295800 4.030900
41.330300 4.321000
41.364800 4.882000
41.399300 5.527100
41.433800 6.550400
41.468300 7.396200
41.502800 11.986300
41.537300 13.264800
41.571800 10.602500
41.606300 8.268600
41.640800 9.222000
41.675200 11.341000
41.709700 12.309700
41.744200 9.834600
41.778700 9.283400
41.813200 6.676600
41.847700 6.120400
41.882200 6.419600
41.916700 6.920600
41.951200 6.017500
41.985700 5.510000
42.020200 4.613500
42.054700 3.987500
42.089200 3.490400
42.123700 3.002500
42.158100 2.856200
42.192600 2.897500
42.227100 2.955400
42.261600 2.798700
42.296100 2.682900
42.330600 2.548400
42.365100 2.565300
42.399600 2.589100
42.434100 2.453400
42.468600 2.453000
42.503100 2.467600
42.537600 2.467900
42.572100 2.456700
42.606600 2.406100
42.641000 2.306500
42.675500 2.287900
42.710000 2.273700
42.744500 2.303600
42.779000 2.328100
42.813500 2.366600
42.848000 2.308600
42.882500 2.321800
42.917000 2.291900
42.951500 2.327300
42.986000 2.370100
43.020500 2.381800
43.055000 2.400600
43.089400 2.424300
43.123900 2.363900
43.158400 2.324300
43.192900 2.346000
43.227400 2.399600
43.261900 2.459700
43.296400 2.466500
43.330900 2.519900
43.365400 2.566400
43.399900 2.608300
43.434400 2.625500
43.468900 2.680000
43.503400 2.719200
43.537900 2.800000
43.572300 2.848400
43.606800 2.811300
43.641300 2.806000
43.675800 2.857500
43.710300 2.995800
43.744800 3.098100
43.779300 3.163400
43.813800 3.156200
43.848300 3.172000
43.882800 3.125600
43.917300 3.114700
43.951800 3.170800
43.986300 3.109700
44.020800 3.129600
44.055200 3.373400
44.089700 3.608600
44.124200 3.581900
44.158700 3.723200
44.193200 3.902000
44.227700 4.565500
44.262200 4.249300
44.296700 3.584800
44.331200 3.531700
44.365700 3.139700
44.400200 2.954900
44.434700 2.895900
44.469200 2.723000
44.503700 2.752400
44.538100 2.707600
44.572600 2.457500
44.607100 2.381400
44.641600 2.375200
44.676100 2.279500
44.710600 2.143900
44.745100 2.171700
44.779600 2.155300
44.814100 2.115200
44.848600 2.095700
44.883100 1.947000
44.917600 1.900300
44.952100 1.891800
44.986600 1.963400
45.021000 2.091600
45.055500 2.221100
45.090000 2.227500
45.124500 2.237400
45.159000 2.260800
45.193500 2.362400
45.228000 2.484500
45.262500 2.287400
45.297000 2.179900
45.331500 2.071400
45.366000 1.931800
45.400500 1.776700
45.435000 1.671600
45.469500 1.652600
45.503900 1.639800
45.538400 1.586100
45.572900 1.628500
45.607400 1.742300
45.641900 1.696800
45.676400 1.663500
45.710900 1.733400
45.745400 1.685300
45.779900 1.742200
45.814400 1.795900
45.848900 1.860500
45.883400 1.900100
45.917900 1.849400
45.952300 1.944500
45.986800 2.020000
46.021300 2.084500
46.055800 2.129300
46.090300 2.159000
46.124800 2.180500
46.159300 2.209700
46.193800 2.260200
46.228300 2.181200
46.262800 2.124200
46.297300 2.081500
46.331800 2.036500
46.366300 2.091300
46.400800 2.086200
46.435200 1.977900
46.469700 1.898400
46.504200 1.847800
46.538700 1.815800
46.573200 1.827200
46.607700 1.844400
46.642200 1.854300
46.676700 1.847300
46.711200 1.786900
46.745700 1.758800
46.780200 1.793200
46.814700 1.837500
46.849200 1.888700
46.883700 1.927500
46.918100 1.973100
46.952600 2.084000
46.987100 2.155900
47.021600 2.094700
47.056100 2.149600
47.090600 2.229800
47.125100 2.251900
47.159600 2.466700
47.194100 2.389500
47.228600 2.385400
47.263100 2.373300
47.297600 2.290700
47.332100 2.223100
47.366600 2.118800
47.401000 2.026800
47.435500 1.987500
47.470000 1.951000
47.504500 1.899600
47.539000 1.916500
47.573500 2.067600
47.608000 1.956200
47.642500 1.906500
47.677000 1.896700
47.711500 1.929100
47.746000 2.026300
47.780500 2.087100
47.815000 2.139200
47.849500 2.191100
47.883900 2.200800
47.918400 2.203500
47.952900 2.205800
47.987400 2.125600
48.021900 2.014600
48.056400 1.978100
48.090900 2.004600
48.125400 2.006200
48.159900 1.924700
48.194400 1.966100
48.228900 2.050600
48.263400 2.051800
48.297900 2.016100
48.332400 1.913200
48.366800 1.851300
48.401300 1.789500
48.435800 1.757600
48.470300 1.732900
48.504800 1.717800
48.539300 1.724200
48.573800 1.769200
48.608300 1.857700
48.642800 1.977000
48.677300 2.067900
48.711800 2.240500
48.746300 2.353100
48.780800 2.172700
48.815300 2.049200
48.849700 2.036400
48.884200 1.910400
48.918700 1.805200
48.953200 1.709200
48.987700 1.661100
49.022200 1.645800
49.056700 1.616700
49.091200 1.666000
49.125700 1.627000
49.160200 1.626000
49.194700 1.644100
49.229200 1.756400
49.263700 1.844300
49.298100 1.953700
49.332600 2.065500
49.367100 2.141400
49.401600 2.206900
49.436100 2.251200
49.470600 2.192400
49.505100 2.088500
49.539600 2.018600
49.574100 1.800100
49.608600 1.660300
49.643100 1.577600
49.677600 1.511900
49.712100 1.388500
49.746600 1.352600
49.781000 1.376000
49.815500 1.435100
49.850000 1.516700
49.884500 1.454400
49.919000 1.453900
49.953500 1.456000
49.988000 1.449200
50.022500 1.447600
50.057000 1.452300
50.091500 1.473700
50.126000 1.506500
50.160500 1.560100
50.195000 1.645000
50.229500 1.693900
50.263900 1.758000
50.298400 1.835700
50.332900 1.954700
50.367400 2.056800
50.401900 2.022500
50.436400 1.942200
50.470900 1.900500
50.505400 1.837000
50.539900 1.742200
50.574400 1.711800
50.608900 1.714200
50.643400 1.738500
50.677900 1.851900
50.712400 1.903400
50.746800 1.945200
50.781300 1.985000
50.815800 2.005000
50.850300 1.997700
50.884800 2.010200
50.919300 2.105200
50.953800 2.177300
50.988300 2.226500
51.022800 2.188800
51.057300 2.235300
51.091800 2.285900
51.126300 2.291300
51.160800 2.331800
51.195300 2.358100
51.229700 2.359400
51.264200 2.341100
51.298700 2.318800
51.333200 2.295000
51.367700 2.277700
51.402200 2.281600
51.436700 2.250200
51.471200 2.199300
51.505700 2.280900
51.540200 2.250300
51.574700 2.240000
51.609200 2.204700
51.643700 2.232300
51.678200 1.980900
51.712600 1.894700
51.747100 1.848300
51.781600 1.860100
51.816100 1.834300
51.850600 1.818800
51.885100 1.815600
51.919600 1.800900
51.954100 1.707400
51.988600 1.645700
52.023100 1.618900
52.057600 1.598800
52.092100 1.596000
52.126600 1.623200
52.161000 1.626800
52.195500 1.626500
52.230000 1.614400
52.264500 1.591000
52.299000 1.536300
52.333500 1.513800
52.368000 1.523800
52.402500 1.563500
52.437000 1.573800
52.471500 1.565000
52.506000 1.577000
52.540500 1.592900
52.575000 1.590500
52.609500 1.556800
52.643900 1.548100
52.678400 1.548800
52.712900 1.547400
52.747400 1.524600
52.781900 1.510300
52.816400 1.506500
52.850900 1.518500
52.885400 1.544600
52.919900 1.560100
52.954400 1.591400
52.988900 1.587700
53.023400 1.576900
53.057900 1.570600
53.092400 1.577400
53.126800 1.532800
53.161300 1.489100
53.195800 1.432000
53.230300 1.388100
53.264800 1.331500
53.299300 1.273000
53.333800 1.241100
53.368300 1.173300
53.402800 1.136700
53.437300 1.088900
53.471800 1.036200
53.506300 0.985300
53.540800 0.960500
53.575300 0.938200
53.609700 0.911300
53.644200 0.885400
53.678700 0.862700
53.713200 0.838400
53.747700 0.813700
53.782200 0.785800
53.816700 0.752500
53.851200 0.731000
53.885700 0.705800
53.920200 0.637800
53.954700 0.619400
53.989200 0.599900
54.023700 0.671300
54.058200 0.605600
54.092600 0.544700
54.127100 0.494000
54.161600 0.465800
54.196100 0.441700
54.230600 0.420300
54.265100 0.401600
54.299600 0.386100
54.334100 0.377100
54.368600 0.365900
54.403100 0.352400
54.437600 0.338600
54.472100 0.324000
54.506600 0.306000
54.541100 0.284700
54.575500 0.261600
54.610000 0.237900
54.644500 0.216900
54.679000 0.201000
54.713500 0.190200
54.748000 0.183600
54.782500 0.177200
54.817000 0.170500
54.851500 0.164100
54.886000 0.160700
54.920500 0.162700
54.955000 0.165300
54.989500 0.164500
55.023900 0.151400
55.058400 0.125100
55.092900 0.106200
55.127400 0.094900
55.161900 0.086900
55.196400 0.080000
55.230900 0.102300
55.265400 0.089800
55.299900 0.091100
55.334400 0.095100
55.368900 0.101600
55.403400 0.109700
55.437900 0.110700
55.472400 0.106300
55.506800 0.099100
55.541300 0.092800
55.575800 0.088200
55.610300 0.085100
55.644800 0.084300
55.679300 0.082500
55.713800 0.076100
55.748300 0.059000
55.782800 0.046900
55.817300 0.038100
55.851800 0.029700
55.886300 0.022400
55.920800 0.016500
55.955300 0.012200
55.989700 0.009000
56.024200 0.006300
56.058700 0.004000
56.093200 0.002300
56.127700 0.001100
56.162200 0.000300
56.196700 0.000000
56.231200 0.000000
56.265700 0.000000
56.300200 0.000000
56.334700 0.000000
56.369200 0.000000
56.403700 0.000000
56.438200 0.000000
56.472600 0.000000
56.507100 0.000000
56.541600 0.000000
56.576100 0.000000
56.610600 0.000000
56.645100 0.000000
56.679600 0.000000
56.714100 0.000000
56.748600 0.000000
56.783100 0.000000
56.817600 0.000000
56.852100 0.000000
56.886600 0.000000
56.921100 0.000000
56.955500 0.000000
56.990000 0.000000
57.024500 0.000000
57.059000 0.000000
57.093500 0.000000
57.128000 0.000000
57.162500 0.000000
57.197000 0.000000
57.231500 0.000000
57.266000 0.000000
57.300500 0.000000
57.335000 0.000000
57.369500 0.000000
57.404000 0.000000
57.438400 0.000000
57.472900 0.000000
57.507400 0.000000
57.541900 0.000000
57.576400 0.000000
57.610900 0.000000
57.645400 0.000000
57.679900 0.000000
57.714400 0.000000
57.748900 0.000000
57.783400 0.000000
57.817900 0.000000
57.852400 0.000000
57.886800 0.000000
57.921300 0.000000
57.955800 0.000000
57.990300 0.000000
58.024800 0.000000
58.059300 0.000000
58.093800 0.000000
58.128300 0.000000
58.162800 0.000000
58.197300 0.000000
58.231800 0.000000
58.266300 0.000000
58.300800 0.000000
58.335300 0.000000
58.369700 0.000000
58.404200 0.000000
58.438700 0.000000
58.473200 0.000000
58.507700 0.000000
58.542200 0.000000
58.576700 0.000000
58.611200 0.000000
58.645700 0.000000
58.680200 0.000000
58.714700 0.000000
58.749200 0.000000
58.783700 0.000000
58.818200 0.000000
58.852600 0.000000
58.887100 0.000000
58.921600 0.000000
58.956100 0.000000
58.990600 0.000000
59.025100 0.000000
59.059600 0.000000
59.094100 0.000000
59.128600 0.000000
59.163100 0.000000
59.197600 0.000000
59.232100 0.000000
59.266600 0.000000
59.301100 0.000000
59.335500 0.000000
e
