set title 'mp-1183649 - Density of States'
set xlabel 'Energy (eV)'
set ylabel 'DOS (states/eV)'
set grid
set xrange [-10:10]
set yrange [0:59.691]
set xzeroaxis lt -1
set terminal png size 800,600
set output 'mp-1183649_dos_gnuplot.png'
plot '-' using 1:2 with lines title 'DOS'
-22.030800 0.000000
-21.996900 0.000000
-21.963000 0.000000
-21.929200 0.000000
-21.895300 0.000000
-21.861400 0.000000
-21.827500 0.000000
-21.793600 0.000000
-21.759700 0.000000
-21.725800 0.000000
-21.691900 0.000000
-21.658000 0.000000
-21.624100 0.000000
-21.590200 0.000000
-21.556300 0.000000
-21.522400 0.000000
-21.488500 0.000000
-21.454600 0.000000
-21.420700 0.000000
-21.386900 0.000000
-21.353000 0.000000
-21.319100 0.000000
-21.285200 0.000000
-21.251300 0.000000
-21.217400 0.000000
-21.183500 0.000000
-21.149600 0.000000
-21.115700 0.000000
-21.081800 0.000000
-21.047900 0.000000
-21.014000 0.000000
-20.980100 0.000000
-20.946200 0.000000
-20.912300 0.000000
-20.878500 0.000000
-20.844600 0.000000
-20.810700 0.000000
-20.776800 0.000000
-20.742900 0.000000
-20.709000 0.000000
-20.675100 0.000000
-20.641200 0.000000
-20.607300 0.000000
-20.573400 0.000000
-20.539500 0.000000
-20.505600 0.000000
-20.471700 0.000000
-20.437800 0.000000
-20.403900 0.000000
-20.370100 0.000000
-20.336200 0.000000
-20.302300 0.000000
-20.268400 0.000000
-20.234500 0.000000
-20.200600 0.000000
-20.166700 0.000000
-20.132800 0.000000
-20.098900 0.000000
-20.065000 0.000000
-20.031100 0.000000
-19.997200 0.000000
-19.963300 0.000000
-19.929400 0.000000
-19.895500 0.000000
-19.861600 0.000000
-19.827800 0.000000
-19.793900 0.000000
-19.760000 0.000000
-19.726100 0.000000
-19.692200 0.000000
-19.658300 0.000000
-19.624400 0.000000
-19.590500 0.000000
-19.556600 0.000000
-19.522700 0.000000
-19.488800 0.000000
-19.454900 0.000000
-19.421000 0.000000
-19.387100 0.000000
-19.353200 0.000000
-19.319400 0.000000
-19.285500 0.000000
-19.251600 0.000000
-19.217700 0.000000
-19.183800 0.000000
-19.149900 0.000000
-19.116000 0.000000
-19.082100 0.000000
-19.048200 0.000000
-19.014300 0.000000
-18.980400 0.000000
-18.946500 20.053300
-18.912600 316.213900
-18.878700 196.449100
-18.844800 299.424600
-18.811000 16.774600
-18.777100 0.000000
-18.743200 0.000000
-18.709300 0.000000
-18.675400 0.000000
-18.641500 0.000000
-18.607600 0.000000
-18.573700 0.000000
-18.539800 0.000000
-18.505900 0.000000
-18.472000 0.000000
-18.438100 0.000000
-18.404200 0.000000
-18.370300 0.000000
-18.336400 0.000000
-18.302600 0.000000
-18.268700 0.000000
-18.234800 0.000000
-18.200900 0.000000
-18.167000 0.000000
-18.133100 0.000000
-18.099200 0.000000
-18.065300 0.000000
-18.031400 0.000000
-17.997500 0.000000
-17.963600 0.000000
-17.929700 0.000000
-17.895800 0.000000
-17.861900 0.000000
-17.828000 0.000000
-17.794100 0.000000
-17.760300 0.000000
-17.726400 0.000000
-17.692500 0.000000
-17.658600 0.000000
-17.624700 0.000000
-17.590800 0.000000
-17.556900 0.000000
-17.523000 0.000000
-17.489100 0.000000
-17.455200 0.000000
-17.421300 0.000000
-17.387400 0.000000
-17.353500 0.000000
-17.319600 0.000000
-17.285700 0.000000
-17.251900 0.000000
-17.218000 0.000000
-17.184100 0.000000
-17.150200 0.000000
-17.116300 0.000000
-17.082400 0.000000
-17.048500 0.000000
-17.014600 0.000000
-16.980700 0.000000
-16.946800 0.000000
-16.912900 0.000000
-16.879000 0.000000
-16.845100 0.000000
-16.811200 0.000000
-16.777300 0.000000
-16.743500 0.000000
-16.709600 0.000000
-16.675700 0.000000
-16.641800 0.000000
-16.607900 0.000000
-16.574000 0.000000
-16.540100 0.000000
-16.506200 0.000000
-16.472300 0.000000
-16.438400 0.000000
-16.404500 0.000000
-16.370600 0.000000
-16.336700 0.000000
-16.302800 0.000000
-16.268900 0.000000
-16.235000 0.000000
-16.201200 0.000000
-16.167300 0.000000
-16.133400 0.000000
-16.099500 0.000000
-16.065600 0.000000
-16.031700 0.000000
-15.997800 0.000000
-15.963900 0.000000
-15.930000 0.000000
-15.896100 0.000000
-15.862200 0.000000
-15.828300 0.000000
-15.794400 0.000000
-15.760500 0.000000
-15.726600 0.000000
-15.692800 0.000000
-15.658900 0.000000
-15.625000 0.000000
-15.591100 0.000000
-15.557200 0.000000
-15.523300 0.000000
-15.489400 0.000000
-15.455500 0.000000
-15.421600 0.000000
-15.387700 0.000000
-15.353800 0.000000
-15.319900 0.000000
-15.286000 0.000000
-15.252100 0.000000
-15.218200 0.000000
-15.184400 0.000000
-15.150500 0.000000
-15.116600 0.000000
-15.082700 0.000000
-15.048800 0.000000
-15.014900 0.000000
-14.981000 0.000000
-14.947100 0.000000
-14.913200 0.000000
-14.879300 0.000000
-14.845400 0.000000
-14.811500 0.000000
-14.777600 0.000000
-14.743700 0.000000
-14.709800 0.000000
-14.675900 0.000000
-14.642100 0.000000
-14.608200 0.000000
-14.574300 0.000000
-14.540400 0.000000
-14.506500 0.000000
-14.472600 0.000000
-14.438700 0.000000
-14.404800 0.000000
-14.370900 0.000000
-14.337000 0.000000
-14.303100 0.000000
-14.269200 0.000000
-14.235300 0.000000
-14.201400 0.000000
-14.167500 0.000000
-14.133700 0.000000
-14.099800 0.000000
-14.065900 0.000000
-14.032000 0.000000
-13.998100 0.000000
-13.964200 0.000000
-13.930300 0.000000
-13.896400 0.000000
-13.862500 0.000000
-13.828600 0.000000
-13.794700 0.000000
-13.760800 0.000000
-13.726900 0.000000
-13.693000 0.000000
-13.659100 0.000000
-13.625300 0.000000
-13.591400 0.000000
-13.557500 0.000000
-13.523600 0.000000
-13.489700 0.000000
-13.455800 0.000000
-13.421900 0.000000
-13.388000 0.000000
-13.354100 0.000000
-13.320200 0.000000
-13.286300 0.000000
-13.252400 0.000000
-13.218500 0.000000
-13.184600 0.000000
-13.150700 0.000000
-13.116800 0.000000
-13.083000 0.000000
-13.049100 0.000000
-13.015200 0.000000
-12.981300 0.000000
-12.947400 0.000000
-12.913500 0.000000
-12.879600 0.000000
-12.845700 0.000000
-12.811800 0.000000
-12.777900 0.000000
-12.744000 0.000000
-12.710100 0.000000
-12.676200 0.000000
-12.642300 0.000000
-12.608400 0.000000
-12.574600 0.000000
-12.540700 0.000000
-12.506800 0.000000
-12.472900 0.000000
-12.439000 0.000000
-12.405100 0.000000
-12.371200 0.000000
-12.337300 0.000000
-12.303400 0.000000
-12.269500 0.000000
-12.235600 0.000000
-12.201700 0.000000
-12.167800 0.000000
-12.133900 0.000000
-12.100000 0.000000
-12.066200 0.000000
-12.032300 0.000000
-11.998400 0.000000
-11.964500 0.000000
-11.930600 0.000000
-11.896700 0.000000
-11.862800 0.000000
-11.828900 0.000000
-11.795000 0.000000
-11.761100 0.000000
-11.727200 0.000000
-11.693300 0.000000
-11.659400 0.000000
-11.625500 0.000000
-11.591600 0.000000
-11.557700 0.000000
-11.523900 0.000000
-11.490000 0.000000
-11.456100 0.000000
-11.422200 0.000000
-11.388300 0.000000
-11.354400 0.000000
-11.320500 0.000000
-11.286600 0.000000
-11.252700 0.000000
-11.218800 0.000000
-11.184900 0.000000
-11.151000 0.000000
-11.117100 0.000000
-11.083200 0.000000
-11.049300 0.000000
-11.015500 0.000000
-10.981600 0.000000
-10.947700 0.000000
-10.913800 0.000000
-10.879900 0.000000
-10.846000 0.000000
-10.812100 0.000000
-10.778200 0.000000
-10.744300 0.000000
-10.710400 0.000000
-10.676500 0.000000
-10.642600 0.000000
-10.608700 0.000000
-10.574800 0.000000
-10.540900 0.000000
-10.507100 0.000000
-10.473200 0.000000
-10.439300 0.000000
-10.405400 0.000000
-10.371500 0.000000
-10.337600 0.000000
-10.303700 0.000000
-10.269800 0.000000
-10.235900 0.000000
-10.202000 0.000000
-10.168100 0.000000
-10.134200 0.000000
-10.100300 0.000000
-10.066400 0.000000
-10.032500 0.000000
-9.998600 0.000000
-9.964800 0.000000
-9.930900 0.000000
-9.897000 0.000000
-9.863100 0.000000
-9.829200 0.000000
-9.795300 0.000000
-9.761400 0.000000
-9.727500 0.000000
-9.693600 0.000000
-9.659700 0.000000
-9.625800 0.000000
-9.591900 0.000000
-9.558000 0.000000
-9.524100 0.000000
-9.490200 0.000000
-9.456400 0.000000
-9.422500 0.000000
-9.388600 0.000000
-9.354700 0.000000
-9.320800 0.000000
-9.286900 0.000000
-9.253000 0.000000
-9.219100 0.000000
-9.185200 0.000000
-9.151300 0.000000
-9.117400 0.000000
-9.083500 0.000000
-9.049600 0.000000
-9.015700 0.000000
-8.981800 0.000000
-8.948000 0.000000
-8.914100 0.000000
-8.880200 0.000000
-8.846300 0.000000
-8.812400 0.000000
-8.778500 0.000000
-8.744600 0.000000
-8.710700 0.000000
-8.676800 0.000000
-8.642900 0.000000
-8.609000 0.000000
-8.575100 0.000000
-8.541200 0.000000
-8.507300 0.000000
-8.473400 0.000000
-8.439600 0.000000
-8.405700 0.000000
-8.371800 0.000000
-8.337900 0.000000
-8.304000 0.000000
-8.270100 0.000000
-8.236200 0.000000
-8.202300 0.000000
-8.168400 0.000000
-8.134500 0.000000
-8.100600 0.000000
-8.066700 0.000000
-8.032800 0.000000
-7.998900 0.000000
-7.965000 0.000000
-7.931100 0.000000
-7.897300 0.000000
-7.863400 0.000000
-7.829500 0.000000
-7.795600 0.000000
-7.761700 0.000000
-7.727800 0.000000
-7.693900 0.000000
-7.660000 0.000000
-7.626100 0.000000
-7.592200 0.000000
-7.558300 0.000000
-7.524400 0.000000
-7.490500 0.000000
-7.456600 0.000000
-7.422700 0.000000
-7.388900 0.000000
-7.355000 0.000000
-7.321100 0.000000
-7.287200 0.000000
-7.253300 0.000000
-7.219400 0.000000
-7.185500 0.000000
-7.151600 0.000000
-7.117700 0.000000
-7.083800 0.000000
-7.049900 0.000000
-7.016000 0.000000
-6.982100 0.000000
-6.948200 0.000000
-6.914300 0.000000
-6.880500 0.000000
-6.846600 0.000000
-6.812700 0.000000
-6.778800 0.002900
-6.744900 0.055600
-6.711000 0.140600
-6.677100 0.182400
-6.643200 0.207300
-6.609300 0.239100
-6.575400 0.259700
-6.541500 0.292700
-6.507600 0.325300
-6.473700 0.343300
-6.439800 0.357900
-6.405900 0.376400
-6.372000 0.392600
-6.338200 0.409000
-6.304300 0.427100
-6.270400 0.446800
-6.236500 0.467500
-6.202600 0.490500
-6.168700 0.511000
-6.134800 0.524700
-6.100900 0.536700
-6.067000 0.550600
-6.033100 0.566400
-5.999200 0.582200
-5.965300 0.597800
-5.931400 0.614900
-5.897500 0.633100
-5.863600 0.652600
-5.829800 0.672800
-5.795900 0.693700
-5.762000 0.715500
-5.728100 0.737000
-5.694200 0.758400
-5.660300 0.781000
-5.626400 0.805200
-5.592500 0.843000
-5.558600 0.873700
-5.524700 0.893200
-5.490800 0.937200
-5.456900 0.932000
-5.423000 0.942800
-5.389100 0.947900
-5.355200 0.952600
-5.321400 0.959800
-5.287500 0.969400
-5.253600 0.986400
-5.219700 1.008600
-5.185800 1.027200
-5.151900 1.046600
-5.118000 1.069300
-5.084100 1.095300
-5.050200 1.128500
-5.016300 1.167700
-4.982400 1.222300
-4.948500 1.317200
-4.914600 1.395700
-4.880700 1.471400
-4.846800 1.547800
-4.812900 1.611100
-4.779100 1.668600
-4.745200 1.777500
-4.711300 1.850700
-4.677400 1.980000
-4.643500 2.129800
-4.609600 2.198400
-4.575700 2.625300
-4.541800 2.145000
-4.507900 0.832300
-4.474000 0.589800
-4.440100 1.052000
-4.406200 1.602100
-4.372300 2.524500
-4.338400 3.953000
-4.304500 3.903000
-4.270700 3.730200
-4.236800 3.945400
-4.202900 4.260300
-4.169000 4.814300
-4.135100 4.654400
-4.101200 4.334500
-4.067300 3.358000
-4.033400 3.049700
-3.999500 4.007700
-3.965600 4.433700
-3.931700 6.281300
-3.897800 7.542800
-3.863900 7.633900
-3.830000 24.435300
-3.796100 16.724300
-3.762300 14.451000
-3.728400 24.720600
-3.694500 39.891900
-3.660600 54.264600
-3.626700 12.209700
-3.592800 8.515600
-3.558900 4.419200
-3.525000 3.452300
-3.491100 2.455100
-3.457200 1.985700
-3.423300 1.675200
-3.389400 1.593300
-3.355500 1.849100
-3.321600 1.714300
-3.287700 1.786000
-3.253800 1.543400
-3.220000 1.427500
-3.186100 1.396300
-3.152200 1.406500
-3.118300 1.393900
-3.084400 1.552900
-3.050500 1.691700
-3.016600 1.894800
-2.982700 1.938600
-2.948800 1.848900
-2.914900 1.786900
-2.881000 1.682100
-2.847100 1.618100
-2.813200 1.605800
-2.779300 1.602600
-2.745400 1.564400
-2.711600 1.527500
-2.677700 1.511400
-2.643800 1.518200
-2.609900 1.538300
-2.576000 1.469300
-2.542100 1.342900
-2.508200 1.237400
-2.474300 1.329400
-2.440400 1.415000
-2.406500 1.593100
-2.372600 1.626300
-2.338700 1.639500
-2.304800 1.644400
-2.270900 1.655300
-2.237000 1.678000
-2.203200 1.697900
-2.169300 1.714400
-2.135400 1.726300
-2.101500 1.745900
-2.067600 1.752900
-2.033700 1.771600
-1.999800 1.857200
-1.965900 1.877000
-1.932000 1.915400
-1.898100 1.963600
-1.864200 2.049900
-1.830300 2.416300
-1.796400 2.105400
-1.762500 2.144200
-1.728600 2.188400
-1.694700 2.348800
-1.660900 2.404700
-1.627000 2.293900
-1.593100 2.255900
-1.559200 2.224100
-1.525300 2.303300
-1.491400 2.281000
-1.457500 2.117700
-1.423600 1.819200
-1.389700 1.606100
-1.355800 1.501200
-1.321900 1.397300
-1.288000 1.282600
-1.254100 1.233700
-1.220200 1.175500
-1.186300 1.052700
-1.152500 0.963200
-1.118600 0.893400
-1.084700 0.837200
-1.050800 0.789600
-1.016900 0.753100
-0.983000 0.709800
-0.949100 0.673900
-0.915200 0.635400
-0.881300 0.645000
-0.847400 0.594200
-0.813500 0.560100
-0.779600 0.463700
-0.745700 0.396400
-0.711800 0.356400
-0.677900 0.331200
-0.644100 0.313300
-0.610200 0.289800
-0.576300 0.278800
-0.542400 0.270100
-0.508500 0.261300
-0.474600 0.252500
-0.440700 0.243700
-0.406800 0.237600
-0.372900 0.233900
-0.339000 0.232000
-0.305100 0.231800
-0.271200 0.233500
-0.237300 0.242200
-0.203400 0.275000
-0.169500 0.304300
-0.135600 0.346900
-0.101800 0.408500
-0.067900 0.436300
-0.034000 0.447300
-0.000100 0.427700
0.033800 0.420500
0.067700 0.513700
0.101600 0.546700
0.135500 0.585400
0.169400 0.646200
0.203300 0.710600
0.237200 0.703600
0.271100 0.698900
0.305000 0.726300
0.338900 0.733000
0.372800 0.744700
0.406600 0.749900
0.440500 0.744600
0.474400 0.728200
0.508300 0.739800
0.542200 0.742200
0.576100 0.749400
0.610000 0.771700
0.643900 0.791000
0.677800 0.838100
0.711700 0.836200
0.745600 0.867000
0.779500 0.945100
0.813400 1.054100
0.847300 1.203900
0.881200 1.515400
0.915000 1.785600
0.948900 2.018400
0.982800 2.003200
1.016700 2.016500
1.050600 2.028200
1.084500 2.049100
1.118400 1.841700
1.152300 1.769600
1.186200 1.792000
1.220100 1.789800
1.254000 1.795500
1.287900 1.803400
1.321800 1.826800
1.355700 1.945400
1.389600 1.962900
1.423500 2.136900
1.457300 2.031000
1.491200 1.977600
1.525100 1.882800
1.559000 1.789300
1.592900 1.715200
1.626800 1.640000
1.660700 1.585900
1.694600 1.523400
1.728500 1.334800
1.762400 1.274800
1.796300 1.186200
1.830200 1.132300
1.864100 1.119600
1.898000 1.186800
1.931900 1.266400
1.965700 1.323400
1.999600 1.384800
2.033500 1.276100
2.067400 1.204300
2.101300 1.149200
2.135200 1.163400
2.169100 1.184400
2.203000 1.196400
2.236900 1.197500
2.270800 1.199100
2.304700 1.216200
2.338600 1.235300
2.372500 1.256000
2.406400 1.277500
2.440300 1.331700
2.474100 1.354600
2.508000 1.387600
2.541900 1.440600
2.575800 1.507800
2.609700 1.628700
2.643600 1.699500
2.677500 1.758900
2.711400 1.937400
2.745300 1.848400
2.779200 1.886200
2.813100 1.966000
2.847000 2.037300
2.880900 2.124300
2.914800 2.181000
2.948700 2.160500
2.982500 2.150500
3.016400 2.137100
3.050300 2.126800
3.084200 2.117500
3.118100 2.103500
3.152000 2.088100
3.185900 2.086400
3.219800 2.075700
3.253700 2.072500
3.287600 2.077100
3.321500 2.090600
3.355400 2.096100
3.389300 2.082000
3.423200 2.066400
3.457100 2.036600
3.491000 1.976800
3.524800 1.797100
3.558700 1.751700
3.592600 2.066700
3.626500 1.623600
3.660400 1.553700
3.694300 1.507600
3.728200 1.509300
3.762100 1.526600
3.796000 1.579700
3.829900 1.665700
3.863800 1.706600
3.897700 1.738200
3.931600 1.736300
3.965500 1.725900
3.999400 1.723200
4.033200 1.743500
4.067100 1.724900
4.101000 1.729800
4.134900 1.745400
4.168800 1.767800
4.202700 1.823300
4.236600 1.751500
4.270500 1.714600
4.304400 1.678500
4.338300 1.660700
4.372200 1.652900
4.406100 1.643200
4.440000 1.636300
4.473900 1.641500
4.507800 1.658600
4.541600 1.679200
4.575500 1.691700
4.609400 1.691400
4.643300 1.670600
4.677200 1.679600
4.711100 1.703700
4.745000 1.722300
4.778900 1.718800
4.812800 1.721600
4.846700 1.726000
4.880600 1.730400
4.914500 1.737000
4.948400 1.760700
4.982300 1.882000
5.016200 1.932700
5.050100 1.961700
5.083900 2.004400
5.117800 1.998500
5.151700 1.981100
5.185600 1.958300
5.219500 1.994700
5.253400 2.785900
5.287300 2.014400
5.321200 1.899600
5.355100 1.776800
5.389000 1.692200
5.422900 1.629500
5.456800 1.590000
5.490700 1.581000
5.524600 1.580500
5.558500 1.574100
5.592300 1.572200
5.626200 1.545800
5.660100 1.512000
5.694000 1.493100
5.727900 1.475200
5.761800 1.455100
5.795700 1.454100
5.829600 1.500500
5.863500 1.592900
5.897400 1.721400
5.931300 1.912600
5.965200 1.990900
5.999100 2.048400
6.033000 2.170900
6.066900 2.264000
6.100700 2.450100
6.134600 2.472300
6.168500 2.376100
6.202400 2.317400
6.236300 2.253400
6.270200 2.192000
6.304100 2.163900
6.338000 2.120600
6.371900 2.075900
6.405800 2.074500
6.439700 2.114800
6.473600 2.132900
6.507500 2.171800
6.541400 2.164700
6.575300 2.125800
6.609200 2.049800
6.643000 1.994500
6.676900 1.870700
6.710800 1.864100
6.744700 1.873700
6.778600 1.878700
6.812500 1.894600
6.846400 1.913500
6.880300 1.932500
6.914200 1.936700
6.948100 1.963100
6.982000 1.988200
7.015900 2.023100
7.049800 2.073700
7.083700 2.140900
7.117600 2.193600
7.151400 2.230600
7.185300 2.182300
7.219200 2.146300
7.253100 2.141000
7.287000 2.033300
7.320900 2.019200
7.354800 2.139200
7.388700 2.344400
7.422600 2.540000
7.456500 3.397800
7.490400 4.090200
7.524300 3.761100
7.558200 3.475900
7.592100 3.087600
7.626000 2.799000
7.659800 2.527900
7.693700 2.216200
7.727600 2.006900
7.761500 1.902200
7.795400 1.827800
7.829300 1.801600
7.863200 1.807500
7.897100 1.865900
7.931000 1.900500
7.964900 1.955300
7.998800 2.030300
8.032700 2.137800
8.066600 2.322200
8.100500 2.434800
8.134400 2.445800
8.168300 2.385700
8.202100 2.356900
8.236000 2.339500
8.269900 2.398900
8.303800 2.366400
8.337700 2.402800
8.371600 2.523000
8.405500 2.539500
8.439400 2.446500
8.473300 2.357100
8.507200 2.286100
8.541100 2.235600
8.575000 2.239000
8.608900 2.269000
8.642800 2.308100
8.676700 2.366700
8.710500 2.426200
8.744400 2.482200
8.778300 2.553600
8.812200 2.693400
8.846100 2.763800
8.880000 2.667500
8.913900 2.585500
8.947800 2.548000
8.981700 2.478200
9.015600 2.410300
9.049500 2.275600
9.083400 2.231500
9.117300 2.179200
9.151200 2.190900
9.185100 2.196200
9.218900 2.181100
9.252800 2.185900
9.286700 2.234700
9.320600 2.456500
9.354500 2.423700
9.388400 2.259400
9.422300 2.219100
9.456200 2.210800
9.490100 2.270300
9.524000 2.408600
9.557900 2.541700
9.591800 2.603400
9.625700 2.483500
9.659600 2.212300
9.693500 1.995500
9.727400 1.875200
9.761200 1.879500
9.795100 1.792000
9.829000 1.752300
9.862900 1.740700
9.896800 1.754200
9.930700 1.728900
9.964600 1.718400
9.998500 1.718700
10.032400 1.771900
10.066300 1.762800
10.100200 1.767700
10.134100 1.771200
10.168000 1.795100
10.201900 1.841300
10.235800 1.914600
10.269600 1.890000
10.303500 1.997500
10.337400 2.031300
10.371300 2.006200
10.405200 1.898200
10.439100 1.940600
10.473000 2.023100
10.506900 1.953300
10.540800 1.865700
10.574700 1.811600
10.608600 1.766200
10.642500 1.725900
10.676400 1.714500
10.710300 1.738800
10.744200 1.797000
10.778000 1.831400
10.811900 1.917200
10.845800 2.004600
10.879700 2.015100
10.913600 2.000600
10.947500 1.968300
10.981400 1.907500
11.015300 1.917100
11.049200 1.953600
11.083100 2.003200
11.117000 2.110700
11.150900 2.090500
11.184800 2.043500
11.218700 2.004300
11.252600 1.966000
11.286500 1.934900
11.320300 1.904400
11.354200 1.892300
11.388100 1.854400
11.422000 1.810800
11.455900 1.838500
11.489800 1.868600
11.523700 1.912200
11.557600 1.985600
11.591500 1.984800
11.625400 1.988700
11.659300 1.999200
11.693200 2.036800
11.727100 2.061800
11.761000 2.017700
11.794900 1.689000
11.828700 1.636600
11.862600 1.609400
11.896500 1.607400
11.930400 1.616800
11.964300 1.738900
11.998200 1.595900
12.032100 1.626000
12.066000 1.695400
12.099900 1.647500
12.133800 1.531100
12.167700 1.533200
12.201600 1.599400
12.235500 1.668700
12.269400 1.738700
12.303300 1.777700
12.337100 1.803000
12.371000 1.820200
12.404900 1.836500
12.438800 1.795700
12.472700 1.704500
12.506600 1.675200
12.540500 1.639500
12.574400 1.567200
12.608300 1.566800
12.642200 1.571400
12.676100 1.576000
12.710000 1.575800
12.743900 1.549400
12.777800 1.546600
12.811700 1.547900
12.845500 1.556300
12.879400 1.548900
12.913300 1.503600
12.947200 1.510600
12.981100 1.508300
13.015000 1.499400
13.048900 1.531200
13.082800 1.448900
13.116700 1.446500
13.150600 1.457600
13.184500 1.481700
13.218400 1.512300
13.252300 1.547600
13.286200 1.585600
13.320100 1.692300
13.354000 1.829200
13.387800 1.930800
13.421700 2.021300
13.455600 2.099900
13.489500 2.169800
13.523400 2.200100
13.557300 2.227900
13.591200 2.265900
13.625100 2.353300
13.659000 2.294600
13.692900 2.264500
13.726800 2.177500
13.760700 2.127000
13.794600 2.065500
13.828500 2.000700
13.862400 1.925700
13.896200 1.890900
13.930100 1.895700
13.964000 1.909500
13.997900 1.876000
14.031800 1.899400
14.065700 1.966700
14.099600 2.063200
14.133500 2.138900
14.167400 2.186600
14.201300 2.246200
14.235200 2.191000
14.269100 2.246100
14.303000 2.211100
14.336900 2.148900
14.370800 2.114800
14.404600 2.086800
14.438500 2.083100
14.472400 2.127400
14.506300 2.192400
14.540200 2.258400
14.574100 2.331800
14.608000 2.421200
14.641900 2.424000
14.675800 2.421600
14.709700 2.451000
14.743600 2.493400
14.777500 2.514000
14.811400 2.511800
14.845300 2.584400
14.879200 2.454900
14.913100 2.395000
14.946900 2.348800
14.980800 2.305400
15.014700 2.253800
15.048600 2.260900
15.082500 2.332300
15.116400 2.213600
15.150300 2.209300
15.184200 2.185900
15.218100 2.172600
15.252000 2.168400
15.285900 2.167200
15.319800 2.174500
15.353700 2.144800
15.387600 2.148300
15.421500 2.167100
15.455300 2.157000
15.489200 2.154700
15.523100 2.147100
15.557000 2.172300
15.590900 2.167800
15.624800 2.182500
15.658700 2.169400
15.692600 2.158300
15.726500 2.210400
15.760400 2.326500
15.794300 2.226500
15.828200 2.197300
15.862100 2.192800
15.896000 2.198400
15.929900 2.228900
15.963700 2.276000
15.997600 2.351600
16.031500 2.396500
16.065400 2.483600
16.099300 2.503600
16.133200 2.602000
16.167100 2.767000
16.201000 2.943800
16.234900 3.085900
16.268800 3.082400
16.302700 3.067900
16.336600 3.038600
16.370500 2.946500
16.404400 2.779300
16.438300 2.721400
16.472200 2.623900
16.506000 2.561700
16.539900 2.500000
16.573800 2.481700
16.607700 2.501900
16.641600 2.517800
16.675500 2.474200
16.709400 2.375100
16.743300 2.341800
16.777200 2.236300
16.811100 2.118000
16.845000 2.066600
16.878900 2.168100
16.912800 2.398000
16.946700 2.512500
16.980600 2.462100
17.014400 2.350500
17.048300 2.505500
17.082200 2.669800
17.116100 2.884300
17.150000 2.957200
17.183900 3.016300
17.217800 3.187800
17.251700 3.270200
17.285600 3.372200
17.319500 3.315200
17.353400 3.311800
17.387300 2.819100
17.421200 2.612500
17.455100 2.471400
17.489000 2.418000
17.522800 2.417100
17.556700 2.479500
17.590600 2.525900
17.624500 2.265100
17.658400 2.228400
17.692300 2.212100
17.726200 2.254900
17.760100 2.296700
17.794000 2.347700
17.827900 2.411500
17.861800 2.434700
17.895700 2.485500
17.929600 2.569600
17.963500 2.682500
17.997400 2.689800
18.031300 2.606400
18.065100 2.488100
18.099000 2.520700
18.132900 2.627000
18.166800 2.844300
18.200700 2.945100
18.234600 2.836400
18.268500 2.801200
18.302400 2.850100
18.336300 2.723100
18.370200 2.669400
18.404100 2.895900
18.438000 3.027000
18.471900 3.200000
18.505800 3.287900
18.539700 3.240600
18.573500 3.141900
18.607400 3.054000
18.641300 2.994500
18.675200 3.010200
18.709100 3.024900
18.743000 3.015900
18.776900 3.024700
18.810800 2.954900
18.844700 2.902500
18.878600 2.828100
18.912500 2.804800
18.946400 2.986500
18.980300 2.879000
19.014200 2.739700
19.048100 2.664700
19.081900 2.581800
19.115800 2.523700
19.149700 2.444000
19.183600 2.339700
19.217500 2.282000
19.251400 2.357300
19.285300 2.413600
19.319200 2.429400
19.353100 2.383900
19.387000 2.405500
19.420900 2.347400
19.454800 2.324000
19.488700 2.328700
19.522600 2.518100
19.556500 2.589200
19.590400 2.466000
19.624200 2.358000
19.658100 2.267200
19.692000 2.199200
19.725900 2.144700
19.759800 2.095900
19.793700 2.061500
19.827600 2.042900
19.861500 2.136900
19.895400 2.295900
19.929300 2.332300
19.963200 2.270100
19.997100 2.161200
20.031000 2.009800
20.064900 1.917700
20.098800 1.909800
20.132600 1.800100
20.166500 1.811000
20.200400 1.919700
20.234300 1.995000
20.268200 2.085000
20.302100 2.141700
20.336000 2.185200
20.369900 2.231500
20.403800 2.297600
20.437700 2.366300
20.471600 2.417800
20.505500 2.449000
20.539400 2.627900
20.573300 2.736200
20.607200 2.778400
20.641000 2.853800
20.674900 2.942600
20.708800 3.149100
20.742700 3.349700
20.776600 3.445000
20.810500 3.589200
20.844400 3.577000
20.878300 3.584000
20.912200 3.536200
20.946100 3.526300
20.980000 3.418600
21.013900 3.329700
21.047800 3.293100
21.081700 3.269400
21.115600 3.298900
21.149500 3.104000
21.183300 2.915700
21.217200 2.768200
21.251100 2.674800
21.285000 2.630200
21.318900 2.628100
21.352800 2.671100
21.386700 2.632000
21.420600 2.504900
21.454500 2.480100
21.488400 2.599100
21.522300 2.908800
21.556200 2.706000
21.590100 2.749900
21.624000 2.772600
21.657900 2.745800
21.691700 2.785000
21.725600 2.791400
21.759500 2.725200
21.793400 2.714300
21.827300 2.740200
21.861200 2.692000
21.895100 2.697500
21.929000 2.717400
21.962900 2.712200
21.996800 2.723100
22.030700 2.743300
22.064600 2.796700
22.098500 2.897100
22.132400 2.881500
22.166300 2.938500
22.200100 2.866000
22.234000 2.787500
22.267900 2.763700
22.301800 2.765900
22.335700 2.785400
22.369600 2.816100
22.403500 2.863300
22.437400 2.964200
22.471300 3.146100
22.505200 3.297700
22.539100 3.522900
22.573000 3.527000
22.606900 3.618000
22.640800 3.757100
22.674700 3.861700
22.708500 3.890400
22.742400 3.756600
22.776300 3.555800
22.810200 3.381400
22.844100 3.286300
22.878000 3.112700
22.911900 3.052700
22.945800 3.044300
22.979700 3.052800
23.013600 3.025100
23.047500 3.066400
23.081400 3.151500
23.115300 3.210300
23.149200 3.244900
23.183100 3.297300
23.217000 3.326500
23.250800 3.293100
23.284700 3.151000
23.318600 3.068900
23.352500 3.029200
23.386400 2.971700
23.420300 2.890500
23.454200 2.744500
23.488100 2.697800
23.522000 2.728000
23.555900 2.789600
23.589800 2.789100
23.623700 2.928000
23.657600 3.056600
23.691500 3.119600
23.725400 3.180300
23.759200 3.199700
23.793100 3.249300
23.827000 3.309400
23.860900 3.313200
23.894800 3.245900
23.928700 3.210400
23.962600 3.196700
23.996500 3.197100
24.030400 3.248800
24.064300 3.317800
24.098200 3.272800
24.132100 3.194900
24.166000 3.083500
24.199900 3.034000
24.233800 3.231700
24.267600 2.948300
24.301500 2.757000
24.335400 2.742300
24.369300 2.755900
24.403200 2.832900
24.437100 2.892500
24.471000 2.975800
24.504900 3.010100
24.538800 3.057700
24.572700 3.024600
24.606600 2.983300
24.640500 2.944900
24.674400 2.876600
24.708300 2.730000
24.742200 2.691300
24.776100 2.721600
24.809900 2.749200
24.843800 2.785700
24.877700 2.853500
24.911600 2.954900
24.945500 3.085800
24.979400 3.232500
25.013300 3.231000
25.047200 3.191900
25.081100 3.167900
25.115000 3.368400
25.148900 3.313700
25.182800 3.286000
25.216700 3.258300
25.250600 3.254800
25.284500 3.291500
25.318300 3.211600
25.352200 3.040000
25.386100 3.104500
25.420000 3.108400
25.453900 3.118900
25.487800 3.132400
25.521700 3.141900
25.555600 3.172100
25.589500 3.254300
25.623400 3.482100
25.657300 3.533500
25.691200 3.572900
25.725100 3.562200
25.759000 3.466300
25.792900 3.407400
25.826700 3.394500
25.860600 3.344400
25.894500 3.303300
25.928400 3.280100
25.962300 3.406100
25.996200 3.401400
26.030100 3.320000
26.064000 3.249800
26.097900 3.218100
26.131800 3.208500
26.165700 3.229300
26.199600 3.289100
26.233500 3.308300
26.267400 3.305600
26.301300 3.253100
26.335200 3.172100
26.369000 3.084000
26.402900 3.070000
26.436800 3.064400
26.470700 3.058700
26.504600 3.174900
26.538500 3.204700
26.572400 3.116000
26.606300 3.068200
26.640200 3.119100
26.674100 3.185900
26.708000 3.247500
26.741900 3.318000
26.775800 3.356400
26.809700 3.415900
26.843600 3.418300
26.877400 3.449400
26.911300 3.554600
26.945200 3.376300
26.979100 3.327800
27.013000 3.257900
27.046900 3.242000
27.080800 3.356000
27.114700 3.525100
27.148600 3.411500
27.182500 3.384300
27.216400 3.342100
27.250300 3.295400
27.284200 3.248800
27.318100 3.251100
27.352000 3.311500
27.385800 3.423900
27.419700 3.461100
27.453600 3.394100
27.487500 3.370800
27.521400 3.358000
27.555300 3.313500
27.589200 3.323200
27.623100 3.244800
27.657000 3.184100
27.690900 3.132300
27.724800 3.097800
27.758700 3.100300
27.792600 3.246300
27.826500 3.338000
27.860400 3.205600
27.894300 3.219700
27.928100 3.246700
27.962000 3.217900
27.995900 3.255700
28.029800 3.364700
28.063700 3.490500
28.097600 3.624800
28.131500 3.753400
28.165400 3.580100
28.199300 3.444800
28.233200 3.377600
28.267100 3.328200
28.301000 3.307900
28.334900 3.581900
28.368800 3.540700
28.402700 3.585800
28.436500 3.625000
28.470400 3.656500
28.504300 3.733500
28.538200 3.808400
28.572100 3.813400
28.606000 3.834100
28.639900 3.818200
28.673800 3.773500
28.707700 3.652300
28.741600 3.613300
28.775500 3.602200
28.809400 3.587600
28.843300 3.613100
28.877200 3.663800
28.911100 3.781700
28.944900 3.889800
28.978800 3.892800
29.012700 3.865400
29.046600 3.825600
29.080500 3.810000
29.114400 3.787600
29.148300 3.710200
29.182200 3.651000
29.216100 3.571300
29.250000 3.455200
29.283900 3.341600
29.317800 3.331200
29.351700 3.337900
29.385600 3.249000
29.419500 3.218100
29.453400 3.234500
29.487200 3.275700
29.521100 3.313900
29.555000 3.445700
29.588900 3.624000
29.622800 3.702300
29.656700 3.678900
29.690600 3.708700
29.724500 3.802200
29.758400 3.887600
29.792300 3.906700
29.826200 3.829500
29.860100 3.761300
29.894000 3.726700
29.927900 3.667100
29.961800 3.590900
29.995600 3.431600
30.029500 3.328300
30.063400 3.283500
30.097300 3.312300
30.131200 3.361300
30.165100 3.425500
30.199000 3.516900
30.232900 3.600300
30.266800 3.565000
30.300700 3.474400
30.334600 3.444900
30.368500 3.457300
30.402400 3.538300
30.436300 3.661000
30.470200 3.850300
30.504000 4.008700
30.537900 4.205300
30.571800 4.208400
30.605700 3.794800
30.639600 3.681900
30.673500 3.550000
30.707400 3.546100
30.741300 3.492700
30.775200 3.412000
30.809100 3.424800
30.843000 3.481200
30.876900 3.515100
30.910800 3.602500
30.944700 3.674100
30.978600 3.737200
31.012500 3.800300
31.046300 3.834100
31.080200 3.789300
31.114100 3.732000
31.148000 3.666300
31.181900 3.617500
31.215800 3.603700
31.249700 3.529100
31.283600 3.494900
31.317500 3.282000
31.351400 3.190200
31.385300 3.137700
31.419200 3.109900
31.453100 3.070100
31.487000 3.171100
31.520900 3.161000
31.554700 3.203000
31.588600 3.240900
31.622500 3.266600
31.656400 3.277300
31.690300 3.306600
31.724200 3.349600
31.758100 3.377000
31.792000 3.241900
31.825900 3.249400
31.859800 3.239300
31.893700 3.226900
31.927600 3.202000
31.961500 3.176000
31.995400 3.144400
32.029300 3.235700
32.063100 3.234900
32.097000 3.185600
32.130900 3.169700
32.164800 3.269700
32.198700 3.299600
32.232600 3.264500
32.266500 3.267200
32.300400 3.265900
32.334300 3.377100
32.368200 3.536200
32.402100 3.438300
32.436000 3.393500
32.469900 3.401400
32.503800 3.435000
32.537700 3.583600
32.571500 3.490800
32.605400 3.411000
32.639300 3.392800
32.673200 3.413200
32.707100 3.375300
32.741000 3.343600
32.774900 3.310400
32.808800 3.308200
32.842700 3.295800
32.876600 3.345600
32.910500 3.437100
32.944400 3.550100
32.978300 3.600600
33.012200 3.544400
33.046100 3.534000
33.080000 3.523900
33.113800 3.486700
33.147700 3.429400
33.181600 3.278400
33.215500 3.210700
33.249400 3.259600
33.283300 3.347400
33.317200 3.492000
33.351100 3.649700
33.385000 3.779100
33.418900 3.834600
33.452800 3.878900
33.486700 3.992700
33.520600 4.088600
33.554500 4.188400
33.588400 4.240900
33.622200 4.210700
33.656100 4.026800
33.690000 3.860300
33.723900 3.676600
33.757800 3.431700
33.791700 3.209700
33.825600 3.307400
33.859500 3.420100
33.893400 3.419900
33.927300 3.397800
33.961200 3.324400
33.995100 3.240100
34.029000 3.192400
34.062900 3.149600
34.096800 3.119600
34.130600 3.196500
34.164500 3.361500
34.198400 3.416800
34.232300 3.526600
34.266200 3.633200
34.300100 3.682600
34.334000 3.621600
34.367900 3.538300
34.401800 3.401300
34.435700 3.352300
34.469600 3.286700
34.503500 3.163400
34.537400 3.076300
34.571300 3.048700
34.605200 3.054400
34.639100 3.086100
34.672900 3.161400
34.706800 3.224800
34.740700 3.349700
34.774600 3.392200
34.808500 3.577200
34.842400 3.634300
34.876300 3.547900
34.910200 3.436500
34.944100 3.374500
34.978000 3.424000
35.011900 3.358900
35.045800 3.444900
35.079700 3.613700
35.113600 3.815900
35.147500 3.992900
35.181300 4.121300
35.215200 4.416100
35.249100 4.182700
35.283000 4.126900
35.316900 4.018900
35.350800 4.015900
35.384700 3.944400
35.418600 3.872300
35.452500 3.837200
35.486400 4.083900
35.520300 4.050800
35.554200 3.979000
35.588100 3.899200
35.622000 3.768700
35.655900 3.782800
35.689700 3.827800
35.723600 3.876500
35.757500 3.892800
35.791400 3.926300
35.825300 3.992100
35.859200 3.946600
35.893100 3.966200
35.927000 3.916500
35.960900 3.820600
35.994800 3.697500
36.028700 3.622900
36.062600 3.592400
36.096500 3.630400
36.130400 3.673900
36.164300 3.719800
36.198200 3.798000
36.232000 3.831000
36.265900 3.869500
36.299800 3.881400
36.333700 3.837400
36.367600 3.817400
36.401500 3.856800
36.435400 3.982000
36.469300 3.921900
36.503200 3.864600
36.537100 3.841100
36.571000 3.683000
36.604900 3.670400
36.638800 3.590100
36.672700 3.485300
36.706600 3.406000
36.740400 3.343700
36.774300 3.299000
36.808200 3.265300
36.842100 3.249000
36.876000 3.248100
36.909900 3.249700
36.943800 3.251100
36.977700 3.283200
37.011600 3.372500
37.045500 3.402800
37.079400 3.482600
37.113300 3.557700
37.147200 3.577400
37.181100 3.609200
37.215000 3.664100
37.248800 3.705700
37.282700 3.827500
37.316600 3.793900
37.350500 3.816900
37.384400 3.814800
37.418300 3.742000
37.452200 3.724900
37.486100 3.735100
37.520000 3.765800
37.553900 3.680600
37.587800 3.653300
37.621700 3.642800
37.655600 3.560800
37.689500 3.527200
37.723400 3.585600
37.757300 3.608100
37.791100 3.683700
37.825000 3.738000
37.858900 3.828900
37.892800 3.921000
37.926700 4.124400
37.960600 3.976800
37.994500 3.877100
38.028400 3.757200
38.062300 3.654100
38.096200 3.610400
38.130100 3.636000
38.164000 3.776500
38.197900 3.864500
38.231800 3.926500
38.265700 4.042400
38.299500 4.172500
38.333400 4.133900
38.367300 4.007200
38.401200 3.958600
38.435100 3.842900
38.469000 3.796200
38.502900 3.763200
38.536800 3.754200
38.570700 3.831100
38.604600 3.719000
38.638500 3.683600
38.672400 3.672600
38.706300 3.729700
38.740200 3.721700
38.774100 3.729300
38.807900 3.725600
38.841800 3.800400
38.875700 3.803100
38.909600 3.770100
38.943500 3.850900
38.977400 3.737500
39.011300 3.787500
39.045200 3.789000
39.079100 3.842400
39.113000 3.953900
39.146900 3.973700
39.180800 4.148000
39.214700 4.295200
39.248600 4.329100
39.282500 4.171800
39.316400 4.058200
39.350200 3.967000
39.384100 3.944400
39.418000 4.007700
39.451900 3.938200
39.485800 3.980300
39.519700 4.010100
39.553600 4.299600
39.587500 3.987200
39.621400 3.935300
39.655300 3.965700
39.689200 4.032800
39.723100 4.113200
39.757000 4.225100
39.790900 4.289600
39.824800 4.186400
39.858600 4.061500
39.892500 3.986400
39.926400 3.938700
39.960300 3.843300
39.994200 3.771200
40.028100 3.722400
40.062000 3.676000
40.095900 3.630800
40.129800 3.578900
40.163700 3.567800
40.197600 3.598100
40.231500 3.674800
40.265400 3.721200
40.299300 3.549900
40.333200 3.409300
40.367000 3.355800
40.400900 3.221700
40.434800 3.103600
40.468700 3.105000
40.502600 3.144500
40.536500 3.130900
40.570400 3.100200
40.604300 3.121800
40.638200 2.957400
40.672100 2.695600
40.706000 2.629400
40.739900 2.587300
40.773800 2.577200
40.807700 2.658200
40.841600 2.895300
40.875500 2.869400
40.909300 2.850900
40.943200 2.926700
40.977100 2.943400
41.011000 2.915500
41.044900 2.917900
41.078800 2.833800
41.112700 2.739500
41.146600 2.609900
41.180500 2.439000
41.214400 2.254200
41.248300 2.150900
41.282200 2.067200
41.316100 2.000100
41.350000 1.922200
41.383900 1.881700
41.417700 1.855800
41.451600 1.828200
41.485500 1.834900
41.519400 1.786600
41.553300 1.781200
41.587200 1.774600
41.621100 1.745700
41.655000 1.700300
41.688900 1.615600
41.722800 1.527400
41.756700 1.439600
41.790600 1.339600
41.824500 1.179400
41.858400 1.078400
41.892300 0.981300
41.926100 0.929700
41.960000 1.032800
41.993900 0.816500
42.027800 0.747900
42.061700 0.677100
42.095600 0.632300
42.129500 0.593600
42.163400 0.554300
42.197300 0.500200
42.231200 0.441200
42.265100 0.384600
42.299000 0.327200
42.332900 0.269000
42.366800 0.227600
42.400700 0.135700
42.434500 0.101800
42.468400 0.073100
42.502300 0.050200
42.536200 0.033200
42.570100 0.021900
42.604000 0.013000
42.637900 0.005600
42.671800 0.000300
42.705700 0.000000
42.739600 0.000000
42.773500 0.000000
42.807400 0.000000
42.841300 0.000000
42.875200 0.000000
42.909100 0.000000
42.943000 0.000000
42.976800 0.000000
43.010700 0.000000
43.044600 0.000000
43.078500 0.000000
43.112400 0.000000
43.146300 0.000000
43.180200 0.000000
43.214100 0.000000
43.248000 0.000000
43.281900 0.000000
43.315800 0.000000
43.349700 0.000000
43.383600 0.000000
43.417500 0.000000
43.451400 0.000000
43.485200 0.000000
43.519100 0.000000
43.553000 0.000000
43.586900 0.000000
43.620800 0.000000
43.654700 0.000000
43.688600 0.000000
43.722500 0.000000
43.756400 0.000000
43.790300 0.000000
43.824200 0.000000
43.858100 0.000000
43.892000 0.000000
43.925900 0.000000
43.959800 0.000000
43.993600 0.000000
44.027500 0.000000
44.061400 0.000000
44.095300 0.000000
44.129200 0.000000
44.163100 0.000000
44.197000 0.000000
44.230900 0.000000
44.264800 0.000000
44.298700 0.000000
44.332600 0.000000
44.366500 0.000000
44.400400 0.000000
44.434300 0.000000
44.468200 0.000000
44.502100 0.000000
44.535900 0.000000
44.569800 0.000000
44.603700 0.000000
44.637600 0.000000
44.671500 0.000000
44.705400 0.000000
44.739300 0.000000
44.773200 0.000000
44.807100 0.000000
44.841000 0.000000
44.874900 0.000000
44.908800 0.000000
44.942700 0.000000
44.976600 0.000000
45.010500 0.000000
45.044300 0.000000
45.078200 0.000000
45.112100 0.000000
45.146000 0.000000
45.179900 0.000000
45.213800 0.000000
45.247700 0.000000
45.281600 0.000000
45.315500 0.000000
45.349400 0.000000
45.383300 0.000000
45.417200 0.000000
45.451100 0.000000
45.485000 0.000000
45.518900 0.000000
45.552700 0.000000
45.586600 0.000000
45.620500 0.000000
45.654400 0.000000
45.688300 0.000000
45.722200 0.000000
45.756100 0.000000
e
