set title 'mp-1061054 - Density of States'
set xlabel 'Energy (eV)'
set ylabel 'DOS (states/eV)'
set grid
set xrange [-10:10]
set yrange [0:1.234]
set xzeroaxis lt -1
set terminal png size 800,600
set output 'mp-1061054_dos_gnuplot.png'
plot '-' using 1:2 with lines title 'DOS'
-20.771500 0.000000
-20.735900 0.000000
-20.700300 0.000000
-20.664800 0.000000
-20.629200 0.000000
-20.593700 0.000000
-20.558100 0.000000
-20.522500 0.000000
-20.487000 0.000000
-20.451400 0.000000
-20.415900 0.000000
-20.380300 0.000000
-20.344700 0.000000
-20.309200 0.000000
-20.273600 0.000000
-20.238100 0.000000
-20.202500 0.000000
-20.166900 0.000000
-20.131400 0.000000
-20.095800 0.000000
-20.060300 0.000000
-20.024700 0.000000
-19.989100 0.000000
-19.953600 0.000000
-19.918000 0.000000
-19.882500 0.000000
-19.846900 0.000000
-19.811300 0.000000
-19.775800 0.000000
-19.740200 0.000000
-19.704600 0.000000
-19.669100 0.000000
-19.633500 0.000000
-19.598000 0.000000
-19.562400 0.000000
-19.526800 0.000000
-19.491300 0.000000
-19.455700 0.000000
-19.420200 0.000000
-19.384600 0.000000
-19.349000 0.000000
-19.313500 0.000000
-19.277900 0.000000
-19.242400 0.000000
-19.206800 0.000000
-19.171200 0.000000
-19.135700 0.000000
-19.100100 0.000000
-19.064600 0.000000
-19.029000 0.000000
-18.993400 0.000000
-18.957900 0.000000
-18.922300 0.000000
-18.886800 0.000000
-18.851200 0.000000
-18.815600 0.000000
-18.780100 0.000000
-18.744500 0.000000
-18.709000 0.000000
-18.673400 0.000000
-18.637800 0.000000
-18.602300 0.000000
-18.566700 0.000000
-18.531200 0.000000
-18.495600 0.000000
-18.460000 0.000000
-18.424500 0.000000
-18.388900 0.000000
-18.353400 0.000000
-18.317800 0.000000
-18.282200 0.000000
-18.246700 0.000000
-18.211100 0.000000
-18.175600 0.000000
-18.140000 0.000000
-18.104400 0.000000
-18.068900 0.000000
-18.033300 0.000000
-17.997800 0.000000
-17.962200 0.000000
-17.926600 0.000000
-17.891100 0.000000
-17.855500 0.000000
-17.820000 0.000000
-17.784400 0.000000
-17.748800 0.000000
-17.713300 0.000000
-17.677700 0.000000
-17.642200 0.000000
-17.606600 0.000000
-17.571000 0.000000
-17.535500 1.748800
-17.499900 31.159800
-17.464400 84.211500
-17.428800 95.779000
-17.393200 76.883400
-17.357700 111.723300
-17.322100 155.487900
-17.286600 29.704800
-17.251000 18.840300
-17.215400 1.567100
-17.179900 0.000000
-17.144300 0.000000
-17.108800 0.000000
-17.073200 0.000000
-17.037600 0.000000
-17.002100 0.000000
-16.966500 0.000000
-16.931000 0.000000
-16.895400 0.000000
-16.859800 0.000000
-16.824300 0.000000
-16.788700 0.000000
-16.753200 0.000000
-16.717600 0.000000
-16.682000 0.000000
-16.646500 0.000000
-16.610900 0.000000
-16.575400 0.000000
-16.539800 0.000000
-16.504200 0.000000
-16.468700 0.000000
-16.433100 0.000000
-16.397600 0.000000
-16.362000 0.000000
-16.326400 0.000000
-16.290900 0.000000
-16.255300 0.000000
-16.219800 0.000000
-16.184200 0.000000
-16.148600 0.000000
-16.113100 0.000000
-16.077500 0.000000
-16.042000 0.000000
-16.006400 0.000000
-15.970800 0.000000
-15.935300 0.000000
-15.899700 0.000000
-15.864100 0.000000
-15.828600 0.000000
-15.793000 0.000000
-15.757500 0.000000
-15.721900 0.000000
-15.686300 0.000000
-15.650800 0.000000
-15.615200 0.000000
-15.579700 0.000000
-15.544100 0.000000
-15.508500 0.000000
-15.473000 0.000000
-15.437400 0.000000
-15.401900 0.000000
-15.366300 0.000000
-15.330700 0.000000
-15.295200 0.000000
-15.259600 0.000000
-15.224100 0.000000
-15.188500 0.000000
-15.152900 0.000000
-15.117400 0.000000
-15.081800 0.000000
-15.046300 0.000000
-15.010700 0.000000
-14.975100 0.000000
-14.939600 0.000000
-14.904000 0.000000
-14.868500 0.000000
-14.832900 0.000000
-14.797300 0.000000
-14.761800 0.000000
-14.726200 0.000000
-14.690700 0.000000
-14.655100 0.000000
-14.619500 0.000000
-14.584000 0.000000
-14.548400 0.000000
-14.512900 0.000000
-14.477300 0.000000
-14.441700 0.000000
-14.406200 0.000000
-14.370600 0.000000
-14.335100 0.000000
-14.299500 0.000000
-14.263900 0.000000
-14.228400 0.000000
-14.192800 0.000000
-14.157300 0.000000
-14.121700 0.000000
-14.086100 0.000000
-14.050600 0.000000
-14.015000 0.000000
-13.979500 0.000000
-13.943900 0.000000
-13.908300 0.000000
-13.872800 0.000000
-13.837200 0.000000
-13.801700 0.000000
-13.766100 0.000000
-13.730500 0.000000
-13.695000 0.000000
-13.659400 0.000000
-13.623900 0.000000
-13.588300 0.000000
-13.552700 0.000000
-13.517200 0.000000
-13.481600 0.000000
-13.446100 0.000000
-13.410500 0.000000
-13.374900 0.000000
-13.339400 0.000000
-13.303800 0.000000
-13.268300 0.000000
-13.232700 0.000000
-13.197100 0.000000
-13.161600 0.000000
-13.126000 0.000000
-13.090500 0.000000
-13.054900 0.000000
-13.019300 0.000000
-12.983800 0.000000
-12.948200 0.000000
-12.912700 0.000000
-12.877100 0.000000
-12.841500 0.000000
-12.806000 0.000000
-12.770400 0.000000
-12.734900 0.000000
-12.699300 0.000000
-12.663700 0.000000
-12.628200 0.000000
-12.592600 0.000000
-12.557100 0.000000
-12.521500 0.000000
-12.485900 0.000000
-12.450400 0.000000
-12.414800 0.000000
-12.379300 0.000000
-12.343700 0.000000
-12.308100 0.000000
-12.272600 0.000000
-12.237000 0.000000
-12.201500 0.000000
-12.165900 0.000000
-12.130300 0.000000
-12.094800 0.000000
-12.059200 0.000000
-12.023600 0.000000
-11.988100 0.000000
-11.952500 0.000000
-11.917000 0.000000
-11.881400 0.000000
-11.845800 0.000000
-11.810300 0.000000
-11.774700 0.000000
-11.739200 0.000000
-11.703600 0.000000
-11.668000 0.000000
-11.632500 0.000000
-11.596900 0.000000
-11.561400 0.000000
-11.525800 0.000000
-11.490200 0.000000
-11.454700 0.000000
-11.419100 0.000000
-11.383600 0.000000
-11.348000 0.000000
-11.312400 0.000000
-11.276900 0.000000
-11.241300 0.000000
-11.205800 0.000000
-11.170200 0.000000
-11.134600 0.000000
-11.099100 0.000000
-11.063500 0.000000
-11.028000 0.000000
-10.992400 0.000000
-10.956800 0.000000
-10.921300 0.000000
-10.885700 0.000000
-10.850200 0.000000
-10.814600 0.000000
-10.779000 0.000000
-10.743500 0.000000
-10.707900 0.000000
-10.672400 0.000000
-10.636800 0.000000
-10.601200 0.000000
-10.565700 0.000000
-10.530100 0.000000
-10.494600 0.000000
-10.459000 0.000000
-10.423400 0.000000
-10.387900 0.000000
-10.352300 0.000000
-10.316800 0.000000
-10.281200 0.000000
-10.245600 0.000000
-10.210100 0.000000
-10.174500 0.000000
-10.139000 0.000000
-10.103400 0.000000
-10.067800 0.000000
-10.032300 0.000000
-9.996700 0.000000
-9.961200 0.000000
-9.925600 0.000000
-9.890000 0.000000
-9.854500 0.000000
-9.818900 0.000000
-9.783400 0.000000
-9.747800 0.000000
-9.712200 0.000000
-9.676700 0.000000
-9.641100 0.000000
-9.605600 0.000000
-9.570000 0.000000
-9.534400 0.000000
-9.498900 0.000000
-9.463300 0.000000
-9.427800 0.000000
-9.392200 0.000000
-9.356600 0.000000
-9.321100 0.000000
-9.285500 0.000000
-9.250000 0.000000
-9.214400 0.000000
-9.178800 0.000000
-9.143300 0.000000
-9.107700 0.000000
-9.072200 0.000000
-9.036600 0.000000
-9.001000 0.000000
-8.965500 0.000000
-8.929900 0.000000
-8.894400 0.000000
-8.858800 0.000000
-8.823200 0.000000
-8.787700 0.000000
-8.752100 0.000000
-8.716600 0.000000
-8.681000 0.000000
-8.645400 0.000000
-8.609900 0.000000
-8.574300 0.000000
-8.538800 0.000000
-8.503200 0.000000
-8.467600 0.000000
-8.432100 0.000000
-8.396500 0.000000
-8.361000 0.000000
-8.325400 0.000000
-8.289800 0.000000
-8.254300 0.000000
-8.218700 0.000000
-8.183100 0.000000
-8.147600 0.000000
-8.112000 0.000000
-8.076500 0.000000
-8.040900 0.000000
-8.005300 0.000000
-7.969800 0.000000
-7.934200 0.000000
-7.898700 0.000000
-7.863100 0.000000
-7.827500 0.000000
-7.792000 0.000000
-7.756400 0.000000
-7.720900 0.000000
-7.685300 0.000000
-7.649700 0.000000
-7.614200 0.000000
-7.578600 0.000000
-7.543100 0.000000
-7.507500 0.000000
-7.471900 0.000000
-7.436400 0.000000
-7.400800 0.000000
-7.365300 0.000000
-7.329700 0.000000
-7.294100 0.000000
-7.258600 0.000000
-7.223000 0.000000
-7.187500 0.000000
-7.151900 0.000000
-7.116300 0.000000
-7.080800 0.000000
-7.045200 0.000000
-7.009700 0.000000
-6.974100 0.000000
-6.938500 0.000000
-6.903000 0.000000
-6.867400 0.000000
-6.831900 0.000000
-6.796300 0.000000
-6.760700 0.000000
-6.725200 0.000000
-6.689600 0.000000
-6.654100 0.000000
-6.618500 0.000000
-6.582900 0.000000
-6.547400 0.018500
-6.511800 0.040500
-6.476300 0.070800
-6.440700 0.095300
-6.405100 0.101200
-6.369600 0.107300
-6.334000 0.118300
-6.298500 0.132000
-6.262900 0.146600
-6.227300 0.156500
-6.191800 0.162000
-6.156200 0.167700
-6.120700 0.175100
-6.085100 0.182100
-6.049500 0.188900
-6.014000 0.195600
-5.978400 0.203000
-5.942900 0.210000
-5.907300 0.215900
-5.871700 0.221300
-5.836200 0.227100
-5.800600 0.233400
-5.765100 0.239600
-5.729500 0.244800
-5.693900 0.250000
-5.658400 0.255400
-5.622800 0.261200
-5.587300 0.267000
-5.551700 0.271800
-5.516100 0.275500
-5.480600 0.279500
-5.445000 0.283400
-5.409500 0.287500
-5.373900 0.292200
-5.338300 0.297100
-5.302800 0.301900
-5.267200 0.306700
-5.231700 0.311600
-5.196100 0.316700
-5.160500 0.322000
-5.125000 0.327400
-5.089400 0.332300
-5.053900 0.335900
-5.018300 0.339200
-4.982700 0.342400
-4.947200 0.345900
-4.911600 0.349400
-4.876100 0.353000
-4.840500 0.356600
-4.804900 0.360300
-4.769400 0.364000
-4.733800 0.367800
-4.698300 0.372000
-4.662700 0.376500
-4.627100 0.381300
-4.591600 0.385700
-4.556000 0.390000
-4.520500 0.394400
-4.484900 0.398200
-4.449300 0.401400
-4.413800 0.405100
-4.378200 0.409000
-4.342700 0.413200
-4.307100 0.418100
-4.271500 0.423500
-4.236000 0.429700
-4.200400 0.436600
-4.164800 0.444500
-4.129300 0.450700
-4.093700 0.456000
-4.058200 0.460100
-4.022600 0.463100
-3.987000 0.465000
-3.951500 0.466900
-3.915900 0.468800
-3.880400 0.470800
-3.844800 0.474600
-3.809200 0.503000
-3.773700 0.500800
-3.738100 0.479300
-3.702600 0.468100
-3.667000 0.462200
-3.631400 0.461800
-3.595900 0.464400
-3.560300 0.468400
-3.524800 0.474100
-3.489200 0.481600
-3.453600 0.490900
-3.418100 0.496400
-3.382500 0.499700
-3.347000 0.503400
-3.311400 0.506700
-3.275800 0.509800
-3.240300 0.513200
-3.204700 0.517500
-3.169200 0.521700
-3.133600 0.526900
-3.098000 0.533200
-3.062500 0.565700
-3.026900 0.575700
-2.991400 0.578700
-2.955800 0.585300
-2.920200 0.595700
-2.884700 0.594200
-2.849100 0.596500
-2.813600 0.604200
-2.778000 0.611400
-2.742400 0.613100
-2.706900 0.619100
-2.671300 0.626800
-2.635800 0.634300
-2.600200 0.641100
-2.564600 0.663300
-2.529100 0.653400
-2.493500 0.649400
-2.458000 0.649100
-2.422400 0.650200
-2.386800 0.662100
-2.351300 0.692700
-2.315700 0.700100
-2.280200 0.690000
-2.244600 0.683500
-2.209000 0.683500
-2.173500 0.688100
-2.137900 0.693700
-2.102400 0.699600
-2.066800 0.706500
-2.031200 0.714800
-1.995700 0.724200
-1.960100 0.734100
-1.924600 0.750400
-1.889000 0.768400
-1.853400 0.777100
-1.817900 0.796400
-1.782300 0.836100
-1.746800 0.862000
-1.711200 0.884000
-1.675600 0.903500
-1.640100 0.910100
-1.604500 0.899500
-1.569000 0.894100
-1.533400 0.887900
-1.497800 0.875500
-1.462300 0.852800
-1.426700 0.835400
-1.391200 0.821600
-1.355600 0.812500
-1.320000 0.812200
-1.284500 0.851000
-1.248900 0.858400
-1.213400 0.803700
-1.177800 0.780200
-1.142200 0.648600
-1.106700 0.578400
-1.071100 0.549200
-1.035600 0.525000
-1.000000 0.502100
-0.964400 0.480800
-0.928900 0.460300
-0.893300 0.445900
-0.857800 0.439900
-0.822200 0.431900
-0.786600 0.431000
-0.751100 0.430400
-0.715500 0.430200
-0.680000 0.430600
-0.644400 0.431200
-0.608800 0.433000
-0.573300 0.435900
-0.537700 0.441200
-0.502200 0.459300
-0.466600 0.463700
-0.431000 0.467300
-0.395500 0.477200
-0.359900 0.490900
-0.324300 0.508600
-0.288800 0.532800
-0.253200 0.577600
-0.217700 0.626600
-0.182100 0.643600
-0.146500 0.651700
-0.111000 0.651200
-0.075400 0.641300
-0.039900 0.608200
-0.004300 0.577800
0.031300 0.550900
0.066800 0.528000
0.102400 0.509800
0.137900 0.494800
0.173500 0.482600
0.209100 0.472500
0.244600 0.464600
0.280200 0.457900
0.315700 0.451900
0.351300 0.446200
0.386900 0.440900
0.422400 0.436100
0.458000 0.432000
0.493500 0.428300
0.529100 0.424100
0.564700 0.420400
0.600200 0.417700
0.635800 0.417000
0.671300 0.435300
0.706900 0.451500
0.742500 0.455200
0.778000 0.431800
0.813600 0.420700
0.849100 0.411700
0.884700 0.403400
0.920300 0.397900
0.955800 0.399400
0.991400 0.403400
1.026900 0.382200
1.062500 0.380200
1.098100 0.378800
1.133600 0.377500
1.169200 0.377100
1.204700 0.377300
1.240300 0.394200
1.275900 0.392100
1.311400 0.391700
1.347000 0.388000
1.382500 0.385600
1.418100 0.385700
1.453700 0.385500
1.489200 0.385600
1.524800 0.385900
1.560300 0.386100
1.595900 0.385800
1.631500 0.384600
1.667000 0.387200
1.702600 0.423800
1.738100 0.444100
1.773700 0.478300
1.809300 0.524000
1.844800 0.561200
1.880400 0.588700
1.915900 0.609400
1.951500 0.623000
1.987100 0.636600
2.022600 0.651000
2.058200 0.664100
2.093700 0.677000
2.129300 0.691000
2.164900 0.707300
2.200400 0.723500
2.236000 0.748200
2.271500 0.769800
2.307100 0.783600
2.342700 0.783200
2.378200 0.776400
2.413800 0.776100
2.449300 0.787200
2.484900 0.775800
2.520500 0.776800
2.556000 0.774600
2.591600 0.775900
2.627100 0.778100
2.662700 0.779000
2.698300 0.779000
2.733800 0.779800
2.769400 0.786000
2.804900 0.795100
2.840500 0.773300
2.876100 0.764200
2.911600 0.751200
2.947200 0.751700
2.982700 0.748500
3.018300 0.752700
3.053900 0.745900
3.089400 0.743800
3.125000 0.744200
3.160500 0.745600
3.196100 0.744000
3.231700 0.751400
3.267200 0.746000
3.302800 0.746300
3.338300 0.747700
3.373900 0.752500
3.409500 0.754600
3.445000 0.756200
3.480600 0.757600
3.516200 0.760600
3.551700 0.764300
3.587300 0.769300
3.622800 0.790000
3.658400 0.777400
3.694000 0.782700
3.729500 0.787600
3.765100 0.793300
3.800600 0.800900
3.836200 0.812800
3.871800 0.825600
3.907300 0.836500
3.942900 0.844500
3.978400 0.851600
4.014000 0.856400
4.049600 0.861300
4.085100 0.871700
4.120700 0.887700
4.156200 0.905500
4.191800 0.927800
4.227400 0.954600
4.262900 0.977700
4.298500 1.000800
4.334000 1.023700
4.369600 1.047400
4.405200 1.071000
4.440700 1.092400
4.476300 1.121600
4.511800 1.104000
4.547400 1.089800
4.583000 1.074400
4.618500 1.087900
4.654100 1.081300
4.689600 1.075500
4.725200 1.063400
4.760800 1.052000
4.796300 1.039400
4.831900 1.037500
4.867400 1.041900
4.903000 1.047500
4.938600 1.050100
4.974100 1.057100
5.009700 1.066900
5.045200 1.080400
5.080800 1.088900
5.116400 1.084500
5.151900 1.090300
5.187500 1.102900
5.223000 1.109900
5.258600 1.113100
5.294200 1.118600
5.329700 1.120500
5.365300 1.062600
5.400800 1.013700
5.436400 0.969900
5.472000 0.930800
5.507500 0.853100
5.543100 0.824400
5.578600 0.813900
5.614200 0.807200
5.649800 0.808300
5.685300 0.805300
5.720900 0.809300
5.756400 0.832200
5.792000 0.848500
5.827600 0.848300
5.863100 0.851800
5.898700 0.854000
5.934200 0.854900
5.969800 0.858100
6.005400 0.865500
6.040900 0.873400
6.076500 0.876900
6.112000 0.870300
6.147600 0.865100
6.183200 0.856500
6.218700 0.850600
6.254300 0.844300
6.289800 0.834900
6.325400 0.830600
6.361000 0.814500
6.396500 0.799000
6.432100 0.788500
6.467600 0.790000
6.503200 0.791700
6.538800 0.798200
6.574300 0.801200
6.609900 0.806800
6.645400 0.810200
6.681000 0.809000
6.716600 0.810600
6.752100 0.821200
6.787700 0.807200
6.823200 0.807000
6.858800 0.803400
6.894400 0.800800
6.929900 0.799800
6.965500 0.800700
7.001000 0.802400
7.036600 0.805900
7.072200 0.810800
7.107700 0.818700
7.143300 0.826900
7.178800 0.831900
7.214400 0.840800
7.250000 0.852500
7.285500 0.863000
7.321100 0.874100
7.356700 0.885400
7.392200 0.897100
7.427800 0.908300
7.463300 0.918600
7.498900 0.906300
7.534500 0.882200
7.570000 0.861400
7.605600 0.841500
7.641100 0.825100
7.676700 0.805700
7.712300 0.794800
7.747800 0.790900
7.783400 0.793000
7.818900 0.766700
7.854500 0.757900
7.890100 0.751600
7.925600 0.748000
7.961200 0.746900
7.996700 0.748400
8.032300 0.754300
8.067900 0.764200
8.103400 0.778600
8.139000 0.795400
8.174500 0.810700
8.210100 0.821100
8.245700 0.826100
8.281200 0.826500
8.316800 0.830100
8.352300 0.836500
8.387900 0.842600
8.423500 0.854400
8.459000 0.893500
8.494600 0.874400
8.530100 0.834400
8.565700 0.834800
8.601300 0.839900
8.636800 0.853500
8.672400 0.870900
8.707900 0.883000
8.743500 0.898100
8.779100 0.909500
8.814600 0.917000
8.850200 0.925100
8.885700 0.936700
8.921300 0.938900
8.956900 0.941700
8.992400 0.942400
9.028000 0.938700
9.063500 0.938100
9.099100 0.934200
9.134700 0.934400
9.170200 0.937600
9.205800 0.939600
9.241300 0.939600
9.276900 0.933700
9.312500 0.935500
9.348000 0.938100
9.383600 0.937600
9.419100 0.945800
9.454700 0.929800
9.490300 0.923200
9.525800 0.920200
9.561400 0.915800
9.596900 0.927300
9.632500 0.939900
9.668100 0.911800
9.703600 0.885300
9.739200 0.869700
9.774700 0.877600
9.810300 0.889300
9.845900 0.896100
9.881400 0.902600
9.917000 0.909900
9.952500 0.924200
9.988100 0.947300
10.023700 0.958800
10.059200 0.969600
10.094800 0.994700
10.130300 1.013100
10.165900 1.029300
10.201500 1.041300
10.237000 1.046000
10.272600 1.055500
10.308100 1.058800
10.343700 1.065100
10.379300 1.076600
10.414800 1.091100
10.450400 1.104900
10.485900 1.096300
10.521500 1.084100
10.557100 1.077200
10.592600 1.078200
10.628200 1.087500
10.663700 1.092200
10.699300 1.105000
10.734900 1.097900
10.770400 1.096300
10.806000 1.097000
10.841500 1.101300
10.877100 1.108900
10.912700 1.118500
10.948200 1.126700
10.983800 1.137700
11.019300 1.155400
11.054900 1.189300
11.090500 1.214300
11.126000 1.258100
11.161600 1.260200
11.197200 1.274000
11.232700 1.275100
11.268300 1.281300
11.303800 1.284700
11.339400 1.295000
11.375000 1.305300
11.410500 1.314900
11.446100 1.324100
11.481600 1.319400
11.517200 1.327200
11.552800 1.354700
11.588300 1.373200
11.623900 1.371500
11.659400 1.368400
11.695000 1.362100
11.730600 1.356300
11.766100 1.365700
11.801700 1.383500
11.837200 1.378300
11.872800 1.359700
11.908400 1.340900
11.943900 1.291300
11.979500 1.257300
12.015000 1.226600
12.050600 1.195000
12.086200 1.160600
12.121700 1.151200
12.157300 1.144800
12.192800 1.138900
12.228400 1.130200
12.264000 1.115200
12.299500 1.108000
12.335100 1.106400
12.370600 1.099200
12.406200 1.091000
12.441800 1.086400
12.477300 1.088400
12.512900 1.089900
12.548400 1.094600
12.584000 1.096600
12.619600 1.105700
12.655100 1.105800
12.690700 1.094600
12.726200 1.071800
12.761800 1.059600
12.797400 1.051000
12.832900 1.045200
12.868500 1.042100
12.904000 1.041400
12.939600 1.041500
12.975200 1.041600
13.010700 1.041000
13.046300 1.038700
13.081800 1.047700
13.117400 1.033900
13.153000 1.021800
13.188500 1.019800
13.224100 1.019300
13.259600 1.017100
13.295200 1.020700
13.330800 1.035200
13.366300 1.057300
13.401900 1.081800
13.437400 1.114600
13.473000 1.138900
13.508600 1.154000
13.544100 1.163000
13.579700 1.167600
13.615200 1.161700
13.650800 1.135900
13.686400 1.132400
13.721900 1.129400
13.757500 1.131300
13.793000 1.136400
13.828600 1.143400
13.864200 1.148200
13.899700 1.150600
13.935300 1.151500
13.970800 1.146200
14.006400 1.141100
14.042000 1.135700
14.077500 1.134200
14.113100 1.124600
14.148600 1.105700
14.184200 1.080400
14.219800 1.063300
14.255300 1.048900
14.290900 1.039200
14.326400 1.030300
14.362000 1.013300
14.397600 0.993600
14.433100 0.971800
14.468700 0.953600
14.504200 0.937500
14.539800 0.920400
14.575400 0.903600
14.610900 0.881600
14.646500 0.858800
14.682000 0.841300
14.717600 0.827100
14.753200 0.816700
14.788700 0.807300
14.824300 0.808500
14.859800 0.817700
14.895400 0.827800
14.931000 0.825600
14.966500 0.822500
15.002100 0.817700
15.037700 0.816200
15.073200 0.826500
15.108800 0.822100
15.144300 0.812100
15.179900 0.800100
15.215500 0.789200
15.251000 0.781200
15.286600 0.775100
15.322100 0.770600
15.357700 0.780300
15.393300 0.780100
15.428800 0.786200
15.464400 0.791000
15.499900 0.806600
15.535500 0.835200
15.571100 0.871000
15.606600 0.898000
15.642200 0.898700
15.677700 0.896000
15.713300 0.885800
15.748900 0.871900
15.784400 0.857500
15.820000 0.852200
15.855500 0.855200
15.891100 0.861800
15.926700 0.866400
15.962200 0.868600
15.997800 0.869800
16.033300 0.871900
16.068900 0.877900
16.104500 0.881000
16.140000 0.885900
16.175600 0.890300
16.211100 0.892800
16.246700 0.893300
16.282300 0.893100
16.317800 0.889600
16.353400 0.887200
16.388900 0.886500
16.424500 0.888200
16.460100 0.892500
16.495600 0.893000
16.531200 0.895100
16.566700 0.895500
16.602300 0.896900
16.637900 0.898000
16.673400 0.901900
16.709000 0.904900
16.744500 0.908600
16.780100 0.912200
16.815700 0.916700
16.851200 0.926700
16.886800 0.937400
16.922300 0.953800
16.957900 0.970900
16.993500 0.983600
17.029000 0.995800
17.064600 1.008500
17.100100 1.029900
17.135700 1.053200
17.171300 1.084000
17.206800 1.123000
17.242400 1.105500
17.277900 1.128600
17.313500 1.118400
17.349100 1.133800
17.384600 1.159800
17.420200 1.194400
17.455700 1.208400
17.491300 1.199700
17.526900 1.201000
17.562400 1.207300
17.598000 1.214200
17.633500 1.224400
17.669100 1.234900
17.704700 1.244200
17.740200 1.254100
17.775800 1.269500
17.811300 1.294100
17.846900 1.314600
17.882500 1.313100
17.918000 1.300900
17.953600 1.300100
17.989100 1.307200
18.024700 1.320600
18.060300 1.320600
18.095800 1.324300
18.131400 1.326800
18.166900 1.329700
18.202500 1.332200
18.238100 1.332000
18.273600 1.329300
18.309200 1.327100
18.344700 1.323200
18.380300 1.305400
18.415900 1.281200
18.451400 1.262000
18.487000 1.257600
18.522500 1.264600
18.558100 1.272700
18.593700 1.270200
18.629200 1.281600
18.664800 1.303500
18.700300 1.327100
18.735900 1.347100
18.771500 1.357600
18.807000 1.349100
18.842600 1.317900
18.878200 1.264000
18.913700 1.239400
18.949300 1.208600
18.984800 1.185500
19.020400 1.167000
19.056000 1.151200
19.091500 1.134400
19.127100 1.131500
19.162600 1.160500
19.198200 1.177700
19.233800 1.187200
19.269300 1.182600
19.304900 1.197400
19.340400 1.202700
19.376000 1.166900
19.411600 1.164400
19.447100 1.164600
19.482700 1.165400
19.518200 1.166500
19.553800 1.165100
19.589400 1.159800
19.624900 1.153000
19.660500 1.140600
19.696000 1.124200
19.731600 1.107700
19.767200 1.134000
19.802700 1.128000
19.838300 1.119200
19.873800 1.102600
19.909400 1.093300
19.945000 1.098800
19.980500 1.095400
20.016100 1.091100
20.051600 1.089700
20.087200 1.087400
20.122800 1.082000
20.158300 1.064200
20.193900 1.053200
20.229400 1.058400
20.265000 1.068500
20.300600 1.073500
20.336100 1.072700
20.371700 1.077700
20.407200 1.084600
20.442800 1.092800
20.478400 1.096900
20.513900 1.098800
20.549500 1.101300
20.585000 1.103100
20.620600 1.114900
20.656200 1.128800
20.691700 1.143400
20.727300 1.159100
20.762800 1.182100
20.798400 1.206700
20.834000 1.228400
20.869500 1.263800
20.905100 1.299400
20.940600 1.325400
20.976200 1.368700
21.011800 1.427200
21.047300 1.477000
21.082900 1.507300
21.118400 1.520900
21.154000 1.532900
21.189600 1.547000
21.225100 1.564500
21.260700 1.585800
21.296200 1.600200
21.331800 1.595600
21.367400 1.594000
21.402900 1.590000
21.438500 1.580500
21.474000 1.567900
21.509600 1.545900
21.545200 1.548000
21.580700 1.542700
21.616300 1.546800
21.651800 1.540800
21.687400 1.538000
21.723000 1.536500
21.758500 1.505900
21.794100 1.467700
21.829600 1.436500
21.865200 1.422700
21.900800 1.414800
21.936300 1.413600
21.971900 1.407200
22.007400 1.398400
22.043000 1.389300
22.078600 1.384000
22.114100 1.378500
22.149700 1.373900
22.185200 1.372500
22.220800 1.371100
22.256400 1.348000
22.291900 1.326800
22.327500 1.319000
22.363000 1.276200
22.398600 1.219100
22.434200 1.193800
22.469700 1.182800
22.505300 1.170900
22.540800 1.161400
22.576400 1.148600
22.612000 1.143500
22.647500 1.133800
22.683100 1.126000
22.718700 1.117500
22.754200 1.105900
22.789800 1.093400
22.825300 1.090700
22.860900 1.083100
22.896500 1.087600
22.932000 1.098700
22.967600 1.104900
23.003100 1.112000
23.038700 1.150300
23.074300 1.129000
23.109800 1.143500
23.145400 1.157300
23.180900 1.169000
23.216500 1.175200
23.252100 1.180400
23.287600 1.187400
23.323200 1.199400
23.358700 1.214200
23.394300 1.234200
23.429900 1.249600
23.465400 1.261100
23.501000 1.273500
23.536500 1.277300
23.572100 1.281100
23.607700 1.292600
23.643200 1.335400
23.678800 1.385300
23.714300 1.411400
23.749900 1.412700
23.785500 1.416800
23.821000 1.422300
23.856600 1.442500
23.892100 1.494900
23.927700 1.546600
23.963300 1.577400
23.998800 1.591000
24.034400 1.582700
24.069900 1.579700
24.105500 1.595400
24.141100 1.597000
24.176600 1.599200
24.212200 1.597900
24.247700 1.597000
24.283300 1.658400
24.318900 1.642300
24.354400 1.602100
24.390000 1.567100
24.425500 1.524600
24.461100 1.498500
24.496700 1.476400
24.532200 1.461300
24.567800 1.459000
24.603300 1.456300
24.638900 1.453600
24.674500 1.456200
24.710000 1.463300
24.745600 1.471100
24.781100 1.459200
24.816700 1.435600
24.852300 1.406500
24.887800 1.369200
24.923400 1.346600
24.958900 1.326400
24.994500 1.308000
25.030100 1.293800
25.065600 1.278600
25.101200 1.280000
25.136700 1.293000
25.172300 1.316900
25.207900 1.338800
25.243400 1.403300
25.279000 1.433900
25.314500 1.470500
25.350100 1.506200
25.385700 1.537800
25.421200 1.550500
25.456800 1.555500
25.492300 1.549000
25.527900 1.538900
25.563500 1.523800
25.599000 1.518700
25.634600 1.520300
25.670100 1.519600
25.705700 1.514800
25.741300 1.502900
25.776800 1.483200
25.812400 1.465700
25.847900 1.453300
25.883500 1.445200
25.919100 1.430500
25.954600 1.420300
25.990200 1.403900
26.025700 1.388800
26.061300 1.382700
26.096900 1.393200
26.132400 1.377900
26.168000 1.378500
26.203500 1.384500
26.239100 1.391200
26.274700 1.388500
26.310200 1.382100
26.345800 1.382400
26.381300 1.390300
26.416900 1.393200
26.452500 1.397100
26.488000 1.422800
26.523600 1.434600
26.559100 1.445300
26.594700 1.461900
26.630300 1.467800
26.665800 1.459800
26.701400 1.451400
26.737000 1.433500
26.772500 1.418900
26.808100 1.434500
26.843600 1.464900
26.879200 1.510000
26.914800 1.518300
26.950300 1.538200
26.985900 1.530200
27.021400 1.528600
27.057000 1.530500
27.092600 1.495100
27.128100 1.431400
27.163700 1.420600
27.199200 1.419200
27.234800 1.426300
27.270400 1.440200
27.305900 1.464300
27.341500 1.472800
27.377000 1.471000
27.412600 1.475100
27.448200 1.460700
27.483700 1.448900
27.519300 1.446400
27.554800 1.429600
27.590400 1.405700
27.626000 1.401000
27.661500 1.409500
27.697100 1.418100
27.732600 1.427100
27.768200 1.423100
27.803800 1.423600
27.839300 1.433500
27.874900 1.443700
27.910400 1.458600
27.946000 1.477600
27.981600 1.458500
28.017100 1.455700
28.052700 1.454100
28.088200 1.457000
28.123800 1.460900
28.159400 1.459100
28.194900 1.453100
28.230500 1.454100
28.266000 1.458500
28.301600 1.464700
28.337200 1.488400
28.372700 1.488400
28.408300 1.487500
28.443800 1.486400
28.479400 1.494600
28.515000 1.499800
28.550500 1.500700
28.586100 1.500500
28.621600 1.510500
28.657200 1.518500
28.692800 1.529100
28.728300 1.543000
28.763900 1.539500
28.799400 1.558800
28.835000 1.571100
28.870600 1.559900
28.906100 1.541200
28.941700 1.519700
28.977200 1.491600
29.012800 1.491200
29.048400 1.490300
29.083900 1.521400
29.119500 1.517000
29.155000 1.540200
29.190600 1.567800
29.226200 1.576600
29.261700 1.560300
29.297300 1.562800
29.332800 1.562900
29.368400 1.559200
29.404000 1.552400
29.439500 1.558900
29.475100 1.575300
29.510600 1.589700
29.546200 1.604800
29.581800 1.616000
29.617300 1.618900
29.652900 1.610800
29.688400 1.603200
29.724000 1.578100
29.759600 1.579200
29.795100 1.576000
29.830700 1.583400
29.866200 1.604100
29.901800 1.606900
29.937400 1.594900
29.972900 1.579700
30.008500 1.566700
30.044000 1.558200
30.079600 1.528800
30.115200 1.510600
30.150700 1.499300
30.186300 1.496100
30.221800 1.497700
30.257400 1.503000
30.293000 1.512900
30.328500 1.519100
30.364100 1.532900
30.399600 1.543000
30.435200 1.522500
30.470800 1.517400
30.506300 1.524000
30.541900 1.553500
30.577500 1.563900
30.613000 1.556400
30.648600 1.556000
30.684100 1.556500
30.719700 1.560700
30.755300 1.555100
30.790800 1.565300
30.826400 1.579400
30.861900 1.597900
30.897500 1.621700
30.933100 1.641200
30.968600 1.653900
31.004200 1.661400
31.039700 1.653700
31.075300 1.640000
31.110900 1.620500
31.146400 1.605100
31.182000 1.590900
31.217500 1.581900
31.253100 1.575300
31.288700 1.574000
31.324200 1.575300
31.359800 1.579500
31.395300 1.577400
31.430900 1.562500
31.466500 1.568800
31.502000 1.558700
31.537600 1.556900
31.573100 1.569400
31.608700 1.581400
31.644300 1.588900
31.679800 1.611000
31.715400 1.615700
31.750900 1.615200
31.786500 1.610700
31.822100 1.601300
31.857600 1.608700
31.893200 1.620100
31.928700 1.626100
31.964300 1.623000
31.999900 1.626100
32.035400 1.633400
32.071000 1.645400
32.106500 1.647900
32.142100 1.653600
32.177700 1.667300
32.213200 1.690500
32.248800 1.707100
32.284300 1.718600
32.319900 1.722600
32.355500 1.714400
32.391000 1.713300
32.426600 1.710300
32.462100 1.706600
32.497700 1.703400
32.533300 1.696200
32.568800 1.678400
32.604400 1.665900
32.639900 1.664100
32.675500 1.676000
32.711100 1.688000
32.746600 1.691300
32.782200 1.687500
32.817700 1.681700
32.853300 1.679200
32.888900 1.678100
32.924400 1.683200
32.960000 1.688000
32.995500 1.692500
33.031100 1.686300
33.066700 1.680700
33.102200 1.676200
33.137800 1.674500
33.173300 1.673100
33.208900 1.679100
33.244500 1.666500
33.280000 1.631300
33.315600 1.617200
33.351100 1.608100
33.386700 1.593100
33.422300 1.596100
33.457800 1.590800
33.493400 1.587400
33.528900 1.587700
33.564500 1.594000
33.600100 1.605500
33.635600 1.634700
33.671200 1.661200
33.706700 1.679900
33.742300 1.701600
33.777900 1.730600
33.813400 1.756900
33.849000 1.773000
33.884500 1.790000
33.920100 1.816000
33.955700 1.827800
33.991200 1.815300
34.026800 1.798100
34.062300 1.783500
34.097900 1.764600
34.133500 1.746200
34.169000 1.722700
34.204600 1.711500
34.240100 1.696500
34.275700 1.683400
34.311300 1.680600
34.346800 1.669800
34.382400 1.657600
34.418000 1.647300
34.453500 1.645000
34.489100 1.645400
34.524600 1.646900
34.560200 1.653200
34.595800 1.660400
34.631300 1.669800
34.666900 1.680000
34.702400 1.689400
34.738000 1.697000
34.773600 1.690200
34.809100 1.695600
34.844700 1.701500
34.880200 1.705300
34.915800 1.707500
34.951400 1.709900
34.986900 1.712200
35.022500 1.716200
35.058000 1.727000
35.093600 1.743600
35.129200 1.754900
35.164700 1.765100
35.200300 1.785800
35.235800 1.829600
35.271400 1.823400
35.307000 1.815800
35.342500 1.816400
35.378100 1.823000
35.413600 1.798600
35.449200 1.781300
35.484800 1.799000
35.520300 1.824200
35.555900 1.847300
35.591400 1.877900
35.627000 1.900500
35.662600 1.922500
35.698100 1.904000
35.733700 1.885400
35.769200 1.877100
35.804800 1.864900
35.840400 1.862600
35.875900 1.861500
35.911500 1.849200
35.947000 1.823600
35.982600 1.812100
36.018200 1.804300
36.053700 1.791900
36.089300 1.783400
36.124800 1.777600
36.160400 1.770400
36.196000 1.771000
36.231500 1.784100
36.267100 1.781000
36.302600 1.744000
36.338200 1.698400
36.373800 1.687900
36.409300 1.679400
36.444900 1.676600
36.480400 1.671500
36.516000 1.661600
36.551600 1.653200
36.587100 1.648000
36.622700 1.648000
36.658200 1.649800
36.693800 1.654100
36.729400 1.659300
36.764900 1.657400
36.800500 1.654000
36.836000 1.650500
36.871600 1.647200
36.907200 1.639800
36.942700 1.639500
36.978300 1.643600
37.013800 1.658100
37.049400 1.685000
37.085000 1.713900
37.120500 1.736200
37.156100 1.730700
37.191600 1.715000
37.227200 1.716500
37.262800 1.714200
37.298300 1.708600
37.333900 1.708000
37.369400 1.700300
37.405000 1.697100
37.440600 1.694600
37.476100 1.692700
37.511700 1.674500
37.547200 1.659000
37.582800 1.649600
37.618400 1.631300
37.653900 1.619000
37.689500 1.606900
37.725000 1.599700
37.760600 1.596900
37.796200 1.600900
37.831700 1.615400
37.867300 1.605800
37.902800 1.611500
37.938400 1.622200
37.974000 1.624800
38.009500 1.631400
38.045100 1.640800
38.080600 1.647400
38.116200 1.655000
38.151800 1.659100
38.187300 1.666800
38.222900 1.671000
38.258500 1.677700
38.294000 1.686500
38.329600 1.695600
38.365100 1.705200
38.400700 1.714900
38.436300 1.717000
38.471800 1.707600
38.507400 1.728400
38.542900 1.717800
38.578500 1.704700
38.614100 1.700600
38.649600 1.696500
38.685200 1.700500
38.720700 1.697700
38.756300 1.668700
38.791900 1.642800
38.827400 1.633500
38.863000 1.628300
38.898500 1.630200
38.934100 1.616100
38.969700 1.617300
39.005200 1.624000
39.040800 1.638300
39.076300 1.655100
39.111900 1.669300
39.147500 1.684300
39.183000 1.721700
39.218600 1.770800
39.254100 1.780400
39.289700 1.779900
39.325300 1.797500
39.360800 1.807000
39.396400 1.811900
39.431900 1.803300
39.467500 1.804900
39.503100 1.807900
39.538600 1.822800
39.574200 1.845900
39.609700 1.855700
39.645300 1.856300
39.680900 1.833000
39.716400 1.827200
39.752000 1.805300
39.787500 1.795800
39.823100 1.798900
39.858700 1.797200
39.894200 1.808300
39.929800 1.831600
39.965300 1.858200
40.000900 1.877200
40.036500 1.887500
40.072000 1.895500
40.107600 1.907200
40.143100 1.920800
40.178700 1.928800
40.214300 1.927900
40.249800 1.910200
40.285400 1.888700
40.320900 1.868300
40.356500 1.835000
40.392100 1.802900
40.427600 1.780300
40.463200 1.758400
40.498700 1.740400
40.534300 1.725600
40.569900 1.707500
40.605400 1.682100
40.641000 1.661600
40.676500 1.648200
40.712100 1.650500
40.747700 1.660400
40.783200 1.666700
40.818800 1.681400
40.854300 1.710700
40.889900 1.745200
40.925500 1.785200
40.961000 1.833000
40.996600 1.854700
41.032100 1.877500
41.067700 1.900800
41.103300 1.933900
41.138800 1.957600
41.174400 1.961400
41.209900 1.944200
41.245500 1.925700
41.281100 1.911100
41.316600 1.900100
41.352200 1.891300
41.387700 1.869400
41.423300 1.851000
41.458900 1.798100
41.494400 1.778100
41.530000 1.750200
41.565500 1.724100
41.601100 1.711000
41.636700 1.709300
41.672200 1.712300
41.707800 1.719600
41.743300 1.737500
41.778900 1.769600
41.814500 1.801800
41.850000 1.824000
41.885600 1.836000
41.921100 1.827100
41.956700 1.832900
41.992300 1.837300
42.027800 1.849800
42.063400 1.856200
42.099000 1.809800
42.134500 1.794400
42.170100 1.775400
42.205600 1.764400
42.241200 1.764700
42.276800 1.765900
42.312300 1.772000
42.347900 1.786300
42.383400 1.795300
42.419000 1.772800
42.454600 1.750900
42.490100 1.735700
42.525700 1.726400
42.561200 1.717000
42.596800 1.708400
42.632400 1.704900
42.667900 1.705300
42.703500 1.705300
42.739000 1.710600
42.774600 1.714000
42.810200 1.696400
42.845700 1.679900
42.881300 1.644000
42.916800 1.605400
42.952400 1.590400
42.988000 1.545100
43.023500 1.468900
43.059100 1.442300
43.094600 1.418400
43.130200 1.399700
43.165800 1.387500
43.201300 1.376700
43.236900 1.351000
43.272400 1.314200
43.308000 1.288000
43.343600 1.262600
43.379100 1.231200
43.414700 1.207900
43.450200 1.187900
43.485800 1.148000
43.521400 1.115700
43.556900 1.093400
43.592500 1.065500
43.628000 1.033400
43.663600 1.007100
43.699200 0.983200
43.734700 0.954700
43.770300 0.920900
43.805800 0.887900
43.841400 0.856900
43.877000 0.832600
43.912500 0.812500
43.948100 0.784700
43.983600 0.757400
44.019200 0.723000
44.054800 0.704400
44.090300 0.689200
44.125900 0.674900
44.161400 0.668000
44.197000 0.680900
44.232600 0.649000
44.268100 0.608900
44.303700 0.585200
44.339200 0.562300
44.374800 0.535500
44.410400 0.506600
44.445900 0.490300
44.481500 0.473400
44.517000 0.463300
44.552600 0.452100
44.588200 0.442100
44.623700 0.431100
44.659300 0.419300
44.694800 0.419900
44.730400 0.420700
44.766000 0.416300
44.801500 0.403600
44.837100 0.384400
44.872600 0.372500
44.908200 0.360300
44.943800 0.349600
44.979300 0.335700
45.014900 0.320400
45.050400 0.303700
45.086000 0.286500
45.121600 0.270000
45.157100 0.256100
45.192700 0.243100
45.228200 0.229100
45.263800 0.215500
45.299400 0.204100
45.334900 0.194700
45.370500 0.186800
45.406000 0.179800
45.441600 0.173300
45.477200 0.167300
45.512700 0.165100
45.548300 0.166800
45.583800 0.156200
45.619400 0.150100
45.655000 0.147200
45.690500 0.145400
45.726100 0.140300
45.761600 0.135100
45.797200 0.125200
45.832800 0.110600
45.868300 0.094300
45.903900 0.083100
45.939500 0.076800
45.975000 0.071600
46.010600 0.066800
46.046100 0.062300
46.081700 0.058200
46.117300 0.054400
46.152800 0.050800
46.188400 0.047300
46.223900 0.043900
46.259500 0.040900
46.295100 0.054900
46.330600 0.035000
46.366200 0.030600
46.401700 0.028600
46.437300 0.026700
46.472900 0.025000
46.508400 0.023200
46.544000 0.021400
46.579500 0.019700
46.615100 0.018100
46.650700 0.016400
46.686200 0.014800
46.721800 0.013900
46.757300 0.013300
46.792900 0.011900
46.828500 0.009200
46.864000 0.003200
46.899600 0.002700
46.935100 0.002200
46.970700 0.001700
47.006300 0.001200
47.041800 0.000700
47.077400 0.000300
47.112900 0.000000
47.148500 0.000000
47.184100 0.000000
47.219600 0.000000
47.255200 0.000000
47.290700 0.000000
47.326300 0.000000
47.361900 0.000000
47.397400 0.000000
47.433000 0.000000
47.468500 0.000000
47.504100 0.000000
47.539700 0.000000
47.575200 0.000000
47.610800 0.000000
47.646300 0.000000
47.681900 0.000000
47.717500 0.000000
47.753000 0.000000
47.788600 0.000000
47.824100 0.000000
47.859700 0.000000
47.895300 0.000000
47.930800 0.000000
47.966400 0.000000
48.001900 0.000000
48.037500 0.000000
48.073100 0.000000
48.108600 0.000000
48.144200 0.000000
48.179700 0.000000
48.215300 0.000000
48.250900 0.000000
48.286400 0.000000
48.322000 0.000000
48.357500 0.000000
48.393100 0.000000
48.428700 0.000000
48.464200 0.000000
48.499800 0.000000
48.535300 0.000000
48.570900 0.000000
48.606500 0.000000
48.642000 0.000000
48.677600 0.000000
48.713100 0.000000
48.748700 0.000000
48.784300 0.000000
48.819800 0.000000
48.855400 0.000000
48.890900 0.000000
48.926500 0.000000
48.962100 0.000000
48.997600 0.000000
49.033200 0.000000
49.068700 0.000000
49.104300 0.000000
49.139900 0.000000
49.175400 0.000000
49.211000 0.000000
49.246500 0.000000
49.282100 0.000000
49.317700 0.000000
49.353200 0.000000
49.388800 0.000000
49.424300 0.000000
49.459900 0.000000
49.495500 0.000000
49.531000 0.000000
49.566600 0.000000
49.602100 0.000000
49.637700 0.000000
49.673300 0.000000
49.708800 0.000000
49.744400 0.000000
49.780000 0.000000
49.815500 0.000000
49.851100 0.000000
49.886600 0.000000
49.922200 0.000000
49.957800 0.000000
49.993300 0.000000
50.028900 0.000000
50.064400 0.000000
50.100000 0.000000
50.135600 0.000000
50.171100 0.000000
50.206700 0.000000
50.242200 0.000000
50.277800 0.000000
50.313400 0.000000
50.348900 0.000000
e
