set title 'mp-157 - Density of States'
set xlabel 'Energy (eV)'
set ylabel 'DOS (states/eV)'
set grid
set xrange [-10:10]
set yrange [0:5.170]
set xzeroaxis lt -1
set terminal png size 800,600
set output 'mp-157_dos_gnuplot.png'
plot '-' using 1:2 with lines title 'DOS'
-11.347200 0.000000
-11.333300 0.000000
-11.319400 0.000000
-11.305500 0.000000
-11.291600 0.000000
-11.277700 0.000000
-11.263700 0.000000
-11.249800 0.000000
-11.235900 0.000000
-11.222000 0.000000
-11.208100 0.000000
-11.194200 0.000000
-11.180300 0.000000
-11.166300 0.000000
-11.152400 0.000000
-11.138500 0.000000
-11.124600 0.000000
-11.110700 0.000000
-11.096800 0.000000
-11.082900 0.000000
-11.068900 0.000000
-11.055000 0.000000
-11.041100 0.000000
-11.027200 0.000000
-11.013300 0.000000
-10.999400 0.000000
-10.985500 0.000000
-10.971500 0.000000
-10.957600 0.000000
-10.943700 0.000000
-10.929800 0.000000
-10.915900 0.000000
-10.902000 0.000000
-10.888100 0.000000
-10.874200 0.000000
-10.860200 0.000000
-10.846300 0.000000
-10.832400 0.000000
-10.818500 0.000000
-10.804600 0.000000
-10.790700 0.000000
-10.776800 0.000000
-10.762800 0.000000
-10.748900 0.000000
-10.735000 0.000000
-10.721100 0.000000
-10.707200 0.000000
-10.693300 0.000000
-10.679400 0.000000
-10.665400 0.000000
-10.651500 0.000000
-10.637600 0.000000
-10.623700 0.000000
-10.609800 0.000000
-10.595900 0.000000
-10.582000 0.000000
-10.568000 0.000000
-10.554100 0.000000
-10.540200 0.000000
-10.526300 0.000000
-10.512400 0.000000
-10.498500 0.000000
-10.484600 0.000000
-10.470600 0.000000
-10.456700 0.000000
-10.442800 0.000000
-10.428900 0.000000
-10.415000 0.000000
-10.401100 0.000000
-10.387200 0.000000
-10.373200 0.000000
-10.359300 0.000000
-10.345400 0.000000
-10.331500 0.000000
-10.317600 0.000000
-10.303700 0.000000
-10.289800 0.000000
-10.275800 0.000000
-10.261900 0.000000
-10.248000 0.000000
-10.234100 0.000000
-10.220200 0.000000
-10.206300 0.000000
-10.192400 0.000000
-10.178400 0.000000
-10.164500 0.000000
-10.150600 0.000000
-10.136700 0.000000
-10.122800 0.000000
-10.108900 0.000000
-10.095000 0.000000
-10.081000 0.000600
-10.067100 0.074500
-10.053200 0.210400
-10.039300 0.331800
-10.025400 0.390700
-10.011500 0.434500
-9.997600 0.504500
-9.983700 0.591100
-9.969700 0.724800
-9.955800 0.839600
-9.941900 0.856700
-9.928000 0.813600
-9.914100 0.794400
-9.900200 0.808900
-9.886300 0.821400
-9.872300 0.829700
-9.858400 0.830100
-9.844500 0.820500
-9.830600 0.810500
-9.816700 0.815300
-9.802800 0.825900
-9.788900 0.832800
-9.774900 0.836000
-9.761000 0.836500
-9.747100 0.835900
-9.733200 0.836100
-9.719300 0.835900
-9.705400 0.832100
-9.691500 0.828500
-9.677500 0.825100
-9.663600 0.823000
-9.649700 0.825000
-9.635800 0.829400
-9.621900 0.834500
-9.608000 0.840000
-9.594100 0.843500
-9.580100 0.846200
-9.566200 0.849600
-9.552300 0.853100
-9.538400 0.853500
-9.524500 0.851500
-9.510600 0.848500
-9.496700 0.846700
-9.482700 0.846500
-9.468800 0.846400
-9.454900 0.845400
-9.441000 0.843500
-9.427100 0.843600
-9.413200 0.846200
-9.399300 0.849100
-9.385300 0.852600
-9.371400 0.856300
-9.357500 0.860000
-9.343600 0.862200
-9.329700 0.863600
-9.315800 0.865100
-9.301900 0.866800
-9.287900 0.868200
-9.274000 0.868900
-9.260100 0.870000
-9.246200 0.870600
-9.232300 0.870900
-9.218400 0.871800
-9.204500 0.872900
-9.190500 0.873900
-9.176600 0.874600
-9.162700 0.874400
-9.148800 0.874000
-9.134900 0.874900
-9.121000 0.876700
-9.107100 0.878600
-9.093100 0.880700
-9.079200 0.883000
-9.065300 0.982100
-9.051400 1.070400
-9.037500 1.112900
-9.023600 1.079900
-9.009700 1.146600
-8.995800 1.070200
-8.981800 0.969200
-8.967900 0.915900
-8.954000 0.903000
-8.940100 0.881500
-8.926200 0.855600
-8.912300 0.835100
-8.898400 0.814500
-8.884400 0.782900
-8.870500 0.774900
-8.856600 0.766900
-8.842700 0.758800
-8.828800 0.750500
-8.814900 0.741800
-8.801000 0.732600
-8.787000 0.724400
-8.773100 0.709100
-8.759200 0.698100
-8.745300 0.820300
-8.731400 0.982400
-8.717500 1.194700
-8.703600 1.102500
-8.689600 1.011600
-8.675700 0.959600
-8.661800 0.970900
-8.647900 0.982200
-8.634000 0.993500
-8.620100 0.990200
-8.606200 0.977900
-8.592200 0.953800
-8.578300 0.959300
-8.564400 0.962900
-8.550500 0.965800
-8.536600 0.969900
-8.522700 0.974100
-8.508800 0.976800
-8.494800 0.983900
-8.480900 0.990100
-8.467000 0.993300
-8.453100 0.988000
-8.439200 0.983100
-8.425300 0.981000
-8.411400 0.986300
-8.397400 0.991700
-8.383500 0.996400
-8.369600 1.001000
-8.355700 1.005600
-8.341800 1.010300
-8.327900 1.015100
-8.314000 1.019900
-8.300000 1.024800
-8.286100 1.027500
-8.272200 1.030900
-8.258300 1.034600
-8.244400 1.033000
-8.230500 1.031900
-8.216600 1.031300
-8.202600 1.036000
-8.188700 1.040700
-8.174800 1.045400
-8.160900 1.050200
-8.147000 1.056600
-8.133100 1.065100
-8.119200 1.074400
-8.105300 1.083200
-8.091300 1.092700
-8.077400 1.101800
-8.063500 1.109900
-8.049600 1.117300
-8.035700 1.124700
-8.021800 1.131200
-8.007900 1.137100
-7.993900 1.142900
-7.980000 1.146300
-7.966100 1.147900
-7.952200 1.147800
-7.938300 1.151400
-7.924400 1.159600
-7.910500 1.170500
-7.896500 1.183000
-7.882600 1.194900
-7.868700 1.206800
-7.854800 1.218800
-7.840900 1.231300
-7.827000 1.244100
-7.813100 1.258300
-7.799100 1.272600
-7.785200 1.285700
-7.771300 1.304600
-7.757400 1.329800
-7.743500 1.354700
-7.729600 1.378200
-7.715700 1.402000
-7.701700 1.425200
-7.687800 1.471800
-7.673900 1.556100
-7.660000 1.613900
-7.646100 1.609200
-7.632200 1.592400
-7.618300 1.592800
-7.604300 1.595200
-7.590400 1.600700
-7.576500 1.605300
-7.562600 1.607300
-7.548700 1.602300
-7.534800 1.593600
-7.520900 1.612800
-7.506900 1.687600
-7.493000 1.807800
-7.479100 1.961400
-7.465200 1.929000
-7.451300 1.874600
-7.437400 1.800700
-7.423500 1.714900
-7.409500 1.621700
-7.395600 1.524600
-7.381700 1.460700
-7.367800 1.423700
-7.353900 1.397300
-7.340000 1.371900
-7.326100 1.342000
-7.312100 1.305600
-7.298200 1.270400
-7.284300 1.243400
-7.270400 1.226800
-7.256500 1.213200
-7.242600 1.201800
-7.228700 1.190700
-7.214700 1.179100
-7.200800 1.166300
-7.186900 1.147100
-7.173000 1.129000
-7.159100 1.112600
-7.145200 1.097000
-7.131300 1.081400
-7.117400 1.066700
-7.103400 1.054700
-7.089500 1.043700
-7.075600 1.032900
-7.061700 1.023300
-7.047800 1.018300
-7.033900 1.015300
-7.020000 1.021400
-7.006000 1.035800
-6.992100 1.046100
-6.978200 1.065200
-6.964300 1.192700
-6.950400 1.394000
-6.936500 2.065500
-6.922600 1.603200
-6.908600 1.457700
-6.894700 1.397800
-6.880800 1.392200
-6.866900 1.431800
-6.853000 1.484500
-6.839100 1.897800
-6.825200 2.234700
-6.811200 2.798500
-6.797300 1.872600
-6.783400 1.174300
-6.769500 1.146000
-6.755600 1.114300
-6.741700 1.081500
-6.727800 1.048300
-6.713800 1.015200
-6.699900 0.982000
-6.686000 0.949000
-6.672100 0.915900
-6.658200 0.882800
-6.644300 0.854300
-6.630400 0.832300
-6.616400 0.815900
-6.602500 0.799800
-6.588600 0.784000
-6.574700 0.768400
-6.560800 0.753400
-6.546900 0.743500
-6.533000 0.737700
-6.519000 0.725900
-6.505100 0.712700
-6.491200 0.706600
-6.477300 0.676000
-6.463400 0.644700
-6.449500 0.624100
-6.435600 0.612100
-6.421600 0.606200
-6.407700 0.601700
-6.393800 0.594100
-6.379900 0.580800
-6.366000 0.562000
-6.352100 0.536900
-6.338200 0.507100
-6.324200 0.479900
-6.310300 0.454700
-6.296400 0.431100
-6.282500 0.408800
-6.268600 0.387400
-6.254700 0.367500
-6.240800 0.349600
-6.226900 0.334300
-6.212900 0.319100
-6.199000 0.303800
-6.185100 0.288200
-6.171200 0.272500
-6.157300 0.256900
-6.143400 0.241300
-6.129500 0.225700
-6.115500 0.210100
-6.101600 0.194600
-6.087700 0.179300
-6.073800 0.164100
-6.059900 0.149000
-6.046000 0.134200
-6.032100 0.119700
-6.018100 0.105600
-6.004200 0.092100
-5.990300 0.081000
-5.976400 0.071400
-5.962500 0.062800
-5.948600 0.054800
-5.934700 0.047400
-5.920700 0.040700
-5.906800 0.034400
-5.892900 0.028700
-5.879000 0.023300
-5.865100 0.018400
-5.851200 0.013800
-5.837300 0.011000
-5.823300 0.012600
-5.809400 0.017100
-5.795500 0.023600
-5.781600 0.033000
-5.767700 0.044000
-5.753800 0.056100
-5.739900 0.068500
-5.725900 0.080900
-5.712000 0.093300
-5.698100 0.105600
-5.684200 0.118200
-5.670300 0.131000
-5.656400 0.143900
-5.642500 0.157100
-5.628500 0.170400
-5.614600 0.184000
-5.600700 0.197800
-5.586800 0.211900
-5.572900 0.226300
-5.559000 0.241000
-5.545100 0.256400
-5.531100 0.272100
-5.517200 0.287700
-5.503300 0.303300
-5.489400 0.315600
-5.475500 0.339100
-5.461600 0.365800
-5.447700 0.381100
-5.433700 0.393600
-5.419800 0.404300
-5.405900 0.415100
-5.392000 0.428400
-5.378100 0.442200
-5.364200 0.456800
-5.350300 0.472500
-5.336300 0.489300
-5.322400 0.506700
-5.308500 0.526600
-5.294600 0.547100
-5.280700 0.565900
-5.266800 0.581700
-5.252900 0.592500
-5.239000 0.600000
-5.225000 0.608200
-5.211100 0.618500
-5.197200 0.633300
-5.183300 0.649200
-5.169400 0.664700
-5.155500 0.679800
-5.141600 0.694500
-5.127600 0.709800
-5.113700 0.726700
-5.099800 0.744300
-5.085900 0.762900
-5.072000 0.782200
-5.058100 0.801900
-5.044200 0.822600
-5.030200 0.844600
-5.016300 0.868400
-5.002400 0.894300
-4.988500 0.923600
-4.974600 0.956900
-4.960700 1.041500
-4.946800 1.214200
-4.932800 1.407300
-4.918900 1.648300
-4.905000 1.922100
-4.891100 1.933600
-4.877200 2.050500
-4.863300 2.268600
-4.849400 1.666300
-4.835400 1.405300
-4.821500 1.252700
-4.807600 1.098100
-4.793700 1.017000
-4.779800 0.949200
-4.765900 0.891000
-4.752000 1.019200
-4.738000 0.988100
-4.724100 0.963600
-4.710200 0.939300
-4.696300 0.937200
-4.682400 0.936000
-4.668500 0.936100
-4.654600 0.937700
-4.640600 0.940800
-4.626700 0.943800
-4.612800 0.947200
-4.598900 0.950800
-4.585000 0.959200
-4.571100 0.967900
-4.557200 0.977100
-4.543200 0.986600
-4.529300 0.997000
-4.515400 1.016600
-4.501500 1.080000
-4.487600 1.125900
-4.473700 1.166100
-4.459800 1.201300
-4.445800 1.231100
-4.431900 1.250300
-4.418000 1.276500
-4.404100 1.306300
-4.390200 1.341800
-4.376300 1.384100
-4.362400 1.432200
-4.348500 1.481100
-4.334500 1.529100
-4.320600 1.617600
-4.306700 1.938200
-4.292800 2.198700
-4.278900 2.907700
-4.265000 3.253300
-4.251100 3.367300
-4.237100 3.420100
-4.223200 3.442100
-4.209300 3.807200
-4.195400 3.855100
-4.181500 4.129300
-4.167600 3.723100
-4.153700 2.812500
-4.139700 2.383700
-4.125800 1.955500
-4.111900 1.692100
-4.098000 1.493000
-4.084100 1.454100
-4.070200 1.420000
-4.056300 1.386000
-4.042300 1.351100
-4.028400 1.310900
-4.014500 1.272300
-4.000600 1.232400
-3.986700 1.203100
-3.972800 1.193300
-3.958900 1.184000
-3.944900 1.174000
-3.931000 1.164000
-3.917100 1.154800
-3.903200 1.145500
-3.889300 1.135600
-3.875400 1.158500
-3.861500 1.228700
-3.847500 1.215100
-3.833600 1.174800
-3.819700 1.160000
-3.805800 1.138300
-3.791900 1.119300
-3.778000 1.124400
-3.764100 1.114800
-3.750100 1.132900
-3.736200 1.120000
-3.722300 1.056000
-3.708400 0.970600
-3.694500 0.937400
-3.680600 0.912200
-3.666700 0.886300
-3.652700 0.860800
-3.638800 0.833100
-3.624900 0.810000
-3.611000 0.797400
-3.597100 0.784100
-3.583200 0.771100
-3.569300 0.757800
-3.555300 0.744900
-3.541400 0.738500
-3.527500 0.770000
-3.513600 0.852000
-3.499700 0.876100
-3.485800 0.848900
-3.471900 0.786100
-3.458000 0.790500
-3.444000 0.768500
-3.430100 0.761600
-3.416200 0.655000
-3.402300 0.620800
-3.388400 0.691300
-3.374500 0.734200
-3.360600 0.769000
-3.346600 0.745100
-3.332700 0.705400
-3.318800 0.705600
-3.304900 0.711300
-3.291000 0.715600
-3.277100 0.719900
-3.263200 0.720500
-3.249200 0.722800
-3.235300 0.730900
-3.221400 0.739400
-3.207500 0.748500
-3.193600 0.757900
-3.179700 0.767600
-3.165800 0.791100
-3.151800 0.820000
-3.137900 0.848000
-3.124000 0.886300
-3.110100 0.872300
-3.096200 0.841000
-3.082300 0.847800
-3.068400 0.837100
-3.054400 0.850400
-3.040500 0.835300
-3.026600 0.694100
-3.012700 0.690900
-2.998800 0.687700
-2.984900 0.684400
-2.971000 0.680900
-2.957000 0.677200
-2.943100 0.673100
-2.929200 0.668900
-2.915300 0.664500
-2.901400 0.660400
-2.887500 0.656300
-2.873600 0.652200
-2.859600 0.648000
-2.845700 0.644000
-2.831800 0.640200
-2.817900 0.636400
-2.804000 0.632400
-2.790100 0.628700
-2.776200 0.625400
-2.762200 0.622600
-2.748300 0.619800
-2.734400 0.617000
-2.720500 0.614200
-2.706600 0.611400
-2.692700 0.608500
-2.678800 0.605400
-2.664800 0.602700
-2.650900 0.600000
-2.637000 0.597400
-2.623100 0.594700
-2.609200 0.592200
-2.595300 0.590100
-2.581400 0.587900
-2.567400 0.585300
-2.553500 0.582700
-2.539600 0.580200
-2.525700 0.576200
-2.511800 0.570100
-2.497900 0.566400
-2.484000 0.563000
-2.470100 0.559800
-2.456100 0.556800
-2.442200 0.553700
-2.428300 0.550900
-2.414400 0.548300
-2.400500 0.546000
-2.386600 0.543700
-2.372700 0.541700
-2.358700 0.539800
-2.344800 0.537900
-2.330900 0.536000
-2.317000 0.534000
-2.303100 0.531900
-2.289200 0.529900
-2.275300 0.527700
-2.261300 0.525500
-2.247400 0.523300
-2.233500 0.520900
-2.219600 0.518400
-2.205700 0.515900
-2.191800 0.513300
-2.177900 0.510700
-2.163900 0.507900
-2.150000 0.505200
-2.136100 0.502400
-2.122200 0.499500
-2.108300 0.496600
-2.094400 0.493800
-2.080500 0.491400
-2.066500 0.489100
-2.052600 0.486900
-2.038700 0.484800
-2.024800 0.482900
-2.010900 0.481000
-1.997000 0.479000
-1.983100 0.477100
-1.969100 0.475100
-1.955200 0.473200
-1.941300 0.471200
-1.927400 0.469100
-1.913500 0.466900
-1.899600 0.464800
-1.885700 0.462800
-1.871700 0.460700
-1.857800 0.458600
-1.843900 0.456500
-1.830000 0.454500
-1.816100 0.452600
-1.802200 0.450700
-1.788300 0.448700
-1.774300 0.447000
-1.760400 0.445900
-1.746500 0.444800
-1.732600 0.442300
-1.718700 0.439500
-1.704800 0.438000
-1.690900 0.437600
-1.676900 0.436500
-1.663000 0.435300
-1.649100 0.434100
-1.635200 0.432900
-1.621300 0.431700
-1.607400 0.430500
-1.593500 0.429300
-1.579600 0.428100
-1.565600 0.426900
-1.551700 0.425700
-1.537800 0.424500
-1.523900 0.423300
-1.510000 0.422100
-1.496100 0.420900
-1.482200 0.419600
-1.468200 0.418100
-1.454300 0.416400
-1.440400 0.414400
-1.426500 0.412100
-1.412600 0.408200
-1.398700 0.401200
-1.384800 0.400100
-1.370800 0.402300
-1.356900 0.417300
-1.343000 0.423700
-1.329100 0.429400
-1.315200 0.434900
-1.301300 0.439200
-1.287400 0.442300
-1.273400 0.443900
-1.259500 0.442000
-1.245600 0.439100
-1.231700 0.436300
-1.217800 0.433400
-1.203900 0.430600
-1.190000 0.427800
-1.176000 0.425000
-1.162100 0.422200
-1.148200 0.419400
-1.134300 0.421600
-1.120400 0.510200
-1.106500 0.665600
-1.092600 0.790600
-1.078600 0.894500
-1.064700 0.925700
-1.050800 0.974200
-1.036900 1.023000
-1.023000 1.071800
-1.009100 1.142800
-0.995200 1.258900
-0.981200 1.285400
-0.967300 1.316400
-0.953400 1.340900
-0.939500 1.386000
-0.925600 1.422300
-0.911700 1.462800
-0.897800 1.506500
-0.883800 1.554400
-0.869900 1.633000
-0.856000 1.706600
-0.842100 1.756300
-0.828200 1.775900
-0.814300 1.781700
-0.800400 1.837300
-0.786400 1.838100
-0.772500 1.824300
-0.758600 1.801000
-0.744700 1.786100
-0.730800 1.778700
-0.716900 1.775300
-0.703000 1.768700
-0.689000 1.747300
-0.675100 1.723500
-0.661200 1.705900
-0.647300 1.695400
-0.633400 1.696600
-0.619500 1.711900
-0.605600 1.730800
-0.591700 1.752300
-0.577700 1.776400
-0.563800 1.816600
-0.549900 1.865600
-0.536000 1.923400
-0.522100 2.001900
-0.508200 2.105100
-0.494300 2.196300
-0.480300 2.287600
-0.466400 2.374500
-0.452500 2.454000
-0.438600 2.519600
-0.424700 2.331000
-0.410800 2.243400
-0.396900 2.184600
-0.382900 2.140100
-0.369000 2.114900
-0.355100 2.105200
-0.341200 2.104700
-0.327300 2.093400
-0.313400 2.082700
-0.299500 2.076200
-0.285500 2.075200
-0.271600 2.077600
-0.257700 2.080700
-0.243800 2.109900
-0.229900 2.153800
-0.216000 2.148500
-0.202100 2.132000
-0.188100 2.154500
-0.174200 2.199700
-0.160300 2.267400
-0.146400 2.388500
-0.132500 2.559900
-0.118600 2.720400
-0.104700 2.829300
-0.090700 2.952100
-0.076800 3.073000
-0.062900 3.191600
-0.049000 3.342600
-0.035100 3.511100
-0.021200 3.559500
-0.007300 3.424300
0.006700 3.160300
0.020600 3.104000
0.034500 3.196200
0.048400 3.321900
0.062300 3.223300
0.076200 3.183000
0.090100 3.184600
0.104100 3.279800
0.118000 3.014400
0.131900 2.866700
0.145800 2.848000
0.159700 2.768600
0.173600 2.724500
0.187500 2.436800
0.201500 2.335200
0.215400 2.258600
0.229300 2.203300
0.243200 2.243000
0.257100 2.260400
0.271000 2.243500
0.284900 2.383300
0.298800 2.219000
0.312800 2.129100
0.326700 1.936400
0.340600 1.663200
0.354500 1.566700
0.368400 1.532400
0.382300 1.501100
0.396200 1.471900
0.410200 1.455200
0.424100 1.430500
0.438000 1.399100
0.451900 1.370600
0.465800 1.357200
0.479700 1.346300
0.493600 1.358800
0.507600 1.356700
0.521500 1.356700
0.535400 1.340700
0.549300 1.340200
0.563200 1.348300
0.577100 1.363300
0.591000 1.452100
0.605000 1.434700
0.618900 1.414900
0.632800 1.415000
0.646700 1.429000
0.660600 1.455400
0.674500 1.494300
0.688400 1.547100
0.702400 1.611900
0.716300 1.636400
0.730200 1.628000
0.744100 1.615300
0.758000 1.597700
0.771900 1.574900
0.785800 1.530900
0.799800 1.448400
0.813700 1.442600
0.827600 1.444000
0.841500 1.453100
0.855400 1.465200
0.869300 1.479100
0.883200 1.491700
0.897200 1.507200
0.911100 1.530600
0.925000 1.561300
0.938900 1.574900
0.952800 1.584200
0.966700 1.593100
0.980600 1.601300
0.994600 1.612000
1.008500 1.622200
1.022400 1.632200
1.036300 1.642300
1.050200 1.652900
1.064100 1.663800
1.078000 1.690000
1.092000 1.716800
1.105900 1.737300
1.119800 1.756300
1.133700 1.770300
1.147600 1.794300
1.161500 1.862900
1.175400 1.890500
1.189400 1.942900
1.203300 1.986300
1.217200 2.054000
1.231100 2.152600
1.245000 2.212400
1.258900 2.242300
1.272800 2.241600
1.286700 2.258700
1.300700 2.287600
1.314600 2.341800
1.328500 2.424200
1.342400 2.476400
1.356300 2.508100
1.370200 2.565600
1.384100 2.650100
1.398100 2.747300
1.412000 2.837400
1.425900 2.928400
1.439800 2.999700
1.453700 3.055300
1.467600 3.055100
1.481500 3.079600
1.495500 3.120400
1.509400 3.159800
1.523300 3.168800
1.537200 3.146700
1.551100 3.161300
1.565000 3.203200
1.578900 3.048800
1.592900 2.877200
1.606800 2.691900
1.620700 2.556100
1.634600 2.494600
1.648500 2.426700
1.662400 2.368000
1.676300 2.341400
1.690300 2.458800
1.704200 2.661400
1.718100 2.772300
1.732000 2.775400
1.745900 2.774500
1.759800 2.789600
1.773700 2.807800
1.787700 2.855500
1.801600 2.992100
1.815500 3.146900
1.829400 3.265600
1.843300 3.349600
1.857200 3.451500
1.871100 3.528600
1.885100 3.579900
1.899000 3.584600
1.912900 3.516100
1.926800 3.472100
1.940700 3.484200
1.954600 3.475000
1.968500 3.484600
1.982500 3.403700
1.996400 3.401500
2.010300 3.462600
2.024200 3.337300
2.038100 3.087100
2.052000 2.924400
2.065900 2.796700
2.079900 2.682500
2.093800 2.573900
2.107700 2.460400
2.121600 2.348700
2.135500 2.260900
2.149400 2.196100
2.163300 2.157100
2.177200 2.141800
2.191200 2.119900
2.205100 2.081300
2.219000 2.070800
2.232900 2.029800
2.246800 1.963100
2.260700 1.872700
2.274600 1.799400
2.288600 1.730100
2.302500 1.664100
2.316400 1.596600
2.330300 1.554300
2.344200 1.520200
2.358100 1.490200
2.372000 1.460900
2.386000 1.444000
2.399900 1.435200
2.413800 1.428000
2.427700 1.418100
2.441600 1.408500
2.455500 1.575100
2.469400 1.348500
2.483400 1.322200
2.497300 1.298500
2.511200 1.198900
2.525100 1.201500
2.539000 1.210700
2.552900 1.229900
2.566800 1.264900
2.580800 1.323800
2.594700 1.417800
2.608600 1.511400
2.622500 1.577800
2.636400 1.624500
2.650300 1.619000
2.664200 1.649000
2.678200 1.636200
2.692100 1.629900
2.706000 1.641000
2.719900 1.640200
2.733800 1.651200
2.747700 1.665800
2.761600 1.678000
2.775600 1.693600
2.789500 1.714300
2.803400 1.748400
2.817300 1.819100
2.831200 1.860700
2.845100 2.017800
2.859000 1.793700
2.873000 1.808700
2.886900 1.819900
2.900800 1.845600
2.914700 1.864100
2.928600 1.887200
2.942500 1.946300
2.956400 1.957800
2.970400 1.965700
2.984300 2.024100
2.998200 2.065700
3.012100 2.077100
3.026000 2.081900
3.039900 2.086400
3.053800 2.094200
3.067800 2.128600
3.081700 2.136400
3.095600 2.156600
3.109500 2.184400
3.123400 2.164300
3.137300 2.180200
3.151200 2.196000
3.165100 2.200300
3.179100 2.225400
3.193000 2.257400
3.206900 2.285400
3.220800 2.328500
3.234700 2.363800
3.248600 2.405900
3.262500 2.440000
3.276500 2.469900
3.290400 2.502700
3.304300 2.532200
3.318200 2.567500
3.332100 2.607300
3.346000 2.647500
3.359900 2.693200
3.373900 2.727300
3.387800 2.752500
3.401700 2.785700
3.415600 2.826400
3.429500 2.869700
3.443400 2.904200
3.457300 2.925800
3.471300 2.940000
3.485200 2.906400
3.499100 2.871400
3.513000 2.856200
3.526900 2.857700
3.540800 2.867000
3.554700 2.879000
3.568700 2.900300
3.582600 2.927900
3.596500 2.963100
3.610400 3.005100
3.624300 3.071300
3.638200 3.136100
3.652100 3.219400
3.666100 3.266500
3.680000 3.309600
3.693900 3.425000
3.707800 3.609600
3.721700 3.885100
3.735600 4.242100
3.749500 4.368800
3.763500 4.196800
3.777400 4.133300
3.791300 4.049200
3.805200 3.864200
3.819100 3.753400
3.833000 3.405700
3.846900 2.862900
3.860900 2.768700
3.874800 2.686400
3.888700 2.628200
3.902600 2.557900
3.916500 2.479200
3.930400 2.386300
3.944300 2.288400
3.958300 2.215200
3.972200 2.113600
3.986100 2.194300
4.000000 2.022000
4.013900 1.621500
4.027800 1.603000
4.041700 1.575300
4.055600 1.555300
4.069600 1.561800
4.083500 1.569400
4.097400 1.579200
4.111300 1.597200
4.125200 1.624300
4.139100 1.657000
4.153000 1.751500
4.167000 1.641800
4.180900 1.676300
4.194800 1.600000
4.208700 1.381800
4.222600 1.341600
4.236500 1.307100
4.250400 1.258000
4.264400 1.235400
4.278300 1.224900
4.292200 1.211800
4.306100 1.198600
4.320000 1.185800
4.333900 1.172400
4.347800 1.158900
4.361800 1.147400
4.375700 1.148600
4.389600 1.159800
4.403500 1.175800
4.417400 1.196700
4.431300 1.220000
4.445200 1.245900
4.459200 1.284900
4.473100 1.055500
4.487000 0.806700
4.500900 0.719300
4.514800 0.666400
4.528700 0.618100
4.542600 0.573400
4.556600 0.532400
4.570500 0.495000
4.584400 0.459100
4.598300 0.422600
4.612200 0.387900
4.626100 0.363100
4.640000 0.348800
4.654000 0.338000
4.667900 0.327100
4.681800 0.314700
4.695700 0.301800
4.709600 0.292500
4.723500 0.284700
4.737400 0.277500
4.751400 0.271000
4.765300 0.264800
4.779200 0.258700
4.793100 0.252400
4.807000 0.246200
4.820900 0.240100
4.834800 0.233800
4.848800 0.227300
4.862700 0.220400
4.876600 0.213700
4.890500 0.207200
4.904400 0.201000
4.918300 0.195100
4.932200 0.189600
4.946200 0.184300
4.960100 0.179400
4.974000 0.175000
4.987900 0.170600
5.001800 0.166100
5.015700 0.161600
5.029600 0.157000
5.043500 0.152400
5.057500 0.147700
5.071400 0.142900
5.085300 0.137900
5.099200 0.133000
5.113100 0.127300
5.127000 0.119400
5.140900 0.112200
5.154900 0.105400
5.168800 0.098700
5.182700 0.092200
5.196600 0.085900
5.210500 0.079700
5.224400 0.073700
5.238300 0.067800
5.252300 0.062100
5.266200 0.056500
5.280100 0.051000
5.294000 0.045600
5.307900 0.040300
5.321800 0.035100
5.335700 0.030000
5.349700 0.024900
5.363600 0.019700
5.377500 0.014600
5.391400 0.010000
5.405300 0.005800
5.419200 0.002300
5.433100 0.000300
5.447100 0.000000
5.461000 0.000000
5.474900 0.000000
5.488800 0.000000
5.502700 0.000000
5.516600 0.000000
5.530500 0.000000
5.544500 0.000000
5.558400 0.000000
5.572300 0.000400
5.586200 0.001500
5.600100 0.003300
5.614000 0.005700
5.627900 0.008400
5.641900 0.011500
5.655800 0.015000
5.669700 0.018900
5.683600 0.023100
5.697500 0.027700
5.711400 0.032400
5.725300 0.036900
5.739300 0.042000
5.753200 0.047500
5.767100 0.052900
5.781000 0.058400
5.794900 0.064000
5.808800 0.069600
5.822700 0.075400
5.836700 0.084900
5.850600 0.103200
5.864500 0.127300
5.878400 0.154700
5.892300 0.184800
5.906200 0.217400
5.920100 0.252400
5.934000 0.303200
5.948000 0.371200
5.961900 0.446500
5.975800 0.533100
5.989700 0.642800
6.003600 0.747500
6.017500 0.837100
6.031400 0.944000
6.045400 1.049100
6.059300 1.144300
6.073200 1.231200
6.087100 1.306700
6.101000 1.376800
6.114900 1.451900
6.128800 1.522200
6.142800 1.619500
6.156700 1.753200
6.170600 1.728200
6.184500 1.711000
6.198400 1.658700
6.212300 1.643700
6.226200 1.633400
6.240200 1.719900
6.254100 1.804300
6.268000 1.884700
6.281900 1.897200
6.295800 1.716600
6.309700 1.691000
6.323600 1.685200
6.337600 1.667300
6.351500 1.643400
6.365400 1.622200
6.379300 1.616900
6.393200 1.611800
6.407100 1.618900
6.421000 1.617700
6.435000 1.623800
6.448900 1.643600
6.462800 1.627900
6.476700 1.636200
6.490600 1.639400
6.504500 1.659200
6.518400 1.695700
6.532400 1.688300
6.546300 1.692400
6.560200 1.708500
6.574100 1.721400
6.588000 1.725800
6.601900 1.731400
6.615800 1.744400
6.629800 1.764000
6.643700 1.789500
6.657600 1.838700
6.671500 1.851100
6.685400 1.865100
6.699300 1.900200
6.713200 1.938500
6.727200 1.983700
6.741100 2.032200
6.755000 2.060100
6.768900 2.063300
6.782800 2.068000
6.796700 2.081500
6.810600 2.101300
6.824600 2.126300
6.838500 2.170700
6.852400 2.238300
6.866300 2.299100
6.880200 2.334200
6.894100 2.368800
6.908000 2.416400
6.921900 2.469700
6.935900 2.533000
6.949800 2.599300
6.963700 2.674300
6.977600 2.733400
6.991500 2.784300
7.005400 2.852000
7.019300 2.914800
7.033300 3.002500
7.047200 3.084600
7.061100 3.159300
7.075000 3.261700
7.088900 3.276300
7.102800 3.239200
7.116700 3.193800
7.130700 3.164000
7.144600 3.144900
7.158500 3.124200
7.172400 3.104800
7.186300 3.074400
7.200200 3.028900
7.214100 3.025400
7.228100 3.000100
7.242000 2.877900
7.255900 2.814400
7.269800 2.776600
7.283700 2.747100
7.297600 2.745100
7.311500 2.857200
7.325500 2.808000
7.339400 2.843200
7.353300 2.894700
7.367200 2.953200
7.381100 3.017300
7.395000 3.284300
7.408900 3.192700
7.422900 3.296300
7.436800 3.368400
7.450700 3.422100
7.464600 3.468700
7.478500 3.513500
7.492400 3.564700
7.506300 3.611000
7.520300 3.670500
7.534200 3.712600
7.548100 3.951800
7.562000 4.132300
7.575900 4.350400
7.589800 4.518700
7.603700 4.429600
7.617700 4.403800
7.631600 4.491300
7.645500 4.621300
7.659400 4.700300
7.673300 4.630000
7.687200 4.529700
7.701100 4.550500
7.715100 4.674800
7.729000 4.654300
7.742900 4.684100
7.756800 4.614700
7.770700 4.508600
7.784600 4.276100
7.798500 4.084000
7.812400 3.969900
7.826400 3.942200
7.840300 3.539500
7.854200 3.264700
7.868100 3.073100
7.882000 2.981800
7.895900 2.954200
7.909800 2.989400
7.923800 2.878300
7.937700 2.795000
7.951600 2.713200
7.965500 2.703800
7.979400 2.698300
7.993300 2.700800
8.007200 2.697600
8.021200 2.700300
8.035100 2.710600
8.049000 2.725200
8.062900 3.021900
8.076800 3.461800
8.090700 3.760600
8.104600 3.954800
8.118600 4.086200
8.132500 4.219300
8.146400 4.200600
8.160300 4.003100
8.174200 3.873400
8.188100 3.972800
8.202000 3.914600
8.216000 3.712100
8.229900 3.460700
8.243800 3.329500
8.257700 3.221800
8.271600 3.040600
8.285500 2.884700
8.299400 2.756400
8.313400 2.919800
8.327300 2.587600
8.341200 2.509600
8.355100 2.563600
8.369000 2.380100
8.382900 2.425500
8.396800 2.332000
8.410800 2.280200
8.424700 2.247000
8.438600 2.239600
8.452500 2.240000
8.466400 2.256500
8.480300 2.307500
8.494200 2.328800
8.508200 2.419300
8.522100 2.579100
8.536000 3.017500
8.549900 3.141000
8.563800 3.066600
8.577700 2.991300
8.591600 2.895900
8.605600 2.862000
8.619500 2.853400
8.633400 2.891800
8.647300 2.853400
8.661200 2.844900
8.675100 2.779200
8.689000 2.679400
8.703000 2.551600
8.716900 2.585100
8.730800 2.782100
8.744700 2.658400
8.758600 2.376600
8.772500 2.314300
8.786400 2.347200
8.800300 2.432700
8.814300 2.539400
8.828200 2.613500
8.842100 2.629800
8.856000 2.664200
8.869900 2.700600
8.883800 2.650200
8.897700 2.605500
8.911700 2.583200
8.925600 2.856800
8.939500 2.424900
8.953400 2.227400
8.967300 2.212200
8.981200 2.202400
8.995100 2.202400
9.009100 2.213000
9.023000 2.228900
9.036900 2.251800
9.050800 2.294800
9.064700 2.360100
9.078600 2.435900
9.092500 2.497500
9.106500 2.530300
9.120400 2.595700
9.134300 2.629900
9.148200 2.623500
9.162100 2.504800
9.176000 2.347800
9.189900 2.224800
9.203900 2.169200
9.217800 2.123500
9.231700 2.088700
9.245600 2.062400
9.259500 2.044200
9.273400 2.030300
9.287300 2.017900
9.301300 2.006900
9.315200 1.998100
9.329100 1.990200
9.343000 1.982300
9.356900 1.971700
9.370800 1.968900
9.384700 1.967400
9.398700 1.953600
9.412600 1.946600
9.426500 1.938600
9.440400 1.933700
9.454300 1.937900
9.468200 1.944200
9.482100 1.951800
9.496100 1.965300
9.510000 1.981600
9.523900 1.997300
9.537800 2.007100
9.551700 2.021300
9.565600 2.039600
9.579500 2.051400
9.593500 2.049700
9.607400 2.045400
9.621300 2.052700
9.635200 2.057300
9.649100 2.020800
9.663000 2.004700
9.676900 2.032000
9.690800 2.046500
9.704800 2.059100
9.718700 2.065000
9.732600 2.058200
9.746500 2.041300
9.760400 2.026300
9.774300 1.997000
9.788200 1.973100
9.802200 1.948400
9.816100 1.918600
9.830000 1.882400
9.843900 1.825700
9.857800 1.785300
9.871700 1.770900
9.885600 1.753600
9.899600 1.735600
9.913500 1.717500
9.927400 1.705400
9.941300 1.723600
9.955200 1.726700
9.969100 1.735300
9.983000 1.754400
9.997000 1.834300
10.010900 1.958700
10.024800 2.086100
10.038700 2.123600
10.052600 2.160100
10.066500 2.188700
10.080400 2.229500
10.094400 2.261800
10.108300 2.284700
10.122200 2.310400
10.136100 2.339600
10.150000 2.376200
10.163900 2.428700
10.177800 2.515400
10.191800 2.576300
10.205700 2.587100
10.219600 2.615500
10.233500 2.653200
10.247400 2.653400
10.261300 2.637900
10.275200 2.745600
10.289200 2.870900
10.303100 2.904200
10.317000 2.852300
10.330900 2.757200
10.344800 2.645100
10.358700 2.529000
10.372600 2.407700
10.386600 2.285400
10.400500 2.158000
10.414400 2.064400
10.428300 1.974100
10.442200 1.903400
10.456100 1.843200
10.470000 1.784500
10.484000 1.728500
10.497900 1.678000
10.511800 1.638700
10.525700 1.600500
10.539600 1.548300
10.553500 1.495700
10.567400 1.446000
10.581400 1.412700
10.595300 1.395700
10.609200 1.381700
10.623100 1.369900
10.637000 1.362200
10.650900 1.310300
10.664800 1.311800
10.678700 1.328400
10.692700 1.357900
10.706600 1.350200
10.720500 1.354100
10.734400 1.367200
10.748300 1.365400
10.762200 1.345400
10.776100 1.351100
10.790100 1.364500
10.804000 1.389700
10.817900 1.410600
10.831800 1.424400
10.845700 1.439200
10.859600 1.511700
10.873500 1.562500
10.887500 1.627600
10.901400 1.714600
10.915300 1.745500
10.929200 1.682400
10.943100 1.603500
10.957000 1.584700
10.970900 1.545600
10.984900 1.509800
10.998800 1.510000
11.012700 1.489300
11.026600 1.470100
11.040500 1.455900
11.054400 1.442900
11.068300 1.437400
11.082300 1.434200
11.096200 1.434400
11.110100 1.440800
11.124000 1.443200
11.137900 1.452400
11.151800 1.469100
11.165700 1.487200
11.179700 1.511000
11.193600 1.542500
11.207500 1.578000
11.221400 1.615700
11.235300 1.657300
11.249200 1.709900
11.263100 1.762400
11.277100 1.811600
11.291000 1.911900
11.304900 1.908000
11.318800 1.944000
11.332700 1.988000
11.346600 2.038600
11.360500 2.082100
11.374500 2.215900
11.388400 2.337000
11.402300 2.569200
11.416200 2.715600
11.430100 2.819100
11.444000 2.866400
11.457900 2.950500
11.471900 3.056500
11.485800 3.142400
11.499700 3.116300
11.513600 3.318300
11.527500 3.259700
11.541400 3.310300
11.555300 3.303600
11.569200 3.210700
11.583200 3.115500
11.597100 2.993300
11.611000 2.901300
11.624900 2.894900
11.638800 2.890600
11.652700 2.897900
11.666600 2.893100
11.680600 2.920400
11.694500 3.026500
11.708400 3.167800
11.722300 3.279500
11.736200 3.389900
11.750100 3.513300
11.764000 3.541000
11.778000 3.615800
11.791900 3.679800
11.805800 3.700300
11.819700 3.650900
11.833600 3.551100
11.847500 3.439900
11.861400 3.636100
11.875400 3.419700
11.889300 3.277600
11.903200 3.244400
11.917100 3.209900
11.931000 3.330000
11.944900 3.488500
11.958800 3.441800
11.972800 3.475300
11.986700 3.432100
12.000600 3.437500
12.014500 3.473300
12.028400 3.537800
12.042300 3.561000
12.056200 3.501600
12.070200 3.416000
12.084100 3.349600
12.098000 3.300300
12.111900 3.192400
12.125800 3.148900
12.139700 3.115900
12.153600 3.095000
12.167600 2.974900
12.181500 2.883400
12.195400 2.800300
12.209300 2.713600
12.223200 2.490300
12.237100 2.450600
12.251000 2.414200
12.265000 2.374400
12.278900 2.349700
12.292800 2.314200
12.306700 2.261000
12.320600 2.168800
12.334500 2.085900
12.348400 2.035700
12.362400 1.991700
12.376300 1.948000
12.390200 1.899500
12.404100 1.853900
12.418000 1.812900
12.431900 1.776700
12.445800 1.752400
12.459800 1.752300
12.473700 1.783100
12.487600 1.804200
12.501500 1.814900
12.515400 1.814700
12.529300 1.817000
12.543200 1.823000
12.557100 1.831800
12.571100 1.854800
12.585000 1.893800
12.598900 1.881900
12.612800 1.903400
12.626700 1.947800
12.640600 2.001900
12.654500 2.076400
12.668500 2.167100
12.682400 2.271900
12.696300 2.339000
12.710200 2.432300
12.724100 2.517100
12.738000 2.554800
12.751900 2.576300
12.765900 2.607200
12.779800 2.658400
12.793700 2.691900
12.807600 2.731400
12.821500 2.788300
12.835400 2.806300
12.849300 2.821700
12.863300 2.871800
12.877200 2.962200
12.891100 3.056100
12.905000 3.141500
12.918900 3.212100
12.932800 3.293600
12.946700 3.378500
12.960700 3.498500
12.974600 3.549400
12.988500 3.577500
13.002400 3.518900
13.016300 3.499900
13.030200 3.466100
13.044100 3.388600
13.058100 3.358900
13.072000 3.344600
13.085900 3.333600
13.099800 3.323400
13.113700 3.319300
13.127600 3.347800
13.141500 3.318000
13.155500 3.313900
13.169400 3.297500
13.183300 3.317700
13.197200 3.184300
13.211100 2.978200
13.225000 2.841400
13.238900 2.731800
13.252900 2.668900
13.266800 2.594900
13.280700 2.545100
13.294600 2.511000
13.308500 2.483800
13.322400 2.445800
13.336300 2.418200
13.350300 2.404100
13.364200 2.404900
13.378100 2.392100
13.392000 2.374000
13.405900 2.347600
13.419800 2.280500
13.433700 2.215900
13.447600 2.147500
13.461600 2.081100
13.475500 2.021700
13.489400 1.961200
13.503300 1.900100
13.517200 1.853700
13.531100 1.814700
13.545000 1.797900
13.559000 1.706000
13.572900 1.612200
13.586800 1.548500
13.600700 1.482800
13.614600 1.421300
13.628500 1.370500
13.642400 1.334300
13.656400 1.302200
13.670300 1.272500
13.684200 1.246300
13.698100 1.222000
13.712000 1.199600
13.725900 1.178600
13.739800 1.158800
13.753800 1.140800
13.767700 1.124000
13.781600 1.107800
13.795500 1.093000
13.809400 1.067900
13.823300 1.046500
13.837200 1.031700
13.851200 1.017100
13.865100 1.003300
13.879000 0.994200
13.892900 0.988200
13.906800 0.984500
13.920700 0.989200
13.934600 0.993100
13.948600 0.993900
13.962500 0.992000
13.976400 0.986700
13.990300 0.979000
14.004200 0.970700
14.018100 0.960100
14.032000 0.952400
14.046000 0.948100
14.059900 0.946200
14.073800 0.945200
14.087700 0.945500
14.101600 0.952900
14.115500 0.956100
14.129400 0.959700
14.143400 0.964700
14.157300 0.973300
14.171200 0.988800
14.185100 0.980400
14.199000 0.973800
14.212900 0.970400
14.226800 0.967000
14.240800 0.954100
14.254700 0.948900
14.268600 0.944800
14.282500 0.939000
14.296400 0.929500
14.310300 0.917700
14.324200 0.908600
14.338200 0.914200
14.352100 0.861900
14.366000 0.833400
14.379900 0.803300
14.393800 0.762800
14.407700 0.721900
14.421600 0.683400
14.435500 0.645500
14.449500 0.616300
14.463400 0.589800
14.477300 0.566300
14.491200 0.547700
14.505100 0.528700
14.519000 0.511100
14.532900 0.499100
14.546900 0.493300
14.560800 0.493200
14.574700 0.494300
14.588600 0.496600
14.602500 0.500000
14.616400 0.504200
14.630300 0.509300
14.644300 0.526000
14.658200 0.536200
14.672100 0.545600
14.686000 0.548100
14.699900 0.557400
14.713800 0.563200
14.727700 0.584900
14.741700 0.550700
14.755600 0.535600
14.769500 0.535800
14.783400 0.534100
14.797300 0.529500
14.811200 0.522200
14.825100 0.512100
14.839100 0.498800
14.853000 0.478600
14.866900 0.449200
14.880800 0.415600
14.894700 0.382700
14.908600 0.350300
14.922500 0.319500
14.936500 0.290600
14.950400 0.263800
14.964300 0.241000
14.978200 0.221000
14.992100 0.200800
15.006000 0.180300
15.019900 0.159600
15.033900 0.138500
15.047800 0.109900
15.061700 0.076700
15.075600 0.061100
15.089500 0.047100
15.103400 0.034800
15.117300 0.024500
15.131300 0.016200
15.145200 0.010200
15.159100 0.006200
15.173000 0.003500
15.186900 0.001600
15.200800 0.000400
15.214700 0.000000
15.228700 0.000000
15.242600 0.000000
15.256500 0.000000
15.270400 0.000000
15.284300 0.000000
15.298200 0.000000
15.312100 0.000000
15.326000 0.000000
15.340000 0.000000
15.353900 0.000000
15.367800 0.000000
15.381700 0.000000
15.395600 0.000000
15.409500 0.000000
15.423400 0.000000
15.437400 0.000000
15.451300 0.000000
15.465200 0.000000
15.479100 0.000000
15.493000 0.000000
15.506900 0.000000
15.520800 0.000000
15.534800 0.000000
15.548700 0.000000
15.562600 0.000000
15.576500 0.000000
15.590400 0.000000
15.604300 0.000000
15.618200 0.000000
15.632200 0.000000
15.646100 0.000000
15.660000 0.000000
15.673900 0.000000
15.687800 0.000000
15.701700 0.000000
15.715600 0.000000
15.729600 0.000000
15.743500 0.000000
15.757400 0.000000
15.771300 0.000000
15.785200 0.000000
15.799100 0.000000
15.813000 0.000000
15.827000 0.000000
15.840900 0.000000
15.854800 0.000000
15.868700 0.000000
15.882600 0.000000
15.896500 0.000000
15.910400 0.000000
15.924400 0.000000
15.938300 0.000000
15.952200 0.000000
15.966100 0.000000
15.980000 0.000000
15.993900 0.000000
16.007800 0.000000
16.021800 0.000000
16.035700 0.000000
16.049600 0.000000
16.063500 0.000000
16.077400 0.000000
16.091300 0.000000
16.105200 0.000000
16.119200 0.000000
16.133100 0.000000
16.147000 0.000000
16.160900 0.000000
16.174800 0.000000
16.188700 0.000000
16.202600 0.000000
16.216600 0.000000
16.230500 0.000000
16.244400 0.000000
16.258300 0.000000
16.272200 0.000000
16.286100 0.000000
16.300000 0.000000
16.313900 0.000000
16.327900 0.000000
16.341800 0.000000
16.355700 0.000000
16.369600 0.000000
16.383500 0.000000
16.397400 0.000000
16.411300 0.000000
16.425300 0.000000
16.439200 0.000000
16.453100 0.000000
16.467000 0.000000
16.480900 0.000000
e
