set title 'mp-611448 - Density of States'
set xlabel 'Energy (eV)'
set ylabel 'DOS (states/eV)'
set grid
set xrange [-10:10]
set yrange [0:6.125]
set xzeroaxis lt -1
set terminal png size 800,600
set output 'mp-611448_dos_gnuplot.png'
plot '-' using 1:2 with lines title 'DOS'
-14.215900 0.000000
-14.188600 0.000000
-14.161400 0.000000
-14.134100 0.000000
-14.106800 0.000000
-14.079500 0.000000
-14.052200 0.000000
-14.024900 0.000000
-13.997600 0.000000
-13.970400 0.000000
-13.943100 0.000000
-13.915800 0.000000
-13.888500 0.000000
-13.861200 0.000000
-13.833900 0.000000
-13.806600 0.000000
-13.779400 0.000000
-13.752100 0.000000
-13.724800 0.000000
-13.697500 0.000000
-13.670200 0.000000
-13.642900 0.000000
-13.615600 0.000000
-13.588300 0.000000
-13.561100 0.000000
-13.533800 0.000000
-13.506500 0.000000
-13.479200 0.000000
-13.451900 0.000000
-13.424600 0.000000
-13.397300 0.000000
-13.370100 0.000000
-13.342800 0.000000
-13.315500 0.000000
-13.288200 0.000000
-13.260900 0.000000
-13.233600 0.000000
-13.206300 0.000000
-13.179100 0.000000
-13.151800 0.000000
-13.124500 0.000000
-13.097200 0.000000
-13.069900 0.000000
-13.042600 0.000000
-13.015300 0.000000
-12.988100 0.000000
-12.960800 0.000000
-12.933500 0.000000
-12.906200 0.000000
-12.878900 0.000000
-12.851600 0.000000
-12.824300 0.000000
-12.797100 0.000000
-12.769800 0.000000
-12.742500 0.000000
-12.715200 0.000000
-12.687900 0.000000
-12.660600 0.000000
-12.633300 0.000000
-12.606100 0.000000
-12.578800 0.000000
-12.551500 0.000000
-12.524200 0.000000
-12.496900 0.000000
-12.469600 0.000000
-12.442300 0.000000
-12.415100 0.000000
-12.387800 0.000000
-12.360500 0.000000
-12.333200 0.000000
-12.305900 0.000000
-12.278600 0.000000
-12.251300 0.000000
-12.224100 0.000000
-12.196800 0.000000
-12.169500 0.000000
-12.142200 0.000000
-12.114900 0.000000
-12.087600 0.000000
-12.060300 0.000000
-12.033100 0.000000
-12.005800 0.000000
-11.978500 0.000000
-11.951200 0.000000
-11.923900 0.000000
-11.896600 0.000000
-11.869300 0.000000
-11.842100 0.000000
-11.814800 0.000000
-11.787500 0.000000
-11.760200 0.000000
-11.732900 0.000000
-11.705600 0.006700
-11.678300 0.024500
-11.651100 0.053600
-11.623800 0.093800
-11.596500 0.145300
-11.569200 0.208000
-11.541900 0.249400
-11.514600 0.281300
-11.487300 0.306900
-11.460100 0.326100
-11.432800 0.339100
-11.405500 0.345800
-11.378200 0.346100
-11.350900 0.362900
-11.323600 0.382500
-11.296300 0.402500
-11.269100 0.422800
-11.241800 0.443400
-11.214500 0.464200
-11.187200 0.483700
-11.159900 0.501500
-11.132600 0.517500
-11.105300 0.531700
-11.078100 0.544200
-11.050800 0.554900
-11.023500 0.564900
-10.996200 0.575100
-10.968900 0.582600
-10.941600 0.587300
-10.914300 0.590200
-10.887000 0.592600
-10.859800 0.594400
-10.832500 0.599800
-10.805200 0.614600
-10.777900 0.631600
-10.750600 0.644000
-10.723300 0.655000
-10.696000 0.666000
-10.668800 0.677000
-10.641500 0.687900
-10.614200 0.698900
-10.586900 0.709800
-10.559600 0.720700
-10.532300 0.729800
-10.505000 0.736800
-10.477800 0.743800
-10.450500 0.751200
-10.423200 0.758800
-10.395900 0.766500
-10.368600 0.774000
-10.341300 0.783000
-10.314000 0.792600
-10.286800 0.801900
-10.259500 0.810800
-10.232200 0.819600
-10.204900 0.828300
-10.177600 0.837100
-10.150300 0.846000
-10.123000 0.855200
-10.095800 0.864500
-10.068500 0.874000
-10.041200 0.883600
-10.013900 0.893100
-9.986600 0.901900
-9.959300 0.910100
-9.932000 0.917600
-9.904800 0.924500
-9.877500 0.930600
-9.850200 0.938000
-9.822900 0.946100
-9.795600 0.955200
-9.768300 0.964300
-9.741000 0.973000
-9.713800 0.981500
-9.686500 0.989900
-9.659200 0.997700
-9.631900 1.005000
-9.604600 1.011700
-9.577300 1.017900
-9.550000 1.023500
-9.522800 1.028700
-9.495500 1.034000
-9.468200 1.039700
-9.440900 1.045700
-9.413600 1.052100
-9.386300 1.058700
-9.359000 1.065700
-9.331800 1.072900
-9.304500 1.080000
-9.277200 1.087100
-9.249900 1.094200
-9.222600 1.101200
-9.195300 1.108200
-9.168000 1.115200
-9.140800 1.122200
-9.113500 1.129100
-9.086200 1.136100
-9.058900 1.142900
-9.031600 1.149800
-9.004300 1.156700
-8.977000 1.163800
-8.949800 1.171000
-8.922500 1.178600
-8.895200 1.186400
-8.867900 1.194400
-8.840600 1.202700
-8.813300 1.211000
-8.786000 1.219200
-8.758800 1.226700
-8.731500 1.232400
-8.704200 1.236900
-8.676900 1.241100
-8.649600 1.245100
-8.622300 1.248800
-8.595000 1.257600
-8.567800 1.268500
-8.540500 1.275600
-8.513200 1.281700
-8.485900 1.287600
-8.458600 1.293400
-8.431300 1.299100
-8.404000 1.304500
-8.376800 1.309900
-8.349500 1.315800
-8.322200 1.321600
-8.294900 1.327400
-8.267600 1.333200
-8.240300 1.339300
-8.213000 1.345600
-8.185800 1.352000
-8.158500 1.358600
-8.131200 1.365300
-8.103900 1.372000
-8.076600 1.378700
-8.049300 1.385300
-8.022000 1.391900
-7.994700 1.398700
-7.967500 1.405600
-7.940200 1.412500
-7.912900 1.419500
-7.885600 1.426600
-7.858300 1.433700
-7.831000 1.441200
-7.803700 1.448800
-7.776500 1.456300
-7.749200 1.463800
-7.721900 1.471300
-7.694600 1.478900
-7.667300 1.486500
-7.640000 1.494200
-7.612700 1.502400
-7.585500 1.510800
-7.558200 1.519000
-7.530900 1.527300
-7.503600 1.535900
-7.476300 1.544600
-7.449000 1.553400
-7.421700 1.562400
-7.394500 1.571600
-7.367200 1.580900
-7.339900 1.590200
-7.312600 1.599700
-7.285300 1.609300
-7.258000 1.618900
-7.230700 1.628400
-7.203500 1.638000
-7.176200 1.647800
-7.148900 1.658200
-7.121600 1.669200
-7.094300 1.681000
-7.067000 1.693900
-7.039700 1.707400
-7.012500 1.720300
-6.985200 1.733800
-6.957900 1.747700
-6.930600 1.762100
-6.903300 1.777100
-6.876000 1.792600
-6.848700 1.808400
-6.821500 1.824800
-6.794200 1.841600
-6.766900 1.859000
-6.739600 1.876800
-6.712300 1.911900
-6.685000 1.974600
-6.657700 2.033300
-6.630500 2.087800
-6.603200 2.138300
-6.575900 2.184700
-6.548600 2.215000
-6.521300 2.229500
-6.494000 2.241300
-6.466700 2.250400
-6.439500 2.256700
-6.412200 2.259800
-6.384900 2.259800
-6.357600 2.256600
-6.330300 2.250100
-6.303000 2.240500
-6.275700 2.227700
-6.248500 2.211900
-6.221200 2.199300
-6.193900 2.192500
-6.166600 2.205900
-6.139300 2.281300
-6.112000 2.035600
-6.084700 2.021100
-6.057500 2.025700
-6.030200 2.046500
-6.002900 2.062700
-5.975600 2.074200
-5.948300 2.081100
-5.921000 2.083300
-5.893700 2.085100
-5.866500 2.086900
-5.839200 2.086300
-5.811900 2.145800
-5.784600 2.408700
-5.757300 2.368700
-5.730000 2.341600
-5.702700 2.313600
-5.675500 2.265100
-5.648200 2.087000
-5.620900 2.075800
-5.593600 2.068000
-5.566300 2.060800
-5.539000 2.054400
-5.511700 2.048600
-5.484500 2.043300
-5.457200 2.038600
-5.429900 2.033500
-5.402600 2.038100
-5.375300 2.044400
-5.348000 2.044000
-5.320700 2.037000
-5.293500 2.023200
-5.266200 2.002800
-5.238900 1.985800
-5.211600 1.999500
-5.184300 2.039700
-5.157000 2.009300
-5.129700 1.967500
-5.102400 1.934000
-5.075200 1.904600
-5.047900 1.868900
-5.020600 1.825500
-4.993300 1.782000
-4.966000 1.743000
-4.938700 1.708600
-4.911400 1.680400
-4.884200 1.658900
-4.856900 1.644000
-4.829600 1.625600
-4.802300 1.592900
-4.775000 1.564100
-4.747700 1.538300
-4.720400 1.515500
-4.693200 1.496300
-4.665900 1.480800
-4.638600 1.469100
-4.611300 1.461200
-4.584000 1.484000
-4.556700 1.498600
-4.529400 1.509900
-4.502200 1.575200
-4.474900 1.649400
-4.447600 1.698000
-4.420300 1.721100
-4.393000 1.720700
-4.365700 1.713800
-4.338400 1.704300
-4.311200 1.692200
-4.283900 1.677600
-4.256600 1.660300
-4.229300 1.641600
-4.202000 1.627800
-4.174700 1.620500
-4.147400 1.650000
-4.120200 1.742800
-4.092900 1.672100
-4.065600 1.527100
-4.038300 1.564400
-4.011000 1.629600
-3.983700 1.692200
-3.956400 1.752100
-3.929200 1.809500
-3.901900 1.864100
-3.874600 1.916200
-3.847300 1.965500
-3.820000 2.045800
-3.792700 2.047700
-3.765400 2.054700
-3.738200 2.066700
-3.710900 2.076800
-3.683600 2.067100
-3.656300 2.036500
-3.629000 1.985200
-3.601700 1.914700
-3.574400 1.825500
-3.547200 1.735500
-3.519900 1.634300
-3.492600 1.554000
-3.465300 1.481200
-3.438000 1.392800
-3.410700 1.290100
-3.383400 1.177300
-3.356200 1.046900
-3.328900 0.993300
-3.301600 0.974300
-3.274300 0.960300
-3.247000 0.950100
-3.219700 0.943900
-3.192400 0.941900
-3.165200 0.944000
-3.137900 0.950000
-3.110600 0.982500
-3.083300 1.031200
-3.056000 1.086700
-3.028700 1.225700
-3.001400 1.377300
-2.974200 1.513000
-2.946900 1.623400
-2.919600 1.691900
-2.892300 1.668300
-2.865000 1.576200
-2.837700 1.513900
-2.810400 1.505600
-2.783200 1.497000
-2.755900 1.488000
-2.728600 1.478700
-2.701300 1.469000
-2.674000 1.423200
-2.646700 1.395200
-2.619400 1.389500
-2.592200 1.405800
-2.564900 1.430400
-2.537600 1.456600
-2.510300 1.484500
-2.483000 1.523400
-2.455700 1.655500
-2.428400 1.881100
-2.401200 1.984700
-2.373900 2.104700
-2.346600 2.220700
-2.319300 2.309900
-2.292000 2.372000
-2.264700 2.407200
-2.237400 2.413400
-2.210100 2.393300
-2.182900 2.390300
-2.155600 3.795100
-2.128300 3.165500
-2.101000 2.712900
-2.073700 2.404200
-2.046400 2.220600
-2.019100 2.169400
-1.991900 2.246300
-1.964600 2.375800
-1.937300 2.520400
-1.910000 2.685500
-1.882700 2.847100
-1.855400 2.957100
-1.828100 3.072300
-1.800900 3.138100
-1.773600 3.161700
-1.746300 3.178900
-1.719000 3.189900
-1.691700 3.226900
-1.664400 3.423000
-1.637100 3.792100
-1.609900 3.643300
-1.582600 3.534700
-1.555300 3.601300
-1.528000 3.461200
-1.500700 3.330400
-1.473400 3.204100
-1.446100 3.082200
-1.418900 2.964700
-1.391600 2.851600
-1.364300 2.742800
-1.337000 2.519300
-1.309700 2.294000
-1.282400 2.156200
-1.255100 2.090200
-1.227900 2.033100
-1.200600 1.978100
-1.173300 1.927500
-1.146000 1.886500
-1.118700 1.858600
-1.091400 1.856500
-1.064100 1.883100
-1.036900 1.936400
-1.009600 2.009900
-0.982300 2.094600
-0.955000 2.171000
-0.927700 2.236700
-0.900400 2.291100
-0.873100 2.337300
-0.845900 2.376200
-0.818600 2.407700
-0.791300 2.431300
-0.764000 2.447500
-0.736700 2.464500
-0.709400 2.471000
-0.682100 2.471100
-0.654900 2.464900
-0.627600 2.452300
-0.600300 2.433600
-0.573000 2.399300
-0.545700 2.335300
-0.518400 2.264600
-0.491100 2.226000
-0.463900 2.184900
-0.436600 2.141000
-0.409300 2.114200
-0.382000 2.109300
-0.354700 2.104200
-0.327400 2.099100
-0.300100 2.093800
-0.272900 2.088300
-0.245600 2.081900
-0.218300 2.074800
-0.191000 2.067700
-0.163700 2.060500
-0.136400 2.053200
-0.109100 2.045300
-0.081900 2.034000
-0.054600 2.019000
-0.027300 2.000600
0.000000 1.983100
0.027300 1.967000
0.054600 1.952500
0.081900 1.953200
0.109100 1.968500
0.136400 1.989000
0.163700 2.014600
0.191000 2.045300
0.218300 2.081000
0.245600 2.098300
0.272900 2.114400
0.300100 2.130300
0.327400 2.146300
0.354700 2.163100
0.382000 2.181700
0.409300 2.208400
0.436600 2.261600
0.463900 2.329200
0.491200 2.526000
0.518400 2.556800
0.545700 2.543300
0.573000 2.486200
0.600300 2.384800
0.627600 2.273400
0.654900 2.286300
0.682200 2.298600
0.709400 2.312500
0.736700 2.331000
0.764000 2.354100
0.791300 2.380700
0.818600 2.404900
0.845900 2.425700
0.873200 2.443300
0.900400 2.457700
0.927700 2.468200
0.955000 2.473000
0.982300 2.473000
1.009600 2.453700
1.036900 2.463500
1.064200 2.473100
1.091400 2.438600
1.118700 2.410300
1.146000 2.384800
1.173300 2.354100
1.200600 2.340200
1.227900 2.343500
1.255200 2.366000
1.282400 2.407800
1.309700 2.476600
1.337000 2.573100
1.364300 2.711600
1.391600 2.826900
1.418900 2.866400
1.446200 2.925700
1.473400 2.988100
1.500700 3.053700
1.528000 3.122400
1.555300 3.194300
1.582600 3.269000
1.609900 3.345100
1.637200 3.378900
1.664400 3.374500
1.691700 3.421900
1.719000 3.526100
1.746300 3.597900
1.773600 3.629900
1.800900 3.627600
1.828200 3.623400
1.855400 3.621400
1.882700 3.613600
1.910000 3.600600
1.937300 3.582800
1.964600 3.560100
1.991900 3.539700
2.019200 3.522600
2.046400 3.504900
2.073700 3.486500
2.101000 3.467700
2.128300 3.448300
2.155600 3.429200
2.182900 3.413000
2.210200 3.399700
2.237400 3.393400
2.264700 3.391400
2.292000 3.414900
2.319300 3.467800
2.346600 3.547100
2.373900 3.517200
2.401200 3.472100
2.428400 3.383500
2.455700 3.316400
2.483000 3.305400
2.510300 3.298700
2.537600 3.345000
2.564900 3.359700
2.592200 3.352800
2.619400 3.350400
2.646700 3.354100
2.674000 3.365600
2.701300 3.384900
2.728600 3.411700
2.755900 3.430700
2.783200 3.294600
2.810400 3.285500
2.837700 3.283000
2.865000 3.296700
2.892300 3.332200
2.919600 3.337900
2.946900 3.345600
2.974200 3.343400
3.001400 3.344400
3.028700 3.348100
3.056000 3.351100
3.083300 3.354100
3.110600 3.363000
3.137900 3.386200
3.165200 3.424200
3.192400 3.473600
3.219700 3.534400
3.247000 3.606700
3.274300 3.690300
3.301600 3.770800
3.328900 3.823000
3.356200 3.880200
3.383500 4.596300
3.410700 5.247500
3.438000 5.528600
3.465300 5.568300
3.492600 5.552400
3.519900 5.492100
3.547200 5.446700
3.574500 5.010700
3.601700 4.939800
3.629000 5.347700
3.656300 4.950300
3.683600 4.796400
3.710900 4.657600
3.738200 4.533200
3.765500 4.432300
3.792700 4.361800
3.820000 4.311700
3.847300 4.280200
3.874600 4.254300
3.901900 4.234000
3.929200 4.215400
3.956500 4.193500
3.983700 4.168100
4.011000 4.135900
4.038300 4.096100
4.065600 4.048800
4.092900 4.001300
4.120200 3.956000
4.147500 3.897900
4.174700 3.893700
4.202000 3.917100
4.229300 3.923200
4.256600 3.931700
4.283900 3.937300
4.311200 3.954800
4.338500 3.985600
4.365700 4.025800
4.393000 4.062300
4.420300 4.053200
4.447600 4.042700
4.474900 4.035700
4.502200 4.035600
4.529500 4.071200
4.556700 4.254700
4.584000 4.540400
4.611300 4.802500
4.638600 5.154900
4.665900 5.537800
4.693200 5.520700
4.720500 5.344300
4.747700 5.255200
4.775000 5.135600
4.802300 5.006600
4.829600 4.880100
4.856900 4.773300
4.884200 4.678800
4.911500 4.595700
4.938700 4.527600
4.966000 4.475500
4.993300 4.445400
5.020600 4.436500
5.047900 4.244300
5.075200 4.171100
5.102500 4.134000
5.129700 4.141500
5.157000 4.171600
5.184300 4.216900
5.211600 4.301300
5.238900 4.415700
5.266200 4.370500
5.293500 4.322200
5.320700 4.272000
5.348000 4.220000
5.375300 4.166100
5.402600 4.129900
5.429900 4.135800
5.457200 4.148600
5.484500 4.166800
5.511700 4.190500
5.539000 4.221000
5.566300 4.270100
5.593600 4.333900
5.620900 4.393700
5.648200 4.463200
5.675500 4.566300
5.702700 4.667400
5.730000 4.776400
5.757300 4.893000
5.784600 4.991600
5.811900 5.064800
5.839200 5.113700
5.866500 5.131100
5.893700 5.224800
5.921000 5.137400
5.948300 4.987500
5.975600 4.854700
6.002900 4.736200
6.030200 4.632600
6.057500 4.555300
6.084700 4.474300
6.112000 4.382400
6.139300 4.355200
6.166600 4.461800
6.193900 4.437400
6.221200 4.414600
6.248500 4.396200
6.275800 4.379600
6.303000 4.360100
6.330300 4.398600
6.357600 4.417900
6.384900 4.371700
6.412200 4.285400
6.439500 4.226500
6.466800 4.172200
6.494000 4.110600
6.521300 4.054700
6.548600 3.985000
6.575900 3.929900
6.603200 3.878500
6.630500 3.829900
6.657800 3.735800
6.685000 3.635500
6.712300 3.546200
6.739600 3.461700
6.766900 3.378400
6.794200 3.284500
6.821500 3.188700
6.848800 3.094300
6.876000 3.003700
6.903300 2.920700
6.930600 2.844900
6.957900 2.776200
6.985200 2.714300
7.012500 2.658900
7.039800 2.608700
7.067000 2.571400
7.094300 2.533400
7.121600 2.491800
7.148900 2.448200
7.176200 2.402500
7.203500 2.351200
7.230800 2.298800
7.258000 2.257600
7.285300 2.224900
7.312600 2.182900
7.339900 2.144200
7.367200 2.108900
7.394500 2.077800
7.421800 2.051200
7.449000 2.026300
7.476300 2.000100
7.503600 1.972400
7.530900 1.943200
7.558200 1.913400
7.585500 1.883900
7.612800 1.854900
7.640000 1.826300
7.667300 1.798100
7.694600 1.774000
7.721900 1.751400
7.749200 1.727500
7.776500 1.701900
7.803800 1.673700
7.831000 1.642800
7.858300 1.609400
7.885600 1.575500
7.912900 1.542400
7.940200 1.493200
7.967500 1.452300
7.994800 1.428600
8.022000 1.412400
8.049300 1.399900
8.076600 1.389300
8.103900 1.379400
8.131200 1.367800
8.158500 1.354500
8.185800 1.339500
8.213000 1.322700
8.240300 1.312700
8.267600 1.305500
8.294900 1.290200
8.322200 1.266800
8.349500 1.235200
8.376800 1.195600
8.404000 1.143400
8.431300 1.070200
8.458600 1.025900
8.485900 0.984700
8.513200 0.959900
8.540500 0.936400
8.567800 0.913500
8.595000 0.891300
8.622300 0.869900
8.649600 0.849100
8.676900 0.829100
8.704200 0.811500
8.731500 0.795000
8.758800 0.775500
8.786000 0.727000
8.813300 0.708400
8.840600 0.689500
8.867900 0.670600
8.895200 0.651800
8.922500 0.633200
8.949800 0.614700
8.977000 0.596200
9.004300 0.578000
9.031600 0.559800
9.058900 0.541000
9.086200 0.522100
9.113500 0.503500
9.140800 0.485300
9.168100 0.467400
9.195300 0.474200
9.222600 0.480900
9.249900 0.481000
9.277200 0.474700
9.304500 0.461900
9.331800 0.442500
9.359100 0.408000
9.386300 0.358900
9.413600 0.314200
9.440900 0.273800
9.468200 0.236700
9.495500 0.201100
9.522800 0.158700
9.550100 0.121800
9.577300 0.090100
9.604600 0.063800
9.631900 0.042400
9.659200 0.025400
9.686500 0.012700
9.713800 0.004400
9.741100 0.000400
9.768300 0.000000
9.795600 0.000000
9.822900 0.000000
9.850200 0.000000
9.877500 0.000000
9.904800 0.000000
9.932100 0.000000
9.959300 0.000000
9.986600 0.000000
10.013900 0.000000
10.041200 0.000000
10.068500 0.000000
10.095800 0.000000
10.123100 0.000000
10.150300 0.000000
10.177600 0.000000
10.204900 0.000000
10.232200 0.000000
10.259500 0.000000
10.286800 0.000000
10.314100 0.000000
10.341300 0.000000
10.368600 0.000000
10.395900 0.000000
10.423200 0.000000
10.450500 0.000000
10.477800 0.000000
10.505100 0.000000
10.532300 0.000000
10.559600 0.000000
10.586900 0.000000
10.614200 0.000000
10.641500 0.000000
10.668800 0.000000
10.696100 0.000000
10.723300 0.000000
10.750600 0.000000
10.777900 0.000000
10.805200 0.000000
10.832500 0.000000
10.859800 0.000000
10.887100 0.000000
10.914300 0.000000
10.941600 0.000000
10.968900 0.000000
10.996200 0.000000
11.023500 0.000000
11.050800 0.000000
11.078100 0.000000
11.105300 0.000000
11.132600 0.000000
11.159900 0.000000
11.187200 0.000000
11.214500 0.000000
11.241800 0.000000
11.269100 0.000000
11.296300 0.000000
11.323600 0.000000
11.350900 0.000000
11.378200 0.000000
11.405500 0.000000
11.432800 0.000000
11.460100 0.000000
11.487300 0.000000
11.514600 0.000000
11.541900 0.000000
11.569200 0.000000
11.596500 0.000000
11.623800 0.000000
11.651100 0.000000
11.678300 0.000000
11.705600 0.000000
11.732900 0.000000
11.760200 0.000000
11.787500 0.000000
11.814800 0.000000
11.842100 0.000000
11.869400 0.000000
11.896600 0.000000
11.923900 0.000000
11.951200 0.000000
11.978500 0.000000
12.005800 0.000000
12.033100 0.000000
12.060400 0.000000
12.087600 0.000000
12.114900 0.000000
12.142200 0.000000
12.169500 0.000000
12.196800 0.000000
12.224100 0.000000
12.251400 0.000000
12.278600 0.000000
12.305900 0.000000
12.333200 0.000000
12.360500 0.000000
12.387800 0.000000
12.415100 0.000000
12.442400 0.000000
12.469600 0.000000
12.496900 0.000000
12.524200 0.000000
12.551500 0.000000
12.578800 0.000000
12.606100 0.000000
12.633400 0.000000
12.660600 0.000000
12.687900 0.000000
12.715200 0.000000
12.742500 0.000000
12.769800 0.000000
12.797100 0.000000
12.824400 0.000000
12.851600 0.000000
12.878900 0.000000
12.906200 0.000000
12.933500 0.000000
12.960800 0.000000
12.988100 0.000000
13.015400 0.000000
13.042600 0.000000
13.069900 0.000000
13.097200 0.000000
13.124500 0.000000
13.151800 0.000000
13.179100 0.000000
13.206400 0.000000
13.233600 0.000000
13.260900 0.000000
13.288200 0.000000
13.315500 0.000000
13.342800 0.000000
13.370100 0.000000
13.397400 0.000000
13.424600 0.000000
13.451900 0.000000
13.479200 0.000000
13.506500 0.000000
13.533800 0.000000
13.561100 0.000000
13.588400 0.000000
13.615600 0.000000
13.642900 0.000000
13.670200 0.000000
13.697500 0.000000
13.724800 0.000000
13.752100 0.000000
13.779400 0.000000
13.806600 0.000000
13.833900 0.000000
13.861200 0.000000
13.888500 0.000000
13.915800 0.000000
13.943100 0.000000
13.970400 0.000000
13.997600 0.000000
14.024900 0.000000
14.052200 0.000000
14.079500 0.000000
14.106800 0.000000
14.134100 0.000000
14.161400 0.000000
14.188600 0.002200
14.215900 0.031300
14.243200 0.073100
14.270500 0.123000
14.297800 0.181000
14.325100 0.247000
14.352400 0.321100
14.379600 0.402000
14.406900 0.487000
14.434200 0.576100
14.461500 0.660900
14.488800 0.738300
14.516100 0.811200
14.543400 0.880500
14.570600 0.950400
14.597900 1.021100
14.625200 1.092800
14.652500 1.165300
14.679800 1.238700
14.707100 1.313100
14.734400 1.389300
14.761700 1.466900
14.788900 1.545600
14.816200 1.625400
14.843500 1.704900
14.870800 1.776200
14.898100 1.838700
14.925400 1.895300
14.952700 1.948900
14.979900 2.015500
15.007200 2.132900
15.034500 2.255400
15.061800 2.368700
15.089100 2.558600
15.116400 2.738600
15.143700 2.917200
15.170900 3.173600
15.198200 3.441600
15.225500 3.684100
15.252800 3.872400
15.280100 4.036400
15.307400 4.169900
15.334700 4.269700
15.361900 4.342500
15.389200 4.378900
15.416500 4.317800
15.443800 4.284800
15.471100 4.280200
15.498400 4.307200
15.525700 4.156000
15.552900 4.204400
15.580200 4.278600
15.607500 4.337000
15.634800 4.376400
15.662100 4.524700
15.689400 4.493500
15.716700 4.237000
15.743900 3.999300
15.771200 3.790100
15.798500 3.718900
15.825800 3.588900
15.853100 3.435300
15.880400 3.302300
15.907700 3.300600
15.934900 3.354300
15.962200 3.318300
15.989500 3.307300
16.016800 3.323000
16.044100 3.362600
16.071400 3.406600
16.098700 3.452300
16.125900 3.502500
16.153200 3.439200
16.180500 3.415200
16.207800 3.428300
16.235100 3.459400
16.262400 3.501500
16.289700 3.567600
16.316900 3.659200
16.344200 3.798900
16.371500 3.963300
16.398800 4.094300
16.426100 4.257800
16.453400 4.362000
16.480700 4.439200
16.507900 4.836100
16.535200 5.052000
16.562500 4.915200
16.589800 4.480100
16.617100 4.174800
16.644400 3.922000
16.671700 3.926900
16.698900 3.960700
16.726200 4.000000
16.753500 3.989800
16.780800 3.979700
16.808100 3.936200
16.835400 3.903300
16.862700 3.833300
16.889900 3.771500
16.917200 3.724500
16.944500 3.691600
16.971800 3.672800
16.999100 3.678000
17.026400 3.724600
17.053700 3.818700
17.080900 3.940200
17.108200 4.092200
17.135500 4.270400
17.162800 4.460500
17.190100 4.648100
17.217400 4.812500
17.244700 5.312200
17.271900 5.114300
17.299200 5.046800
17.326500 5.190000
17.353800 5.192000
17.381100 5.046100
17.408400 4.830000
17.435700 4.615600
17.462900 4.438500
17.490200 4.300500
17.517500 4.274700
17.544800 4.352000
17.572100 4.467000
17.599400 4.575600
17.626700 4.691600
17.654000 4.819500
17.681200 4.998200
17.708500 5.784000
17.735800 6.109400
17.763100 6.093000
17.790400 6.117100
17.817700 6.155800
17.845000 6.222800
17.872200 6.298300
17.899500 6.354700
17.926800 6.230700
17.954100 5.951900
17.981400 5.524300
18.008700 5.204900
18.036000 4.978100
18.063200 4.832500
18.090500 4.774900
18.117800 4.783700
18.145100 4.550600
18.172400 4.620600
18.199700 4.691800
18.227000 4.748800
18.254200 4.786600
18.281500 4.763000
18.308800 4.831200
18.336100 4.997800
18.363400 5.139100
18.390700 5.326900
18.418000 5.689700
18.445200 6.000600
18.472500 6.155900
18.499800 6.285000
18.527100 6.284600
18.554400 6.261000
18.581700 6.176700
18.609000 6.067500
18.636200 6.000800
18.663500 5.978600
18.690800 5.855100
18.718100 5.750400
18.745400 5.690300
18.772700 5.711400
18.800000 5.618100
18.827200 5.538000
18.854500 5.483200
18.881800 5.323500
18.909100 5.021800
18.936400 4.847000
18.963700 4.767700
18.991000 4.745300
19.018200 4.797000
19.045500 4.859300
19.072800 4.894100
19.100100 4.942100
19.127400 5.007500
19.154700 5.051700
19.182000 5.179300
19.209200 5.143600
19.236500 5.133900
19.263800 5.124100
19.291100 5.105100
19.318400 5.071600
19.345700 5.043600
19.373000 5.048300
19.400200 5.090400
19.427500 5.110300
19.454800 4.825900
19.482100 4.872000
19.509400 4.251900
19.536700 4.256700
19.564000 4.257900
19.591200 4.255900
19.618500 4.250400
19.645800 4.241100
19.673100 4.225300
19.700400 4.209700
19.727700 4.196600
19.755000 4.186100
19.782200 4.174100
19.809500 4.147100
19.836800 4.119200
19.864100 4.154500
19.891400 4.233200
19.918700 4.227300
19.946000 4.141400
19.973200 4.066300
20.000500 4.141100
20.027800 4.074200
20.055100 4.035200
20.082400 4.072300
20.109700 4.106000
20.137000 4.160700
20.164200 4.262100
20.191500 4.399200
20.218800 4.549100
20.246100 4.685300
20.273400 4.790200
20.300700 4.868700
20.328000 4.927300
20.355200 4.966500
20.382500 5.010300
20.409800 4.884100
20.437100 4.897300
20.464400 4.947200
20.491700 5.479900
20.519000 4.856000
20.546300 4.512800
20.573500 4.528600
20.600800 4.543100
20.628100 4.409000
20.655400 4.303300
20.682700 4.292700
20.710000 4.264200
20.737300 4.308700
20.764500 4.386300
20.791800 4.427900
20.819100 4.405100
20.846400 4.359600
20.873700 4.238800
20.901000 3.990800
20.928300 3.794600
20.955500 3.678100
20.982800 3.593600
21.010100 3.530400
21.037400 3.469600
21.064700 3.410400
21.092000 3.353500
21.119300 3.298900
21.146500 3.246700
21.173800 3.196900
21.201100 3.150300
21.228400 3.107200
21.255700 3.067900
21.283000 3.033300
21.310300 3.003400
21.337500 2.906300
21.364800 2.923100
21.392100 2.911900
21.419400 2.913900
21.446700 2.929400
21.474000 2.956800
21.501300 2.996000
21.528500 3.047200
21.555800 3.110100
21.583100 3.185600
21.610400 3.275400
21.637700 3.374900
21.665000 3.485400
21.692300 3.755100
21.719500 4.002600
21.746800 4.202700
21.774100 4.389900
21.801400 4.582600
21.828700 4.782000
21.856000 5.020700
21.883300 5.168200
21.910500 5.208400
21.937800 5.087800
21.965100 4.833000
21.992400 4.622500
22.019700 4.413500
22.047000 4.206300
22.074300 4.003600
22.101500 3.839300
22.128800 3.745600
22.156100 3.734400
22.183400 3.755000
22.210700 3.801100
22.238000 3.867300
22.265300 3.977900
22.292500 4.172200
22.319800 4.381600
22.347100 4.683800
22.374400 5.110300
22.401700 5.429100
22.429000 5.307000
22.456300 5.087100
22.483500 4.988500
22.510800 4.926500
22.538100 4.896700
22.565400 4.883400
22.592700 4.899200
22.620000 4.864300
22.647300 4.783000
22.674500 4.667000
22.701800 4.521100
22.729100 4.353100
22.756400 4.169300
22.783700 4.036300
22.811000 3.931900
22.838300 3.850300
22.865500 3.751000
22.892800 3.676500
22.920100 3.644700
22.947400 3.658200
22.974700 3.709200
23.002000 3.796400
23.029300 3.906100
23.056500 4.054800
23.083800 4.257000
23.111100 4.555800
23.138400 4.867800
23.165700 5.041600
23.193000 5.195700
23.220300 5.358900
23.247600 5.184600
23.274800 4.410900
23.302100 4.459300
23.329400 4.556900
23.356700 4.648400
23.384000 4.692200
23.411300 4.747200
23.438600 4.856500
23.465800 4.838500
23.493100 4.786600
23.520400 4.700600
23.547700 4.795500
23.575000 5.044900
23.602300 5.333700
23.629600 5.646600
23.656800 5.589000
23.684100 5.397800
23.711400 5.342900
23.738700 5.372500
23.766000 5.171800
23.793300 4.936800
23.820600 4.798500
23.847800 4.606000
23.875100 4.406400
23.902400 4.186300
23.929700 3.975800
23.957000 3.790800
23.984300 3.644500
24.011600 3.589300
24.038800 3.612600
24.066100 3.597100
24.093400 3.569000
24.120700 3.517100
24.148000 3.475700
24.175300 3.439400
24.202600 3.392100
24.229800 3.331900
24.257100 3.260400
24.284400 3.177700
24.311700 3.079100
24.339000 2.805000
24.366300 2.763100
24.393600 2.719400
24.420800 2.675300
24.448100 2.627400
24.475400 2.575600
24.502700 2.522800
24.530000 2.471200
24.557300 2.420700
24.584600 2.382400
24.611800 2.395000
24.639100 2.622500
24.666400 2.893100
24.693700 3.260800
24.721000 3.740200
24.748300 4.265700
24.775600 4.759700
24.802800 5.089400
24.830100 5.554400
24.857400 5.321400
24.884700 4.800500
24.912000 4.575200
24.939300 4.326300
24.966600 4.011300
24.993800 3.530400
25.021100 3.296100
25.048400 3.269700
25.075700 3.266000
25.103000 3.284800
25.130300 3.395700
25.157600 3.830400
25.184800 4.374900
25.212100 4.914100
25.239400 5.448100
25.266700 3.871500
25.294000 3.834000
25.321300 3.785300
25.348600 3.722200
25.375800 3.650400
25.403100 3.601100
25.430400 3.577400
25.457700 3.518400
25.485000 3.446900
25.512300 3.372200
25.539600 3.265200
25.566800 3.144600
25.594100 3.013300
25.621400 2.873600
25.648700 2.744100
25.676000 2.624800
25.703300 2.510600
25.730600 2.405600
25.757800 2.310100
25.785100 2.229500
25.812400 2.165900
25.839700 2.143200
25.867000 2.078400
25.894300 2.008300
25.921600 1.937700
25.948800 1.866000
25.976100 1.794400
26.003400 1.723100
26.030700 1.652300
26.058000 1.582000
26.085300 1.511300
26.112600 1.461300
26.139900 1.386900
26.167100 1.282800
26.194400 1.236300
26.221700 1.222700
26.249000 1.224800
26.276300 1.238500
26.303600 1.250900
26.330900 1.257200
26.358100 1.254700
26.385400 1.243400
26.412700 1.226800
26.440000 1.210100
26.467300 1.193100
26.494600 1.175900
26.521900 1.158300
26.549100 1.140300
26.576400 1.130800
26.603700 1.123200
26.631000 1.121100
26.658300 1.124100
26.685600 1.127100
26.712900 1.130200
26.740100 1.133300
26.767400 1.136300
26.794700 1.139600
26.822000 1.143300
26.849300 1.147400
26.876600 1.151900
26.903900 1.156400
26.931100 1.161000
26.958400 1.165500
26.985700 1.169000
27.013000 1.165100
27.040300 1.157700
27.067600 1.154200
27.094900 1.155800
27.122100 1.162500
27.149400 1.174200
27.176700 1.191000
27.204000 1.213800
27.231300 1.252000
27.258600 1.309200
27.285900 1.372400
27.313100 1.432700
27.340400 1.497800
27.367700 1.719300
27.395000 1.994500
27.422300 2.269100
27.449600 2.523700
27.476900 2.596300
27.504100 2.632500
27.531400 2.658700
27.558700 2.668000
27.586000 2.661400
27.613300 2.642400
27.640600 2.624600
27.667900 2.613200
27.695100 2.608200
27.722400 2.551900
27.749700 2.496600
27.777000 2.458700
27.804300 2.423500
27.831600 2.390700
27.858900 2.359900
27.886100 2.329600
27.913400 2.300000
27.940700 2.271800
27.968000 2.245600
27.995300 2.221500
28.022600 2.199600
28.049900 2.180000
28.077100 2.163600
28.104400 2.155800
28.131700 2.157500
28.159000 2.168800
28.186300 2.376300
28.213600 2.637500
28.240900 2.665100
28.268100 2.725500
28.295400 2.853200
28.322700 2.868400
28.350000 2.563600
28.377300 2.522500
28.404600 1.584300
28.431900 1.543600
28.459100 1.500700
28.486400 1.461200
28.513700 1.425200
28.541000 1.391600
28.568300 1.359000
28.595600 1.327300
28.622900 1.296600
28.650100 1.266800
28.677400 1.237300
28.704700 1.209000
28.732000 1.184100
28.759300 1.169300
28.786600 1.165200
28.813900 1.171700
28.841100 1.189000
28.868400 1.217300
28.895700 1.256200
28.923000 1.305700
28.950300 1.365800
28.977600 1.436400
29.004900 1.532200
29.032200 1.640600
29.059400 1.744600
29.086700 1.845500
29.114000 1.943300
29.141300 2.040000
29.168600 2.134100
29.195900 2.223200
29.223200 2.481700
29.250400 2.605100
29.277700 2.724700
29.305000 2.819800
29.332300 2.892000
29.359600 2.953700
29.386900 3.028300
29.414200 3.146700
29.441400 3.173500
29.468700 3.191500
29.496000 3.349800
29.523300 3.516600
29.550600 3.679000
29.577900 3.836800
29.605200 3.990400
29.632400 4.145500
29.659700 4.198300
29.687000 4.317400
29.714300 4.343700
29.741600 4.306700
29.768900 4.306500
29.796200 4.293400
29.823400 4.259800
29.850700 4.168500
29.878000 4.012800
29.905300 3.850500
29.932600 3.697900
29.959900 3.565100
29.987200 3.417900
30.014400 3.274000
30.041700 3.379500
30.069000 3.616000
30.096300 3.852900
30.123600 4.086400
30.150900 4.157600
30.178200 4.120400
30.205400 4.217200
30.232700 4.388400
30.260000 4.587600
30.287300 4.831400
30.314600 5.090800
30.341900 5.387600
30.369200 5.710700
30.396400 6.019400
30.423700 6.300400
30.451000 6.851400
30.478300 7.055700
30.505600 6.810700
30.532900 6.764300
30.560200 6.797500
30.587400 6.875400
30.614700 7.065700
30.642000 7.251900
30.669300 9.238200
30.696600 9.192600
30.723900 7.387800
30.751200 5.980800
30.778400 5.534700
30.805700 5.397000
30.833000 5.448400
30.860300 5.619200
30.887600 5.414500
30.914900 5.300000
30.942200 5.249900
30.969400 5.229900
30.996700 5.283700
31.024000 5.314300
31.051300 5.326800
31.078600 5.344300
31.105900 5.371000
31.133200 5.913600
31.160400 5.857100
31.187700 5.643200
31.215000 5.270300
31.242300 5.076100
31.269600 4.918400
31.296900 4.775000
31.324200 4.646000
31.351400 4.532000
31.378700 4.425900
31.406000 4.328000
31.433300 4.239400
31.460600 4.150800
31.487900 4.058200
31.515200 3.961700
31.542400 3.864800
31.569700 3.776000
31.597000 3.673400
31.624300 3.539000
31.651600 3.445200
31.678900 3.387000
31.706200 3.333600
31.733400 3.285900
31.760700 3.245300
31.788000 3.191000
31.815300 3.144200
31.842600 3.105400
31.869900 3.062500
31.897200 3.016300
31.924500 2.973800
31.951700 3.172800
31.979000 3.488200
32.006300 3.834900
32.033600 4.060100
32.060900 4.182800
32.088200 4.304400
32.115500 4.407300
32.142700 4.512100
32.170000 4.654000
32.197300 5.025400
32.224600 5.251100
32.251900 4.779500
32.279200 4.716100
32.306500 4.624800
32.333700 4.510900
32.361000 4.379400
32.388300 4.262500
32.415600 4.174200
32.442900 4.114100
32.470200 4.080100
32.497500 4.025900
32.524700 3.957400
32.552000 3.906400
32.579300 3.874900
32.606600 3.853400
32.633900 3.838900
32.661200 3.815100
32.688500 3.783600
32.715700 3.762200
32.743000 3.750500
32.770300 3.749300
32.797600 3.753500
32.824900 3.663800
32.852200 3.627900
32.879500 3.597600
32.906700 3.711200
32.934000 3.707900
32.961300 3.569100
32.988600 3.265800
33.015900 3.058800
33.043200 2.989100
33.070500 2.950000
33.097700 2.906800
33.125000 2.851800
33.152300 2.839200
33.179600 2.791800
33.206900 2.704800
33.234200 2.656600
33.261500 2.617600
33.288700 2.593800
33.316000 2.637200
33.343300 2.710500
33.370600 2.842400
33.397900 3.125800
33.425200 3.254000
33.452500 3.128800
33.479700 3.134900
33.507000 3.429000
33.534300 3.573700
33.561600 3.715100
33.588900 3.854500
33.616200 4.041400
33.643500 4.308500
33.670700 4.884000
33.698000 5.780800
33.725300 6.978200
33.752600 6.107300
33.779900 6.675800
33.807200 5.050400
33.834500 4.183000
33.861700 3.425900
33.889000 3.141000
33.916300 2.942100
33.943600 2.756200
33.970900 2.666700
33.998200 2.689500
34.025500 2.480500
34.052700 2.245400
34.080000 2.353300
34.107300 2.377300
34.134600 2.493900
34.161900 2.676000
34.189200 2.835600
34.216500 2.873400
34.243700 2.878200
34.271000 2.876600
34.298300 2.899100
34.325600 2.889300
34.352900 2.813900
34.380200 2.683600
34.407500 2.555100
34.434700 2.487700
34.462000 2.468000
34.489300 2.485700
34.516600 2.505700
34.543900 2.553000
34.571200 2.616500
34.598500 2.674500
34.625800 2.727100
34.653000 2.793900
34.680300 2.855900
34.707600 2.911200
34.734900 2.961400
34.762200 3.012800
34.789500 3.075800
34.816800 3.155000
34.844000 3.252300
34.871300 3.367200
34.898600 3.465300
34.925900 3.551600
34.953200 3.647300
34.980500 3.756400
35.007800 3.850900
35.035000 3.880600
35.062300 3.800500
35.089600 3.697300
35.116900 3.591000
35.144200 3.505500
35.171500 3.432700
35.198800 3.371700
35.226000 3.322300
35.253300 3.024500
35.280600 2.930200
35.307900 2.832200
35.335200 2.735200
35.362500 2.641500
35.389800 2.550100
35.417000 2.463800
35.444300 2.387000
35.471600 2.330400
35.498900 2.289400
35.526200 2.239600
35.553500 2.187600
35.580800 2.136300
35.608000 2.082000
35.635300 2.024400
35.662600 1.963500
35.689900 1.899500
35.717200 1.737100
35.744500 1.714400
35.771800 1.648900
35.799000 1.609500
35.826300 1.596100
35.853600 1.607900
35.880900 1.630900
35.908200 1.664300
35.935500 1.722900
35.962800 1.818000
35.990000 1.947000
36.017300 2.067800
36.044600 2.136100
36.071900 2.184000
36.099200 2.213100
36.126500 2.223700
36.153800 2.215700
36.181000 2.176700
36.208300 2.084700
36.235600 1.943500
36.262900 1.882000
36.290200 1.844900
36.317500 1.809200
36.344800 1.775500
36.372000 1.743700
36.399300 1.713700
36.426600 1.587100
36.453900 1.496400
36.481200 1.495000
36.508500 1.493800
36.535800 1.492900
36.563000 1.492300
36.590300 1.469900
36.617600 1.352400
36.644900 1.303900
36.672200 1.256600
36.699500 1.210200
36.726800 1.164900
36.754000 1.120600
36.781300 1.077200
36.808600 1.034600
36.835900 0.992800
36.863200 0.951900
36.890500 0.910800
36.917800 0.868500
36.945000 0.825100
36.972300 0.781100
36.999600 0.742000
37.026900 0.709000
37.054200 0.691700
37.081500 0.674300
37.108800 0.656900
37.136000 0.639400
37.163300 0.621900
37.190600 0.604300
37.217900 0.586700
37.245200 0.569000
37.272500 0.551200
37.299800 0.533400
37.327000 0.515500
37.354300 0.497600
37.381600 0.479600
37.408900 0.461500
37.436200 0.443400
37.463500 0.425300
37.490800 0.407100
37.518100 0.382500
37.545300 0.349500
37.572600 0.312900
37.599900 0.272700
37.627200 0.228700
37.654500 0.181100
37.681800 0.129800
37.709100 0.079700
37.736300 0.046700
37.763600 0.029300
37.790900 0.016800
37.818200 0.007700
37.845500 0.002100
37.872800 0.000000
37.900100 0.000000
37.927300 0.000000
37.954600 0.000000
37.981900 0.000000
38.009200 0.000000
38.036500 0.000000
38.063800 0.000000
38.091100 0.000000
38.118300 0.000000
38.145600 0.000000
38.172900 0.000000
38.200200 0.000000
38.227500 0.000000
38.254800 0.000000
38.282100 0.000000
38.309300 0.000000
38.336600 0.000000
38.363900 0.000000
38.391200 0.000000
38.418500 0.000000
38.445800 0.000000
38.473100 0.000000
38.500300 0.000000
38.527600 0.000000
38.554900 0.000000
38.582200 0.000000
38.609500 0.000000
38.636800 0.000000
38.664100 0.000000
38.691300 0.000000
38.718600 0.000000
38.745900 0.000000
38.773200 0.000000
38.800500 0.000000
38.827800 0.000000
38.855100 0.000000
38.882300 0.000000
38.909600 0.000000
38.936900 0.000000
38.964200 0.000000
38.991500 0.000000
39.018800 0.000000
39.046100 0.000000
39.073300 0.000000
39.100600 0.000000
39.127900 0.000000
39.155200 0.000000
39.182500 0.000000
39.209800 0.000000
39.237100 0.000000
39.264300 0.000000
39.291600 0.000000
39.318900 0.000000
39.346200 0.000000
39.373500 0.000000
39.400800 0.000000
39.428100 0.000000
39.455300 0.000000
39.482600 0.000000
39.509900 0.000000
39.537200 0.000000
39.564500 0.000000
39.591800 0.000000
39.619100 0.000000
39.646300 0.000000
39.673600 0.000000
39.700900 0.000000
39.728200 0.000000
39.755500 0.000000
39.782800 0.000000
39.810100 0.000000
39.837300 0.000000
39.864600 0.000000
39.891900 0.000000
39.919200 0.000000
39.946500 0.000000
39.973800 0.000000
40.001100 0.000000
40.028300 0.000000
40.055600 0.000000
40.082900 0.000000
40.110200 0.000000
40.137500 0.000000
40.164800 0.000000
40.192100 0.000000
40.219300 0.000000
40.246600 0.000000
40.273900 0.000000
40.301200 0.000000
40.328500 0.000000
40.355800 0.000000
e
