set title 'mp-1183215 - Density of States'
set xlabel 'Energy (eV)'
set ylabel 'DOS (states/eV)'
set grid
set xrange [-10:10]
set yrange [0:49.569]
set xzeroaxis lt -1
set terminal png size 800,600
set output 'mp-1183215_dos_gnuplot.png'
plot '-' using 1:2 with lines title 'DOS'
-7.845600 0.000000
-7.826400 0.000000
-7.807100 0.000000
-7.787900 0.000000
-7.768700 0.000000
-7.749500 0.000000
-7.730300 0.000000
-7.711000 0.000000
-7.691800 0.000000
-7.672600 0.000000
-7.653400 0.000000
-7.634200 0.000000
-7.615000 0.000000
-7.595700 0.000000
-7.576500 0.000000
-7.557300 0.000000
-7.538100 0.000000
-7.518900 0.000000
-7.499700 0.000000
-7.480400 0.000000
-7.461200 0.000000
-7.442000 0.000000
-7.422800 0.000000
-7.403600 0.000000
-7.384300 0.000000
-7.365100 0.000000
-7.345900 0.000000
-7.326700 0.000000
-7.307500 0.000000
-7.288300 0.000000
-7.269000 0.000000
-7.249800 0.000000
-7.230600 0.000000
-7.211400 0.000000
-7.192200 0.000000
-7.172900 0.000000
-7.153700 0.000000
-7.134500 0.000000
-7.115300 0.000000
-7.096100 0.000000
-7.076900 0.000000
-7.057600 0.000000
-7.038400 0.000000
-7.019200 0.000000
-7.000000 0.000000
-6.980800 0.000000
-6.961500 0.000000
-6.942300 0.000000
-6.923100 0.000000
-6.903900 0.000000
-6.884700 0.000000
-6.865500 0.000000
-6.846200 0.000000
-6.827000 0.000000
-6.807800 0.000000
-6.788600 0.000000
-6.769400 0.000000
-6.750100 0.000000
-6.730900 0.000000
-6.711700 0.000000
-6.692500 0.000000
-6.673300 0.000000
-6.654100 0.000000
-6.634800 0.000000
-6.615600 0.000000
-6.596400 0.000000
-6.577200 0.000000
-6.558000 0.000000
-6.538800 0.000000
-6.519500 0.000000
-6.500300 0.000000
-6.481100 0.000000
-6.461900 0.000000
-6.442700 0.000000
-6.423400 0.000000
-6.404200 0.000000
-6.385000 0.000000
-6.365800 0.000000
-6.346600 0.000000
-6.327400 0.000000
-6.308100 0.000000
-6.288900 0.000000
-6.269700 0.000000
-6.250500 0.000000
-6.231300 0.000000
-6.212000 0.000000
-6.192800 0.000000
-6.173600 0.000000
-6.154400 0.000000
-6.135200 0.000000
-6.116000 0.000000
-6.096700 0.025700
-6.077500 0.509200
-6.058300 0.839200
-6.039100 1.078400
-6.019900 1.528700
-6.000600 3.114800
-5.981400 6.005700
-5.962200 8.414800
-5.943000 15.173400
-5.923800 19.871600
-5.904600 21.120400
-5.885300 16.396400
-5.866100 14.745200
-5.846900 15.410500
-5.827700 18.007200
-5.808500 20.702200
-5.789300 22.334100
-5.770000 27.037200
-5.750800 31.371200
-5.731600 19.831200
-5.712400 21.075300
-5.693200 24.624600
-5.673900 28.627700
-5.654700 27.813000
-5.635500 32.082400
-5.616300 27.142300
-5.597100 29.314900
-5.577900 22.506800
-5.558600 34.962600
-5.539400 22.015200
-5.520200 18.375300
-5.501000 17.959400
-5.481800 25.465400
-5.462500 27.325700
-5.443300 19.510400
-5.424100 22.095000
-5.404900 34.566300
-5.385700 20.592900
-5.366500 24.987500
-5.347200 22.475800
-5.328000 18.071800
-5.308800 19.307700
-5.289600 22.414600
-5.270400 23.187000
-5.251100 26.338300
-5.231900 28.941000
-5.212700 34.302500
-5.193500 27.791400
-5.174300 36.323100
-5.155100 38.407300
-5.135800 33.108200
-5.116600 30.153500
-5.097400 45.062600
-5.078200 30.756200
-5.059000 16.448500
-5.039700 19.590900
-5.020500 19.780900
-5.001300 22.271600
-4.982100 24.396200
-4.962900 25.489600
-4.943700 22.515600
-4.924400 22.721500
-4.905200 20.429600
-4.886000 21.118700
-4.866800 24.533700
-4.847600 16.693700
-4.828400 9.201400
-4.809100 25.425000
-4.789900 38.001400
-4.770700 20.618500
-4.751500 14.113900
-4.732300 5.413400
-4.713000 2.969800
-4.693800 3.209300
-4.674600 2.978000
-4.655400 2.569500
-4.636200 2.592700
-4.617000 2.495200
-4.597700 1.120900
-4.578500 0.657500
-4.559300 0.615900
-4.540100 0.592500
-4.520900 0.573800
-4.501600 0.555400
-4.482400 0.537000
-4.463200 0.518800
-4.444000 0.507400
-4.424800 0.502100
-4.405600 0.497000
-4.386300 0.495400
-4.367100 0.494800
-4.347900 0.495100
-4.328700 0.496500
-4.309500 0.498900
-4.290200 0.502300
-4.271000 0.506800
-4.251800 0.511500
-4.232600 0.516100
-4.213400 0.520400
-4.194200 0.524100
-4.174900 0.527300
-4.155700 0.529300
-4.136500 0.531200
-4.117300 0.534000
-4.098100 0.537100
-4.078900 0.540200
-4.059600 0.543200
-4.040400 0.546200
-4.021200 0.549300
-4.002000 0.552500
-3.982800 0.556100
-3.963500 0.559700
-3.944300 0.563500
-3.925100 0.567400
-3.905900 0.571400
-3.886700 0.575700
-3.867500 0.580200
-3.848200 0.584800
-3.829000 0.589500
-3.809800 0.594200
-3.790600 0.599000
-3.771400 0.603800
-3.752100 0.608600
-3.732900 0.613500
-3.713700 0.618300
-3.694500 0.623300
-3.675300 0.628200
-3.656100 0.635300
-3.636800 0.642400
-3.617600 0.649000
-3.598400 0.655000
-3.579200 0.660400
-3.560000 0.665300
-3.540700 0.669400
-3.521500 0.673300
-3.502300 0.677300
-3.483100 0.685400
-3.463900 0.692900
-3.444700 0.698700
-3.425400 0.702800
-3.406200 0.705700
-3.387000 0.707000
-3.367800 0.706500
-3.348600 0.704400
-3.329400 0.697100
-3.310100 0.698900
-3.290900 0.700900
-3.271700 0.703000
-3.252500 0.705400
-3.233300 0.708200
-3.214000 0.711300
-3.194800 0.715600
-3.175600 0.722600
-3.156400 0.732400
-3.137200 0.744800
-3.118000 0.755400
-3.098700 0.763900
-3.079500 0.771800
-3.060300 0.779100
-3.041100 0.785800
-3.021900 0.812100
-3.002600 0.822800
-2.983400 0.819800
-2.964200 0.826900
-2.945000 0.833400
-2.925800 0.839200
-2.906600 0.844400
-2.887300 0.848900
-2.868100 0.850900
-2.848900 0.841000
-2.829700 0.840900
-2.810500 0.841200
-2.791200 0.840400
-2.772000 0.846000
-2.752800 0.857100
-2.733600 0.871200
-2.714400 0.887200
-2.695200 0.909300
-2.675900 0.883700
-2.656700 0.853000
-2.637500 0.833300
-2.618300 0.820300
-2.599100 0.807500
-2.579800 0.793600
-2.560600 0.778900
-2.541400 0.763500
-2.522200 0.747400
-2.503000 0.730700
-2.483800 0.715000
-2.464500 0.699400
-2.445300 0.685000
-2.426100 0.672900
-2.406900 0.665100
-2.387700 0.657600
-2.368500 0.652700
-2.349200 0.648400
-2.330000 0.642800
-2.310800 0.637200
-2.291600 0.633100
-2.272400 0.630500
-2.253100 0.631100
-2.233900 0.636000
-2.214700 0.644100
-2.195500 0.662400
-2.176300 0.690800
-2.157100 0.714000
-2.137800 0.706600
-2.118600 0.735300
-2.099400 0.760800
-2.080200 0.774600
-2.061000 0.777000
-2.041700 0.775000
-2.022500 0.778800
-2.003300 0.785600
-1.984100 0.794300
-1.964900 0.805100
-1.945700 0.817800
-1.926400 0.832300
-1.907200 0.848300
-1.888000 0.865900
-1.868800 0.884800
-1.849600 0.904900
-1.830300 0.926300
-1.811100 0.954900
-1.791900 0.978600
-1.772700 1.001200
-1.753500 1.019800
-1.734300 1.021200
-1.715000 1.032600
-1.695800 1.037900
-1.676600 1.034600
-1.657400 1.018700
-1.638200 0.999400
-1.619000 0.998500
-1.599700 0.999000
-1.580500 1.001400
-1.561300 1.006400
-1.542100 1.026400
-1.522900 1.035100
-1.503600 1.041100
-1.484400 1.043900
-1.465200 1.049400
-1.446000 1.048400
-1.426800 1.045400
-1.407600 1.038400
-1.388300 1.028200
-1.369100 1.018800
-1.349900 1.010100
-1.330700 1.002100
-1.311500 0.994300
-1.292200 0.989200
-1.273000 0.984100
-1.253800 0.979100
-1.234600 0.977500
-1.215400 0.977000
-1.196200 0.980800
-1.176900 0.986800
-1.157700 0.994400
-1.138500 0.999600
-1.119300 0.997900
-1.100100 0.970600
-1.080800 0.953500
-1.061600 0.948700
-1.042400 0.949100
-1.023200 0.951000
-1.004000 0.954000
-0.984800 0.958300
-0.965500 0.964500
-0.946300 0.974200
-0.927100 0.983900
-0.907900 0.994600
-0.888700 1.005300
-0.869500 1.014200
-0.850200 1.021500
-0.831000 1.028400
-0.811800 1.032800
-0.792600 1.036600
-0.773400 1.039700
-0.754100 1.042800
-0.734900 1.045800
-0.715700 1.047600
-0.696500 1.048000
-0.677300 1.056200
-0.658100 1.059800
-0.638800 1.056900
-0.619600 1.053300
-0.600400 1.054200
-0.581200 1.051100
-0.562000 1.066400
-0.542700 1.070200
-0.523500 1.068500
-0.504300 1.063600
-0.485100 1.062200
-0.465900 1.064300
-0.446700 1.068700
-0.427400 1.082000
-0.408200 1.096400
-0.389000 1.112100
-0.369800 1.126000
-0.350600 1.136900
-0.331300 1.146000
-0.312100 1.153800
-0.292900 1.160100
-0.273700 1.162900
-0.254500 1.182000
-0.235300 1.181800
-0.216000 1.180500
-0.196800 1.178000
-0.177600 1.174500
-0.158400 1.171100
-0.139200 1.167900
-0.119900 1.164400
-0.100700 1.158200
-0.081500 1.157700
-0.062300 1.160200
-0.043100 1.162100
-0.023900 1.159700
-0.004600 1.156500
0.014600 1.154100
0.033800 1.157800
0.053000 1.157600
0.072200 1.155800
0.091400 1.153500
0.110700 1.149600
0.129900 1.144700
0.149100 1.139200
0.168300 1.124400
0.187500 1.124900
0.206800 1.128400
0.226000 1.131900
0.245200 1.136100
0.264400 1.142000
0.283600 1.149700
0.302800 1.158000
0.322100 1.166900
0.341300 1.176300
0.360500 1.186500
0.379700 1.197800
0.398900 1.209300
0.418200 1.220900
0.437400 1.232700
0.456600 1.244700
0.475800 1.262300
0.495000 1.287600
0.514200 1.308300
0.533500 1.328600
0.552700 1.325800
0.571900 1.333100
0.591100 1.342100
0.610300 1.359100
0.629600 1.368000
0.648800 1.379100
0.668000 1.389000
0.687200 1.396300
0.706400 1.400300
0.725600 1.403000
0.744900 1.405000
0.764100 1.415700
0.783300 1.413700
0.802500 1.412900
0.821700 1.424100
0.840900 1.471800
0.860200 1.441000
0.879400 1.434600
0.898600 1.417500
0.917800 1.392600
0.937000 1.371500
0.956300 1.356000
0.975500 1.383100
0.994700 1.354500
1.013900 1.345500
1.033100 1.353600
1.052300 1.363000
1.071600 1.372300
1.090800 1.381500
1.110000 1.390100
1.129200 1.395400
1.148400 1.395500
1.167700 1.394000
1.186900 1.392100
1.206100 1.391100
1.225300 1.391700
1.244500 1.391500
1.263700 1.390400
1.283000 1.389000
1.302200 1.397800
1.321400 1.394600
1.340600 1.389800
1.359800 1.385800
1.379100 1.384500
1.398300 1.387300
1.417500 1.393200
1.436700 1.415800
1.455900 1.405800
1.475100 1.381000
1.494400 1.347300
1.513600 1.315300
1.532800 1.285800
1.552000 1.263900
1.571200 1.248600
1.590400 1.246100
1.609700 1.260600
1.628900 1.245300
1.648100 1.220200
1.667300 1.190700
1.686500 1.165000
1.705800 1.136800
1.725000 1.104300
1.744200 1.066000
1.763400 1.050500
1.782600 1.051600
1.801800 1.062900
1.821100 1.078100
1.840300 1.095500
1.859500 1.114000
1.878700 1.171100
1.897900 1.194900
1.917200 1.219000
1.936400 1.244100
1.955600 1.261200
1.974800 1.302300
1.994000 1.312300
2.013200 1.309100
2.032500 1.305800
2.051700 1.306700
2.070900 1.311500
2.090100 1.317000
2.109300 1.359500
2.128600 1.377400
2.147800 1.381300
2.167000 1.389600
2.186200 1.414800
2.205400 1.431900
2.224600 1.443900
2.243900 1.455700
2.263100 1.467100
2.282300 1.481700
2.301500 1.500000
2.320700 1.517500
2.340000 1.535400
2.359200 1.552500
2.378400 1.568500
2.397600 1.593700
2.416800 1.630200
2.436000 1.649500
2.455300 1.669000
2.474500 1.680900
2.493700 1.678400
2.512900 1.675300
2.532100 1.671200
2.551300 1.665800
2.570600 1.656300
2.589800 1.654900
2.609000 1.652700
2.628200 1.649600
2.647400 1.645800
2.666700 1.637200
2.685900 1.605300
2.705100 1.596900
2.724300 1.613800
2.743500 1.601700
2.762700 1.596100
2.782000 1.594400
2.801200 1.606600
2.820400 1.644000
2.839600 1.649500
2.858800 1.610800
2.878100 1.593200
2.897300 1.584900
2.916500 1.584200
2.935700 1.593300
2.954900 1.612100
2.974100 1.624500
2.993400 1.628900
3.012600 1.653100
3.031800 1.639600
3.051000 1.619900
3.070200 1.558300
3.089500 1.546600
3.108700 1.596800
3.127900 1.528300
3.147100 1.509700
3.166300 1.499600
3.185500 1.489900
3.204800 1.480400
3.224000 1.472200
3.243200 1.464900
3.262400 1.458300
3.281600 1.451500
3.300800 1.398700
3.320100 1.373500
3.339300 1.361800
3.358500 1.350900
3.377700 1.339300
3.396900 1.327200
3.416200 1.314700
3.435400 1.301700
3.454600 1.289200
3.473800 1.277100
3.493000 1.266800
3.512200 1.262500
3.531500 1.259600
3.550700 1.257500
3.569900 1.258200
3.589100 1.261000
3.608300 1.265000
3.627600 1.270500
3.646800 1.277500
3.666000 1.286000
3.685200 1.296000
3.704400 1.318900
3.723600 1.319400
3.742900 1.316700
3.762100 1.313100
3.781300 1.308900
3.800500 1.307300
3.819700 1.311000
3.839000 1.317000
3.858200 1.326900
3.877400 1.340000
3.896600 1.356600
3.915800 1.438600
3.935000 1.483700
3.954300 1.510500
3.973500 1.518500
3.992700 1.512900
4.011900 1.500700
4.031100 1.481600
4.050300 1.491200
4.069600 1.463500
4.088800 1.474600
4.108000 1.490400
4.127200 1.509700
4.146400 1.530700
4.165700 1.524600
4.184900 1.540000
4.204100 1.555800
4.223300 1.570200
4.242500 1.584200
4.261700 1.598100
4.281000 1.611000
4.300200 1.616400
4.319400 1.626100
4.338600 1.641800
4.357800 1.668000
4.377100 1.701900
4.396300 1.725100
4.415500 1.732300
4.434700 1.771000
4.453900 1.835900
4.473100 1.841900
4.492400 1.754800
4.511600 1.729800
4.530800 1.717500
4.550000 1.707000
4.569200 1.692700
4.588500 1.674200
4.607700 1.668600
4.626900 1.667600
4.646100 1.668400
4.665300 1.670300
4.684500 1.673000
4.703800 1.676200
4.723000 1.680700
4.742200 1.687400
4.761400 1.707400
4.780600 1.715400
4.799900 1.688400
4.819100 1.664900
4.838300 1.644500
4.857500 1.627100
4.876700 1.612700
4.895900 1.600800
4.915200 1.590300
4.934400 1.582900
4.953600 1.579400
4.972800 1.577700
4.992000 1.577800
5.011200 1.579200
5.030500 1.582900
5.049700 1.588700
5.068900 1.596500
5.088100 1.607600
5.107300 1.623100
5.126600 1.640600
5.145800 1.659700
5.165000 1.678700
5.184200 1.687300
5.203400 1.711500
5.222600 1.742200
5.241900 1.749900
5.261100 1.772200
5.280300 1.792800
5.299500 1.805100
5.318700 1.817600
5.338000 1.825000
5.357200 1.813500
5.376400 1.826100
5.395600 1.838300
5.414800 1.853400
5.434000 1.863900
5.453300 1.869100
5.472500 1.874000
5.491700 1.878200
5.510900 1.883800
5.530100 1.889000
5.549400 1.882500
5.568600 1.874100
5.587800 1.872400
5.607000 1.862100
5.626200 1.851600
5.645400 1.839200
5.664700 1.820600
5.683900 1.790500
5.703100 1.809200
5.722300 1.768700
5.741500 1.745400
5.760700 1.728700
5.780000 1.715700
5.799200 1.703900
5.818400 1.701800
5.837600 1.707900
5.856800 1.714600
5.876100 1.722600
5.895300 1.732600
5.914500 1.744900
5.933700 1.751300
5.952900 1.756000
5.972100 1.767500
5.991400 1.783100
6.010600 1.796900
6.029800 1.813300
6.049000 1.809000
6.068200 1.794000
6.087500 1.780800
6.106700 1.775100
6.125900 1.777200
6.145100 1.781700
6.164300 1.791700
6.183500 1.801900
6.202800 1.810300
6.222000 1.817700
6.241200 1.824000
6.260400 1.829400
6.279600 1.837200
6.298900 1.852000
6.318100 1.864700
6.337300 1.881200
6.356500 1.896600
6.375700 1.901300
6.394900 1.901000
6.414200 1.899900
6.433400 1.898900
6.452600 1.898100
6.471800 1.909100
6.491000 1.911900
6.510200 1.878700
6.529500 1.877500
6.548700 1.893200
6.567900 1.903000
6.587100 1.905000
6.606300 1.967100
6.625600 2.022900
6.644800 2.094200
6.664000 2.165200
6.683200 2.235800
6.702400 2.205300
6.721600 2.203000
6.740900 2.142700
6.760100 2.095000
6.779300 2.099200
6.798500 2.092300
6.817700 2.058200
6.837000 2.023700
6.856200 1.981700
6.875400 1.938100
6.894600 1.875900
6.913800 1.825300
6.933000 1.782100
6.952300 1.731600
6.971500 1.728600
6.990700 1.736800
7.009900 1.755000
7.029100 1.768500
7.048400 1.782100
7.067600 1.796700
7.086800 1.814600
7.106000 1.834000
7.125200 1.859400
7.144400 1.888000
7.163700 1.916700
7.182900 1.942900
7.202100 1.954800
7.221300 1.960700
7.240500 1.959300
7.259800 1.954400
7.279000 1.916800
7.298200 1.863800
7.317400 1.858100
7.336600 1.856500
7.355800 1.855800
7.375100 1.859400
7.394300 1.858300
7.413500 1.865300
7.432700 1.896700
7.451900 1.875100
7.471100 1.867900
7.490400 1.865700
7.509600 1.855800
7.528800 1.821200
7.548000 1.788200
7.567200 1.759500
7.586500 1.751500
7.605700 1.743500
7.624900 1.733700
7.644100 1.725400
7.663300 1.719700
7.682500 1.717100
7.701800 1.711900
7.721000 1.705500
7.740200 1.713000
7.759400 1.706900
7.778600 1.711700
7.797900 1.768200
7.817100 1.787800
7.836300 1.792000
7.855500 1.799600
7.874700 1.985700
7.893900 1.947400
7.913200 1.904400
7.932400 1.892300
7.951600 1.901400
7.970800 1.915800
7.990000 1.935600
8.009300 1.964000
8.028500 1.990300
8.047700 2.011300
8.066900 2.042000
8.086100 2.141700
8.105300 2.117000
8.124600 2.162500
8.143800 2.212700
8.163000 2.249500
8.182200 2.299100
8.201400 2.465300
8.220600 2.438700
8.239900 2.464800
8.259100 2.498200
8.278300 2.528200
8.297500 2.570300
8.316700 2.625700
8.336000 2.694400
8.355200 2.786000
8.374400 2.500100
8.393600 2.457500
8.412800 2.430300
8.432000 2.410900
8.451300 2.439400
8.470500 2.414000
8.489700 2.400900
8.508900 2.396900
8.528100 2.383200
8.547400 2.366500
8.566600 2.343900
8.585800 2.313400
8.605000 2.278700
8.624200 2.238800
8.643400 2.196100
8.662700 2.157800
8.681900 2.124800
8.701100 2.096600
8.720300 2.073900
8.739500 2.063700
8.758800 2.063100
8.778000 2.063700
8.797200 2.044000
8.816400 2.048600
8.835600 2.075000
8.854800 2.138000
8.874100 2.216200
8.893300 2.324300
8.912500 2.409500
8.931700 2.458200
8.950900 2.493000
8.970200 2.503000
8.989400 2.493000
9.008600 2.466400
9.027800 2.442900
9.047000 2.402100
9.066200 2.362400
9.085500 2.324700
9.104700 2.286700
9.123900 2.261500
9.143100 2.211600
9.162300 2.166400
9.181500 2.112000
9.200800 2.056500
9.220000 2.014400
9.239200 1.969100
9.258400 1.934900
9.277600 1.911000
9.296900 1.890700
9.316100 1.874100
9.335300 1.861800
9.354500 1.861600
9.373700 1.855400
9.392900 1.852600
9.412200 1.856500
9.431400 1.875800
9.450600 1.911400
9.469800 1.981300
9.489000 2.077400
9.508300 2.203800
9.527500 2.337600
9.546700 2.531500
9.565900 2.877300
9.585100 2.823300
9.604300 2.782800
9.623600 2.752800
9.642800 2.735800
9.662000 2.729600
9.681200 2.728500
9.700400 2.750900
9.719700 2.618400
9.738900 2.486600
9.758100 2.467100
9.777300 2.463900
9.796500 2.463500
9.815700 2.464400
9.835000 2.436500
9.854200 2.447700
9.873400 2.456500
9.892600 2.446000
9.911800 2.447900
9.931000 2.491000
9.950300 2.552100
9.969500 2.615100
9.988700 2.658100
10.007900 2.682300
10.027100 2.661700
10.046400 2.590700
10.065600 2.638400
10.084800 2.598700
10.104000 2.557100
10.123200 2.505800
10.142400 2.458400
10.161700 2.375800
10.180900 2.309500
10.200100 2.245900
10.219300 2.220400
10.238500 2.192500
10.257800 2.169500
10.277000 2.142800
10.296200 2.105900
10.315400 2.112600
10.334600 2.121900
10.353800 2.127100
10.373100 2.126200
10.392300 2.117500
10.411500 2.080300
10.430700 2.060700
10.449900 2.052100
10.469200 2.052700
10.488400 2.058600
10.507600 2.068200
10.526800 2.082600
10.546000 2.109900
10.565200 2.134300
10.584500 2.144900
10.603700 2.156400
10.622900 2.168200
10.642100 2.179800
10.661300 2.177600
10.680500 2.192100
10.699800 2.218900
10.719000 2.251500
10.738200 2.211400
10.757400 2.199200
10.776600 2.206000
10.795900 2.189300
10.815100 2.213900
10.834300 2.277300
10.853500 2.303600
10.872700 2.281600
10.891900 2.279200
10.911200 2.274700
10.930400 2.270200
10.949600 2.265800
10.968800 2.261200
10.988000 2.259800
11.007300 2.267100
11.026500 2.299900
11.045700 2.342500
11.064900 2.233100
11.084100 2.268800
11.103300 2.294500
11.122600 2.317900
11.141800 2.342900
11.161000 2.369700
11.180200 2.385300
11.199400 2.392800
11.218700 2.385100
11.237900 2.366900
11.257100 2.343100
11.276300 2.321400
11.295500 2.327100
11.314700 2.311800
11.334000 2.290500
11.353200 2.277000
11.372400 2.279700
11.391600 2.279800
11.410800 2.316600
11.430100 2.312900
11.449300 2.301400
11.468500 2.302600
11.487700 2.316400
11.506900 2.297100
11.526100 2.264700
11.545400 2.223700
11.564600 2.195200
11.583800 2.170900
11.603000 2.146300
11.622200 2.122600
11.641400 2.104600
11.660700 2.088900
11.679900 2.077500
11.699100 2.069500
11.718300 2.064300
11.737500 2.059500
11.756800 2.084800
11.776000 2.209200
11.795200 2.004700
11.814400 2.000900
11.833600 1.974800
11.852800 1.976500
11.872100 1.982500
11.891300 1.982000
11.910500 1.979900
11.929700 1.976900
11.948900 1.938600
11.968200 1.906300
11.987400 1.879700
12.006600 1.874400
12.025800 1.854800
12.045000 1.846200
12.064200 1.839400
12.083500 1.834800
12.102700 1.837500
12.121900 1.839400
12.141100 1.841200
12.160300 1.843300
12.179600 1.858700
12.198800 1.877400
12.218000 1.895000
12.237200 1.911700
12.256400 1.926800
12.275600 1.935400
12.294900 1.968000
12.314100 1.972000
12.333300 1.964200
12.352500 1.964500
12.371700 2.018500
12.390900 1.996800
12.410200 1.973000
12.429400 1.948100
12.448600 1.924000
12.467800 1.901700
12.487000 1.879400
12.506300 1.862500
12.525500 1.853500
12.544700 1.869600
12.563900 1.889800
12.583100 1.911800
12.602300 1.933300
12.621600 1.975900
12.640800 2.000400
12.660000 2.025700
12.679200 2.073100
12.698400 2.099800
12.717700 2.101700
12.736900 2.110400
12.756100 2.120900
12.775300 2.116700
12.794500 2.096600
12.813700 2.086200
12.833000 2.086200
12.852200 2.074300
12.871400 2.060900
12.890600 2.047900
12.909800 2.032700
12.929100 2.009800
12.948300 1.993100
12.967500 1.976500
12.986700 1.955400
13.005900 1.936000
13.025100 1.907200
13.044400 1.894800
13.063600 1.831400
13.082800 1.833200
13.102000 1.844500
13.121200 1.873300
13.140400 1.909900
13.159700 1.926300
13.178900 1.946500
13.198100 1.963800
13.217300 1.996100
13.236500 2.016000
13.255800 1.994000
13.275000 1.917700
13.294200 1.859700
13.313400 1.849800
13.332600 1.843600
13.351800 1.837400
13.371100 1.835500
13.390300 1.828200
13.409500 1.825100
13.428700 1.831800
13.447900 1.852800
13.467200 1.878900
13.486400 1.934200
13.505600 1.955800
13.524800 1.985300
13.544000 2.022600
13.563200 2.066900
13.582500 2.119200
13.601700 2.169500
13.620900 2.222300
13.640100 2.318200
13.659300 2.325400
13.678600 2.311800
13.697800 2.272800
13.717000 2.336800
13.736200 2.429500
13.755400 2.513500
13.774600 2.585000
13.793900 2.614300
13.813100 2.640400
13.832300 2.607300
13.851500 2.470000
13.870700 2.390900
13.890000 2.252900
13.909200 2.244500
13.928400 2.240500
13.947600 2.226400
13.966800 2.231300
13.986000 2.231300
14.005300 2.194100
14.024500 2.166200
14.043700 2.163100
14.062900 2.155800
14.082100 2.145000
14.101300 2.145800
14.120600 2.124800
14.139800 2.147600
14.159000 2.186600
14.178200 2.212200
14.197400 2.364500
14.216700 2.480900
14.235900 2.595500
14.255100 2.616600
14.274300 2.600500
14.293500 2.558800
14.312700 2.551600
14.332000 2.582000
14.351200 2.673600
14.370400 2.673400
14.389600 2.722200
14.408800 2.774300
14.428100 2.814500
14.447300 2.857600
14.466500 2.920200
14.485700 3.016400
14.504900 3.104500
14.524100 3.116800
14.543400 3.111300
14.562600 3.091200
14.581800 3.068600
14.601000 3.034100
14.620200 2.925700
14.639500 2.906900
14.658700 2.880600
14.677900 2.864800
14.697100 2.843600
14.716300 2.871700
14.735500 2.869400
14.754800 2.826900
14.774000 2.737400
14.793200 2.644300
14.812400 2.563200
14.831600 2.496900
14.850800 2.444200
14.870100 2.404900
14.889300 2.376500
14.908500 2.356100
14.927700 2.342700
14.946900 2.340800
14.966200 2.343400
14.985400 2.325500
15.004600 2.291700
15.023800 2.254900
15.043000 2.219000
15.062200 2.183100
15.081500 2.141800
15.100700 2.085400
15.119900 2.091800
15.139100 2.113400
15.158300 2.185400
15.177600 2.219300
15.196800 2.260500
15.216000 2.304500
15.235200 2.270500
15.254400 2.336900
15.273600 2.385100
15.292900 2.472800
15.312100 2.558600
15.331300 2.677800
15.350500 2.828900
15.369700 2.852500
15.389000 2.839000
15.408200 2.811500
15.427400 2.830700
15.446600 2.841600
15.465800 2.837600
15.485000 2.815000
15.504300 2.790000
15.523500 2.795800
15.542700 2.895200
15.561900 2.913900
15.581100 2.855700
15.600300 2.737900
15.619600 2.723600
15.638800 2.706400
15.658000 2.651900
15.677200 2.654500
15.696400 2.659800
15.715700 2.670100
15.734900 2.693800
15.754100 2.717300
15.773300 2.741600
15.792500 2.764400
15.811700 2.874900
15.831000 3.004200
15.850200 3.175800
15.869400 3.424100
15.888600 3.299400
15.907800 3.326100
15.927100 3.369100
15.946300 3.396900
15.965500 3.456200
15.984700 3.511100
16.003900 3.542400
16.023100 3.511800
16.042400 3.953900
16.061600 3.573400
16.080800 3.427700
16.100000 3.281200
16.119200 3.184700
16.138500 3.131200
16.157700 3.088100
16.176900 3.038200
16.196100 2.989800
16.215300 2.935300
16.234500 2.870300
16.253800 2.814300
16.273000 2.784600
16.292200 2.789400
16.311400 2.851500
16.330600 2.952800
16.349900 3.018200
16.369100 3.035800
16.388300 2.853200
16.407500 2.830000
16.426700 2.828100
16.445900 2.831500
16.465200 2.839400
16.484400 2.848300
16.503600 2.850500
16.522800 2.822300
16.542000 2.806000
16.561200 2.813400
16.580500 3.018100
16.599700 2.899800
16.618900 2.884300
16.638100 2.882100
16.657300 2.906300
16.676600 2.933700
16.695800 2.928500
16.715000 2.928300
16.734200 2.903000
16.753400 2.902400
16.772600 2.910000
16.791900 2.847600
16.811100 2.844000
16.830300 2.874300
16.849500 2.902200
16.868700 2.857200
16.888000 2.805200
16.907200 2.758700
16.926400 2.718000
16.945600 2.690400
16.964800 2.705200
16.984000 2.742800
17.003300 2.793000
17.022500 2.857800
17.041700 2.956100
17.060900 3.096300
17.080100 3.100400
17.099400 3.137400
17.118600 3.117400
17.137800 3.148400
17.157000 3.046000
17.176200 3.115800
17.195400 3.155700
17.214700 3.201100
17.233900 3.254200
17.253100 3.301700
17.272300 3.363700
17.291500 3.506200
17.310700 3.551900
17.330000 3.612800
17.349200 3.692500
17.368400 3.732500
17.387600 3.756900
17.406800 3.812500
17.426100 3.834800
17.445300 3.832800
17.464500 3.766600
17.483700 3.670700
17.502900 3.549900
17.522100 3.369600
17.541400 3.096100
17.560600 2.879300
17.579800 2.688500
17.599000 2.649700
17.618200 2.567600
17.637500 2.533000
17.656700 2.453600
17.675900 2.206200
17.695100 2.148200
17.714300 2.107000
17.733500 2.081000
17.752800 2.071000
17.772000 2.077900
17.791200 2.101500
17.810400 2.142200
17.829600 2.195800
17.848900 2.266900
17.868100 2.331200
17.887300 2.442500
17.906500 2.415200
17.925700 2.458400
17.944900 2.510600
17.964200 2.544500
17.983400 2.581200
18.002600 2.616900
18.021800 2.654800
18.041000 2.684500
18.060200 2.695500
18.079500 2.711500
18.098700 2.726800
18.117900 2.781100
18.137100 2.853000
18.156300 2.931000
18.175600 3.006900
18.194800 3.050100
18.214000 3.002800
18.233200 3.009200
18.252400 2.981900
18.271600 2.938600
18.290900 2.914300
18.310100 2.899900
18.329300 2.892800
18.348500 2.892200
18.367700 2.878300
18.387000 2.781600
18.406200 2.693400
18.425400 2.624600
18.444600 2.604000
18.463800 2.574800
18.483000 2.544500
18.502300 2.362300
18.521500 2.323100
18.540700 2.338000
18.559900 2.309100
18.579100 2.274100
18.598400 2.200500
18.617600 2.111300
18.636800 2.061100
18.656000 2.023000
18.675200 1.979100
18.694400 1.924300
18.713700 1.922500
18.732900 1.932300
18.752100 1.940400
18.771300 1.970800
18.790500 2.013200
18.809800 2.057700
18.829000 2.108100
18.848200 2.155600
18.867400 2.217500
18.886600 2.287100
18.905800 2.361200
18.925100 2.485900
18.944300 2.519200
18.963500 2.478300
18.982700 2.443000
19.001900 2.390100
19.021100 2.406800
19.040400 2.551200
19.059600 2.502900
19.078800 2.473300
19.098000 2.525400
19.117200 2.584000
19.136500 2.586900
19.155700 2.579800
19.174900 2.576500
19.194100 2.586700
19.213300 2.660500
19.232500 2.703600
19.251800 2.777600
19.271000 2.833200
19.290200 2.875400
19.309400 3.000000
19.328600 3.320700
19.347900 3.432600
19.367100 3.256100
19.386300 3.121700
19.405500 3.157900
19.424700 3.163900
19.443900 3.132000
19.463200 3.072300
19.482400 3.016100
19.501600 2.977100
19.520800 2.945500
19.540000 3.029100
19.559300 2.982300
19.578500 2.984200
19.597700 2.957700
19.616900 2.917000
19.636100 2.878900
19.655300 2.832100
19.674600 2.812600
19.693800 2.798300
19.713000 2.680500
19.732200 2.509200
19.751400 2.431500
19.770600 2.422200
19.789900 2.385400
19.809100 2.353700
19.828300 2.326400
19.847500 2.302400
19.866700 2.281500
19.886000 2.268100
19.905200 2.262700
19.924400 2.261200
19.943600 2.217600
19.962800 2.180700
19.982000 2.178300
20.001300 2.171800
20.020500 2.178600
20.039700 2.188300
20.058900 2.201000
20.078100 2.223500
20.097400 2.291100
20.116600 2.387800
20.135800 2.514000
20.155000 2.879100
20.174200 2.638500
20.193400 2.651500
20.212700 2.663100
20.231900 2.698600
20.251100 2.747500
20.270300 2.773100
20.289500 2.806700
20.308800 2.847500
20.328000 2.945100
20.347200 2.907300
20.366400 2.870500
20.385600 2.843300
20.404800 2.709900
20.424100 2.718800
20.443300 2.696800
20.462500 2.678300
20.481700 2.655700
20.500900 2.650800
20.520200 2.586400
20.539400 2.556800
20.558600 2.549300
20.577800 2.537400
20.597000 2.517600
20.616200 2.536300
20.635500 2.598100
20.654700 2.574500
20.673900 2.542000
20.693100 2.501600
20.712300 2.694700
20.731500 2.568400
20.750800 2.547700
20.770000 2.428400
20.789200 2.318900
20.808400 2.297900
20.827600 2.292100
20.846900 2.289800
20.866100 2.269800
20.885300 2.242800
20.904500 2.249900
20.923700 2.234300
20.942900 2.181200
20.962200 2.127100
20.981400 2.115100
21.000600 2.108000
21.019800 2.103700
21.039000 2.099800
21.058300 2.091400
21.077500 2.081400
21.096700 2.592200
21.115900 2.116800
21.135100 2.144800
21.154300 2.207500
21.173600 2.264500
21.192800 2.327100
21.212000 2.412800
21.231200 2.485900
21.250400 2.557900
21.269700 2.638200
21.288900 2.711800
21.308100 2.764700
21.327300 2.783500
21.346500 2.800300
21.365700 2.784900
21.385000 2.781400
21.404200 2.844300
21.423400 2.831700
21.442600 2.810800
21.461800 2.831300
21.481000 2.717700
21.500300 2.687200
21.519500 2.700600
21.538700 2.728200
21.557900 2.767900
21.577100 2.877000
21.596400 2.923000
21.615600 2.966900
21.634800 3.014800
21.654000 3.059400
21.673200 3.104400
21.692400 3.100400
21.711700 3.115500
21.730900 3.158100
21.750100 3.201300
21.769300 3.225600
21.788500 3.224400
21.807800 3.235700
21.827000 3.148900
21.846200 3.060200
21.865400 3.131600
21.884600 3.171600
21.903800 3.115000
21.923100 3.179000
21.942300 3.289200
21.961500 3.310400
21.980700 3.213800
21.999900 3.123900
22.019200 2.976000
22.038400 2.893800
22.057600 2.828100
22.076800 2.774300
22.096000 2.718100
22.115200 2.647700
22.134500 2.588200
22.153700 2.551700
22.172900 2.515800
22.192100 2.493500
22.211300 2.505100
22.230500 2.491200
22.249800 2.424100
22.269000 2.411900
22.288200 2.407500
22.307400 2.410200
22.326600 2.323500
22.345900 2.314200
22.365100 2.311400
22.384300 2.279400
22.403500 2.295300
22.422700 2.324800
22.441900 2.390500
22.461200 2.478800
22.480400 2.573900
22.499600 2.608000
22.518800 2.702100
22.538000 2.816800
22.557300 2.883100
22.576500 3.007600
22.595700 3.138200
22.614900 3.215900
22.634100 3.336900
22.653300 3.470400
22.672600 3.601300
22.691800 3.712900
22.711000 3.854600
22.730200 3.819700
22.749400 3.714000
22.768700 3.581600
22.787900 3.494200
22.807100 3.440500
22.826300 3.381700
22.845500 3.286300
22.864700 3.198000
22.884000 3.107200
22.903200 3.012300
22.922400 2.913600
22.941600 2.893200
22.960800 2.760600
22.980100 2.589500
22.999300 2.506300
23.018500 2.447700
23.037700 2.416500
23.056900 2.438200
23.076100 2.487900
23.095400 2.579100
23.114600 2.690100
23.133800 2.813700
23.153000 2.922000
23.172200 3.015000
23.191400 3.065700
23.210700 3.174400
23.229900 3.283300
23.249100 3.408500
23.268300 3.584000
23.287500 3.808300
23.306800 3.944800
23.326000 4.136100
23.345200 4.121700
23.364400 4.056100
23.383600 3.979900
23.402800 3.941200
23.422100 3.892400
23.441300 3.770400
23.460500 3.610200
23.479700 3.419100
23.498900 3.216900
23.518200 2.991200
23.537400 2.824400
23.556600 2.680900
23.575800 2.587800
23.595000 2.503800
23.614200 2.412400
23.633500 2.343800
23.652700 2.347600
23.671900 2.404300
23.691100 2.479900
23.710300 2.578600
23.729600 2.696900
23.748800 2.846100
23.768000 3.026200
23.787200 3.131000
23.806400 3.335400
23.825600 3.424700
23.844900 3.524300
23.864100 3.563000
23.883300 3.622700
23.902500 3.797400
23.921700 3.919500
23.940900 3.986600
23.960200 4.041600
23.979400 4.110400
23.998600 4.098700
24.017800 3.946800
24.037000 3.862900
24.056300 3.792100
24.075500 3.734300
24.094700 3.673000
24.113900 3.607900
24.133100 3.547200
24.152300 3.474100
24.171600 3.404000
24.190800 3.299500
24.210000 3.151100
24.229200 3.033900
24.248400 2.947900
24.267700 2.893900
24.286900 2.820400
24.306100 2.799200
24.325300 2.819000
24.344500 2.848700
24.363700 2.872900
24.383000 2.892800
24.402200 2.911500
24.421400 2.938100
24.440600 3.061300
24.459800 2.958100
24.479100 2.967500
24.498300 2.999500
24.517500 3.032700
24.536700 3.075100
24.555900 3.137800
24.575100 3.259900
24.594400 3.387600
24.613600 3.347000
24.632800 3.286500
24.652000 3.254200
24.671200 3.219200
24.690400 3.178400
24.709700 3.142400
24.728900 3.113400
24.748100 3.118000
24.767300 3.369800
24.786500 3.365700
24.805800 3.378500
24.825000 3.512800
24.844200 3.542000
24.863400 3.481700
24.882600 3.436800
24.901800 3.413300
24.921100 3.388000
24.940300 3.380500
24.959500 3.385800
24.978700 3.444500
24.997900 3.597900
25.017200 3.407400
25.036400 3.384000
25.055600 3.362900
25.074800 3.335900
25.094000 3.300500
25.113200 3.265500
25.132500 3.256000
25.151700 3.256300
25.170900 3.242600
25.190100 3.211200
25.209300 3.209500
25.228600 3.150000
25.247800 3.119500
25.267000 3.143200
25.286200 3.205100
25.305400 3.302600
25.324600 3.447500
25.343900 3.658700
25.363100 3.836200
25.382300 3.705700
25.401500 3.709400
25.420700 3.707000
25.440000 3.705500
25.459200 3.623300
25.478400 3.567600
25.497600 3.512300
25.516800 3.466800
25.536000 3.437800
25.555300 3.418500
25.574500 3.270900
25.593700 3.201000
25.612900 3.083500
25.632100 3.003000
25.651300 2.934600
25.670600 2.878900
25.689800 2.833000
25.709000 2.815600
25.728200 2.816500
25.747400 2.825400
25.766700 2.843900
25.785900 2.877900
25.805100 2.925500
25.824300 2.930400
25.843500 2.809600
25.862700 2.690500
25.882000 2.592800
25.901200 2.509000
25.920400 2.434400
25.939600 2.376500
25.958800 2.300600
25.978100 2.256200
25.997300 2.248900
26.016500 2.237100
26.035700 2.227600
26.054900 2.217400
26.074100 2.180100
26.093400 2.216900
26.112600 2.218900
26.131800 2.188000
26.151000 2.120700
26.170200 2.068700
26.189500 2.025000
26.208700 1.987000
26.227900 1.949100
26.247100 1.918400
26.266300 1.898600
26.285500 1.888800
26.304800 1.888300
26.324000 1.891800
26.343200 1.887800
26.362400 1.880300
26.381600 1.880800
26.400800 1.787600
26.420100 1.697400
26.439300 1.627500
26.458500 1.577700
26.477700 1.539700
26.496900 1.505800
26.516200 1.470200
26.535400 1.429500
26.554600 1.377900
26.573800 1.326500
26.593000 1.278900
26.612200 1.237700
26.631500 1.230600
26.650700 1.214600
26.669900 1.179700
26.689100 1.131100
26.708300 1.064900
26.727600 0.977300
26.746800 0.954800
26.766000 0.937100
26.785200 0.924200
26.804400 0.916300
26.823600 0.909700
26.842900 0.894700
26.862100 0.871100
26.881300 0.842800
26.900500 0.820100
26.919700 0.798600
26.939000 0.776400
26.958200 0.749500
26.977400 0.721800
26.996600 0.694400
27.015800 0.670700
27.035000 0.655200
27.054300 0.640300
27.073500 0.625900
27.092700 0.611700
27.111900 0.597800
27.131100 0.584500
27.150300 0.571600
27.169600 0.559500
27.188800 0.548600
27.208000 0.538400
27.227200 0.527900
27.246400 0.517400
27.265700 0.506500
27.284900 0.495400
27.304100 0.484400
27.323300 0.473300
27.342500 0.462100
27.361700 0.451500
27.381000 0.441400
27.400200 0.431200
27.419400 0.421000
27.438600 0.410800
27.457800 0.400600
27.477100 0.390400
27.496300 0.373500
27.515500 0.366600
27.534700 0.360600
27.553900 0.354700
27.573100 0.349200
27.592400 0.343700
27.611600 0.338400
27.630800 0.333300
27.650000 0.328300
27.669200 0.323500
27.688500 0.318700
27.707700 0.313700
27.726900 0.308600
27.746100 0.304200
27.765300 0.300900
27.784500 0.298600
27.803800 0.298300
27.823000 0.298500
27.842200 0.299000
27.861400 0.299800
27.880600 0.300900
27.899900 0.303500
27.919100 0.305300
27.938300 0.307200
27.957500 0.306700
27.976700 0.303900
27.995900 0.300700
28.015200 0.297600
28.034400 0.294500
28.053600 0.291600
28.072800 0.288800
28.092000 0.369700
28.111200 0.375100
28.130500 0.363100
28.149700 0.332600
28.168900 0.285300
28.188100 0.263000
28.207300 0.251000
28.226600 0.241100
28.245800 0.232400
28.265000 0.224800
28.284200 0.218300
28.303400 0.212900
28.322600 0.208700
28.341900 0.207500
28.361100 0.208400
28.380300 0.213000
28.399500 0.219300
28.418700 0.226400
28.438000 0.233700
28.457200 0.233100
28.476400 0.210400
28.495600 0.186000
28.514800 0.161200
28.534000 0.137100
28.553300 0.115300
28.572500 0.095900
28.591700 0.080500
28.610900 0.060500
28.630100 0.022100
28.649400 0.014800
28.668600 0.011900
28.687800 0.009400
28.707000 0.007100
28.726200 0.005100
28.745400 0.003500
28.764700 0.002200
28.783900 0.001200
28.803100 0.000500
28.822300 0.000100
28.841500 0.000000
28.860700 0.000000
28.880000 0.000000
28.899200 0.000000
28.918400 0.000000
28.937600 0.000000
28.956800 0.000000
28.976100 0.000000
28.995300 0.000000
29.014500 0.000000
29.033700 0.000000
29.052900 0.000000
29.072100 0.000000
29.091400 0.000000
29.110600 0.000000
29.129800 0.000000
29.149000 0.000000
29.168200 0.000000
29.187500 0.000000
29.206700 0.000000
29.225900 0.000000
29.245100 0.000000
29.264300 0.000000
29.283500 0.000000
29.302800 0.000000
29.322000 0.000000
29.341200 0.000000
29.360400 0.000000
29.379600 0.000000
29.398900 0.000000
29.418100 0.000000
29.437300 0.000000
29.456500 0.000000
29.475700 0.000000
29.494900 0.000000
29.514200 0.000000
29.533400 0.000000
29.552600 0.000000
29.571800 0.000000
29.591000 0.000000
29.610200 0.000000
29.629500 0.000000
29.648700 0.000000
29.667900 0.000000
29.687100 0.000000
29.706300 0.000000
29.725600 0.000000
29.744800 0.000000
29.764000 0.000000
29.783200 0.000000
29.802400 0.000000
29.821600 0.000000
29.840900 0.000000
29.860100 0.000000
29.879300 0.000000
29.898500 0.000000
29.917700 0.000000
29.937000 0.000000
29.956200 0.000000
29.975400 0.000000
29.994600 0.000000
30.013800 0.000000
30.033000 0.000000
30.052300 0.000000
30.071500 0.000000
30.090700 0.000000
30.109900 0.000000
30.129100 0.000000
30.148400 0.000000
30.167600 0.000000
30.186800 0.000000
30.206000 0.000000
30.225200 0.000000
30.244400 0.000000
30.263700 0.000000
30.282900 0.000000
30.302100 0.000000
30.321300 0.000000
30.340500 0.000000
30.359800 0.000000
30.379000 0.000000
30.398200 0.000000
30.417400 0.000000
30.436600 0.000000
30.455800 0.000000
30.475100 0.000000
30.494300 0.000000
30.513500 0.000000
30.532700 0.000000
30.551900 0.000000
30.571100 0.000000
30.590400 0.000000
e
