set title 'mp-1007664 - Density of States'
set xlabel 'Energy (eV)'
set ylabel 'DOS (states/eV)'
set grid
set xrange [-10:10]
set yrange [0:158.198]
set xzeroaxis lt -1
set terminal png size 800,600
set output 'mp-1007664_dos_gnuplot.png'
plot '-' using 1:2 with lines title 'DOS'
-9.569100 0.000000
-9.551100 0.000000
-9.533100 0.000000
-9.515100 0.000000
-9.497000 0.000000
-9.479000 0.000000
-9.461000 0.000000
-9.442900 0.000000
-9.424900 0.000000
-9.406900 0.000000
-9.388900 0.000000
-9.370800 0.000000
-9.352800 0.000000
-9.334800 0.000000
-9.316800 0.000000
-9.298700 0.000000
-9.280700 0.000000
-9.262700 0.000000
-9.244700 0.000000
-9.226600 0.000000
-9.208600 0.000000
-9.190600 0.000000
-9.172600 0.000000
-9.154500 0.000000
-9.136500 0.000000
-9.118500 0.000000
-9.100500 0.000000
-9.082400 0.000000
-9.064400 0.000000
-9.046400 0.000000
-9.028400 0.000000
-9.010300 0.000000
-8.992300 0.000000
-8.974300 0.000000
-8.956200 0.000000
-8.938200 0.000000
-8.920200 0.000000
-8.902200 0.000000
-8.884100 0.000000
-8.866100 0.000000
-8.848100 0.000000
-8.830100 0.000000
-8.812000 0.000000
-8.794000 0.000000
-8.776000 0.000000
-8.758000 0.000000
-8.739900 0.000000
-8.721900 0.000000
-8.703900 0.000000
-8.685900 0.000000
-8.667800 0.000000
-8.649800 0.000000
-8.631800 0.000000
-8.613800 0.000000
-8.595700 0.000000
-8.577700 0.000000
-8.559700 0.000000
-8.541600 0.000000
-8.523600 0.000000
-8.505600 0.000000
-8.487600 0.000000
-8.469500 0.000000
-8.451500 0.000000
-8.433500 0.000000
-8.415500 0.000000
-8.397400 0.000000
-8.379400 0.000000
-8.361400 0.000000
-8.343400 0.000000
-8.325300 0.000000
-8.307300 0.000000
-8.289300 0.000000
-8.271300 0.000000
-8.253200 0.000000
-8.235200 0.000000
-8.217200 0.000000
-8.199200 0.000000
-8.181100 0.000000
-8.163100 0.000000
-8.145100 0.000000
-8.127000 0.000000
-8.109000 0.000000
-8.091000 0.000000
-8.073000 0.000000
-8.054900 0.000000
-8.036900 0.000000
-8.018900 0.000000
-8.000900 0.000000
-7.982800 0.000000
-7.964800 0.000000
-7.946800 0.000000
-7.928800 1.475900
-7.910700 24.325400
-7.892700 143.660600
-7.874700 143.816800
-7.856700 131.139800
-7.838600 39.133300
-7.820600 60.882800
-7.802600 0.000000
-7.784600 0.000000
-7.766500 0.000000
-7.748500 0.000000
-7.730500 0.000000
-7.712400 0.000000
-7.694400 0.000000
-7.676400 0.000000
-7.658400 0.000000
-7.640300 0.000000
-7.622300 0.000000
-7.604300 0.000000
-7.586300 0.000000
-7.568200 0.000000
-7.550200 0.000000
-7.532200 0.000000
-7.514200 0.000000
-7.496100 0.000000
-7.478100 0.000000
-7.460100 0.000000
-7.442100 0.000000
-7.424000 0.000000
-7.406000 0.000000
-7.388000 0.000000
-7.370000 0.000000
-7.351900 0.000000
-7.333900 0.000000
-7.315900 0.000000
-7.297800 0.000000
-7.279800 0.000000
-7.261800 0.000000
-7.243800 0.000000
-7.225700 0.000000
-7.207700 0.000000
-7.189700 0.000000
-7.171700 0.000000
-7.153600 0.000000
-7.135600 0.000000
-7.117600 0.000000
-7.099600 0.000000
-7.081500 0.000000
-7.063500 0.000000
-7.045500 0.000000
-7.027500 0.000000
-7.009400 0.000000
-6.991400 0.000000
-6.973400 0.000000
-6.955400 0.000000
-6.937300 0.000000
-6.919300 0.000000
-6.901300 0.000000
-6.883200 0.000000
-6.865200 0.000000
-6.847200 0.000000
-6.829200 0.000000
-6.811100 0.000000
-6.793100 0.000000
-6.775100 0.000000
-6.757100 0.000000
-6.739000 0.000000
-6.721000 0.000000
-6.703000 0.000000
-6.685000 0.000000
-6.666900 0.000000
-6.648900 0.000000
-6.630900 0.000000
-6.612900 0.000000
-6.594800 0.000000
-6.576800 0.000000
-6.558800 0.000000
-6.540800 0.000000
-6.522700 0.000000
-6.504700 0.000000
-6.486700 0.000000
-6.468600 0.000000
-6.450600 0.000000
-6.432600 0.000000
-6.414600 0.000000
-6.396500 0.000000
-6.378500 0.000000
-6.360500 0.000000
-6.342500 0.000000
-6.324400 0.000000
-6.306400 0.000000
-6.288400 0.000000
-6.270400 0.000000
-6.252300 0.000000
-6.234300 0.000000
-6.216300 0.000000
-6.198300 0.000000
-6.180200 0.000000
-6.162200 0.000000
-6.144200 0.000000
-6.126200 0.000000
-6.108100 0.000000
-6.090100 0.000000
-6.072100 0.000000
-6.054000 0.000000
-6.036000 0.000000
-6.018000 0.000000
-6.000000 0.000000
-5.981900 0.000000
-5.963900 0.000000
-5.945900 0.000000
-5.927900 0.000000
-5.909800 0.000000
-5.891800 0.000000
-5.873800 0.000000
-5.855800 0.000000
-5.837700 0.000000
-5.819700 0.000000
-5.801700 0.000000
-5.783700 0.000000
-5.765600 0.000000
-5.747600 0.000000
-5.729600 0.000000
-5.711600 0.000000
-5.693500 0.000000
-5.675500 0.000000
-5.657500 0.000000
-5.639400 0.000000
-5.621400 0.000000
-5.603400 0.000000
-5.585400 0.000000
-5.567300 0.000000
-5.549300 0.000000
-5.531300 0.000000
-5.513300 0.000000
-5.495200 0.000000
-5.477200 0.000000
-5.459200 0.000000
-5.441200 0.000000
-5.423100 0.000000
-5.405100 0.000000
-5.387100 0.000000
-5.369100 0.000000
-5.351000 0.000000
-5.333000 0.000000
-5.315000 0.000000
-5.297000 0.000000
-5.278900 0.000000
-5.260900 0.000000
-5.242900 0.000000
-5.224800 0.000000
-5.206800 0.000000
-5.188800 0.000000
-5.170800 0.000000
-5.152700 0.000000
-5.134700 0.000000
-5.116700 0.000000
-5.098700 0.000000
-5.080600 0.000000
-5.062600 0.000000
-5.044600 0.000000
-5.026600 0.000000
-5.008500 0.000000
-4.990500 0.000000
-4.972500 0.000000
-4.954500 0.000000
-4.936400 0.000000
-4.918400 0.000000
-4.900400 0.000000
-4.882400 0.000000
-4.864300 0.000000
-4.846300 0.000000
-4.828300 0.000000
-4.810300 0.000000
-4.792200 0.000000
-4.774200 0.000000
-4.756200 0.000000
-4.738100 0.000000
-4.720100 0.000000
-4.702100 0.000000
-4.684100 0.000000
-4.666000 0.000000
-4.648000 0.000000
-4.630000 0.000000
-4.612000 0.000000
-4.593900 0.000000
-4.575900 0.000000
-4.557900 0.000000
-4.539900 0.000000
-4.521800 0.000000
-4.503800 0.000000
-4.485800 0.000000
-4.467800 0.000000
-4.449700 0.000000
-4.431700 0.000000
-4.413700 0.000000
-4.395700 0.000000
-4.377600 0.000000
-4.359600 0.000000
-4.341600 0.000000
-4.323500 0.000000
-4.305500 0.000000
-4.287500 0.000000
-4.269500 0.000000
-4.251400 0.000000
-4.233400 0.000000
-4.215400 0.000000
-4.197400 0.000000
-4.179300 0.000000
-4.161300 0.000000
-4.143300 0.000000
-4.125300 0.000000
-4.107200 0.000000
-4.089200 0.000000
-4.071200 0.000000
-4.053200 0.000000
-4.035100 0.000000
-4.017100 0.000000
-3.999100 0.000000
-3.981100 0.000000
-3.963000 0.000000
-3.945000 0.000000
-3.927000 0.000000
-3.908900 0.000000
-3.890900 0.000000
-3.872900 0.000000
-3.854900 0.000000
-3.836800 0.000000
-3.818800 0.000000
-3.800800 0.000000
-3.782800 0.000000
-3.764700 0.000000
-3.746700 0.000000
-3.728700 0.000000
-3.710700 0.000000
-3.692600 0.000000
-3.674600 0.000000
-3.656600 0.000000
-3.638600 0.000000
-3.620500 0.000000
-3.602500 0.000000
-3.584500 0.000000
-3.566500 0.000000
-3.548400 0.000000
-3.530400 0.000000
-3.512400 0.000000
-3.494300 0.000000
-3.476300 0.000000
-3.458300 0.000000
-3.440300 0.000000
-3.422200 0.000000
-3.404200 0.000000
-3.386200 0.000000
-3.368200 0.000000
-3.350100 0.000000
-3.332100 0.000000
-3.314100 0.000000
-3.296100 0.000000
-3.278000 0.000000
-3.260000 0.000000
-3.242000 0.000000
-3.224000 0.000000
-3.205900 0.000000
-3.187900 0.000000
-3.169900 0.000000
-3.151900 0.000000
-3.133800 0.000000
-3.115800 0.000000
-3.097800 0.000000
-3.079700 0.000000
-3.061700 0.000000
-3.043700 0.000000
-3.025700 0.000000
-3.007600 0.000000
-2.989600 0.000000
-2.971600 0.000000
-2.953600 0.000000
-2.935500 0.000000
-2.917500 0.000000
-2.899500 0.000000
-2.881500 0.000000
-2.863400 0.000000
-2.845400 0.000000
-2.827400 0.000000
-2.809400 0.000000
-2.791300 0.000000
-2.773300 0.000000
-2.755300 0.000000
-2.737300 0.000000
-2.719200 0.000000
-2.701200 0.000000
-2.683200 0.000000
-2.665100 0.000000
-2.647100 0.000000
-2.629100 0.000000
-2.611100 0.000000
-2.593000 0.000000
-2.575000 0.000000
-2.557000 0.000000
-2.539000 0.000000
-2.520900 0.000000
-2.502900 0.000000
-2.484900 0.000000
-2.466900 0.000000
-2.448800 0.000000
-2.430800 0.000000
-2.412800 0.000000
-2.394800 0.000000
-2.376700 0.000000
-2.358700 0.000000
-2.340700 0.000000
-2.322700 0.000000
-2.304600 0.000000
-2.286600 0.000000
-2.268600 0.000000
-2.250500 0.000000
-2.232500 0.000000
-2.214500 0.000000
-2.196500 0.000000
-2.178400 0.047000
-2.160400 0.062800
-2.142400 0.082500
-2.124400 0.098600
-2.106300 0.115000
-2.088300 0.125400
-2.070300 0.138800
-2.052300 0.147100
-2.034200 0.153000
-2.016200 0.162000
-1.998200 0.172600
-1.980200 0.183900
-1.962100 0.195600
-1.944100 0.202000
-1.926100 0.209500
-1.908100 0.217200
-1.890000 0.222900
-1.872000 0.229100
-1.854000 0.235600
-1.835900 0.242600
-1.817900 0.249800
-1.799900 0.257400
-1.781900 0.265400
-1.763800 0.273500
-1.745800 0.281700
-1.727800 0.287900
-1.709800 0.294400
-1.691700 0.301200
-1.673700 0.306600
-1.655700 0.312300
-1.637700 0.318300
-1.619600 0.324400
-1.601600 0.330600
-1.583600 0.336700
-1.565600 0.343000
-1.547500 0.349400
-1.529500 0.356300
-1.511500 0.363700
-1.493500 0.371400
-1.475400 0.379400
-1.457400 0.386700
-1.439400 0.393300
-1.421300 0.399700
-1.403300 0.405700
-1.385300 0.411700
-1.367300 0.417700
-1.349200 0.424000
-1.331200 0.430300
-1.313200 0.437100
-1.295200 0.444300
-1.277100 0.451600
-1.259100 0.459100
-1.241100 0.466600
-1.223100 0.474300
-1.205000 0.482000
-1.187000 0.489800
-1.169000 0.498000
-1.151000 0.506300
-1.132900 0.514900
-1.114900 0.522700
-1.096900 0.530500
-1.078900 0.538800
-1.060800 0.547800
-1.042800 0.556900
-1.024800 0.566000
-1.006700 0.575200
-0.988700 0.584700
-0.970700 0.594300
-0.952700 0.604000
-0.934600 0.613900
-0.916600 0.624000
-0.898600 0.634200
-0.880600 0.644600
-0.862500 0.655200
-0.844500 0.666500
-0.826500 0.679100
-0.808500 0.692600
-0.790400 0.706900
-0.772400 0.721600
-0.754400 0.736700
-0.736400 0.752400
-0.718300 0.768600
-0.700300 0.785400
-0.682300 0.802700
-0.664300 0.820600
-0.646200 0.838900
-0.628200 0.858100
-0.610200 0.878000
-0.592200 0.899800
-0.574100 0.924200
-0.556100 0.949600
-0.538100 0.977400
-0.520000 1.009900
-0.502000 1.047500
-0.484000 1.092800
-0.466000 1.162000
-0.447900 1.188300
-0.429900 1.204800
-0.411900 1.227800
-0.393900 1.276800
-0.375800 1.313400
-0.357800 1.345200
-0.339800 1.376100
-0.321800 1.415300
-0.303700 1.460200
-0.285700 1.513900
-0.267700 1.576300
-0.249700 1.654400
-0.231600 1.744100
-0.213600 1.838100
-0.195600 1.961800
-0.177600 2.105700
-0.159500 2.280500
-0.141500 2.543000
-0.123500 2.842600
-0.105400 3.175500
-0.087400 3.565100
-0.069400 3.964500
-0.051400 4.097300
-0.033300 4.681800
-0.015300 5.489700
0.002700 3.579200
0.020700 2.427700
0.038800 1.618600
0.056800 0.000000
0.074800 0.000000
0.092800 0.000000
0.110900 0.000000
0.128900 0.000000
0.146900 0.000000
0.164900 0.000000
0.183000 0.000000
0.201000 0.000000
0.219000 0.000000
0.237000 0.000000
0.255100 0.000000
0.273100 0.000000
0.291100 0.000000
0.309200 0.000000
0.327200 0.000000
0.345200 0.000000
0.363200 0.000000
0.381300 0.000000
0.399300 0.000000
0.417300 0.000000
0.435300 0.000000
0.453400 0.000000
0.471400 0.000000
0.489400 0.000000
0.507400 0.000000
0.525500 0.000000
0.543500 0.000000
0.561500 0.000000
0.579500 0.000000
0.597600 0.000000
0.615600 0.000000
0.633600 0.000000
0.651600 0.000000
0.669700 0.000000
0.687700 0.000000
0.705700 0.000000
0.723800 0.000000
0.741800 0.000000
0.759800 0.000000
0.777800 0.000000
0.795900 0.000000
0.813900 0.000000
0.831900 0.000000
0.849900 0.000000
0.868000 0.000000
0.886000 0.000000
0.904000 0.000000
0.922000 0.000000
0.940100 0.000000
0.958100 0.000000
0.976100 0.000000
0.994100 0.000000
1.012200 0.000000
1.030200 0.000000
1.048200 0.000000
1.066200 0.000000
1.084300 0.000000
1.102300 0.000000
1.120300 0.000000
1.138400 0.000000
1.156400 0.197900
1.174400 0.265500
1.192400 0.335200
1.210500 0.330300
1.228500 0.354200
1.246500 0.371200
1.264500 0.406400
1.282600 0.445000
1.300600 0.620400
1.318600 0.700600
1.336600 0.780800
1.354700 1.052400
1.372700 1.292800
1.390700 1.506800
1.408700 1.711300
1.426800 1.958900
1.444800 2.228500
1.462800 2.525100
1.480800 2.924100
1.498900 3.421200
1.516900 3.555000
1.534900 3.650200
1.553000 3.752300
1.571000 3.583000
1.589000 3.600800
1.607000 3.770900
1.625100 3.784400
1.643100 3.735700
1.661100 3.638600
1.679100 3.593200
1.697200 3.592500
1.715200 3.577600
1.733200 3.622100
1.751200 3.612700
1.769300 3.641200
1.787300 3.884100
1.805300 3.087400
1.823300 2.799800
1.841400 2.623700
1.859400 2.443400
1.877400 2.252000
1.895400 2.085400
1.913500 1.993800
1.931500 1.944000
1.949500 1.828600
1.967600 1.828500
1.985600 1.927300
2.003600 1.940500
2.021600 2.033000
2.039700 2.020700
2.057700 1.953700
2.075700 1.859400
2.093700 1.940100
2.111800 2.013900
2.129800 2.192900
2.147800 2.621700
2.165800 3.106700
2.183900 3.712300
2.201900 4.300300
2.219900 5.287500
2.237900 6.649400
2.256000 6.657400
2.274000 6.232900
2.292000 5.845400
2.310000 5.591200
2.328100 5.714400
2.346100 5.457400
2.364100 6.177100
2.382200 7.005500
2.400200 6.625600
2.418200 6.823200
2.436200 7.411100
2.454300 7.894000
2.472300 8.783800
2.490300 10.232400
2.508300 12.302000
2.526400 10.403800
2.544400 10.777000
2.562400 10.133400
2.580400 10.097300
2.598500 9.231600
2.616500 8.588100
2.634500 8.658500
2.652500 9.621700
2.670600 11.563900
2.688600 10.170000
2.706600 10.329600
2.724600 11.251500
2.742700 10.425200
2.760700 10.009400
2.778700 9.823000
2.796800 9.859200
2.814800 10.020700
2.832800 9.682300
2.850800 10.169400
2.868900 8.633300
2.886900 7.890900
2.904900 7.446500
2.922900 7.419400
2.941000 7.033400
2.959000 6.728000
2.977000 6.379400
2.995000 5.979900
3.013100 5.896000
3.031100 5.981100
3.049100 6.722700
3.067100 6.945200
3.085200 7.587400
3.103200 7.909400
3.121200 7.816300
3.139200 7.149400
3.157300 6.243600
3.175300 5.025800
3.193300 4.566500
3.211400 5.113700
3.229400 5.860400
3.247400 5.750200
3.265400 6.190400
3.283500 6.508600
3.301500 6.476600
3.319500 6.447100
3.337500 6.450800
3.355600 6.605100
3.373600 6.368600
3.391600 6.482500
3.409600 6.550200
3.427700 6.534100
3.445700 7.649800
3.463700 7.598000
3.481700 7.327300
3.499800 8.308900
3.517800 9.995500
3.535800 11.412800
3.553800 11.637600
3.571900 11.160900
3.589900 10.468100
3.607900 8.863400
3.625900 8.245700
3.644000 8.338300
3.662000 8.194200
3.680000 8.173500
3.698100 6.388200
3.716100 5.903400
3.734100 6.024800
3.752100 6.146900
3.770200 6.717700
3.788200 7.087200
3.806200 6.598000
3.824200 6.027800
3.842300 5.774200
3.860300 5.535600
3.878300 6.009300
3.896300 6.605900
3.914400 6.202000
3.932400 6.710600
3.950400 7.197800
3.968400 7.400100
3.986500 7.227600
4.004500 7.639600
4.022500 7.050800
4.040500 6.479100
4.058600 6.467100
4.076600 5.707900
4.094600 6.289000
4.112700 6.834700
4.130700 6.699100
4.148700 6.826400
4.166700 6.770100
4.184800 7.051600
4.202800 7.209300
4.220800 7.249100
4.238800 7.283700
4.256900 7.336100
4.274900 7.134600
4.292900 6.687400
4.310900 6.450100
4.329000 6.186900
4.347000 6.496300
4.365000 6.179100
4.383000 6.411800
4.401100 6.982300
4.419100 6.548900
4.437100 8.022600
4.455100 8.750800
4.473200 8.698200
4.491200 9.551300
4.509200 11.781900
4.527300 11.243900
4.545300 10.524400
4.563300 9.925100
4.581300 7.933500
4.599400 6.890900
4.617400 6.714600
4.635400 6.976300
4.653400 6.858400
4.671500 6.585900
4.689500 6.310400
4.707500 6.045800
4.725500 5.936500
4.743600 5.896000
4.761600 6.098500
4.779600 6.651900
4.797600 6.500700
4.815700 7.231800
4.833700 7.772100
4.851700 8.057100
4.869700 9.731900
4.887800 12.484700
4.905800 15.049200
4.923800 14.817900
4.941900 13.562000
4.959900 11.614400
4.977900 9.864900
4.995900 9.022100
5.014000 8.650900
5.032000 8.497700
5.050000 8.673400
5.068000 8.070100
5.086100 8.682600
5.104100 12.264000
5.122100 11.925900
5.140100 11.722900
5.158200 10.295600
5.176200 9.433200
5.194200 8.937600
5.212200 8.345300
5.230300 8.157200
5.248300 8.137100
5.266300 8.971600
5.284300 6.217300
5.302400 3.723400
5.320400 3.556300
5.338400 3.364600
5.356500 3.334300
5.374500 3.179800
5.392500 3.150300
5.410500 3.129300
5.428600 3.121100
5.446600 3.149600
5.464600 3.186900
5.482600 3.288500
5.500700 3.487500
5.518700 3.650600
5.536700 3.858300
5.554700 4.672500
5.572800 4.185400
5.590800 2.837900
5.608800 2.265600
5.626800 2.385900
5.644900 3.484000
5.662900 7.611800
5.680900 9.120500
5.698900 7.021700
5.717000 7.174800
5.735000 6.866100
5.753000 8.206300
5.771100 11.091400
5.789100 10.401800
5.807100 10.743600
5.825100 10.692800
5.843200 9.496000
5.861200 7.040600
5.879200 5.195000
5.897200 4.379900
5.915300 4.136500
5.933300 4.881200
5.951300 3.861800
5.969300 3.238800
5.987400 2.650400
6.005400 2.198200
6.023400 2.208100
6.041400 2.270400
6.059500 2.405900
6.077500 2.522100
6.095500 2.493100
6.113500 2.298000
6.131600 2.132500
6.149600 2.025000
6.167600 1.934900
6.185700 1.860500
6.203700 1.789700
6.221700 1.732800
6.239700 1.680900
6.257800 1.634900
6.275800 1.595000
6.293800 1.560600
6.311800 1.529400
6.329900 1.501600
6.347900 1.476400
6.365900 1.452700
6.383900 1.430000
6.402000 1.408900
6.420000 1.388600
6.438000 1.370300
6.456000 1.354000
6.474100 1.337900
6.492100 1.322300
6.510100 1.307300
6.528100 1.293000
6.546200 1.278900
6.564200 1.265300
6.582200 1.253100
6.600300 1.243900
6.618300 1.236400
6.636300 1.229000
6.654300 1.221600
6.672400 1.214200
6.690400 1.208300
6.708400 1.202900
6.726400 1.198000
6.744500 1.193700
6.762500 1.194900
6.780500 1.192900
6.798500 1.191300
6.816600 1.189700
6.834600 1.188100
6.852600 1.187100
6.870600 1.183000
6.888700 1.169800
6.906700 1.163800
6.924700 1.160100
6.942700 1.157500
6.960800 1.164200
6.978800 1.171300
6.996800 1.173300
7.014900 1.180400
7.032900 1.189800
7.050900 1.193400
7.068900 1.197700
7.087000 1.211400
7.105000 1.222600
7.123000 1.236100
7.141000 1.293900
7.159100 1.384500
7.177100 1.453800
7.195100 1.518500
7.213100 1.555300
7.231200 1.535900
7.249200 1.502300
7.267200 1.535100
7.285200 1.575400
7.303300 1.566400
7.321300 1.584900
7.339300 1.526800
7.357300 1.528000
7.375400 1.517900
7.393400 1.504000
7.411400 1.500500
7.429500 1.498700
7.447500 1.497000
7.465500 1.488500
7.483500 1.473800
7.501600 1.461000
7.519600 1.451800
7.537600 1.443000
7.555600 1.434400
7.573700 1.426600
7.591700 1.421600
7.609700 1.417200
7.627700 1.412700
7.645800 1.406900
7.663800 1.399800
7.681800 1.391800
7.699800 1.383200
7.717900 1.375300
7.735900 1.368700
7.753900 1.362800
7.771900 1.356600
7.790000 1.350700
7.808000 1.345200
7.826000 1.339800
7.844000 1.334400
7.862100 1.327900
7.880100 1.321400
7.898100 1.315500
7.916200 1.310000
7.934200 1.304300
7.952200 1.298700
7.970200 1.293500
7.988300 1.289700
8.006300 1.286900
8.024300 1.283300
8.042300 1.278700
8.060400 1.274100
8.078400 1.270900
8.096400 1.268200
8.114400 1.265700
8.132500 1.263200
8.150500 1.259200
8.168500 1.252700
8.186500 1.247300
8.204600 1.242200
8.222600 1.237200
8.240600 1.232600
8.258600 1.228400
8.276700 1.224300
8.294700 1.220100
8.312700 1.215900
8.330800 1.211800
8.348800 1.207700
8.366800 1.203400
8.384800 1.198900
8.402900 1.194500
8.420900 1.190100
8.438900 1.185600
8.456900 1.181100
8.475000 1.176200
8.493000 1.171100
8.511000 1.166100
8.529000 1.161300
8.547100 1.157500
8.565100 1.154300
8.583100 1.151700
8.601100 1.148600
8.619200 1.145600
8.637200 1.143700
8.655200 1.142700
8.673200 1.143100
8.691300 1.146100
8.709300 1.155100
8.727300 1.160800
8.745400 1.159900
8.763400 1.153000
8.781400 1.149000
8.799400 1.150600
8.817500 1.152900
8.835500 1.153700
8.853500 1.153300
8.871500 1.153200
8.889600 1.153700
8.907600 1.154600
8.925600 1.155300
8.943600 1.155700
8.961700 1.156700
8.979700 1.167300
8.997700 1.167600
9.015700 1.167800
9.033800 1.172500
9.051800 1.169700
9.069800 1.160000
9.087800 1.148800
9.105900 1.137300
9.123900 1.121600
9.141900 1.107000
9.160000 1.091300
9.178000 1.072400
9.196000 1.049900
9.214000 1.026700
9.232100 1.001500
9.250100 0.977800
9.268100 0.965000
9.286100 0.945200
9.304200 0.924800
9.322200 0.903800
9.340200 0.883000
9.358200 0.863100
9.376300 0.844000
9.394300 0.829700
9.412300 0.818700
9.430300 0.812400
9.448400 0.808900
9.466400 0.803300
9.484400 0.795300
9.502400 0.789900
9.520500 0.788100
9.538500 0.782700
9.556500 0.771500
9.574600 0.760200
9.592600 0.750300
9.610600 0.739100
9.628600 0.731600
9.646700 0.726800
9.664700 0.724500
9.682700 0.723000
9.700700 0.723200
9.718800 0.727800
9.736800 0.739100
9.754800 0.746300
9.772800 0.750100
9.790900 0.751800
9.808900 0.750900
9.826900 0.748100
9.844900 0.744400
9.863000 0.740200
9.881000 0.736100
9.899000 0.732200
9.917000 0.727100
9.935100 0.722000
9.953100 0.716100
9.971100 0.715000
9.989200 0.710600
10.007200 0.722800
10.025200 0.727400
10.043200 0.722100
10.061300 0.744100
10.079300 0.803400
10.097300 0.839700
10.115300 0.894400
10.133400 0.927300
10.151400 0.957400
10.169400 0.996800
10.187400 1.066500
10.205500 1.118400
10.223500 1.137200
10.241500 1.176100
10.259500 1.210100
10.277600 1.231800
10.295600 1.243900
10.313600 1.258100
10.331600 1.268700
10.349700 1.286900
10.367700 1.326000
10.385700 1.397900
10.403800 1.469700
10.421800 1.539400
10.439800 1.623700
10.457800 1.784000
10.475900 1.900500
10.493900 1.847000
10.511900 1.806600
10.529900 1.761500
10.548000 1.707500
10.566000 1.652200
10.584000 1.611100
10.602000 1.573500
10.620100 1.534300
10.638100 1.485200
10.656100 1.429800
10.674100 1.377300
10.692200 1.336500
10.710200 1.306300
10.728200 1.257200
10.746200 1.223000
10.764300 1.199600
10.782300 1.179800
10.800300 1.170900
10.818400 1.129700
10.836400 1.113000
10.854400 1.095500
10.872400 1.079100
10.890500 1.066200
10.908500 1.047300
10.926500 1.029900
10.944500 1.012900
10.962600 0.995200
10.980600 0.977400
10.998600 0.960700
11.016600 0.942300
11.034700 0.932600
11.052700 0.926400
11.070700 0.919200
11.088700 0.911000
11.106800 0.900200
11.124800 0.886900
11.142800 0.877100
11.160800 0.875200
11.178900 0.892100
11.196900 0.920400
11.214900 0.945300
11.233000 0.964400
11.251000 0.988500
11.269000 0.980600
11.287000 0.973700
11.305100 0.969100
11.323100 0.964200
11.341100 0.957800
11.359100 0.964100
11.377200 0.956700
11.395200 0.956000
11.413200 0.955400
11.431200 0.954800
11.449300 0.955300
11.467300 0.953500
11.485300 0.952900
11.503300 0.977100
11.521400 0.993000
11.539400 1.019500
11.557400 1.036400
11.575400 1.126000
11.593500 1.190200
11.611500 1.282100
11.629500 1.314400
11.647600 1.354500
11.665600 1.369100
11.683600 1.382600
11.701600 1.397100
11.719700 1.410500
11.737700 1.414500
11.755700 1.410800
11.773700 1.398600
11.791800 1.382900
11.809800 1.385400
11.827800 1.372100
11.845800 1.364000
11.863900 1.399300
11.881900 1.413200
11.899900 1.422400
11.917900 1.412000
11.936000 1.393500
11.954000 1.382400
11.972000 1.388700
11.990000 1.417300
12.008100 1.472600
12.026100 1.450100
12.044100 1.303000
12.062100 1.201500
12.080200 1.192900
12.098200 1.187700
12.116200 1.184700
12.134300 1.182400
12.152300 1.191200
12.170300 1.209500
12.188300 1.228400
12.206400 1.252100
12.224400 1.278600
12.242400 1.232100
12.260400 1.229500
12.278500 1.231400
12.296500 1.237200
12.314500 1.246000
12.332500 1.256000
12.350600 1.316200
12.368600 1.301100
12.386600 1.313900
12.404600 1.325000
12.422700 1.334100
12.440700 1.340600
12.458700 1.348300
12.476700 1.355300
12.494800 1.362500
12.512800 1.372100
12.530800 1.382800
12.548900 1.398400
12.566900 1.425800
12.584900 1.450800
12.602900 1.491300
12.621000 1.541500
12.639000 1.636700
12.657000 1.634000
12.675000 1.738900
12.693100 1.378900
12.711100 1.390300
12.729100 1.402900
12.747100 1.419000
12.765200 1.443200
12.783200 1.487300
12.801200 1.548900
12.819200 1.603500
12.837300 1.622800
12.855300 1.675500
12.873300 1.729300
12.891300 1.767500
12.909400 1.797500
12.927400 1.846600
12.945400 1.877700
12.963500 1.925500
12.981500 2.213500
12.999500 2.210200
13.017500 2.055400
13.035600 1.655600
13.053600 1.489900
13.071600 1.387000
13.089600 1.305600
13.107700 1.270000
13.125700 1.249500
13.143700 1.233200
13.161700 1.221100
13.179800 1.217000
13.197800 1.224600
13.215800 1.233600
13.233800 1.226900
13.251900 1.211600
13.269900 1.210000
13.287900 1.212800
13.305900 1.217300
13.324000 1.221600
13.342000 1.224500
13.360000 1.290900
13.378100 1.286700
13.396100 1.286800
13.414100 1.294100
13.432100 1.301300
13.450200 1.313300
13.468200 1.329000
13.486200 1.346800
13.504200 1.368700
13.522300 1.394900
13.540300 1.418300
13.558300 1.429300
13.576300 1.442800
13.594400 1.453100
13.612400 1.461600
13.630400 1.462200
13.648400 1.455500
13.666500 1.455100
13.684500 1.456900
13.702500 1.458300
13.720500 1.461400
13.738600 1.468400
13.756600 1.471700
13.774600 1.469000
13.792700 1.464700
13.810700 1.464200
13.828700 1.470600
13.846700 1.490600
13.864800 1.495000
13.882800 1.479800
13.900800 1.476200
13.918800 1.438700
13.936900 1.415700
13.954900 1.399300
13.972900 1.395200
13.990900 1.410900
14.009000 1.432400
14.027000 1.440200
14.045000 1.443900
14.063000 1.450800
14.081100 1.467400
14.099100 1.479800
14.117100 1.467200
14.135100 1.456600
14.153200 1.441000
14.171200 1.423100
14.189200 1.409100
14.207300 1.394400
14.225300 1.374700
14.243300 1.360200
14.261300 1.356300
14.279400 1.357900
14.297400 1.362200
14.315400 1.369400
14.333400 1.383200
14.351500 1.411900
14.369500 1.399600
14.387500 1.416100
14.405500 1.430600
14.423600 1.463700
14.441600 1.493200
14.459600 1.508900
14.477600 1.522100
14.495700 1.532400
14.513700 1.536000
14.531700 1.538100
14.549700 1.537400
14.567800 1.528200
14.585800 1.517800
14.603800 1.511800
14.621900 1.509200
14.639900 1.513500
14.657900 1.537900
14.675900 1.539500
14.694000 1.535900
14.712000 1.520300
14.730000 1.490900
14.748000 1.468900
14.766100 1.469200
14.784100 1.467500
14.802100 1.479500
14.820100 1.505800
14.838200 1.515800
14.856200 1.511800
14.874200 1.564600
14.892200 1.651300
14.910300 1.742000
14.928300 1.756800
14.946300 1.696600
14.964300 1.657400
14.982400 1.641700
15.000400 1.646400
15.018400 1.661300
15.036500 1.675600
15.054500 1.734600
15.072500 1.759800
15.090500 1.772800
15.108600 1.802700
15.126600 1.901300
15.144600 1.847800
15.162600 1.802600
15.180700 1.690000
15.198700 1.699600
15.216700 1.715900
15.234700 1.711000
15.252800 1.704000
15.270800 1.692200
15.288800 1.671700
15.306800 1.669700
15.324900 1.612300
15.342900 1.614200
15.360900 1.625500
15.378900 1.667600
15.397000 1.706200
15.415000 1.693000
15.433000 1.689700
15.451100 1.689400
15.469100 1.690400
15.487100 1.690300
15.505100 1.686800
15.523200 1.683100
15.541200 1.685700
15.559200 1.681300
15.577200 1.662900
15.595300 1.684700
15.613300 1.709500
15.631300 1.740300
15.649300 1.764700
15.667400 1.789600
15.685400 1.816600
15.703400 1.855100
15.721400 1.889200
15.739500 1.920700
15.757500 1.946600
15.775500 1.974200
15.793500 2.010000
15.811600 2.044000
15.829600 2.064900
15.847600 2.078200
15.865700 2.065100
15.883700 2.065100
15.901700 2.081400
15.919700 2.104800
15.937800 2.100300
15.955800 2.104600
15.973800 2.116300
15.991800 2.096300
16.009900 2.081200
16.027900 2.067200
16.045900 2.049700
16.063900 2.031400
16.082000 2.014000
16.100000 2.009400
16.118000 1.987000
16.136000 1.971700
16.154100 1.956000
16.172100 1.939800
16.190100 1.927600
16.208100 1.926900
16.226200 1.916000
16.244200 1.918800
16.262200 1.927800
16.280200 1.950100
16.298300 1.995500
16.316300 1.995300
16.334300 2.020300
16.352400 2.004300
16.370400 2.011000
16.388400 2.020300
16.406400 2.039000
16.424500 2.090700
16.442500 2.125900
16.460500 2.113300
16.478500 2.098800
16.496600 2.064400
16.514600 2.036600
16.532600 2.017000
16.550600 1.988900
16.568700 1.985400
16.586700 1.987100
16.604700 1.973200
16.622700 1.963200
16.640800 1.961200
16.658800 1.946900
16.676800 1.932300
16.694800 1.920500
16.712900 1.909000
16.730900 1.897900
16.748900 1.895600
16.767000 1.903400
16.785000 1.911400
16.803000 1.911800
16.821000 1.912700
16.839100 1.921600
16.857100 1.923700
16.875100 1.916300
16.893100 1.910400
16.911200 1.914100
16.929200 1.920200
16.947200 1.939200
16.965200 1.953300
16.983300 1.975200
17.001300 2.002700
17.019300 2.038200
17.037300 2.071300
17.055400 2.094100
17.073400 2.131500
17.091400 2.168500
17.109400 2.195500
17.127500 2.182000
17.145500 2.127000
17.163500 2.122500
17.181600 2.099100
17.199600 2.045000
17.217600 2.001000
17.235600 1.952100
17.253700 1.905400
17.271700 1.878300
17.289700 1.838400
17.307700 1.836800
17.325800 1.832800
17.343800 1.827700
17.361800 1.820400
17.379800 1.817300
17.397900 1.800900
17.415900 1.777800
17.433900 1.755300
17.451900 1.745400
17.470000 1.744600
17.488000 1.748900
17.506000 1.756700
17.524000 1.781000
17.542100 1.816300
17.560100 1.856800
17.578100 1.898600
17.596200 1.939000
17.614200 1.978200
17.632200 2.015800
17.650200 2.055800
17.668300 2.097300
17.686300 2.126400
17.704300 2.142300
17.722300 2.150000
17.740400 2.154100
17.758400 2.154300
17.776400 2.139300
17.794400 2.178000
17.812500 2.104900
17.830500 2.061900
17.848500 2.015900
17.866500 1.976500
17.884600 1.955700
17.902600 1.937900
17.920600 1.926800
17.938600 1.913500
17.956700 1.905900
17.974700 1.899900
17.992700 1.919600
18.010800 1.938800
18.028800 1.941300
18.046800 1.955000
18.064800 1.981800
18.082900 2.002700
18.100900 2.020300
18.118900 2.032500
18.136900 2.053900
18.155000 2.065400
18.173000 2.056200
18.191000 2.056300
18.209000 2.050100
18.227100 2.031100
18.245100 2.033800
18.263100 2.049500
18.281100 2.050700
18.299200 2.042400
18.317200 2.038200
18.335200 2.035400
18.353200 2.036200
18.371300 2.039600
18.389300 2.045000
18.407300 2.065600
18.425400 2.108400
18.443400 2.146500
18.461400 2.183200
18.479400 2.235300
18.497500 2.260900
18.515500 2.245400
18.533500 2.173500
18.551500 2.105600
18.569600 2.058300
18.587600 2.002700
18.605600 1.972100
18.623600 1.945000
18.641700 1.947400
18.659700 1.961800
18.677700 1.973100
18.695700 1.982300
18.713800 1.988600
18.731800 1.988800
18.749800 1.988300
18.767800 2.011900
18.785900 2.045500
18.803900 2.098100
18.821900 2.115800
18.840000 2.125300
18.858000 2.105900
18.876000 2.100200
18.894000 2.124100
18.912100 2.099500
18.930100 2.069100
18.948100 2.061400
18.966100 2.043300
18.984200 2.029100
19.002200 2.026900
19.020200 2.018300
19.038200 2.008400
19.056300 2.016300
19.074300 2.024100
19.092300 2.033100
19.110300 2.049400
19.128400 2.051300
19.146400 2.046000
19.164400 2.037600
19.182400 2.007900
19.200500 1.994400
19.218500 1.971500
19.236500 1.960300
19.254600 1.960200
19.272600 1.961100
19.290600 1.929500
19.308600 1.901400
19.326700 1.875700
19.344700 1.848500
19.362700 1.843200
19.380700 1.844300
19.398800 1.844500
19.416800 1.848300
19.434800 1.850000
19.452800 1.863000
19.470900 1.873300
19.488900 1.875500
19.506900 1.879000
19.524900 1.908500
19.543000 1.915100
19.561000 1.925500
19.579000 1.922900
19.597000 1.924900
19.615100 1.925000
19.633100 1.921000
19.651100 1.922200
19.669200 1.923100
19.687200 1.925600
19.705200 1.938100
19.723200 1.957800
19.741300 1.992800
19.759300 2.011300
19.777300 2.025500
19.795300 2.045200
19.813400 2.068500
19.831400 2.080200
19.849400 2.092500
19.867400 2.111700
19.885500 2.130100
19.903500 2.143400
19.921500 2.143600
19.939500 2.133800
19.957600 2.134000
19.975600 2.136300
19.993600 2.136800
20.011600 2.132000
20.029700 2.115800
20.047700 2.086800
20.065700 2.049000
20.083800 1.997900
20.101800 1.944100
20.119800 1.921700
20.137800 1.899900
20.155900 1.877200
20.173900 1.855400
20.191900 1.841300
20.209900 1.828000
20.228000 1.814700
20.246000 1.805200
20.264000 1.801900
20.282000 1.801300
20.300100 1.796400
20.318100 1.786600
20.336100 1.776500
20.354100 1.768400
20.372200 1.779600
20.390200 1.787400
20.408200 1.789100
20.426200 1.792900
20.444300 1.796700
20.462300 1.817600
20.480300 1.834600
20.498300 1.838400
20.516400 1.848300
20.534400 1.868500
20.552400 1.884300
20.570500 1.887300
20.588500 1.897900
20.606500 1.909600
20.624500 1.923400
20.642600 1.938100
20.660600 1.956700
20.678600 1.991300
20.696600 2.015400
20.714700 2.020200
20.732700 2.019600
20.750700 2.020200
20.768700 2.024000
20.786800 2.021900
20.804800 2.018100
20.822800 2.016200
20.840800 2.016200
20.858900 2.016500
20.876900 2.029600
20.894900 2.051300
20.912900 2.076600
20.931000 2.094300
20.949000 2.100000
20.967000 2.108400
20.985100 2.098000
21.003100 2.099800
21.021100 2.116400
21.039100 2.090700
21.057200 2.049800
21.075200 2.026400
21.093200 2.010400
21.111200 1.992900
21.129300 1.977700
21.147300 1.954600
21.165300 1.936700
21.183300 1.936300
21.201400 1.922400
21.219400 1.923600
21.237400 1.931700
21.255400 1.949900
21.273500 1.943800
21.291500 1.948000
21.309500 1.948900
21.327500 1.928800
21.345600 1.925400
21.363600 1.925100
21.381600 1.924700
21.399700 1.929800
21.417700 1.936100
21.435700 1.945000
21.453700 1.959900
21.471800 1.957400
21.489800 1.961100
21.507800 1.959600
21.525800 1.957900
21.543900 1.953000
21.561900 1.950900
21.579900 1.952000
21.597900 1.953600
21.616000 1.953400
21.634000 1.976300
21.652000 2.038500
21.670000 2.116000
21.688100 2.171700
21.706100 2.175100
21.724100 2.195700
21.742100 2.207900
21.760200 2.176400
21.778200 2.145800
21.796200 2.113200
21.814300 2.083700
21.832300 2.068800
21.850300 2.104100
21.868300 2.246000
21.886400 2.164100
21.904400 2.134000
21.922400 2.014400
21.940400 1.908200
21.958500 1.795000
21.976500 1.678500
21.994500 1.626500
22.012500 1.618700
22.030600 1.624200
22.048600 1.639300
22.066600 1.659000
22.084600 1.699900
22.102700 1.753600
22.120700 1.819000
22.138700 1.908800
22.156700 2.019200
22.174800 2.130600
22.192800 2.265200
22.210800 2.376700
22.228900 2.375900
22.246900 2.403700
22.264900 2.477200
22.282900 2.441400
22.301000 2.470600
22.319000 2.507600
22.337000 2.488500
22.355000 2.478800
22.373100 2.475100
22.391100 2.489900
22.409100 2.537500
22.427100 2.545300
22.445200 2.526600
22.463200 2.458000
22.481200 2.397900
22.499200 2.333600
22.517300 2.313600
22.535300 2.242400
22.553300 2.207600
22.571300 2.177400
22.589400 2.150300
22.607400 2.116700
22.625400 2.088200
22.643500 2.074200
22.661500 2.059900
22.679500 2.037000
22.697500 2.036100
22.715600 1.993000
22.733600 2.000400
22.751600 1.993400
22.769600 1.959200
22.787700 1.953200
22.805700 1.955100
22.823700 1.975900
22.841700 1.951000
22.859800 1.905700
22.877800 1.950300
22.895800 1.876100
22.913800 1.814200
22.931900 1.762300
22.949900 1.747200
22.967900 1.773300
22.985900 1.750800
23.004000 1.723000
23.022000 1.724700
23.040000 1.752400
23.058100 1.798800
23.076100 1.856100
23.094100 1.929700
23.112100 2.020800
23.130200 2.091800
23.148200 2.130600
23.166200 2.031100
23.184200 2.055100
23.202300 2.105800
23.220300 2.148000
23.238300 2.206500
23.256300 2.306600
23.274400 2.360000
23.292400 2.417300
23.310400 2.457800
23.328400 2.476900
23.346500 2.482000
23.364500 2.465500
23.382500 2.448900
23.400500 2.446400
23.418600 2.472000
23.436600 2.518200
23.454600 2.476100
23.472700 2.413000
23.490700 2.333400
23.508700 2.286000
23.526700 2.279200
23.544800 2.145700
23.562800 2.005100
23.580800 1.912900
23.598800 1.827300
23.616900 1.780600
23.634900 1.727800
23.652900 1.684700
23.670900 1.611700
23.689000 1.555600
23.707000 1.508600
23.725000 1.459100
23.743000 1.393100
23.761100 1.320700
23.779100 1.260900
23.797100 1.222300
23.815100 1.181800
23.833200 1.144200
23.851200 1.107700
23.869200 1.075500
23.887300 1.051800
23.905300 1.036700
23.923300 1.028600
23.941300 1.023500
23.959400 1.041400
23.977400 1.025100
23.995400 1.002500
24.013400 0.987800
24.031500 0.977300
24.049500 0.955700
24.067500 0.938200
24.085500 0.927200
24.103600 0.914300
24.121600 0.825200
24.139600 0.763000
24.157600 0.730500
24.175700 0.712200
24.193700 0.589000
24.211700 0.502400
24.229700 0.451800
24.247800 0.411300
24.265800 0.373600
24.283800 0.339900
24.301900 0.311400
24.319900 0.285800
24.337900 0.274100
24.355900 0.241600
24.374000 0.221800
24.392000 0.203400
24.410000 0.186000
24.428000 0.169700
24.446100 0.154100
24.464100 0.155900
24.482100 0.151500
24.500100 0.094200
24.518200 0.082900
24.536200 0.074400
24.554200 0.066200
24.572200 0.058300
24.590300 0.050700
24.608300 0.043300
24.626300 0.036300
24.644300 0.029600
24.662400 0.023400
24.680400 0.017700
24.698400 0.012900
24.716400 0.009000
24.734500 0.006000
24.752500 0.003800
24.770500 0.002200
24.788600 0.001200
24.806600 0.000500
24.824600 0.000100
24.842600 0.000000
24.860700 0.000000
24.878700 0.000000
24.896700 0.000000
24.914700 0.000000
24.932800 0.000000
24.950800 0.000000
24.968800 0.000000
24.986800 0.000000
25.004900 0.000000
25.022900 0.000000
25.040900 0.000000
25.058900 0.000000
25.077000 0.000000
25.095000 0.000000
25.113000 0.000000
25.131000 0.000000
25.149100 0.000000
25.167100 0.000000
25.185100 0.000000
25.203200 0.000000
25.221200 0.000000
25.239200 0.000000
25.257200 0.000000
25.275300 0.000000
25.293300 0.000000
25.311300 0.000000
25.329300 0.000000
25.347400 0.000000
25.365400 0.000000
25.383400 0.000000
25.401400 0.000000
25.419500 0.000000
25.437500 0.000000
25.455500 0.000000
25.473500 0.000000
25.491600 0.000000
25.509600 0.000000
25.527600 0.000000
25.545600 0.000000
25.563700 0.000000
25.581700 0.000000
25.599700 0.000000
25.617800 0.000000
25.635800 0.000000
25.653800 0.000000
25.671800 0.000000
25.689900 0.000000
25.707900 0.000000
25.725900 0.000000
25.743900 0.000000
25.762000 0.000000
25.780000 0.000000
25.798000 0.000000
25.816000 0.000000
25.834100 0.000000
25.852100 0.000000
25.870100 0.000000
25.888100 0.000000
25.906200 0.000000
25.924200 0.000000
25.942200 0.000000
25.960200 0.000000
25.978300 0.000000
25.996300 0.000000
26.014300 0.000000
26.032400 0.000000
26.050400 0.000000
26.068400 0.000000
26.086400 0.000000
26.104500 0.000000
26.122500 0.000000
26.140500 0.000000
26.158500 0.000000
26.176600 0.000000
26.194600 0.000000
26.212600 0.000000
26.230600 0.000000
26.248700 0.000000
26.266700 0.000000
26.284700 0.000000
26.302700 0.000000
26.320800 0.000000
26.338800 0.000000
26.356800 0.000000
26.374800 0.000000
26.392900 0.000000
26.410900 0.000000
26.428900 0.000000
26.447000 0.000000
26.465000 0.000000
26.483000 0.000000
e
