set title 'mp-998866 - Density of States'
set xlabel 'Energy (eV)'
set ylabel 'DOS (states/eV)'
set grid
set xrange [-10:10]
set yrange [0:0.373]
set xzeroaxis lt -1
set terminal png size 800,600
set output 'mp-998866_dos_gnuplot.png'
plot '-' using 1:2 with lines title 'DOS'
-23.680900 0.000000
-23.543500 0.000000
-23.406200 0.000000
-23.268800 0.000000
-23.131500 0.000000
-22.994100 0.000000
-22.856800 0.000000
-22.719400 0.000000
-22.582000 0.000000
-22.444700 0.000000
-22.307300 0.000000
-22.170000 0.000000
-22.032600 0.000000
-21.895300 0.000000
-21.757900 0.000000
-21.620500 0.000000
-21.483200 0.000000
-21.345800 0.000000
-21.208500 0.000000
-21.071100 0.000000
-20.933800 0.000000
-20.796400 0.000000
-20.659000 0.000000
-20.521700 0.000000
-20.384300 0.000000
-20.247000 0.000000
-20.109600 0.000000
-19.972300 0.000000
-19.834900 0.000000
-19.697500 0.000000
-19.560200 0.000000
-19.422800 0.000000
-19.285500 0.000000
-19.148100 0.000000
-19.010800 0.000000
-18.873400 0.000000
-18.736000 0.000000
-18.598700 0.000000
-18.461300 0.000000
-18.324000 0.000000
-18.186600 0.000000
-18.049300 0.000000
-17.911900 0.000000
-17.774500 0.000000
-17.637200 0.000000
-17.499800 0.000000
-17.362500 0.000000
-17.225100 0.000000
-17.087800 0.000000
-16.950400 0.000000
-16.813000 0.000000
-16.675700 0.000000
-16.538300 0.000000
-16.401000 0.000000
-16.263600 0.000000
-16.126300 0.000000
-15.988900 0.000000
-15.851500 0.000000
-15.714200 0.000000
-15.576800 0.000000
-15.439500 0.000000
-15.302100 0.000000
-15.164800 0.000000
-15.027400 0.000000
-14.890000 0.000000
-14.752700 0.000000
-14.615300 0.000000
-14.478000 0.000000
-14.340600 0.000000
-14.203200 0.000000
-14.065900 0.000000
-13.928500 0.000000
-13.791200 0.000000
-13.653800 0.000000
-13.516500 0.000000
-13.379100 0.000000
-13.241700 0.000000
-13.104400 0.000000
-12.967000 0.000000
-12.829700 0.000000
-12.692300 0.000000
-12.555000 0.000000
-12.417600 0.000000
-12.280200 0.000000
-12.142900 0.000000
-12.005500 0.000000
-11.868200 0.000000
-11.730800 0.000000
-11.593500 0.000000
-11.456100 0.000000
-11.318700 0.000000
-11.181400 0.006900
-11.044000 0.020600
-10.906700 0.029200
-10.769300 0.033400
-10.632000 0.039500
-10.494600 0.043200
-10.357200 0.047300
-10.219900 0.051700
-10.082500 0.054700
-9.945200 0.057700
-9.807800 0.061200
-9.670500 0.064500
-9.533100 0.066800
-9.395700 0.069500
-9.258400 0.072400
-9.121000 0.075300
-8.983700 0.077500
-8.846300 0.079700
-8.709000 0.082000
-8.571600 0.084500
-8.434200 0.087100
-8.296900 0.089100
-8.159500 0.091000
-8.022200 0.093100
-7.884800 0.095200
-7.747500 0.097400
-7.610100 0.099600
-7.472700 0.101400
-7.335400 0.103200
-7.198000 0.105100
-7.060700 0.107000
-6.923300 0.109000
-6.786000 0.111100
-6.648600 0.112800
-6.511200 0.114500
-6.373900 0.116200
-6.236500 0.117900
-6.099200 0.119700
-5.961800 0.121600
-5.824500 0.123500
-5.687100 0.125200
-5.549700 0.126800
-5.412400 0.128400
-5.275000 0.130000
-5.137700 0.131700
-5.000300 0.133400
-4.863000 0.135200
-4.725600 0.137000
-4.588200 0.138600
-4.450900 0.140100
-4.313500 0.141700
-4.176200 0.143300
-4.038800 0.144900
-3.901500 0.146600
-3.764100 0.148300
-3.626700 0.150100
-3.489400 0.151800
-3.352000 0.153400
-3.214700 0.155000
-3.077300 0.156800
-2.940000 0.158500
-2.802600 0.160300
-2.665200 0.162100
-2.527900 0.163900
-2.390500 0.165800
-2.253200 0.181100
-2.115800 0.183300
-1.978500 0.181800
-1.841100 0.179700
-1.703700 0.177300
-1.566400 0.175000
-1.429000 0.173500
-1.291700 0.170500
-1.154300 0.168500
-1.017000 0.166800
-0.879600 0.164000
-0.742200 0.183100
-0.604900 0.183200
-0.467500 0.185000
-0.330200 0.186700
-0.192800 0.187900
-0.055500 0.189600
0.081900 0.192100
0.219300 0.192700
0.356600 0.194400
0.494000 0.196700
0.631300 0.198300
0.768700 0.199900
0.906000 0.201300
1.043400 0.203200
1.180800 0.204600
1.318100 0.206300
1.455500 0.208400
1.592800 0.210300
1.730200 0.212200
1.867500 0.214000
2.004900 0.216000
2.142300 0.218100
2.279600 0.220400
2.417000 0.222400
2.554300 0.224600
2.691700 0.226900
2.829000 0.229300
2.966400 0.231700
3.103800 0.234400
3.241100 0.237800
3.378500 0.241000
3.515800 0.244100
3.653200 0.247400
3.790500 0.251500
3.927900 0.256200
4.065300 0.261500
4.202600 0.266200
4.340000 0.272900
4.477300 0.281100
4.614700 0.292500
4.752000 0.316900
4.889400 0.331800
5.026800 0.338900
5.164100 0.318700
5.301500 0.314000
5.438800 0.308400
5.576200 0.309500
5.713500 0.301200
5.850900 0.295500
5.988300 0.290900
6.125600 0.285400
6.263000 0.285300
6.400300 0.278800
6.537700 0.273700
6.675000 0.268600
6.812400 0.263300
6.949800 0.258200
7.087100 0.254100
7.224500 0.252500
7.361800 0.246200
7.499200 0.240900
7.636500 0.235600
7.773900 0.230100
7.911300 0.225000
8.048600 0.219300
8.186000 0.214300
8.323300 0.225500
8.460700 0.226000
8.598000 0.225600
8.735400 0.225700
8.872800 0.227100
9.010100 0.227200
9.147500 0.223800
9.284800 0.222000
9.422200 0.225600
9.559500 0.217000
9.696900 0.209800
9.834300 0.226900
9.971600 0.234700
10.109000 0.248800
10.246300 0.245000
10.383700 0.250600
10.521000 0.252500
10.658400 0.262700
10.795800 0.254500
10.933100 0.256900
11.070500 0.264800
11.207800 0.265400
11.345200 0.267500
11.482500 0.253600
11.619900 0.255200
11.757300 0.259200
11.894600 0.267400
12.032000 0.278800
12.169300 0.250700
12.306700 0.246200
12.444000 0.246300
12.581400 0.248000
12.718800 0.250600
12.856100 0.256500
12.993500 0.238600
13.130800 0.237100
13.268200 0.237200
13.405500 0.234500
13.542900 0.233700
13.680300 0.244600
13.817600 0.224900
13.955000 0.219300
14.092300 0.217100
14.229700 0.216300
14.367000 0.215000
14.504400 0.215700
14.641800 0.221100
14.779100 0.209300
14.916500 0.202200
15.053800 0.200200
15.191200 0.197900
15.328500 0.196300
15.465900 0.193800
15.603300 0.193400
15.740600 0.190000
15.878000 0.182900
16.015300 0.181400
16.152700 0.181400
16.290000 0.181500
16.427400 0.178000
16.564800 0.175700
16.702100 0.174700
16.839500 0.168900
16.976800 0.164600
17.114200 0.162500
17.251600 0.160400
17.388900 0.159200
17.526300 0.156700
17.663600 0.155400
17.801000 0.161100
17.938300 0.153100
18.075700 0.148200
18.213100 0.145800
18.350400 0.143400
18.487800 0.141400
18.625100 0.139500
18.762500 0.139400
18.899800 0.135600
19.037200 0.133500
19.174600 0.142400
19.311900 0.146500
19.449300 0.190000
19.586600 0.270100
19.724000 0.307000
19.861300 0.345900
19.998700 0.420500
20.136100 0.495800
20.273400 0.500900
20.410800 0.503800
20.548100 0.506400
20.685500 0.505700
20.822800 0.508500
20.960200 0.512000
21.097600 0.509700
21.234900 0.514000
21.372300 0.517400
21.509600 0.516300
21.647000 0.523600
21.784300 0.529100
21.921700 0.542300
22.059100 0.551700
22.196400 0.530700
22.333800 0.532900
22.471100 0.524400
22.608500 0.515600
22.745800 0.532800
22.883200 0.538600
23.020600 0.538800
23.157900 0.530400
23.295300 0.557000
23.432600 0.489500
23.570000 0.428100
23.707300 0.397700
23.844700 0.380100
23.982100 0.357700
24.119400 0.331200
24.256800 0.310100
24.394100 0.299700
24.531500 0.289000
24.668800 0.259800
24.806200 0.218600
24.943600 0.193100
25.080900 0.215800
25.218300 0.261400
25.355600 0.261900
25.493000 0.237300
25.630300 0.215100
25.767700 0.195400
25.905100 0.171600
26.042400 0.123800
26.179800 0.126800
26.317100 0.139900
26.454500 0.143900
26.591800 0.146400
26.729200 0.152600
26.866600 0.144300
27.003900 0.142800
27.141300 0.134800
27.278600 0.128800
27.416000 0.123900
27.553300 0.119500
27.690700 0.117100
27.828100 0.114300
27.965400 0.112100
28.102800 0.110400
28.240100 0.108600
28.377500 0.112200
28.514800 0.115600
28.652200 0.126400
28.789600 0.120100
28.926900 0.121900
29.064300 0.124800
29.201600 0.128300
29.339000 0.128600
29.476300 0.132000
29.613700 0.128800
29.751100 0.130900
29.888400 0.134200
30.025800 0.134800
30.163100 0.136000
30.300500 0.136500
30.437800 0.137000
30.575200 0.137600
30.712600 0.142500
30.849900 0.141100
30.987300 0.141300
31.124600 0.141300
31.262000 0.142200
31.399300 0.143400
31.536700 0.144900
31.674100 0.145700
31.811400 0.148600
31.948800 0.148500
32.086100 0.149300
32.223500 0.149700
32.360800 0.150000
32.498200 0.150700
32.635600 0.151500
32.772900 0.152500
32.910300 0.153700
33.047600 0.154600
33.185000 0.156700
33.322300 0.157100
33.459700 0.157400
33.597100 0.157200
33.734400 0.158000
33.871800 0.159200
34.009100 0.160400
34.146500 0.162000
34.283800 0.163100
34.421200 0.164300
34.558600 0.165700
34.695900 0.167200
34.833300 0.167800
34.970600 0.168500
35.108000 0.169000
35.245300 0.170100
35.382700 0.171800
35.520100 0.173100
35.657400 0.173800
35.794800 0.175000
35.932100 0.176400
36.069500 0.177700
36.206800 0.179000
36.344200 0.180200
36.481600 0.188700
36.618900 0.191800
36.756300 0.196200
36.893600 0.198700
37.031000 0.201600
37.168300 0.204800
37.305700 0.208500
37.443100 0.211100
37.580400 0.214200
37.717800 0.217000
37.855100 0.221000
37.992500 0.225100
38.129800 0.228400
38.267200 0.231700
38.404600 0.235000
38.541900 0.238300
38.679300 0.241000
38.816600 0.244100
38.954000 0.248900
39.091300 0.253400
39.228700 0.258100
39.366100 0.263700
39.503400 0.271300
39.640800 0.282300
39.778100 0.307300
39.915500 0.325600
40.052800 0.337100
40.190200 0.297200
40.327600 0.238900
40.464900 0.200800
40.602300 0.198300
40.739600 0.269800
40.877000 0.302700
41.014300 0.374800
41.151700 0.287100
41.289100 0.253400
41.426400 0.219500
41.563800 0.220300
41.701100 0.275400
41.838500 0.291400
41.975800 0.246800
42.113200 0.242900
42.250600 0.246700
42.387900 0.251100
42.525300 0.256000
42.662600 0.262000
42.800000 0.268700
42.937300 0.276100
43.074700 0.284700
43.212100 0.293300
43.349400 0.305500
43.486800 0.320700
43.624100 0.340200
43.761500 0.368100
43.898800 0.367400
44.036200 0.366400
44.173600 0.363800
44.310900 0.363600
44.448300 0.370500
44.585600 0.358300
44.723000 0.340400
44.860300 0.314700
44.997700 0.294500
45.135100 0.283600
45.272400 0.273100
45.409800 0.267000
45.547100 0.258100
45.684500 0.241700
45.821800 0.236300
45.959200 0.232300
46.096600 0.229800
46.233900 0.227300
46.371300 0.225100
46.508600 0.226300
46.646000 0.227200
46.783300 0.230400
46.920700 0.237100
47.058100 0.238400
47.195400 0.240500
47.332800 0.243900
47.470100 0.248300
47.607500 0.251700
47.744800 0.257800
47.882200 0.263000
48.019600 0.267400
48.156900 0.271300
48.294300 0.275200
48.431600 0.278500
48.569000 0.281600
48.706400 0.285700
48.843700 0.289700
48.981100 0.294000
49.118400 0.299400
49.255800 0.305700
49.393100 0.313800
49.530500 0.322900
49.667900 0.335000
49.805200 0.350100
49.942600 0.366400
50.079900 0.386100
50.217300 0.388500
50.354600 0.378100
50.492000 0.383400
50.629400 0.378900
50.766700 0.393400
50.904100 0.347600
51.041400 0.306400
51.178800 0.320600
51.316100 0.325900
51.453500 0.333600
51.590900 0.349000
51.728200 0.380600
51.865600 0.414600
52.002900 0.442100
52.140300 0.428600
52.277600 0.406700
52.415000 0.390900
52.552400 0.408800
52.689700 0.427300
52.827100 0.421300
52.964400 0.399600
53.101800 0.350500
53.239100 0.329500
53.376500 0.318100
53.513900 0.316100
53.651200 0.311200
53.788600 0.305200
53.925900 0.302800
54.063300 0.299700
54.200600 0.298500
54.338000 0.301000
54.475400 0.296900
54.612700 0.293100
54.750100 0.284700
54.887400 0.281500
55.024800 0.279300
55.162100 0.278800
55.299500 0.280000
55.436900 0.280000
55.574200 0.280200
55.711600 0.281100
55.848900 0.284500
55.986300 0.285900
56.123600 0.287800
56.261000 0.288900
56.398400 0.293700
56.535700 0.300700
56.673100 0.305500
56.810400 0.311100
56.947800 0.322900
57.085100 0.321300
57.222500 0.328500
57.359900 0.334800
57.497200 0.342400
57.634600 0.350200
57.771900 0.357800
57.909300 0.365500
58.046600 0.377300
58.184000 0.386100
58.321400 0.392800
58.458700 0.405700
58.596100 0.394700
58.733400 0.380600
58.870800 0.326500
59.008100 0.320700
59.145500 0.301100
59.282900 0.305900
59.420200 0.305000
59.557600 0.299000
59.694900 0.285600
59.832300 0.266400
59.969600 0.287800
60.107000 0.322000
60.244400 0.365300
60.381700 0.392200
60.519100 0.412200
60.656400 0.410800
60.793800 0.416500
60.931100 0.423700
61.068500 0.452300
61.205900 0.465900
61.343200 0.462200
61.480600 0.451200
61.617900 0.430100
61.755300 0.420600
61.892600 0.418500
62.030000 0.413600
62.167400 0.414800
62.304700 0.398900
62.442100 0.385100
62.579400 0.344300
62.716800 0.322400
62.854100 0.348900
62.991500 0.348400
63.128900 0.306800
63.266200 0.285400
63.403600 0.284300
63.540900 0.285100
63.678300 0.286900
63.815600 0.292000
63.953000 0.297100
64.090400 0.308000
64.227700 0.308200
64.365100 0.313100
64.502400 0.324600
64.639800 0.336100
64.777100 0.342900
64.914500 0.343000
65.051900 0.344300
65.189200 0.343900
65.326600 0.346100
65.463900 0.351300
65.601300 0.362900
65.738600 0.373600
65.876000 0.384900
66.013400 0.391900
66.150700 0.406100
66.288100 0.433400
66.425400 0.392900
66.562800 0.351600
66.700100 0.340700
66.837500 0.338300
66.974900 0.342500
67.112200 0.330200
67.249600 0.326600
67.386900 0.320500
67.524300 0.327200
67.661600 0.322200
67.799000 0.318600
67.936400 0.322600
68.073700 0.331800
68.211100 0.341600
68.348400 0.355200
68.485800 0.367500
68.623100 0.375900
68.760500 0.386000
68.897900 0.396600
69.035200 0.406400
69.172600 0.413700
69.309900 0.419600
69.447300 0.416600
69.584600 0.413000
69.722000 0.398200
69.859400 0.400200
69.996700 0.389700
70.134100 0.386900
70.271400 0.379900
70.408800 0.377500
70.546100 0.378800
70.683500 0.383000
70.820900 0.383700
70.958200 0.384900
71.095600 0.378700
71.232900 0.384200
71.370300 0.357500
71.507600 0.345800
71.645000 0.341500
71.782400 0.329100
71.919700 0.321200
72.057100 0.316400
72.194400 0.324200
72.331800 0.342100
72.469100 0.359700
72.606500 0.378800
72.743900 0.419500
72.881200 0.477300
73.018600 0.518900
73.155900 0.507900
73.293300 0.492000
73.430600 0.440900
73.568000 0.431700
73.705400 0.434700
73.842700 0.430300
73.980100 0.436800
74.117400 0.446900
74.254800 0.432400
74.392100 0.420400
74.529500 0.399800
74.666900 0.385100
74.804200 0.371500
74.941600 0.353000
75.078900 0.340400
75.216300 0.331300
75.353600 0.320900
75.491000 0.314800
75.628400 0.309100
75.765700 0.302200
75.903100 0.295400
76.040400 0.289800
76.177800 0.284200
76.315100 0.291800
76.452500 0.282200
76.589900 0.307000
76.727200 0.292100
76.864600 0.320000
77.001900 0.334600
77.139300 0.340000
77.276600 0.339500
77.414000 0.345200
77.551400 0.347600
77.688700 0.357500
77.826100 0.367700
77.963400 0.369600
78.100800 0.355000
78.238100 0.362500
78.375500 0.384300
78.512900 0.426600
78.650200 0.457300
78.787600 0.464900
78.924900 0.499200
79.062300 0.499100
79.199700 0.479400
79.337000 0.459300
79.474400 0.443900
79.611700 0.433600
79.749100 0.416800
79.886400 0.407800
80.023800 0.397700
80.161200 0.397200
80.298500 0.390800
80.435900 0.386900
80.573200 0.374400
80.710600 0.348900
80.847900 0.328300
80.985300 0.311000
81.122700 0.301100
81.260000 0.295400
81.397400 0.290700
81.534700 0.288400
81.672100 0.285300
81.809400 0.292200
81.946800 0.301000
82.084200 0.316800
82.221500 0.335100
82.358900 0.351400
82.496200 0.393900
82.633600 0.401300
82.770900 0.446400
82.908300 0.430000
83.045700 0.418000
83.183000 0.405500
83.320400 0.384600
83.457700 0.375400
83.595100 0.372000
83.732400 0.373000
83.869800 0.374800
84.007200 0.382100
84.144500 0.378200
84.281900 0.367900
84.419200 0.357300
84.556600 0.349700
84.693900 0.340300
84.831300 0.333600
84.968700 0.328000
85.106000 0.324000
85.243400 0.338000
85.380700 0.314200
85.518100 0.306300
85.655400 0.300100
85.792800 0.297100
85.930200 0.292600
86.067500 0.285100
86.204900 0.282000
86.342200 0.293400
86.479600 0.306900
86.616900 0.322000
86.754300 0.341000
86.891700 0.345300
87.029000 0.355000
87.166400 0.350300
87.303700 0.347800
87.441100 0.342000
87.578400 0.334500
87.715800 0.330200
87.853200 0.326900
87.990500 0.327600
88.127900 0.324900
88.265200 0.319400
88.402600 0.312500
88.539900 0.311600
88.677300 0.311800
88.814700 0.309000
88.952000 0.303800
89.089400 0.300300
89.226700 0.297400
89.364100 0.293500
89.501400 0.287600
89.638800 0.293400
89.776200 0.303700
89.913500 0.301300
90.050900 0.314000
90.188200 0.336300
90.325600 0.392700
90.462900 0.428200
90.600300 0.439000
90.737700 0.472400
90.875000 0.430200
91.012400 0.420800
91.149700 0.420700
91.287100 0.407200
91.424400 0.415100
91.561800 0.401700
91.699200 0.382900
91.836500 0.389900
91.973900 0.363900
92.111200 0.300500
92.248600 0.282400
92.385900 0.270900
92.523300 0.274800
92.660700 0.289200
92.798000 0.343000
92.935400 0.388500
93.072700 0.382100
93.210100 0.363600
93.347400 0.354000
93.484800 0.349000
93.622200 0.345100
93.759500 0.350600
93.896900 0.359900
94.034200 0.376900
94.171600 0.389600
94.308900 0.388800
94.446300 0.375700
94.583700 0.375800
94.721000 0.377600
94.858400 0.384000
94.995700 0.384200
95.133100 0.384000
95.270400 0.390100
95.407800 0.397400
95.545200 0.409900
95.682500 0.399600
95.819900 0.385300
95.957200 0.375200
96.094600 0.369700
96.231900 0.384000
96.369300 0.380400
96.506700 0.378600
96.644000 0.397100
96.781400 0.386300
96.918700 0.411000
97.056100 0.423900
97.193400 0.420500
97.330800 0.410200
97.468200 0.424400
97.605500 0.433400
97.742900 0.444600
97.880200 0.471300
98.017600 0.445500
98.154900 0.439000
98.292300 0.437300
98.429700 0.436800
98.567000 0.435200
98.704400 0.432400
98.841700 0.435800
98.979100 0.445400
99.116400 0.519500
99.253800 0.520900
99.391200 0.566900
99.528500 0.641700
99.665900 0.617500
99.803200 0.553900
99.940600 0.508500
100.077900 0.442100
100.215300 0.411600
100.352700 0.399000
100.490000 0.394800
100.627400 0.395700
100.764700 0.403800
100.902100 0.417900
101.039400 0.439100
101.176800 0.445000
101.314200 0.451600
101.451500 0.444800
101.588900 0.442200
101.726200 0.446800
101.863600 0.473000
102.000900 0.472900
102.138300 0.479400
102.275700 0.493700
102.413000 0.487700
102.550400 0.477900
102.687700 0.484300
102.825100 0.491700
102.962400 0.497100
103.099800 0.433500
103.237200 0.418300
103.374500 0.406700
103.511900 0.399900
103.649200 0.395700
103.786600 0.392200
103.923900 0.392600
104.061300 0.401800
104.198700 0.411700
104.336000 0.410700
104.473400 0.405900
104.610700 0.398000
104.748100 0.400800
104.885400 0.398100
105.022800 0.380600
105.160200 0.367200
105.297500 0.358900
105.434900 0.356200
105.572200 0.357100
105.709600 0.369600
105.846900 0.375400
105.984300 0.388900
106.121700 0.389900
106.259000 0.390700
106.396400 0.392400
106.533700 0.391700
106.671100 0.391900
106.808400 0.389800
106.945800 0.399900
107.083200 0.403500
107.220500 0.406000
107.357900 0.404400
107.495200 0.400800
107.632600 0.399700
107.769900 0.399400
107.907300 0.402000
108.044700 0.403400
108.182000 0.405200
108.319400 0.407400
108.456700 0.436500
108.594100 0.466700
108.731400 0.468000
108.868800 0.467900
109.006200 0.458800
109.143500 0.450800
109.280900 0.438800
109.418200 0.424100
109.555600 0.423700
109.692900 0.420700
109.830300 0.424500
109.967700 0.428600
110.105000 0.410200
110.242400 0.412100
110.379700 0.419500
110.517100 0.428300
110.654500 0.438600
110.791800 0.453100
110.929200 0.462000
111.066500 0.463600
111.203900 0.459400
111.341200 0.438200
111.478600 0.425500
111.616000 0.425500
111.753300 0.409500
111.890700 0.397700
112.028000 0.397400
112.165400 0.399500
112.302700 0.399300
112.440100 0.398700
112.577500 0.399100
112.714800 0.400200
112.852200 0.405200
112.989500 0.416000
113.126900 0.412300
113.264200 0.410700
113.401600 0.412600
113.539000 0.412300
113.676300 0.397300
113.813700 0.392300
113.951000 0.385300
114.088400 0.389100
114.225700 0.397600
114.363100 0.414700
114.500500 0.421100
114.637800 0.441100
114.775200 0.452300
114.912500 0.448500
115.049900 0.458100
115.187200 0.468000
115.324600 0.470400
115.462000 0.447200
115.599300 0.441500
115.736700 0.429700
115.874000 0.419900
116.011400 0.418600
116.148700 0.420400
116.286100 0.428500
116.423500 0.430100
116.560800 0.395400
116.698200 0.401000
116.835500 0.407100
116.972900 0.397100
117.110200 0.400100
117.247600 0.410900
117.385000 0.431300
117.522300 0.444100
117.659700 0.453800
117.797000 0.435200
117.934400 0.431600
118.071700 0.428100
118.209100 0.422800
118.346500 0.416600
118.483800 0.410800
118.621200 0.425900
118.758500 0.455700
118.895900 0.455600
119.033200 0.478300
119.170600 0.516300
119.308000 0.546900
119.445300 0.538200
119.582700 0.527200
119.720000 0.497700
119.857400 0.476400
119.994700 0.439100
120.132100 0.425400
120.269500 0.418400
120.406800 0.414700
120.544200 0.415700
120.681500 0.418100
120.818900 0.427300
120.956200 0.431700
121.093600 0.437100
121.231000 0.444700
121.368300 0.450200
121.505700 0.456200
121.643000 0.464400
121.780400 0.473700
121.917700 0.467900
122.055100 0.466500
122.192500 0.470500
122.329800 0.469900
122.467200 0.476300
122.604500 0.487800
122.741900 0.461700
122.879200 0.460100
123.016600 0.456000
123.154000 0.447000
123.291300 0.438300
123.428700 0.435100
123.566000 0.432600
123.703400 0.432500
123.840700 0.432600
123.978100 0.433100
124.115500 0.439800
124.252800 0.438500
124.390200 0.456800
124.527500 0.482200
124.664900 0.493300
124.802200 0.485800
124.939600 0.479300
125.077000 0.471800
125.214300 0.454200
125.351700 0.440600
125.489000 0.435400
125.626400 0.436700
125.763700 0.440500
125.901100 0.440900
126.038500 0.455100
126.175800 0.456600
126.313200 0.491700
126.450500 0.495600
126.587900 0.517500
126.725200 0.541000
126.862600 0.543700
127.000000 0.544000
127.137300 0.513500
127.274700 0.493200
127.412000 0.481600
127.549400 0.469300
127.686700 0.458200
127.824100 0.440700
127.961500 0.430700
128.098800 0.424400
128.236200 0.420700
128.373500 0.416200
128.510900 0.412600
128.648200 0.413700
128.785600 0.417500
128.923000 0.426600
129.060300 0.431300
129.197700 0.443000
129.335000 0.459400
129.472400 0.467400
129.609700 0.479600
129.747100 0.486500
129.884500 0.471700
130.021800 0.460400
130.159200 0.447900
130.296500 0.437000
130.433900 0.432300
130.571200 0.433500
130.708600 0.433400
130.846000 0.435300
130.983300 0.442900
131.120700 0.450700
131.258000 0.461500
131.395400 0.477500
131.532700 0.465900
131.670100 0.469600
131.807500 0.473600
131.944800 0.484300
132.082200 0.480000
132.219500 0.465300
132.356900 0.462700
132.494200 0.464300
132.631600 0.479700
132.769000 0.491700
132.906300 0.505000
133.043700 0.520000
133.181000 0.551500
133.318400 0.546400
133.455700 0.559200
133.593100 0.539100
133.730500 0.525600
133.867800 0.515300
134.005200 0.496200
134.142500 0.479000
134.279900 0.463500
134.417200 0.442000
134.554600 0.428400
134.692000 0.414900
134.829300 0.403400
134.966700 0.403200
135.104000 0.403100
135.241400 0.398200
135.378700 0.407200
135.516100 0.412800
135.653500 0.418500
135.790800 0.428200
135.928200 0.433800
136.065500 0.443700
136.202900 0.460200
136.340200 0.480800
136.477600 0.495900
136.615000 0.494900
136.752300 0.486900
136.889700 0.488400
137.027000 0.482600
137.164400 0.463400
137.301700 0.448100
137.439100 0.430100
137.576500 0.428100
137.713800 0.442500
137.851200 0.426900
137.988500 0.433500
138.125900 0.441800
138.263200 0.451500
138.400600 0.458500
138.538000 0.461700
138.675300 0.464900
138.812700 0.458000
138.950000 0.457300
139.087400 0.458100
139.224700 0.468500
139.362100 0.464900
139.499500 0.459100
139.636800 0.451500
139.774200 0.450600
139.911500 0.451300
140.048900 0.456300
140.186200 0.457100
140.323600 0.461900
140.461000 0.466300
140.598300 0.475700
140.735700 0.476600
140.873000 0.466400
141.010400 0.488500
141.147700 0.461800
141.285100 0.454300
141.422500 0.469500
141.559800 0.466100
141.697200 0.462600
141.834500 0.462900
141.971900 0.469200
142.109300 0.471200
142.246600 0.471100
142.384000 0.463200
142.521300 0.461800
142.658700 0.460100
142.796000 0.457500
142.933400 0.459600
143.070800 0.446700
143.208100 0.433700
143.345500 0.431400
143.482800 0.439300
143.620200 0.428500
143.757500 0.436500
143.894900 0.435900
144.032300 0.443900
144.169600 0.449900
144.307000 0.456900
144.444300 0.457700
144.581700 0.455700
144.719000 0.461300
144.856400 0.463300
144.993800 0.462800
145.131100 0.467600
145.268500 0.471200
145.405800 0.478400
145.543200 0.492300
145.680500 0.480400
145.817900 0.488100
145.955300 0.502500
146.092600 0.542900
146.230000 0.524900
146.367300 0.529200
146.504700 0.525200
146.642000 0.521600
146.779400 0.522100
146.916800 0.516100
147.054100 0.519000
147.191500 0.520600
147.328800 0.513400
147.466200 0.531900
147.603500 0.541200
147.740900 0.506800
147.878300 0.498000
148.015600 0.499900
148.153000 0.494800
148.290300 0.496300
148.427700 0.492700
148.565000 0.480500
148.702400 0.474700
148.839800 0.477300
148.977100 0.474700
149.114500 0.472800
149.251800 0.467700
149.389200 0.469900
149.526500 0.475700
149.663900 0.473000
149.801300 0.467300
149.938600 0.489300
150.076000 0.511100
150.213300 0.535500
150.350700 0.557400
150.488000 0.573200
150.625400 0.584300
150.762800 0.595100
150.900100 0.591900
151.037500 0.579000
151.174800 0.567400
151.312200 0.554000
151.449500 0.540900
151.586900 0.519800
151.724300 0.497500
151.861600 0.477800
151.999000 0.464100
152.136300 0.449300
152.273700 0.461100
152.411000 0.389400
152.548400 0.382900
152.685800 0.377300
152.823100 0.382600
152.960500 0.381500
153.097800 0.390300
153.235200 0.401600
153.372500 0.411900
153.509900 0.417300
153.647300 0.423600
153.784600 0.441100
153.922000 0.455500
154.059300 0.471800
154.196700 0.488700
154.334000 0.502600
154.471400 0.515900
154.608800 0.526000
154.746100 0.535200
154.883500 0.548600
155.020800 0.554600
155.158200 0.540600
155.295500 0.527100
155.432900 0.513500
155.570300 0.508600
155.707600 0.501500
155.845000 0.489600
155.982300 0.478600
156.119700 0.483100
156.257000 0.470800
156.394400 0.471300
156.531800 0.473000
156.669100 0.471700
156.806500 0.474500
156.943800 0.478800
157.081200 0.485000
157.218500 0.492400
157.355900 0.497800
157.493300 0.506700
157.630600 0.514600
157.768000 0.545400
157.905300 0.569500
158.042700 0.592300
158.180000 0.580800
158.317400 0.571800
158.454800 0.560300
158.592100 0.560600
158.729500 0.557100
158.866800 0.549900
159.004200 0.533700
159.141500 0.514900
159.278900 0.493800
159.416300 0.469900
159.553600 0.449500
159.691000 0.458000
159.828300 0.450700
159.965700 0.443700
160.103000 0.450100
160.240400 0.460400
160.377800 0.477700
160.515100 0.491400
160.652500 0.514500
160.789800 0.525600
160.927200 0.536700
161.064500 0.552200
161.201900 0.572500
161.339300 0.574500
161.476600 0.565400
161.614000 0.542200
161.751300 0.508600
161.888700 0.483100
162.026000 0.458200
162.163400 0.440100
162.300800 0.428600
162.438100 0.424300
162.575500 0.430300
162.712800 0.440200
162.850200 0.454600
162.987500 0.478600
163.124900 0.523300
163.262300 0.538700
163.399600 0.557400
163.537000 0.584300
163.674300 0.586500
163.811700 0.615800
163.949000 0.619800
164.086400 0.565200
164.223800 0.552600
164.361100 0.521000
164.498500 0.521400
164.635800 0.519400
164.773200 0.519400
164.910500 0.514800
165.047900 0.509000
165.185300 0.510300
165.322600 0.501300
165.460000 0.502100
165.597300 0.507100
165.734700 0.512200
165.872000 0.514400
166.009400 0.508200
166.146800 0.507900
166.284100 0.505100
166.421500 0.504100
166.558800 0.500800
166.696200 0.500000
166.833500 0.507400
166.970900 0.521500
167.108300 0.528000
167.245600 0.530400
167.383000 0.532000
167.520300 0.532100
167.657700 0.530500
167.795000 0.525300
167.932400 0.499600
168.069800 0.494000
168.207100 0.495700
168.344500 0.487500
168.481800 0.474300
168.619200 0.467000
168.756500 0.465500
168.893900 0.469700
169.031300 0.460700
169.168600 0.461000
169.306000 0.461100
169.443300 0.463200
169.580700 0.458400
169.718000 0.458700
169.855400 0.459300
169.992800 0.458400
170.130100 0.459000
170.267500 0.458200
170.404800 0.447800
170.542200 0.449100
170.679500 0.454500
170.816900 0.462300
170.954300 0.466200
171.091600 0.489900
171.229000 0.481500
171.366300 0.481300
171.503700 0.488900
171.641000 0.506000
171.778400 0.518700
171.915800 0.526900
172.053100 0.533000
172.190500 0.537400
172.327800 0.538500
172.465200 0.534900
172.602500 0.538800
172.739900 0.529300
172.877300 0.512200
173.014600 0.506500
173.152000 0.505300
173.289300 0.519500
173.426700 0.542200
173.564100 0.541100
173.701400 0.538000
173.838800 0.539200
173.976100 0.536100
174.113500 0.526500
174.250800 0.531100
174.388200 0.525900
174.525600 0.522500
174.662900 0.516800
174.800300 0.514000
174.937600 0.507600
175.075000 0.505800
175.212300 0.507100
175.349700 0.513700
175.487100 0.523700
175.624400 0.519900
175.761800 0.529700
175.899100 0.541200
176.036500 0.526200
176.173800 0.516100
176.311200 0.510000
176.448600 0.506100
176.585900 0.504800
176.723300 0.506900
176.860600 0.509600
176.998000 0.517200
177.135300 0.518000
177.272700 0.521000
177.410100 0.532800
177.547400 0.559700
177.684800 0.567600
177.822100 0.554800
177.959500 0.547100
178.096800 0.540700
178.234200 0.520000
178.371600 0.509200
178.508900 0.498600
178.646300 0.492900
178.783600 0.492700
178.921000 0.496100
179.058300 0.500500
179.195700 0.511600
179.333100 0.526400
179.470400 0.534400
179.607800 0.544800
179.745100 0.546000
179.882500 0.550200
180.019800 0.554500
180.157200 0.549500
180.294600 0.547700
180.431900 0.550400
180.569300 0.554300
180.706600 0.561700
180.844000 0.565400
180.981300 0.568600
181.118700 0.574100
181.256100 0.583300
181.393400 0.575200
181.530800 0.577300
181.668100 0.554700
181.805500 0.551500
181.942800 0.549600
182.080200 0.544100
182.217600 0.542800
182.354900 0.543700
182.492300 0.547500
182.629600 0.541100
182.767000 0.544300
182.904300 0.554400
183.041700 0.551500
183.179100 0.550800
183.316400 0.538000
183.453800 0.516800
183.591100 0.509900
183.728500 0.514200
183.865800 0.518500
184.003200 0.518000
184.140600 0.521700
184.277900 0.526300
184.415300 0.537200
184.552600 0.560300
184.690000 0.584400
184.827300 0.596400
184.964700 0.601800
185.102100 0.599800
185.239400 0.586800
185.376800 0.574900
185.514100 0.568600
185.651500 0.560300
185.788800 0.557000
185.926200 0.549700
186.063600 0.547600
186.200900 0.548700
186.338300 0.554500
186.475600 0.560200
186.613000 0.548300
186.750300 0.538200
186.887700 0.532000
187.025100 0.528200
187.162400 0.526000
187.299800 0.526200
187.437100 0.530900
187.574500 0.525400
187.711800 0.529500
187.849200 0.529600
187.986600 0.521100
188.123900 0.505100
188.261300 0.496400
188.398600 0.486000
188.536000 0.477400
188.673300 0.469600
188.810700 0.466400
188.948100 0.461400
189.085400 0.473400
189.222800 0.479400
189.360100 0.489400
189.497500 0.504300
189.634800 0.512000
189.772200 0.520000
189.909600 0.528400
190.046900 0.531500
190.184300 0.528400
190.321600 0.532200
190.459000 0.533700
190.596300 0.527800
190.733700 0.526700
190.871100 0.526500
191.008400 0.527800
191.145800 0.536100
191.283100 0.543200
191.420500 0.541500
191.557800 0.544300
191.695200 0.551300
191.832600 0.553600
191.969900 0.560400
192.107300 0.573300
192.244600 0.599000
192.382000 0.583400
192.519300 0.563000
192.656700 0.554500
192.794100 0.552000
192.931400 0.557000
193.068800 0.566200
193.206100 0.551200
193.343500 0.552500
193.480800 0.564200
193.618200 0.560600
193.755600 0.556800
193.892900 0.557100
194.030300 0.561300
194.167600 0.572400
194.305000 0.572600
194.442300 0.572000
194.579700 0.578700
194.717100 0.578000
194.854400 0.575500
194.991800 0.574700
195.129100 0.574300
195.266500 0.576300
195.403800 0.576400
195.541200 0.577300
195.678600 0.585800
195.815900 0.601600
195.953300 0.594300
196.090600 0.594600
196.228000 0.577900
196.365300 0.550700
196.502700 0.532400
196.640100 0.531800
196.777400 0.518800
196.914800 0.513900
197.052100 0.515300
197.189500 0.521900
197.326800 0.523000
197.464200 0.529300
197.601600 0.564700
197.738900 0.537600
197.876300 0.514000
198.013600 0.508700
198.151000 0.508800
198.288300 0.513000
198.425700 0.517000
198.563100 0.521700
198.700400 0.513100
198.837800 0.515200
198.975100 0.515100
199.112500 0.516000
199.249800 0.519100
199.387200 0.530900
199.524600 0.542000
199.661900 0.547300
199.799300 0.550200
199.936600 0.553000
200.074000 0.555800
200.211300 0.566800
200.348700 0.582700
200.486100 0.602100
200.623400 0.617400
200.760800 0.609900
200.898100 0.603200
201.035500 0.596900
201.172800 0.584700
201.310200 0.574100
201.447600 0.567800
201.584900 0.568700
201.722300 0.543000
201.859600 0.528000
201.997000 0.530600
202.134300 0.529200
202.271700 0.526000
202.409100 0.522900
202.546400 0.516900
202.683800 0.517400
202.821100 0.521500
202.958500 0.534800
203.095800 0.546800
203.233200 0.567400
203.370600 0.566900
203.507900 0.571200
203.645300 0.532900
203.782600 0.525200
203.920000 0.518200
204.057300 0.500300
204.194700 0.500800
204.332100 0.498500
204.469400 0.501900
204.606800 0.509200
204.744100 0.505900
204.881500 0.507900
205.018900 0.514600
205.156200 0.522500
205.293600 0.523000
205.430900 0.520600
205.568300 0.521700
205.705600 0.532900
205.843000 0.530900
205.980400 0.526200
206.117700 0.524900
206.255100 0.526500
206.392400 0.559700
206.529800 0.535800
206.667100 0.536700
206.804500 0.526800
206.941900 0.520500
207.079200 0.522700
207.216600 0.528400
207.353900 0.518800
207.491300 0.526500
207.628600 0.534300
207.766000 0.540600
207.903400 0.550400
208.040700 0.554700
208.178100 0.565600
208.315400 0.580600
208.452800 0.597300
208.590100 0.604100
208.727500 0.615800
208.864900 0.641900
209.002200 0.635200
209.139600 0.630900
209.276900 0.637300
209.414300 0.643100
209.551600 0.630900
209.689000 0.618700
209.826400 0.620100
209.963700 0.620400
210.101100 0.622200
210.238400 0.619500
210.375800 0.611200
210.513100 0.606800
210.650500 0.602900
210.787900 0.593300
210.925200 0.586400
211.062600 0.587700
211.199900 0.584600
211.337300 0.579700
211.474600 0.575700
211.612000 0.573400
211.749400 0.570200
211.886700 0.575600
212.024100 0.547900
212.161400 0.530900
212.298800 0.522400
212.436100 0.514300
212.573500 0.506800
212.710900 0.516500
212.848200 0.517300
212.985600 0.517300
213.122900 0.517600
213.260300 0.521700
213.397600 0.540300
213.535000 0.556700
213.672400 0.559500
213.809700 0.564600
213.947100 0.579800
214.084400 0.575700
214.221800 0.585100
214.359100 0.603700
214.496500 0.622100
214.633900 0.628700
214.771200 0.629000
214.908600 0.631700
215.045900 0.636900
215.183300 0.651900
215.320600 0.639600
215.458000 0.633600
215.595400 0.625800
215.732700 0.613100
215.870100 0.594800
216.007400 0.581300
216.144800 0.563600
216.282100 0.547400
216.419500 0.535800
216.556900 0.534400
216.694200 0.529100
216.831600 0.524400
216.968900 0.525200
217.106300 0.535400
217.243600 0.561500
217.381000 0.577800
217.518400 0.584600
217.655700 0.584100
217.793100 0.572700
217.930400 0.571800
218.067800 0.567200
218.205100 0.571700
218.342500 0.585700
218.479900 0.601800
218.617200 0.604300
218.754600 0.595400
218.891900 0.587500
219.029300 0.578500
219.166600 0.576300
219.304000 0.577400
219.441400 0.580800
219.578700 0.573600
219.716100 0.573900
219.853400 0.564700
219.990800 0.567300
220.128100 0.568600
220.265500 0.562700
220.402900 0.553400
220.540200 0.540700
220.677600 0.540900
220.814900 0.544700
220.952300 0.550500
221.089600 0.554300
221.227000 0.556300
221.364400 0.554800
221.501700 0.548700
221.639100 0.548900
221.776400 0.552100
221.913800 0.554700
222.051100 0.548900
222.188500 0.543000
222.325900 0.531600
222.463200 0.518400
222.600600 0.503100
222.737900 0.495300
222.875300 0.493900
223.012600 0.475800
223.150000 0.463700
223.287400 0.455700
223.424700 0.448600
223.562100 0.455000
223.699400 0.459500
223.836800 0.463400
223.974100 0.461000
224.111500 0.463300
224.248900 0.460300
224.386200 0.463100
224.523600 0.462800
224.660900 0.459600
224.798300 0.461600
224.935600 0.464100
225.073000 0.466900
225.210400 0.469200
225.347700 0.466200
225.485100 0.456900
225.622400 0.448400
225.759800 0.438000
225.897100 0.426700
226.034500 0.417600
226.171900 0.396600
226.309200 0.371000
226.446600 0.351300
226.583900 0.341000
226.721300 0.334000
226.858600 0.323400
226.996000 0.310000
227.133400 0.303800
227.270700 0.296200
227.408100 0.291700
227.545400 0.280700
227.682800 0.273300
227.820100 0.267400
227.957500 0.257000
228.094900 0.247400
228.232200 0.240300
228.369600 0.232600
228.506900 0.218000
228.644300 0.209200
228.781600 0.201700
228.919000 0.197600
229.056400 0.182000
229.193700 0.171500
229.331100 0.162800
229.468400 0.154500
229.605800 0.145300
229.743100 0.138400
229.880500 0.132000
230.017900 0.125700
230.155200 0.119400
230.292600 0.113200
230.429900 0.108200
230.567300 0.102500
230.704600 0.098100
230.842000 0.094000
230.979400 0.086100
231.116700 0.081600
231.254100 0.072600
231.391400 0.067300
231.528800 0.064400
231.666100 0.062600
231.803500 0.060300
231.940900 0.054700
232.078200 0.048200
232.215600 0.041200
232.352900 0.034700
232.490300 0.033100
232.627600 0.031800
232.765000 0.030800
232.902400 0.029800
233.039700 0.029000
233.177100 0.028500
233.314400 0.027800
233.451800 0.026800
233.589100 0.025900
233.726500 0.023600
233.863900 0.022800
234.001200 0.022100
234.138600 0.021300
234.275900 0.020600
234.413300 0.019800
234.550600 0.019000
234.688000 0.018000
234.825400 0.017100
234.962700 0.016300
235.100100 0.015500
235.237400 0.014600
235.374800 0.013700
235.512100 0.012800
235.649500 0.011900
235.786900 0.011000
235.924200 0.010100
236.061600 0.009200
236.198900 0.008400
236.336300 0.007700
236.473700 0.006900
236.611000 0.006200
236.748400 0.005600
236.885700 0.005000
237.023100 0.004500
237.160400 0.004000
237.297800 0.003500
237.435200 0.003000
237.572500 0.002600
237.709900 0.002200
237.847200 0.001800
237.984600 0.001300
238.121900 0.000800
238.259300 0.000400
238.396700 0.000000
238.534000 0.000000
238.671400 0.000000
238.808700 0.000000
238.946100 0.000000
239.083400 0.000000
239.220800 0.000000
239.358200 0.000000
239.495500 0.000000
239.632900 0.000000
239.770200 0.000000
239.907600 0.000000
240.044900 0.000000
240.182300 0.000000
240.319700 0.000000
240.457000 0.000000
240.594400 0.000000
240.731700 0.000000
240.869100 0.000000
241.006400 0.000000
241.143800 0.000000
241.281200 0.000000
241.418500 0.000000
241.555900 0.000000
241.693200 0.000000
241.830600 0.000000
241.967900 0.000000
242.105300 0.000000
242.242700 0.000000
242.380000 0.000000
242.517400 0.000000
242.654700 0.000000
242.792100 0.000000
242.929400 0.000000
243.066800 0.000000
243.204200 0.000000
243.341500 0.000000
243.478900 0.000000
243.616200 0.000000
243.753600 0.000000
243.890900 0.000000
244.028300 0.000000
244.165700 0.000000
244.303000 0.000000
244.440400 0.000000
244.577700 0.000000
244.715100 0.000000
244.852400 0.000000
244.989800 0.000000
245.127200 0.000000
245.264500 0.000000
245.401900 0.000000
245.539200 0.000000
245.676600 0.000000
245.813900 0.000000
245.951300 0.000000
246.088700 0.000000
246.226000 0.000000
246.363400 0.000000
246.500700 0.000000
246.638100 0.000000
246.775400 0.000000
246.912800 0.000000
247.050200 0.000000
247.187500 0.000000
247.324900 0.000000
247.462200 0.000000
247.599600 0.000000
247.736900 0.000000
247.874300 0.000000
248.011700 0.000000
248.149000 0.000000
248.286400 0.000000
248.423700 0.000000
248.561100 0.000000
248.698400 0.000000
248.835800 0.000000
248.973200 0.000000
249.110500 0.000000
249.247900 0.000000
249.385200 0.000000
249.522600 0.000000
249.659900 0.000000
249.797300 0.000000
249.934700 0.000000
250.072000 0.000000
250.209400 0.000000
250.346700 0.000000
250.484100 0.000000
250.621400 0.000000
250.758800 0.000000
250.896200 0.000000
251.033500 0.000000
e
