set title 'mp-743752 - Density of States'
set xlabel 'Energy (eV)'
set ylabel 'DOS (states/eV)'
set grid
set xrange [-10:10]
set yrange [0:5.061]
set xzeroaxis lt -1
set terminal png size 800,600
set output 'mp-743752_dos_gnuplot.png'
plot '-' using 1:2 with lines title 'DOS'
-9.960600 0.000000
-9.938000 0.000000
-9.915500 0.000000
-9.892900 0.000000
-9.870400 0.000000
-9.847800 0.000000
-9.825300 0.000000
-9.802700 0.000000
-9.780200 0.000000
-9.757600 0.000000
-9.735100 0.000000
-9.712500 0.000000
-9.690000 0.000000
-9.667400 0.000000
-9.644800 0.000000
-9.622300 0.000000
-9.599700 0.000000
-9.577200 0.000000
-9.554600 0.000000
-9.532100 0.000000
-9.509500 0.000000
-9.487000 0.000000
-9.464400 0.000000
-9.441900 0.000000
-9.419300 0.000000
-9.396800 0.000000
-9.374200 0.000000
-9.351600 0.000000
-9.329100 0.000000
-9.306500 0.000000
-9.284000 0.000000
-9.261400 0.000000
-9.238900 0.000000
-9.216300 0.000000
-9.193800 0.000000
-9.171200 0.000000
-9.148700 0.000000
-9.126100 0.000000
-9.103500 0.000000
-9.081000 0.000000
-9.058400 0.000000
-9.035900 0.000000
-9.013300 0.000000
-8.990800 0.000000
-8.968200 0.000000
-8.945700 0.000000
-8.923100 0.000000
-8.900600 0.000000
-8.878000 0.000000
-8.855500 0.000000
-8.832900 0.000000
-8.810300 0.000000
-8.787800 0.000000
-8.765200 0.000000
-8.742700 0.000000
-8.720100 0.000000
-8.697600 0.000000
-8.675000 0.000000
-8.652500 0.000000
-8.629900 0.000000
-8.607400 0.000000
-8.584800 0.000000
-8.562300 0.000000
-8.539700 0.000000
-8.517100 0.000000
-8.494600 0.000000
-8.472000 0.000000
-8.449500 0.000000
-8.426900 0.000000
-8.404400 0.000000
-8.381800 0.000000
-8.359300 0.000000
-8.336700 0.000000
-8.314200 0.000000
-8.291600 0.000000
-8.269000 0.000000
-8.246500 0.000000
-8.223900 0.000000
-8.201400 0.000000
-8.178800 0.000000
-8.156300 0.000000
-8.133700 0.000000
-8.111200 0.000000
-8.088600 0.000000
-8.066100 0.000000
-8.043500 0.000000
-8.021000 0.000000
-7.998400 0.000000
-7.975800 0.000000
-7.953300 0.000000
-7.930700 0.000000
-7.908200 0.001200
-7.885600 0.172300
-7.863100 0.380400
-7.840500 0.465700
-7.818000 0.589200
-7.795400 0.701100
-7.772900 0.777600
-7.750300 0.867600
-7.727800 0.960600
-7.705200 1.063500
-7.682600 1.174000
-7.660100 1.286900
-7.637500 1.405400
-7.615000 1.533000
-7.592400 1.700200
-7.569900 1.934200
-7.547300 2.203800
-7.524800 2.238900
-7.502200 2.361200
-7.479700 2.464900
-7.457100 2.575300
-7.434500 2.720400
-7.412000 2.944700
-7.389400 3.305700
-7.366900 3.820700
-7.344300 3.873100
-7.321800 3.918100
-7.299200 3.944000
-7.276700 3.987700
-7.254100 4.038300
-7.231600 4.154600
-7.209000 4.257200
-7.186500 4.601100
-7.163900 4.057100
-7.141300 3.242400
-7.118800 2.611200
-7.096200 2.204500
-7.073700 1.865500
-7.051100 1.483600
-7.028600 0.921900
-7.006000 0.000000
-6.983500 0.000000
-6.960900 0.000000
-6.938400 0.000000
-6.915800 0.000000
-6.893300 0.000000
-6.870700 0.000000
-6.848100 0.000000
-6.825600 0.000000
-6.803000 0.000000
-6.780500 0.000000
-6.757900 0.000000
-6.735400 0.000000
-6.712800 0.000000
-6.690300 0.000000
-6.667700 0.000000
-6.645200 0.000000
-6.622600 0.000000
-6.600000 0.000000
-6.577500 0.000000
-6.554900 0.000000
-6.532400 0.000000
-6.509800 0.000000
-6.487300 0.000000
-6.464700 0.000000
-6.442200 0.000000
-6.419600 0.000000
-6.397100 0.000000
-6.374500 0.000000
-6.352000 0.000000
-6.329400 0.000000
-6.306800 0.000000
-6.284300 0.000000
-6.261700 0.000000
-6.239200 0.000000
-6.216600 0.000000
-6.194100 0.000000
-6.171500 0.000000
-6.149000 0.000000
-6.126400 0.000000
-6.103900 0.000000
-6.081300 0.000000
-6.058800 0.000000
-6.036200 0.000000
-6.013600 0.000000
-5.991100 0.000000
-5.968500 0.000000
-5.946000 0.000000
-5.923400 0.000000
-5.900900 0.000000
-5.878300 0.000000
-5.855800 0.000000
-5.833200 0.000000
-5.810700 0.000000
-5.788100 0.000000
-5.765500 0.000000
-5.743000 0.000000
-5.720400 0.000000
-5.697900 0.000000
-5.675300 0.000000
-5.652800 0.000000
-5.630200 0.000000
-5.607700 0.000000
-5.585100 0.000000
-5.562600 0.000000
-5.540000 0.000000
-5.517500 0.000000
-5.494900 0.000000
-5.472300 0.000000
-5.449800 0.000000
-5.427200 0.000000
-5.404700 0.000000
-5.382100 0.000000
-5.359600 0.000000
-5.337000 0.000000
-5.314500 0.000000
-5.291900 0.000000
-5.269400 0.000000
-5.246800 0.000000
-5.224300 0.000000
-5.201700 0.000000
-5.179100 0.000000
-5.156600 0.000000
-5.134000 0.000000
-5.111500 0.000000
-5.088900 0.026800
-5.066400 0.102900
-5.043800 0.196300
-5.021300 0.249200
-4.998700 0.272500
-4.976200 0.309400
-4.953600 0.355000
-4.931000 0.402600
-4.908500 0.447500
-4.885900 0.489800
-4.863400 0.530400
-4.840800 0.573300
-4.818300 0.619200
-4.795700 0.667700
-4.773200 0.719900
-4.750600 0.773900
-4.728100 0.833300
-4.705500 0.899200
-4.683000 0.973300
-4.660400 1.053900
-4.637800 1.146100
-4.615300 1.244400
-4.592700 1.354500
-4.570200 1.494100
-4.547600 1.741600
-4.525100 1.999900
-4.502500 2.219700
-4.480000 2.269900
-4.457400 2.301500
-4.434900 2.349400
-4.412300 2.503200
-4.389800 2.665600
-4.367200 2.742200
-4.344600 2.625000
-4.322100 2.414000
-4.299500 2.177200
-4.277000 1.971500
-4.254400 1.916600
-4.231900 1.879300
-4.209300 1.845000
-4.186800 1.812200
-4.164200 1.780400
-4.141700 1.748500
-4.119100 1.720400
-4.096500 1.688800
-4.074000 1.659100
-4.051400 1.623000
-4.028900 1.593900
-4.006300 1.569800
-3.983800 1.562700
-3.961200 1.576800
-3.938700 1.554200
-3.916100 1.468600
-3.893600 1.358400
-3.871000 1.232100
-3.848500 1.115400
-3.825900 1.033800
-3.803300 0.966900
-3.780800 0.910000
-3.758200 0.858400
-3.735700 0.808600
-3.713100 0.760100
-3.690600 0.712900
-3.668000 0.668200
-3.645500 0.626800
-3.622900 0.589400
-3.600400 0.552800
-3.577800 0.516300
-3.555300 0.479200
-3.532700 0.445600
-3.510100 0.419600
-3.487600 0.392000
-3.465000 0.362600
-3.442500 0.339700
-3.419900 0.281300
-3.397400 0.216100
-3.374800 0.158100
-3.352300 0.102500
-3.329700 0.031000
-3.307200 0.000400
-3.284600 0.000000
-3.262000 0.000000
-3.239500 0.000000
-3.216900 0.000000
-3.194400 0.000000
-3.171800 0.000000
-3.149300 0.000000
-3.126700 0.000000
-3.104200 0.000000
-3.081600 0.000000
-3.059100 0.000000
-3.036500 0.000000
-3.014000 0.000000
-2.991400 0.000000
-2.968800 0.000000
-2.946300 0.000000
-2.923700 0.000000
-2.901200 0.000000
-2.878600 0.000000
-2.856100 0.000000
-2.833500 0.000000
-2.811000 0.000000
-2.788400 0.000000
-2.765900 0.000000
-2.743300 0.000000
-2.720800 0.000000
-2.698200 0.000000
-2.675600 0.000000
-2.653100 0.000000
-2.630500 0.000000
-2.608000 0.000000
-2.585400 0.000000
-2.562900 0.000000
-2.540300 0.000000
-2.517800 0.000000
-2.495200 0.000000
-2.472700 0.000000
-2.450100 0.000000
-2.427500 0.000000
-2.405000 0.000000
-2.382400 0.000000
-2.359900 0.000000
-2.337300 0.000000
-2.314800 0.000000
-2.292200 0.000000
-2.269700 0.000000
-2.247100 0.000000
-2.224600 0.000000
-2.202000 0.000000
-2.179500 0.000000
-2.156900 0.000000
-2.134300 0.000000
-2.111800 0.000000
-2.089200 0.000000
-2.066700 0.000000
-2.044100 0.000000
-2.021600 0.000000
-1.999000 0.000000
-1.976500 0.000000
-1.953900 0.000000
-1.931400 0.000000
-1.908800 0.000000
-1.886300 0.000000
-1.863700 0.000000
-1.841100 0.000000
-1.818600 0.000000
-1.796000 0.000000
-1.773500 0.008800
-1.750900 0.255200
-1.728400 0.459600
-1.705800 0.656600
-1.683300 0.787900
-1.660700 0.889100
-1.638200 0.996900
-1.615600 1.078000
-1.593000 1.131500
-1.570500 1.166900
-1.547900 1.199400
-1.525400 1.263400
-1.502800 1.323300
-1.480300 1.375500
-1.457700 1.429600
-1.435200 1.500700
-1.412600 1.599500
-1.390100 1.700400
-1.367500 1.892900
-1.345000 1.993600
-1.322400 2.003100
-1.299800 2.095000
-1.277300 2.234700
-1.254700 2.313900
-1.232200 2.288800
-1.209600 2.241100
-1.187100 2.142400
-1.164500 2.099000
-1.142000 2.059400
-1.119400 2.086200
-1.096900 2.197100
-1.074300 2.262600
-1.051800 2.147500
-1.029200 1.971700
-1.006600 1.798500
-0.984100 1.710900
-0.961500 1.620500
-0.939000 1.554900
-0.916400 1.473700
-0.893900 1.409700
-0.871300 1.365400
-0.848800 1.333200
-0.826200 1.306900
-0.803700 1.268700
-0.781100 1.223100
-0.758500 1.169800
-0.736000 1.147100
-0.713400 1.128400
-0.690900 1.091600
-0.668300 1.054500
-0.645800 1.025600
-0.623200 1.019700
-0.600700 0.996400
-0.578100 0.961400
-0.555600 0.932500
-0.533000 0.907600
-0.510500 0.875900
-0.487900 0.838400
-0.465300 0.809700
-0.442800 0.761500
-0.420200 0.660300
-0.397700 0.589600
-0.375100 0.605900
-0.352600 0.628800
-0.330000 0.662100
-0.307500 0.695200
-0.284900 0.687600
-0.262400 0.683500
-0.239800 0.684900
-0.217300 0.706000
-0.194700 0.767500
-0.172100 0.962800
-0.149600 1.069100
-0.127000 1.198600
-0.104500 1.337300
-0.081900 1.423000
-0.059400 1.520800
-0.036800 1.606100
-0.014300 1.626300
0.008300 1.634900
0.030800 1.703800
0.053400 1.801200
0.076000 1.873300
0.098500 1.953700
0.121100 2.005700
0.143600 2.040900
0.166200 2.066100
0.188700 2.076000
0.211300 2.110000
0.233800 2.145900
0.256400 2.125000
0.278900 2.138200
0.301500 2.031900
0.324000 1.980000
0.346600 1.938300
0.369200 1.892900
0.391700 1.804200
0.414300 1.778200
0.436800 1.795900
0.459400 1.823600
0.481900 1.870900
0.504500 1.938400
0.527000 1.996600
0.549600 1.980600
0.572100 2.010100
0.594700 2.019100
0.617200 1.997900
0.639800 1.961200
0.662400 2.000900
0.684900 2.019100
0.707500 2.090100
0.730000 2.050300
0.752600 1.938500
0.775100 1.796300
0.797700 1.689000
0.820200 1.675700
0.842800 1.655900
0.865300 1.628500
0.887900 1.600800
0.910500 1.579400
0.933000 1.570900
0.955600 1.613800
0.978100 1.642800
1.000700 1.675700
1.023200 1.727600
1.045800 1.771800
1.068300 1.816600
1.090900 1.866400
1.113400 1.915700
1.136000 1.989600
1.158500 2.088700
1.181100 2.160600
1.203700 2.189800
1.226200 2.225200
1.248800 2.297100
1.271300 2.422800
1.293900 2.557300
1.316400 2.509800
1.339000 2.470800
1.361500 2.444800
1.384100 2.418400
1.406600 2.329000
1.429200 2.267200
1.451700 2.244200
1.474300 2.218800
1.496900 2.185900
1.519400 2.196300
1.542000 2.188300
1.564500 2.096500
1.587100 2.001600
1.609600 1.925700
1.632200 1.857400
1.654700 1.797200
1.677300 1.788800
1.699800 1.761600
1.722400 1.725600
1.745000 1.719700
1.767500 1.726900
1.790100 1.743800
1.812600 1.806700
1.835200 1.878100
1.857700 1.920000
1.880300 1.945600
1.902800 1.962900
1.925400 1.965000
1.947900 1.974600
1.970500 2.013400
1.993000 2.036200
2.015600 1.948700
2.038200 1.715500
2.060700 1.582800
2.083300 1.514100
2.105800 1.450100
2.128400 1.436200
2.150900 1.428400
2.173500 1.435300
2.196000 1.481700
2.218600 1.570600
2.241100 1.692700
2.263700 1.851300
2.286200 1.917300
2.308800 1.894500
2.331400 1.886000
2.353900 1.890100
2.376500 1.916100
2.399000 2.001300
2.421600 2.014300
2.444100 1.980800
2.466700 2.047500
2.489200 2.095800
2.511800 2.124300
2.534300 2.143200
2.556900 2.162000
2.579500 2.220900
2.602000 2.338500
2.624600 2.398200
2.647100 2.396500
2.669700 2.329300
2.692200 2.129700
2.714800 2.004300
2.737300 1.908100
2.759900 1.761300
2.782400 1.654600
2.805000 1.569800
2.827500 1.453600
2.850100 1.360400
2.872700 1.315000
2.895200 1.248500
2.917800 1.271600
2.940300 1.347800
2.962900 1.443700
2.985400 1.581100
3.008000 1.754500
3.030500 1.817900
3.053100 1.909400
3.075600 1.906600
3.098200 1.894800
3.120700 1.877400
3.143300 1.887000
3.165900 1.920700
3.188400 1.971500
3.211000 2.060800
3.233500 2.163500
3.256100 2.204500
3.278600 2.266800
3.301200 2.353400
3.323700 2.473700
3.346300 2.588500
3.368800 2.681600
3.391400 2.797800
3.414000 2.947400
3.436500 3.131100
3.459100 3.338400
3.481600 3.054800
3.504200 2.919800
3.526700 2.925500
3.549300 2.569400
3.571800 2.214300
3.594400 2.055900
3.616900 1.960500
3.639500 1.901800
3.662000 1.847700
3.684600 1.795000
3.707200 1.688700
3.729700 1.569900
3.752300 1.479200
3.774800 1.407700
3.797400 1.368100
3.819900 1.360900
3.842500 1.406400
3.865000 1.409700
3.887600 1.420800
3.910100 1.430800
3.932700 1.427900
3.955200 1.479400
3.977800 1.612000
4.000400 1.711400
4.022900 1.729500
4.045500 1.795200
4.068000 1.888600
4.090600 1.970400
4.113100 2.080000
4.135700 2.320100
4.158200 2.444500
4.180800 2.552400
4.203300 2.706800
4.225900 2.751400
4.248400 2.693500
4.271000 2.634300
4.293600 2.647700
4.316100 2.704000
4.338700 2.776400
4.361200 2.712700
4.383800 2.581700
4.406300 2.493300
4.428900 2.390800
4.451400 2.290600
4.474000 2.226100
4.496500 2.138600
4.519100 2.083700
4.541700 2.073700
4.564200 2.092700
4.586800 2.143500
4.609300 2.154100
4.631900 2.106600
4.654400 1.987500
4.677000 1.902900
4.699500 1.861700
4.722100 1.909700
4.744600 1.970200
4.767200 1.977800
4.789700 2.018400
4.812300 1.996700
4.834900 2.082700
4.857400 2.033100
4.880000 2.009900
4.902500 2.065000
4.925100 2.098100
4.947600 2.076000
4.970200 2.106300
4.992700 2.173900
5.015300 2.209800
5.037800 2.224800
5.060400 2.228500
5.082900 2.287200
5.105500 2.365200
5.128100 2.409400
5.150600 2.333300
5.173200 2.316500
5.195700 2.296000
5.218300 2.432600
5.240800 2.558800
5.263400 2.715800
5.285900 2.643900
5.308500 2.640700
5.331000 2.645400
5.353600 2.612700
5.376200 2.504000
5.398700 2.476600
5.421300 2.505000
5.443800 2.488700
5.466400 2.439600
5.488900 2.426100
5.511500 2.365500
5.534000 2.234100
5.556600 2.039100
5.579100 1.882200
5.601700 1.780400
5.624200 1.667600
5.646800 1.535700
5.669400 1.497500
5.691900 1.479600
5.714500 1.437600
5.737000 1.446800
5.759600 1.503800
5.782100 1.554000
5.804700 1.635000
5.827200 1.664200
5.849800 1.668000
5.872300 1.686600
5.894900 1.711200
5.917400 1.846400
5.940000 2.204300
5.962600 2.443200
5.985100 2.641400
6.007700 2.803100
6.030200 2.772300
6.052800 2.852600
6.075300 2.864300
6.097900 2.864600
6.120400 2.828900
6.143000 2.790500
6.165500 2.758100
6.188100 2.679000
6.210700 2.728900
6.233200 2.741000
6.255800 2.636900
6.278300 2.525600
6.300900 2.447100
6.323400 2.433600
6.346000 2.349200
6.368500 2.324100
6.391100 2.378700
6.413600 2.365100
6.436200 2.293400
6.458700 2.250500
6.481300 2.259400
6.503900 2.222100
6.526400 2.218500
6.549000 2.220100
6.571500 2.228200
6.594100 2.268600
6.616600 2.277700
6.639200 2.288800
6.661700 2.292400
6.684300 2.249100
6.706800 2.291100
6.729400 2.339600
6.751900 2.399400
6.774500 2.476900
6.797100 2.565600
6.819600 2.653300
6.842200 2.794800
6.864700 2.715200
6.887300 2.665700
6.909800 2.653000
6.932400 2.630100
6.954900 2.632900
6.977500 2.687300
7.000000 2.726800
7.022600 2.717600
7.045200 2.653600
7.067700 2.677800
7.090300 2.713000
7.112800 2.705100
7.135400 2.651200
7.157900 2.604000
7.180500 2.544700
7.203000 2.338100
7.225600 2.138800
7.248100 2.001800
7.270700 1.876500
7.293200 1.710700
7.315800 1.594800
7.338400 1.506700
7.360900 1.413900
7.383500 1.329700
7.406000 1.219900
7.428600 1.136700
7.451100 1.114800
7.473700 1.114900
7.496200 1.124800
7.518800 1.125400
7.541300 1.125000
7.563900 1.127900
7.586400 1.140000
7.609000 1.162800
7.631600 1.179000
7.654100 1.201400
7.676700 1.233100
7.699200 1.268100
7.721800 1.287100
7.744300 1.328000
7.766900 1.366000
7.789400 1.407100
7.812000 1.459800
7.834500 1.506300
7.857100 1.538800
7.879700 1.572900
7.902200 1.611400
7.924800 1.659300
7.947300 1.705100
7.969900 1.710200
7.992400 1.680000
8.015000 1.663300
8.037500 1.668200
8.060100 1.647800
8.082600 1.638800
8.105200 1.633300
8.127700 1.634500
8.150300 1.652800
8.172900 1.665200
8.195400 1.682600
8.218000 1.705000
8.240500 1.728800
8.263100 1.809100
8.285600 1.884400
8.308200 1.879300
8.330700 1.806800
8.353300 1.748200
8.375800 1.705600
8.398400 1.633800
8.420900 1.584600
8.443500 1.529000
8.466100 1.505800
8.488600 1.501300
8.511200 1.489000
8.533700 1.481400
8.556300 1.516100
8.578800 1.522300
8.601400 1.621100
8.623900 1.747500
8.646500 1.846900
8.669000 1.857500
8.691600 1.870500
8.714200 1.735300
8.736700 1.719100
8.759300 1.818800
8.781800 1.756300
8.804400 1.535100
8.826900 1.412100
8.849500 1.332600
8.872000 1.270000
8.894600 1.174200
8.917100 1.100600
8.939700 1.039700
8.962200 0.977800
8.984800 0.982100
9.007400 0.899200
9.029900 0.917700
9.052500 0.957700
9.075000 1.015300
9.097600 1.086800
9.120100 1.169900
9.142700 1.241700
9.165200 1.300900
9.187800 1.394200
9.210300 1.513600
9.232900 1.664200
9.255400 1.869800
9.278000 2.033200
9.300600 2.232000
9.323100 2.524300
9.345700 2.924600
9.368200 3.249300
9.390800 3.538600
9.413300 3.635900
9.435900 3.701700
9.458400 3.862300
9.481000 3.870400
9.503500 3.901400
9.526100 3.813100
9.548700 3.769000
9.571200 3.497500
9.593800 3.376300
9.616300 3.123700
9.638900 2.620400
9.661400 2.403800
9.684000 2.066300
9.706500 1.704400
9.729100 1.421400
9.751600 1.163700
9.774200 0.898300
9.796700 0.775100
9.819300 0.682100
9.841900 0.683400
9.864400 0.710000
9.887000 0.759100
9.909500 0.764600
9.932100 0.777300
9.954600 0.818700
9.977200 0.867400
9.999700 0.951000
10.022300 1.099200
10.044800 1.222100
10.067400 1.382300
10.089900 1.501000
10.112500 1.641100
10.135100 1.783100
10.157600 1.855800
10.180200 2.101100
10.202700 2.228200
10.225300 2.382200
10.247800 2.531800
10.270400 2.642000
10.292900 2.957300
10.315500 3.293700
10.338000 3.505500
10.360600 3.572300
10.383200 3.336500
10.405700 3.180600
10.428300 2.987700
10.450800 2.740900
10.473400 2.575300
10.495900 2.482600
10.518500 2.477600
10.541000 2.391300
10.563600 2.307800
10.586100 2.206700
10.608700 2.095600
10.631200 2.070900
10.653800 2.062000
10.676400 2.037000
10.698900 2.040400
10.721500 2.028800
10.744000 2.106600
10.766600 2.217600
10.789100 2.106000
10.811700 2.099600
10.834200 2.068400
10.856800 2.047700
10.879300 2.047100
10.901900 2.063200
10.924400 2.136300
10.947000 2.142700
10.969600 2.104200
10.992100 2.079400
11.014700 2.101100
11.037200 2.123700
11.059800 2.147200
11.082300 2.152400
11.104900 2.175700
11.127400 2.220400
11.150000 2.254500
11.172500 2.309100
11.195100 2.419800
11.217700 2.454200
11.240200 2.567000
11.262800 2.636900
11.285300 2.634300
11.307900 2.525300
11.330400 2.502300
11.353000 2.531700
11.375500 2.669100
11.398100 2.709100
11.420600 2.641300
11.443200 2.641900
11.465700 2.556600
11.488300 2.414100
11.510900 2.272400
11.533400 2.138000
11.556000 2.060900
11.578500 2.065200
11.601100 2.120100
11.623600 2.202300
11.646200 2.338200
11.668700 2.383700
11.691300 2.437100
11.713800 2.489200
11.736400 2.471700
11.758900 2.647900
11.781500 2.611400
11.804100 2.560800
11.826600 2.480100
11.849200 2.444900
11.871700 2.322500
11.894300 2.199400
11.916800 2.040200
11.939400 1.983600
11.961900 1.966800
11.984500 1.951900
12.007000 1.894700
12.029600 1.870500
12.052200 1.885300
12.074700 1.946200
12.097300 1.910600
12.119800 1.900400
12.142400 1.978500
12.164900 2.057100
12.187500 2.188900
12.210000 2.249500
12.232600 2.288500
12.255100 2.284700
12.277700 2.344200
12.300200 2.426600
12.322800 2.400600
12.345400 2.431500
12.367900 2.531300
12.390500 2.555700
12.413000 2.508600
12.435600 2.421500
12.458100 2.396100
12.480700 2.336600
12.503200 2.290600
12.525800 2.300200
12.548300 2.095700
12.570900 1.987600
12.593400 1.937400
12.616000 1.872900
12.638600 1.849500
12.661100 1.849200
12.683700 1.905600
12.706200 1.916900
12.728800 1.926000
12.751300 1.876500
12.773900 1.911300
12.796400 1.939000
12.819000 1.970300
12.841500 2.072900
12.864100 2.204400
12.886700 2.270400
12.909200 2.256800
12.931800 2.241800
12.954300 2.291100
12.976900 2.353800
12.999400 2.423300
13.022000 2.505200
13.044500 2.624000
13.067100 2.839400
13.089600 2.999700
13.112200 3.076000
13.134700 3.139900
13.157300 3.145900
13.179900 3.185300
13.202400 3.212100
13.225000 3.216900
13.247500 3.089000
13.270100 2.849500
13.292600 2.725600
13.315200 2.657000
13.337700 2.592300
13.360300 2.568200
13.382800 2.554000
13.405400 2.595500
13.427900 2.630500
13.450500 2.631300
13.473100 2.684900
13.495600 2.773800
13.518200 2.897600
13.540700 3.036600
13.563300 3.090800
13.585800 3.096200
13.608400 3.087200
13.630900 3.025000
13.653500 2.978000
13.676000 2.861400
13.698600 2.745900
13.721200 2.675100
13.743700 2.665700
13.766300 2.675200
13.788800 2.699100
13.811400 2.723800
13.833900 2.711700
13.856500 2.732100
13.879000 2.660500
13.901600 2.560900
13.924100 2.496100
13.946700 2.438000
13.969200 2.483300
13.991800 2.418700
14.014400 2.419100
14.036900 2.306500
14.059500 2.243600
14.082000 2.248900
14.104600 2.289400
14.127100 2.309800
14.149700 2.292000
14.172200 2.256900
14.194800 2.202600
14.217300 2.209800
14.239900 2.203500
14.262400 2.249900
14.285000 2.241600
14.307600 2.255400
14.330100 2.222300
14.352700 2.187100
14.375200 2.233100
14.397800 2.242300
14.420300 2.262800
14.442900 2.264800
14.465400 2.288400
14.488000 2.317800
14.510500 2.348700
14.533100 2.398500
14.555700 2.433800
14.578200 2.489000
14.600800 2.587100
14.623300 2.697700
14.645900 2.781800
14.668400 2.853800
14.691000 2.935800
14.713500 2.968000
14.736100 3.050800
14.758600 3.039000
14.781200 3.044500
14.803700 2.993500
14.826300 2.957500
14.848900 2.943800
14.871400 2.909200
14.894000 2.847000
14.916500 2.743900
14.939100 2.725200
14.961600 2.696900
14.984200 2.752200
15.006700 2.878800
15.029300 2.953900
15.051800 2.861000
15.074400 2.725500
15.096900 2.677300
15.119500 2.638800
15.142100 2.599600
15.164600 2.614000
15.187200 2.619900
15.209700 2.668200
15.232300 2.717900
15.254800 2.759100
15.277400 2.787200
15.299900 2.819100
15.322500 2.791200
15.345000 2.790200
15.367600 2.794900
15.390200 2.768500
15.412700 2.764500
15.435300 2.738700
15.457800 2.802400
15.480400 2.830900
15.502900 2.852500
15.525500 2.815100
15.548000 2.731400
15.570600 2.763200
15.593100 2.802200
15.615700 2.840400
15.638200 2.841100
15.660800 2.881500
15.683400 2.964100
15.705900 3.005400
15.728500 3.033700
15.751000 2.988400
15.773600 2.820400
15.796100 2.699600
15.818700 2.543700
15.841200 2.460300
15.863800 2.322300
15.886300 2.264100
15.908900 2.123100
15.931400 2.020200
15.954000 2.005400
15.976600 2.051000
15.999100 2.123500
16.021700 2.219700
16.044200 2.350000
16.066800 2.565800
16.089300 2.884000
16.111900 3.116600
16.134400 3.328200
16.157000 3.466400
16.179500 3.492400
16.202100 3.596800
16.224700 3.732700
16.247200 3.809800
16.269800 3.887600
16.292300 3.854400
16.314900 3.717800
16.337400 3.574500
16.360000 3.489000
16.382500 3.387700
16.405100 3.262300
16.427600 3.106700
16.450200 3.030900
16.472700 3.013700
16.495300 3.006300
16.517900 3.070200
16.540400 3.029700
16.563000 3.020400
16.585500 3.111200
16.608100 3.348800
16.630600 3.617700
16.653200 3.801300
16.675700 3.959200
16.698300 4.137500
16.720800 4.122100
16.743400 4.155600
16.765900 4.256900
16.788500 4.241400
16.811100 4.267200
16.833600 4.351100
16.856200 4.250900
16.878700 3.985500
16.901300 3.663700
16.923800 3.448900
16.946400 3.274900
16.968900 3.052500
16.991500 2.881200
17.014000 2.810900
17.036600 2.692700
17.059200 2.649800
17.081700 2.681000
17.104300 2.729700
17.126800 2.854200
17.149400 2.901300
17.171900 2.911500
17.194500 3.036800
17.217000 3.130500
17.239600 3.201600
17.262100 3.316700
17.284700 3.350600
17.307200 3.262400
17.329800 3.167500
17.352400 3.110400
17.374900 3.114400
17.397500 3.136100
17.420000 3.203700
17.442600 3.333400
17.465100 3.494000
17.487700 3.418100
17.510200 3.322700
17.532800 3.258900
17.555300 3.342400
17.577900 3.531900
17.600400 3.522300
17.623000 3.345500
17.645600 3.288300
17.668100 3.287100
17.690700 3.344300
17.713200 3.302900
17.735800 3.265600
17.758300 3.215200
17.780900 3.141500
17.803400 3.082500
17.826000 3.001200
17.848500 2.913400
17.871100 2.926600
17.893700 2.979500
17.916200 3.019400
17.938800 3.049600
17.961300 3.078400
17.983900 3.059600
18.006400 3.037900
18.029000 3.027000
18.051500 3.025400
18.074100 3.053400
18.096600 3.128700
18.119200 3.225000
18.141700 3.339700
18.164300 3.488200
18.186900 3.655000
18.209400 3.741100
18.232000 3.771500
18.254500 3.752000
18.277100 3.815100
18.299600 4.013300
18.322200 3.914500
18.344700 3.905000
18.367300 3.855400
18.389800 3.638300
18.412400 3.417900
18.434900 3.300000
18.457500 3.113400
18.480100 2.937400
18.502600 2.689100
18.525200 2.470200
18.547700 2.269200
18.570300 2.175900
18.592800 2.124700
18.615400 2.097300
18.637900 2.106500
18.660500 2.144700
18.683000 2.157200
18.705600 2.208000
18.728200 2.318000
18.750700 2.491000
18.773300 2.711500
18.795800 2.902800
18.818400 3.103600
18.840900 3.251000
18.863500 3.477600
18.886000 3.638600
18.908600 3.791400
18.931100 4.043400
18.953700 4.131300
18.976200 4.064000
18.998800 3.987700
19.021400 3.826800
19.043900 3.596000
19.066500 3.390900
19.089000 3.223000
19.111600 3.117600
19.134100 3.083900
19.156700 3.043100
19.179200 3.025500
19.201800 3.064500
19.224300 3.048600
19.246900 2.980300
19.269400 2.916500
19.292000 2.869900
19.314600 2.869600
19.337100 2.852300
19.359700 2.843100
19.382200 2.914200
19.404800 2.942500
19.427300 2.995100
19.449900 3.116200
19.472400 3.268400
19.495000 3.442000
19.517500 3.381300
19.540100 3.433700
19.562700 3.544800
19.585200 3.614000
19.607800 3.687200
19.630300 3.640200
19.652900 3.628400
19.675400 3.560100
19.698000 3.448200
19.720500 3.322200
19.743100 3.161400
19.765600 2.997700
19.788200 3.006500
19.810700 3.030500
19.833300 3.151600
19.855900 3.162200
19.878400 3.102100
19.901000 3.078400
19.923500 3.125200
19.946100 2.980600
19.968600 3.043500
19.991200 3.135000
20.013700 3.336100
20.036300 3.541800
20.058800 3.712000
20.081400 3.882500
20.103900 3.993000
20.126500 4.109700
20.149100 4.152500
20.171600 4.138600
20.194200 4.024000
20.216700 4.012700
20.239300 3.922900
20.261800 3.793100
20.284400 3.762600
20.306900 3.461600
20.329500 3.271800
20.352000 3.133900
20.374600 3.073600
20.397200 3.061700
20.419700 3.107000
20.442300 3.117700
20.464800 3.168000
20.487400 3.180700
20.509900 3.199100
20.532500 3.264500
20.555000 3.347900
20.577600 3.390800
20.600100 3.435600
20.622700 3.535600
20.645200 3.414600
20.667800 3.385600
20.690400 3.363500
20.712900 3.375300
20.735500 3.299600
20.758000 3.169600
20.780600 3.064100
20.803100 2.912600
20.825700 2.770900
20.848200 2.668500
20.870800 2.597000
20.893300 2.555500
20.915900 2.486000
20.938400 2.487800
20.961000 2.527300
20.983600 2.597200
21.006100 2.670400
21.028700 2.759400
21.051200 2.793900
21.073800 2.768400
21.096300 2.753100
21.118900 2.767300
21.141400 2.789500
21.164000 2.834100
21.186500 2.906800
21.209100 3.002900
21.231700 3.121400
21.254200 3.242400
21.276800 3.418300
21.299300 3.522400
21.321900 3.470700
21.344400 3.498800
21.367000 3.586000
21.389500 3.577900
21.412100 3.498200
21.434600 3.467600
21.457200 3.444600
21.479700 3.412300
21.502300 3.365200
21.524900 3.336200
21.547400 3.362200
21.570000 3.301200
21.592500 3.221700
21.615100 3.228800
21.637600 3.200100
21.660200 3.179200
21.682700 3.226300
21.705300 3.235700
21.727800 3.241700
21.750400 3.233000
21.772900 3.127100
21.795500 3.254700
21.818100 3.337500
21.840600 3.377600
21.863200 3.399000
21.885700 3.318200
21.908300 3.319600
21.930800 3.318600
21.953400 3.334400
21.975900 3.237000
21.998500 3.166400
22.021000 3.067300
22.043600 2.998900
22.066200 2.973800
22.088700 2.932600
22.111300 2.915900
22.133800 2.989500
22.156400 3.107700
22.178900 3.213700
22.201500 3.319000
22.224000 3.445100
22.246600 3.561800
22.269100 3.779100
22.291700 4.000000
22.314200 4.048900
22.336800 4.008500
22.359400 3.925800
22.381900 3.826600
22.404500 3.707200
22.427000 3.641500
22.449600 3.544900
22.472100 3.484700
22.494700 3.472500
22.517200 3.485000
22.539800 3.494200
22.562300 3.509000
22.584900 3.518600
22.607400 3.572000
22.630000 3.617200
22.652600 3.613600
22.675100 3.631300
22.697700 3.649800
22.720200 3.697700
22.742800 3.695700
22.765300 3.594200
22.787900 3.504200
22.810400 3.497500
22.833000 3.607500
22.855500 3.611600
22.878100 3.548000
22.900700 3.498600
22.923200 3.448900
22.945800 3.452900
22.968300 3.495400
22.990900 3.512900
23.013400 3.609600
23.036000 3.603500
23.058500 3.614900
23.081100 3.638400
23.103600 3.616100
23.126200 3.596800
23.148700 3.620400
23.171300 3.645700
23.193900 3.607200
23.216400 3.542800
23.239000 3.468800
23.261500 3.423400
23.284100 3.456600
23.306600 3.369800
23.329200 3.338700
23.351700 3.404100
23.374300 3.398000
23.396800 3.344900
23.419400 3.327200
23.441900 3.261200
23.464500 3.227500
23.487100 3.196100
23.509600 3.164400
23.532200 3.184000
23.554700 3.165200
23.577300 3.141900
23.599800 3.125400
23.622400 3.162500
23.644900 3.269000
23.667500 3.318600
23.690000 3.314600
23.712600 3.366800
23.735200 3.483100
23.757700 3.648300
23.780300 3.812500
23.802800 3.970600
23.825400 4.013700
23.847900 3.991100
23.870500 3.869900
23.893000 3.769200
23.915600 3.703600
23.938100 3.640600
23.960700 3.622400
23.983200 3.445900
24.005800 3.345700
24.028400 3.288200
24.050900 3.265300
24.073500 3.233900
24.096000 3.207600
24.118600 3.195600
24.141100 3.225700
24.163700 3.263500
24.186200 3.338700
24.208800 3.413500
24.231300 3.484400
24.253900 3.538300
24.276400 3.599000
24.299000 3.714400
24.321600 3.822200
24.344100 3.859300
24.366700 3.865800
24.389200 3.776400
24.411800 3.637300
24.434300 3.607300
24.456900 3.492100
24.479400 3.486200
24.502000 3.429600
24.524500 3.347400
24.547100 3.323900
24.569700 3.318900
24.592200 3.319300
24.614800 3.345800
24.637300 3.345100
24.659900 3.313100
24.682400 3.255400
24.705000 3.204900
24.727500 3.189400
24.750100 3.159700
24.772600 3.158800
24.795200 3.194200
24.817700 3.198300
24.840300 3.197200
24.862900 3.255300
24.885400 3.344800
24.908000 3.366000
24.930500 3.433700
24.953100 3.505000
24.975600 3.547000
24.998200 3.512400
25.020700 3.493400
25.043300 3.422500
25.065800 3.421800
25.088400 3.454500
25.110900 3.488600
25.133500 3.491300
25.156100 3.470200
25.178600 3.442300
25.201200 3.411200
25.223700 3.394000
25.246300 3.366800
25.268800 3.420300
25.291400 3.412500
25.313900 3.469000
25.336500 3.469400
25.359000 3.433700
25.381600 3.455200
25.404200 3.356700
25.426700 3.312700
25.449300 3.282400
25.471800 3.283400
25.494400 3.345800
25.516900 3.382600
25.539500 3.381300
25.562000 3.490400
25.584600 3.574300
25.607100 3.676400
25.629700 3.668500
25.652200 3.652100
25.674800 3.642800
25.697400 3.616700
25.719900 3.600700
25.742500 3.528700
25.765000 3.477100
25.787600 3.385100
25.810100 3.274200
25.832700 3.209700
25.855200 3.209500
25.877800 3.240700
25.900300 3.277000
25.922900 3.290600
25.945400 3.338900
25.968000 3.455700
25.990600 3.559500
26.013100 3.551900
26.035700 3.510900
26.058200 3.437400
26.080800 3.291700
26.103300 3.151400
26.125900 3.042300
26.148400 2.978700
26.171000 2.961700
26.193500 3.005400
26.216100 2.979500
26.238700 2.968000
26.261200 2.979500
26.283800 3.003300
26.306300 3.042100
26.328900 3.120400
26.351400 3.190200
26.374000 3.333300
26.396500 3.319400
26.419100 3.308200
26.441600 3.356000
26.464200 3.355700
26.486700 3.327500
26.509300 3.322000
26.531900 3.363500
26.554400 3.444600
26.577000 3.474200
26.599500 3.458400
26.622100 3.450700
26.644600 3.297500
26.667200 3.168200
26.689700 3.082900
26.712300 2.999400
26.734800 2.921300
26.757400 2.881500
26.779900 2.862200
26.802500 2.849500
26.825100 2.822500
26.847600 2.733300
26.870200 2.708200
26.892700 2.714200
26.915300 2.721400
26.937800 2.726900
26.960400 2.693100
26.982900 2.702100
27.005500 2.738200
27.028000 2.835000
27.050600 2.939000
27.073200 2.986300
27.095700 3.115000
27.118300 3.093600
27.140800 3.086100
27.163400 3.131400
27.185900 3.199900
27.208500 3.260100
27.231000 3.329800
27.253600 3.336000
27.276100 3.395500
27.298700 3.529600
27.321200 3.578900
27.343800 3.586300
27.366400 3.566700
27.388900 3.549500
27.411500 3.562200
27.434000 3.618100
27.456600 3.616300
27.479100 3.514700
27.501700 3.340800
27.524200 3.170500
27.546800 3.047700
27.569300 2.934100
27.591900 2.897500
27.614400 2.874800
27.637000 2.896400
27.659600 3.056200
27.682100 3.177300
27.704700 3.274600
27.727200 3.396100
27.749800 3.467000
27.772300 3.586500
27.794900 3.656600
27.817400 3.739800
27.840000 3.758500
27.862500 3.777600
27.885100 3.841500
27.907700 3.839700
27.930200 3.879000
27.952800 3.737600
27.975300 3.649800
27.997900 3.541500
28.020400 3.463200
28.043000 3.342300
28.065500 3.333900
28.088100 3.212400
28.110600 3.115400
28.133200 3.032200
28.155700 2.981300
28.178300 2.920700
28.200900 2.894400
28.223400 2.949000
28.246000 3.073300
28.268500 3.165900
28.291100 3.317000
28.313600 3.554800
28.336200 3.711700
28.358700 3.945900
28.381300 4.168600
28.403800 4.405500
28.426400 4.514800
28.448900 4.563500
28.471500 4.576900
28.494100 4.473100
28.516600 4.414800
28.539200 4.174300
28.561700 3.975500
28.584300 3.786300
28.606800 3.590000
28.629400 3.403900
28.651900 3.136100
28.674500 3.050800
28.697000 3.000900
28.719600 2.939200
28.742200 2.922300
28.764700 3.009100
28.787300 3.042900
28.809800 3.068600
28.832400 3.109800
28.854900 3.131000
28.877500 3.173000
28.900000 3.210800
28.922600 3.308700
28.945100 3.544100
28.967700 3.786000
28.990200 3.898700
29.012800 3.914400
29.035400 3.995700
29.057900 4.033800
29.080500 4.024800
29.103000 3.923800
29.125600 3.793600
29.148100 3.704500
29.170700 3.622800
29.193200 3.574000
29.215800 3.642400
29.238300 3.724200
29.260900 3.670400
29.283400 3.623800
29.306000 3.516000
29.328600 3.490700
29.351100 3.465100
29.373700 3.442000
29.396200 3.441100
29.418800 3.440200
29.441300 3.433300
29.463900 3.410700
29.486400 3.341100
29.509000 3.322500
29.531500 3.334400
29.554100 3.349700
29.576700 3.431200
29.599200 3.494800
29.621800 3.630500
29.644300 3.677800
29.666900 3.705600
29.689400 3.665800
29.712000 3.749400
29.734500 3.836400
29.757100 3.824300
29.779600 3.834200
29.802200 3.821100
29.824700 3.693300
29.847300 3.592500
29.869900 3.593100
29.892400 3.548000
29.915000 3.501600
29.937500 3.436600
29.960100 3.415400
29.982600 3.355200
30.005200 3.387300
30.027700 3.409900
30.050300 3.463900
30.072800 3.587100
30.095400 3.841100
30.117900 4.000600
30.140500 4.142500
30.163100 4.230800
30.185600 4.075200
30.208200 3.852600
30.230700 3.725600
30.253300 3.663800
30.275800 3.571500
30.298400 3.528800
30.320900 3.498900
30.343500 3.487300
30.366000 3.504000
30.388600 3.575000
30.411200 3.680700
30.433700 3.826300
30.456300 3.957600
30.478800 3.984300
30.501400 4.047200
30.523900 3.945400
30.546500 3.967900
30.569000 3.877800
30.591600 3.904600
30.614100 4.074300
30.636700 4.049700
30.659200 3.985600
30.681800 3.978800
30.704400 3.900500
30.726900 3.787400
30.749500 3.686800
30.772000 3.574200
30.794600 3.416200
30.817100 3.241600
30.839700 3.142000
30.862200 3.102500
30.884800 3.144700
30.907300 3.235700
30.929900 3.384100
30.952400 3.587400
30.975000 3.681400
30.997600 3.829900
31.020100 4.205000
31.042700 4.539500
31.065200 4.665900
31.087800 4.603500
31.110300 4.460900
31.132900 4.423200
31.155400 4.199900
31.178000 4.182600
31.200500 4.006700
31.223100 3.832200
31.245700 3.723600
31.268200 3.598500
31.290800 3.610900
31.313300 3.638700
31.335900 3.590800
31.358400 3.456300
31.381000 3.463000
31.403500 3.511500
31.426100 3.651600
31.448600 3.718100
31.471200 3.651400
31.493700 3.540600
31.516300 3.567000
31.538900 3.542400
31.561400 3.487800
31.584000 3.525900
31.606500 3.530200
31.629100 3.546100
31.651600 3.594600
31.674200 3.344000
31.696700 3.234500
31.719300 3.232800
31.741800 3.386400
31.764400 3.327500
31.786900 3.310800
31.809500 3.238400
31.832100 3.287400
31.854600 3.391500
31.877200 3.358200
31.899700 3.384500
31.922300 3.375000
31.944800 3.336300
31.967400 3.265100
31.989900 3.259500
32.012500 3.230400
32.035000 3.175400
32.057600 3.093200
32.080100 3.047300
32.102700 2.962300
32.125300 2.795700
32.147800 2.529400
32.170400 2.248400
32.192900 1.931900
32.215500 1.549200
32.238000 1.304900
32.260600 1.140800
32.283100 1.025600
32.305700 0.853000
32.328200 0.768000
32.350800 0.673800
32.373400 0.590800
32.395900 0.528300
32.418500 0.478100
32.441000 0.459800
32.463600 0.387100
32.486100 0.332400
32.508700 0.280600
32.531200 0.241300
32.553800 0.205200
32.576300 0.169800
32.598900 0.144200
32.621400 0.122500
32.644000 0.107500
32.666600 0.098400
32.689100 0.090200
32.711700 0.082500
32.734200 0.075300
32.756800 0.068700
32.779300 0.062800
32.801900 0.057400
32.824400 0.052300
32.847000 0.047400
32.869500 0.042200
32.892100 0.036800
32.914600 0.031200
32.937200 0.025400
32.959800 0.019300
32.982300 0.013500
33.004900 0.008700
33.027400 0.005000
33.050000 0.002300
33.072500 0.000600
33.095100 0.000000
33.117600 0.000000
33.140200 0.000000
33.162700 0.000000
33.185300 0.000000
33.207900 0.000000
33.230400 0.000000
33.253000 0.000000
33.275500 0.000000
33.298100 0.000000
33.320600 0.000000
33.343200 0.000000
33.365700 0.000000
33.388300 0.000000
33.410800 0.000000
33.433400 0.000000
33.455900 0.000000
33.478500 0.000000
33.501100 0.000000
33.523600 0.000000
33.546200 0.000000
33.568700 0.000000
33.591300 0.000000
33.613800 0.000000
33.636400 0.000000
33.658900 0.000000
33.681500 0.000000
33.704000 0.000000
33.726600 0.000000
33.749100 0.000000
33.771700 0.000000
33.794300 0.000000
33.816800 0.000000
33.839400 0.000000
33.861900 0.000000
33.884500 0.000000
33.907000 0.000000
33.929600 0.000000
33.952100 0.000000
33.974700 0.000000
33.997200 0.000000
34.019800 0.000000
34.042400 0.000000
34.064900 0.000000
34.087500 0.000000
34.110000 0.000000
34.132600 0.000000
34.155100 0.000000
34.177700 0.000000
34.200200 0.000000
34.222800 0.000000
34.245300 0.000000
34.267900 0.000000
34.290400 0.000000
34.313000 0.000000
34.335600 0.000000
34.358100 0.000000
34.380700 0.000000
34.403200 0.000000
34.425800 0.000000
34.448300 0.000000
34.470900 0.000000
34.493400 0.000000
34.516000 0.000000
34.538500 0.000000
34.561100 0.000000
34.583600 0.000000
34.606200 0.000000
34.628800 0.000000
34.651300 0.000000
34.673900 0.000000
34.696400 0.000000
34.719000 0.000000
34.741500 0.000000
34.764100 0.000000
34.786600 0.000000
34.809200 0.000000
34.831700 0.000000
34.854300 0.000000
34.876900 0.000000
34.899400 0.000000
34.922000 0.000000
34.944500 0.000000
34.967100 0.000000
34.989600 0.000000
35.012200 0.000000
35.034700 0.000000
35.057300 0.000000
35.079800 0.000000
35.102400 0.000000
35.124900 0.000000
35.147500 0.000000
e
