set title 'mp-35216 - Density of States'
set xlabel 'Energy (eV)'
set ylabel 'DOS (states/eV)'
set grid
set xrange [-10:10]
set yrange [0:5.644]
set xzeroaxis lt -1
set terminal png size 800,600
set output 'mp-35216_dos_gnuplot.png'
plot '-' using 1:2 with lines title 'DOS'
-8.735200 0.000000
-8.720100 0.000000
-8.705000 0.000000
-8.689900 0.000000
-8.674900 0.000000
-8.659800 0.000000
-8.644700 0.000000
-8.629600 0.000000
-8.614500 0.000000
-8.599400 0.000000
-8.584300 0.000000
-8.569200 0.000000
-8.554100 0.000000
-8.539000 0.000000
-8.523900 0.000000
-8.508800 0.000000
-8.493700 0.000000
-8.478600 0.000000
-8.463500 0.000000
-8.448400 0.000000
-8.433300 0.000000
-8.418200 0.000000
-8.403100 0.000000
-8.388100 0.000000
-8.373000 0.000000
-8.357900 0.000000
-8.342800 0.000000
-8.327700 0.000000
-8.312600 0.000000
-8.297500 0.000000
-8.282400 0.000000
-8.267300 0.000000
-8.252200 0.000000
-8.237100 0.000000
-8.222000 0.000000
-8.206900 0.000000
-8.191800 0.000000
-8.176700 0.000000
-8.161600 0.000000
-8.146500 0.000000
-8.131400 0.000000
-8.116300 0.000000
-8.101300 0.000000
-8.086200 0.000000
-8.071100 0.000000
-8.056000 0.000000
-8.040900 0.000000
-8.025800 0.000000
-8.010700 0.000000
-7.995600 0.000000
-7.980500 0.000000
-7.965400 0.000000
-7.950300 0.000000
-7.935200 0.000000
-7.920100 0.000000
-7.905000 0.000000
-7.889900 0.000000
-7.874800 0.000000
-7.859700 0.000000
-7.844600 0.000000
-7.829500 0.000000
-7.814500 0.000000
-7.799400 0.000000
-7.784300 0.000000
-7.769200 0.000000
-7.754100 0.000000
-7.739000 0.000000
-7.723900 0.000000
-7.708800 0.000000
-7.693700 0.000000
-7.678600 0.000000
-7.663500 0.000000
-7.648400 0.000000
-7.633300 0.000000
-7.618200 0.000000
-7.603100 0.000000
-7.588000 0.000000
-7.572900 0.000000
-7.557800 0.000000
-7.542700 0.000000
-7.527700 0.000000
-7.512600 0.000000
-7.497500 0.000000
-7.482400 0.000000
-7.467300 0.000000
-7.452200 0.000000
-7.437100 0.000000
-7.422000 0.000000
-7.406900 0.000000
-7.391800 0.000000
-7.376700 0.000000
-7.361600 0.000100
-7.346500 0.019600
-7.331400 0.067400
-7.316300 0.126100
-7.301200 0.194000
-7.286100 0.271000
-7.271000 0.357000
-7.255900 0.447800
-7.240900 0.412600
-7.225800 0.427800
-7.210700 0.444200
-7.195600 0.469000
-7.180500 0.498200
-7.165400 0.527900
-7.150300 0.556200
-7.135200 0.582600
-7.120100 0.610200
-7.105000 0.640100
-7.089900 0.671400
-7.074800 0.703300
-7.059700 0.736000
-7.044600 0.781200
-7.029500 0.826300
-7.014400 0.865300
-6.999300 0.893900
-6.984200 0.911900
-6.969100 0.915400
-6.954100 0.903200
-6.939000 0.877000
-6.923900 0.860400
-6.908800 0.866400
-6.893700 0.872700
-6.878600 0.879000
-6.863500 0.885100
-6.848400 0.891000
-6.833300 0.896900
-6.818200 0.902600
-6.803100 0.908000
-6.788000 0.913200
-6.772900 0.917900
-6.757800 0.922400
-6.742700 0.924500
-6.727600 0.924800
-6.712500 0.925300
-6.697400 0.926300
-6.682300 0.927700
-6.667300 0.930300
-6.652200 0.991300
-6.637100 1.036100
-6.622000 1.070500
-6.606900 1.089300
-6.591800 1.107800
-6.576700 1.127600
-6.561600 1.148200
-6.546500 1.169600
-6.531400 1.191900
-6.516300 1.215300
-6.501200 1.237700
-6.486100 1.257700
-6.471000 1.275600
-6.455900 1.292100
-6.440800 1.311400
-6.425700 1.331300
-6.410600 1.351100
-6.395600 1.370600
-6.380500 1.386800
-6.365400 1.403100
-6.350300 1.419500
-6.335200 1.436700
-6.320100 1.456600
-6.305000 1.476800
-6.289900 1.497300
-6.274800 1.518000
-6.259700 1.538600
-6.244600 1.559300
-6.229500 1.579900
-6.214400 1.600500
-6.199300 1.621200
-6.184200 1.642900
-6.169100 1.665300
-6.154000 1.687700
-6.138900 1.710100
-6.123800 1.732500
-6.108800 1.754900
-6.093700 1.779100
-6.078600 1.805000
-6.063500 1.832200
-6.048400 1.860500
-6.033300 1.890100
-6.018200 1.921000
-6.003100 1.953200
-5.988000 1.986800
-5.972900 2.021600
-5.957800 2.057900
-5.942700 2.095900
-5.927600 2.136400
-5.912500 2.178800
-5.897400 2.226000
-5.882300 2.285000
-5.867200 2.356700
-5.852100 2.465600
-5.837000 2.582700
-5.822000 2.702800
-5.806900 2.795900
-5.791800 2.863400
-5.776700 2.911700
-5.761600 2.941400
-5.746500 2.953000
-5.731400 2.948300
-5.716300 2.927500
-5.701200 2.884600
-5.686100 2.822500
-5.671000 2.737500
-5.655900 2.655200
-5.640800 2.615500
-5.625700 2.622100
-5.610600 2.742900
-5.595500 2.891400
-5.580400 3.032300
-5.565300 3.417400
-5.550200 2.866400
-5.535200 2.599200
-5.520100 2.468000
-5.505000 2.447600
-5.489900 2.456900
-5.474800 2.475100
-5.459700 2.501200
-5.444600 2.535000
-5.429500 2.576600
-5.414400 2.736800
-5.399300 2.900800
-5.384200 2.744600
-5.369100 2.547000
-5.354000 2.537800
-5.338900 2.549000
-5.323800 2.560200
-5.308700 2.582400
-5.293600 2.604400
-5.278500 2.627400
-5.263400 2.675100
-5.248400 2.709100
-5.233300 2.733400
-5.218200 2.786000
-5.203100 2.853200
-5.188000 2.950500
-5.172900 3.037400
-5.157800 3.113100
-5.142700 3.181200
-5.127600 3.198900
-5.112500 3.067600
-5.097400 2.740200
-5.082300 2.404600
-5.067200 2.101200
-5.052100 1.981200
-5.037000 1.873700
-5.021900 1.795600
-5.006800 1.986800
-4.991700 1.731600
-4.976600 1.441700
-4.961600 0.684000
-4.946500 0.582400
-4.931400 0.608500
-4.916300 0.745800
-4.901200 0.896100
-4.886100 1.076300
-4.871000 1.252700
-4.855900 1.518400
-4.840800 1.952700
-4.825700 2.471900
-4.810600 3.032500
-4.795500 3.428600
-4.780400 3.886300
-4.765300 4.224400
-4.750200 4.563000
-4.735100 4.482200
-4.720000 4.370200
-4.704900 4.007800
-4.689800 3.705900
-4.674800 3.822800
-4.659700 4.235100
-4.644600 3.923800
-4.629500 3.352600
-4.614400 3.342700
-4.599300 3.311700
-4.584200 3.259800
-4.569100 3.187200
-4.554000 3.026500
-4.538900 2.842900
-4.523800 2.775800
-4.508700 2.728400
-4.493600 2.702800
-4.478500 2.691800
-4.463400 2.681900
-4.448300 2.666800
-4.433200 2.619900
-4.418100 2.599500
-4.403000 2.585100
-4.388000 2.525100
-4.372900 2.434000
-4.357800 2.424600
-4.342700 2.404800
-4.327600 2.382900
-4.312500 2.359100
-4.297400 2.334200
-4.282300 2.308200
-4.267200 2.280900
-4.252100 2.252500
-4.237000 2.230600
-4.221900 2.243600
-4.206800 2.287100
-4.191700 2.375400
-4.176600 2.546100
-4.161500 2.718600
-4.146400 2.894100
-4.131300 3.083800
-4.116200 3.273100
-4.101200 3.460500
-4.086100 3.556600
-4.071000 3.241500
-4.055900 2.962800
-4.040800 2.570400
-4.025700 2.396700
-4.010600 2.242000
-3.995500 2.127100
-3.980400 2.033300
-3.965300 1.961700
-3.950200 1.893000
-3.935100 1.826600
-3.920000 1.783900
-3.904900 1.693800
-3.889800 1.608700
-3.874700 1.530500
-3.859600 1.505700
-3.844500 1.421800
-3.829400 1.278800
-3.814400 1.160900
-3.799300 1.144100
-3.784200 1.127400
-3.769100 1.110700
-3.754000 1.094000
-3.738900 1.078800
-3.723800 1.065900
-3.708700 1.054200
-3.693600 1.043700
-3.678500 1.034200
-3.663400 1.025600
-3.648300 1.017600
-3.633200 1.009900
-3.618100 1.006500
-3.603000 1.008000
-3.587900 1.010200
-3.572800 1.012100
-3.557700 1.009800
-3.542600 1.002700
-3.527600 0.992900
-3.512500 0.983000
-3.497400 0.973100
-3.482300 0.963300
-3.467200 0.953200
-3.452100 0.942700
-3.437000 0.931700
-3.421900 0.920600
-3.406800 0.912000
-3.391700 0.917600
-3.376600 0.938700
-3.361500 0.960700
-3.346400 0.975500
-3.331300 0.982700
-3.316200 0.974900
-3.301100 0.952300
-3.286000 0.915100
-3.270900 0.905400
-3.255800 0.919900
-3.240800 0.922600
-3.225700 0.913600
-3.210600 0.892800
-3.195500 0.860300
-3.180400 0.815500
-3.165300 0.777800
-3.150200 0.748200
-3.135100 0.720300
-3.120000 0.693000
-3.104900 0.667000
-3.089800 0.644200
-3.074700 0.624600
-3.059600 0.608200
-3.044500 0.595100
-3.029400 0.583900
-3.014300 0.572600
-2.999200 0.561400
-2.984100 0.550200
-2.969000 0.538900
-2.954000 0.527700
-2.938900 0.516400
-2.923800 0.505300
-2.908700 0.494400
-2.893600 0.483500
-2.878500 0.472400
-2.863400 0.461100
-2.848300 0.449700
-2.833200 0.437000
-2.818100 0.423900
-2.803000 0.411500
-2.787900 0.399700
-2.772800 0.388300
-2.757700 0.377200
-2.742600 0.366500
-2.727500 0.355900
-2.712400 0.345300
-2.697300 0.334800
-2.682200 0.324300
-2.667200 0.314000
-2.652100 0.303700
-2.637000 0.293500
-2.621900 0.283300
-2.606800 0.273200
-2.591700 0.263200
-2.576600 0.253400
-2.561500 0.243800
-2.546400 0.234600
-2.531300 0.225500
-2.516200 0.216600
-2.501100 0.207900
-2.486000 0.199400
-2.470900 0.191000
-2.455800 0.182700
-2.440700 0.181200
-2.425600 0.189100
-2.410500 0.166500
-2.395400 0.144500
-2.380400 0.123200
-2.365300 0.102600
-2.350200 0.082700
-2.335100 0.063500
-2.320000 0.045100
-2.304900 0.029000
-2.289800 0.016500
-2.274700 0.007400
-2.259600 0.002000
-2.244500 0.000000
-2.229400 0.000000
-2.214300 0.000000
-2.199200 0.000000
-2.184100 0.000000
-2.169000 0.000000
-2.153900 0.000000
-2.138800 0.000000
-2.123700 0.000000
-2.108600 0.000000
-2.093600 0.000000
-2.078500 0.000000
-2.063400 0.000000
-2.048300 0.000000
-2.033200 0.000000
-2.018100 0.000000
-2.003000 0.000000
-1.987900 0.000000
-1.972800 0.000000
-1.957700 0.000000
-1.942600 0.000000
-1.927500 0.000000
-1.912400 0.000000
-1.897300 0.000000
-1.882200 0.000000
-1.867100 0.000000
-1.852000 0.000000
-1.836900 0.000000
-1.821800 0.000000
-1.806800 0.000000
-1.791700 0.000000
-1.776600 0.000000
-1.761500 0.000000
-1.746400 0.000000
-1.731300 0.000000
-1.716200 0.000000
-1.701100 0.000000
-1.686000 0.000000
-1.670900 0.000000
-1.655800 0.000000
-1.640700 0.000000
-1.625600 0.000000
-1.610500 0.000000
-1.595400 0.000000
-1.580300 0.000000
-1.565200 0.000000
-1.550100 0.000000
-1.535000 0.000000
-1.520000 0.000000
-1.504900 0.000000
-1.489800 0.000000
-1.474700 0.000000
-1.459600 0.000000
-1.444500 0.000000
-1.429400 0.000000
-1.414300 0.000000
-1.399200 0.000000
-1.384100 0.000000
-1.369000 0.000000
-1.353900 0.000000
-1.338800 0.000000
-1.323700 0.000000
-1.308600 0.000000
-1.293500 0.000000
-1.278400 0.000000
-1.263300 0.000000
-1.248200 0.000000
-1.233200 0.000000
-1.218100 0.000000
-1.203000 0.000000
-1.187900 0.000000
-1.172800 0.000000
-1.157700 0.000000
-1.142600 0.000000
-1.127500 0.000000
-1.112400 0.000000
-1.097300 0.000000
-1.082200 0.000000
-1.067100 0.000000
-1.052000 0.000000
-1.036900 0.000000
-1.021800 0.000000
-1.006700 0.000000
-0.991600 0.000000
-0.976500 0.000000
-0.961400 0.000000
-0.946400 0.000000
-0.931300 0.000000
-0.916200 0.000000
-0.901100 0.000000
-0.886000 0.000000
-0.870900 0.000000
-0.855800 0.000000
-0.840700 0.000000
-0.825600 0.000000
-0.810500 0.000000
-0.795400 0.000000
-0.780300 0.000000
-0.765200 0.000000
-0.750100 0.000000
-0.735000 0.000000
-0.719900 0.000000
-0.704800 0.000000
-0.689700 0.000000
-0.674600 0.000000
-0.659600 0.000000
-0.644500 0.000000
-0.629400 0.000000
-0.614300 0.000000
-0.599200 0.000000
-0.584100 0.000000
-0.569000 0.000000
-0.553900 0.000000
-0.538800 0.000000
-0.523700 0.000000
-0.508600 0.000000
-0.493500 0.000000
-0.478400 0.000000
-0.463300 0.000000
-0.448200 0.000000
-0.433100 0.000000
-0.418000 0.000000
-0.402900 0.000000
-0.387800 0.000000
-0.372800 0.000000
-0.357700 0.000000
-0.342600 0.000000
-0.327500 0.000000
-0.312400 0.000000
-0.297300 0.000000
-0.282200 0.000000
-0.267100 0.000000
-0.252000 0.000000
-0.236900 0.000000
-0.221800 0.000000
-0.206700 0.000000
-0.191600 0.000000
-0.176500 0.000000
-0.161400 0.000000
-0.146300 0.000000
-0.131200 0.000000
-0.116100 0.000000
-0.101000 0.000000
-0.086000 0.000000
-0.070900 0.000000
-0.055800 0.000000
-0.040700 0.000000
-0.025600 0.000000
-0.010500 0.000000
0.004600 0.000000
0.019700 0.000000
0.034800 0.000000
0.049900 0.000000
0.065000 0.000000
0.080100 0.000000
0.095200 0.000000
0.110300 0.000000
0.125400 0.000000
0.140500 0.000000
0.155600 0.000000
0.170700 0.000000
0.185800 0.000000
0.200800 0.000000
0.215900 0.000000
0.231000 0.000000
0.246100 0.000000
0.261200 0.000000
0.276300 0.000000
0.291400 0.000000
0.306500 0.000000
0.321600 0.000000
0.336700 0.000000
0.351800 0.000000
0.366900 0.000000
0.382000 0.000000
0.397100 0.000000
0.412200 0.000000
0.427300 0.000000
0.442400 0.000000
0.457500 0.000000
0.472600 0.000000
0.487600 0.000000
0.502700 0.000000
0.517800 0.000000
0.532900 0.000000
0.548000 0.000000
0.563100 0.000000
0.578200 0.000000
0.593300 0.000000
0.608400 0.000000
0.623500 0.000000
0.638600 0.000000
0.653700 0.000000
0.668800 0.000000
0.683900 0.000000
0.699000 0.052100
0.714100 1.920300
0.729200 0.515900
0.744300 0.545500
0.759400 0.586700
0.774400 0.625800
0.789500 0.660600
0.804600 0.699600
0.819700 0.758600
0.834800 0.824200
0.849900 0.895300
0.865000 0.971900
0.880100 1.054100
0.895200 1.141700
0.910300 1.232700
0.925400 1.294300
0.940500 1.321400
0.955600 1.486800
0.970700 1.613500
0.985800 1.722300
1.000900 1.816800
1.016000 1.897200
1.031100 1.964700
1.046200 2.026500
1.061200 2.084300
1.076300 2.138000
1.091400 2.187500
1.106500 2.304800
1.121600 2.641400
1.136700 2.869200
1.151800 3.098000
1.166900 3.156300
1.182000 3.211500
1.197100 2.822600
1.212200 2.463000
1.227300 2.194000
1.242400 1.970800
1.257500 1.781300
1.272600 1.630900
1.287700 1.544600
1.302800 1.917500
1.317900 3.185400
1.333000 4.044200
1.348000 3.948200
1.363100 3.752400
1.378200 3.602600
1.393300 3.506000
1.408400 3.462500
1.423500 3.430500
1.438600 3.365100
1.453700 3.231900
1.468800 3.084200
1.483900 2.922600
1.499000 2.795600
1.514100 2.714100
1.529200 2.666100
1.544300 2.631500
1.559400 2.603100
1.574500 2.569000
1.589600 2.524000
1.604700 2.492600
1.619700 2.484600
1.634800 2.479600
1.649900 2.473600
1.665000 2.467600
1.680100 2.458000
1.695200 2.437600
1.710300 2.409400
1.725400 2.380100
1.740500 2.371200
1.755600 2.424500
1.770700 2.545800
1.785800 2.711000
1.800900 2.936200
1.816000 3.200300
1.831100 3.453700
1.846200 3.724600
1.861300 3.872000
1.876400 3.922200
1.891500 3.969800
1.906500 3.790900
1.921600 3.205200
1.936700 3.113400
1.951800 3.017200
1.966900 2.846800
1.982000 2.791400
1.997100 2.758500
2.012200 2.737200
2.027300 2.709300
2.042400 2.683800
2.057500 2.667100
2.072600 2.658000
2.087700 2.655700
2.102800 2.651000
2.117900 2.674200
2.133000 2.731400
2.148100 2.816100
2.163200 2.896000
2.178300 2.970100
2.193300 2.933000
2.208400 2.880300
2.223500 2.814100
2.238600 2.755600
2.253700 2.720700
2.268800 2.755500
2.283900 2.821100
2.299000 2.910400
2.314100 3.008000
2.329200 3.112400
2.344300 3.221400
2.359400 3.339100
2.374500 3.339200
2.389600 3.436400
2.404700 3.541100
2.419800 3.657300
2.434900 3.754200
2.450000 3.818000
2.465100 3.870600
2.480100 3.862700
2.495200 3.768100
2.510300 3.731000
2.525400 3.744900
2.540500 3.765100
2.555600 3.813600
2.570700 3.964200
2.585800 4.239700
2.600900 4.740600
2.616000 5.094500
2.631100 4.094800
2.646200 3.724700
2.661300 3.625400
2.676400 3.546300
2.691500 3.481600
2.706600 3.434400
2.721700 3.394000
2.736800 3.344700
2.751900 3.288900
2.766900 3.235500
2.782000 3.209600
2.797100 3.235600
2.812200 3.486800
2.827300 3.431600
2.842400 3.417500
2.857500 3.413300
2.872600 3.407000
2.887700 3.427400
2.902800 3.463300
2.917900 3.479300
2.933000 3.500300
2.948100 3.536000
2.963200 3.603400
2.978300 3.638600
2.993400 3.667300
3.008500 3.690300
3.023600 3.716000
3.038700 3.739700
3.053700 3.763800
3.068800 3.791200
3.083900 3.794600
3.099000 3.770200
3.114100 3.722000
3.129200 3.670000
3.144300 3.609600
3.159400 3.548000
3.174500 3.487500
3.189600 3.425600
3.204700 3.366200
3.219800 3.337800
3.234900 3.349200
3.250000 3.383100
3.265100 3.454000
3.280200 3.558700
3.295300 3.439600
3.310400 3.229300
3.325500 3.017600
3.340500 2.918500
3.355600 2.884500
3.370700 2.861300
3.385800 2.847100
3.400900 2.833800
3.416000 2.825200
3.431100 2.835900
3.446200 2.849500
3.461300 2.865400
3.476400 2.888900
3.491500 2.921900
3.506600 2.962200
3.521700 3.004300
3.536800 3.048700
3.551900 3.094400
3.567000 3.140600
3.582100 3.172100
3.597200 3.188700
3.612300 3.207100
3.627300 3.227700
3.642400 3.229200
3.657500 3.231000
3.672600 3.266800
3.687700 3.327500
3.702800 3.413600
3.717900 3.524500
3.733000 3.695600
3.748100 3.804700
3.763200 3.833300
3.778300 3.864300
3.793400 3.898500
3.808500 3.932900
3.823600 3.949300
3.838700 3.965500
3.853800 3.894400
3.868900 3.818600
3.884000 3.688200
3.899100 3.548300
3.914100 3.428300
3.929200 3.320000
3.944300 3.225300
3.959400 3.148200
3.974500 3.094000
3.989600 3.056300
4.004700 3.046600
4.019800 3.022200
4.034900 2.996500
4.050000 2.973400
4.065100 2.937300
4.080200 3.013400
4.095300 3.059000
4.110400 3.103400
4.125500 3.158700
4.140600 3.217600
4.155700 3.321200
4.170800 3.440900
4.185900 3.455400
4.200900 3.449500
4.216000 3.464500
4.231100 3.498700
4.246200 3.509100
4.261300 3.437000
4.276400 3.396900
4.291500 3.381100
4.306600 3.356000
4.321700 3.316700
4.336800 3.261000
4.351900 3.189500
4.367000 3.113500
4.382100 3.036500
4.397200 2.987600
4.412300 2.944500
4.427400 2.914600
4.442500 3.009600
4.457600 3.006100
4.472700 2.918700
4.487700 2.855000
4.502800 2.793600
4.517900 2.708500
4.533000 2.536800
4.548100 2.364600
4.563200 2.218800
4.578300 2.079100
4.593400 1.970300
4.608500 1.904600
4.623600 1.874200
4.638700 1.858000
4.653800 1.835800
4.668900 1.808500
4.684000 1.776100
4.699100 1.736400
4.714200 1.682000
4.729300 1.614100
4.744400 1.538400
4.759500 1.469300
4.774500 1.480400
4.789600 1.489100
4.804700 1.501000
4.819800 1.518000
4.834900 1.541500
4.850000 1.569600
4.865100 1.595500
4.880200 1.644900
4.895300 1.775000
4.910400 1.873800
4.925500 2.078200
4.940600 2.278500
4.955700 2.399400
4.970800 2.448100
4.985900 2.487500
5.001000 2.517600
5.016100 2.538800
5.031200 2.550000
5.046300 2.547600
5.061300 2.540200
5.076400 2.549000
5.091500 2.370400
5.106600 2.370800
5.121700 2.372400
5.136800 2.377100
5.151900 2.385200
5.167000 2.396600
5.182100 2.413400
5.197200 2.438300
5.212300 2.430700
5.227400 2.408800
5.242500 2.384200
5.257600 2.355200
5.272700 2.327400
5.287800 2.332800
5.302900 2.343100
5.318000 2.327900
5.333100 2.295300
5.348100 2.260200
5.363200 2.252300
5.378300 2.307400
5.393400 2.405600
5.408500 2.498200
5.423600 2.781300
5.438700 2.830800
5.453800 2.898200
5.468900 3.153100
5.484000 3.205800
5.499100 3.215600
5.514200 3.198300
5.529300 3.164700
5.544400 3.108900
5.559500 3.217400
5.574600 2.806400
5.589700 2.733100
5.604800 2.711000
5.619900 2.743100
5.634900 2.796800
5.650000 2.810900
5.665100 2.995500
5.680200 2.696300
5.695300 2.702200
5.710400 2.703200
5.725500 2.709000
5.740600 2.719400
5.755700 2.734500
5.770800 2.754200
5.785900 2.777400
5.801000 2.796500
5.816100 2.823500
5.831200 2.972400
5.846300 3.113100
5.861400 3.213100
5.876500 3.290600
5.891600 3.300500
5.906700 3.278400
5.921700 3.226200
5.936800 3.164500
5.951900 3.097600
5.967000 3.032800
5.982100 2.972400
5.997200 2.918300
6.012300 2.876300
6.027400 2.851500
6.042500 2.867400
6.057600 2.924400
6.072700 2.962100
6.087800 2.977500
6.102900 2.989500
6.118000 3.074400
6.133100 3.126200
6.148200 3.228500
6.163300 3.256900
6.178400 3.278400
6.193500 3.318100
6.208500 3.400600
6.223600 3.491700
6.238700 3.568800
6.253800 3.607500
6.268900 3.587700
6.284000 3.506300
6.299100 3.489000
6.314200 3.463500
6.329300 3.411400
6.344400 3.354800
6.359500 3.318000
6.374600 3.279000
6.389700 3.239700
6.404800 3.162600
6.419900 3.202200
6.435000 3.260400
6.450100 3.338900
6.465200 3.425000
6.480300 3.495300
6.495300 3.547400
6.510400 3.568500
6.525500 3.533200
6.540600 3.522700
6.555700 3.573200
6.570800 3.645100
6.585900 3.698900
6.601000 3.702600
6.616100 3.819200
6.631200 3.926900
6.646300 4.042600
6.661400 4.176000
6.676500 4.071100
6.691600 3.776500
6.706700 3.470100
6.721800 3.156100
6.736900 2.767700
6.752000 2.438200
6.767100 2.170700
6.782100 1.950800
6.797200 1.821600
6.812300 1.714800
6.827400 1.610100
6.842500 1.507700
6.857600 1.422300
6.872700 1.378300
6.887800 1.382200
6.902900 1.517700
6.918000 1.285500
6.933100 1.224900
6.948200 0.872700
6.963300 0.741600
6.978400 0.624000
6.993500 0.519100
7.008600 0.426800
7.023700 0.336400
7.038800 0.227900
7.053900 0.140400
7.068900 0.074000
7.084000 0.028700
7.099100 0.004400
7.114200 0.000000
7.129300 0.000000
7.144400 0.000000
7.159500 0.000000
7.174600 0.000000
7.189700 0.000000
7.204800 0.000000
7.219900 0.000000
7.235000 0.000000
7.250100 0.000000
7.265200 0.000000
7.280300 0.000000
7.295400 0.000000
7.310500 0.000000
7.325600 0.000000
7.340700 0.000000
7.355700 0.000000
7.370800 0.000000
7.385900 0.000000
7.401000 0.000000
7.416100 0.000000
7.431200 0.006000
7.446300 0.038900
7.461400 0.090000
7.476500 0.169200
7.491600 0.318200
7.506700 0.485100
7.521800 0.613300
7.536900 0.742200
7.552000 1.312000
7.567100 1.290400
7.582200 1.169300
7.597300 1.142400
7.612400 1.149100
7.627500 1.163900
7.642500 1.175100
7.657600 1.182700
7.672700 1.185400
7.687800 1.185000
7.702900 1.188800
7.718000 1.314600
7.733100 1.436300
7.748200 1.565700
7.763300 1.695300
7.778400 1.868900
7.793500 2.105800
7.808600 2.372200
7.823700 2.650700
7.838800 2.826100
7.853900 2.949200
7.869000 3.077500
7.884100 3.228100
7.899200 3.389400
7.914300 3.560600
7.929300 3.749100
7.944400 4.220200
7.959500 4.722100
7.974600 4.887200
7.989700 4.839000
8.004800 4.645600
8.019900 4.414600
8.035000 4.234800
8.050100 4.177500
8.065200 4.300200
8.080300 4.399100
8.095400 4.454600
8.110500 4.475700
8.125600 4.485500
8.140700 4.497400
8.155800 4.353200
8.170900 4.370400
8.186000 4.391200
8.201100 4.377700
8.216100 4.369300
8.231200 4.224800
8.246300 3.972300
8.261400 3.809000
8.276500 3.789300
8.291600 5.073400
8.306700 4.794500
8.321800 4.659800
8.336900 4.571200
8.352000 4.490000
8.367100 4.402600
8.382200 4.298700
8.397300 4.197200
8.412400 4.100200
8.427500 4.020700
8.442600 3.962500
8.457700 3.945600
8.472800 4.040900
8.487900 4.044000
8.502900 4.200800
8.518000 4.513500
8.533100 5.130500
8.548200 4.350700
8.563300 4.209500
8.578400 4.190200
8.593500 4.189400
8.608600 4.207400
8.623700 4.285000
8.638800 4.359200
8.653900 4.246200
8.669000 3.852800
8.684100 3.672300
8.699200 3.453400
8.714300 3.541200
8.729400 3.758300
8.744500 3.952800
8.759600 4.004900
8.774700 4.047400
8.789700 4.075800
8.804800 4.144400
8.819900 4.259400
8.835000 4.354400
8.850100 4.430600
8.865200 4.498900
8.880300 4.398600
8.895400 4.525500
8.910500 4.650600
8.925600 4.734400
8.940700 4.691900
8.955800 4.549800
8.970900 4.314900
8.986000 4.112600
9.001100 4.001900
9.016200 3.625000
9.031300 3.206800
9.046400 3.056100
9.061500 2.910900
9.076500 2.746500
9.091600 2.562700
9.106700 2.359200
9.121800 2.134800
9.136900 1.933900
9.152000 1.726500
9.167100 1.557800
9.182200 1.434200
9.197300 1.286900
9.212400 1.116200
9.227500 1.043200
9.242600 0.972900
9.257700 0.905100
9.272800 0.840000
9.287900 0.790700
9.303000 0.881400
9.318100 0.874400
9.333200 0.704900
9.348300 0.205700
9.363300 0.124600
9.378400 0.071900
9.393500 0.047500
9.408600 0.051400
9.423700 0.077000
9.438800 0.108800
9.453900 0.146100
9.469000 0.188800
9.484100 0.237100
9.499200 0.230100
9.514300 0.211700
9.529400 0.229700
9.544500 0.249300
9.559600 0.268700
9.574700 0.288000
9.589800 0.307100
9.604900 0.326000
9.620000 0.345300
9.635100 0.365600
9.650100 0.387200
9.665200 0.411600
9.680300 0.439000
9.695400 0.469200
9.710500 0.501500
9.725600 0.536000
9.740700 0.573800
9.755800 0.615300
9.770900 0.663100
9.786000 0.773100
9.801100 0.864800
9.816200 0.945500
9.831300 1.023300
9.846400 1.096000
9.861500 1.166300
9.876600 1.236600
9.891700 1.307000
9.906800 1.378200
9.921800 1.458800
9.936900 1.583700
9.952000 1.732000
9.967100 1.870800
9.982200 1.969100
9.997300 2.028600
10.012400 2.067500
10.027500 2.092500
10.042600 2.105200
10.057700 2.105300
10.072800 2.095100
10.087900 2.076400
10.103000 2.054000
10.118100 2.030900
10.133200 2.040100
10.148300 2.079100
10.163400 2.143400
10.178500 2.173500
10.193600 2.178400
10.208600 2.176700
10.223700 2.167400
10.238800 2.137500
10.253900 2.102100
10.269000 2.070200
10.284100 2.044300
10.299200 2.017000
10.314300 1.987300
10.329400 1.952600
10.344500 1.917600
10.359600 1.895600
10.374700 1.882900
10.389800 1.877900
10.404900 1.881700
10.420000 1.894300
10.435100 1.913500
10.450200 1.924800
10.465300 1.947000
10.480400 1.965800
10.495400 1.979900
10.510500 1.986500
10.525600 1.942800
10.540700 1.864800
10.555800 1.754200
10.570900 1.583300
10.586000 1.424200
10.601100 1.297800
10.616200 1.257600
10.631300 1.204000
10.646400 1.163100
10.661500 1.134800
10.676600 1.045800
10.691700 0.890900
10.706800 0.847400
10.721900 0.862100
10.737000 0.876200
10.752100 0.870800
10.767200 0.856500
10.782200 0.840300
10.797300 0.822300
10.812400 0.800700
10.827500 0.771900
10.842600 0.735800
10.857700 0.698900
10.872800 0.676600
10.887900 0.662500
10.903000 0.656700
10.918100 0.659000
10.933200 0.666000
10.948300 0.685200
10.963400 0.712400
10.978500 0.745700
10.993600 0.785300
11.008700 0.831000
11.023800 0.886000
11.038900 0.954100
11.054000 1.002300
11.069000 1.037200
11.084100 1.080700
11.099200 1.132100
11.114300 1.197500
11.129400 1.212900
11.144500 1.257500
11.159600 1.322200
11.174700 1.395600
11.189800 1.463500
11.204900 1.530800
11.220000 1.598500
11.235100 1.668700
11.250200 1.737600
11.265300 1.807600
11.280400 1.928500
11.295500 2.194900
11.310600 2.344800
11.325700 2.416700
11.340800 2.409800
11.355800 2.363100
11.370900 2.301200
11.386000 2.238900
11.401100 2.342800
11.416200 2.452000
11.431300 2.401600
11.446400 2.232000
11.461500 2.169600
11.476600 2.098100
11.491700 2.025300
11.506800 1.950300
11.521900 1.873200
11.537000 1.796100
11.552100 1.732400
11.567200 1.688400
11.582300 1.727200
11.597400 1.851300
11.612500 1.943600
11.627600 2.009400
11.642600 2.102200
11.657700 2.248200
11.672800 2.391000
11.687900 2.508000
11.703000 2.593800
11.718100 2.597000
11.733200 2.551000
11.748300 2.337100
11.763400 2.148000
11.778500 2.149700
11.793600 2.162200
11.808700 2.178900
11.823800 2.197900
11.838900 2.219200
11.854000 2.241600
11.869100 2.272300
11.884200 2.324200
11.899300 2.395200
11.914400 2.485300
11.929400 2.576900
11.944500 2.652100
11.959600 2.712400
11.974700 2.771200
11.989800 2.812900
12.004900 2.836900
12.020000 2.861500
12.035100 2.904100
12.050200 2.983500
12.065300 3.071800
12.080400 3.105400
12.095500 3.100100
12.110600 3.062400
12.125700 3.003700
12.140800 2.961100
12.155900 2.898700
12.171000 2.814200
12.186100 2.717700
12.201200 2.618200
12.216200 2.571900
12.231300 2.590500
12.246400 2.640600
12.261500 2.721600
12.276600 2.828300
12.291700 2.914900
12.306800 2.966300
12.321900 3.008200
12.337000 3.065300
12.352100 3.135200
12.367200 3.142900
12.382300 2.856100
12.397400 2.976300
12.412500 3.175400
12.427600 3.323600
12.442700 3.419800
12.457800 3.485300
12.472900 3.497200
12.488000 3.433000
12.503000 3.411900
12.518100 3.440000
12.533200 3.476800
12.548300 3.504300
12.563400 3.421900
12.578500 3.310200
12.593600 3.362300
12.608700 3.435900
12.623800 3.519300
12.638900 3.604000
12.654000 3.635700
12.669100 3.625700
12.684200 3.612500
12.699300 3.535900
12.714400 3.304700
12.729500 3.278500
12.744600 3.300800
12.759700 3.324100
12.774800 3.361900
12.789800 3.413100
12.804900 3.506000
12.820000 3.598900
12.835100 3.672200
12.850200 3.737500
12.865300 3.804400
12.880400 3.851800
12.895500 3.867600
12.910600 3.860500
12.925700 3.828900
12.940800 3.781200
12.955900 3.747100
12.971000 3.703400
12.986100 3.652100
13.001200 3.605900
13.016300 3.572900
13.031400 3.568900
13.046500 3.568800
13.061600 3.564700
13.076600 3.555200
13.091700 3.537300
13.106800 3.515100
13.121900 3.450100
13.137000 3.338300
13.152100 3.690000
13.167200 3.751000
13.182300 3.830600
13.197400 3.803800
13.212500 3.747800
13.227600 3.735400
13.242700 3.721300
13.257800 3.697100
13.272900 3.671800
13.288000 3.643400
13.303100 3.519300
13.318200 3.398800
13.333300 3.283900
13.348400 3.180200
13.363400 3.106800
13.378500 3.046800
13.393600 3.010700
13.408700 2.992200
13.423800 2.973500
13.438900 2.948800
13.454000 2.924000
13.469100 2.893800
13.484200 2.867700
13.499300 2.980300
13.514400 2.747700
13.529500 2.656400
13.544600 2.636000
13.559700 2.630800
13.574800 2.642700
13.589900 2.667500
13.605000 2.704300
13.620100 2.752900
13.635200 2.813100
13.650200 2.892000
13.665300 3.003500
13.680400 3.142100
13.695500 3.277100
13.710600 3.339800
13.725700 3.241800
13.740800 3.231300
13.755900 3.260600
13.771000 3.309800
13.786100 3.371700
13.801200 3.436300
13.816300 3.584800
13.831400 3.719700
13.846500 3.814900
13.861600 4.018100
13.876700 4.216100
13.891800 4.248000
13.906900 3.746900
13.922000 3.725700
13.937000 3.699100
13.952100 3.679200
13.967200 3.677400
13.982300 3.712700
13.997400 3.745400
14.012500 3.799500
14.027600 3.965300
14.042700 3.986400
14.057800 3.985700
14.072900 4.009700
14.088000 4.040400
14.103100 4.076500
14.118200 4.116700
14.133300 4.160100
14.148400 4.197500
14.163500 4.230700
14.178600 4.262600
14.193700 4.296600
14.208800 4.358900
14.223800 4.418200
14.238900 4.450400
14.254000 4.454100
14.269100 4.431000
14.284200 4.403500
14.299300 4.362000
14.314400 4.189100
14.329500 4.147200
14.344600 4.132500
14.359700 4.145400
14.374800 4.131600
14.389900 4.106200
14.405000 4.113900
14.420100 3.881900
14.435200 3.922600
14.450300 4.172200
14.465400 4.287900
14.480500 4.243500
14.495600 4.218700
14.510600 4.196900
14.525700 4.153200
14.540800 4.088600
14.555900 4.021000
14.571000 3.962500
14.586100 3.904900
14.601200 3.972400
14.616300 3.953900
14.631400 3.808700
14.646500 3.767300
14.661600 3.730700
14.676700 3.699200
14.691800 3.670400
14.706900 3.643200
14.722000 3.617700
14.737100 3.593700
14.752200 3.581000
14.767300 3.596300
14.782400 3.690600
14.797400 3.859000
14.812500 4.067500
14.827600 4.072600
14.842700 3.740700
14.857800 3.739600
14.872900 3.733000
14.888000 3.724600
14.903100 3.737300
14.918200 3.831300
14.933300 3.908100
14.948400 3.937100
14.963500 3.958300
14.978600 3.967200
14.993700 3.987200
15.008800 4.013600
15.023900 4.039200
15.039000 4.061200
15.054100 4.077800
15.069200 4.089000
15.084200 4.114300
15.099300 4.266300
15.114400 4.423900
15.129500 4.617100
15.144600 4.817700
15.159700 5.114800
15.174800 5.230100
15.189900 5.366000
15.205000 5.521800
15.220100 5.639100
15.235200 5.508000
15.250300 5.243700
15.265400 5.012100
15.280500 4.780700
15.295600 4.568100
15.310700 4.367100
15.325800 4.238600
15.340900 4.113400
15.356000 4.111200
15.371000 4.094700
15.386100 3.973100
15.401200 3.963000
15.416300 3.958400
15.431400 3.991800
15.446500 3.986000
15.461600 3.938200
15.476700 3.852200
15.491800 3.767300
15.506900 3.794300
15.522000 4.004100
15.537100 4.274800
15.552200 4.379700
15.567300 4.416100
15.582400 4.405600
15.597500 4.369900
15.612600 4.324300
15.627700 4.325400
15.642800 4.339200
15.657800 4.317300
15.672900 4.252100
15.688000 4.181700
15.703100 4.104700
15.718200 4.022200
15.733300 3.934200
15.748400 3.840800
15.763500 3.750400
15.778600 3.668400
15.793700 3.515700
15.808800 3.447700
15.823900 3.417600
15.839000 3.402200
15.854100 3.409400
15.869200 3.538300
15.884300 3.665600
15.899400 3.772800
15.914500 3.871000
15.929600 4.027300
15.944600 4.254300
15.959700 4.555700
15.974800 4.879200
15.989900 5.162800
16.005000 5.433400
16.020100 5.699600
16.035200 6.110700
16.050300 6.719800
16.065400 6.716500
16.080500 6.528200
16.095600 6.321500
16.110700 5.887300
16.125800 5.435100
16.140900 5.105100
16.156000 4.825400
16.171100 4.513800
16.186200 4.213100
16.201300 3.975600
16.216400 3.841800
16.231400 3.758700
16.246500 3.696800
16.261600 3.702500
16.276700 3.795700
16.291800 3.914400
16.306900 4.040000
16.322000 4.127100
16.337100 4.181800
16.352200 4.216300
16.367300 4.232800
16.382400 4.225900
16.397500 4.212500
16.412600 4.212000
16.427700 4.188600
16.442800 4.202700
16.457900 4.218600
16.473000 4.238100
16.488100 4.257100
16.503200 4.263800
16.518200 4.269200
16.533300 4.288900
16.548400 4.324700
16.563500 4.370200
16.578600 4.414100
16.593700 4.458900
16.608800 4.516200
16.623900 4.569900
16.639000 4.615500
16.654100 4.647200
16.669200 4.665500
16.684300 4.651800
16.699400 4.581500
16.714500 4.650100
16.729600 4.654400
16.744700 4.510400
16.759800 4.376800
16.774900 4.258100
16.790000 4.138800
16.805000 4.036400
16.820100 3.961800
16.835200 3.919500
16.850300 3.922200
16.865400 3.956800
16.880500 4.025900
16.895600 4.090300
16.910700 4.139000
16.925800 4.184100
16.940900 4.237000
16.956000 4.297100
16.971100 4.357300
16.986200 4.423700
17.001300 4.487200
17.016400 4.573800
17.031500 4.638300
17.046600 4.676000
17.061700 4.688000
17.076800 4.701300
17.091800 4.748200
17.106900 4.900900
17.122000 4.842300
17.137100 4.660100
17.152200 4.606500
17.167300 4.513400
17.182400 4.416400
17.197500 4.294700
17.212600 4.101500
17.227700 3.932100
17.242800 3.813200
17.257900 3.603300
17.273000 3.596800
17.288100 3.677600
17.303200 3.794100
17.318300 3.944500
17.333400 4.123600
17.348500 4.331500
17.363600 4.569400
17.378600 4.712700
17.393700 4.600900
17.408800 4.538500
17.423900 4.402000
17.439000 4.283500
17.454100 4.264100
17.469200 4.232800
17.484300 4.184100
17.499400 4.144500
17.514500 4.115500
17.529600 4.104500
17.544700 4.083300
17.559800 4.023700
17.574900 3.976400
17.590000 3.950800
17.605100 3.952400
17.620200 3.976700
17.635300 4.069400
17.650400 4.241500
17.665400 4.431200
17.680500 4.617200
17.695600 4.712600
17.710700 4.781700
17.725800 4.863700
17.740900 5.243100
17.756000 5.300400
17.771100 4.358400
17.786200 4.071400
17.801300 3.970300
17.816400 3.926500
17.831500 3.885200
17.846600 3.875600
17.861700 3.905700
17.876800 3.926400
17.891900 3.954200
17.907000 4.010300
17.922100 4.098600
17.937200 4.192100
17.952200 4.279100
17.967300 4.360900
17.982400 4.469500
17.997500 4.551100
18.012600 4.570100
18.027700 4.515700
18.042800 4.482600
18.057900 4.441700
18.073000 4.407000
18.088100 4.419600
18.103200 4.432100
18.118300 4.363200
18.133400 4.422100
18.148500 4.478400
18.163600 4.563100
18.178700 4.658500
18.193800 4.738600
18.208900 4.790800
18.223900 4.855500
18.239000 4.947400
18.254100 5.025400
18.269200 4.922400
18.284300 4.737000
18.299400 4.488800
18.314500 4.312700
18.329600 4.270900
18.344700 4.571300
18.359800 4.437700
18.374900 4.340600
18.390000 4.269400
18.405100 4.187600
18.420200 4.128800
18.435300 4.076800
18.450400 3.989100
18.465500 3.835700
18.480600 3.627200
18.495700 3.487100
18.510700 3.368700
18.525800 3.254600
18.540900 3.141800
18.556000 3.040400
18.571100 2.985600
18.586200 2.966300
18.601300 2.984600
18.616400 3.034800
18.631500 3.084400
18.646600 3.127800
18.661700 3.177200
18.676800 3.231600
18.691900 3.290800
18.707000 3.340600
18.722100 3.389100
18.737200 3.431900
18.752300 3.444900
18.767400 3.444000
18.782500 3.417100
18.797500 3.364200
18.812600 3.291300
18.827700 3.198700
18.842800 3.089100
18.857900 2.969100
18.873000 2.852000
18.888100 2.734300
18.903200 2.668500
18.918300 2.667000
18.933400 2.620600
18.948500 2.303100
18.963600 2.040100
18.978700 1.879700
18.993800 1.795300
19.008900 1.721500
19.024000 1.655400
19.039100 1.597100
19.054200 1.546600
19.069300 1.503700
19.084300 1.467600
19.099400 1.438100
19.114500 1.412200
19.129600 1.387200
19.144700 1.363100
19.159800 1.344600
19.174900 1.373000
19.190000 1.413400
19.205100 1.466000
19.220200 1.531400
19.235300 1.537800
19.250400 1.428600
19.265500 1.301200
19.280600 1.219800
19.295700 1.132600
19.310800 1.039600
19.325900 0.942800
19.341000 0.855300
19.356100 0.778800
19.371100 0.712900
19.386200 0.660400
19.401300 0.629300
19.416400 0.609700
19.431500 0.600900
19.446600 0.547600
19.461700 0.494800
19.476800 0.456800
19.491900 0.421400
19.507000 0.388400
19.522100 0.357900
19.537200 0.329900
19.552300 0.304400
19.567400 0.281400
19.582500 0.260900
19.597600 0.242900
19.612700 0.227300
19.627800 0.213400
19.642900 0.199900
19.657900 0.186800
19.673000 0.174700
19.688100 0.164500
19.703200 0.154600
19.718300 0.144900
19.733400 0.135600
19.748500 0.126500
19.763600 0.117700
19.778700 0.109200
19.793800 0.101000
19.808900 0.093100
19.824000 0.085500
19.839100 0.078200
19.854200 0.071100
19.869300 0.064400
19.884400 0.057900
19.899500 0.051700
19.914600 0.045800
19.929700 0.040200
19.944700 0.034900
19.959800 0.029900
19.974900 0.025200
19.990000 0.020800
20.005100 0.016600
20.020200 0.012800
20.035300 0.009200
20.050400 0.005900
20.065500 0.002900
20.080600 0.000200
20.095700 0.000000
20.110800 0.000000
20.125900 0.000000
20.141000 0.000000
20.156100 0.000000
20.171200 0.000000
20.186300 0.000000
20.201400 0.000000
20.216500 0.000000
20.231500 0.000000
20.246600 0.000000
20.261700 0.000000
20.276800 0.000000
20.291900 0.000000
20.307000 0.000000
20.322100 0.000000
20.337200 0.000000
20.352300 0.000000
20.367400 0.000000
20.382500 0.000000
20.397600 0.000000
20.412700 0.000000
20.427800 0.000000
20.442900 0.000000
20.458000 0.000000
20.473100 0.000000
20.488200 0.000000
20.503300 0.000000
20.518300 0.000000
20.533400 0.000000
20.548500 0.000000
20.563600 0.000000
20.578700 0.000000
20.593800 0.000000
20.608900 0.000000
20.624000 0.000000
20.639100 0.000000
20.654200 0.000000
20.669300 0.000000
20.684400 0.000000
20.699500 0.000000
20.714600 0.000000
20.729700 0.000000
20.744800 0.000000
20.759900 0.000000
20.775000 0.000000
20.790100 0.000000
20.805100 0.000000
20.820200 0.000000
20.835300 0.000000
20.850400 0.000000
20.865500 0.000000
20.880600 0.000000
20.895700 0.000000
20.910800 0.000000
20.925900 0.000000
20.941000 0.000000
20.956100 0.000000
20.971200 0.000000
20.986300 0.000000
21.001400 0.000000
21.016500 0.000000
21.031600 0.000000
21.046700 0.000000
21.061800 0.000000
21.076900 0.000000
21.091900 0.000000
21.107000 0.000000
21.122100 0.000000
21.137200 0.000000
21.152300 0.000000
21.167400 0.000000
21.182500 0.000000
21.197600 0.000000
21.212700 0.000000
21.227800 0.000000
21.242900 0.000000
21.258000 0.000000
21.273100 0.000000
21.288200 0.000000
21.303300 0.000000
21.318400 0.000000
21.333500 0.000000
21.348600 0.000000
21.363700 0.000000
21.378700 0.000000
21.393800 0.000000
21.408900 0.000000
21.424000 0.000000
21.439100 0.000000
21.454200 0.000000
e
