set title 'mp-10649 - Density of States'
set xlabel 'Energy (eV)'
set ylabel 'DOS (states/eV)'
set grid
set xrange [-10:10]
set yrange [0:0.992]
set xzeroaxis lt -1
set terminal png size 800,600
set output 'mp-10649_dos_gnuplot.png'
plot '-' using 1:2 with lines title 'DOS'
-5.893100 0.000000
-5.875300 0.000000
-5.857600 0.000000
-5.839800 0.000000
-5.822100 0.000000
-5.804400 0.000000
-5.786600 0.000000
-5.768900 0.000000
-5.751100 0.000000
-5.733400 0.000000
-5.715600 0.000000
-5.697900 0.000000
-5.680100 0.000000
-5.662400 0.000000
-5.644600 0.000000
-5.626900 0.000000
-5.609200 0.000000
-5.591400 0.000000
-5.573700 0.000000
-5.555900 0.000000
-5.538200 0.000000
-5.520400 0.000000
-5.502700 0.000000
-5.484900 0.000000
-5.467200 0.000000
-5.449400 0.000000
-5.431700 0.000000
-5.414000 0.000000
-5.396200 0.000000
-5.378500 0.000000
-5.360700 0.000000
-5.343000 0.000000
-5.325200 0.000000
-5.307500 0.000000
-5.289700 0.000000
-5.272000 0.000000
-5.254200 0.000000
-5.236500 0.000000
-5.218800 0.000000
-5.201000 0.000000
-5.183300 0.000000
-5.165500 0.000000
-5.147800 0.000000
-5.130000 0.000000
-5.112300 0.000000
-5.094500 0.000000
-5.076800 0.000000
-5.059000 0.000000
-5.041300 0.000000
-5.023600 0.000000
-5.005800 0.000000
-4.988100 0.000000
-4.970300 0.000000
-4.952600 0.000000
-4.934800 0.000000
-4.917100 0.000000
-4.899300 0.000000
-4.881600 0.000000
-4.863800 0.000000
-4.846100 0.000000
-4.828400 0.000000
-4.810600 0.000000
-4.792900 0.000000
-4.775100 0.000000
-4.757400 0.000000
-4.739600 0.000000
-4.721900 0.000000
-4.704100 0.000000
-4.686400 0.000000
-4.668600 0.000000
-4.650900 0.000000
-4.633200 0.000000
-4.615400 0.000000
-4.597700 0.000000
-4.579900 0.000000
-4.562200 0.000000
-4.544400 0.000000
-4.526700 0.000000
-4.508900 0.000000
-4.491200 0.000000
-4.473400 0.000000
-4.455700 0.000000
-4.437900 0.000000
-4.420200 0.000000
-4.402500 0.000000
-4.384700 0.000000
-4.367000 0.000000
-4.349200 0.000000
-4.331500 0.000000
-4.313700 0.000000
-4.296000 0.000000
-4.278200 0.000000
-4.260500 0.006800
-4.242700 0.025100
-4.225000 0.044800
-4.207300 0.050000
-4.189500 0.051400
-4.171800 0.058900
-4.154000 0.066700
-4.136300 0.074800
-4.118500 0.082000
-4.100800 0.086000
-4.083000 0.087200
-4.065300 0.089800
-4.047500 0.093700
-4.029800 0.097900
-4.012100 0.102200
-3.994300 0.106400
-3.976600 0.110700
-3.958800 0.115200
-3.941100 0.119900
-3.923300 0.122700
-3.905600 0.124500
-3.887800 0.126800
-3.870100 0.129400
-3.852300 0.132000
-3.834600 0.134400
-3.816900 0.136900
-3.799100 0.139600
-3.781400 0.142400
-3.763600 0.145400
-3.745900 0.148600
-3.728100 0.151900
-3.710400 0.155200
-3.692600 0.158400
-3.674900 0.161200
-3.657100 0.163100
-3.639400 0.164500
-3.621700 0.166100
-3.603900 0.168100
-3.586200 0.170200
-3.568400 0.172300
-3.550700 0.174300
-3.532900 0.176300
-3.515200 0.178400
-3.497400 0.180600
-3.479700 0.182900
-3.461900 0.185300
-3.444200 0.187700
-3.426500 0.190100
-3.408700 0.192500
-3.391000 0.194900
-3.373200 0.197400
-3.355500 0.199600
-3.337700 0.201300
-3.320000 0.202900
-3.302200 0.204500
-3.284500 0.206100
-3.266700 0.207600
-3.249000 0.209200
-3.231300 0.210900
-3.213500 0.212500
-3.195800 0.214300
-3.178000 0.216000
-3.160300 0.217800
-3.142500 0.219600
-3.124800 0.221500
-3.107000 0.223300
-3.089300 0.225200
-3.071500 0.227000
-3.053800 0.228900
-3.036100 0.230800
-3.018300 0.232800
-3.000600 0.234700
-2.982800 0.236800
-2.965100 0.238700
-2.947300 0.240500
-2.929600 0.245800
-2.911800 0.258800
-2.894100 0.270700
-2.876300 0.259300
-2.858600 0.260500
-2.840900 0.261500
-2.823100 0.262400
-2.805400 0.263300
-2.787600 0.263600
-2.769900 0.262200
-2.752100 0.260900
-2.734400 0.260500
-2.716600 0.261000
-2.698900 0.261500
-2.681100 0.262000
-2.663400 0.262500
-2.645700 0.262900
-2.627900 0.263300
-2.610200 0.263700
-2.592400 0.262300
-2.574700 0.262400
-2.556900 0.262600
-2.539200 0.262700
-2.521400 0.262800
-2.503700 0.263000
-2.485900 0.263200
-2.468200 0.263200
-2.450500 0.265700
-2.432700 0.278700
-2.415000 0.292500
-2.397200 0.284100
-2.379500 0.286300
-2.361700 0.288600
-2.344000 0.290400
-2.326200 0.292200
-2.308500 0.294100
-2.290700 0.294300
-2.273000 0.294300
-2.255300 0.295000
-2.237500 0.296700
-2.219800 0.298300
-2.202000 0.300100
-2.184300 0.301800
-2.166500 0.303600
-2.148800 0.305500
-2.131000 0.307400
-2.113300 0.307600
-2.095500 0.309000
-2.077800 0.310400
-2.060100 0.311800
-2.042300 0.313100
-2.024600 0.314500
-2.006800 0.315400
-1.989100 0.317000
-1.971300 0.318500
-1.953600 0.320000
-1.935800 0.321400
-1.918100 0.322700
-1.900300 0.324200
-1.882600 0.325700
-1.864800 0.326600
-1.847100 0.327300
-1.829400 0.328000
-1.811600 0.329200
-1.793900 0.330300
-1.776100 0.331500
-1.758400 0.332700
-1.740600 0.333900
-1.722900 0.335200
-1.705100 0.336400
-1.687400 0.337700
-1.669600 0.339000
-1.651900 0.340400
-1.634200 0.341600
-1.616400 0.342700
-1.598700 0.343800
-1.580900 0.345000
-1.563200 0.346400
-1.545400 0.347800
-1.527700 0.348400
-1.509900 0.349500
-1.492200 0.350700
-1.474400 0.351900
-1.456700 0.353100
-1.439000 0.354400
-1.421200 0.355700
-1.403500 0.357100
-1.385700 0.358500
-1.368000 0.359800
-1.350200 0.361200
-1.332500 0.362400
-1.314700 0.363500
-1.297000 0.364700
-1.279200 0.365900
-1.261500 0.367100
-1.243800 0.368100
-1.226000 0.369200
-1.208300 0.370400
-1.190500 0.371600
-1.172800 0.372700
-1.155000 0.373400
-1.137300 0.374200
-1.119500 0.375000
-1.101800 0.375900
-1.084000 0.377000
-1.066300 0.378000
-1.048600 0.379000
-1.030800 0.380100
-1.013100 0.381200
-0.995300 0.382300
-0.977600 0.383400
-0.959800 0.384500
-0.942100 0.385700
-0.924300 0.386900
-0.906600 0.388100
-0.888800 0.389300
-0.871100 0.390500
-0.853400 0.391700
-0.835600 0.392900
-0.817900 0.394100
-0.800100 0.395400
-0.782400 0.396600
-0.764600 0.397800
-0.746900 0.399100
-0.729100 0.400300
-0.711400 0.401600
-0.693600 0.402900
-0.675900 0.403800
-0.658200 0.404800
-0.640400 0.405800
-0.622700 0.406500
-0.604900 0.407400
-0.587200 0.408300
-0.569400 0.409200
-0.551700 0.410200
-0.533900 0.411200
-0.516200 0.412100
-0.498400 0.413100
-0.480700 0.414100
-0.463000 0.415100
-0.445200 0.416100
-0.427500 0.417100
-0.409700 0.418200
-0.392000 0.419200
-0.374200 0.420300
-0.356500 0.421400
-0.338700 0.422400
-0.321000 0.423500
-0.303200 0.424600
-0.285500 0.425700
-0.267800 0.426800
-0.250000 0.427900
-0.232300 0.429000
-0.214500 0.430100
-0.196800 0.431300
-0.179000 0.432400
-0.161300 0.433500
-0.143500 0.434500
-0.125800 0.435500
-0.108000 0.436500
-0.090300 0.437600
-0.072600 0.438700
-0.054800 0.439700
-0.037100 0.440800
-0.019300 0.441700
-0.001600 0.442700
0.016200 0.443800
0.033900 0.444800
0.051700 0.445900
0.069400 0.447000
0.087200 0.448000
0.104900 0.449000
0.122600 0.450000
0.140400 0.451000
0.158100 0.452100
0.175900 0.453100
0.193600 0.454100
0.211400 0.455100
0.229100 0.456200
0.246900 0.457200
0.264600 0.458300
0.282400 0.459400
0.300100 0.460400
0.317800 0.461500
0.335600 0.462600
0.353300 0.463700
0.371100 0.464800
0.388800 0.465900
0.406600 0.467000
0.424300 0.468100
0.442100 0.469200
0.459800 0.470100
0.477600 0.471200
0.495300 0.472200
0.513000 0.473300
0.530800 0.474300
0.548500 0.475400
0.566300 0.476500
0.584000 0.477500
0.601800 0.478600
0.619500 0.479700
0.637300 0.480800
0.655000 0.481800
0.672800 0.482800
0.690500 0.483900
0.708300 0.485000
0.726000 0.486100
0.743700 0.487200
0.761500 0.488300
0.779200 0.489400
0.797000 0.490600
0.814700 0.491700
0.832500 0.492900
0.850200 0.494100
0.868000 0.495900
0.885700 0.498100
0.903500 0.499800
0.921200 0.501600
0.938900 0.503300
0.956700 0.505200
0.974400 0.507100
0.992200 0.509000
1.009900 0.510900
1.027700 0.512700
1.045400 0.514500
1.063200 0.516400
1.080900 0.518200
1.098700 0.520100
1.116400 0.522000
1.134100 0.523800
1.151900 0.525700
1.169600 0.527600
1.187400 0.529400
1.205100 0.531300
1.222900 0.533100
1.240600 0.535000
1.258400 0.536300
1.276100 0.536400
1.293900 0.536100
1.311600 0.536400
1.329300 0.536600
1.347100 0.536800
1.364800 0.536900
1.382600 0.536900
1.400300 0.536800
1.418100 0.536900
1.435800 0.537100
1.453600 0.537300
1.471300 0.537400
1.489100 0.537600
1.506800 0.537700
1.524500 0.537900
1.542300 0.538000
1.560000 0.538100
1.577800 0.538200
1.595500 0.538500
1.613300 0.538700
1.631000 0.539000
1.648800 0.539400
1.666500 0.539800
1.684300 0.540200
1.702000 0.540700
1.719700 0.541100
1.737500 0.541600
1.755200 0.542000
1.773000 0.542400
1.790700 0.542700
1.808500 0.543100
1.826200 0.543400
1.844000 0.543800
1.861700 0.544200
1.879500 0.544600
1.897200 0.545000
1.914900 0.545500
1.932700 0.545900
1.950400 0.546400
1.968200 0.546900
1.985900 0.547400
2.003700 0.548000
2.021400 0.551100
2.039200 0.559000
2.056900 0.564700
2.074700 0.566200
2.092400 0.567600
2.110100 0.568700
2.127900 0.569600
2.145600 0.570300
2.163400 0.570700
2.181100 0.570000
2.198900 0.569100
2.216600 0.568100
2.234400 0.567000
2.252100 0.565800
2.269900 0.564500
2.287600 0.563000
2.305300 0.566200
2.323100 0.573800
2.340800 0.577200
2.358600 0.575500
2.376300 0.573500
2.394100 0.571400
2.411800 0.569100
2.429600 0.566300
2.447300 0.562800
2.465100 0.558100
2.482800 0.553100
2.500500 0.548100
2.518300 0.544000
2.536000 0.540900
2.553800 0.538100
2.571500 0.535500
2.589300 0.533100
2.607000 0.530700
2.624800 0.528400
2.642500 0.525700
2.660300 0.523200
2.678000 0.520700
2.695700 0.518300
2.713500 0.515900
2.731200 0.513600
2.749000 0.511400
2.766700 0.509300
2.784500 0.507400
2.802200 0.505600
2.820000 0.504200
2.837700 0.503100
2.855500 0.502100
2.873200 0.522500
2.890900 0.537800
2.908700 0.530500
2.926400 0.518800
2.944200 0.513300
2.961900 0.513500
2.979700 0.515200
2.997400 0.517400
3.015200 0.517800
3.032900 0.518500
3.050700 0.520700
3.068400 0.524300
3.086200 0.528400
3.103900 0.532800
3.121600 0.537400
3.139400 0.542200
3.157100 0.547300
3.174900 0.552600
3.192600 0.557500
3.210400 0.562000
3.228100 0.563100
3.245900 0.558700
3.263600 0.556600
3.281400 0.557800
3.299100 0.559000
3.316800 0.560000
3.334600 0.568000
3.352300 0.567700
3.370100 0.569200
3.387800 0.572900
3.405600 0.577100
3.423300 0.582100
3.441100 0.587900
3.458800 0.593700
3.476600 0.600400
3.494300 0.607900
3.512000 0.604600
3.529800 0.597600
3.547500 0.597000
3.565300 0.598400
3.583000 0.599700
3.600800 0.611500
3.618500 0.610500
3.636300 0.611700
3.654000 0.619200
3.671800 0.631200
3.689500 0.645500
3.707200 0.641100
3.725000 0.632800
3.742700 0.635300
3.760500 0.639800
3.778200 0.657300
3.796000 0.659400
3.813700 0.660500
3.831500 0.660700
3.849200 0.661900
3.867000 0.662800
3.884700 0.662900
3.902400 0.662100
3.920200 0.660200
3.937900 0.656400
3.955700 0.651900
3.973400 0.646800
3.991200 0.641800
4.008900 0.635900
4.026700 0.630800
4.044400 0.658400
4.062200 0.694700
4.079900 0.659500
4.097600 0.637300
4.115400 0.631100
4.133100 0.630700
4.150900 0.630600
4.168600 0.649600
4.186400 0.635200
4.204100 0.625500
4.221900 0.619500
4.239600 0.614500
4.257400 0.608000
4.275100 0.600600
4.292800 0.592600
4.310600 0.583300
4.328300 0.573800
4.346100 0.569000
4.363800 0.563700
4.381600 0.561000
4.399300 0.559800
4.417100 0.568500
4.434800 0.574600
4.452600 0.580400
4.470300 0.585600
4.488000 0.590500
4.505800 0.595000
4.523500 0.600800
4.541300 0.589700
4.559000 0.594500
4.576800 0.599800
4.594500 0.605500
4.612300 0.594900
4.630000 0.601000
4.647800 0.608100
4.665500 0.614500
4.683200 0.621500
4.701000 0.631400
4.718700 0.642400
4.736500 0.651100
4.754200 0.657600
4.772000 0.664600
4.789700 0.673000
4.807500 0.681200
4.825200 0.729600
4.843000 0.678200
4.860700 0.668400
4.878400 0.655300
4.896200 0.652900
4.913900 0.654300
4.931700 0.657900
4.949400 0.661100
4.967200 0.663700
4.984900 0.645000
5.002700 0.635200
5.020400 0.630100
5.038200 0.625300
5.055900 0.622700
5.073600 0.620900
5.091400 0.619500
5.109100 0.620500
5.126900 0.624200
5.144600 0.627100
5.162400 0.629900
5.180100 0.634600
5.197900 0.641700
5.215600 0.651900
5.233400 0.666200
5.251100 0.675900
5.268800 0.680100
5.286600 0.685000
5.304300 0.693400
5.322100 0.672500
5.339800 0.656900
5.357600 0.653100
5.375300 0.657500
5.393100 0.655000
5.410800 0.652400
5.428600 0.651300
5.446300 0.648900
5.464000 0.645800
5.481800 0.642000
5.499500 0.637700
5.517300 0.633400
5.535000 0.631700
5.552800 0.625800
5.570500 0.615200
5.588300 0.605000
5.606000 0.596000
5.623800 0.588200
5.641500 0.583000
5.659300 0.584000
5.677000 0.587700
5.694700 0.592500
5.712500 0.597500
5.730200 0.602900
5.748000 0.609400
5.765700 0.617000
5.783500 0.625900
5.801200 0.683100
5.819000 0.649700
5.836700 0.654400
5.854500 0.658400
5.872200 0.663400
5.889900 0.669100
5.907700 0.675400
5.925400 0.682300
5.943200 0.690000
5.960900 0.692700
5.978700 0.691200
5.996400 0.695700
6.014200 0.700800
6.031900 0.708600
6.049700 0.717500
6.067400 0.725000
6.085100 0.734700
6.102900 0.768400
6.120600 0.772700
6.138400 0.772100
6.156100 0.768500
6.173900 0.781100
6.191600 0.757700
6.209400 0.740900
6.227100 0.738900
6.244900 0.739200
6.262600 0.740200
6.280300 0.741700
6.298100 0.743800
6.315800 0.746500
6.333600 0.754200
6.351300 0.762100
6.369100 0.768300
6.386800 0.773100
6.404600 0.777200
6.422300 0.780100
6.440100 0.787500
6.457800 0.800800
6.475500 0.787000
6.493300 0.771000
6.511000 0.761800
6.528800 0.755300
6.546500 0.757400
6.564300 0.759800
6.582000 0.766900
6.599800 0.776400
6.617500 0.734100
6.635300 0.731800
6.653000 0.730500
6.670700 0.730200
6.688500 0.730400
6.706200 0.730600
6.724000 0.730700
6.741700 0.730700
6.759500 0.735600
6.777200 0.743400
6.795000 0.749100
6.812700 0.753100
6.830500 0.756700
6.848200 0.760300
6.865900 0.761800
6.883700 0.759600
6.901400 0.758400
6.919200 0.759100
6.936900 0.747500
6.954700 0.741300
6.972400 0.737800
6.990200 0.735900
7.007900 0.735200
7.025700 0.735600
7.043400 0.737500
7.061100 0.740200
7.078900 0.742500
7.096600 0.743700
7.114400 0.744700
7.132100 0.748600
7.149900 0.750700
7.167600 0.751100
7.185400 0.751400
7.203100 0.749000
7.220900 0.737100
7.238600 0.731400
7.256300 0.730200
7.274100 0.730700
7.291800 0.731900
7.309600 0.733200
7.327300 0.735500
7.345100 0.736300
7.362800 0.736700
7.380600 0.736900
7.398300 0.737600
7.416100 0.738300
7.433800 0.739200
7.451500 0.741200
7.469300 0.770700
7.487000 0.771100
7.504800 0.769400
7.522500 0.769900
7.540300 0.768800
7.558000 0.766100
7.575800 0.763700
7.593500 0.761600
7.611300 0.760000
7.629000 0.758900
7.646700 0.758400
7.664500 0.759100
7.682200 0.759800
7.700000 0.761800
7.717700 0.764900
7.735500 0.768600
7.753200 0.775500
7.771000 0.778200
7.788700 0.783400
7.806500 0.794800
7.824200 0.807600
7.841900 0.816500
7.859700 0.823700
7.877400 0.829600
7.895200 0.833500
7.912900 0.829800
7.930700 0.822800
7.948400 0.818000
7.966200 0.819900
7.983900 0.821300
8.001700 0.822400
8.019400 0.823700
8.037100 0.825200
8.054900 0.826900
8.072600 0.829200
8.090400 0.833000
8.108100 0.837300
8.125900 0.841700
8.143600 0.845800
8.161400 0.850600
8.179100 0.854900
8.196900 0.859600
8.214600 0.864400
8.232400 0.869400
8.250100 0.874600
8.267800 0.879600
8.285600 0.883300
8.303300 0.886300
8.321100 0.890100
8.338800 0.893700
8.356600 0.896500
8.374300 0.898700
8.392100 0.900500
8.409800 0.901700
8.427600 0.900800
8.445300 0.896500
8.463000 0.892300
8.480800 0.896100
8.498500 0.890300
8.516300 0.880500
8.534000 0.870700
8.551800 0.862100
8.569500 0.854800
8.587300 0.848000
8.605000 0.842100
8.622800 0.835300
8.640500 0.829500
8.658200 0.822700
8.676000 0.815300
8.693700 0.807000
8.711500 0.804000
8.729200 0.799600
8.747000 0.794000
8.764700 0.788600
8.782500 0.783500
8.800200 0.778500
8.818000 0.773400
8.835700 0.767500
8.853400 0.762800
8.871200 0.759300
8.888900 0.756000
8.906700 0.753000
8.924400 0.749800
8.942200 0.746900
8.959900 0.747300
8.977700 0.745600
8.995400 0.744100
9.013200 0.744000
9.030900 0.745200
9.048600 0.751900
9.066400 0.771800
9.084100 0.795700
9.101900 0.794600
9.119600 0.801000
9.137400 0.802600
9.155100 0.802800
9.172900 0.804100
9.190600 0.804900
9.208400 0.807100
9.226100 0.811900
9.243800 0.817700
9.261600 0.822200
9.279300 0.825300
9.297100 0.827000
9.314800 0.827600
9.332600 0.827300
9.350300 0.826200
9.368100 0.822200
9.385800 0.819400
9.403600 0.816100
9.421300 0.815400
9.439000 0.816000
9.456800 0.818000
9.474500 0.819300
9.492300 0.813300
9.510000 0.810200
9.527800 0.810400
9.545500 0.810300
9.563300 0.812300
9.581000 0.813900
9.598800 0.815000
9.616500 0.815100
9.634200 0.813900
9.652000 0.812100
9.669700 0.809400
9.687500 0.806500
9.705200 0.803500
9.723000 0.800200
9.740700 0.795900
9.758500 0.791900
9.776200 0.788000
9.794000 0.782900
9.811700 0.777500
9.829400 0.773700
9.847200 0.770900
9.864900 0.768600
9.882700 0.762700
9.900400 0.754000
9.918200 0.745900
9.935900 0.744800
9.953700 0.746100
9.971400 0.748000
9.989200 0.750400
10.006900 0.754500
10.024600 0.758800
10.042400 0.760100
10.060100 0.759900
10.077900 0.766800
10.095600 0.771400
10.113400 0.774200
10.131100 0.777300
10.148900 0.780800
10.166600 0.785000
10.184400 0.776500
10.202100 0.778600
10.219800 0.782400
10.237600 0.786200
10.255300 0.791000
10.273100 0.795200
10.290800 0.796000
10.308600 0.793400
10.326300 0.795300
10.344100 0.798000
10.361800 0.800000
10.379600 0.802300
10.397300 0.805000
10.415000 0.819300
10.432800 0.839000
10.450500 0.837300
10.468300 0.844300
10.486000 0.852200
10.503800 0.861000
10.521500 0.869600
10.539300 0.875200
10.557000 0.877800
10.574800 0.879600
10.592500 0.883100
10.610300 0.887800
10.628000 0.891900
10.645700 0.898000
10.663500 0.899200
10.681200 0.890200
10.699000 0.878400
10.716700 0.864300
10.734500 0.856600
10.752200 0.853500
10.770000 0.849500
10.787700 0.844800
10.805500 0.840400
10.823200 0.835700
10.840900 0.831100
10.858700 0.826900
10.876400 0.823500
10.894200 0.821300
10.911900 0.820700
10.929700 0.838600
10.947400 0.848900
10.965200 0.860700
10.982900 0.865500
11.000700 0.831400
11.018400 0.813300
11.036100 0.816700
11.053900 0.826200
11.071600 0.836000
11.089400 0.845300
11.107100 0.853700
11.124900 0.861900
11.142600 0.868400
11.160400 0.876400
11.178100 0.883700
11.195900 0.891700
11.213600 0.897200
11.231300 0.898700
11.249100 0.903000
11.266800 0.907100
11.284600 0.911100
11.302300 0.904200
11.320100 0.906200
11.337800 0.907800
11.355600 0.909000
11.373300 0.908800
11.391100 0.907300
11.408800 0.906000
11.426500 0.906700
11.444300 0.909300
11.462000 0.913200
11.479800 0.917600
11.497500 0.922700
11.515300 0.928800
11.533000 0.935900
11.550800 0.951900
11.568500 0.977600
11.586300 0.965200
11.604000 0.952900
11.621700 0.952300
11.639500 0.954600
11.657200 0.955400
11.675000 0.955300
11.692700 0.956100
11.710500 0.957300
11.728200 0.958100
11.746000 0.980100
11.763700 0.982400
11.781500 0.977800
11.799200 0.972300
11.816900 0.967200
11.834700 0.962400
11.852400 0.964500
11.870200 0.961200
11.887900 0.959600
11.905700 0.955700
11.923400 0.948500
11.941200 0.940800
11.958900 0.933800
11.976700 0.927300
11.994400 0.922000
12.012100 0.918700
12.029900 0.916400
12.047600 0.914500
12.065400 0.912600
12.083100 0.910700
12.100900 0.909400
12.118600 0.908200
12.136400 0.907200
12.154100 0.906400
12.171900 0.906200
12.189600 0.906400
12.207300 0.906300
12.225100 0.906100
12.242800 0.905800
12.260600 0.905300
12.278300 0.904100
12.296100 0.901000
12.313800 0.898200
12.331600 0.896100
12.349300 0.894200
12.367100 0.892500
12.384800 0.889800
12.402500 0.887700
12.420300 0.886100
12.438000 0.885100
12.455800 0.884300
12.473500 0.884300
12.491300 0.885100
12.509000 0.886200
12.526800 0.892400
12.544500 0.898000
12.562300 0.903800
12.580000 0.909800
12.597700 0.919200
12.615500 0.928600
12.633200 0.938000
12.651000 0.947800
12.668700 0.957900
12.686500 0.948000
12.704200 0.956000
12.722000 0.965700
12.739700 0.977000
12.757500 0.971300
12.775200 0.959600
12.792900 0.952700
12.810700 0.957200
12.828400 0.962600
12.846200 0.968700
12.863900 0.974100
12.881700 0.978000
12.899400 0.980800
12.917200 0.983700
12.934900 0.985400
12.952700 0.985000
12.970400 0.964800
12.988100 0.962800
13.005900 0.960800
13.023600 0.959400
13.041400 0.958300
13.059100 0.956200
13.076900 0.954800
13.094600 0.954000
13.112400 0.953400
13.130100 0.953000
13.147900 0.952400
13.165600 0.951800
13.183400 0.951000
13.201100 0.950100
13.218800 0.949500
13.236600 0.949300
13.254300 0.949400
13.272100 0.948800
13.289800 0.949300
13.307600 0.949500
13.325300 0.950300
13.343100 0.951200
13.360800 0.952200
13.378600 0.953000
13.396300 0.953800
13.414000 0.954600
13.431800 0.955500
13.449500 0.956700
13.467300 0.958100
13.485000 0.959600
13.502800 0.999500
13.520500 0.974100
13.538300 0.976800
13.556000 0.979300
13.573800 0.981600
13.591500 0.984900
13.609200 0.987700
13.627000 0.989300
13.644700 0.989500
13.662500 0.989900
13.680200 0.990400
13.698000 0.989700
13.715700 0.988100
13.733500 0.987100
13.751200 0.986900
13.769000 0.988100
13.786700 0.989300
13.804400 0.990400
13.822200 0.991300
13.839900 0.992000
13.857700 0.992600
13.875400 0.994100
13.893200 0.996200
13.910900 0.999400
13.928700 1.003500
13.946400 1.007800
13.964200 1.010400
13.981900 1.012100
13.999600 1.013800
14.017400 1.015600
14.035100 1.017300
14.052900 1.018800
14.070600 1.020100
14.088400 1.021400
14.106100 1.022700
14.123900 1.024300
14.141600 1.026000
14.159400 1.028600
14.177100 1.031600
14.194800 1.034700
14.212600 1.037900
14.230300 1.041200
14.248100 1.044500
14.265800 1.046800
14.283600 1.048000
14.301300 1.050400
14.319100 1.053200
14.336800 1.056600
14.354600 1.060600
14.372300 1.066300
14.390000 1.073700
14.407800 1.080100
14.425500 1.084200
14.443300 1.086800
14.461000 1.088500
14.478800 1.091600
14.496500 1.096300
14.514300 1.101200
14.532000 1.104800
14.549800 1.107200
14.567500 1.109600
14.585200 1.112300
14.603000 1.114900
14.620700 1.121900
14.638500 1.123500
14.656200 1.125500
14.674000 1.128500
14.691700 1.134100
14.709500 1.140000
14.727200 1.145400
14.745000 1.147800
14.762700 1.147900
14.780400 1.146400
14.798200 1.145300
14.815900 1.144800
14.833700 1.143000
14.851400 1.140500
14.869200 1.138000
14.886900 1.135500
14.904700 1.133100
14.922400 1.130900
14.940200 1.129000
14.957900 1.132500
14.975600 1.222700
14.993400 1.124900
15.011100 1.124500
15.028900 1.121800
15.046600 1.118400
15.064400 1.114500
15.082100 1.109900
15.099900 1.105300
15.117600 1.101300
15.135400 1.098500
15.153100 1.096600
15.170800 1.095500
15.188600 1.081400
15.206300 1.076900
15.224100 1.077400
15.241800 1.080000
15.259600 1.083600
15.277300 1.088000
15.295100 1.093400
15.312800 1.100200
15.330600 1.111100
15.348300 1.122600
15.366000 1.135200
15.383800 1.147500
15.401500 1.161200
15.419300 1.157700
15.437000 1.166400
15.454800 1.176700
15.472500 1.190900
15.490300 1.204000
15.508000 1.216000
15.525800 1.226300
15.543500 1.231400
15.561200 1.230200
15.579000 1.229000
15.596700 1.229000
15.614500 1.227900
15.632200 1.225600
15.650000 1.218600
15.667700 1.218800
15.685500 1.210400
15.703200 1.210300
15.721000 1.214400
15.738700 1.217500
15.756500 1.227100
15.774200 1.212400
15.791900 1.199200
15.809700 1.189900
15.827400 1.189000
15.845200 1.192900
15.862900 1.191500
15.880700 1.184600
15.898400 1.174300
15.916200 1.160300
15.933900 1.148300
15.951700 1.138900
15.969400 1.131700
15.987100 1.121300
16.004900 1.116000
16.022600 1.111600
16.040400 1.109600
16.058100 1.110700
16.075900 1.112000
16.093600 1.113200
16.111400 1.112600
16.129100 1.106900
16.146900 1.098400
16.164600 1.089800
16.182300 1.083300
16.200100 1.076900
16.217800 1.069400
16.235600 1.060800
16.253300 1.052000
16.271100 1.043900
16.288800 1.026200
16.306600 1.010400
16.324300 0.999200
16.342100 0.988600
16.359800 0.977500
16.377500 0.985200
16.395300 0.993800
16.413000 0.999400
16.430800 0.920100
16.448500 0.911700
16.466300 0.903200
16.484000 0.893700
16.501800 0.876200
16.519500 0.863100
16.537300 0.856200
16.555000 0.849700
16.572700 0.843500
16.590500 0.837500
16.608200 0.831700
16.626000 0.827100
16.643700 0.822500
16.661500 0.818500
16.679200 0.815200
16.697000 0.813100
16.714700 0.814200
16.732500 0.818500
16.750200 0.824900
16.767900 0.828000
16.785700 0.825100
16.803400 0.826200
16.821200 0.830100
16.838900 0.832100
16.856700 0.834800
16.874400 0.838100
16.892200 0.843800
16.909900 0.847700
16.927700 0.852500
16.945400 0.858400
16.963100 0.865200
16.980900 0.872600
16.998600 0.880600
17.016400 0.888900
17.034100 0.896500
17.051900 0.902900
17.069600 0.906600
17.087400 0.904700
17.105100 0.895800
17.122900 0.888100
17.140600 0.883700
17.158300 0.881400
17.176100 0.881200
17.193800 0.882100
17.211600 0.883400
17.229300 0.884300
17.247100 0.885300
17.264800 0.885600
17.282600 0.885400
17.300300 0.884900
17.318100 0.884700
17.335800 0.884900
17.353500 0.886600
17.371300 0.890000
17.389000 0.893600
17.406800 0.896000
17.424500 0.897800
17.442300 0.901500
17.460000 0.904900
17.477800 0.907600
17.495500 0.909700
17.513300 0.909500
17.531000 0.911700
17.548700 0.920100
17.566500 0.923000
17.584200 0.926800
17.602000 0.930700
17.619700 0.932900
17.637500 0.934500
17.655200 0.936600
17.673000 0.940400
17.690700 0.937700
17.708500 0.922200
17.726200 0.917500
17.743900 0.913700
17.761700 0.910700
17.779400 0.925100
17.797200 0.943600
17.814900 0.963200
17.832700 0.978200
17.850400 0.987500
17.868200 0.977500
17.885900 0.964100
17.903700 0.957000
17.921400 0.958400
17.939100 0.956100
17.956900 0.957100
17.974600 0.961600
17.992400 0.969700
18.010100 0.976500
18.027900 0.978700
18.045600 0.981200
18.063400 0.984400
18.081100 0.985200
18.098900 0.990300
18.116600 0.998100
18.134300 1.006900
18.152100 1.012600
18.169800 1.013800
18.187600 1.015400
18.205300 1.021100
18.223100 1.025000
18.240800 1.026500
18.258600 1.029900
18.276300 1.038400
18.294100 1.048400
18.311800 1.066200
18.329600 1.075300
18.347300 1.084400
18.365000 1.094000
18.382800 1.104500
18.400500 1.116900
18.418300 1.130800
18.436000 1.145700
18.453800 1.151100
18.471500 1.164300
18.489300 1.110800
18.507000 1.109100
18.524800 1.109400
18.542500 1.112400
18.560200 1.114400
18.578000 1.112900
18.595700 1.111400
18.613500 1.110300
18.631200 1.109200
18.649000 1.108200
18.666700 1.107100
18.684500 1.105700
18.702200 1.103300
18.720000 1.099300
18.737700 1.094700
18.755400 1.090200
18.773200 1.085800
18.790900 1.082000
18.808700 1.080000
18.826400 1.079100
18.844200 1.075600
18.861900 1.071200
18.879700 1.067800
18.897400 1.065400
18.915200 1.066100
18.932900 1.109800
18.950600 1.091500
18.968400 1.075800
18.986100 1.057700
19.003900 1.046000
19.021600 1.036400
19.039400 1.026900
19.057100 1.017400
19.074900 1.017500
19.092600 1.019000
19.110400 1.020800
19.128100 1.022000
19.145800 1.023500
19.163600 1.025900
19.181300 1.031300
19.199100 1.030300
19.216800 1.038100
19.234600 1.098100
19.252300 1.093900
19.270100 1.055900
19.287800 1.038600
19.305600 1.022400
19.323300 1.001800
19.341000 0.991000
19.358800 0.948400
19.376500 0.931500
19.394300 0.936500
19.412000 0.895200
19.429800 0.889800
19.447500 0.889800
19.465300 0.890800
19.483000 0.884200
19.500800 0.879800
19.518500 0.876700
19.536200 0.874300
19.554000 0.868700
19.571700 0.868400
19.589500 0.868300
19.607200 0.868200
19.625000 0.868300
19.642700 0.868600
19.660500 0.871300
19.678200 0.874800
19.696000 0.878100
19.713700 0.881900
19.731400 0.889300
19.749200 0.893700
19.766900 0.898100
19.784700 0.902500
19.802400 0.906800
19.820200 0.910900
19.837900 0.915000
19.855700 0.919400
19.873400 0.923700
19.891200 0.928400
19.908900 0.934300
19.926600 0.941600
19.944400 0.947000
19.962100 0.953500
19.979900 0.959300
19.997600 0.964600
20.015400 0.969800
20.033100 0.975000
20.050900 0.978200
20.068600 0.983200
20.086400 0.988200
20.104100 0.993100
20.121800 1.000300
20.139600 1.008800
20.157300 1.018100
20.175100 1.028200
20.192800 1.039700
20.210600 1.052300
20.228300 1.065700
20.246100 1.079600
20.263800 1.093600
20.281600 1.103400
20.299300 1.117300
20.317000 1.126600
20.334800 1.127500
20.352500 1.128200
20.370300 1.130500
20.388000 1.134100
20.405800 1.138600
20.423500 1.144300
20.441300 1.150700
20.459000 1.157400
20.476800 1.164000
20.494500 1.170500
20.512200 1.177100
20.530000 1.184700
20.547700 1.192700
20.565500 1.201000
20.583200 1.209200
20.601000 1.214700
20.618700 1.218500
20.636500 1.218300
20.654200 1.225000
20.672000 1.235200
20.689700 1.241900
20.707500 1.246800
20.725200 1.252500
20.742900 1.253100
20.760700 1.253000
20.778400 1.252500
20.796200 1.249400
20.813900 1.238200
20.831700 1.227200
20.849400 1.216600
20.867200 1.208900
20.884900 1.204100
20.902700 1.199500
20.920400 1.194600
20.938100 1.189300
20.955900 1.183200
20.973600 1.176100
20.991400 1.167100
21.009100 1.150800
21.026900 1.143600
21.044600 1.137900
21.062400 1.132700
21.080100 1.130000
21.097900 1.126900
21.115600 1.125400
21.133300 1.125100
21.151100 1.124900
21.168800 1.125500
21.186600 1.105900
21.204300 1.101400
21.222100 1.096800
21.239800 1.090500
21.257600 1.085600
21.275300 1.082100
21.293100 1.080000
21.310800 1.077500
21.328500 1.074600
21.346300 1.071300
21.364000 1.067600
21.381800 1.065600
21.399500 1.068400
21.417300 1.070000
21.435000 1.065500
21.452800 1.054100
21.470500 1.045500
21.488300 1.039800
21.506000 1.037200
21.523700 1.035800
21.541500 1.034900
21.559200 1.034900
21.577000 1.035700
21.594700 1.036900
21.612500 1.039300
21.630200 1.043200
21.648000 1.048100
21.665700 1.053800
21.683500 1.080400
21.701200 1.087200
21.718900 1.093200
21.736700 1.098800
21.754400 1.107600
21.772200 1.117700
21.789900 1.121700
21.807700 1.129100
21.825400 1.145900
21.843200 1.166500
21.860900 1.187600
21.878700 1.185800
21.896400 1.196300
21.914100 1.240400
21.931900 1.291900
21.949600 1.336200
21.967400 1.375300
21.985100 1.409800
22.002900 1.439900
22.020600 1.466800
22.038400 1.495300
22.056100 1.524800
22.073900 1.527100
22.091600 1.522500
22.109300 1.516900
22.127100 1.519400
22.144800 1.525000
22.162600 1.536200
22.180300 1.523500
22.198100 1.481200
22.215800 1.462800
22.233600 1.444500
22.251300 1.428000
22.269100 1.414700
22.286800 1.406500
22.304500 1.404300
22.322300 1.400200
22.340000 1.395700
22.357800 1.392200
22.375500 1.390700
22.393300 1.390000
22.411000 1.390300
22.428800 1.393000
22.446500 1.381200
22.464300 1.348500
22.482000 1.319400
22.499700 1.306100
22.517500 1.291600
22.535200 1.285400
22.553000 1.278600
22.570700 1.271300
22.588500 1.264600
22.606200 1.260100
22.624000 1.264300
22.641700 1.267000
22.659500 1.302800
22.677200 1.279500
22.694900 1.273400
22.712700 1.280600
22.730400 1.287800
22.748200 1.295700
22.765900 1.304500
22.783700 1.318300
22.801400 1.332500
22.819200 1.338900
22.836900 1.346800
22.854700 1.360500
22.872400 1.371700
22.890100 1.383500
22.907900 1.394900
22.925600 1.404200
22.943400 1.417800
22.961100 1.438400
22.978900 1.437600
22.996600 1.432300
23.014400 1.414700
23.032100 1.391400
23.049900 1.371300
23.067600 1.352800
23.085300 1.337000
23.103100 1.323700
23.120800 1.312500
23.138600 1.305800
23.156300 1.301300
23.174100 1.297100
23.191800 1.291100
23.209600 1.292700
23.227300 1.292000
23.245100 1.291200
23.262800 1.290700
23.280600 1.270500
23.298300 1.255700
23.316000 1.252100
23.333800 1.247400
23.351500 1.241200
23.369300 1.226600
23.387000 1.206300
23.404800 1.190400
23.422500 1.178000
23.440300 1.183000
23.458000 1.203800
23.475800 1.174400
23.493500 1.186500
23.511200 1.152300
23.529000 1.130800
23.546700 1.121200
23.564500 1.116600
23.582200 1.110600
23.600000 1.103700
23.617700 1.097100
23.635500 1.091100
23.653200 1.088200
23.671000 1.083900
23.688700 1.076700
23.706400 1.070200
23.724200 1.063600
23.741900 1.060100
23.759700 1.047400
23.777400 1.042300
23.795200 1.039400
23.812900 1.036800
23.830700 1.035000
23.848400 1.034500
23.866200 1.035400
23.883900 1.037900
23.901600 1.038100
23.919400 1.034300
23.937100 1.027900
23.954900 1.019900
23.972600 1.011700
23.990400 1.002300
24.008100 0.994100
24.025900 0.987200
24.043600 0.982500
24.061400 0.978800
24.079100 0.975900
24.096800 0.973900
24.114600 0.972800
24.132300 0.967300
24.150100 0.963900
24.167800 0.961300
24.185600 0.956400
24.203300 0.954700
24.221100 0.954700
24.238800 0.932400
24.256600 0.930000
24.274300 0.928100
24.292000 0.927100
24.309800 0.928100
24.327500 0.929200
24.345300 0.929600
24.363000 0.931100
24.380800 0.938300
24.398500 0.936400
24.416300 0.933300
24.434000 0.930100
24.451800 0.925700
24.469500 0.915300
24.487200 0.912100
24.505000 0.909800
24.522700 0.908100
24.540500 0.907400
24.558200 0.900400
24.576000 0.901200
24.593700 0.903000
24.611500 0.905300
24.629200 0.906900
24.647000 0.908200
24.664700 0.910700
24.682400 0.913000
24.700200 0.914300
24.717900 0.912900
24.735700 0.910000
24.753400 0.904900
24.771200 0.898300
24.788900 0.891900
24.806700 0.886100
24.824400 0.892000
24.842200 0.884600
24.859900 0.870900
24.877600 0.858200
24.895400 0.850200
24.913100 0.846700
24.930900 0.844400
24.948600 0.873900
24.966400 0.826100
24.984100 0.793500
25.001900 0.790100
25.019600 0.786400
25.037400 0.783300
25.055100 0.772100
25.072800 0.768500
25.090600 0.765100
25.108300 0.761500
25.126100 0.757600
25.143800 0.753800
25.161600 0.740400
25.179300 0.713100
25.197100 0.696100
25.214800 0.680500
25.232600 0.652000
25.250300 0.636800
25.268000 0.617000
25.285800 0.598800
25.303500 0.582800
25.321300 0.570000
25.339000 0.556800
25.356800 0.544000
25.374500 0.533700
25.392300 0.526000
25.410000 0.518700
25.427800 0.511600
25.445500 0.504700
25.463200 0.497500
25.481000 0.490700
25.498700 0.484400
25.516500 0.481500
25.534200 0.475800
25.552000 0.457100
25.569700 0.438300
25.587500 0.428400
25.605200 0.421100
25.623000 0.414500
25.640700 0.408800
25.658400 0.403700
25.676200 0.398800
25.693900 0.393800
25.711700 0.388900
25.729400 0.384100
25.747200 0.379400
25.764900 0.374400
25.782700 0.368500
25.800400 0.362200
25.818200 0.355900
25.835900 0.350000
25.853700 0.344700
25.871400 0.339700
25.889100 0.334400
25.906900 0.329000
25.924600 0.323600
25.942400 0.314600
25.960100 0.310500
25.977900 0.306100
25.995600 0.301200
26.013400 0.296000
26.031100 0.290800
26.048900 0.285700
26.066600 0.280900
26.084300 0.276200
26.102100 0.271700
26.119800 0.269700
26.137600 0.270100
26.155300 0.271100
26.173100 0.268900
26.190800 0.264800
26.208600 0.256800
26.226300 0.248300
26.244100 0.241700
26.261800 0.234900
26.279500 0.228200
26.297300 0.222000
26.315000 0.216900
26.332800 0.212800
26.350500 0.208900
26.368300 0.201900
26.386000 0.190800
26.403800 0.184500
26.421500 0.178300
26.439300 0.172200
26.457000 0.166100
26.474700 0.160200
26.492500 0.154300
26.510200 0.148400
26.528000 0.142500
26.545700 0.137600
26.563500 0.133700
26.581200 0.131100
26.599000 0.129800
26.616700 0.128900
26.634500 0.126400
26.652200 0.124300
26.669900 0.122700
26.687700 0.121400
26.705400 0.119200
26.723200 0.113400
26.740900 0.109700
26.758700 0.106700
26.776400 0.103800
26.794200 0.101000
26.811900 0.098700
26.829700 0.096100
26.847400 0.093300
26.865100 0.090100
26.882900 0.086600
26.900600 0.082800
26.918400 0.078800
26.936100 0.075100
26.953900 0.072000
26.971600 0.069300
26.989400 0.067000
27.007100 0.063900
27.024900 0.060900
27.042600 0.057900
27.060300 0.055000
27.078100 0.052100
27.095800 0.049400
27.113600 0.047300
27.131300 0.045300
27.149100 0.043400
27.166800 0.041600
27.184600 0.039800
27.202300 0.038200
27.220100 0.037500
27.237800 0.037400
27.255500 0.037300
27.273300 0.037200
27.291000 0.037100
27.308800 0.037100
27.326500 0.036300
27.344300 0.034400
27.362000 0.032700
27.379800 0.031000
27.397500 0.029400
27.415300 0.028000
27.433000 0.026600
27.450700 0.025300
27.468500 0.024200
27.486200 0.023200
27.504000 0.022200
27.521700 0.021400
27.539500 0.020600
27.557200 0.019800
27.575000 0.019000
27.592700 0.018300
27.610500 0.017500
27.628200 0.016800
27.645900 0.016100
27.663700 0.015400
27.681400 0.014700
27.699200 0.014000
27.716900 0.013300
27.734700 0.012700
27.752400 0.012000
27.770200 0.011000
27.787900 0.009400
27.805700 0.007500
27.823400 0.006100
27.841100 0.004800
27.858900 0.003700
27.876600 0.002700
27.894400 0.001900
27.912100 0.001200
27.929900 0.000700
27.947600 0.000300
27.965400 0.000100
27.983100 0.000000
28.000900 0.000000
28.018600 0.000000
28.036300 0.000000
28.054100 0.000000
28.071800 0.000000
28.089600 0.000000
28.107300 0.000000
28.125100 0.000000
28.142800 0.000000
28.160600 0.000000
28.178300 0.000000
28.196100 0.000000
28.213800 0.000000
28.231500 0.000000
28.249300 0.000000
28.267000 0.000000
28.284800 0.000000
28.302500 0.000000
28.320300 0.000000
28.338000 0.000000
28.355800 0.000000
28.373500 0.000000
28.391300 0.000000
28.409000 0.000000
28.426800 0.000000
28.444500 0.000000
28.462200 0.000000
28.480000 0.000000
28.497700 0.000000
28.515500 0.000000
28.533200 0.000000
28.551000 0.000000
28.568700 0.000000
28.586500 0.000000
28.604200 0.000000
28.622000 0.000000
28.639700 0.000000
28.657400 0.000000
28.675200 0.000000
28.692900 0.000000
28.710700 0.000000
28.728400 0.000000
28.746200 0.000000
28.763900 0.000000
28.781700 0.000000
28.799400 0.000000
28.817200 0.000000
28.834900 0.000000
28.852600 0.000000
28.870400 0.000000
28.888100 0.000000
28.905900 0.000000
28.923600 0.000000
28.941400 0.000000
28.959100 0.000000
28.976900 0.000000
28.994600 0.000000
29.012400 0.000000
29.030100 0.000000
29.047800 0.000000
29.065600 0.000000
29.083300 0.000000
29.101100 0.000000
29.118800 0.000000
29.136600 0.000000
29.154300 0.000000
29.172100 0.000000
29.189800 0.000000
29.207600 0.000000
29.225300 0.000000
29.243000 0.000000
29.260800 0.000000
29.278500 0.000000
29.296300 0.000000
29.314000 0.000000
29.331800 0.000000
29.349500 0.000000
29.367300 0.000000
29.385000 0.000000
29.402800 0.000000
29.420500 0.000000
29.438200 0.000000
29.456000 0.000000
29.473700 0.000000
29.491500 0.000000
29.509200 0.000000
29.527000 0.000000
29.544700 0.000000
29.562500 0.000000
29.580200 0.000000
29.598000 0.000000
e
