set title 'mp-567907 - Density of States'
set xlabel 'Energy (eV)'
set ylabel 'DOS (states/eV)'
set grid
set xrange [-10:10]
set yrange [0:27.059]
set xzeroaxis lt -1
set terminal png size 800,600
set output 'mp-567907_dos_gnuplot.png'
plot '-' using 1:2 with lines title 'DOS'
-18.253000 0.000000
-18.233300 0.000000
-18.213600 0.000000
-18.193800 0.000000
-18.174100 0.000000
-18.154400 0.000000
-18.134600 0.000000
-18.114900 0.000000
-18.095200 0.000000
-18.075400 0.000000
-18.055700 0.000000
-18.035900 0.000000
-18.016200 0.000000
-17.996500 0.000000
-17.976700 0.000000
-17.957000 0.000000
-17.937300 0.000000
-17.917500 0.000000
-17.897800 0.000000
-17.878000 0.000000
-17.858300 0.000000
-17.838600 0.000000
-17.818800 0.000000
-17.799100 0.000000
-17.779400 0.000000
-17.759600 0.000000
-17.739900 0.000000
-17.720200 0.000000
-17.700400 0.000000
-17.680700 0.000000
-17.660900 0.000000
-17.641200 0.000000
-17.621500 0.000000
-17.601700 0.000000
-17.582000 0.000000
-17.562300 0.000000
-17.542500 0.000000
-17.522800 0.000000
-17.503100 0.000000
-17.483300 0.000000
-17.463600 0.000000
-17.443800 0.000000
-17.424100 0.000000
-17.404400 0.000000
-17.384600 0.000000
-17.364900 0.000000
-17.345200 0.000000
-17.325400 0.000000
-17.305700 0.000000
-17.286000 0.000000
-17.266200 0.000000
-17.246500 0.000000
-17.226700 0.000000
-17.207000 0.000000
-17.187300 0.000000
-17.167500 0.000000
-17.147800 0.000000
-17.128100 0.000000
-17.108300 0.000000
-17.088600 0.000000
-17.068900 0.000000
-17.049100 0.000000
-17.029400 0.000000
-17.009600 0.000000
-16.989900 0.000000
-16.970200 0.000000
-16.950400 0.000000
-16.930700 0.000000
-16.911000 0.000000
-16.891200 0.000000
-16.871500 0.000000
-16.851700 0.000000
-16.832000 0.000000
-16.812300 0.000000
-16.792500 0.000000
-16.772800 0.000000
-16.753100 0.000000
-16.733300 0.000000
-16.713600 0.000000
-16.693900 0.000000
-16.674100 0.000000
-16.654400 0.000000
-16.634600 0.000000
-16.614900 0.000000
-16.595200 0.000000
-16.575400 0.000000
-16.555700 0.000000
-16.536000 0.000000
-16.516200 0.000000
-16.496500 0.000000
-16.476800 0.000000
-16.457000 0.000500
-16.437300 0.071600
-16.417500 0.262900
-16.397800 0.574600
-16.378100 1.006500
-16.358300 1.406900
-16.338600 1.650400
-16.318900 1.807500
-16.299100 2.031100
-16.279400 2.267600
-16.259700 2.474600
-16.239900 2.651900
-16.220200 2.799500
-16.200400 3.189100
-16.180700 3.062800
-16.161000 3.297000
-16.141200 3.547500
-16.121500 3.814200
-16.101800 4.097100
-16.082000 4.399000
-16.062300 5.114200
-16.042600 6.272900
-16.022800 6.110100
-16.003100 5.768600
-15.983300 5.475900
-15.963600 5.259200
-15.943900 5.061200
-15.924100 4.963600
-15.904400 5.255200
-15.884700 5.440500
-15.864900 5.323100
-15.845200 5.565900
-15.825400 6.032300
-15.805700 6.576700
-15.786000 6.756500
-15.766200 6.657700
-15.746500 8.310100
-15.726800 6.848400
-15.707000 6.757800
-15.687300 9.255700
-15.667600 7.347000
-15.647800 5.716100
-15.628100 4.480900
-15.608300 3.699400
-15.588600 3.265100
-15.568900 3.401700
-15.549100 3.341300
-15.529400 3.050200
-15.509700 1.793400
-15.489900 0.785600
-15.470200 0.292600
-15.450500 0.069900
-15.430700 0.000000
-15.411000 0.000000
-15.391200 0.000000
-15.371500 0.000000
-15.351800 0.000000
-15.332000 0.000000
-15.312300 0.000000
-15.292600 0.000000
-15.272800 0.000000
-15.253100 0.000000
-15.233400 0.000000
-15.213600 0.000000
-15.193900 0.000000
-15.174100 0.000000
-15.154400 0.000000
-15.134700 0.000000
-15.114900 0.000000
-15.095200 0.000000
-15.075500 0.000000
-15.055700 0.000000
-15.036000 0.000000
-15.016300 0.000000
-14.996500 0.000000
-14.976800 0.000000
-14.957000 0.000000
-14.937300 0.000000
-14.917600 0.000000
-14.897800 0.000000
-14.878100 0.000000
-14.858400 0.000000
-14.838600 0.000000
-14.818900 0.000000
-14.799100 0.000000
-14.779400 0.000000
-14.759700 0.000000
-14.739900 0.000000
-14.720200 0.000000
-14.700500 0.000000
-14.680700 0.000000
-14.661000 0.000000
-14.641300 0.000000
-14.621500 0.000200
-14.601800 0.042400
-14.582000 1.152500
-14.562300 2.235400
-14.542600 3.925700
-14.522800 5.259500
-14.503100 5.680500
-14.483400 5.920800
-14.463600 6.503000
-14.443900 6.340800
-14.424200 6.589400
-14.404400 6.822300
-14.384700 6.671100
-14.364900 6.215100
-14.345200 5.900000
-14.325500 5.594700
-14.305700 5.389100
-14.286000 3.620000
-14.266300 2.678300
-14.246500 2.069100
-14.226800 1.611800
-14.207100 1.473900
-14.187300 1.343700
-14.167600 1.221200
-14.147800 1.139500
-14.128100 1.252000
-14.108400 1.384000
-14.088600 1.509600
-14.068900 1.757400
-14.049200 2.294200
-14.029400 2.438000
-14.009700 2.605300
-13.990000 2.522900
-13.970200 2.279500
-13.950500 2.190200
-13.930700 2.192000
-13.911000 2.194300
-13.891300 2.197200
-13.871500 2.200700
-13.851800 2.235400
-13.832100 2.336800
-13.812300 2.435000
-13.792600 2.474900
-13.772800 2.440600
-13.753100 2.407500
-13.733400 2.415100
-13.713600 2.467600
-13.693900 2.560600
-13.674200 2.746000
-13.654400 2.983200
-13.634700 3.232200
-13.615000 3.488700
-13.595200 3.742600
-13.575500 4.163400
-13.555700 4.841000
-13.536000 5.012200
-13.516300 4.728700
-13.496500 4.311900
-13.476800 4.152300
-13.457100 3.990100
-13.437300 3.869700
-13.417600 3.712600
-13.397900 3.416100
-13.378100 3.236000
-13.358400 3.194500
-13.338600 3.173600
-13.318900 3.251100
-13.299200 3.428200
-13.279400 3.778500
-13.259700 4.268200
-13.240000 4.686900
-13.220200 4.938800
-13.200500 5.117700
-13.180800 5.173200
-13.161000 5.088600
-13.141300 4.879800
-13.121500 4.643100
-13.101800 4.373700
-13.082100 3.845200
-13.062300 3.254800
-13.042600 2.916500
-13.022900 2.861900
-13.003100 2.827700
-12.983400 2.800100
-12.963700 2.775600
-12.943900 2.751900
-12.924200 2.728700
-12.904400 2.706300
-12.884700 2.686800
-12.865000 2.676900
-12.845200 2.670500
-12.825500 2.668600
-12.805800 2.667800
-12.786000 2.666100
-12.766300 2.663100
-12.746500 2.691700
-12.726800 2.688200
-12.707100 2.678500
-12.687300 2.679600
-12.667600 2.695600
-12.647900 2.728700
-12.628100 2.903400
-12.608400 3.084900
-12.588700 3.147800
-12.568900 2.932100
-12.549200 2.761100
-12.529400 2.836000
-12.509700 2.917200
-12.490000 3.013700
-12.470200 3.300100
-12.450500 3.436600
-12.430800 3.321600
-12.411000 3.184700
-12.391300 3.026200
-12.371600 2.859100
-12.351800 2.744200
-12.332100 2.680600
-12.312300 2.615800
-12.292600 2.496400
-12.272900 2.411900
-12.253100 2.350700
-12.233400 2.492900
-12.213700 2.544500
-12.193900 2.403900
-12.174200 2.526300
-12.154500 2.145100
-12.134700 1.496500
-12.115000 0.846700
-12.095200 0.445400
-12.075500 0.605000
-12.055800 1.152600
-12.036000 1.654700
-12.016300 2.827100
-11.996600 5.252400
-11.976800 7.082100
-11.957100 9.265300
-11.937400 14.256600
-11.917600 12.466900
-11.897900 11.648000
-11.878100 15.402600
-11.858400 7.941500
-11.838700 6.861200
-11.818900 6.830400
-11.799200 7.041700
-11.779500 9.550500
-11.759700 9.576300
-11.740000 12.344700
-11.720200 17.194300
-11.700500 14.637400
-11.680800 13.904000
-11.661000 9.745600
-11.641300 4.072700
-11.621600 1.538200
-11.601800 0.717500
-11.582100 1.486200
-11.562400 3.204200
-11.542600 5.179000
-11.522900 7.774900
-11.503100 11.648300
-11.483400 14.416100
-11.463700 17.007200
-11.443900 16.785500
-11.424200 14.069200
-11.404500 11.943700
-11.384700 16.962200
-11.365000 15.836000
-11.345300 18.013600
-11.325500 18.943000
-11.305800 13.495300
-11.286000 8.443400
-11.266300 4.520500
-11.246600 2.317800
-11.226800 0.914400
-11.207100 0.208400
-11.187400 0.000000
-11.167600 0.000000
-11.147900 0.000000
-11.128200 0.000000
-11.108400 0.000000
-11.088700 0.000000
-11.068900 0.000000
-11.049200 0.000000
-11.029500 0.000000
-11.009700 0.000000
-10.990000 0.000000
-10.970300 0.000000
-10.950500 0.000000
-10.930800 0.000000
-10.911000 0.000000
-10.891300 0.000000
-10.871600 0.000000
-10.851800 0.000000
-10.832100 0.000000
-10.812400 0.000000
-10.792600 0.000000
-10.772900 0.000000
-10.753200 0.000000
-10.733400 0.000000
-10.713700 0.000000
-10.693900 0.000000
-10.674200 0.000000
-10.654500 0.000000
-10.634700 0.000000
-10.615000 0.000000
-10.595300 0.000000
-10.575500 0.000000
-10.555800 0.000000
-10.536100 0.000000
-10.516300 0.000000
-10.496600 0.000000
-10.476800 0.000000
-10.457100 0.000000
-10.437400 0.000000
-10.417600 0.000000
-10.397900 0.000000
-10.378200 0.000000
-10.358400 0.000000
-10.338700 0.000000
-10.319000 0.000000
-10.299200 0.000000
-10.279500 0.000000
-10.259700 0.000000
-10.240000 0.000000
-10.220300 0.000000
-10.200500 0.000000
-10.180800 0.000000
-10.161100 0.000000
-10.141300 0.000000
-10.121600 0.000000
-10.101900 0.000000
-10.082100 0.000000
-10.062400 0.000000
-10.042600 0.000000
-10.022900 0.000000
-10.003200 0.000000
-9.983400 0.000000
-9.963700 0.000000
-9.944000 0.000000
-9.924200 0.000000
-9.904500 0.000000
-9.884700 0.000000
-9.865000 0.001000
-9.845300 0.003500
-9.825500 0.007500
-9.805800 0.013100
-9.786100 0.020200
-9.766300 0.028800
-9.746600 0.039000
-9.726900 0.050700
-9.707100 0.063900
-9.687400 0.078700
-9.667600 0.095000
-9.647900 0.112900
-9.628200 0.132300
-9.608400 0.153200
-9.588700 0.175700
-9.569000 0.199700
-9.549200 0.225200
-9.529500 0.252300
-9.509800 0.280900
-9.490000 0.311000
-9.470300 0.342700
-9.450500 0.375900
-9.430800 0.410700
-9.411100 0.447000
-9.391300 0.484800
-9.371600 0.523500
-9.351900 0.566600
-9.332100 0.614100
-9.312400 0.666000
-9.292700 0.772100
-9.272900 0.909500
-9.253200 1.011400
-9.233400 1.104700
-9.213700 1.198300
-9.194000 1.288500
-9.174200 1.375300
-9.154500 1.458600
-9.134800 1.538600
-9.115000 1.615100
-9.095300 1.688300
-9.075600 1.758000
-9.055800 1.885200
-9.036100 1.991100
-9.016300 2.052500
-8.996600 2.069200
-8.976900 2.041400
-8.957100 1.969000
-8.937400 1.970300
-8.917700 1.984000
-8.897900 2.001900
-8.878200 2.025600
-8.858400 2.055100
-8.838700 2.092800
-8.819000 2.121200
-8.799200 2.052400
-8.779500 1.986700
-8.759800 1.932100
-8.740000 1.885700
-8.720300 1.846400
-8.700600 1.813900
-8.680800 1.786600
-8.661100 1.763700
-8.641300 1.762500
-8.621600 1.782500
-8.601900 1.820200
-8.582100 1.853900
-8.562400 1.865700
-8.542700 1.855200
-8.522900 1.822100
-8.503200 1.766600
-8.483500 1.689300
-8.463700 1.642600
-8.444000 1.645900
-8.424200 1.674100
-8.404500 1.704300
-8.384800 1.736500
-8.365000 1.769100
-8.345300 1.792400
-8.325600 1.817000
-8.305800 1.842900
-8.286100 1.870200
-8.266400 1.905500
-8.246600 1.949700
-8.226900 1.991900
-8.207100 2.037600
-8.187400 2.086200
-8.167700 2.136500
-8.147900 2.188400
-8.128200 2.336000
-8.108500 2.505800
-8.088700 2.638500
-8.069000 2.734000
-8.049300 2.792300
-8.029500 2.795100
-8.009800 2.772300
-7.990000 2.759700
-7.970300 2.786900
-7.950600 2.815400
-7.930800 2.820400
-7.911100 2.822300
-7.891400 2.820400
-7.871600 2.806800
-7.851900 2.775300
-7.832100 2.781800
-7.812400 2.853300
-7.792700 2.947000
-7.772900 2.787600
-7.753200 2.645200
-7.733500 2.576100
-7.713700 2.579700
-7.694000 2.597600
-7.674300 2.617800
-7.654500 2.631900
-7.634800 2.639100
-7.615000 2.639200
-7.595300 2.635800
-7.575600 2.685500
-7.555800 2.822200
-7.536100 3.011900
-7.516400 3.147300
-7.496600 3.212100
-7.476900 3.200900
-7.457200 3.313700
-7.437400 3.206400
-7.417700 3.125100
-7.397900 3.136200
-7.378200 3.128500
-7.358500 3.086500
-7.338700 2.910100
-7.319000 2.687000
-7.299300 2.430800
-7.279500 2.203400
-7.259800 2.057500
-7.240100 1.951700
-7.220300 1.866400
-7.200600 1.800700
-7.180800 1.752300
-7.161100 1.721200
-7.141400 1.707500
-7.121600 1.710900
-7.101900 1.722300
-7.082200 1.736700
-7.062400 1.760400
-7.042700 1.852800
-7.023000 1.916200
-7.003200 1.967400
-6.983500 2.011300
-6.963700 2.048300
-6.944000 2.079200
-6.924300 2.108900
-6.904500 2.140700
-6.884800 2.168300
-6.865100 2.205100
-6.845300 2.253600
-6.825600 2.263100
-6.805800 2.277700
-6.786100 2.416400
-6.766400 2.408600
-6.746600 2.359200
-6.726900 2.284100
-6.707200 2.181400
-6.687400 2.075000
-6.667700 2.002800
-6.648000 1.970500
-6.628200 1.977300
-6.608500 1.986000
-6.588700 1.984500
-6.569000 1.972500
-6.549300 1.950300
-6.529500 1.940400
-6.509800 1.963100
-6.490100 1.985100
-6.470300 2.006300
-6.450600 2.026800
-6.430900 2.046500
-6.411100 2.052700
-6.391400 2.055800
-6.371600 2.072100
-6.351900 2.089000
-6.332200 2.131500
-6.312400 2.177500
-6.292700 2.224400
-6.273000 2.273800
-6.253200 2.344800
-6.233500 2.430000
-6.213800 2.519500
-6.194000 2.694100
-6.174300 3.041100
-6.154500 3.528000
-6.134800 4.032200
-6.115100 4.462100
-6.095300 4.676300
-6.075600 4.709000
-6.055900 4.696200
-6.036100 4.663800
-6.016400 3.153600
-5.996700 2.834800
-5.976900 2.558100
-5.957200 2.319200
-5.937400 2.110500
-5.917700 1.926200
-5.898000 1.770200
-5.878200 1.642300
-5.858500 1.408600
-5.838800 1.181500
-5.819000 1.007300
-5.799300 0.885300
-5.779500 0.813300
-5.759800 0.786500
-5.740100 0.800300
-5.720300 0.853100
-5.700600 0.932800
-5.680900 1.045300
-5.661100 1.219100
-5.641400 1.468600
-5.621700 1.937500
-5.601900 2.610600
-5.582200 3.379500
-5.562400 4.227500
-5.542700 4.803500
-5.523000 4.919000
-5.503200 4.981300
-5.483500 4.966100
-5.463800 4.842700
-5.444000 4.549000
-5.424300 4.030800
-5.404600 3.650300
-5.384800 3.407700
-5.365100 3.290800
-5.345300 3.208000
-5.325600 3.140700
-5.305900 3.101300
-5.286100 3.100300
-5.266400 3.230800
-5.246700 3.355100
-5.226900 3.457600
-5.207200 3.538500
-5.187500 3.598000
-5.167700 3.677000
-5.148000 3.780700
-5.128200 3.927500
-5.108500 4.147800
-5.088800 4.417300
-5.069000 4.652300
-5.049300 4.825100
-5.029600 5.063300
-5.009800 4.571100
-4.990100 4.434600
-4.970400 4.355200
-4.950600 4.431100
-4.930900 4.511600
-4.911100 4.822300
-4.891400 5.742800
-4.871700 5.748600
-4.851900 5.206100
-4.832200 4.538900
-4.812500 3.926200
-4.792700 3.550200
-4.773000 3.312800
-4.753200 3.124400
-4.733500 2.904200
-4.713800 2.619900
-4.694000 2.278600
-4.674300 1.880600
-4.654600 1.372400
-4.634800 0.961600
-4.615100 0.610400
-4.595400 0.402200
-4.575600 0.400800
-4.555900 0.730500
-4.536100 1.209900
-4.516400 1.985200
-4.496700 3.669700
-4.476900 5.242900
-4.457200 4.862600
-4.437500 5.633900
-4.417700 6.585000
-4.398000 7.880700
-4.378300 9.808900
-4.358500 11.940700
-4.338800 8.247200
-4.319000 6.129700
-4.299300 5.015700
-4.279600 4.878400
-4.259800 5.170600
-4.240100 5.826500
-4.220400 6.582200
-4.200600 7.246600
-4.180900 7.935800
-4.161200 8.579100
-4.141400 8.972400
-4.121700 7.477700
-4.101900 5.732800
-4.082200 4.978900
-4.062500 4.732700
-4.042700 4.664700
-4.023000 4.771000
-4.003300 4.991500
-3.983500 5.185700
-3.963800 5.348500
-3.944100 5.457900
-3.924300 5.149600
-3.904600 4.022500
-3.884800 2.799100
-3.865100 1.537300
-3.845400 0.451200
-3.825600 0.205800
-3.805900 0.059400
-3.786200 0.004000
-3.766400 0.000000
-3.746700 0.002500
-3.726900 0.015200
-3.707200 0.038800
-3.687500 0.073200
-3.667700 0.118400
-3.648000 0.174500
-3.628300 0.241400
-3.608500 0.319100
-3.588800 0.407700
-3.569100 0.507000
-3.549300 1.395100
-3.529600 2.285700
-3.509800 2.827400
-3.490100 3.290000
-3.470400 3.536600
-3.450600 3.466700
-3.430900 3.130900
-3.411200 3.106500
-3.391400 3.252300
-3.371700 3.504800
-3.352000 3.915400
-3.332200 4.388000
-3.312500 4.905400
-3.292700 5.478000
-3.273000 6.421700
-3.253300 7.766100
-3.233500 10.275000
-3.213800 13.487700
-3.194100 12.773000
-3.174300 9.877700
-3.154600 8.084100
-3.134900 6.284600
-3.115100 5.525500
-3.095400 4.392600
-3.075600 4.735700
-3.055900 5.400800
-3.036200 6.135400
-3.016400 6.407200
-2.996700 6.571200
-2.977000 6.803300
-2.957200 7.498700
-2.937500 10.011200
-2.917800 8.367900
-2.898000 7.482800
-2.878300 6.210700
-2.858500 5.885200
-2.838800 5.827000
-2.819100 5.115400
-2.799300 5.525500
-2.779600 6.216400
-2.759900 6.875800
-2.740100 7.638600
-2.720400 8.156300
-2.700600 8.571300
-2.680900 9.498200
-2.661200 9.682300
-2.641400 9.101200
-2.621700 7.097500
-2.602000 4.665500
-2.582200 4.740500
-2.562500 3.591600
-2.542800 2.873400
-2.523000 2.978500
-2.503300 3.300600
-2.483500 4.438700
-2.463800 7.089900
-2.444100 10.465600
-2.424300 13.063000
-2.404600 14.118100
-2.384900 12.552400
-2.365100 7.649800
-2.345400 3.625300
-2.325700 1.618200
-2.305900 0.892500
-2.286200 0.678500
-2.266400 0.655400
-2.246700 1.081300
-2.227000 2.456900
-2.207200 3.964100
-2.187500 5.401300
-2.167800 7.549900
-2.148000 9.941700
-2.128300 11.856000
-2.108600 14.117000
-2.088800 12.704700
-2.069100 7.599300
-2.049300 5.974000
-2.029600 5.437700
-2.009900 6.672800
-1.990100 8.236100
-1.970400 10.799900
-1.950700 12.319900
-1.930900 12.873500
-1.911200 12.708200
-1.891500 13.638500
-1.871700 10.620100
-1.852000 7.387700
-1.832200 5.390100
-1.812500 3.923800
-1.792800 3.079300
-1.773000 2.429400
-1.753300 1.951500
-1.733600 0.995500
-1.713800 0.374900
-1.694100 0.137200
-1.674300 0.029900
-1.654600 0.000000
-1.634900 0.000000
-1.615100 0.000000
-1.595400 0.000000
-1.575700 0.000000
-1.555900 0.000000
-1.536200 0.000000
-1.516500 0.000000
-1.496700 0.000000
-1.477000 0.000000
-1.457200 0.000000
-1.437500 0.000000
-1.417800 0.000000
-1.398000 0.000000
-1.378300 0.000000
-1.358600 0.000000
-1.338800 0.000000
-1.319100 0.000000
-1.299400 0.000000
-1.279600 0.000000
-1.259900 0.000000
-1.240100 0.000000
-1.220400 0.000000
-1.200700 0.000000
-1.180900 0.000000
-1.161200 0.000000
-1.141500 0.000000
-1.121700 0.000000
-1.102000 0.000000
-1.082300 0.000000
-1.062500 0.000000
-1.042800 0.000000
-1.023000 0.000000
-1.003300 0.000000
-0.983600 0.000000
-0.963800 0.000000
-0.944100 0.000000
-0.924400 0.000000
-0.904600 0.000000
-0.884900 0.000000
-0.865200 0.000000
-0.845400 0.000000
-0.825700 0.000000
-0.805900 0.000000
-0.786200 0.000000
-0.766500 0.000000
-0.746700 0.000000
-0.727000 0.000000
-0.707300 0.000000
-0.687500 0.000000
-0.667800 0.000000
-0.648000 0.000000
-0.628300 0.000000
-0.608600 0.000000
-0.588800 0.000000
-0.569100 0.000000
-0.549400 0.000000
-0.529600 0.000000
-0.509900 0.000000
-0.490200 0.000000
-0.470400 0.000000
-0.450700 0.000000
-0.430900 0.000000
-0.411200 0.000000
-0.391500 0.000000
-0.371700 0.077800
-0.352000 2.271500
-0.332300 10.420500
-0.312500 11.448100
-0.292800 10.818400
-0.273100 9.644500
-0.253300 9.235200
-0.233600 6.510600
-0.213800 5.205700
-0.194100 6.265800
-0.174400 7.711700
-0.154600 8.389400
-0.134900 8.608300
-0.115200 8.503300
-0.095400 7.958000
-0.075700 7.490200
-0.056000 7.263000
-0.036200 7.095000
-0.016500 6.954300
0.003300 6.831800
0.023000 6.788300
0.042700 6.680800
0.062500 5.678100
0.082200 5.522700
0.101900 5.529500
0.121700 5.567700
0.141400 5.582000
0.161100 6.345000
0.180900 8.126700
0.200600 10.411600
0.220400 13.968400
0.240100 11.423500
0.259800 9.428700
0.279600 7.668200
0.299300 6.743300
0.319000 5.767500
0.338800 4.994000
0.358500 4.568800
0.378300 4.636900
0.398000 4.882100
0.417700 5.295600
0.437500 5.469700
0.457200 5.598500
0.476900 5.596200
0.496700 5.516200
0.516400 5.582000
0.536100 8.646800
0.555900 7.652300
0.575600 6.531100
0.595400 6.532800
0.615100 7.767400
0.634800 7.993900
0.654600 9.040600
0.674300 9.694700
0.694000 8.936000
0.713800 8.634000
0.733500 7.832400
0.753200 6.159500
0.773000 3.448800
0.792700 2.829600
0.812500 2.666200
0.832200 2.567300
0.851900 3.236800
0.871700 4.734600
0.891400 5.632100
0.911100 6.480500
0.930900 7.092200
0.950600 7.580600
0.970300 8.077500
0.990100 9.408000
1.009800 11.102200
1.029600 11.438600
1.049300 10.194400
1.069000 7.692600
1.088800 6.394500
1.108500 8.084600
1.128200 10.365500
1.148000 10.872200
1.167700 10.774700
1.187400 9.698200
1.207200 8.424900
1.226900 6.621900
1.246700 5.794900
1.266400 5.469800
1.286100 5.792800
1.305900 6.504800
1.325600 9.289700
1.345300 8.956100
1.365100 9.097900
1.384800 11.065900
1.404600 11.991100
1.424300 13.045600
1.444000 12.735500
1.463800 11.868100
1.483500 10.688300
1.503200 9.210300
1.523000 7.631100
1.542700 7.997400
1.562400 10.539200
1.582200 11.843700
1.601900 12.539600
1.621700 12.851600
1.641400 12.257500
1.661100 10.504300
1.680900 7.814500
1.700600 6.620900
1.720300 7.093400
1.740100 6.462200
1.759800 6.905600
1.779500 7.812100
1.799300 8.963300
1.819000 10.409100
1.838800 12.064700
1.858500 11.766700
1.878200 9.660400
1.898000 5.298300
1.917700 1.983500
1.937400 1.856900
1.957200 2.057700
1.976900 7.107100
1.996600 11.497500
2.016400 21.030500
2.036100 24.598900
2.055900 11.561200
2.075600 6.645400
2.095300 4.452800
2.115100 4.408300
2.134800 10.907700
2.154500 11.885400
2.174300 11.820900
2.194000 11.701800
2.213800 11.879300
2.233500 12.948000
2.253200 10.779800
2.273000 8.218500
2.292700 5.704700
2.312400 3.566900
2.332200 1.915300
2.351900 4.409200
2.371600 8.940900
2.391400 10.220200
2.411100 13.318500
2.430900 16.099500
2.450600 19.143200
2.470300 9.877200
2.490100 6.383900
2.509800 5.041800
2.529500 6.438100
2.549300 11.156200
2.569000 12.806000
2.588700 11.139200
2.608500 8.197100
2.628200 7.319700
2.648000 6.736200
2.667700 6.324700
2.687400 6.003800
2.707200 5.703500
2.726900 5.343500
2.746600 6.752300
2.766400 3.951800
2.786100 3.089600
2.805800 2.538300
2.825600 2.193400
2.845300 1.838800
2.865100 3.041800
2.884800 6.142300
2.904500 12.487200
2.924300 12.308100
2.944000 11.054800
2.963700 11.263200
2.983500 10.799700
3.003200 9.460100
3.022900 8.396300
3.042700 5.791300
3.062400 4.569300
3.082200 6.361100
3.101900 6.664700
3.121600 6.983600
3.141400 6.794600
3.161100 6.376800
3.180800 5.634700
3.200600 5.926300
3.220300 7.352300
3.240100 7.367900
3.259800 7.387500
3.279500 7.003700
3.299300 6.925400
3.319000 7.001600
3.338700 7.154100
3.358500 7.439300
3.378200 7.862600
3.397900 7.661000
3.417700 7.749800
3.437400 7.933700
3.457200 7.852500
3.476900 7.527400
3.496600 7.164800
3.516400 7.075500
3.536100 6.379800
3.555800 5.757200
3.575600 5.236000
3.595300 5.131600
3.615000 4.957000
3.634800 4.544600
3.654500 3.853500
3.674300 2.878000
3.694000 2.170400
3.713700 1.830000
3.733500 1.613200
3.753200 1.381800
3.772900 1.135600
3.792700 0.874800
3.812400 0.608700
3.832100 0.435600
3.851900 0.321400
3.871600 0.224500
3.891400 0.145000
3.911100 0.082700
3.930800 0.037900
3.950600 0.010300
3.970300 0.000100
3.990000 0.000000
4.009800 0.000000
4.029500 0.000000
4.049200 0.000000
4.069000 0.000000
4.088700 0.000000
4.108500 0.000000
4.128200 0.000000
4.147900 0.000000
4.167700 0.000000
4.187400 0.000000
4.207100 0.000000
4.226900 0.000000
4.246600 0.000000
4.266400 0.000000
4.286100 0.000000
4.305800 0.000000
4.325600 0.000000
4.345300 0.000000
4.365000 0.000000
4.384800 0.000000
4.404500 0.000000
4.424200 0.000000
4.444000 0.000000
4.463700 0.000000
4.483500 0.000000
4.503200 0.000000
4.522900 0.000000
4.542700 0.000000
4.562400 0.000000
4.582100 0.000000
4.601900 0.000000
4.621600 0.000000
4.641300 0.000000
4.661100 0.000000
4.680800 0.000000
4.700600 0.000000
4.720300 0.000000
4.740000 0.000000
4.759800 0.000000
4.779500 0.000000
4.799200 0.000000
4.819000 0.000000
4.838700 0.000000
4.858400 0.000000
4.878200 0.000000
4.897900 0.000000
4.917700 0.000000
4.937400 0.000000
4.957100 0.000000
4.976900 0.000000
4.996600 0.000000
5.016300 0.000000
5.036100 0.000000
5.055800 0.000000
5.075500 0.000000
5.095300 0.000000
5.115000 0.000000
5.134800 0.000000
5.154500 0.000000
5.174200 0.000000
5.194000 0.000000
5.213700 0.000000
5.233400 0.000000
5.253200 0.000000
5.272900 0.000000
5.292700 0.000000
5.312400 0.000000
5.332100 0.000000
5.351900 0.000000
5.371600 0.000000
5.391300 0.000000
5.411100 0.000000
5.430800 0.000000
5.450500 0.000000
5.470300 0.000000
5.490000 0.000000
5.509800 0.000000
5.529500 0.000000
5.549200 0.000000
5.569000 0.000000
5.588700 0.000000
5.608400 0.000000
5.628200 0.000000
5.647900 0.000000
5.667600 0.000000
5.687400 0.000000
5.707100 0.000000
5.726900 0.000000
5.746600 0.000000
5.766300 0.000000
5.786100 0.000000
5.805800 0.000000
5.825500 0.000000
5.845300 0.000000
5.865000 0.000000
5.884700 0.000000
5.904500 0.000000
5.924200 0.000000
5.944000 0.000000
5.963700 0.000000
5.983400 0.000000
6.003200 0.000000
6.022900 0.000000
6.042600 0.000000
6.062400 0.000000
6.082100 0.000000
6.101800 0.000000
6.121600 0.000000
6.141300 0.000000
6.161100 0.000000
6.180800 0.000000
6.200500 0.000000
6.220300 0.000000
6.240000 0.000000
6.259700 0.000000
6.279500 0.000000
6.299200 0.000000
6.319000 0.000000
6.338700 0.000000
6.358400 0.000000
6.378200 0.000000
6.397900 0.000000
6.417600 0.000000
6.437400 0.000000
6.457100 0.000000
6.476800 0.000000
6.496600 0.000000
6.516300 0.000000
6.536100 0.000000
6.555800 0.000000
6.575500 0.000000
6.595300 0.000000
6.615000 0.000000
6.634700 0.000000
6.654500 0.000000
6.674200 0.000000
6.693900 0.000000
6.713700 0.000000
6.733400 0.000000
6.753200 0.000000
6.772900 0.000000
6.792600 0.000000
6.812400 0.000000
6.832100 0.000000
6.851800 0.000000
6.871600 0.000000
6.891300 0.000000
6.911000 0.000000
6.930800 0.000000
6.950500 0.000000
6.970300 0.000000
6.990000 0.000000
7.009700 0.000000
7.029500 0.000000
7.049200 0.000000
7.068900 0.000000
7.088700 0.000000
7.108400 0.000000
7.128100 0.000000
7.147900 0.000000
7.167600 0.000000
7.187400 0.000000
7.207100 0.000000
7.226800 0.000000
7.246600 0.000000
7.266300 0.000000
7.286000 0.000000
7.305800 0.000000
7.325500 0.000000
7.345300 0.000000
7.365000 0.000000
7.384700 0.000000
7.404500 0.000000
7.424200 0.000000
7.443900 0.000000
7.463700 0.000000
7.483400 0.000000
7.503100 0.000000
7.522900 0.000000
7.542600 0.014100
7.562400 0.117400
7.582100 0.347400
7.601800 0.614800
7.621600 0.880500
7.641300 1.136200
7.661000 1.326600
7.680800 1.464300
7.700500 1.569600
7.720200 1.674500
7.740000 1.779400
7.759700 1.884300
7.779500 1.989100
7.799200 2.093900
7.818900 2.198700
7.838700 2.303500
7.858400 2.408200
7.878100 2.512900
7.897900 2.613100
7.917600 2.853700
7.937300 3.296400
7.957100 4.468800
7.976800 4.602400
7.996600 4.882400
8.016300 5.055100
8.036000 4.787700
8.055800 4.462800
8.075500 4.131400
8.095200 3.788200
8.115000 3.407900
8.134700 3.027400
8.154400 2.646700
8.174200 2.326500
8.193900 2.219900
8.213700 2.335300
8.233400 2.770600
8.253100 3.074500
8.272900 3.486200
8.292600 4.329100
8.312300 4.321400
8.332100 4.188000
8.351800 4.001400
8.371600 4.338400
8.391300 5.146800
8.411000 5.447500
8.430800 6.244800
8.450500 6.648600
8.470200 6.933700
8.490000 7.469100
8.509700 7.974800
8.529400 8.283000
8.549200 8.358500
8.568900 8.201100
8.588700 5.405600
8.608400 4.287400
8.628100 3.643000
8.647900 3.211900
8.667600 2.970900
8.687300 3.011300
8.707100 3.184500
8.726800 3.647700
8.746500 4.165300
8.766300 4.516400
8.786000 5.857200
8.805800 6.971900
8.825500 6.699000
8.845200 6.667000
8.865000 6.673100
8.884700 6.795200
8.904400 6.580700
8.924200 6.192100
8.943900 5.539500
8.963600 4.631900
8.983400 4.074900
9.003100 3.790700
9.022900 3.694200
9.042600 4.454900
9.062300 4.769200
9.082100 4.716200
9.101800 4.889900
9.121500 4.995000
9.141300 5.088300
9.161000 5.384100
9.180700 6.212300
9.200500 6.901000
9.220200 9.908700
9.240000 11.141000
9.259700 11.389700
9.279400 9.263500
9.299200 6.950700
9.318900 4.800400
9.338600 2.671900
9.358400 1.696900
9.378100 1.826300
9.397900 2.600500
9.417600 3.437600
9.437300 4.247100
9.457100 4.903700
9.476800 5.263600
9.496500 5.713500
9.516300 6.742800
9.536000 7.864600
9.555700 9.762600
9.575500 10.695300
9.595200 10.584700
9.615000 9.924100
9.634700 9.129500
9.654400 8.267100
9.674200 7.497000
9.693900 6.987100
9.713600 6.550500
9.733400 6.371300
9.753100 6.235000
9.772800 6.095100
9.792600 6.480200
9.812300 6.907500
9.832100 7.088600
9.851800 6.967800
9.871500 6.490100
9.891300 6.084900
9.911000 6.389700
9.930700 6.886100
9.950500 6.647000
9.970200 6.694900
9.989900 7.077700
10.009700 7.364100
10.029400 7.329300
10.049200 6.890600
10.068900 6.785500
10.088600 7.224800
10.108400 7.278700
10.128100 6.946700
10.147800 6.714400
10.167600 6.540900
10.187300 7.479300
10.207000 6.311300
10.226800 5.308800
10.246500 4.235200
10.266300 4.190700
10.286000 4.219600
10.305700 4.237700
10.325500 4.361700
10.345200 4.635500
10.364900 4.846700
10.384700 5.086800
10.404400 5.792500
10.424200 7.550200
10.443900 11.308400
10.463600 10.703100
10.483400 10.481100
10.503100 10.477200
10.522800 10.190100
10.542600 9.776000
10.562300 10.722600
10.582000 10.672100
10.601800 8.574900
10.621500 8.354300
10.641300 7.778800
10.661000 7.399700
10.680700 7.774400
10.700500 8.312100
10.720200 8.629800
10.739900 8.927700
10.759700 9.149900
10.779400 9.134500
10.799100 8.918600
10.818900 8.873500
10.838600 6.743000
10.858400 6.882400
10.878100 7.374900
10.897800 7.402600
10.917600 7.265100
10.937300 6.989400
10.957000 6.994000
10.976800 6.216600
10.996500 5.825000
11.016200 5.798300
11.036000 5.763000
11.055700 5.947400
11.075500 6.949600
11.095200 10.160600
11.114900 8.616000
11.134700 8.141200
11.154400 7.994100
11.174100 8.500300
11.193900 7.824400
11.213600 7.869700
11.233300 7.769800
11.253100 7.377800
11.272800 7.085600
11.292600 7.070300
11.312300 7.043600
11.332000 6.844200
11.351800 6.571400
11.371500 6.242100
11.391200 6.290900
11.411000 5.883000
11.430700 6.271600
11.450500 6.895900
11.470200 6.602900
11.489900 6.407000
11.509700 6.211200
11.529400 6.643900
11.549100 7.421500
11.568900 8.419100
11.588600 9.530400
11.608300 10.139100
11.628100 10.294600
11.647800 10.357000
11.667600 10.335900
11.687300 10.393100
11.707000 9.983600
11.726800 8.732300
11.746500 7.656400
11.766200 6.671000
11.786000 6.725200
11.805700 7.110200
11.825400 7.560400
11.845200 7.481300
11.864900 7.505700
11.884700 7.697000
11.904400 8.215700
11.924100 8.953800
11.943900 9.885600
11.963600 11.190100
11.983300 10.011700
12.003100 9.079000
12.022800 9.863900
12.042500 9.498200
12.062300 8.321500
12.082000 7.603700
12.101800 7.278600
12.121500 6.914400
12.141200 6.003800
12.161000 5.756300
12.180700 5.853900
12.200400 6.321300
12.220200 5.968100
12.239900 5.795900
12.259600 5.919500
12.279400 6.646200
12.299100 8.173500
12.318900 9.372700
12.338600 10.938000
12.358300 10.510100
12.378100 10.365300
12.397800 9.313300
12.417500 8.134400
12.437300 7.019600
12.457000 6.205200
12.476800 5.815300
12.496500 6.041100
12.516200 6.115300
12.536000 6.156200
12.555700 6.251700
12.575400 6.421800
12.595200 6.776600
12.614900 7.199900
12.634600 7.799400
12.654400 8.167300
12.674100 8.700000
12.693900 8.543400
12.713600 8.033600
12.733300 7.624100
12.753100 7.262600
12.772800 7.212100
12.792500 8.845300
12.812300 8.947500
12.832000 10.128500
12.851700 7.257000
12.871500 7.303000
12.891200 7.547900
12.911000 7.841300
12.930700 8.169700
12.950400 8.520000
12.970200 8.733000
12.989900 8.522400
13.009600 7.831500
13.029400 7.666200
13.049100 7.285900
13.068800 6.834100
13.088600 6.450500
13.108300 6.248300
13.128100 6.675700
13.147800 7.952900
13.167500 9.844500
13.187300 11.868400
13.207000 14.354100
13.226700 12.209000
13.246500 7.005600
13.266200 6.130700
13.285900 5.452900
13.305700 4.749600
13.325400 4.091100
13.345200 3.732600
13.364900 3.471900
13.384600 3.821900
13.404400 4.543000
13.424100 5.556700
13.443800 6.953400
13.463600 8.371800
13.483300 10.000200
13.503100 10.108700
13.522800 9.119600
13.542500 8.569400
13.562300 8.488300
13.582000 7.058200
13.601700 5.552700
13.621500 4.517300
13.641200 4.066500
13.660900 3.716300
13.680700 3.466600
13.700400 3.317400
13.720200 3.280300
13.739900 3.585200
13.759600 4.978900
13.779400 6.919100
13.799100 9.359400
13.818800 11.932000
13.838600 13.764300
13.858300 10.508900
13.878000 9.987000
13.897800 9.538100
13.917500 8.679500
13.937300 6.897100
13.957000 6.229100
13.976700 6.747100
13.996500 7.794500
14.016200 7.870400
14.035900 8.312200
14.055700 8.455100
14.075400 7.570900
14.095100 6.543000
14.114900 6.921700
14.134600 7.179300
14.154400 8.590100
14.174100 8.457100
14.193800 8.557200
14.213600 8.280300
14.233300 7.715300
14.253000 7.442600
14.272800 6.971800
14.292500 6.364300
14.312300 6.116800
14.332000 5.984700
14.351700 6.251400
14.371500 7.554500
14.391200 9.400500
14.410900 11.124800
14.430700 8.448300
14.450400 6.526600
14.470100 5.719500
14.489900 6.041900
14.509600 6.547900
14.529400 7.534100
14.549100 7.824000
14.568800 8.053100
14.588600 7.509000
14.608300 7.223200
14.628000 6.846000
14.647800 6.355500
14.667500 5.833900
14.687200 5.686500
14.707000 5.737900
14.726700 6.273800
14.746500 6.533800
14.766200 6.850400
14.785900 7.472600
14.805700 8.297000
14.825400 9.211300
14.845100 9.132100
14.864900 7.489300
14.884600 7.316500
14.904300 7.077000
14.924100 6.581300
14.943800 6.363900
14.963600 6.417500
14.983300 5.584000
15.003000 5.675400
15.022800 6.218700
15.042500 8.293400
15.062200 7.001700
15.082000 7.413800
15.101700 7.944700
15.121400 7.625700
15.141200 7.658200
15.160900 7.673700
15.180700 7.732400
15.200400 7.885300
15.220100 7.668700
15.239900 6.827600
15.259600 5.958700
15.279300 5.927100
15.299100 6.475300
15.318800 6.993100
15.338600 5.517600
15.358300 6.075300
15.378000 6.365300
15.397800 6.926400
15.417500 7.667000
15.437200 8.634600
15.457000 9.194600
15.476700 9.148700
15.496400 8.123900
15.516200 7.607300
15.535900 6.960700
15.555700 6.401400
15.575400 5.674500
15.595100 5.070100
15.614900 5.260000
15.634600 7.213200
15.654300 8.275600
15.674100 11.150900
15.693800 11.637200
15.713500 10.377100
15.733300 8.583600
15.753000 7.346600
15.772800 6.315700
15.792500 5.354500
15.812200 4.445900
15.832000 3.573700
15.851700 2.758800
15.871400 2.034700
15.891200 1.602400
15.910900 3.092600
15.930600 4.728300
15.950400 7.066100
15.970100 9.186700
15.989900 7.801800
16.009600 8.072700
16.029300 8.102000
16.049100 7.852900
16.068800 8.132600
16.088500 9.995700
16.108300 8.663000
16.128000 8.732600
16.147700 8.832500
16.167500 9.409800
16.187200 9.665400
16.207000 9.037500
16.226700 7.687800
16.246400 6.599800
16.266200 6.040800
16.285900 5.784200
16.305600 5.730600
16.325400 5.500000
16.345100 5.263200
16.364900 4.863600
16.384600 4.356800
16.404300 4.618900
16.424100 4.947200
16.443800 5.438300
16.463500 5.951400
16.483300 6.537300
16.503000 7.900100
16.522700 8.927400
16.542500 8.296800
16.562200 7.894100
16.582000 7.631700
16.601700 7.430900
16.621400 6.879300
16.641200 6.636000
16.660900 6.869800
16.680600 7.275400
16.700400 6.769500
16.720100 6.322000
16.739800 7.243400
16.759600 8.768200
16.779300 8.977800
16.799100 7.197600
16.818800 6.725500
16.838500 6.750100
16.858300 6.907700
16.878000 7.008300
16.897700 7.124800
16.917500 7.338200
16.937200 7.467600
16.956900 7.590600
16.976700 7.378100
16.996400 7.285700
17.016200 7.216100
17.035900 7.013900
17.055600 6.544600
17.075400 6.410900
17.095100 6.718800
17.114800 7.432800
17.134600 7.699500
17.154300 8.176100
17.174000 8.592200
17.193800 10.400500
17.213500 9.540300
17.233300 9.060500
17.253000 9.635900
17.272700 10.138400
17.292500 10.251700
17.312200 10.295600
17.331900 10.674700
17.351700 9.638800
17.371400 10.103500
17.391200 9.636400
17.410900 8.685300
17.430600 8.766700
17.450400 10.312200
17.470100 9.985500
17.489800 10.680300
17.509600 10.362700
17.529300 8.750800
17.549000 7.085500
17.568800 5.866800
17.588500 5.395400
17.608300 5.842500
17.628000 6.438500
17.647700 7.000500
17.667500 7.745600
17.687200 8.505100
17.706900 8.863600
17.726700 9.047000
17.746400 8.953100
17.766100 5.212700
17.785900 4.155700
17.805600 3.534400
17.825400 3.575200
17.845100 4.389300
17.864800 5.496200
17.884600 6.473900
17.904300 8.437000
17.924000 10.693800
17.943800 9.213500
17.963500 8.512500
17.983200 6.929100
18.003000 5.421000
18.022700 3.669000
18.042500 1.881100
18.062200 1.356100
18.081900 1.325000
18.101700 1.389400
18.121400 1.621700
18.141100 2.097500
18.160900 3.094400
18.180600 4.758600
18.200300 4.736200
18.220100 6.018900
18.239800 7.434300
18.259600 8.345500
18.279300 9.556500
18.299000 10.573900
18.318800 11.492400
18.338500 9.399600
18.358200 6.141300
18.378000 4.368500
18.397700 4.176100
18.417500 4.291100
18.437200 4.681600
18.456900 5.215100
18.476700 5.876300
18.496400 6.636400
18.516100 6.913900
18.535900 6.999400
18.555600 7.076000
18.575300 7.378600
18.595100 9.301500
18.614800 9.586500
18.634600 9.439600
18.654300 7.804400
18.674000 5.265400
18.693800 3.928000
18.713500 4.917400
18.733200 6.375700
18.753000 7.754600
18.772700 7.997000
18.792400 8.299100
18.812200 9.480900
18.831900 11.285500
18.851700 12.576900
18.871400 12.228900
18.891100 9.869800
18.910900 7.536700
18.930600 5.036700
18.950300 4.330700
18.970100 4.273400
18.989800 4.576500
19.009500 5.449400
19.029300 7.113900
19.049000 9.380400
19.068800 10.914800
19.088500 10.022900
19.108200 9.731400
19.128000 9.145500
19.147700 8.409400
19.167400 7.200900
19.187200 5.537500
19.206900 3.687800
19.226600 1.907400
19.246400 0.661600
19.266100 0.278500
19.285900 0.209800
19.305600 0.154800
19.325300 0.108100
19.345100 0.069800
19.364800 0.039900
19.384500 0.018200
19.404300 0.005000
19.424000 0.000000
19.443800 0.000000
19.463500 0.000000
19.483200 0.000000
19.503000 0.000000
19.522700 0.000000
19.542400 0.000000
19.562200 0.000000
19.581900 0.000000
19.601600 0.000000
19.621400 0.000000
19.641100 0.000000
19.660900 0.000000
19.680600 0.000000
19.700300 0.000000
19.720100 0.000000
19.739800 0.000000
19.759500 0.000000
19.779300 0.000000
19.799000 0.000000
19.818700 0.000000
19.838500 0.000000
19.858200 0.000000
19.878000 0.000000
19.897700 0.000000
19.917400 0.000000
19.937200 0.000000
19.956900 0.000000
19.976600 0.000000
19.996400 0.000000
20.016100 0.000000
20.035800 0.000000
20.055600 0.000000
20.075300 0.000000
20.095100 0.000000
20.114800 0.000000
20.134500 0.000000
20.154300 0.000000
20.174000 0.000000
20.193700 0.000000
20.213500 0.000000
20.233200 0.000000
20.252900 0.000000
20.272700 0.000000
20.292400 0.000000
20.312200 0.000000
20.331900 0.000000
20.351600 0.000000
20.371400 0.000000
20.391100 0.000000
20.410800 0.000000
20.430600 0.000000
20.450300 0.000000
20.470100 0.000000
20.489800 0.000000
20.509500 0.000000
20.529300 0.000000
20.549000 0.000000
20.568700 0.000000
20.588500 0.000000
20.608200 0.000000
20.627900 0.000000
20.647700 0.000000
20.667400 0.000000
20.687200 0.000000
20.706900 0.000000
20.726600 0.000000
20.746400 0.000000
20.766100 0.000000
20.785800 0.000000
20.805600 0.000000
20.825300 0.000000
20.845000 0.000000
20.864800 0.000000
20.884500 0.000000
20.904300 0.000000
20.924000 0.000000
20.943700 0.000000
20.963500 0.000000
20.983200 0.000000
21.002900 0.000000
21.022700 0.000000
21.042400 0.000000
21.062100 0.000000
21.081900 0.000000
21.101600 0.000000
21.121400 0.000000
21.141100 0.000000
21.160800 0.000000
21.180600 0.000000
21.200300 0.000000
21.220000 0.000000
e
