set title 'mp-1184548 - Density of States'
set xlabel 'Energy (eV)'
set ylabel 'DOS (states/eV)'
set grid
set xrange [-10:10]
set yrange [0:17.688]
set xzeroaxis lt -1
set terminal png size 800,600
set output 'mp-1184548_dos_gnuplot.png'
plot '-' using 1:2 with lines title 'DOS'
-7.759600 0.000000
-7.728800 0.000000
-7.698000 0.000000
-7.667200 0.000000
-7.636500 0.000000
-7.605700 0.000000
-7.574900 0.000000
-7.544100 0.000000
-7.513300 0.000000
-7.482500 0.000000
-7.451700 0.000000
-7.420900 0.000000
-7.390100 0.000000
-7.359300 0.000000
-7.328500 0.000000
-7.297700 0.000000
-7.266900 0.000000
-7.236100 0.000000
-7.205400 0.000000
-7.174600 0.000000
-7.143800 0.000000
-7.113000 0.000000
-7.082200 0.000000
-7.051400 0.000000
-7.020600 0.000000
-6.989800 0.000000
-6.959000 0.000000
-6.928200 0.000000
-6.897400 0.000000
-6.866600 0.000000
-6.835800 0.000000
-6.805000 0.000000
-6.774300 0.000000
-6.743500 0.000000
-6.712700 0.000000
-6.681900 0.000000
-6.651100 0.000000
-6.620300 0.000000
-6.589500 0.000000
-6.558700 0.000000
-6.527900 0.000000
-6.497100 0.000000
-6.466300 0.000000
-6.435500 0.000000
-6.404700 0.000000
-6.373900 0.000000
-6.343200 0.000000
-6.312400 0.000000
-6.281600 0.000000
-6.250800 0.000000
-6.220000 0.000000
-6.189200 0.000000
-6.158400 0.000000
-6.127600 0.000000
-6.096800 0.000000
-6.066000 0.000000
-6.035200 0.000000
-6.004400 0.000000
-5.973600 0.000000
-5.942800 0.000000
-5.912100 0.000000
-5.881300 0.000000
-5.850500 0.000000
-5.819700 0.000000
-5.788900 0.000000
-5.758100 0.000000
-5.727300 0.000000
-5.696500 0.000000
-5.665700 0.000000
-5.634900 0.000000
-5.604100 0.000000
-5.573300 0.000000
-5.542500 0.000000
-5.511700 0.000000
-5.481000 0.000000
-5.450200 0.000000
-5.419400 0.000000
-5.388600 0.000000
-5.357800 0.000000
-5.327000 0.000000
-5.296200 0.000000
-5.265400 0.000000
-5.234600 0.000000
-5.203800 0.000000
-5.173000 0.000000
-5.142200 0.000000
-5.111400 0.000000
-5.080600 0.000000
-5.049900 0.000000
-5.019100 0.000000
-4.988300 0.000000
-4.957500 0.000100
-4.926700 0.017900
-4.895900 0.065000
-4.865100 0.090100
-4.834300 0.094900
-4.803500 0.113200
-4.772700 0.132500
-4.741900 0.152100
-4.711100 0.165800
-4.680300 0.173300
-4.649500 0.184900
-4.618800 0.198400
-4.588000 0.212100
-4.557200 0.225900
-4.526400 0.240400
-4.495600 0.255100
-4.464800 0.268500
-4.434000 0.281700
-4.403200 0.295600
-4.372400 0.309700
-4.341600 0.324400
-4.310800 0.340300
-4.280000 0.357300
-4.249200 0.374800
-4.218400 0.393300
-4.187700 0.413400
-4.156900 0.434600
-4.126100 0.456100
-4.095300 0.479200
-4.064500 0.504900
-4.033700 0.531500
-4.002900 0.559200
-3.972100 0.587600
-3.941300 0.617400
-3.910500 0.656700
-3.879700 0.702300
-3.848900 0.754000
-3.818100 0.809800
-3.787400 0.870400
-3.756600 0.934600
-3.725800 1.004400
-3.695000 1.085800
-3.664200 1.207100
-3.633400 1.383400
-3.602600 1.592300
-3.571800 1.888600
-3.541000 2.515300
-3.510200 3.805900
-3.479400 3.832600
-3.448600 4.082300
-3.417800 4.186700
-3.387000 4.352500
-3.356300 4.633200
-3.325500 5.019100
-3.294700 5.380800
-3.263900 6.085000
-3.233100 7.167400
-3.202300 16.080400
-3.171500 12.905700
-3.140700 10.555400
-3.109900 8.900500
-3.079100 5.202300
-3.048300 2.475600
-3.017500 0.000000
-2.986700 0.000000
-2.955900 0.000000
-2.925200 0.000000
-2.894400 0.000000
-2.863600 0.000000
-2.832800 0.000000
-2.802000 0.000000
-2.771200 0.000000
-2.740400 0.000000
-2.709600 0.000000
-2.678800 0.000000
-2.648000 0.000000
-2.617200 0.000000
-2.586400 0.000000
-2.555600 0.000000
-2.524800 0.000000
-2.494100 0.000000
-2.463300 0.000000
-2.432500 0.000000
-2.401700 0.000000
-2.370900 0.000000
-2.340100 0.000000
-2.309300 0.000000
-2.278500 0.000000
-2.247700 0.000000
-2.216900 0.000000
-2.186100 0.000000
-2.155300 0.000000
-2.124500 0.000000
-2.093700 0.000000
-2.063000 0.000000
-2.032200 0.000000
-2.001400 0.000000
-1.970600 0.000000
-1.939800 0.000000
-1.909000 0.000000
-1.878200 0.000000
-1.847400 0.000000
-1.816600 0.000000
-1.785800 0.000000
-1.755000 0.000000
-1.724200 0.000000
-1.693400 0.000000
-1.662600 0.000000
-1.631900 0.000000
-1.601100 0.000000
-1.570300 0.000000
-1.539500 0.000000
-1.508700 0.000000
-1.477900 0.000000
-1.447100 0.000000
-1.416300 0.000000
-1.385500 0.000000
-1.354700 0.000000
-1.323900 0.000000
-1.293100 0.000000
-1.262300 0.000000
-1.231500 0.000000
-1.200800 0.000000
-1.170000 0.000000
-1.139200 0.000000
-1.108400 0.000000
-1.077600 0.000000
-1.046800 0.000000
-1.016000 0.000000
-0.985200 0.000000
-0.954400 0.000000
-0.923600 0.595700
-0.892800 2.146100
-0.862000 3.765000
-0.831200 4.327900
-0.800400 4.419700
-0.769700 4.401000
-0.738900 4.408700
-0.708100 4.428900
-0.677300 4.469200
-0.646500 4.505000
-0.615700 4.644900
-0.584900 4.781100
-0.554100 4.978100
-0.523300 5.238700
-0.492500 5.573000
-0.461700 5.294800
-0.430900 5.020200
-0.400100 4.810100
-0.369300 4.657400
-0.338600 4.666700
-0.307800 4.579700
-0.277000 4.938000
-0.246200 4.589000
-0.215400 4.609400
-0.184600 4.691000
-0.153800 3.992900
-0.123000 3.173900
-0.092200 1.859500
-0.061400 1.741400
-0.030600 2.205200
0.000200 2.891500
0.031000 4.032600
0.061800 5.018400
0.092500 5.953500
0.123300 7.662600
0.154100 8.490400
0.184900 11.751900
0.215700 7.682200
0.246500 6.520800
0.277300 6.159200
0.308100 5.801500
0.338900 6.052500
0.369700 6.044500
0.400500 7.182500
0.431300 6.524000
0.462100 6.448100
0.492900 5.938900
0.523600 5.621700
0.554400 5.482700
0.585200 5.142900
0.616000 7.583100
0.646800 8.319700
0.677600 9.762300
0.708400 5.732100
0.739200 5.915000
0.770000 5.739000
0.800800 5.950200
0.831600 6.130500
0.862400 5.956900
0.893200 5.832400
0.924000 6.502900
0.954700 5.565500
0.985500 5.100500
1.016300 5.034600
1.047100 5.132900
1.077900 4.862800
1.108700 4.580500
1.139500 4.505200
1.170300 4.496700
1.201100 4.529400
1.231900 4.618700
1.262700 4.669200
1.293500 4.684400
1.324300 4.494300
1.355100 4.292200
1.385800 4.142400
1.416600 4.094200
1.447400 4.091200
1.478200 4.250700
1.509000 4.512700
1.539800 5.202800
1.570600 4.871600
1.601400 4.842900
1.632200 5.080500
1.663000 5.290900
1.693800 5.337400
1.724600 6.131000
1.755400 6.413000
1.786200 6.705500
1.816900 7.218300
1.847700 7.518400
1.878500 7.637700
1.909300 8.625400
1.940100 8.956000
1.970900 8.001000
2.001700 7.914600
2.032500 7.960700
2.063300 7.173100
2.094100 7.101700
2.124900 5.565400
2.155700 2.256900
2.186500 1.653000
2.217300 0.859100
2.248000 0.860800
2.278800 0.862300
2.309600 0.863700
2.340400 0.864700
2.371200 0.864500
2.402000 0.860200
2.432800 0.854200
2.463600 0.845500
2.494400 0.832400
2.525200 0.820800
2.556000 0.811900
2.586800 0.801000
2.617600 0.790700
2.648400 0.786600
2.679100 0.785100
2.709900 0.785300
2.740700 0.787000
2.771500 0.789700
2.802300 0.792900
2.833100 0.796800
2.863900 0.806700
2.894700 0.826300
2.925500 0.835200
2.956300 0.844600
2.987100 0.854100
3.017900 0.861400
3.048700 0.866600
3.079400 0.870800
3.110200 0.875000
3.141000 0.878000
3.171800 0.880400
3.202600 0.881700
3.233400 0.879400
3.264200 0.876900
3.295000 0.871900
3.325800 0.868100
3.356600 0.866500
3.387400 0.864600
3.418200 0.862900
3.449000 0.864700
3.479800 0.867100
3.510500 0.868900
3.541300 0.865500
3.572100 0.861000
3.602900 0.856900
3.633700 0.853100
3.664500 0.849900
3.695300 0.848000
3.726100 0.846600
3.756900 0.845500
3.787700 0.844800
3.818500 0.844600
3.849300 0.836500
3.880100 0.836100
3.910900 0.840200
3.941600 0.841800
3.972400 0.844500
4.003200 0.848500
4.034000 0.818200
4.064800 0.804900
4.095600 0.804700
4.126400 0.801500
4.157200 0.800800
4.188000 0.801100
4.218800 0.801400
4.249600 0.802400
4.280400 0.804100
4.311200 0.805600
4.342000 0.805500
4.372700 0.805100
4.403500 0.804400
4.434300 0.803400
4.465100 0.809900
4.495900 0.813800
4.526700 0.816700
4.557500 0.819800
4.588300 0.823000
4.619100 0.833300
4.649900 0.852100
4.680700 0.867100
4.711500 0.875400
4.742300 0.868900
4.773100 0.856600
4.803800 0.843400
4.834600 0.848600
4.865400 0.858700
4.896200 0.872600
4.927000 0.884600
4.957800 0.895000
4.988600 0.904400
5.019400 0.841800
5.050200 0.838400
5.081000 0.864200
5.111800 0.874200
5.142600 0.828000
5.173400 0.805400
5.204200 0.800000
5.234900 0.794800
5.265700 0.789800
5.296500 0.785000
5.327300 0.779900
5.358100 0.776000
5.388900 0.774800
5.419700 0.777400
5.450500 0.777600
5.481300 0.771400
5.512100 0.759500
5.542900 0.747900
5.573700 0.738100
5.604500 0.730000
5.635300 0.722200
5.666000 0.720900
5.696800 0.671500
5.727600 0.651500
5.758400 0.568400
5.789200 0.546500
5.820000 0.551600
5.850800 0.530700
5.881600 0.488600
5.912400 0.512600
5.943200 0.390400
5.974000 0.351400
6.004800 0.316000
6.035600 0.284200
6.066400 0.254300
6.097100 0.225900
6.127900 0.200600
6.158700 0.178700
6.189500 0.172400
6.220300 0.146000
6.251100 0.113600
6.281900 0.079500
6.312700 0.000000
6.343500 0.000000
6.374300 0.000000
6.405100 0.000000
6.435900 0.000000
6.466700 0.000000
6.497500 0.000000
6.528200 0.000000
6.559000 0.000000
6.589800 0.000000
6.620600 0.000000
6.651400 0.000000
6.682200 0.000000
6.713000 0.000000
6.743800 0.000000
6.774600 0.000000
6.805400 0.000000
6.836200 0.000000
6.867000 0.000000
6.897800 0.000000
6.928600 0.000000
6.959300 0.000000
6.990100 0.000000
7.020900 0.000000
7.051700 0.000000
7.082500 0.000000
7.113300 0.000000
7.144100 0.000000
7.174900 0.000000
7.205700 0.000000
7.236500 0.000000
7.267300 0.000000
7.298100 0.000000
7.328900 0.000000
7.359700 0.000000
7.390400 0.016800
7.421200 0.037400
7.452000 0.055200
7.482800 0.070300
7.513600 0.085900
7.544400 0.099300
7.575200 0.110500
7.606000 0.120800
7.636800 0.131300
7.667600 0.141900
7.698400 0.152500
7.729200 0.157100
7.760000 0.156300
7.790800 0.155600
7.821500 0.155200
7.852300 0.156200
7.883100 0.157100
7.913900 0.157900
7.944700 0.159300
7.975500 0.161600
8.006300 0.180300
8.037100 0.189000
8.067900 0.197300
8.098700 0.196400
8.129500 0.201000
8.160300 0.206000
8.191100 0.211900
8.221900 0.218100
8.252600 0.224600
8.283400 0.231600
8.314200 0.238900
8.345000 0.246500
8.375800 0.254500
8.406600 0.260700
8.437400 0.268900
8.468200 0.277300
8.499000 0.286700
8.529800 0.564600
8.560600 0.904400
8.591400 1.058800
8.622200 1.044800
8.653000 1.076800
8.683700 1.134500
8.714500 1.207400
8.745300 1.272400
8.776100 1.327800
8.806900 1.423200
8.837700 1.421900
8.868500 1.368400
8.899300 1.293600
8.930100 1.151600
8.960900 1.079200
8.991700 1.046800
9.022500 1.025600
9.053300 1.014700
9.084100 1.005600
9.114800 0.995500
9.145600 0.987000
9.176400 0.981100
9.207200 0.973700
9.238000 0.964000
9.268800 0.956400
9.299600 0.949800
9.330400 0.943100
9.361200 0.934900
9.392000 0.924900
9.422800 0.913600
9.453600 0.901900
9.484400 0.893000
9.515100 0.887300
9.545900 0.883600
9.576700 0.881800
9.607500 0.881100
9.638300 0.880100
9.669100 0.878600
9.699900 0.878000
9.730700 0.877700
9.761500 0.877200
9.792300 0.876400
9.823100 0.881400
9.853900 0.884100
9.884700 0.890200
9.915500 0.896800
9.946200 0.902900
9.977000 0.907900
10.007800 0.911400
10.038600 0.914100
10.069400 0.918400
10.100200 0.937200
10.131000 0.962100
10.161800 1.019800
10.192600 1.093700
10.223400 1.271500
10.254200 1.274500
10.285000 1.345700
10.315800 1.411500
10.346600 1.501100
10.377300 1.574000
10.408100 1.635100
10.438900 1.675500
10.469700 1.700000
10.500500 1.706100
10.531300 1.683800
10.562100 1.722100
10.592900 1.688700
10.623700 1.617100
10.654500 1.548600
10.685300 1.467600
10.716100 1.381600
10.746900 1.297700
10.777700 1.228000
10.808400 1.186000
10.839200 1.153500
10.870000 1.125900
10.900800 1.098300
10.931600 1.061500
10.962400 1.006500
10.993200 0.964500
11.024000 0.931100
11.054800 0.905800
11.085600 0.895900
11.116400 0.885000
11.147200 0.874400
11.178000 0.867500
11.208800 0.867400
11.239500 0.872000
11.270300 0.883800
11.301100 0.904400
11.331900 0.927700
11.362700 0.949500
11.393500 0.971700
11.424300 0.994400
11.455100 1.015200
11.485900 1.040800
11.516700 1.064700
11.547500 1.095600
11.578300 1.128300
11.609100 1.156700
11.639900 1.173500
11.670600 1.170400
11.701400 1.124000
11.732200 1.121800
11.763000 1.119500
11.793800 1.125700
11.824600 1.246900
11.855400 1.405700
11.886200 1.367200
11.917000 1.411900
11.947800 1.432800
11.978600 1.458400
12.009400 1.487700
12.040200 1.546400
12.071000 1.623800
12.101700 1.770200
12.132500 2.107400
12.163300 2.258200
12.194100 1.802600
12.224900 0.721300
12.255700 0.401900
12.286500 0.409200
12.317300 0.419200
12.348100 0.433200
12.378900 0.453000
12.409700 0.478600
12.440500 0.510100
12.471300 0.552100
12.502100 0.661100
12.532800 0.726700
12.563600 0.763100
12.594400 0.785600
12.625200 0.848000
12.656000 0.961900
12.686800 1.084700
12.717600 1.189000
12.748400 1.161500
12.779200 1.118200
12.810000 1.112200
12.840800 1.109800
12.871600 1.105200
12.902400 1.103800
12.933200 1.097800
12.963900 1.084000
12.994700 1.058500
13.025500 1.039500
13.056300 1.029200
13.087100 1.013800
13.117900 1.003500
13.148700 0.992100
13.179500 0.988500
13.210300 0.980100
13.241100 0.979700
13.271900 0.971900
13.302700 0.955700
13.333500 0.942200
13.364300 0.928300
13.395000 0.914200
13.425800 0.901300
13.456600 0.887600
13.487400 0.873900
13.518200 0.868200
13.549000 0.866400
13.579800 0.866000
13.610600 0.866700
13.641400 0.868600
13.672200 0.871800
13.703000 0.877600
13.733800 0.885500
13.764600 0.880300
13.795400 0.871400
13.826100 0.874700
13.856900 0.877700
13.887700 0.886500
13.918500 0.902200
13.949300 0.922300
13.980100 0.929100
14.010900 0.935800
14.041700 0.944300
14.072500 0.948600
14.103300 0.941700
14.134100 0.932800
14.164900 0.928000
14.195700 0.928300
14.226500 0.930700
14.257200 0.936500
14.288000 0.942600
14.318800 0.948300
14.349600 0.953900
14.380400 0.959500
14.411200 0.965300
14.442000 0.971200
14.472800 0.977300
14.503600 0.987900
14.534400 0.997900
14.565200 1.016300
14.596000 1.041100
14.626800 1.063100
14.657600 1.079700
14.688300 1.085700
14.719100 1.095200
14.749900 1.105900
14.780700 1.117900
14.811500 1.132800
14.842300 1.149100
14.873100 1.176800
14.903900 1.191600
14.934700 1.196600
14.965500 1.200500
14.996300 1.203400
15.027100 1.200700
15.057900 1.204400
15.088700 1.216200
15.119400 1.228700
15.150200 1.241800
15.181000 1.259100
15.211800 1.277200
15.242600 1.292800
15.273400 1.301300
15.304200 1.291100
15.335000 1.301100
15.365800 1.310500
15.396600 1.309500
15.427400 1.304900
15.458200 1.297000
15.489000 1.286600
15.519800 1.273700
15.550500 1.261700
15.581300 1.257500
15.612100 1.285900
15.642900 1.288200
15.673700 1.289600
15.704500 1.294400
15.735300 1.297100
15.766100 1.301400
15.796900 1.314000
15.827700 1.337100
15.858500 1.371700
15.889300 1.417400
15.920100 1.495100
15.950800 1.474500
15.981600 1.477500
16.012400 1.442200
16.043200 1.440600
16.074000 1.562800
16.104800 1.551700
16.135600 1.482200
16.166400 1.442800
16.197200 1.417800
16.228000 1.395600
16.258800 1.371300
16.289600 1.354500
16.320400 1.341300
16.351200 1.331900
16.381900 1.323400
16.412700 1.313100
16.443500 1.297400
16.474300 1.285700
16.505100 1.275500
16.535900 1.265600
16.566700 1.253300
16.597500 1.245500
16.628300 1.240300
16.659100 1.236200
16.689900 1.233100
16.720700 1.231200
16.751500 1.231200
16.782300 1.231200
16.813000 1.232700
16.843800 1.307000
16.874600 1.308500
16.905400 1.314700
16.936200 1.320000
16.967000 1.314500
16.997800 1.298000
17.028600 1.282400
17.059400 1.271400
17.090200 1.260000
17.121000 1.248200
17.151800 1.236200
17.182600 1.223800
17.213400 1.211500
17.244100 1.197300
17.274900 1.175000
17.305700 1.165500
17.336500 1.157500
17.367300 1.152400
17.398100 1.145800
17.428900 1.134700
17.459700 1.119100
17.490500 1.104500
17.521300 1.092500
17.552100 1.080000
17.582900 1.068600
17.613700 1.057100
17.644500 1.045700
17.675200 1.041800
17.706000 1.045200
17.736800 1.046200
17.767600 1.023700
17.798400 1.014900
17.829200 1.002600
17.860000 0.985100
17.890800 0.966400
17.921600 0.946500
17.952400 0.925400
17.983200 0.903500
18.014000 0.881900
18.044800 0.867400
18.075600 0.846000
18.106300 0.830200
18.137100 0.824300
18.167900 0.818700
18.198700 0.806800
18.229500 0.795600
18.260300 0.793400
18.291100 0.793600
18.321900 0.795600
18.352700 0.798600
18.383500 0.804800
18.414300 0.808600
18.445100 0.812200
18.475900 0.815800
18.506700 0.819700
18.537400 0.824600
18.568200 0.831100
18.599000 1.006700
18.629800 0.824300
18.660600 0.831800
18.691400 0.839900
18.722200 0.848800
18.753000 0.857500
18.783800 0.866000
18.814600 0.874800
18.845400 0.884100
18.876200 0.892200
18.907000 0.898200
18.937800 0.904400
18.968500 0.916200
18.999300 0.930900
19.030100 0.947400
19.060900 0.965600
19.091700 0.985500
19.122500 1.007400
19.153300 1.036100
19.184100 1.068900
19.214900 1.104200
19.245700 1.142600
19.276500 1.180900
19.307300 1.222300
19.338100 1.269100
19.368900 1.317000
19.399600 1.364500
19.430400 1.411100
19.461200 1.483000
19.492000 1.547500
19.522800 1.583400
19.553600 1.593000
19.584400 1.560200
19.615200 1.565700
19.646000 1.570500
19.676800 1.574500
19.707600 1.568400
19.738400 1.557900
19.769200 1.546300
19.800000 1.530800
19.830700 1.514600
19.861500 1.553500
19.892300 1.398200
19.923100 1.392500
19.953900 1.363100
19.984700 1.295500
20.015500 1.246300
20.046300 1.224100
20.077100 1.215000
20.107900 1.210200
20.138700 1.216900
20.169500 1.223900
20.200300 1.216900
20.231100 1.215800
20.261800 1.220300
20.292600 1.225000
20.323400 1.232100
20.354200 1.241300
20.385000 1.251000
20.415800 1.244100
20.446600 1.260800
20.477400 1.278600
20.508200 1.299100
20.539000 1.321100
20.569800 1.351000
20.600600 1.389800
20.631400 1.404100
20.662200 1.406800
20.692900 1.407100
20.723700 1.402700
20.754500 1.392500
20.785300 1.389800
20.816100 1.396700
20.846900 1.398000
20.877700 1.391200
20.908500 1.425700
20.939300 1.464000
20.970100 1.483200
21.000900 1.480800
21.031700 1.447300
21.062500 1.388300
21.093300 1.338100
21.124000 1.238600
21.154800 1.221400
21.185600 1.208700
21.216400 1.193300
21.247200 1.170500
21.278000 1.176500
21.308800 1.167600
21.339600 1.157700
21.370400 1.150800
21.401200 1.144000
21.432000 1.139300
21.462800 1.142600
21.493600 1.150600
21.524400 1.163100
21.555100 1.154800
21.585900 1.146600
21.616700 1.135200
21.647500 1.103900
21.678300 1.073300
21.709100 1.049700
21.739900 1.034100
21.770700 1.011600
21.801500 1.008600
21.832300 0.997100
21.863100 1.001000
21.893900 0.926500
21.924700 0.898900
21.955500 0.837100
21.986200 0.752000
22.017000 0.726800
22.047800 0.716200
22.078600 0.709300
22.109400 0.698200
22.140200 0.686800
22.171000 0.676500
22.201800 0.667800
22.232600 0.661300
22.263400 0.657500
22.294200 0.654500
22.325000 0.652900
22.355800 0.665600
22.386500 0.703900
22.417300 0.780900
22.448100 0.872300
22.478900 0.951300
22.509700 1.014600
22.540500 1.087000
22.571300 1.162600
22.602100 1.245700
22.632900 1.324300
22.663700 1.393700
22.694500 1.457900
22.725300 1.514600
22.756100 1.488800
22.786900 1.449700
22.817600 1.409200
22.848400 1.384500
22.879200 1.372900
22.910000 1.364500
22.940800 1.359400
22.971600 1.362100
23.002400 1.371000
23.033200 1.383000
23.064000 1.392900
23.094800 1.390600
23.125600 1.365200
23.156400 1.367200
23.187200 1.382200
23.218000 1.373100
23.248700 1.363600
23.279500 1.352500
23.310300 1.339600
23.341100 1.327200
23.371900 1.317400
23.402700 1.317800
23.433500 1.292300
23.464300 1.285900
23.495100 1.287800
23.525900 1.299800
23.556700 1.321200
23.587500 1.341800
23.618300 1.353300
23.649100 1.365500
23.679800 1.373000
23.710600 1.384600
23.741400 1.393700
23.772200 1.467700
23.803000 1.355900
23.833800 1.392000
23.864600 1.468100
23.895400 1.532500
23.926200 1.561300
23.957000 1.621700
23.987800 1.676300
24.018600 1.718800
24.049400 1.723900
24.080200 1.699600
24.110900 1.682100
24.141700 1.684100
24.172500 1.705200
24.203300 1.770100
24.234100 1.799900
24.264900 1.747700
24.295700 1.765700
24.326500 1.802100
24.357300 1.833300
24.388100 1.867000
24.418900 1.895900
24.449700 1.905800
24.480500 1.910400
24.511300 1.909800
24.542000 1.908600
24.572800 1.909500
24.603600 1.923700
24.634400 1.977700
24.665200 2.113200
24.696000 2.300600
24.726800 2.302800
24.757600 2.311600
24.788400 2.303400
24.819200 2.282000
24.850000 2.084500
24.880800 1.847600
24.911600 1.823600
24.942400 1.850800
24.973100 2.414800
25.003900 3.806100
25.034700 6.562100
25.065500 21.586700
25.096300 69.926400
25.127100 35.458800
25.157900 23.394700
25.188700 15.223100
25.219500 10.191600
25.250300 7.725700
25.281100 6.632400
25.311900 4.878400
25.342700 3.968500
25.373500 3.339100
25.404200 2.948000
25.435000 2.710500
25.465800 2.461100
25.496600 2.227200
25.527400 2.028800
25.558200 1.838600
25.589000 1.816600
25.619800 1.586800
25.650600 1.484200
25.681400 1.369200
25.712200 1.265400
25.743000 1.145600
25.773800 0.989100
25.804600 0.826900
25.835300 0.705100
25.866100 0.631100
25.896900 0.706000
25.927700 0.726200
25.958500 0.738300
25.989300 0.758600
26.020100 0.769900
26.050900 0.762700
26.081700 0.784600
26.112500 0.806600
26.143300 0.832200
26.174100 0.866700
26.204900 0.902100
26.235700 0.933300
26.266400 0.968700
26.297200 1.010600
26.328000 1.101900
26.358800 1.188800
26.389600 1.194900
26.420400 1.201900
26.451200 1.220700
26.482000 1.259700
26.512800 1.306500
26.543600 1.349000
26.574400 1.394700
26.605200 1.449900
26.636000 1.498900
26.666800 1.553300
26.697500 1.601800
26.728300 1.670600
26.759100 1.791000
26.789900 1.945600
26.820700 1.935800
26.851500 1.923400
26.882300 1.923400
26.913100 1.901700
26.943900 1.897000
26.974700 1.804100
27.005500 1.779700
27.036300 1.750600
27.067100 1.729800
27.097900 1.739200
27.128600 1.732900
27.159400 1.746800
27.190200 1.802500
27.221000 1.883700
27.251800 1.971700
27.282600 2.056800
27.313400 2.139500
27.344200 2.180400
27.375000 2.255600
27.405800 2.292800
27.436600 2.331600
27.467400 2.306200
27.498200 2.271000
27.529000 2.212400
27.559700 2.148200
27.590500 2.078300
27.621300 1.989100
27.652100 1.877700
27.682900 1.864400
27.713700 1.873700
27.744500 1.901300
27.775300 1.935100
27.806100 1.958800
27.836900 1.984100
27.867700 2.029400
27.898500 2.056500
27.929300 2.052600
27.960100 2.056400
27.990800 2.051400
28.021600 2.028700
28.052400 1.998500
28.083200 1.971600
28.114000 1.950300
28.144800 1.906700
28.175600 1.808700
28.206400 1.702700
28.237200 1.571100
28.268000 1.511300
28.298800 1.445800
28.329600 1.399000
28.360400 1.366700
28.391200 1.324700
28.421900 1.271500
28.452700 1.253100
28.483500 1.243200
28.514300 1.230200
28.545100 1.217000
28.575900 1.179600
28.606700 1.157800
28.637500 1.140600
28.668300 1.096500
28.699100 1.077100
28.729900 1.059300
28.760700 1.039500
28.791500 1.009400
28.822200 1.001200
28.853000 0.999300
28.883800 0.998500
28.914600 1.001400
28.945400 1.004700
28.976200 0.999700
29.007000 1.028300
29.037800 1.062500
29.068600 1.117800
29.099400 1.185900
29.130200 1.221300
29.161000 1.232800
29.191800 1.248800
29.222600 1.276700
29.253300 1.308400
29.284100 1.338400
29.314900 1.370600
29.345700 1.387700
29.376500 1.403000
29.407300 1.409600
29.438100 1.420200
29.468900 1.425200
29.499700 1.393000
29.530500 1.376700
29.561300 1.369300
29.592100 1.360200
29.622900 1.348500
29.653700 1.355400
29.684400 1.381500
29.715200 1.372900
29.746000 1.368000
29.776800 1.366400
29.807600 1.353300
29.838400 1.350800
29.869200 1.387200
29.900000 1.476000
29.930800 1.509000
29.961600 1.440300
29.992400 1.410700
30.023200 1.407000
30.054000 1.422900
30.084800 1.442800
30.115500 1.385600
30.146300 1.388300
30.177100 1.382100
30.207900 1.369200
30.238700 1.356100
30.269500 1.345800
30.300300 1.336700
30.331100 1.325400
30.361900 1.311600
30.392700 1.295900
30.423500 1.278800
30.454300 1.288200
30.485100 1.476900
30.515900 1.441200
30.546600 1.463200
30.577400 1.470000
30.608200 1.462000
30.639000 1.447300
30.669800 1.416800
30.700600 1.415200
30.731400 1.402800
30.762200 1.400500
30.793000 1.414400
30.823800 1.481600
30.854600 1.508200
30.885400 1.523500
30.916200 1.554100
30.947000 1.572400
30.977700 1.622200
31.008500 1.652300
31.039300 1.679900
31.070100 1.647500
31.100900 1.623400
31.131700 1.649000
31.162500 1.691600
31.193300 1.774400
31.224100 1.975500
31.254900 2.040600
31.285700 1.920300
31.316500 1.868900
31.347300 1.852500
31.378100 1.897000
31.408800 1.923100
31.439600 1.916200
31.470400 1.878800
31.501200 1.783000
31.532000 1.747600
31.562800 1.750100
31.593600 1.751500
31.624400 1.743500
31.655200 1.741200
31.686000 1.760600
31.716800 1.776600
31.747600 1.795200
31.778400 1.817200
31.809200 1.832800
31.839900 1.842700
31.870700 1.816900
31.901500 1.801100
31.932300 1.780700
31.963100 1.767600
31.993900 1.772200
32.024700 1.812300
32.055500 1.899800
32.086300 1.843800
32.117100 1.813100
32.147900 1.786600
32.178700 1.754500
32.209500 1.722600
32.240300 1.661300
32.271000 1.643800
32.301800 1.665700
32.332600 1.687400
32.363400 1.719000
32.394200 1.757000
32.425000 1.771700
32.455800 1.748900
32.486600 1.735600
32.517400 1.733900
32.548200 1.820000
32.579000 1.779400
32.609800 1.791700
32.640600 1.838000
32.671400 1.848400
32.702100 1.868700
32.732900 1.900100
32.763700 1.843800
32.794500 1.831300
32.825300 1.834500
32.856100 1.853200
32.886900 1.870700
32.917700 1.880100
32.948500 1.913800
32.979300 1.926100
33.010100 1.930200
33.040900 1.891800
33.071700 1.870800
33.102500 1.820200
33.133200 1.774000
33.164000 1.716700
33.194800 1.711100
33.225600 1.670500
33.256400 1.675800
33.287200 1.663600
33.318000 1.629700
33.348800 1.596500
33.379600 1.623200
33.410400 1.550300
33.441200 1.578400
33.472000 1.615100
33.502800 1.650800
33.533600 1.678800
33.564300 1.701900
33.595100 1.711300
33.625900 1.703500
33.656700 1.680600
33.687500 1.663000
33.718300 1.645700
33.749100 1.633800
33.779900 1.636000
33.810700 1.637800
33.841500 1.635000
33.872300 1.632100
33.903100 1.633000
33.933900 1.635700
33.964700 1.636400
33.995400 1.631600
34.026200 1.615200
34.057000 1.601300
34.087800 1.590700
34.118600 1.603200
34.149400 1.630800
34.180200 1.665600
34.211000 1.694100
34.241800 1.723700
34.272600 1.755100
34.303400 1.789700
34.334200 1.809600
34.365000 1.890500
34.395800 1.867600
34.426500 1.857700
34.457300 1.829100
34.488100 1.784800
34.518900 1.744800
34.549700 1.710900
34.580500 1.677100
34.611300 1.658100
34.642100 1.610000
34.672900 1.550700
34.703700 1.519400
34.734500 1.489500
34.765300 1.466900
34.796100 1.454100
34.826900 1.442700
34.857600 1.445700
34.888400 1.476100
34.919200 1.516900
34.950000 1.507200
34.980800 1.515100
35.011600 1.533800
35.042400 1.545800
35.073200 1.560800
35.104000 1.584900
35.134800 1.570200
35.165600 1.603500
35.196400 1.652900
35.227200 1.701800
35.258000 1.734700
35.288700 1.729100
35.319500 1.721200
35.350300 1.738200
35.381100 1.771100
35.411900 1.783900
35.442700 1.808700
35.473500 1.814000
35.504300 1.799600
35.535100 1.783000
35.565900 1.769200
35.596700 1.775700
35.627500 1.781600
35.658300 1.813800
35.689000 1.837300
35.719800 1.851800
35.750600 1.843300
35.781400 1.830400
35.812200 1.833900
35.843000 1.845600
35.873800 1.840900
35.904600 1.870100
35.935400 1.936000
35.966200 1.976200
35.997000 2.034700
36.027800 2.045300
36.058600 2.018000
36.089400 1.993700
36.120100 1.969500
36.150900 1.942400
36.181700 1.929800
36.212500 1.930100
36.243300 1.934600
36.274100 1.890700
36.304900 1.892000
36.335700 1.906400
36.366500 1.957100
36.397300 2.070800
36.428100 2.176200
36.458900 2.156100
36.489700 2.191500
36.520500 2.208200
36.551200 2.178000
36.582000 2.144700
36.612800 2.126700
36.643600 2.018400
36.674400 1.948300
36.705200 1.958400
36.736000 1.932600
36.766800 1.881100
36.797600 1.767600
36.828400 1.727500
36.859200 1.696900
36.890000 1.681700
36.920800 1.663500
36.951600 1.646900
36.982300 1.643300
37.013100 1.641900
37.043900 1.651500
37.074700 1.663400
37.105500 1.614200
37.136300 1.588200
37.167100 1.574200
37.197900 1.553100
37.228700 1.571400
37.259500 1.515600
37.290300 1.492500
37.321100 1.487200
37.351900 1.489500
37.382700 1.489300
37.413400 1.481000
37.444200 1.460600
37.475000 1.449500
37.505800 1.435700
37.536600 1.423300
37.567400 1.406900
37.598200 1.381600
37.629000 1.361900
37.659800 1.356900
37.690600 1.365800
37.721400 1.397300
37.752200 1.443300
37.783000 1.458000
37.813800 1.570500
37.844500 1.623200
37.875300 1.814200
37.906100 1.912100
37.936900 1.986400
37.967700 2.029700
37.998500 2.058300
38.029300 2.102100
38.060100 2.130200
38.090900 2.181300
38.121700 2.197400
38.152500 2.151200
38.183300 2.126300
38.214100 2.108800
38.244900 2.096800
38.275600 2.085800
38.306400 2.086800
38.337200 2.089300
38.368000 2.092900
38.398800 2.103800
38.429600 2.095400
38.460400 2.001000
38.491200 1.983700
38.522000 2.034800
38.552800 1.905300
38.583600 1.799100
38.614400 1.739300
38.645200 1.807000
38.676000 1.641700
38.706700 1.535100
38.737500 1.501300
38.768300 1.468300
38.799100 1.435800
38.829900 1.404600
38.860700 1.407100
38.891500 1.339400
38.922300 1.289500
38.953100 1.255100
38.983900 1.228900
39.014700 1.214300
39.045500 1.207600
39.076300 1.212400
39.107100 1.227600
39.137800 1.235300
39.168600 1.257100
39.199400 1.244500
39.230200 1.193400
39.261000 1.200500
39.291800 1.213100
39.322600 1.225000
39.353400 1.242700
39.384200 1.270100
39.415000 1.304500
39.445800 1.329800
39.476600 1.364000
39.507400 1.432000
39.538200 1.592500
39.568900 1.650600
39.599700 1.695300
39.630500 1.752400
39.661300 1.788300
39.692100 1.952500
39.722900 2.140300
39.753700 2.213600
39.784500 2.224200
39.815300 2.176000
39.846100 2.156900
39.876900 2.124900
39.907700 2.089200
39.938500 2.047500
39.969300 1.994900
40.000000 1.936700
40.030800 1.870000
40.061600 1.801100
40.092400 1.722300
40.123200 1.645600
40.154000 1.571800
40.184800 1.515000
40.215600 1.475700
40.246400 1.454600
40.277200 1.447400
40.308000 1.447200
40.338800 1.459700
40.369600 1.456200
40.400400 1.495600
40.431100 1.529800
40.461900 1.520400
40.492700 1.526400
40.523500 1.531900
40.554300 1.540700
40.585100 1.566400
40.615900 1.622400
40.646700 1.689300
40.677500 1.746000
40.708300 1.801600
40.739100 1.793000
40.769900 1.790400
40.800700 1.799800
40.831500 1.810800
40.862200 1.827400
40.893000 1.851200
40.923800 1.885100
40.954600 1.913800
40.985400 1.980300
41.016200 1.984500
41.047000 1.946200
41.077800 1.905300
41.108600 1.864000
41.139400 1.853100
41.170200 1.820600
41.201000 1.750000
41.231800 1.631300
41.262600 1.573800
41.293300 1.519800
41.324100 1.480000
41.354900 1.455800
41.385700 1.462700
41.416500 1.503900
41.447300 1.579700
41.478100 1.653200
41.508900 1.685400
41.539700 1.698600
41.570500 1.681600
41.601300 1.653500
41.632100 1.632300
41.662900 1.618100
41.693700 1.615100
41.724400 1.623800
41.755200 1.658200
41.786000 1.661600
41.816800 1.603200
41.847600 1.673800
41.878400 1.784200
41.909200 1.806400
41.940000 1.853500
41.970800 1.888400
42.001600 1.899900
42.032400 1.900300
42.063200 1.927800
42.094000 1.959900
42.124700 1.980500
42.155500 1.980000
42.186300 1.978000
42.217100 1.985300
42.247900 1.999100
42.278700 2.081900
42.309500 2.151400
42.340300 1.998600
42.371100 1.906800
42.401900 1.890000
42.432700 1.876000
42.463500 1.880200
42.494300 1.847600
42.525100 1.809100
42.555800 1.788800
42.586600 1.794400
42.617400 1.794000
42.648200 1.899100
42.679000 1.737600
42.709800 1.740200
42.740600 1.732900
42.771400 1.724800
42.802200 1.728200
42.833000 1.772700
42.863800 1.827700
42.894600 1.833400
42.925400 1.847700
42.956200 1.892500
42.986900 1.928600
43.017700 1.909400
43.048500 1.872800
43.079300 1.814900
43.110100 1.739400
43.140900 1.664600
43.171700 1.586700
43.202500 1.570200
43.233300 1.596200
43.264100 1.633400
43.294900 1.677100
43.325700 1.741300
43.356500 1.839300
43.387300 1.921100
43.418000 2.050000
43.448800 2.052100
43.479600 2.056500
43.510400 2.025600
43.541200 1.943300
43.572000 1.864400
43.602800 1.818200
43.633600 1.827200
43.664400 1.859700
43.695200 1.906500
43.726000 1.956900
43.756800 2.019500
43.787600 2.076300
43.818400 2.282000
43.849100 2.350400
43.879900 2.406400
43.910700 2.514000
43.941500 2.534900
43.972300 2.450300
44.003100 2.465000
44.033900 2.441200
44.064700 2.370900
44.095500 2.261100
44.126300 2.160500
44.157100 2.114100
44.187900 2.072400
44.218700 2.064900
44.249500 2.070500
44.280200 2.052200
44.311000 2.042200
44.341800 2.031800
44.372600 2.036700
44.403400 2.079600
44.434200 2.139900
44.465000 2.182000
44.495800 2.174600
44.526600 2.152700
44.557400 2.134300
44.588200 2.093300
44.619000 2.050600
44.649800 2.180100
44.680600 2.025800
44.711300 1.925000
44.742100 1.965200
44.772900 1.954000
44.803700 1.808400
44.834500 1.741700
44.865300 1.672400
44.896100 1.593800
44.926900 1.546700
44.957700 1.510400
44.988500 1.488800
45.019300 1.474800
45.050100 1.466300
45.080900 1.463100
45.111700 1.497500
45.142400 1.552100
45.173200 1.651200
45.204000 1.716800
45.234800 1.800000
45.265600 2.006600
45.296400 2.151100
45.327200 2.067300
45.358000 2.079100
45.388800 2.091400
45.419600 2.114900
45.450400 2.086200
45.481200 2.089300
45.512000 2.219700
45.542800 2.256100
45.573500 2.294900
45.604300 2.393300
45.635100 2.396900
45.665900 2.415000
45.696700 2.347400
45.727500 2.291400
45.758300 2.216700
45.789100 2.152000
45.819900 2.054000
45.850700 1.991500
45.881500 1.982700
45.912300 2.033500
45.943100 2.067600
45.973900 2.091600
46.004600 2.407700
46.035400 2.578400
46.066200 2.745500
46.097000 3.003200
46.127800 2.954900
46.158600 2.657800
46.189400 2.519000
46.220200 2.451900
46.251000 2.460000
46.281800 2.459100
46.312600 2.453600
46.343400 2.404700
46.374200 2.353600
46.405000 2.306800
46.435700 2.256800
46.466500 2.146600
46.497300 2.499200
46.528100 1.870500
46.558900 1.807000
46.589700 1.873100
46.620500 1.929400
46.651300 2.044600
46.682100 2.266300
46.712900 2.248600
46.743700 2.237700
46.774500 2.173000
46.805300 2.089900
46.836100 2.018100
46.866800 1.945700
46.897600 1.876700
46.928400 1.795300
46.959200 1.696400
46.990000 1.625900
47.020800 1.574900
47.051600 1.533500
47.082400 1.501900
47.113200 1.482100
47.144000 1.479100
47.174800 1.489100
47.205600 1.508100
47.236400 1.545500
47.267200 1.600500
47.297900 1.622600
47.328700 1.607200
47.359500 1.584400
47.390300 1.582100
47.421100 1.601300
47.451900 1.674200
47.482700 1.696500
47.513500 1.749000
47.544300 1.809900
47.575100 1.841000
47.605900 1.825700
47.636700 1.814700
47.667500 1.792900
47.698300 1.792500
47.729000 1.827300
47.759800 1.859600
47.790600 1.901000
47.821400 2.161000
47.852200 1.980200
47.883000 1.884800
47.913800 1.827300
47.944600 1.800400
47.975400 1.799300
48.006200 1.768300
48.037000 1.757400
48.067800 1.774200
48.098600 1.779900
48.129400 1.774500
48.160100 1.773200
48.190900 1.751600
48.221700 1.702300
48.252500 1.589500
48.283300 1.448700
48.314100 1.366900
48.344900 1.317800
48.375700 1.289700
48.406500 1.275900
48.437300 1.272000
48.468100 1.274600
48.498900 1.293300
48.529700 1.330900
48.560400 1.365000
48.591200 1.391100
48.622000 1.426900
48.652800 1.462300
48.683600 1.475200
48.714400 1.475800
48.745200 1.466600
48.776000 1.459400
48.806800 1.456200
48.837600 1.423000
48.868400 1.258800
48.899200 1.126200
48.930000 1.000500
48.960800 0.881700
48.991500 0.797900
49.022300 0.730200
49.053100 0.677700
49.083900 0.630800
49.114700 0.591800
49.145500 0.563400
49.176300 0.541300
49.207100 0.520700
49.237900 0.501700
49.268700 0.484700
49.299500 0.477200
49.330300 0.475100
49.361100 0.456000
49.391900 0.438100
49.422600 0.421200
49.453400 0.406200
49.484200 0.392500
49.515000 0.389000
49.545800 0.385000
49.576600 0.374800
49.607400 0.367000
49.638200 0.351300
49.669000 0.338200
49.699800 0.327400
49.730600 0.320100
49.761400 0.310900
49.792200 0.293500
49.823000 0.283500
49.853700 0.279500
49.884500 0.279400
49.915300 0.289300
49.946100 0.286500
49.976900 0.279100
50.007700 0.261900
50.038500 0.259800
50.069300 0.257800
50.100100 0.256300
50.130900 0.255400
50.161700 0.257200
50.192500 0.261300
50.223300 0.165500
50.254100 0.110100
50.284800 0.101000
50.315600 0.092500
50.346400 0.084600
50.377200 0.077300
50.408000 0.070600
50.438800 0.064400
50.469600 0.058800
50.500400 0.053900
50.531200 0.049500
50.562000 0.045600
50.592800 0.042200
50.623600 0.039200
50.654400 0.036700
50.685200 0.034200
50.715900 0.031300
50.746700 0.028400
50.777500 0.025500
50.808300 0.022700
50.839100 0.019900
50.869900 0.017300
50.900700 0.014700
50.931500 0.012100
50.962300 0.008800
50.993100 0.005600
51.023900 0.000200
51.054700 0.000000
51.085500 0.000000
51.116300 0.000000
51.147000 0.000000
51.177800 0.000000
51.208600 0.000000
51.239400 0.000000
51.270200 0.000000
51.301000 0.000000
51.331800 0.000000
51.362600 0.000000
51.393400 0.000000
51.424200 0.000000
51.455000 0.000000
51.485800 0.000000
51.516600 0.000000
51.547400 0.000000
51.578100 0.000000
51.608900 0.000000
51.639700 0.000000
51.670500 0.000000
51.701300 0.000000
51.732100 0.000000
51.762900 0.000000
51.793700 0.000000
51.824500 0.000000
51.855300 0.000000
51.886100 0.000000
51.916900 0.000000
51.947700 0.000000
51.978500 0.000000
52.009200 0.000000
52.040000 0.000000
52.070800 0.000000
52.101600 0.000000
52.132400 0.000000
52.163200 0.000000
52.194000 0.000000
52.224800 0.000000
52.255600 0.000000
52.286400 0.000000
52.317200 0.000000
52.348000 0.000000
52.378800 0.000000
52.409600 0.000000
52.440300 0.000000
52.471100 0.000000
52.501900 0.000000
52.532700 0.000000
52.563500 0.000000
52.594300 0.000000
52.625100 0.000000
52.655900 0.000000
52.686700 0.000000
52.717500 0.000000
52.748300 0.000000
52.779100 0.000000
52.809900 0.000000
52.840700 0.000000
52.871400 0.000000
52.902200 0.000000
52.933000 0.000000
52.963800 0.000000
52.994600 0.000000
53.025400 0.000000
53.056200 0.000000
53.087000 0.000000
53.117800 0.000000
53.148600 0.000000
53.179400 0.000000
53.210200 0.000000
53.241000 0.000000
53.271800 0.000000
53.302500 0.000000
53.333300 0.000000
53.364100 0.000000
53.394900 0.000000
53.425700 0.000000
53.456500 0.000000
53.487300 0.000000
53.518100 0.000000
53.548900 0.000000
53.579700 0.000000
53.610500 0.000000
53.641300 0.000000
53.672100 0.000000
53.702900 0.000000
53.733600 0.000000
53.764400 0.000000
53.795200 0.000000
53.826000 0.000000
e
