set title 'mp-8200 - Density of States'
set xlabel 'Energy (eV)'
set ylabel 'DOS (states/eV)'
set grid
set xrange [-10:10]
set yrange [0:46.823]
set xzeroaxis lt -1
set terminal png size 800,600
set output 'mp-8200_dos_gnuplot.png'
plot '-' using 1:2 with lines title 'DOS'
-11.077000 0.000000
-11.062000 0.000000
-11.047000 0.000000
-11.032000 0.000000
-11.017000 0.000000
-11.002000 0.000000
-10.987000 0.000000
-10.972000 0.000000
-10.957000 0.000000
-10.942000 0.000000
-10.927000 0.000000
-10.912000 0.000000
-10.897000 0.000000
-10.882000 0.000000
-10.867000 0.000000
-10.852000 0.000000
-10.837000 0.000000
-10.822000 0.000000
-10.807000 0.000000
-10.792000 0.000000
-10.777000 0.000000
-10.762000 0.000000
-10.747000 0.000000
-10.732000 0.000000
-10.717000 0.000000
-10.702000 0.000000
-10.687000 0.000000
-10.672000 0.000000
-10.657000 0.000000
-10.642000 0.000000
-10.627000 0.000000
-10.612000 0.000000
-10.597000 0.000000
-10.582000 0.000000
-10.567000 0.000000
-10.552000 0.000000
-10.536900 0.000000
-10.521900 0.000000
-10.506900 0.000000
-10.491900 0.000000
-10.476900 0.000000
-10.461900 0.000000
-10.446900 0.000000
-10.431900 0.000000
-10.416900 0.000000
-10.401900 0.000000
-10.386900 0.000000
-10.371900 0.000000
-10.356900 0.000000
-10.341900 0.000000
-10.326900 0.000000
-10.311900 0.000000
-10.296900 0.000000
-10.281900 0.000000
-10.266900 0.000000
-10.251900 0.000000
-10.236900 0.000000
-10.221900 0.000000
-10.206900 0.000000
-10.191900 0.000000
-10.176900 0.000000
-10.161900 0.000000
-10.146900 0.000000
-10.131900 0.000000
-10.116900 0.000000
-10.101900 0.000000
-10.086900 0.000000
-10.071900 0.000000
-10.056900 0.000000
-10.041900 0.000000
-10.026900 0.000000
-10.011900 0.000000
-9.996900 0.000000
-9.981900 0.000000
-9.966900 0.000000
-9.951900 0.000000
-9.936900 0.000000
-9.921900 0.000000
-9.906900 0.000000
-9.891900 0.000000
-9.876900 0.000000
-9.861900 0.000000
-9.846900 0.000000
-9.831900 0.000000
-9.816800 0.000000
-9.801800 0.000000
-9.786800 0.000000
-9.771800 0.000000
-9.756800 0.000000
-9.741800 0.000000
-9.726800 0.000000
-9.711800 0.000200
-9.696800 0.029200
-9.681800 0.107400
-9.666800 0.234700
-9.651800 0.409200
-9.636800 0.627500
-9.621800 0.889200
-9.606800 1.192300
-9.591800 1.505900
-9.576800 1.820100
-9.561800 2.126300
-9.546800 2.404300
-9.531800 2.653200
-9.516800 2.873300
-9.501800 3.292200
-9.486800 3.773700
-9.471800 4.191800
-9.456800 4.567300
-9.441800 4.885700
-9.426800 4.812400
-9.411800 4.595400
-9.396800 4.377400
-9.381800 4.111100
-9.366800 3.652900
-9.351800 3.212400
-9.336800 2.801600
-9.321800 2.427300
-9.306800 2.318300
-9.291800 2.324100
-9.276800 2.329900
-9.261800 2.335700
-9.246800 2.341600
-9.231800 2.347500
-9.216800 2.353400
-9.201800 2.359400
-9.186800 2.365400
-9.171800 2.627900
-9.156800 3.112100
-9.141800 3.533900
-9.126800 3.876900
-9.111800 4.144500
-9.096800 3.954200
-9.081700 3.763700
-9.066700 3.572700
-9.051700 5.099200
-9.036700 5.100100
-9.021700 4.271100
-9.006700 2.602600
-8.991700 0.000000
-8.976700 0.000000
-8.961700 0.070500
-8.946700 0.730800
-8.931700 1.494300
-8.916700 2.050800
-8.901700 3.054200
-8.886700 3.459600
-8.871700 3.599600
-8.856700 3.705100
-8.841700 3.874300
-8.826700 4.112700
-8.811700 4.390400
-8.796700 4.663200
-8.781700 4.957300
-8.766700 7.481700
-8.751700 7.269700
-8.736700 4.087000
-8.721700 4.034500
-8.706700 3.981800
-8.691700 3.929000
-8.676700 3.875900
-8.661700 3.822700
-8.646700 3.769200
-8.631700 3.715600
-8.616700 3.661800
-8.601700 2.691900
-8.586700 1.834900
-8.571700 1.799700
-8.556700 1.764500
-8.541700 1.729200
-8.526700 1.694000
-8.511700 1.658800
-8.496700 1.623600
-8.481700 1.588400
-8.466700 1.553200
-8.451700 1.518000
-8.436700 1.482800
-8.421700 1.447600
-8.406700 1.412400
-8.391700 1.377200
-8.376700 1.342000
-8.361600 1.306800
-8.346600 1.271600
-8.331600 1.236400
-8.316600 1.201200
-8.301600 1.166100
-8.286600 1.130700
-8.271600 1.075900
-8.256600 0.989700
-8.241600 0.876000
-8.226600 0.753500
-8.211600 0.631100
-8.196600 0.508700
-8.181600 0.386300
-8.166600 0.263900
-8.151600 0.141600
-8.136600 0.054400
-8.121600 0.012100
-8.106600 0.000000
-8.091600 0.000000
-8.076600 0.000000
-8.061600 0.000000
-8.046600 0.001600
-8.031600 0.081700
-8.016600 0.179600
-8.001600 0.277500
-7.986600 0.375400
-7.971600 0.473300
-7.956600 0.571200
-7.941600 0.669000
-7.926600 0.766900
-7.911600 0.864700
-7.896600 0.962600
-7.881600 1.060400
-7.866600 1.158200
-7.851600 1.256100
-7.836600 1.353900
-7.821600 1.451700
-7.806600 1.549500
-7.791600 1.647200
-7.776600 1.745000
-7.761600 1.836300
-7.746600 2.644600
-7.731600 3.508900
-7.716600 4.389400
-7.701600 4.507300
-7.686600 4.503800
-7.671600 4.500400
-7.656600 4.497000
-7.641600 7.686800
-7.626500 7.446700
-7.611500 2.560400
-7.596500 2.506400
-7.581500 2.452400
-7.566500 2.398400
-7.551500 2.344400
-7.536500 2.290500
-7.521500 2.236500
-7.506500 2.182600
-7.491500 2.128700
-7.476500 2.074900
-7.461500 2.021000
-7.446500 1.967100
-7.431500 1.913300
-7.416500 1.859500
-7.401500 1.805700
-7.386500 1.751900
-7.371500 1.698200
-7.356500 4.912700
-7.341500 5.795900
-7.326500 6.518500
-7.311500 3.309000
-7.296500 3.286100
-7.281500 3.277800
-7.266500 3.277900
-7.251500 3.295000
-7.236500 3.331300
-7.221500 3.367500
-7.206500 3.403800
-7.191500 3.440000
-7.176500 3.476200
-7.161500 3.506200
-7.146500 3.106000
-7.131500 2.700000
-7.116500 2.292400
-7.101500 2.184900
-7.086500 2.161700
-7.071500 2.138500
-7.056500 2.115300
-7.041500 2.092100
-7.026500 2.068900
-7.011500 2.045700
-6.996500 2.022600
-6.981500 1.999400
-6.966500 1.976200
-6.951500 1.953000
-6.936500 1.929900
-6.921500 1.906700
-6.906400 1.883600
-6.891400 1.860400
-6.876400 1.560700
-6.861400 1.427400
-6.846400 1.187600
-6.831400 1.187100
-6.816400 1.186600
-6.801400 1.186100
-6.786400 1.185700
-6.771400 1.185200
-6.756400 1.184700
-6.741400 1.184300
-6.726400 1.183800
-6.711400 1.264900
-6.696400 1.444500
-6.681400 1.628200
-6.666400 1.857400
-6.651400 2.188900
-6.636400 2.440300
-6.621400 2.599700
-6.606400 2.742900
-6.591400 2.869600
-6.576400 2.980100
-6.561400 3.074200
-6.546400 3.152000
-6.531400 3.213500
-6.516400 3.258700
-6.501400 3.287500
-6.486400 3.238800
-6.471400 3.099900
-6.456400 3.048500
-6.441400 2.321800
-6.426400 2.014900
-6.411400 1.871000
-6.396400 1.702200
-6.381400 1.532200
-6.366400 1.361200
-6.351400 1.189200
-6.336400 1.016200
-6.321400 0.842100
-6.306400 0.660500
-6.291400 0.448900
-6.276400 0.261400
-6.261400 0.152200
-6.246400 0.121100
-6.231400 0.173400
-6.216400 0.252100
-6.201400 0.345700
-6.186300 0.453900
-6.171300 0.712100
-6.156300 1.152800
-6.141300 1.641100
-6.126300 1.975700
-6.111300 2.315100
-6.096300 2.679400
-6.081300 3.068500
-6.066300 3.482600
-6.051300 4.085600
-6.036300 4.373400
-6.021300 4.371600
-6.006300 4.282400
-5.991300 4.238400
-5.976300 4.183700
-5.961300 3.949600
-5.946300 2.940100
-5.931300 2.706300
-5.916300 2.482400
-5.901300 2.268500
-5.886300 2.064400
-5.871300 1.870300
-5.856300 1.686000
-5.841300 1.511700
-5.826300 1.348400
-5.811300 1.231500
-5.796300 1.195500
-5.781300 1.195200
-5.766300 1.194900
-5.751300 1.194600
-5.736300 1.194200
-5.721300 1.193900
-5.706300 1.313700
-5.691300 1.492100
-5.676300 1.673700
-5.661300 1.744200
-5.646300 1.765800
-5.631300 1.787400
-5.616300 1.809000
-5.601300 1.885500
-5.586300 1.979900
-5.571300 2.070900
-5.556300 2.158700
-5.541300 2.243200
-5.526300 2.324300
-5.511300 2.396000
-5.496300 2.464300
-5.481300 2.529400
-5.466300 2.591300
-5.451200 2.650000
-5.436200 2.681100
-5.421200 2.665700
-5.406200 2.650400
-5.391200 2.635000
-5.376200 2.619600
-5.361200 2.604200
-5.346200 2.588800
-5.331200 2.573400
-5.316200 2.558000
-5.301200 2.542500
-5.286200 2.527100
-5.271200 3.465000
-5.256200 3.349500
-5.241200 3.236500
-5.226200 3.126600
-5.211200 3.025000
-5.196200 2.932900
-5.181200 2.850200
-5.166200 2.773000
-5.151200 1.392300
-5.136200 1.461300
-5.121200 1.526200
-5.106200 1.587100
-5.091200 1.644000
-5.076200 1.700300
-5.061200 1.757000
-5.046200 1.814100
-5.031200 1.871500
-5.016200 1.929400
-5.001200 1.987600
-4.986200 2.040400
-4.971200 2.080300
-4.956200 2.111600
-4.941200 2.135900
-4.926200 2.159300
-4.911200 2.182800
-4.896200 2.206300
-4.881200 2.230000
-4.866200 2.253800
-4.851200 2.277700
-4.836200 2.301700
-4.821200 2.325700
-4.806200 2.349900
-4.791200 2.374200
-4.776200 2.398500
-4.761200 3.369800
-4.746200 9.419300
-4.731100 9.580400
-4.716100 14.499800
-4.701100 2.251900
-4.686100 2.028600
-4.671100 1.805100
-4.656100 1.581400
-4.641100 1.357600
-4.626100 1.133600
-4.611100 0.909400
-4.596100 0.685100
-4.581100 0.460500
-4.566100 0.238700
-4.551100 0.098200
-4.536100 0.027300
-4.521100 0.000300
-4.506100 0.000000
-4.491100 0.000000
-4.476100 0.000000
-4.461100 0.000000
-4.446100 0.000000
-4.431100 0.000000
-4.416100 0.000000
-4.401100 0.000000
-4.386100 0.000000
-4.371100 0.000000
-4.356100 0.000000
-4.341100 0.000000
-4.326100 0.000000
-4.311100 0.000000
-4.296100 0.000000
-4.281100 0.000000
-4.266100 0.000000
-4.251100 0.000000
-4.236100 0.000000
-4.221100 0.000000
-4.206100 0.000000
-4.191100 0.000000
-4.176100 0.000000
-4.161100 0.000000
-4.146100 0.000000
-4.131100 0.000000
-4.116100 0.000000
-4.101100 0.000000
-4.086100 0.000000
-4.071100 0.000000
-4.056100 0.000000
-4.041100 0.000000
-4.026100 0.009200
-4.011000 0.111800
-3.996000 0.328100
-3.981000 0.658200
-3.966000 1.170000
-3.951000 2.608100
-3.936000 5.417900
-3.921000 5.852600
-3.906000 6.047300
-3.891000 5.980900
-3.876000 8.526200
-3.861000 4.567500
-3.846000 4.079600
-3.831000 3.613100
-3.816000 3.168000
-3.801000 2.744400
-3.786000 2.517900
-3.771000 2.498800
-3.756000 2.479900
-3.741000 2.461100
-3.726000 2.442600
-3.711000 2.423700
-3.696000 2.401900
-3.681000 2.377300
-3.666000 2.349600
-3.651000 2.319000
-3.636000 2.285400
-3.621000 2.248900
-3.606000 2.209400
-3.591000 2.167000
-3.576000 2.121600
-3.561000 2.073300
-3.546000 3.253200
-3.531000 3.369200
-3.516000 3.442600
-3.501000 3.518600
-3.486000 3.597400
-3.471000 3.678900
-3.456000 3.763000
-3.441000 3.849800
-3.426000 3.939400
-3.411000 4.031600
-3.396000 3.499800
-3.381000 3.494300
-3.366000 3.488800
-3.351000 3.483200
-3.336000 3.425800
-3.321000 3.362300
-3.306000 3.295700
-3.291000 3.226200
-3.275900 3.153700
-3.260900 3.046200
-3.245900 2.854000
-3.230900 2.700500
-3.215900 2.584500
-3.200900 2.480700
-3.185900 2.376300
-3.170900 2.271100
-3.155900 2.165200
-3.140900 2.058600
-3.125900 1.951300
-3.110900 1.843300
-3.095900 1.734600
-3.080900 1.621700
-3.065900 1.443700
-3.050900 1.440200
-3.035900 1.440900
-3.020900 1.441600
-3.005900 1.474900
-2.990900 1.527000
-2.975900 1.596100
-2.960900 1.679900
-2.945900 1.767800
-2.930900 1.858200
-2.915900 1.951200
-2.900900 2.046800
-2.885900 2.144900
-2.870900 2.245600
-2.855900 2.348900
-2.840900 2.454700
-2.825900 2.565400
-2.810900 2.682600
-2.795900 2.806000
-2.780900 2.904000
-2.765900 2.936900
-2.750900 2.928300
-2.735900 2.878200
-2.720900 2.786700
-2.705900 2.654200
-2.690900 2.504400
-2.675900 2.354900
-2.660900 2.204900
-2.645900 2.052500
-2.630900 1.897700
-2.615900 1.740600
-2.600900 1.581100
-2.585900 1.420600
-2.570900 1.259700
-2.555800 1.098400
-2.540800 0.932000
-2.525800 0.765000
-2.510800 0.625800
-2.495800 0.500600
-2.480800 0.389400
-2.465800 0.292100
-2.450800 0.208700
-2.435800 0.139400
-2.420800 0.084000
-2.405800 0.042500
-2.390800 0.015100
-2.375800 0.001500
-2.360800 0.000000
-2.345800 0.000000
-2.330800 0.000000
-2.315800 0.000000
-2.300800 0.000000
-2.285800 0.000000
-2.270800 0.000000
-2.255800 0.000000
-2.240800 0.000000
-2.225800 0.000000
-2.210800 0.000000
-2.195800 0.000000
-2.180800 0.000000
-2.165800 0.000000
-2.150800 0.000000
-2.135800 0.000000
-2.120800 0.000000
-2.105800 0.000000
-2.090800 0.000000
-2.075800 0.000000
-2.060800 0.000000
-2.045800 0.000000
-2.030800 0.000000
-2.015800 0.000000
-2.000800 0.000000
-1.985800 0.000000
-1.970800 0.000000
-1.955800 0.000000
-1.940800 0.000000
-1.925800 0.000000
-1.910800 0.000000
-1.895800 0.000000
-1.880800 0.000000
-1.865800 0.000000
-1.850800 0.000000
-1.835800 0.000000
-1.820700 0.000000
-1.805700 0.000000
-1.790700 0.000000
-1.775700 0.000000
-1.760700 0.000000
-1.745700 0.006500
-1.730700 0.075000
-1.715700 0.164000
-1.700700 0.273400
-1.685700 0.403300
-1.670700 0.553600
-1.655700 0.724500
-1.640700 0.915800
-1.625700 1.127500
-1.610700 1.359800
-1.595700 1.612500
-1.580700 1.884900
-1.565700 2.174000
-1.550700 2.492200
-1.535700 2.828600
-1.520700 3.152000
-1.505700 3.462900
-1.490700 3.796000
-1.475700 4.158800
-1.460700 4.925500
-1.445700 5.442900
-1.430700 5.880100
-1.415700 6.357300
-1.400700 6.916400
-1.385700 7.455400
-1.370700 7.967600
-1.355700 8.457600
-1.340700 8.846900
-1.325700 9.152900
-1.310700 9.478100
-1.295700 9.807500
-1.280700 10.100700
-1.265700 10.416700
-1.250700 10.642300
-1.235700 10.386200
-1.220700 10.254700
-1.205700 10.214600
-1.190700 10.019600
-1.175700 9.520900
-1.160700 8.950600
-1.145700 8.515800
-1.130700 8.504700
-1.115700 8.189800
-1.100600 7.211500
-1.085600 5.692400
-1.070600 5.048200
-1.055600 4.327500
-1.040600 3.507000
-1.025600 2.313600
-1.010600 0.022000
-0.995600 0.000000
-0.980600 1.052500
-0.965600 3.457800
-0.950600 5.528500
-0.935600 7.219500
-0.920600 8.904200
-0.905600 10.813800
-0.890600 15.111200
-0.875600 17.572900
-0.860600 15.266400
-0.845600 10.951800
-0.830600 8.764800
-0.815600 8.342800
-0.800600 8.223600
-0.785600 8.402800
-0.770600 10.784900
-0.755600 11.972100
-0.740600 12.573900
-0.725600 10.972600
-0.710600 10.248600
-0.695600 9.610300
-0.680600 9.012300
-0.665600 11.659400
-0.650600 12.569100
-0.635600 14.576800
-0.620600 16.378800
-0.605600 17.505900
-0.590600 17.234800
-0.575600 17.259200
-0.560600 13.551100
-0.545600 11.087400
-0.530600 11.963500
-0.515600 12.765800
-0.500600 10.133500
-0.485600 9.499500
-0.470600 11.340800
-0.455600 13.296800
-0.440600 12.702300
-0.425600 12.012100
-0.410600 11.187800
-0.395600 10.632700
-0.380500 12.874100
-0.365500 14.506000
-0.350500 15.111300
-0.335500 15.479800
-0.320500 13.726000
-0.305500 13.393900
-0.290500 12.668700
-0.275500 10.768500
-0.260500 9.266000
-0.245500 10.102600
-0.230500 12.578100
-0.215500 18.216200
-0.200500 24.182700
-0.185500 24.564700
-0.170500 20.989000
-0.155500 17.805900
-0.140500 17.350200
-0.125500 26.809800
-0.110500 34.693300
-0.095500 31.602900
-0.080500 12.110200
-0.065500 20.638900
-0.050500 30.338900
-0.035500 19.302600
-0.020500 14.950400
-0.005500 11.466800
0.009500 18.958700
0.024500 30.325400
0.039500 25.278500
0.054500 26.159700
0.069500 23.252500
0.084500 13.946500
0.099500 14.061500
0.114500 14.738400
0.129500 19.337400
0.144500 22.645000
0.159500 23.144800
0.174500 21.518900
0.189500 20.375500
0.204500 27.380400
0.219500 32.682200
0.234500 31.570500
0.249500 24.719900
0.264500 16.847400
0.279500 15.307200
0.294500 17.730200
0.309500 15.243900
0.324500 23.871400
0.339500 20.693200
0.354600 16.957200
0.369600 19.250600
0.384600 22.935200
0.399600 25.710600
0.414600 26.389900
0.429600 33.206000
0.444600 28.755400
0.459600 42.566700
0.474600 10.097500
0.489600 15.219600
0.504600 24.987500
0.519600 27.660800
0.534600 32.734500
0.549600 26.913900
0.564600 12.420200
0.579600 22.683500
0.594600 36.040800
0.609600 23.678700
0.624600 21.790500
0.639600 26.834500
0.654600 32.887000
0.669600 32.419200
0.684600 22.348700
0.699600 12.895700
0.714600 19.766200
0.729600 39.005300
0.744600 35.737600
0.759600 16.583400
0.774600 19.356500
0.789600 19.798900
0.804600 19.257500
0.819600 22.251500
0.834600 24.006500
0.849600 30.945000
0.864600 26.909800
0.879600 27.675400
0.894600 24.215500
0.909600 27.306500
0.924600 19.126900
0.939600 28.316400
0.954600 24.517400
0.969600 30.917300
0.984600 30.754900
0.999600 33.579500
1.014600 34.880600
1.029600 28.802100
1.044600 22.326100
1.059600 14.965100
1.074700 11.754000
1.089700 12.848600
1.104700 11.045400
1.119700 13.159200
1.134700 19.491400
1.149700 19.788200
1.164700 17.758800
1.179700 16.444600
1.194700 13.835700
1.209700 12.052000
1.224700 11.221200
1.239700 10.808400
1.254700 8.098400
1.269700 9.004300
1.284700 10.642900
1.299700 15.819800
1.314700 20.942900
1.329700 17.519500
1.344700 15.108100
1.359700 9.287000
1.374700 5.737700
1.389700 2.712400
1.404700 0.578200
1.419700 0.707300
1.434700 1.626700
1.449700 2.160600
1.464700 2.839900
1.479700 3.667800
1.494700 4.616700
1.509700 5.780700
1.524700 6.921400
1.539700 8.333100
1.554700 11.116700
1.569700 8.736500
1.584700 9.289500
1.599700 10.042200
1.614700 9.989800
1.629700 9.653400
1.644700 10.064900
1.659700 13.777200
1.674700 10.708200
1.689700 10.298800
1.704700 10.053200
1.719700 10.202600
1.734700 10.362600
1.749700 10.486700
1.764700 10.539800
1.779700 10.547600
1.794800 10.511400
1.809800 10.189200
1.824800 9.758600
1.839800 8.419900
1.854800 7.350800
1.869800 6.040500
1.884800 4.575300
1.899800 2.908200
1.914800 1.878700
1.929800 1.614200
1.944800 1.477100
1.959800 1.732800
1.974800 2.132900
1.989800 2.629600
2.004800 3.301200
2.019800 3.885200
2.034800 4.507900
2.049800 4.664300
2.064800 5.103800
2.079800 5.057100
2.094800 5.032900
2.109800 5.046800
2.124800 5.192400
2.139800 5.326500
2.154800 5.448000
2.169800 5.557000
2.184800 5.653400
2.199800 5.792600
2.214800 6.030400
2.229800 6.192100
2.244800 6.277600
2.259800 6.287000
2.274800 6.674600
2.289800 7.272600
2.304800 7.818500
2.319800 7.852500
2.334800 7.690800
2.349800 7.565100
2.364800 7.571800
2.379800 7.357200
2.394800 7.188800
2.409800 6.956600
2.424800 6.851400
2.439800 7.601200
2.454800 8.025500
2.469800 8.235500
2.484800 8.193700
2.499800 7.745800
2.514800 7.043800
2.529900 6.650100
2.544900 7.231800
2.559900 6.898000
2.574900 6.456800
2.589900 5.817100
2.604900 5.352400
2.619900 5.395800
2.634900 5.545100
2.649900 5.621800
2.664900 5.797300
2.679900 6.341500
2.694900 6.721400
2.709900 7.168800
2.724900 7.596800
2.739900 7.915900
2.754900 8.082300
2.769900 7.904300
2.784900 8.130300
2.799900 8.069400
2.814900 7.190200
2.829900 5.855600
2.844900 4.949800
2.859900 4.498200
2.874900 4.247800
2.889900 4.049200
2.904900 4.048700
2.919900 4.089000
2.934900 4.169100
2.949900 4.337300
2.964900 4.745400
2.979900 5.417700
2.994900 6.359300
3.009900 7.625800
3.024900 11.172800
3.039900 11.937100
3.054900 12.108500
3.069900 10.935800
3.084900 10.446300
3.099900 10.204800
3.114900 9.390600
3.129900 8.230700
3.144900 7.082200
3.159900 5.945000
3.174900 4.963700
3.189900 4.652300
3.204900 4.568600
3.219900 4.702800
3.234900 4.805800
3.250000 4.935800
3.265000 5.023900
3.280000 5.134200
3.295000 5.293700
3.310000 5.457100
3.325000 5.744900
3.340000 6.259800
3.355000 7.139600
3.370000 8.389700
3.385000 8.861600
3.400000 8.859200
3.415000 8.673000
3.430000 7.886800
3.445000 7.150100
3.460000 6.393200
3.475000 5.810300
3.490000 4.903700
3.505000 4.074400
3.520000 3.485500
3.535000 2.554900
3.550000 2.838100
3.565000 2.956100
3.580000 3.233800
3.595000 3.645800
3.610000 4.077100
3.625000 5.232100
3.640000 6.205400
3.655000 6.842100
3.670000 7.372000
3.685000 6.261900
3.700000 5.915200
3.715000 5.716200
3.730000 5.522500
3.745000 5.334300
3.760000 5.151200
3.775000 4.976200
3.790000 4.813500
3.805000 4.681100
3.820000 4.493200
3.835000 4.244400
3.850000 3.934900
3.865000 3.581600
3.880000 3.398000
3.895000 3.288300
3.910000 3.234200
3.925000 3.224700
3.940000 3.418600
3.955000 3.671900
3.970100 3.945200
3.985100 4.133000
4.000100 4.404600
4.015100 4.989500
4.030100 4.808400
4.045100 4.660700
4.060100 4.446200
4.075100 4.045300
4.090100 4.099500
4.105100 4.159300
4.120100 4.224500
4.135100 4.295300
4.150100 4.366300
4.165100 4.431100
4.180100 4.489800
4.195100 5.251400
4.210100 6.113400
4.225100 6.025300
4.240100 5.671200
4.255100 5.372100
4.270100 5.317500
4.285100 5.279600
4.300100 5.250800
4.315100 5.142200
4.330100 4.976800
4.345100 5.279300
4.360100 4.073600
4.375100 4.831500
4.390100 4.910500
4.405100 4.250200
4.420100 4.236600
4.435100 4.415200
4.450100 4.887500
4.465100 5.320900
4.480100 5.622200
4.495100 5.579500
4.510100 5.645200
4.525100 5.793800
4.540100 5.921000
4.555100 5.573100
4.570100 5.510000
4.585100 5.396000
4.600100 5.236400
4.615100 5.050500
4.630100 4.850200
4.645100 4.635500
4.660100 4.406500
4.675100 4.163000
4.690100 3.911300
4.705200 3.880400
4.720200 3.028700
4.735200 2.350500
4.750200 2.108700
4.765200 1.877800
4.780200 1.659400
4.795200 1.453600
4.810200 1.260600
4.825200 1.084100
4.840200 0.924800
4.855200 0.782900
4.870200 0.658300
4.885200 0.551000
4.900200 0.459800
4.915200 0.376700
4.930200 0.300000
4.945200 0.229800
4.960200 0.166000
4.975200 0.124800
4.990200 0.105800
5.005200 0.088400
5.020200 0.072500
5.035200 0.058200
5.050200 0.045500
5.065200 0.034300
5.080200 0.024700
5.095200 0.016700
5.110200 0.010300
5.125200 0.005400
5.140200 0.002100
5.155200 0.000300
5.170200 0.000000
5.185200 0.000000
5.200200 0.000000
5.215200 0.000000
5.230200 0.000000
5.245200 0.000000
5.260200 0.000000
5.275200 0.000000
5.290200 0.000000
5.305200 0.000000
5.320200 0.000000
5.335200 0.000000
5.350200 0.000000
5.365200 0.000000
5.380200 0.000000
5.395200 0.000000
5.410200 0.000000
5.425300 0.000000
5.440300 0.000000
5.455300 0.000000
5.470300 0.000000
5.485300 0.000000
5.500300 0.000000
5.515300 0.000000
5.530300 0.000000
5.545300 0.000000
5.560300 0.000000
5.575300 0.000000
5.590300 0.000000
5.605300 0.000000
5.620300 0.000000
5.635300 0.000000
5.650300 0.000000
5.665300 0.000000
5.680300 0.000000
5.695300 0.000000
5.710300 0.000000
5.725300 0.000000
5.740300 0.000000
5.755300 0.000000
5.770300 0.000000
5.785300 0.000000
5.800300 0.000000
5.815300 0.000000
5.830300 0.000400
5.845300 0.004900
5.860300 0.014300
5.875300 0.028500
5.890300 0.107500
5.905300 0.237300
5.920300 0.386300
5.935300 0.554600
5.950300 0.742100
5.965300 0.948800
5.980300 1.174900
5.995300 1.519300
6.010300 1.963000
6.025300 2.184400
6.040300 2.460700
6.055300 2.811800
6.070300 3.239800
6.085300 3.677200
6.100300 3.928300
6.115300 4.118600
6.130300 4.248000
6.145300 4.316700
6.160400 4.334700
6.175400 4.381500
6.190400 4.594900
6.205400 4.935100
6.220400 5.348400
6.235400 5.833400
6.250400 6.322500
6.265400 6.631400
6.280400 6.906400
6.295400 7.317900
6.310400 7.759800
6.325400 8.210800
6.340400 9.471600
6.355400 9.857800
6.370400 9.874600
6.385400 9.843400
6.400400 9.704900
6.415400 9.359000
6.430400 8.745700
6.445400 7.961300
6.460400 7.273400
6.475400 6.199500
6.490400 5.470400
6.505400 5.542800
6.520400 7.137300
6.535400 6.810400
6.550400 6.903000
6.565400 7.070600
6.580400 6.980000
6.595400 6.866300
6.610400 6.729400
6.625400 6.569500
6.640400 6.404900
6.655400 6.403000
6.670400 6.370400
6.685400 6.396400
6.700400 6.480300
6.715400 6.577200
6.730400 6.674600
6.745400 6.764700
6.760400 6.847900
6.775400 6.936900
6.790400 7.032400
6.805400 7.156400
6.820400 8.819000
6.835400 9.056800
6.850400 7.924000
6.865400 7.126900
6.880500 6.306000
6.895500 5.743400
6.910500 5.547500
6.925500 5.417900
6.940500 5.319400
6.955500 5.253500
6.970500 5.229600
6.985500 5.348000
7.000500 5.449200
7.015500 5.725800
7.030500 5.898100
7.045500 5.987300
7.060500 5.999900
7.075500 6.068700
7.090500 7.303700
7.105500 7.257200
7.120500 6.609200
7.135500 6.459700
7.150500 6.356900
7.165500 6.731000
7.180500 7.116200
7.195500 7.512400
7.210500 7.927500
7.225500 8.407700
7.240500 8.855800
7.255500 9.356600
7.270500 8.782800
7.285500 7.719300
7.300500 6.317000
7.315500 5.962500
7.330500 5.937000
7.345500 6.081000
7.360500 6.218700
7.375500 6.192400
7.390500 6.210700
7.405500 6.289700
7.420500 6.498900
7.435500 6.802200
7.450500 6.987600
7.465500 7.098700
7.480500 7.115800
7.495500 7.052200
7.510500 6.977100
7.525500 6.901300
7.540500 6.824800
7.555500 6.585800
7.570500 8.740700
7.585500 6.799700
7.600600 6.533400
7.615600 6.575400
7.630600 6.915000
7.645600 6.913700
7.660600 6.956200
7.675600 7.194400
7.690600 8.098900
7.705600 9.019000
7.720600 8.528100
7.735600 9.183700
7.750600 9.636400
7.765600 9.972700
7.780600 18.019200
7.795600 8.726300
7.810600 8.539700
7.825600 8.515900
7.840600 7.415400
7.855600 6.974200
7.870600 7.017500
7.885600 6.960300
7.900600 8.054600
7.915600 7.681000
7.930600 7.197200
7.945600 7.254100
7.960600 7.169500
7.975600 7.176700
7.990600 7.183600
8.005600 7.369700
8.020600 7.413500
8.035600 7.581000
8.050600 7.742800
8.065600 7.883600
8.080600 8.034500
8.095600 8.196100
8.110600 8.368400
8.125600 8.619200
8.140600 9.619700
8.155600 9.411100
8.170600 8.022900
8.185600 7.366100
8.200600 6.617700
8.215600 6.751600
8.230600 6.811300
8.245600 6.739100
8.260600 6.600200
8.275600 6.442900
8.290600 6.292900
8.305600 6.150300
8.320600 6.011200
8.335700 5.753900
8.350700 5.661100
8.365700 5.617900
8.380700 5.546000
8.395700 5.514000
8.410700 5.488600
8.425700 5.470100
8.440700 6.756600
8.455700 6.357000
8.470700 5.969400
8.485700 5.693400
8.500700 5.459000
8.515700 5.224400
8.530700 4.884500
8.545700 4.604500
8.560700 4.457600
8.575700 4.333600
8.590700 4.232500
8.605700 4.231300
8.620700 6.255100
8.635700 6.179300
8.650700 6.401800
8.665700 6.461300
8.680700 6.346500
8.695700 6.062600
8.710700 5.637600
8.725700 5.524500
8.740700 5.777600
8.755700 6.174800
8.770700 6.643200
8.785700 7.098100
8.800700 7.918800
8.815700 9.714200
8.830700 10.486400
8.845700 7.684300
8.860700 6.911500
8.875700 6.027900
8.890700 5.390900
8.905700 5.238600
8.920700 5.263300
8.935700 5.058200
8.950700 4.787900
8.965700 4.674700
8.980700 4.819800
8.995700 5.021700
9.010700 4.819600
9.025700 4.540600
9.040700 4.785200
9.055800 4.995500
9.070800 5.544700
9.085800 6.435200
9.100800 7.066700
9.115800 7.535100
9.130800 7.937700
9.145800 8.269600
9.160800 7.278200
9.175800 9.943100
9.190800 9.359300
9.205800 8.908300
9.220800 8.142000
9.235800 6.754700
9.250800 5.466800
9.265800 4.250700
9.280800 3.008000
9.295800 2.901400
9.310800 3.391900
9.325800 4.004600
9.340800 4.725500
9.355800 5.554500
9.370800 7.296000
9.385800 7.906900
9.400800 8.393500
9.415800 8.755900
9.430800 9.931100
9.445800 8.715300
9.460800 8.700800
9.475800 8.334800
9.490800 6.521600
9.505800 5.572600
9.520800 5.257700
9.535800 4.989500
9.550800 4.780200
9.565800 4.757700
9.580800 4.719900
9.595800 4.648500
9.610800 4.637600
9.625800 4.886200
9.640800 5.420800
9.655800 6.319400
9.670800 8.157000
9.685800 9.179800
9.700800 10.023900
9.715800 13.315800
9.730800 12.918500
9.745800 10.421300
9.760800 9.610600
9.775900 8.474900
9.790900 5.963700
9.805900 3.812700
9.820900 3.144500
9.835900 2.554000
9.850900 2.047900
9.865900 1.850900
9.880900 2.077700
9.895900 3.409500
9.910900 5.674900
9.925900 8.764200
9.940900 11.589800
9.955900 11.395400
9.970900 8.550300
9.985900 6.939400
10.000900 5.741100
10.015900 5.425900
10.030900 5.147400
10.045900 4.905100
10.060900 4.849700
10.075900 5.126400
10.090900 5.422600
10.105900 5.738500
10.120900 7.123300
10.135900 6.710700
10.150900 6.271600
10.165900 6.052900
10.180900 6.202400
10.195900 6.349900
10.210900 6.722200
10.225900 6.724900
10.240900 6.575600
10.255900 6.177100
10.270900 11.040200
10.285900 6.171300
10.300900 5.969600
10.315900 5.820700
10.330900 5.856700
10.345900 5.951000
10.360900 6.162600
10.375900 6.117700
10.390900 6.048300
10.405900 5.954400
10.420900 5.836000
10.435900 5.827100
10.450900 5.903800
10.465900 5.981600
10.480900 5.662900
10.495900 5.251300
10.511000 5.199300
10.526000 5.225600
10.541000 5.260800
10.556000 5.307800
10.571000 5.367200
10.586000 5.419500
10.601000 5.450400
10.616000 5.444500
10.631000 5.367600
10.646000 5.289100
10.661000 5.208800
10.676000 5.129200
10.691000 5.055200
10.706000 4.970500
10.721000 4.874500
10.736000 5.519400
10.751000 5.367500
10.766000 5.261500
10.781000 5.094700
10.796000 4.959200
10.811000 4.490300
10.826000 4.837300
10.841000 5.179200
10.856000 5.514600
10.871000 5.834000
10.886000 6.060900
10.901000 6.157700
10.916000 6.246400
10.931000 6.303500
10.946000 5.918900
10.961000 5.465800
10.976000 5.370600
10.991000 5.561100
11.006000 5.926000
11.021000 6.059900
11.036000 6.089200
11.051000 6.080100
11.066000 6.106200
11.081000 6.633400
11.096000 6.713100
11.111000 6.766300
11.126000 6.430700
11.141000 6.648500
11.156000 6.997300
11.171000 7.582400
11.186000 7.758200
11.201000 7.437000
11.216000 7.127100
11.231100 7.238000
11.246100 6.881600
11.261100 6.902200
11.276100 7.274700
11.291100 5.941000
11.306100 6.212100
11.321100 6.465700
11.336100 6.704800
11.351100 6.938500
11.366100 7.084100
11.381100 7.119500
11.396100 7.044500
11.411100 6.859200
11.426100 6.590900
11.441100 6.376100
11.456100 6.876300
11.471100 7.255200
11.486100 7.542600
11.501100 7.406500
11.516100 7.102600
11.531100 6.824200
11.546100 6.566200
11.561100 6.369700
11.576100 6.333200
11.591100 6.403600
11.606100 6.755500
11.621100 7.101700
11.636100 8.184800
11.651100 7.844900
11.666100 7.523400
11.681100 7.221700
11.696100 6.934500
11.711100 6.534400
11.726100 6.577700
11.741100 6.347600
11.756100 6.300500
11.771100 6.198300
11.786100 6.040100
11.801100 5.783100
11.816100 5.562500
11.831100 5.413500
11.846100 5.377200
11.861100 5.908000
11.876100 6.769500
11.891100 7.490800
11.906100 7.584400
11.921100 7.536600
11.936100 7.411300
11.951100 6.842100
11.966200 6.337600
11.981200 5.897000
11.996200 5.539100
12.011200 5.226200
12.026200 6.006800
12.041200 9.405500
12.056200 9.898900
12.071200 10.009400
12.086200 9.433000
12.101200 6.679600
12.116200 6.509800
12.131200 6.340500
12.146200 6.170300
12.161200 6.018600
12.176200 5.975000
12.191200 5.894600
12.206200 5.726900
12.221200 5.542700
12.236200 5.357300
12.251200 5.177100
12.266200 4.976700
12.281200 4.793100
12.296200 4.634500
12.311200 4.497500
12.326200 5.533300
12.341200 5.928100
12.356200 6.352200
12.371200 6.711500
12.386200 6.746400
12.401200 6.537800
12.416200 6.503300
12.431200 5.943200
12.446200 6.262100
12.461200 6.543900
12.476200 6.788500
12.491200 7.006700
12.506200 6.665500
12.521200 6.363200
12.536200 6.076000
12.551200 6.100700
12.566200 5.980300
12.581200 5.896500
12.596200 5.850600
12.611200 5.846100
12.626200 5.887500
12.641200 5.932400
12.656200 6.015000
12.671200 6.248800
12.686300 6.531000
12.701300 6.784900
12.716300 7.010100
12.731300 6.952500
12.746300 6.195300
12.761300 6.209600
12.776300 6.299300
12.791300 6.424900
12.806300 6.793100
12.821300 9.424100
12.836300 5.261400
12.851300 5.130000
12.866300 5.071900
12.881300 5.053600
12.896300 5.064400
12.911300 5.156300
12.926300 5.489100
12.941300 6.040500
12.956300 7.262300
12.971300 7.743200
12.986300 8.096400
13.001300 8.370000
13.016300 8.601000
13.031300 8.789400
13.046300 8.512900
13.061300 8.079100
13.076300 7.710500
13.091300 7.359100
13.106300 6.822400
13.121300 6.835100
13.136300 7.159900
13.151300 7.801100
13.166300 8.034500
13.181300 8.155600
13.196300 8.142400
13.211300 7.846800
13.226300 7.474900
13.241300 7.100600
13.256300 6.723400
13.271300 6.332600
13.286300 5.854400
13.301300 5.248500
13.316300 5.184400
13.331300 6.048200
13.346300 5.829800
13.361300 6.005700
13.376300 6.397300
13.391300 6.065500
13.406400 6.225400
13.421400 6.475200
13.436400 6.768700
13.451400 8.157500
13.466400 7.607600
13.481400 6.981000
13.496400 7.088300
13.511400 6.755400
13.526400 6.583400
13.541400 6.301100
13.556400 6.044700
13.571400 4.766000
13.586400 4.851800
13.601400 5.067200
13.616400 5.335000
13.631400 5.372600
13.646400 5.326100
13.661400 5.358200
13.676400 5.403200
13.691400 5.427600
13.706400 6.339900
13.721400 7.614800
13.736400 8.616300
13.751400 8.234000
13.766400 8.458600
13.781400 8.039100
13.796400 6.708300
13.811400 5.947000
13.826400 5.681000
13.841400 5.616600
13.856400 5.603200
13.871400 5.852400
13.886400 6.785800
13.901400 7.065300
13.916400 7.451600
13.931400 7.958900
13.946400 8.480800
13.961400 8.598600
13.976400 8.060400
13.991400 8.131700
14.006400 8.239500
14.021400 8.285900
14.036400 8.416400
14.051400 8.141600
14.066400 6.586400
14.081400 6.015800
14.096400 5.591900
14.111400 5.309300
14.126400 5.062400
14.141500 4.813600
14.156500 4.810400
14.171500 4.819900
14.186500 4.937000
14.201500 5.068400
14.216500 5.196400
14.231500 5.318100
14.246500 5.437500
14.261500 5.971900
14.276500 6.702900
14.291500 6.854100
14.306500 6.950500
14.321500 7.017000
14.336500 7.062200
14.351500 7.086300
14.366500 7.098000
14.381500 7.127200
14.396500 7.368900
14.411500 7.617900
14.426500 7.518200
14.441500 6.755600
14.456500 6.368600
14.471500 6.152300
14.486500 5.891600
14.501500 5.729600
14.516500 5.655800
14.531500 5.429400
14.546500 5.046500
14.561500 4.703900
14.576500 4.463000
14.591500 4.304700
14.606500 4.370100
14.621500 4.606800
14.636500 6.492400
14.651500 8.907000
14.666500 11.060200
14.681500 11.054000
14.696500 7.987200
14.711500 8.080300
14.726500 7.831400
14.741500 7.235100
14.756500 6.316600
14.771500 5.857300
14.786500 5.838300
14.801500 5.903800
14.816500 6.020000
14.831500 6.160700
14.846500 7.249900
14.861600 7.462700
14.876600 7.660900
14.891600 7.823500
14.906600 7.950700
14.921600 7.172300
14.936600 6.616100
14.951600 6.391400
14.966600 6.477600
14.981600 6.671700
14.996600 7.263700
15.011600 8.765200
15.026600 9.441000
15.041600 9.688500
15.056600 10.005200
15.071600 10.642200
15.086600 9.268900
15.101600 6.510500
15.116600 5.797400
15.131600 5.500700
15.146600 5.534000
15.161600 5.877900
15.176600 6.372500
15.191600 6.742200
15.206600 6.366700
15.221600 6.013600
15.236600 5.742200
15.251600 5.504600
15.266600 5.300800
15.281600 5.130800
15.296600 5.415100
15.311600 5.492600
15.326600 5.568400
15.341600 5.639300
15.356600 5.694900
15.371600 5.718800
15.386600 5.636100
15.401600 5.517700
15.416600 5.702300
15.431600 5.913600
15.446600 6.157700
15.461600 6.444400
15.476600 6.751300
15.491600 7.052000
15.506600 14.106300
15.521600 6.883300
15.536600 6.506900
15.551600 6.453200
15.566600 6.423200
15.581700 6.417100
15.596700 6.444900
15.611700 6.522700
15.626700 6.414500
15.641700 6.701200
15.656700 6.947400
15.671700 7.011600
15.686700 7.023100
15.701700 6.963700
15.716700 6.872500
15.731700 6.856200
15.746700 6.932300
15.761700 7.052100
15.776700 7.403500
15.791700 7.725200
15.806700 7.958500
15.821700 8.152900
15.836700 8.289400
15.851700 8.349400
15.866700 8.701400
15.881700 10.778000
15.896700 9.507700
15.911700 9.525800
15.926700 9.512100
15.941700 9.333300
15.956700 9.181900
15.971700 9.025600
15.986700 8.884600
16.001700 8.783100
16.016700 8.692000
16.031700 8.644600
16.046700 8.550000
16.061700 8.378800
16.076700 8.190600
16.091700 8.017000
16.106700 7.869100
16.121700 7.881900
16.136700 8.259500
16.151700 8.722800
16.166700 8.682600
16.181700 8.401100
16.196700 7.640700
16.211700 7.491400
16.226700 7.039200
16.241700 6.675200
16.256700 6.513900
16.271700 6.781600
16.286700 7.097300
16.301700 7.385900
16.316800 7.635100
16.331800 7.843100
16.346800 8.010800
16.361800 8.181400
16.376800 8.775000
16.391800 9.233900
16.406800 9.551100
16.421800 6.558100
16.436800 5.781900
16.451800 5.732900
16.466800 5.666400
16.481800 5.293400
16.496800 5.009600
16.511800 4.929100
16.526800 4.970300
16.541800 5.037400
16.556800 5.128100
16.571800 5.242500
16.586800 5.380500
16.601800 5.542300
16.616800 5.725900
16.631800 5.922600
16.646800 6.131000
16.661800 6.079100
16.676800 5.668900
16.691800 6.401500
16.706800 6.212500
16.721800 6.427400
16.736800 6.300800
16.751800 6.132200
16.766800 5.865400
16.781800 5.422700
16.796800 4.698900
16.811800 5.076300
16.826800 8.561300
16.841800 9.305000
16.856800 9.644200
16.871800 9.781400
16.886800 8.826300
16.901800 8.564300
16.916800 8.258800
16.931800 7.890300
16.946800 7.359200
16.961800 6.894700
16.976800 6.621300
16.991800 6.312800
17.006800 6.221200
17.021800 6.719500
17.036900 8.203700
17.051900 9.438600
17.066900 10.639700
17.081900 11.105600
17.096900 13.420100
17.111900 13.560100
17.126900 12.588900
17.141900 11.479800
17.156900 10.337900
17.171900 8.960200
17.186900 7.613800
17.201900 6.788600
17.216900 6.150900
17.231900 5.700900
17.246900 5.344500
17.261900 4.833900
17.276900 4.172300
17.291900 3.523300
17.306900 3.153100
17.321900 2.856000
17.336900 2.539400
17.351900 2.202000
17.366900 1.843700
17.381900 1.507600
17.396900 1.302200
17.411900 1.118300
17.426900 0.956500
17.441900 0.815600
17.456900 0.687600
17.471900 0.571900
17.486900 0.468700
17.501900 0.377700
17.516900 0.299200
17.531900 0.172400
17.546900 0.046900
17.561900 0.000300
17.576900 0.000000
17.591900 0.000000
17.606900 0.000000
17.621900 0.000000
17.636900 0.000000
17.651900 0.000000
17.666900 0.000000
17.681900 0.000000
17.696900 0.000000
17.711900 0.000000
17.726900 0.000000
17.741900 0.000000
17.756900 0.000000
17.772000 0.000000
17.787000 0.000000
17.802000 0.000000
17.817000 0.000000
17.832000 0.000000
17.847000 0.000000
17.862000 0.000000
17.877000 0.000000
17.892000 0.000000
17.907000 0.000000
17.922000 0.000000
17.937000 0.000000
17.952000 0.000000
17.967000 0.000000
17.982000 0.000000
17.997000 0.000000
18.012000 0.000000
18.027000 0.000000
18.042000 0.000000
18.057000 0.000000
18.072000 0.000000
18.087000 0.000000
18.102000 0.000000
18.117000 0.000000
18.132000 0.000000
18.147000 0.000000
18.162000 0.000000
18.177000 0.000000
18.192000 0.000000
18.207000 0.000000
18.222000 0.000000
18.237000 0.000000
18.252000 0.000000
18.267000 0.000000
18.282000 0.000000
18.297000 0.000000
18.312000 0.000000
18.327000 0.000000
18.342000 0.000000
18.357000 0.000000
18.372000 0.000000
18.387000 0.000000
18.402000 0.000000
18.417000 0.000000
18.432000 0.000000
18.447000 0.000000
18.462000 0.000000
18.477000 0.000000
18.492100 0.000000
18.507100 0.000000
18.522100 0.000000
18.537100 0.000000
18.552100 0.000000
18.567100 0.000000
18.582100 0.000000
18.597100 0.000000
18.612100 0.000000
18.627100 0.000000
18.642100 0.000000
18.657100 0.000000
18.672100 0.000000
18.687100 0.000000
18.702100 0.000000
18.717100 0.000000
18.732100 0.000000
18.747100 0.000000
18.762100 0.000000
18.777100 0.000000
18.792100 0.000000
18.807100 0.000000
18.822100 0.000000
18.837100 0.000000
18.852100 0.000000
18.867100 0.000000
18.882100 0.000000
18.897100 0.000000
18.912100 0.000000
18.927100 0.000000
e
