set title 'mp-569802 - Density of States'
set xlabel 'Energy (eV)'
set ylabel 'DOS (states/eV)'
set grid
set xrange [-10:10]
set yrange [0:12.153]
set xzeroaxis lt -1
set terminal png size 800,600
set output 'mp-569802_dos_gnuplot.png'
plot '-' using 1:2 with lines title 'DOS'
-6.306400 0.000000
-6.291200 0.000000
-6.276000 0.000000
-6.260900 0.000000
-6.245700 0.000000
-6.230500 0.000000
-6.215300 0.000000
-6.200200 0.000000
-6.185000 0.000000
-6.169800 0.000000
-6.154600 0.000000
-6.139500 0.000000
-6.124300 0.000000
-6.109100 0.000000
-6.094000 0.000000
-6.078800 0.000000
-6.063600 0.000000
-6.048400 0.000000
-6.033300 0.000000
-6.018100 0.000000
-6.002900 0.000000
-5.987700 0.000000
-5.972600 0.000000
-5.957400 0.000000
-5.942200 0.000000
-5.927000 0.000000
-5.911900 0.000000
-5.896700 0.000000
-5.881500 0.000000
-5.866400 0.000000
-5.851200 0.000000
-5.836000 0.000000
-5.820800 0.000000
-5.805700 0.000000
-5.790500 0.000000
-5.775300 0.000000
-5.760100 0.000000
-5.745000 0.000000
-5.729800 0.000000
-5.714600 0.000000
-5.699400 0.000000
-5.684300 0.000000
-5.669100 0.000000
-5.653900 0.000000
-5.638800 0.000000
-5.623600 0.000000
-5.608400 0.000000
-5.593200 0.000000
-5.578100 0.000000
-5.562900 0.000000
-5.547700 0.000000
-5.532500 0.000000
-5.517400 0.000000
-5.502200 0.000000
-5.487000 0.000000
-5.471800 0.000000
-5.456700 0.000000
-5.441500 0.000000
-5.426300 0.000000
-5.411200 0.000000
-5.396000 0.000000
-5.380800 0.000000
-5.365600 0.000000
-5.350500 0.000000
-5.335300 0.000000
-5.320100 0.000000
-5.304900 0.000000
-5.289800 0.000000
-5.274600 0.000000
-5.259400 0.000000
-5.244200 0.000000
-5.229100 0.000000
-5.213900 0.000000
-5.198700 0.000000
-5.183600 0.000000
-5.168400 0.000000
-5.153200 0.000000
-5.138000 0.000000
-5.122900 0.000000
-5.107700 0.000000
-5.092500 0.000000
-5.077300 0.000000
-5.062200 0.000000
-5.047000 0.000000
-5.031800 0.000000
-5.016600 0.000000
-5.001500 0.000000
-4.986300 0.000000
-4.971100 0.000000
-4.956000 0.000000
-4.940800 0.000000
-4.925600 0.000100
-4.910400 0.012500
-4.895300 0.045900
-4.880100 0.100200
-4.864900 0.168000
-4.849700 0.243200
-4.834600 0.293000
-4.819400 0.304200
-4.804200 0.303100
-4.789000 0.311100
-4.773900 0.337600
-4.758700 0.364700
-4.743500 0.392400
-4.728400 0.419100
-4.713200 0.443600
-4.698000 0.465900
-4.682800 0.486100
-4.667700 0.503600
-4.652500 0.521300
-4.637300 0.538200
-4.622100 0.551700
-4.607000 0.563900
-4.591800 0.575100
-4.576600 0.586600
-4.561400 0.600000
-4.546300 0.615200
-4.531100 0.631300
-4.515900 0.647200
-4.500800 0.661800
-4.485600 0.675600
-4.470400 0.689000
-4.455200 0.702100
-4.440100 0.715900
-4.424900 0.731600
-4.409700 0.747600
-4.394500 0.763700
-4.379400 0.779900
-4.364200 0.796200
-4.349000 0.812500
-4.333800 0.824900
-4.318700 0.834700
-4.303500 0.843800
-4.288300 0.855400
-4.273200 0.867700
-4.258000 0.880100
-4.242800 0.892700
-4.227600 0.905300
-4.212500 0.917600
-4.197300 0.929500
-4.182100 0.940800
-4.166900 0.951800
-4.151800 0.964100
-4.136600 0.977000
-4.121400 0.990000
-4.106200 1.003200
-4.091100 1.016400
-4.075900 1.029700
-4.060700 1.043200
-4.045600 1.056600
-4.030400 1.070200
-4.015200 1.083900
-4.000000 1.097800
-3.984900 1.112400
-3.969700 1.127600
-3.954500 1.142900
-3.939300 1.158300
-3.924200 1.173200
-3.909000 1.187100
-3.893800 1.200100
-3.878600 1.212700
-3.863500 1.225200
-3.848300 1.237900
-3.833100 1.251200
-3.818000 1.265000
-3.802800 1.278900
-3.787600 1.292800
-3.772400 1.306800
-3.757300 1.320900
-3.742100 1.335200
-3.726900 1.349600
-3.711700 1.364300
-3.696600 1.380900
-3.681400 1.397000
-3.666200 1.413200
-3.651000 1.429600
-3.635900 1.446100
-3.620700 1.462800
-3.605500 1.479900
-3.590400 1.497400
-3.575200 1.515900
-3.560000 1.535900
-3.544800 1.557600
-3.529700 1.580700
-3.514500 1.603700
-3.499300 1.625700
-3.484100 1.648200
-3.469000 1.670900
-3.453800 1.694100
-3.438600 1.717500
-3.423400 1.741300
-3.408300 1.766900
-3.393100 1.792600
-3.377900 1.818300
-3.362800 1.845000
-3.347600 1.872500
-3.332400 1.902300
-3.317200 1.942100
-3.302100 1.993200
-3.286900 2.055500
-3.271700 2.120900
-3.256500 2.235100
-3.241400 2.376200
-3.226200 2.463600
-3.211000 2.500500
-3.195800 2.516400
-3.180700 2.515000
-3.165500 2.537500
-3.150300 2.555700
-3.135200 2.566000
-3.120000 2.567200
-3.104800 2.562500
-3.089600 2.552600
-3.074500 2.538400
-3.059300 2.520600
-3.044100 2.501400
-3.028900 2.486100
-3.013800 2.481800
-2.998600 2.488900
-2.983400 2.497900
-2.968200 2.503500
-2.953100 2.508000
-2.937900 2.520600
-2.922700 2.542100
-2.907600 2.571100
-2.892400 2.617000
-2.877200 2.720200
-2.862000 2.860600
-2.846900 3.047600
-2.831700 3.563700
-2.816500 3.790900
-2.801300 3.375100
-2.786200 3.293900
-2.771000 3.306400
-2.755800 3.321700
-2.740600 3.393600
-2.725500 3.527100
-2.710300 3.867900
-2.695100 4.262200
-2.680000 4.739600
-2.664800 3.651900
-2.649600 3.680100
-2.634400 3.518500
-2.619300 3.236300
-2.604100 2.813700
-2.588900 2.392600
-2.573700 2.004900
-2.558600 1.875600
-2.543400 1.751600
-2.528200 1.636800
-2.513000 1.519000
-2.497900 1.414200
-2.482700 1.304200
-2.467500 1.196200
-2.452400 1.090100
-2.437200 0.998300
-2.422000 0.965500
-2.406800 0.954900
-2.391700 0.772500
-2.376500 0.585300
-2.361300 0.588600
-2.346100 1.809600
-2.331000 0.000000
-2.315800 0.000000
-2.300600 0.000000
-2.285400 0.000000
-2.270300 0.000000
-2.255100 0.000000
-2.239900 0.000000
-2.224800 0.000000
-2.209600 0.000000
-2.194400 0.000000
-2.179200 0.000000
-2.164100 0.000000
-2.148900 0.208300
-2.133700 0.257200
-2.118500 0.164200
-2.103400 0.187600
-2.088200 0.212100
-2.073000 0.237800
-2.057800 0.264500
-2.042700 0.265900
-2.027500 0.291000
-2.012300 0.316800
-1.997200 0.343400
-1.982000 0.370700
-1.966800 0.398700
-1.951600 0.427500
-1.936500 0.448100
-1.921300 0.482900
-1.906100 0.517400
-1.890900 0.551400
-1.875800 0.585000
-1.860600 0.618100
-1.845400 0.650800
-1.830200 0.683100
-1.815100 0.714900
-1.799900 0.746300
-1.784700 0.855900
-1.769600 0.912500
-1.754400 1.090800
-1.739200 1.306600
-1.724000 1.524600
-1.708900 1.744700
-1.693700 2.008100
-1.678500 2.363300
-1.663300 3.874900
-1.648200 3.026400
-1.633000 2.973200
-1.617800 2.888300
-1.602600 2.796700
-1.587500 2.824300
-1.572300 2.963500
-1.557100 3.105800
-1.542000 3.248300
-1.526800 3.253100
-1.511600 3.001800
-1.496400 2.777200
-1.481300 2.591500
-1.466100 2.454300
-1.450900 2.370700
-1.435700 2.341400
-1.420600 2.337900
-1.405400 2.349800
-1.390200 2.367200
-1.375000 2.389100
-1.359900 2.414500
-1.344700 2.440900
-1.329500 2.514800
-1.314400 2.640100
-1.299200 2.859600
-1.284000 2.928900
-1.268800 2.918300
-1.253700 2.820700
-1.238500 2.646900
-1.223300 2.633100
-1.208100 2.555800
-1.193000 2.406300
-1.177800 2.221800
-1.162600 2.135700
-1.147400 2.070600
-1.132300 2.007300
-1.117100 1.946700
-1.101900 1.888600
-1.086800 1.833100
-1.071600 1.770800
-1.056400 1.703700
-1.041200 1.657300
-1.026100 1.641000
-1.010900 1.625100
-0.995700 1.609700
-0.980500 1.594600
-0.965400 1.579800
-0.950200 1.565000
-0.935000 1.550500
-0.919800 1.536000
-0.904700 1.521600
-0.889500 1.507400
-0.874300 1.493200
-0.859200 1.479100
-0.844000 1.465000
-0.828800 1.451100
-0.813600 1.437100
-0.798500 1.423100
-0.783300 1.409000
-0.768100 1.394900
-0.752900 1.380900
-0.737800 1.367100
-0.722600 1.353300
-0.707400 1.339600
-0.692200 1.325200
-0.677100 1.310300
-0.661900 1.295400
-0.646700 1.280400
-0.631600 1.265400
-0.616400 1.247900
-0.601200 1.227700
-0.586000 1.208100
-0.570900 1.190400
-0.555700 1.178100
-0.540500 1.170700
-0.525300 1.163300
-0.510200 1.155900
-0.495000 1.141100
-0.479800 1.126900
-0.464600 1.116900
-0.449500 1.107100
-0.434300 1.097300
-0.419100 1.087600
-0.404000 1.078800
-0.388800 1.070200
-0.373600 1.061700
-0.358400 1.053100
-0.343300 1.044600
-0.328100 1.036100
-0.312900 1.027600
-0.297700 1.019500
-0.282600 1.011300
-0.267400 1.003200
-0.252200 0.995000
-0.237000 0.986700
-0.221900 0.978400
-0.206700 0.970000
-0.191500 0.961600
-0.176400 0.952900
-0.161200 0.943900
-0.146000 0.935000
-0.130800 0.926200
-0.115700 0.917400
-0.100500 0.908800
-0.085300 0.900100
-0.070100 0.891600
-0.055000 0.883100
-0.039800 0.874900
-0.024600 0.866700
-0.009400 0.858700
0.005700 0.850500
0.020900 0.842300
0.036100 0.833900
0.051200 0.824000
0.066400 0.814800
0.081600 0.809100
0.096800 0.803100
0.111900 0.797000
0.127100 0.790800
0.142300 0.784500
0.157500 0.778100
0.172600 0.771500
0.187800 0.764800
0.203000 0.758100
0.218200 0.751200
0.233300 0.744200
0.248500 0.737100
0.263700 0.730000
0.278800 0.722700
0.294000 0.715300
0.309200 0.708100
0.324400 0.701300
0.339500 0.694700
0.354700 0.688100
0.369900 0.681600
0.385100 0.675200
0.400200 1.215200
0.415400 0.983600
0.430600 1.044200
0.445800 1.107800
0.460900 1.174500
0.476100 1.205900
0.491300 1.257300
0.506400 1.321200
0.521600 1.387400
0.536800 1.456100
0.552000 1.527200
0.567100 1.600800
0.582300 1.749200
0.597500 1.888600
0.612700 2.028600
0.627800 2.011200
0.643000 2.048200
0.658200 2.078200
0.673400 2.104600
0.688500 2.127200
0.703700 2.230800
0.718900 2.269200
0.734000 2.301100
0.749200 2.179500
0.764400 2.169000
0.779600 2.163400
0.794700 2.160100
0.809900 2.158600
0.825100 2.159100
0.840300 2.156900
0.855400 2.158200
0.870600 2.173600
0.885800 2.190500
0.901000 2.206800
0.916100 2.222600
0.931300 2.241900
0.946500 2.269800
0.961600 2.285100
0.976800 2.299100
0.992000 2.310800
1.007200 2.318800
1.022300 2.325000
1.037500 2.331700
1.052700 2.338800
1.067900 2.346900
1.083000 2.359800
1.098200 2.375000
1.113400 2.389100
1.128600 2.403400
1.143700 2.419600
1.158900 2.439800
1.174100 2.461600
1.189200 2.483700
1.204400 2.503100
1.219600 2.524400
1.234800 2.548600
1.249900 2.606400
1.265100 2.617400
1.280300 2.628900
1.295500 2.640900
1.310600 2.653400
1.325800 2.666400
1.341000 2.678900
1.356200 2.688400
1.371300 2.694800
1.386500 2.702000
1.401700 2.710500
1.416800 2.720200
1.432000 2.730900
1.447200 2.741900
1.462400 2.753300
1.477500 2.765900
1.492700 2.779900
1.507900 2.790700
1.523100 2.801300
1.538200 2.835800
1.553400 2.921500
1.568600 2.970500
1.583800 3.012600
1.598900 3.051200
1.614100 3.086900
1.629300 3.124800
1.644400 3.165500
1.659600 3.208100
1.674800 3.250600
1.690000 3.295700
1.705100 3.345300
1.720300 3.403500
1.735500 3.470300
1.750700 3.545800
1.765800 3.592800
1.781000 3.605300
1.796200 3.587700
1.811400 3.559900
1.826500 3.517800
1.841700 3.451000
1.856900 3.369900
1.872000 3.309100
1.887200 3.249700
1.902400 3.157800
1.917600 3.000300
1.932700 2.926800
1.947900 2.820600
1.963100 2.705900
1.978300 2.506100
1.993400 2.344400
2.008600 2.205500
2.023800 2.076500
2.039000 2.055000
2.054100 2.125100
2.069300 2.213200
2.084500 2.292400
2.099600 2.354100
2.114800 2.420200
2.130000 2.507200
2.145200 3.371000
2.160300 3.160500
2.175500 2.729500
2.190700 2.490800
2.205900 2.276700
2.221000 2.079500
2.236200 1.930900
2.251400 1.874600
2.266600 2.111900
2.281700 2.389300
2.296900 2.614800
2.312100 2.833800
2.327200 2.830800
2.342400 2.625700
2.357600 2.493200
2.372800 2.376400
2.387900 2.273800
2.403100 2.190200
2.418300 2.239700
2.433500 2.315700
2.448600 2.403700
2.463800 2.503700
2.479000 2.745600
2.494200 2.877000
2.509300 2.913800
2.524500 2.935200
2.539700 2.948500
2.554800 2.912700
2.570000 2.872200
2.585200 2.838200
2.600400 2.808500
2.615500 2.782200
2.630700 2.806200
2.645900 2.868000
2.661100 2.905800
2.676200 2.924000
2.691400 2.960000
2.706600 3.050100
2.721800 3.112700
2.736900 3.181000
2.752100 3.291400
2.767300 3.425500
2.782400 3.565300
2.797600 3.720000
2.812800 3.873000
2.828000 3.971600
2.843100 3.991600
2.858300 4.024300
2.873500 4.046900
2.888700 4.030100
2.903800 4.029800
2.919000 4.047000
2.934200 4.088700
2.949400 4.407600
2.964500 4.583600
2.979700 4.610300
2.994900 4.497500
3.010000 4.395100
3.025200 4.359800
3.040400 4.620100
3.055600 4.581100
3.070700 4.335300
3.085900 4.160700
3.101100 3.939200
3.116300 3.781800
3.131400 3.779300
3.146600 4.222400
3.161800 4.074200
3.177000 3.936400
3.192100 3.670200
3.207300 3.726800
3.222500 3.806800
3.237600 3.909600
3.252800 4.134100
3.268000 4.415100
3.283200 4.683700
3.298300 4.895300
3.313500 5.029700
3.328700 4.907400
3.343900 4.905000
3.359000 4.761300
3.374200 4.580900
3.389400 4.435400
3.404600 4.326500
3.419700 4.201900
3.434900 4.007200
3.450100 3.941500
3.465200 3.896400
3.480400 3.867700
3.495600 3.828900
3.510800 3.794400
3.525900 3.785400
3.541100 3.618700
3.556300 3.460500
3.571500 3.487700
3.586600 3.636400
3.601800 3.803100
3.617000 3.811900
3.632200 3.774400
3.647300 3.687000
3.662500 3.570200
3.677700 3.582300
3.692800 3.660100
3.708000 3.792400
3.723200 3.856400
3.738400 3.496900
3.753500 3.556300
3.768700 3.645800
3.783900 3.774400
3.799100 3.888600
3.814200 3.962500
3.829400 4.075400
3.844600 4.116200
3.859800 4.159200
3.874900 4.204300
3.890100 4.265800
3.905300 4.319000
3.920400 5.473800
3.935600 5.194500
3.950800 5.386500
3.966000 5.568800
3.981100 5.631500
3.996300 5.648500
4.011500 5.935000
4.026700 6.474100
4.041800 6.725300
4.057000 6.915900
4.072200 7.236700
4.087400 7.539700
4.102500 8.039300
4.117700 9.585100
4.132900 10.536300
4.148000 10.241100
4.163200 9.109100
4.178400 8.516900
4.193600 8.238900
4.208700 8.007200
4.223900 7.787700
4.239100 7.612300
4.254300 7.626800
4.269400 7.994300
4.284600 8.078000
4.299800 7.723400
4.315000 6.146100
4.330100 5.998300
4.345300 5.323000
4.360500 5.967500
4.375600 6.412900
4.390800 7.002600
4.406000 7.518400
4.421200 8.098400
4.436300 8.605400
4.451500 9.900300
4.466700 9.266700
4.481900 9.453300
4.497000 9.505700
4.512200 9.690300
4.527400 9.921900
4.542600 9.870700
4.557700 9.382000
4.572900 8.502700
4.588100 8.218600
4.603200 7.813200
4.618400 7.585700
4.633600 7.880300
4.648800 8.615600
4.663900 8.896100
4.679100 9.053100
4.694300 8.897700
4.709500 8.917400
4.724600 9.188500
4.739800 9.626700
4.755000 10.715600
4.770200 11.047800
4.785300 9.914900
4.800500 7.889800
4.815700 6.998200
4.830800 7.110200
4.846000 8.241700
4.861200 10.211000
4.876400 10.634900
4.891500 10.526200
4.906700 8.404300
4.921900 6.618400
4.937100 5.050500
4.952200 4.092200
4.967400 3.665800
4.982600 3.843600
4.997800 4.097700
5.012900 4.788800
5.028100 5.737800
5.043300 6.030100
5.058400 5.282600
5.073600 4.893500
5.088800 4.575100
5.104000 4.330900
5.119100 4.231800
5.134300 4.304700
5.149500 4.674600
5.164700 4.807700
5.179800 5.579000
5.195000 6.080100
5.210200 6.038500
5.225400 6.186100
5.240500 6.212600
5.255700 5.978300
5.270900 6.029500
5.286000 5.030600
5.301200 4.626500
5.316400 4.674100
5.331600 4.519400
5.346700 4.237000
5.361900 4.040400
5.377100 3.881700
5.392300 3.982300
5.407400 4.221900
5.422600 9.348000
5.437800 6.357000
5.453000 6.134800
5.468100 5.404900
5.483300 4.882900
5.498500 4.481300
5.513600 4.199700
5.528800 4.305700
5.544000 4.386800
5.559200 4.447600
5.574300 4.483300
5.589500 4.494700
5.604700 4.520900
5.619900 4.886300
5.635000 5.694100
5.650200 6.414500
5.665400 6.372300
5.680600 7.751900
5.695700 8.066300
5.710900 7.980800
5.726100 7.442700
5.741200 6.847900
5.756400 6.652000
5.771600 6.157100
5.786800 5.394000
5.801900 4.718100
5.817100 4.304300
5.832300 4.127700
5.847500 4.013300
5.862600 3.994200
5.877800 4.022800
5.893000 4.083800
5.908200 4.277200
5.923300 4.582900
5.938500 4.581500
5.953700 4.553200
5.968800 4.389000
5.984000 4.308600
5.999200 4.242500
6.014400 4.172100
6.029500 4.106800
6.044700 4.054100
6.059900 4.063800
6.075100 4.043200
6.090200 4.075300
6.105400 3.980200
6.120600 3.738900
6.135800 3.660200
6.150900 3.576900
6.166100 4.983400
6.181300 5.114600
6.196400 5.297400
6.211600 5.130300
6.226800 5.109800
6.242000 5.096100
6.257100 5.098000
6.272300 5.207100
6.287500 5.427200
6.302700 5.842800
6.317800 6.405700
6.333000 6.938100
6.348200 8.045700
6.363400 7.753300
6.378500 6.942300
6.393700 6.565100
6.408900 6.198100
6.424000 6.088700
6.439200 5.993500
6.454400 6.057300
6.469600 6.738500
6.484700 6.190000
6.499900 5.496900
6.515100 5.148300
6.530300 4.892000
6.545400 5.433500
6.560600 5.814100
6.575800 5.732900
6.591000 5.818300
6.606100 5.837400
6.621300 5.226100
6.636500 4.834400
6.651600 4.524500
6.666800 4.366600
6.682000 4.183000
6.697200 3.673500
6.712300 2.743300
6.727500 2.571500
6.742700 2.408500
6.757900 2.241400
6.773000 2.069900
6.788200 1.750600
6.803400 1.654800
6.818600 1.911800
6.833700 2.775900
6.848900 3.330600
6.864100 3.725200
6.879200 4.533000
6.894400 4.518200
6.909600 4.810100
6.924800 5.023000
6.939900 5.134400
6.955100 5.365500
6.970300 5.817800
6.985500 6.483000
7.000600 7.002000
7.015800 6.585700
7.031000 5.963600
7.046200 5.136100
7.061300 4.279700
7.076500 3.826700
7.091700 3.481500
7.106800 3.184000
7.122000 3.002400
7.137200 2.868900
7.152400 2.799700
7.167500 2.759400
7.182700 2.722700
7.197900 2.689600
7.213100 2.666800
7.228200 2.666800
7.243400 2.706000
7.258600 2.736800
7.273800 2.758800
7.288900 2.776500
7.304100 2.765600
7.319300 2.738300
7.334400 2.836100
7.349600 2.939400
7.364800 3.011900
7.380000 3.117200
7.395100 3.255300
7.410300 3.424000
7.425500 3.623200
7.440700 4.101700
7.455800 3.692600
7.471000 3.292300
7.486200 3.161100
7.501400 3.164400
7.516500 3.200800
7.531700 3.262400
7.546900 3.413300
7.562000 3.149600
7.577200 3.077800
7.592400 3.002200
7.607600 2.863100
7.622700 2.827700
7.637900 2.803100
7.653100 2.964800
7.668300 3.170300
7.683400 2.940700
7.698600 2.627900
7.713800 2.234500
7.729000 2.011900
7.744100 1.736400
7.759300 1.674300
7.774500 1.617200
7.789600 1.565300
7.804800 1.517100
7.820000 1.470500
7.835200 1.426000
7.850300 1.383500
7.865500 1.343100
7.880700 1.293300
7.895900 1.235500
7.911000 1.193800
7.926200 1.154700
7.941400 1.116400
7.956600 1.075900
7.971700 1.036700
7.986900 0.999600
8.002100 0.964400
8.017200 0.931300
8.032400 0.900100
8.047600 0.870900
8.062800 0.843700
8.077900 0.818400
8.093100 0.795200
8.108300 0.777400
8.123500 0.762100
8.138600 0.747100
8.153800 0.732600
8.169000 0.718500
8.184200 0.705000
8.199300 0.691900
8.214500 0.679400
8.229700 0.667300
8.244800 0.655700
8.260000 0.644700
8.275200 0.634100
8.290400 0.624700
8.305500 0.618700
8.320700 0.613200
8.335900 0.609500
8.351100 0.609300
8.366200 0.609400
8.381400 0.609700
8.396600 0.610400
8.411800 0.611600
8.426900 0.614700
8.442100 0.619600
8.457300 0.626600
8.472400 0.635500
8.487600 0.646400
8.502800 0.673300
8.518000 0.752800
8.533100 0.853600
8.548300 0.855900
8.563500 0.845500
8.578700 0.921700
8.593800 1.105500
8.609000 1.443000
8.624200 1.761700
8.639400 1.793600
8.654500 1.572700
8.669700 1.300800
8.684900 0.859800
8.700000 0.549100
8.715200 0.394100
8.730400 1.942100
8.745600 3.875700
8.760700 4.031200
8.775900 5.410000
8.791100 6.134600
8.806300 6.652100
8.821400 6.744600
8.836600 6.753700
8.851800 7.460700
8.867000 6.262200
8.882100 6.001400
8.897300 5.867300
8.912500 6.159400
8.927600 5.954200
8.942800 5.921000
8.958000 6.022200
8.973200 6.319200
8.988300 6.663000
9.003500 6.920000
9.018700 7.153100
9.033900 7.390700
9.049000 7.633000
9.064200 8.226600
9.079400 8.167000
9.094600 7.478600
9.109700 7.123400
9.124900 6.883900
9.140100 6.481400
9.155300 6.168900
9.170400 5.573300
9.185600 5.234800
9.200800 4.982800
9.215900 4.738700
9.231100 4.528400
9.246300 4.299600
9.261500 4.032400
9.276600 3.699000
9.291800 3.393900
9.307000 3.015800
9.322200 2.637800
9.337300 2.617400
9.352500 2.558200
9.367700 2.510800
9.382900 2.473800
9.398000 2.446200
9.413200 2.427700
9.428400 2.418400
9.443500 2.419700
9.458700 2.435700
9.473900 2.461900
9.489100 2.489100
9.504200 2.515200
9.519400 2.581600
9.534600 2.662400
9.549800 2.785700
9.564900 3.082900
9.580100 3.594500
9.595300 3.950300
9.610500 3.932300
9.625600 4.021700
9.640800 3.833600
9.656000 3.589300
9.671100 3.517100
9.686300 3.488800
9.701500 3.441500
9.716700 3.438200
9.731800 3.438400
9.747000 3.419900
9.762200 3.406300
9.777400 3.392500
9.792500 3.394600
9.807700 3.392500
9.822900 3.382300
9.838100 3.195400
9.853200 3.297200
9.868400 3.158200
9.883600 3.020900
9.898700 3.282200
9.913900 4.653700
9.929100 4.674600
9.944300 4.658700
9.959400 4.796200
9.974600 4.949800
9.989800 5.078600
10.005000 5.120200
10.020100 5.742000
10.035300 5.928600
10.050500 5.810800
10.065700 5.716300
10.080800 5.710600
10.096000 5.146700
10.111200 5.167600
10.126300 5.202000
10.141500 5.250100
10.156700 5.284200
10.171900 5.314000
10.187000 5.328200
10.202200 5.322700
10.217400 5.292200
10.232600 5.219600
10.247700 5.126600
10.262900 5.015000
10.278100 4.891300
10.293300 4.826000
10.308400 4.734700
10.323600 4.642200
10.338800 4.569000
10.353900 4.721500
10.369100 4.659500
10.384300 4.338800
10.399500 4.293500
10.414600 4.149400
10.429800 4.008000
10.445000 3.863300
10.460200 3.832400
10.475300 3.834900
10.490500 3.827700
10.505700 3.850300
10.520900 3.874400
10.536000 3.875900
10.551200 3.894200
10.566400 3.914300
10.581500 3.938800
10.596700 3.972400
10.611900 4.043700
10.627100 4.082600
10.642200 4.152900
10.657400 4.129000
10.672600 4.093900
10.687800 4.063500
10.702900 4.030100
10.718100 3.998700
10.733300 3.966700
10.748500 4.265100
10.763600 4.086700
10.778800 3.897700
10.794000 3.758900
10.809100 3.725400
10.824300 3.730500
10.839500 3.762200
10.854700 3.841300
10.869800 3.967700
10.885000 4.114500
10.900200 4.292000
10.915400 4.500100
10.930500 4.685800
10.945700 4.755000
10.960900 4.786100
10.976100 4.857100
10.991200 5.004400
11.006400 4.925800
11.021600 5.037700
11.036700 5.153900
11.051900 5.273900
11.067100 5.399000
11.082300 5.664800
11.097400 5.759700
11.112600 5.473900
11.127800 5.387000
11.143000 4.966100
11.158100 4.747400
11.173300 4.570300
11.188500 4.440500
11.203700 4.312800
11.218800 4.038600
11.234000 3.635500
11.249200 3.291700
11.264300 3.013300
11.279500 2.943900
11.294700 2.898600
11.309900 2.855400
11.325000 2.829500
11.340200 2.820700
11.355400 2.828900
11.370600 2.844700
11.385700 2.859400
11.400900 2.910000
11.416100 2.948900
11.431300 2.924400
11.446400 2.854000
11.461600 2.760000
11.476800 2.643000
11.491900 2.578000
11.507100 2.520600
11.522300 2.696100
11.537500 2.816900
11.552600 2.959700
11.567800 3.204300
11.583000 3.603000
11.598200 3.778800
11.613300 3.822100
11.628500 3.851000
11.643700 3.970500
11.658900 4.199600
11.674000 4.340900
11.689200 4.429400
11.704400 4.538900
11.719500 4.683200
11.734700 4.738600
11.749900 4.750700
11.765100 4.869900
11.780200 5.007800
11.795400 5.164400
11.810600 5.419400
11.825800 5.655000
11.840900 5.042100
11.856100 4.890000
11.871300 4.794500
11.886500 4.839200
11.901600 4.823100
11.916800 4.737100
11.932000 4.629100
11.947100 4.394000
11.962300 4.252100
11.977500 4.161300
11.992700 3.981900
12.007800 3.608700
12.023000 2.977300
12.038200 2.824400
12.053400 2.760800
12.068500 2.700100
12.083700 2.645200
12.098900 2.619500
12.114100 2.696700
12.129200 2.787500
12.144400 2.906500
12.159600 3.012100
12.174700 2.976700
12.189900 2.891800
12.205100 3.104700
12.220300 3.334400
12.235400 3.580700
12.250600 3.843600
12.265800 4.762100
12.281000 4.647100
12.296100 4.694100
12.311300 4.691200
12.326500 4.652600
12.341700 4.567200
12.356800 4.461000
12.372000 4.280400
12.387200 4.135400
12.402300 4.494400
12.417500 4.808900
12.432700 5.077400
12.447900 4.951800
12.463000 4.809100
12.478200 4.688900
12.493400 4.618800
12.508600 4.560400
12.523700 4.506500
12.538900 4.513900
12.554100 4.475300
12.569300 4.442800
12.584400 4.438000
12.599600 4.442500
12.614800 4.473100
12.629900 4.530300
12.645100 4.988800
12.660300 5.018300
12.675500 4.736300
12.690600 4.507800
12.705800 4.405500
12.721000 4.363800
12.736200 4.324100
12.751300 4.380100
12.766500 4.308300
12.781700 4.225300
12.796900 4.147500
12.812000 4.074800
12.827200 4.215500
12.842400 4.071400
12.857500 3.769300
12.872700 3.942800
12.887900 3.881100
12.903100 3.731300
12.918200 3.789500
12.933400 3.627800
12.948600 3.431400
12.963800 3.285300
12.978900 3.151400
12.994100 3.008300
13.009300 2.892900
13.024500 2.832300
13.039600 2.806800
13.054800 3.306000
13.070000 3.155000
13.085100 3.320600
13.100300 3.475400
13.115500 3.611700
13.130700 3.731900
13.145800 3.885100
13.161000 4.026200
13.176200 4.096500
13.191400 4.038600
13.206500 4.285600
13.221700 4.603300
13.236900 5.034400
13.252100 5.466300
13.267200 5.739700
13.282400 5.817700
13.297600 5.973800
13.312700 5.138000
13.327900 4.559800
13.343100 4.036400
13.358300 3.515600
13.373400 3.105600
13.388600 2.833000
13.403800 2.611800
13.419000 2.364300
13.434100 2.029500
13.449300 1.806800
13.464500 1.695300
13.479700 1.635700
13.494800 1.611500
13.510000 1.623500
13.525200 1.671400
13.540300 1.746700
13.555500 1.977400
13.570700 2.170900
13.585900 2.337700
13.601000 2.481300
13.616200 2.590600
13.631400 2.603200
13.646600 2.585600
13.661700 2.602000
13.676900 2.635200
13.692100 2.687400
13.707300 2.747400
13.722400 2.812300
13.737600 2.897900
13.752800 2.997400
13.767900 3.108000
13.783100 3.233900
13.798300 3.384200
13.813500 3.572900
13.828600 3.831700
13.843800 4.185900
13.859000 4.482500
13.874200 4.749100
13.889300 5.006600
13.904500 5.241100
13.919700 5.422800
13.934900 5.675800
13.950000 5.755500
13.965200 5.675100
13.980400 5.499000
13.995500 5.345200
14.010700 5.200500
14.025900 5.064400
14.041100 4.952600
14.056200 4.882500
14.071400 4.812200
14.086600 4.751900
14.101800 4.683300
14.116900 4.678500
14.132100 4.711500
14.147300 4.738500
14.162500 4.766000
14.177600 4.805900
14.192800 4.847800
14.208000 4.878400
14.223100 4.914800
14.238300 4.971500
14.253500 4.991200
14.268700 4.966200
14.283800 4.927300
14.299000 4.609600
14.314200 4.495700
14.329400 4.410600
14.344500 4.351900
14.359700 4.309100
14.374900 4.019800
14.390100 3.715400
14.405200 3.434400
14.420400 3.193900
14.435600 3.185400
14.450700 3.122500
14.465900 3.095800
14.481100 3.429700
14.496300 2.859900
14.511400 3.275800
14.526600 3.818600
14.541800 4.002800
14.557000 3.922400
14.572100 3.862700
14.587300 2.979500
14.602500 2.739200
14.617700 2.477900
14.632800 2.382600
14.648000 2.575100
14.663200 2.870400
14.678300 3.166100
14.693500 3.753700
14.708700 4.180100
14.723900 4.491100
14.739000 4.700500
14.754200 4.747600
14.769400 4.557300
14.784600 4.597500
14.799700 4.684300
14.814900 4.900400
14.830100 4.831300
14.845300 4.674300
14.860400 4.664700
14.875600 4.666600
14.890800 4.676900
14.905900 4.693900
14.921100 4.738200
14.936300 5.024200
14.951500 5.744800
14.966600 6.334400
14.981800 6.432600
14.997000 6.237900
15.012200 6.068600
15.027300 5.862200
15.042500 5.752100
15.057700 5.558800
15.072900 5.287900
15.088000 4.946400
15.103200 4.762200
15.118400 4.589500
15.133500 4.503400
15.148700 4.401600
15.163900 4.238400
15.179100 4.166600
15.194200 4.302400
15.209400 4.186700
15.224600 4.149500
15.239800 4.164700
15.254900 4.224100
15.270100 4.325100
15.285300 4.493200
15.300500 4.678800
15.315600 4.834200
15.330800 4.896000
15.346000 5.211100
15.361100 5.326500
15.376300 4.606100
15.391500 4.701200
15.406700 4.940000
15.421800 4.705400
15.437000 4.580400
15.452200 4.180700
15.467400 3.928500
15.482500 3.501300
15.497700 3.268000
15.512900 3.251400
15.528100 3.517400
15.543200 3.839600
15.558400 4.093400
15.573600 4.191000
15.588700 4.128500
15.603900 4.105300
15.619100 4.124000
15.634300 4.169300
15.649400 4.246200
15.664600 4.346700
15.679800 4.493200
15.695000 4.582500
15.710100 4.620000
15.725300 4.642200
15.740500 4.656900
15.755700 4.668800
15.770800 4.677000
15.786000 4.655000
15.801200 4.612500
15.816300 4.604200
15.831500 4.584800
15.846700 4.465400
15.861900 4.330500
15.877000 4.220300
15.892200 4.123300
15.907400 4.033000
15.922600 3.949600
15.937700 3.878500
15.952900 3.904600
15.968100 3.896000
15.983300 4.579900
15.998400 4.353500
16.013600 5.122200
16.028800 4.379900
16.043900 4.320100
16.059100 4.220300
16.074300 4.109500
16.089500 4.437900
16.104600 4.556700
16.119800 4.384400
16.135000 4.066700
16.150200 3.958200
16.165300 3.941600
16.180500 3.853200
16.195700 3.737700
16.210900 3.634700
16.226000 3.562700
16.241200 3.534700
16.256400 3.572200
16.271500 3.629700
16.286700 3.642400
16.301900 3.862300
16.317100 4.167300
16.332200 4.290800
16.347400 4.303900
16.362600 4.386000
16.377800 4.387100
16.392900 4.340400
16.408100 4.403700
16.423300 4.443000
16.438500 4.752900
16.453600 4.800900
16.468800 4.663700
16.484000 4.638700
16.499100 4.597800
16.514300 4.546900
16.529500 4.612300
16.544700 4.650100
16.559800 4.696000
16.575000 4.657300
16.590200 4.676500
16.605400 4.640900
16.620500 4.764900
16.635700 4.850000
16.650900 4.285500
16.666100 3.978300
16.681200 3.738100
16.696400 3.517700
16.711600 3.326700
16.726700 3.161100
16.741900 2.950300
16.757100 2.844500
16.772300 2.806800
16.787400 2.793600
16.802600 2.808600
16.817800 2.830500
16.833000 2.861800
16.848100 2.906000
16.863300 2.964900
16.878500 3.034100
16.893700 3.307800
16.908800 3.483400
16.924000 3.594300
16.939200 3.888600
16.954300 4.055000
16.969500 4.225400
16.984700 4.357900
16.999900 4.466100
17.015000 4.548000
17.030200 4.608300
17.045400 4.717700
17.060600 5.159600
17.075700 4.279700
17.090900 4.169500
17.106100 4.043900
17.121300 3.896700
17.136400 3.716600
17.151600 3.532300
17.166800 3.401200
17.181900 3.333600
17.197100 3.318000
17.212300 3.298300
17.227500 3.312100
17.242600 3.374400
17.257800 3.509500
17.273000 3.546300
17.288200 3.470800
17.303300 3.529200
17.318500 3.685100
17.333700 3.894500
17.348900 4.192100
17.364000 4.587800
17.379200 4.921100
17.394400 5.190300
17.409500 5.440600
17.424700 5.637300
17.439900 5.616800
17.455100 5.697900
17.470200 5.683100
17.485400 5.711300
17.500600 5.707700
17.515800 5.769000
17.530900 5.759000
17.546100 5.704900
17.561300 5.573900
17.576500 5.399600
17.591600 5.253800
17.606800 5.533300
17.622000 5.287100
17.637100 5.177400
17.652300 5.060000
17.667500 5.038600
17.682700 5.047400
17.697800 5.083300
17.713000 5.145300
17.728200 5.237300
17.743400 5.374100
17.758500 5.674800
17.773700 5.711000
17.788900 5.485900
17.804100 5.249900
17.819200 5.071500
17.834400 4.914400
17.849600 4.775600
17.864700 4.609400
17.879900 4.473200
17.895100 4.349600
17.910300 4.038200
17.925400 4.016100
17.940600 4.089500
17.955800 3.756700
17.971000 3.522900
17.986100 3.440000
18.001300 3.331100
18.016500 3.186200
18.031700 3.144200
18.046800 3.145400
18.062000 3.157700
18.077200 3.169800
18.092300 3.181300
18.107500 3.198900
18.122700 3.223200
18.137900 3.322700
18.153000 3.457600
18.168200 3.314900
18.183400 2.906900
18.198600 3.108000
18.213700 3.264900
18.228900 3.384700
18.244100 3.519300
18.259300 3.670900
18.274400 3.821800
18.289600 3.914500
18.304800 3.978300
18.319900 4.070800
18.335100 4.233100
18.350300 4.366100
18.365500 4.517300
18.380600 4.714500
18.395800 4.987700
18.411000 5.335600
18.426200 4.649500
18.441300 4.664700
18.456500 4.651100
18.471700 4.609800
18.486900 4.330500
18.502000 4.210500
18.517200 4.053400
18.532400 4.108600
18.547500 4.426200
18.562700 4.929600
18.577900 4.647500
18.593100 4.670800
18.608200 4.641200
18.623400 4.699700
18.638600 4.795600
18.653800 5.017400
18.668900 5.903400
18.684100 6.286500
18.699300 5.967400
18.714500 6.073100
18.729600 5.865700
18.744800 5.263500
18.760000 5.131700
18.775100 5.129500
18.790300 4.969200
18.805500 4.838300
18.820700 4.781500
18.835800 4.727000
18.851000 4.689900
18.866200 4.661400
18.881400 4.639600
18.896500 4.663700
18.911700 4.698000
18.926900 4.789200
18.942100 4.917000
18.957200 5.159100
18.972400 5.271700
18.987600 5.144600
19.002700 4.972800
19.017900 4.797500
19.033100 4.641600
19.048300 4.509800
19.063400 4.393900
19.078600 4.399800
19.093800 4.641100
19.109000 5.381000
19.124100 5.052200
19.139300 4.155800
19.154500 3.988600
19.169700 3.886000
19.184800 3.799000
19.200000 3.790800
19.215200 3.788000
19.230300 3.803500
19.245500 3.833800
19.260700 3.884600
19.275900 3.944000
19.291000 4.010400
19.306200 4.076300
19.321400 4.128300
19.336600 4.201200
19.351700 4.363200
19.366900 4.610200
19.382100 4.546500
19.397300 4.523000
19.412400 4.470100
19.427600 4.402000
19.442800 4.296600
19.457900 4.192300
19.473100 4.082800
19.488300 3.972300
19.503500 3.885900
19.518600 3.846200
19.533800 3.743800
19.549000 3.897700
19.564200 3.719800
19.579300 3.644900
19.594500 3.604700
19.609700 3.685800
19.624900 3.682900
19.640000 3.739800
19.655200 3.663000
19.670400 3.679100
19.685500 4.221200
19.700700 3.992200
19.715900 3.995900
19.731100 4.018500
19.746200 4.128300
19.761400 4.256200
19.776600 4.376300
19.791800 4.467000
19.806900 4.557800
19.822100 4.697500
19.837300 4.803500
19.852500 4.760600
19.867600 4.695400
19.882800 4.633300
19.898000 4.577400
19.913100 4.689100
19.928300 4.626100
19.943500 4.700200
19.958700 4.574900
19.973800 4.353700
19.989000 4.202400
20.004200 4.163000
20.019400 4.134700
20.034500 4.067800
20.049700 4.041200
20.064900 4.088000
20.080100 4.390900
20.095200 4.861300
20.110400 3.759500
20.125600 3.673700
20.140700 3.635300
20.155900 3.638300
20.171100 3.688100
20.186300 3.742200
20.201400 3.824400
20.216600 3.910100
20.231800 3.995000
20.247000 4.081000
20.262100 4.172300
20.277300 4.229000
20.292500 4.244900
20.307700 4.245200
20.322800 4.242300
20.338000 4.219900
20.353200 4.187400
20.368300 4.147800
20.383500 4.171800
20.398700 4.241900
20.413900 4.348600
20.429000 4.516200
20.444200 4.678400
20.459400 4.845300
20.474600 5.011200
20.489700 5.119400
20.504900 5.232000
20.520100 5.333500
20.535300 5.377900
20.550400 5.352800
20.565600 5.429300
20.580800 5.320700
20.595900 5.085500
20.611100 4.702700
20.626300 4.501900
20.641500 4.385300
20.656600 4.194800
20.671800 3.928800
20.687000 3.708800
20.702200 3.551900
20.717300 3.432100
20.732500 3.346800
20.747700 3.336100
20.762900 3.373800
20.778000 3.435200
20.793200 3.520400
20.808400 3.632100
20.823500 3.752200
20.838700 3.905000
20.853900 4.119500
20.869100 4.384300
20.884200 3.862400
20.899400 4.074500
20.914600 3.629300
20.929800 3.278100
20.944900 3.136600
20.960100 3.238400
20.975300 3.415300
20.990500 3.560300
21.005600 3.724300
21.020800 3.903100
21.036000 4.038600
21.051100 4.066100
21.066300 4.107500
21.081500 4.190100
21.096700 4.271000
21.111800 4.354500
21.127000 4.439900
21.142200 4.803000
21.157400 5.409200
21.172500 5.622200
21.187700 5.818100
21.202900 6.210400
21.218100 6.243500
21.233200 6.002600
21.248400 5.814200
21.263600 5.749400
21.278700 5.659000
21.293900 5.540800
21.309100 5.282800
21.324300 4.987700
21.339400 4.757600
21.354600 4.196100
21.369800 4.018500
21.385000 3.896800
21.400100 3.778000
21.415300 3.687200
21.430500 3.628800
21.445700 3.603300
21.460800 3.595700
21.476000 3.622700
21.491200 3.466200
21.506300 3.326200
21.521500 3.261500
21.536700 3.186200
21.551900 3.082700
21.567000 2.897800
21.582200 2.776400
21.597400 2.669100
21.612600 2.577900
21.627700 2.500800
21.642900 2.436000
21.658100 2.383400
21.673300 2.343000
21.688400 2.315500
21.703600 2.294300
21.718800 2.237000
21.733900 2.176900
21.749100 2.129300
21.764300 2.091200
21.779500 2.057600
21.794600 2.026900
21.809800 1.998700
21.825000 1.972800
21.840200 1.947400
21.855300 1.922300
21.870500 1.897200
21.885700 1.873300
21.900900 1.850600
21.916000 1.828000
21.931200 1.806300
21.946400 1.789300
21.961500 1.780800
21.976700 1.783600
21.991900 1.797900
22.007100 1.722200
22.022200 1.626100
22.037400 1.536100
22.052600 1.513500
22.067800 1.503200
22.082900 1.494000
22.098100 1.483800
22.113300 1.474300
22.128500 1.465600
22.143600 1.452600
22.158800 1.392200
22.174000 1.307400
22.189100 1.233600
22.204300 1.164400
22.219500 1.107000
22.234700 1.055600
22.249800 1.005400
22.265000 0.956200
22.280200 0.908000
22.295400 0.860900
22.310500 0.814500
22.325700 0.768500
22.340900 0.723500
22.356100 0.677300
22.371200 0.629900
22.386400 0.583600
22.401600 0.538500
22.416700 0.493900
22.431900 0.446300
22.447100 0.393200
22.462300 0.334400
22.477400 0.284700
22.492600 0.246500
22.507800 0.208200
22.523000 0.171400
22.538100 0.136200
22.553300 0.105100
22.568500 0.079300
22.583700 0.042100
22.598800 0.015600
22.614000 0.006500
22.629200 0.003000
22.644300 0.000800
22.659500 0.000000
22.674700 0.000000
22.689900 0.000000
22.705000 0.000000
22.720200 0.000000
22.735400 0.000000
22.750600 0.000000
22.765700 0.000000
22.780900 0.000000
22.796100 0.000000
22.811300 0.000000
22.826400 0.000000
22.841600 0.000000
22.856800 0.000000
22.871900 0.000000
22.887100 0.000000
22.902300 0.000000
22.917500 0.000000
22.932600 0.000000
22.947800 0.000000
22.963000 0.000000
22.978200 0.000000
22.993300 0.000000
23.008500 0.000000
23.023700 0.000000
23.038900 0.000000
23.054000 0.000000
23.069200 0.000000
23.084400 0.000000
23.099500 0.000000
23.114700 0.000000
23.129900 0.000000
23.145100 0.000000
23.160200 0.000000
23.175400 0.000000
23.190600 0.000000
23.205800 0.000000
23.220900 0.000000
23.236100 0.000000
23.251300 0.000000
23.266500 0.000000
23.281600 0.000000
23.296800 0.000000
23.312000 0.000000
23.327100 0.000000
23.342300 0.000000
23.357500 0.000000
23.372700 0.000000
23.387800 0.000000
23.403000 0.000000
23.418200 0.000000
23.433400 0.000000
23.448500 0.000000
23.463700 0.000000
23.478900 0.000000
23.494100 0.000000
23.509200 0.000000
23.524400 0.000000
23.539600 0.000000
23.554700 0.000000
23.569900 0.000000
23.585100 0.000000
23.600300 0.000000
23.615400 0.000000
23.630600 0.000000
23.645800 0.000000
23.661000 0.000000
23.676100 0.000000
23.691300 0.000000
23.706500 0.000000
23.721700 0.000000
23.736800 0.000000
23.752000 0.000000
23.767200 0.000000
23.782300 0.000000
23.797500 0.000000
23.812700 0.000000
23.827900 0.000000
23.843000 0.000000
23.858200 0.000000
23.873400 0.000000
23.888600 0.000000
23.903700 0.000000
23.918900 0.000000
23.934100 0.000000
23.949300 0.000000
23.964400 0.000000
23.979600 0.000000
23.994800 0.000000
24.009900 0.000000
24.025100 0.000000
24.040300 0.000000
e
