set title 'mp-53 - Density of States'
set xlabel 'Energy (eV)'
set ylabel 'DOS (states/eV)'
set grid
set xrange [-10:10]
set yrange [0:0.598]
set xzeroaxis lt -1
set terminal png size 800,600
set output 'mp-53_dos_gnuplot.png'
plot '-' using 1:2 with lines title 'DOS'
-9.786300 0.000000
-9.754300 0.000000
-9.722400 0.000000
-9.690500 0.000000
-9.658500 0.000000
-9.626600 0.000000
-9.594700 0.000000
-9.562700 0.000000
-9.530800 0.000000
-9.498900 0.000000
-9.466900 0.000000
-9.435000 0.000000
-9.403100 0.000000
-9.371100 0.000000
-9.339200 0.000000
-9.307300 0.000000
-9.275300 0.000000
-9.243400 0.000000
-9.211500 0.000000
-9.179500 0.000000
-9.147600 0.000000
-9.115700 0.000000
-9.083700 0.000000
-9.051800 0.000000
-9.019900 0.000000
-8.987900 0.000000
-8.956000 0.000000
-8.924100 0.000000
-8.892100 0.000000
-8.860200 0.000000
-8.828300 0.000000
-8.796300 0.000000
-8.764400 0.000000
-8.732500 0.000000
-8.700500 0.000000
-8.668600 0.000000
-8.636700 0.000000
-8.604700 0.000000
-8.572800 0.000000
-8.540900 0.000000
-8.508900 0.000000
-8.477000 0.000000
-8.445100 0.000000
-8.413100 0.000000
-8.381200 0.000000
-8.349300 0.000000
-8.317300 0.000000
-8.285400 0.000000
-8.253400 0.000000
-8.221500 0.000000
-8.189600 0.000000
-8.157600 0.000000
-8.125700 0.000000
-8.093800 0.000000
-8.061800 0.000000
-8.029900 0.000000
-7.998000 0.000000
-7.966000 0.000000
-7.934100 0.000000
-7.902200 0.000000
-7.870200 0.000000
-7.838300 0.000000
-7.806400 0.000000
-7.774400 0.000000
-7.742500 0.000000
-7.710600 0.000000
-7.678600 0.000000
-7.646700 0.000000
-7.614800 0.000000
-7.582800 0.000000
-7.550900 0.000000
-7.519000 0.000000
-7.487000 0.000000
-7.455100 0.000000
-7.423200 0.000000
-7.391200 0.000000
-7.359300 0.000000
-7.327400 0.000000
-7.295400 0.000000
-7.263500 0.000000
-7.231600 0.000000
-7.199600 0.000000
-7.167700 0.000000
-7.135800 0.000000
-7.103800 0.000000
-7.071900 0.000000
-7.040000 0.000000
-7.008000 0.000000
-6.976100 0.000000
-6.944200 0.000000
-6.912200 0.000000
-6.880300 0.000100
-6.848400 0.012900
-6.816400 0.027800
-6.784500 0.030600
-6.752600 0.038700
-6.720600 0.046700
-6.688700 0.048600
-6.656800 0.052100
-6.624800 0.056400
-6.592900 0.060600
-6.561000 0.065100
-6.529000 0.069000
-6.497100 0.070800
-6.465200 0.073600
-6.433200 0.076300
-6.401300 0.078900
-6.369400 0.081900
-6.337400 0.085300
-6.305500 0.088800
-6.273600 0.091300
-6.241600 0.092900
-6.209700 0.095000
-6.177800 0.097000
-6.145800 0.099100
-6.113900 0.101400
-6.082000 0.103900
-6.050000 0.106400
-6.018100 0.108900
-5.986200 0.111500
-5.954200 0.113500
-5.922300 0.115000
-5.890400 0.116800
-5.858400 0.118600
-5.826500 0.120300
-5.794600 0.122200
-5.762600 0.124200
-5.730700 0.126100
-5.698800 0.128100
-5.666800 0.130100
-5.634900 0.132200
-5.603000 0.134400
-5.571000 0.136300
-5.539100 0.137700
-5.507200 0.139300
-5.475200 0.140900
-5.443300 0.142400
-5.411400 0.144000
-5.379400 0.145600
-5.347500 0.147300
-5.315600 0.149100
-5.283600 0.150800
-5.251700 0.152600
-5.219800 0.154400
-5.187800 0.156200
-5.155900 0.158100
-5.123900 0.159900
-5.092000 0.161200
-5.060100 0.162700
-5.028100 0.164100
-4.996200 0.165500
-4.964300 0.167000
-4.932300 0.168500
-4.900400 0.170100
-4.868500 0.171700
-4.836500 0.173300
-4.804600 0.174800
-4.772700 0.176400
-4.740700 0.178100
-4.708800 0.179700
-4.676900 0.181400
-4.644900 0.183100
-4.613000 0.184700
-4.581100 0.186100
-4.549100 0.187500
-4.517200 0.189000
-4.485300 0.190400
-4.453300 0.191900
-4.421400 0.193400
-4.389500 0.194900
-4.357500 0.196400
-4.325600 0.197900
-4.293700 0.199400
-4.261700 0.201000
-4.229800 0.202600
-4.197900 0.204200
-4.165900 0.205800
-4.134000 0.207400
-4.102100 0.209000
-4.070100 0.210700
-4.038200 0.212200
-4.006300 0.213800
-3.974300 0.215300
-3.942400 0.216900
-3.910500 0.218500
-3.878500 0.220100
-3.846600 0.221700
-3.814700 0.223300
-3.782700 0.225000
-3.750800 0.226600
-3.718900 0.228200
-3.686900 0.229900
-3.655000 0.231600
-3.623100 0.233300
-3.591100 0.235000
-3.559200 0.236700
-3.527300 0.238400
-3.495300 0.240300
-3.463400 0.242400
-3.431500 0.244400
-3.399500 0.246400
-3.367600 0.248500
-3.335700 0.250600
-3.303700 0.252700
-3.271800 0.254800
-3.239900 0.256900
-3.207900 0.259000
-3.176000 0.261200
-3.144100 0.263300
-3.112100 0.265400
-3.080200 0.267600
-3.048300 0.269700
-3.016300 0.271900
-2.984400 0.274300
-2.952500 0.278400
-2.920500 0.282600
-2.888600 0.286600
-2.856700 0.290900
-2.824700 0.295200
-2.792800 0.299300
-2.760900 0.303500
-2.728900 0.307700
-2.697000 0.312000
-2.665100 0.316300
-2.633100 0.337400
-2.601200 0.355900
-2.569300 0.345200
-2.537300 0.347900
-2.505400 0.349800
-2.473500 0.342900
-2.441500 0.340800
-2.409600 0.340200
-2.377700 0.339300
-2.345700 0.338500
-2.313800 0.337000
-2.281900 0.332700
-2.249900 0.331100
-2.218000 0.329600
-2.186100 0.328100
-2.154100 0.327000
-2.122200 0.325900
-2.090300 0.324800
-2.058300 0.322800
-2.026400 0.319600
-1.994400 0.317800
-1.962500 0.316200
-1.930600 0.314600
-1.898600 0.313200
-1.866700 0.311900
-1.834800 0.310500
-1.802800 0.309100
-1.770900 0.307700
-1.739000 0.306000
-1.707000 0.303300
-1.675100 0.301500
-1.643200 0.299900
-1.611200 0.298200
-1.579300 0.296700
-1.547400 0.295200
-1.515400 0.293800
-1.483500 0.292300
-1.451600 0.290800
-1.419600 0.289300
-1.387700 0.287900
-1.355800 0.286500
-1.323800 0.284300
-1.291900 0.282400
-1.260000 0.280700
-1.228000 0.279000
-1.196100 0.277400
-1.164200 0.275900
-1.132200 0.274400
-1.100300 0.273000
-1.068400 0.271500
-1.036400 0.270000
-1.004500 0.268500
-0.972600 0.267100
-0.940600 0.265600
-0.908700 0.264100
-0.876800 0.262300
-0.844800 0.260300
-0.812900 0.258700
-0.781000 0.257100
-0.749000 0.255600
-0.717100 0.254100
-0.685200 0.252600
-0.653200 0.251100
-0.621300 0.249600
-0.589400 0.248100
-0.557400 0.246600
-0.525500 0.245100
-0.493600 0.243700
-0.461600 0.242200
-0.429700 0.240700
-0.397800 0.239300
-0.365800 0.237800
-0.333900 0.235800
-0.302000 0.234200
-0.270000 0.232700
-0.238100 0.231100
-0.206200 0.229600
-0.174200 0.228200
-0.142300 0.226700
-0.110400 0.225100
-0.078400 0.223600
-0.046500 0.222100
-0.014600 0.220700
0.017400 0.219200
0.049300 0.217800
0.081200 0.216300
0.113200 0.214900
0.145100 0.213400
0.177000 0.212000
0.209000 0.210500
0.240900 0.208800
0.272800 0.207200
0.304800 0.205700
0.336700 0.204200
0.368600 0.202700
0.400600 0.201200
0.432500 0.199700
0.464400 0.198100
0.496400 0.196600
0.528300 0.195200
0.560200 0.193700
0.592200 0.192200
0.624100 0.190800
0.656000 0.189400
0.688000 0.187900
0.719900 0.186500
0.751800 0.185000
0.783800 0.183600
0.815700 0.182200
0.847600 0.180700
0.879600 0.179300
0.911500 0.177800
0.943400 0.176200
0.975400 0.174700
1.007300 0.173100
1.039200 0.213500
1.071200 0.211600
1.103100 0.215800
1.135100 0.224300
1.167000 0.224000
1.198900 0.226000
1.230900 0.230300
1.262800 0.234700
1.294700 0.239700
1.326700 0.241900
1.358600 0.244100
1.390500 0.247500
1.422500 0.251000
1.454400 0.255500
1.486300 0.260400
1.518300 0.264400
1.550200 0.265200
1.582100 0.265900
1.614100 0.267100
1.646000 0.268200
1.677900 0.269600
1.709900 0.271200
1.741800 0.272800
1.773700 0.274300
1.805700 0.275700
1.837600 0.276200
1.869500 0.276800
1.901500 0.297800
1.933400 0.279200
1.965300 0.278700
1.997300 0.278500
2.029200 0.278300
2.061100 0.276000
2.093100 0.276900
2.125000 0.278000
2.156900 0.279200
2.188900 0.279300
2.220800 0.280200
2.252700 0.280200
2.284700 0.281400
2.316600 0.282700
2.348500 0.283600
2.380500 0.284700
2.412400 0.285800
2.444300 0.286900
2.476300 0.288200
2.508200 0.289100
2.540100 0.290700
2.572100 0.291700
2.604000 0.293000
2.635900 0.294400
2.667900 0.295800
2.699800 0.297400
2.731700 0.299000
2.763700 0.300600
2.795600 0.302300
2.827500 0.303700
2.859500 0.305700
2.891400 0.307700
2.923300 0.309700
2.955300 0.311700
2.987200 0.313700
3.019100 0.315600
3.051100 0.317700
3.083000 0.319800
3.114900 0.322000
3.146900 0.324200
3.178800 0.326500
3.210700 0.328600
3.242700 0.331000
3.274600 0.333500
3.306500 0.335800
3.338500 0.338100
3.370400 0.340500
3.402300 0.342800
3.434300 0.345600
3.466200 0.348300
3.498100 0.351000
3.530100 0.353800
3.562000 0.356600
3.593900 0.359400
3.625900 0.362300
3.657800 0.365100
3.689700 0.368100
3.721700 0.371200
3.753600 0.374300
3.785500 0.377500
3.817500 0.380900
3.849400 0.386000
3.881300 0.390400
3.913300 0.395100
3.945200 0.399900
3.977100 0.404800
4.009100 0.409700
4.041000 0.414800
4.072900 0.420000
4.104900 0.425300
4.136800 0.430700
4.168700 0.445600
4.200700 0.466600
4.232600 0.478600
4.264600 0.490500
4.296500 0.505700
4.328400 0.543200
4.360400 0.515000
4.392300 0.512000
4.424200 0.531000
4.456200 0.508100
4.488100 0.502600
4.520000 0.500100
4.552000 0.495200
4.583900 0.493100
4.615800 0.493400
4.647800 0.501300
4.679700 0.500100
4.711600 0.496400
4.743600 0.492300
4.775500 0.486900
4.807400 0.483600
4.839400 0.480900
4.871300 0.480000
4.903200 0.479300
4.935200 0.477500
4.967100 0.476500
4.999000 0.492800
5.031000 0.483700
5.062900 0.479000
5.094800 0.477200
5.126800 0.489200
5.158700 0.485100
5.190600 0.478600
5.222600 0.475300
5.254500 0.471900
5.286400 0.468500
5.318400 0.467100
5.350300 0.466000
5.382200 0.464500
5.414200 0.462200
5.446100 0.460800
5.478000 0.460000
5.510000 0.458700
5.541900 0.458300
5.573800 0.458000
5.605800 0.457200
5.637700 0.456400
5.669600 0.455800
5.701600 0.480600
5.733500 0.472400
5.765400 0.480300
5.797400 0.468400
5.829300 0.463900
5.861200 0.460300
5.893200 0.457300
5.925100 0.456300
5.957000 0.455400
5.989000 0.453300
6.020900 0.451200
6.052800 0.450400
6.084800 0.449500
6.116700 0.448700
6.148600 0.448100
6.180600 0.447100
6.212500 0.446200
6.244400 0.444900
6.276400 0.444400
6.308300 0.444100
6.340200 0.443800
6.372200 0.456800
6.404100 0.460800
6.436000 0.453000
6.468000 0.452700
6.499900 0.466500
6.531800 0.458500
6.563800 0.454700
6.595700 0.453700
6.627600 0.449800
6.659600 0.447600
6.691500 0.446800
6.723400 0.445900
6.755400 0.444700
6.787300 0.442300
6.819200 0.442900
6.851200 0.442700
6.883100 0.443400
6.915000 0.443900
6.947000 0.440600
6.978900 0.435300
7.010800 0.431800
7.042800 0.428500
7.074700 0.454600
7.106600 0.439400
7.138600 0.439900
7.170500 0.434900
7.202400 0.431300
7.234400 0.429200
7.266300 0.428200
7.298200 0.449700
7.330200 0.454300
7.362100 0.468800
7.394100 0.479200
7.426000 0.495200
7.457900 0.494400
7.489900 0.472800
7.521800 0.462800
7.553700 0.462300
7.585700 0.465000
7.617600 0.463900
7.649500 0.455800
7.681500 0.453000
7.713400 0.450700
7.745300 0.447900
7.777300 0.518400
7.809200 0.427400
7.841100 0.450100
7.873100 0.429900
7.905000 0.432600
7.936900 0.431500
7.968900 0.430500
8.000800 0.425700
8.032700 0.419700
8.064700 0.419100
8.096600 0.405300
8.128500 0.402000
8.160500 0.398700
8.192400 0.395600
8.224300 0.397100
8.256300 0.386200
8.288200 0.384200
8.320100 0.384600
8.352100 0.390700
8.384000 0.393800
8.415900 0.388900
8.447900 0.382500
8.479800 0.379200
8.511700 0.373100
8.543700 0.370300
8.575600 0.367400
8.607500 0.365300
8.639500 0.363700
8.671400 0.383700
8.703300 0.373700
8.735300 0.369500
8.767200 0.365700
8.799100 0.367300
8.831100 0.368400
8.863000 0.362500
8.894900 0.355500
8.926900 0.357600
8.958800 0.367300
8.990700 0.337800
9.022700 0.337300
9.054600 0.335600
9.086500 0.333800
9.118500 0.332200
9.150400 0.330600
9.182300 0.329000
9.214300 0.327400
9.246200 0.325800
9.278100 0.324200
9.310100 0.322700
9.342000 0.321500
9.373900 0.320400
9.405900 0.319500
9.437800 0.319000
9.469700 0.319300
9.501700 0.319800
9.533600 0.320500
9.565500 0.322700
9.597500 0.338000
9.629400 0.339900
9.661300 0.342900
9.693300 0.343900
9.725200 0.318200
9.757100 0.316500
9.789100 0.314800
9.821000 0.310700
9.852900 0.304500
9.884900 0.305700
9.916800 0.309900
9.948700 0.308900
9.980700 0.308100
10.012600 0.302200
10.044500 0.300900
10.076500 0.300100
10.108400 0.299800
10.140300 0.300100
10.172300 0.300500
10.204200 0.300900
10.236100 0.301400
10.268100 0.302800
10.300000 0.307000
10.331900 0.323800
10.363900 0.312700
10.395800 0.313700
10.427700 0.314800
10.459700 0.316400
10.491600 0.319500
10.523600 0.323700
10.555500 0.376600
10.587400 0.341800
10.619400 0.345500
10.651300 0.335100
10.683200 0.350400
10.715200 0.344800
10.747100 0.350800
10.779000 0.373300
10.811000 0.358700
10.842900 0.361600
10.874800 0.368000
10.906800 0.373800
10.938700 0.378900
10.970600 0.378300
11.002600 0.376600
11.034500 0.378200
11.066400 0.379000
11.098400 0.393700
11.130300 0.392000
11.162200 0.389400
11.194200 0.392100
11.226100 0.394800
11.258000 0.396600
11.290000 0.398800
11.321900 0.401000
11.353800 0.403000
11.385800 0.405000
11.417700 0.410300
11.449600 0.410700
11.481600 0.411500
11.513500 0.412600
11.545400 0.416300
11.577400 0.424900
11.609300 0.432300
11.641200 0.426500
11.673200 0.436100
11.705100 0.432700
11.737000 0.430500
11.769000 0.428800
11.800900 0.428800
11.832800 0.430800
11.864800 0.433000
11.896700 0.435600
11.928600 0.437800
11.960600 0.440200
11.992500 0.443500
12.024400 0.445300
12.056400 0.447100
12.088300 0.449100
12.120200 0.454300
12.152200 0.463700
12.184100 0.467000
12.216000 0.468500
12.248000 0.466400
12.279900 0.467900
12.311800 0.471500
12.343800 0.466600
12.375700 0.469800
12.407600 0.472800
12.439600 0.475500
12.471500 0.477900
12.503400 0.480000
12.535400 0.481500
12.567300 0.482500
12.599200 0.482700
12.631200 0.469800
12.663100 0.466400
12.695000 0.464000
12.727000 0.463300
12.758900 0.466000
12.790800 0.473800
12.822800 0.475700
12.854700 0.479100
12.886600 0.484300
12.918600 0.493400
12.950500 0.498600
12.982400 0.500100
13.014400 0.502600
13.046300 0.503100
13.078200 0.499700
13.110200 0.490700
13.142100 0.491900
13.174000 0.493100
13.206000 0.494400
13.237900 0.495700
13.269800 0.497100
13.301800 0.498600
13.333700 0.496600
13.365600 0.494800
13.397600 0.497300
13.429500 0.501100
13.461400 0.505100
13.493400 0.508600
13.525300 0.511200
13.557200 0.517400
13.589200 0.521200
13.621100 0.525200
13.653100 0.530500
13.685000 0.544600
13.716900 0.542400
13.748900 0.545300
13.780800 0.544800
13.812700 0.545000
13.844700 0.546100
13.876600 0.549200
13.908500 0.553500
13.940500 0.553200
13.972400 0.554000
14.004300 0.557000
14.036300 0.564200
14.068200 0.567700
14.100100 0.570100
14.132100 0.572200
14.164000 0.573800
14.195900 0.578900
14.227900 0.580900
14.259800 0.585900
14.291700 0.602200
14.323700 0.595200
14.355600 0.597900
14.387500 0.602900
14.419500 0.607800
14.451400 0.616400
14.483300 0.627000
14.515300 0.639300
14.547200 0.656300
14.579100 0.668000
14.611100 0.659400
14.643000 0.649200
14.674900 0.641100
14.706900 0.636300
14.738800 0.632900
14.770700 0.630600
14.802700 0.628400
14.834600 0.627300
14.866500 0.627700
14.898500 0.628500
14.930400 0.628400
14.962300 0.625600
14.994300 0.623500
15.026200 0.617900
15.058100 0.617300
15.090100 0.617600
15.122000 0.623600
15.153900 0.623600
15.185900 0.626900
15.217800 0.625600
15.249700 0.620500
15.281700 0.618400
15.313600 0.621800
15.345500 0.628400
15.377500 0.628300
15.409400 0.626200
15.441300 0.624500
15.473300 0.616900
15.505200 0.610300
15.537100 0.608300
15.569100 0.605200
15.601000 0.602700
15.632900 0.600900
15.664900 0.599300
15.696800 0.598100
15.728700 0.597400
15.760700 0.597000
15.792600 0.596400
15.824500 0.595200
15.856500 0.600100
15.888400 0.599000
15.920300 0.598200
15.952300 0.597300
15.984200 0.597100
16.016100 0.598100
16.048100 0.599800
16.080000 0.595500
16.111900 0.596400
16.143900 0.604200
16.175800 0.605700
16.207700 0.607300
16.239700 0.609200
16.271600 0.610500
16.303500 0.605500
16.335500 0.597600
16.367400 0.597000
16.399300 0.593600
16.431300 0.589300
16.463200 0.586200
16.495100 0.584200
16.527100 0.583000
16.559000 0.581900
16.590900 0.579600
16.622900 0.580200
16.654800 0.580700
16.686700 0.581200
16.718700 0.582000
16.750600 0.593000
16.782600 0.583300
16.814500 0.581100
16.846400 0.583200
16.878400 0.584100
16.910300 0.594000
16.942200 0.593500
16.974200 0.592700
17.006100 0.590300
17.038000 0.587800
17.070000 0.590700
17.101900 0.584500
17.133800 0.581900
17.165800 0.578800
17.197700 0.574300
17.229600 0.567300
17.261600 0.560000
17.293500 0.553100
17.325400 0.642700
17.357400 0.521700
17.389300 0.509400
17.421200 0.499300
17.453200 0.491500
17.485100 0.493500
17.517000 0.498100
17.549000 0.505600
17.580900 0.512800
17.612800 0.510700
17.644800 0.517800
17.676700 0.523600
17.708600 0.528300
17.740600 0.534900
17.772500 0.539400
17.804400 0.538700
17.836400 0.529900
17.868300 0.526200
17.900200 0.522700
17.932200 0.518900
17.964100 0.514900
17.996000 0.510500
18.028000 0.506200
18.059900 0.502100
18.091800 0.497900
18.123800 0.494000
18.155700 0.490300
18.187600 0.486100
18.219600 0.482500
18.251500 0.479800
18.283400 0.477500
18.315400 0.475800
18.347300 0.474100
18.379200 0.472500
18.411200 0.471100
18.443100 0.469700
18.475000 0.468500
18.507000 0.467400
18.538900 0.475600
18.570800 0.468400
18.602800 0.467900
18.634700 0.467600
18.666600 0.467300
18.698600 0.467000
18.730500 0.466700
18.762400 0.466000
18.794400 0.464700
18.826300 0.464100
18.858200 0.463300
18.890200 0.462100
18.922100 0.462400
18.954000 0.466600
18.986000 0.471600
19.017900 0.463400
19.049800 0.463500
19.081800 0.463700
19.113700 0.463900
19.145600 0.464100
19.177600 0.464600
19.209500 0.465100
19.241400 0.465800
19.273400 0.466500
19.305300 0.466900
19.337200 0.466900
19.369200 0.466700
19.401100 0.466800
19.433000 0.467300
19.465000 0.467600
19.496900 0.467400
19.528800 0.467200
19.560800 0.467700
19.592700 0.466400
19.624600 0.465400
19.656600 0.464400
19.688500 0.466200
19.720400 0.465500
19.752400 0.464400
19.784300 0.463700
19.816300 0.463600
19.848200 0.464200
19.880100 0.464100
19.912100 0.468000
19.944000 0.472100
19.975900 0.476000
20.007900 0.479700
20.039800 0.484600
20.071700 0.490600
20.103700 0.500200
20.135600 0.509300
20.167500 0.513500
20.199500 0.516900
20.231400 0.520900
20.263300 0.531500
20.295300 0.538100
20.327200 0.538600
20.359100 0.540100
20.391100 0.541200
20.423000 0.541800
20.454900 0.540200
20.486900 0.534000
20.518800 0.525600
20.550700 0.518900
20.582700 0.509400
20.614600 0.498000
20.646500 0.486000
20.678500 0.475300
20.710400 0.468700
20.742300 0.460900
20.774300 0.453500
20.806200 0.446600
20.838100 0.440700
20.870100 0.445700
20.902000 0.439800
20.933900 0.434100
20.965900 0.431600
20.997800 0.429800
21.029700 0.428100
21.061700 0.426600
21.093600 0.424000
21.125500 0.422300
21.157500 0.422400
21.189400 0.422800
21.221300 0.420200
21.253300 0.417700
21.285200 0.415000
21.317100 0.412000
21.349100 0.408600
21.381000 0.405100
21.412900 0.402900
21.444900 0.404000
21.476800 0.406000
21.508700 0.408500
21.540700 0.411500
21.572600 0.415000
21.604500 0.419300
21.636500 0.424900
21.668400 0.430500
21.700300 0.438100
21.732300 0.444400
21.764200 0.492300
21.796100 0.503400
21.828100 0.497600
21.860000 0.497700
21.891900 0.502500
21.923900 0.507500
21.955800 0.513000
21.987700 0.521100
22.019700 0.533200
22.051600 0.548200
22.083500 0.563600
22.115500 0.580700
22.147400 0.581900
22.179300 0.585600
22.211300 0.591500
22.243200 0.596200
22.275100 0.599900
22.307100 0.602400
22.339000 0.603600
22.370900 0.605600
22.402900 0.630800
22.434800 0.637200
22.466700 0.619300
22.498700 0.617900
22.530600 0.620200
22.562500 0.622100
22.594500 0.623800
22.626400 0.625600
22.658300 0.628300
22.690300 0.628100
22.722200 0.628100
22.754100 0.629200
22.786100 0.631200
22.818000 0.634500
22.849900 0.641600
22.881900 0.648500
22.913800 0.649000
22.945800 0.650200
22.977700 0.653600
23.009600 0.659300
23.041600 0.667400
23.073500 0.674400
23.105400 0.681500
23.137400 0.688800
23.169300 0.689700
23.201200 0.694100
23.233200 0.699600
23.265100 0.705700
23.297000 0.712200
23.329000 0.723500
23.360900 0.746000
23.392800 0.744400
23.424800 0.759100
23.456700 0.780200
23.488600 0.802500
23.520600 0.793200
23.552500 0.760700
23.584400 0.745600
23.616400 0.739700
23.648300 0.736300
23.680200 0.733900
23.712200 0.724800
23.744100 0.710200
23.776000 0.706500
23.808000 0.704400
23.839900 0.705100
23.871800 0.705900
23.903800 0.704000
23.935700 0.713000
23.967600 0.692000
23.999600 0.685600
24.031500 0.679800
24.063400 0.676000
24.095400 0.672500
24.127300 0.670100
24.159200 0.666900
24.191200 0.663600
24.223100 0.659900
24.255000 0.655700
24.287000 0.650100
24.318900 0.642500
24.350800 0.632700
24.382800 0.622200
24.414700 0.614300
24.446600 0.606700
24.478600 0.599400
24.510500 0.592900
24.542400 0.586700
24.574400 0.580100
24.606300 0.578400
24.638200 0.577600
24.670200 0.577400
24.702100 0.577700
24.734000 0.578600
24.766000 0.580700
24.797900 0.583600
24.829800 0.586800
24.861800 0.590100
24.893700 0.593600
24.925600 0.597300
24.957600 0.601300
24.989500 0.605400
25.021400 0.609600
25.053400 0.620100
25.085300 0.632900
25.117200 0.646600
25.149200 0.659000
25.181100 0.675400
25.213000 0.692900
25.245000 0.709300
25.276900 0.728500
25.308800 0.760400
25.340800 0.790300
25.372700 0.817200
25.404600 0.841400
25.436600 0.870300
25.468500 0.889700
25.500400 0.882700
25.532400 0.892200
25.564300 0.901400
25.596200 0.905200
25.628200 0.900200
25.660100 0.890600
25.692000 0.875200
25.724000 0.856700
25.755900 0.846800
25.787800 0.823500
25.819800 0.803500
25.851700 0.785700
25.883600 0.770800
25.915600 0.761000
25.947500 0.789600
25.979400 0.697800
26.011400 0.637600
26.043300 0.633000
26.075300 0.621500
26.107200 0.639900
26.139100 0.624500
26.171100 0.605300
26.203000 0.594800
26.234900 0.585900
26.266900 0.577900
26.298800 0.571200
26.330700 0.565400
26.362700 0.560900
26.394600 0.556200
26.426500 0.549100
26.458500 0.549100
26.490400 0.552000
26.522300 0.567200
26.554300 0.588800
26.586200 0.602500
26.618100 0.611300
26.650100 0.622000
26.682000 0.638300
26.713900 0.621700
26.745900 0.609400
26.777800 0.604800
26.809700 0.599900
26.841700 0.600200
26.873600 0.599800
26.905500 0.603500
26.937500 0.607900
26.969400 0.612800
27.001300 0.616700
27.033300 0.620000
27.065200 0.622700
27.097100 0.625500
27.129100 0.628800
27.161000 0.632500
27.192900 0.635600
27.224900 0.638000
27.256800 0.646000
27.288700 0.645400
27.320700 0.645700
27.352600 0.637300
27.384500 0.634300
27.416500 0.633800
27.448400 0.633100
27.480300 0.632000
27.512300 0.630600
27.544200 0.630000
27.576100 0.631500
27.608100 0.635000
27.640000 0.641600
27.671900 0.647600
27.703900 0.654300
27.735800 0.664200
27.767700 0.666600
27.799700 0.659500
27.831600 0.653100
27.863500 0.647100
27.895500 0.642100
27.927400 0.637200
27.959300 0.632400
27.991300 0.628500
28.023200 0.624500
28.055100 0.620500
28.087100 0.616400
28.119000 0.612900
28.150900 0.610300
28.182900 0.607900
28.214800 0.606200
28.246700 0.605100
28.278700 0.604600
28.310600 0.604800
28.342500 0.606900
28.374500 0.615400
28.406400 0.623100
28.438300 0.628400
28.470300 0.633800
28.502200 0.638000
28.534100 0.639800
28.566100 0.639300
28.598000 0.636800
28.629900 0.629400
28.661900 0.622000
28.693800 0.615000
28.725700 0.608300
28.757700 0.600500
28.789600 0.590700
28.821500 0.590600
28.853500 0.591900
28.885400 0.593700
28.917300 0.595700
28.949300 0.599000
28.981200 0.604000
29.013100 0.609800
29.045100 0.616600
29.077000 0.623000
29.108900 0.631900
29.140900 0.639400
29.172800 0.645200
29.204800 0.650500
29.236700 0.652100
29.268600 0.655100
29.300600 0.658500
29.332500 0.662600
29.364400 0.667000
29.396400 0.668000
29.428300 0.675500
29.460200 0.684300
29.492200 0.701000
29.524100 0.703200
29.556000 0.701500
29.588000 0.699100
29.619900 0.692700
29.651800 0.676500
29.683800 0.663200
29.715700 0.647800
29.747600 0.633500
29.779600 0.616600
29.811500 0.589200
29.843400 0.574800
29.875400 0.565200
29.907300 0.559300
29.939200 0.554600
29.971200 0.553800
30.003100 0.555900
30.035000 0.559300
30.067000 0.565800
30.098900 0.579900
30.130800 0.592200
30.162800 0.605100
30.194700 0.615500
30.226600 0.622400
30.258600 0.633800
30.290500 0.640800
30.322400 0.637300
30.354400 0.638900
30.386300 0.639500
30.418200 0.640600
30.450200 0.644200
30.482100 0.647900
30.514000 0.653800
30.546000 0.662000
30.577900 0.672900
30.609800 0.686000
30.641800 0.699800
30.673700 0.713200
30.705600 0.724600
30.737600 0.730100
30.769500 0.731500
30.801400 0.772300
30.833400 0.749800
30.865300 0.740500
30.897200 0.728000
30.929200 0.714300
30.961100 0.702100
30.993000 0.684600
31.025000 0.671000
31.056900 0.670800
31.088800 0.670100
31.120800 0.669900
31.152700 0.670200
31.184600 0.673600
31.216600 0.671000
31.248500 0.665300
31.280400 0.664300
31.312400 0.664500
31.344300 0.670100
31.376200 0.677500
31.408200 0.684300
31.440100 0.692700
31.472000 0.705200
31.504000 0.720900
31.535900 0.741400
31.567800 0.765500
31.599800 0.786200
31.631700 0.799800
31.663600 0.809400
31.695600 0.824500
31.727500 0.840200
31.759400 0.847700
31.791400 0.852200
31.823300 0.856600
31.855200 0.860800
31.887200 0.864600
31.919100 0.867900
31.951000 0.871400
31.983000 0.878500
32.014900 0.886300
32.046800 0.890800
32.078800 0.898100
32.110700 0.898900
32.142600 0.898500
32.174600 0.899000
32.206500 0.900300
32.238400 0.901900
32.270400 0.903100
32.302300 0.903800
32.334300 0.903200
32.366200 0.900100
32.398100 0.896200
32.430100 0.891700
32.462000 0.887300
32.493900 0.883100
32.525900 0.877700
32.557800 0.879300
32.589700 0.863500
32.621700 0.823200
32.653600 0.802500
32.685500 0.783300
32.717500 0.772500
32.749400 0.764100
32.781300 0.769200
32.813300 0.744400
32.845200 0.728500
32.877100 0.713500
32.909100 0.693900
32.941000 0.670900
32.972900 0.638100
33.004900 0.612100
33.036800 0.591200
33.068700 0.573600
33.100700 0.558700
33.132600 0.545900
33.164500 0.535600
33.196500 0.528100
33.228400 0.524800
33.260300 0.526500
33.292300 0.534400
33.324200 0.544900
33.356100 0.555000
33.388100 0.563300
33.420000 0.569400
33.451900 0.574000
33.483900 0.579200
33.515800 0.584400
33.547700 0.627900
33.579700 0.625100
33.611600 0.628200
33.643500 0.634800
33.675500 0.640300
33.707400 0.647600
33.739300 0.654800
33.771300 0.662000
33.803200 0.670700
33.835100 0.678000
33.867100 0.684000
33.899000 0.683600
33.930900 0.692500
33.962900 0.707000
33.994800 0.714900
34.026700 0.723900
34.058700 0.723500
34.090600 0.715000
34.122500 0.699900
34.154500 0.684700
34.186400 0.665300
34.218300 0.652900
34.250300 0.635200
34.282200 0.625500
34.314100 0.615500
34.346100 0.607200
34.378000 0.599200
34.409900 0.592100
34.441900 0.576600
34.473800 0.582800
34.505700 0.532300
34.537700 0.501600
34.569600 0.481900
34.601500 0.467500
34.633500 0.460300
34.665400 0.459500
34.697300 0.459100
34.729300 0.458600
34.761200 0.459300
34.793100 0.461200
34.825100 0.465500
34.857000 0.474200
34.888900 0.486300
34.920900 0.500300
34.952800 0.511300
34.984700 0.520600
35.016700 0.524800
35.048600 0.526300
35.080500 0.530600
35.112500 0.504300
35.144400 0.496500
35.176300 0.489700
35.208300 0.484000
35.240200 0.475700
35.272100 0.468600
35.304100 0.463400
35.336000 0.459700
35.367900 0.458400
35.399900 0.459600
35.431800 0.461300
35.463800 0.463200
35.495700 0.466300
35.527600 0.470700
35.559600 0.476800
35.591500 0.483100
35.623400 0.490000
35.655400 0.497700
35.687300 0.514500
35.719200 0.530600
35.751200 0.537500
35.783100 0.543300
35.815000 0.547900
35.847000 0.556400
35.878900 0.561700
35.910800 0.559300
35.942800 0.559200
35.974700 0.558600
36.006600 0.558700
36.038600 0.558700
36.070500 0.559800
36.102400 0.562300
36.134400 0.564200
36.166300 0.568700
36.198200 0.575200
36.230200 0.581000
36.262100 0.587300
36.294000 0.597900
36.326000 0.603800
36.357900 0.610000
36.389800 0.618800
36.421800 0.625800
36.453700 0.632500
36.485600 0.648000
36.517600 0.651800
36.549500 0.651500
36.581400 0.650300
36.613400 0.649300
36.645300 0.646300
36.677200 0.644900
36.709200 0.644800
36.741100 0.643800
36.773000 0.644600
36.805000 0.649600
36.836900 0.651500
36.868800 0.653600
36.900800 0.656500
36.932700 0.660400
36.964600 0.659900
36.996600 0.662900
37.028500 0.666100
37.060400 0.670400
37.092400 0.670500
37.124300 0.678100
37.156200 0.684500
37.188200 0.688700
37.220100 0.690700
37.252000 0.693800
37.284000 0.700700
37.315900 0.712200
37.347800 0.722300
37.379800 0.718900
37.411700 0.711400
37.443600 0.717800
37.475600 0.715800
37.507500 0.719400
37.539400 0.725000
37.571400 0.731400
37.603300 0.735400
37.635200 0.741300
37.667200 0.747300
37.699100 0.752600
37.731000 0.753600
37.763000 0.751800
37.794900 0.751500
37.826800 0.750900
37.858800 0.749700
37.890700 0.748500
37.922600 0.754900
37.954600 0.761500
37.986500 0.772100
38.018400 0.781500
38.050400 0.789300
38.082300 0.785700
38.114200 0.783800
38.146200 0.780600
38.178100 0.774400
38.210000 0.770300
38.242000 0.770400
38.273900 0.769500
38.305800 0.768700
38.337800 0.768700
38.369700 0.769600
38.401600 0.771500
38.433600 0.774500
38.465500 0.781800
38.497400 0.792500
38.529400 0.800100
38.561300 0.802200
38.593300 0.804300
38.625200 0.807000
38.657100 0.810900
38.689100 0.815000
38.721000 0.819400
38.752900 0.824300
38.784900 0.826400
38.816800 0.826200
38.848700 0.830500
38.880700 0.833600
38.912600 0.832900
38.944500 0.826300
38.976500 0.827800
39.008400 0.816500
39.040300 0.806600
39.072300 0.788700
39.104200 0.767200
39.136100 0.753700
39.168100 0.741500
39.200000 0.722000
39.231900 0.710400
39.263900 0.703300
39.295800 0.696300
39.327700 0.688800
39.359700 0.681600
39.391600 0.674600
39.423500 0.667600
39.455500 0.660400
39.487400 0.653700
39.519300 0.648800
39.551300 0.644400
39.583200 0.639900
39.615100 0.635500
39.647100 0.631100
39.679000 0.628600
39.710900 0.625800
39.742900 0.623500
39.774800 0.622800
39.806700 0.613200
39.838700 0.600000
39.870600 0.591300
39.902500 0.579200
39.934500 0.563800
39.966400 0.552300
39.998300 0.538800
40.030300 0.532900
40.062200 0.517700
40.094100 0.500600
40.126100 0.485700
40.158000 0.471400
40.189900 0.455500
40.221900 0.447200
40.253800 0.432400
40.285700 0.417500
40.317700 0.396800
40.349600 0.382900
40.381500 0.371500
40.413500 0.364700
40.445400 0.349600
40.477300 0.334300
40.509300 0.321000
40.541200 0.353500
40.573100 0.305200
40.605100 0.291000
40.637000 0.272000
40.668900 0.261400
40.700900 0.251600
40.732800 0.242800
40.764700 0.234200
40.796700 0.226900
40.828600 0.222300
40.860500 0.219300
40.892500 0.215200
40.924400 0.206500
40.956300 0.202100
40.988300 0.194600
41.020200 0.209900
41.052100 0.185500
41.084100 0.163600
41.116000 0.163400
41.147900 0.161200
41.179900 0.156800
41.211800 0.153700
41.243700 0.152300
41.275700 0.150900
41.307600 0.149500
41.339500 0.148000
41.371500 0.146700
41.403400 0.145400
41.435300 0.144300
41.467300 0.143300
41.499200 0.142000
41.531100 0.141100
41.563100 0.149500
41.595000 0.140000
41.626900 0.133200
41.658900 0.132500
41.690800 0.131900
41.722800 0.130900
41.754700 0.129800
41.786600 0.128400
41.818600 0.126700
41.850500 0.124800
41.882400 0.123800
41.914400 0.123200
41.946300 0.122700
41.978200 0.122200
42.010200 0.121700
42.042100 0.121100
42.074000 0.120200
42.106000 0.119300
42.137900 0.118600
42.169800 0.117400
42.201800 0.116700
42.233700 0.116100
42.265600 0.115800
42.297600 0.115700
42.329500 0.115200
42.361400 0.114800
42.393400 0.114300
42.425300 0.113900
42.457200 0.113500
42.489200 0.113100
42.521100 0.112600
42.553000 0.112200
42.585000 0.111700
42.616900 0.111000
42.648800 0.112700
42.680800 0.114300
42.712700 0.111900
42.744600 0.109100
42.776600 0.105900
42.808500 0.103500
42.840400 0.102800
42.872400 0.102100
42.904300 0.101400
42.936200 0.100700
42.968200 0.100000
43.000100 0.099300
43.032000 0.098700
43.064000 0.098000
43.095900 0.097300
43.127800 0.096600
43.159800 0.095900
43.191700 0.095200
43.223600 0.094600
43.255600 0.094000
43.287500 0.093400
43.319400 0.092800
43.351400 0.092300
43.383300 0.091800
43.415200 0.091400
43.447200 0.091000
43.479100 0.090700
43.511000 0.090400
43.543000 0.090200
43.574900 0.089900
43.606800 0.089700
43.638800 0.089600
43.670700 0.089500
43.702600 0.089500
43.734600 0.089500
43.766500 0.088000
43.798400 0.086700
43.830400 0.085600
43.862300 0.085900
43.894200 0.086000
43.926200 0.085600
43.958100 0.087500
43.990000 0.086800
44.022000 0.086100
44.053900 0.085300
44.085800 0.084400
44.117800 0.082900
44.149700 0.081200
44.181600 0.079100
44.213600 0.077700
44.245500 0.077100
44.277400 0.076500
44.309400 0.075900
44.341300 0.075300
44.373200 0.074700
44.405200 0.074100
44.437100 0.073500
44.469000 0.072900
44.501000 0.072300
44.532900 0.071700
44.564800 0.071100
44.596800 0.070200
44.628700 0.069700
44.660600 0.069100
44.692600 0.068600
44.724500 0.068100
44.756400 0.067500
44.788400 0.067000
44.820300 0.066500
44.852300 0.066000
44.884200 0.065600
44.916100 0.065100
44.948100 0.064700
44.980000 0.064300
45.011900 0.064000
45.043900 0.063600
45.075800 0.063300
45.107700 0.062900
45.139700 0.062600
45.171600 0.062300
45.203500 0.062000
45.235500 0.061700
45.267400 0.061400
45.299300 0.061200
45.331300 0.061000
45.363200 0.060900
45.395100 0.059900
45.427100 0.060500
45.459000 0.060500
45.490900 0.060100
45.522900 0.059700
45.554800 0.059300
45.586700 0.058900
45.618700 0.058400
45.650600 0.058200
45.682500 0.057600
45.714500 0.056400
45.746400 0.054300
45.778300 0.053400
45.810300 0.052900
45.842200 0.052400
45.874100 0.052000
45.906100 0.051500
45.938000 0.051000
45.969900 0.050600
46.001900 0.050100
46.033800 0.049700
46.065700 0.049300
46.097700 0.048900
46.129600 0.048400
46.161500 0.048000
46.193500 0.047600
46.225400 0.047200
46.257300 0.046800
46.289300 0.046400
46.321200 0.046000
46.353100 0.045600
46.385100 0.045200
46.417000 0.044800
46.448900 0.044400
46.480900 0.044000
46.512800 0.043500
46.544700 0.043200
46.576700 0.042800
46.608600 0.042500
46.640500 0.042100
46.672500 0.041800
46.704400 0.041500
46.736300 0.041200
46.768300 0.040900
46.800200 0.040200
46.832100 0.040000
46.864100 0.039800
46.896000 0.039600
46.927900 0.039400
46.959900 0.039200
46.991800 0.039100
47.023700 0.039000
47.055700 0.038900
47.087600 0.038900
47.119500 0.038900
47.151500 0.039000
47.183400 0.039100
47.215300 0.038500
47.247300 0.038500
47.279200 0.039100
47.311100 0.039600
47.343100 0.039700
47.375000 0.039600
47.406900 0.037100
47.438900 0.034000
47.470800 0.034000
47.502700 0.034100
47.534700 0.034000
47.566600 0.033700
47.598500 0.033300
47.630500 0.032900
47.662400 0.032500
47.694300 0.032100
47.726300 0.031700
47.758200 0.031400
47.790100 0.031000
47.822100 0.030600
47.854000 0.030200
47.885900 0.029900
47.917900 0.029500
47.949800 0.029100
47.981800 0.028800
48.013700 0.028400
48.045600 0.028100
48.077600 0.027800
48.109500 0.027500
48.141400 0.027100
48.173400 0.026800
48.205300 0.026500
48.237200 0.026200
48.269200 0.025900
48.301100 0.025600
48.333000 0.025300
48.365000 0.025000
48.396900 0.024700
48.428800 0.024400
48.460800 0.024100
48.492700 0.023700
48.524600 0.023400
48.556600 0.023200
48.588500 0.023000
48.620400 0.023100
48.652400 0.023700
48.684300 0.023500
48.716200 0.023300
48.748200 0.022800
48.780100 0.022700
48.812000 0.022600
48.844000 0.022400
48.875900 0.022300
48.907800 0.022100
48.939800 0.022000
48.971700 0.021800
49.003600 0.021700
49.035600 0.021500
49.067500 0.019200
49.099400 0.018800
49.131400 0.019000
49.163300 0.018800
49.195200 0.018700
49.227200 0.018600
49.259100 0.018200
49.291000 0.017900
49.323000 0.017500
49.354900 0.017200
49.386800 0.016800
49.418800 0.016500
49.450700 0.016200
49.482600 0.015800
49.514600 0.015500
49.546500 0.015200
49.578400 0.014900
49.610400 0.014600
49.642300 0.014300
49.674200 0.014000
49.706200 0.013700
49.738100 0.013400
49.770000 0.013200
49.802000 0.012900
49.833900 0.012700
49.865800 0.012500
49.897800 0.012200
49.929700 0.012000
49.961600 0.011800
49.993600 0.011600
50.025500 0.011400
50.057400 0.011100
50.089400 0.010900
50.121300 0.010700
50.153200 0.010800
50.185200 0.011400
50.217100 0.011500
50.249000 0.011400
50.281000 0.011300
50.312900 0.011200
50.344800 0.011000
50.376800 0.010700
50.408700 0.011000
50.440600 0.010600
50.472600 0.010100
50.504500 0.008800
50.536400 0.008300
50.568400 0.007900
50.600300 0.007500
50.632200 0.007100
50.664200 0.006700
50.696100 0.006400
50.728000 0.006000
50.760000 0.005700
50.791900 0.005300
50.823800 0.005000
50.855800 0.004600
50.887700 0.004300
50.919600 0.004000
50.951600 0.003700
50.983500 0.003400
51.015400 0.003100
51.047400 0.002900
51.079300 0.001500
51.111300 0.001400
51.143200 0.001300
51.175100 0.001100
51.207100 0.000000
51.239000 0.000000
51.270900 0.000000
51.302900 0.000000
51.334800 0.000000
51.366700 0.000000
51.398700 0.000000
51.430600 0.000000
51.462500 0.000000
51.494500 0.000000
51.526400 0.000000
51.558300 0.000000
51.590300 0.000000
51.622200 0.000000
51.654100 0.000000
51.686100 0.000000
51.718000 0.000000
51.749900 0.000000
51.781900 0.000000
51.813800 0.000000
51.845700 0.000000
51.877700 0.000000
51.909600 0.000000
51.941500 0.000000
51.973500 0.000000
52.005400 0.000000
52.037300 0.000000
52.069300 0.000000
52.101200 0.000000
52.133100 0.000000
52.165100 0.000000
52.197000 0.000000
52.228900 0.000000
52.260900 0.000000
52.292800 0.000000
52.324700 0.000000
52.356700 0.000000
52.388600 0.000000
52.420500 0.000000
52.452500 0.000000
52.484400 0.000000
52.516300 0.000000
52.548300 0.000000
52.580200 0.000000
52.612100 0.000000
52.644100 0.000000
52.676000 0.000000
52.707900 0.000000
52.739900 0.000000
52.771800 0.000000
52.803700 0.000000
52.835700 0.000000
52.867600 0.000000
52.899500 0.000000
52.931500 0.000000
52.963400 0.000000
52.995300 0.000000
53.027300 0.000000
53.059200 0.000000
53.091100 0.000000
53.123100 0.000000
53.155000 0.000000
53.186900 0.000000
53.218900 0.000000
53.250800 0.000000
53.282700 0.000000
53.314700 0.000000
53.346600 0.000000
53.378500 0.000000
53.410500 0.000000
53.442400 0.000000
53.474300 0.000000
53.506300 0.000000
53.538200 0.000000
53.570100 0.000000
53.602100 0.000000
53.634000 0.000000
53.665900 0.000000
53.697900 0.000000
53.729800 0.000000
53.761700 0.000000
53.793700 0.000000
53.825600 0.000000
53.857500 0.000000
53.889500 0.000000
53.921400 0.000000
53.953300 0.000000
53.985300 0.000000
54.017200 0.000000
54.049100 0.000000
54.081100 0.000000
e
