set title 'mp-568610 - Density of States'
set xlabel 'Energy (eV)'
set ylabel 'DOS (states/eV)'
set grid
set xrange [-10:10]
set yrange [0:1.738]
set xzeroaxis lt -1
set terminal png size 800,600
set output 'mp-568610_dos_gnuplot.png'
plot '-' using 1:2 with lines title 'DOS'
-8.680600 0.000000
-8.661100 0.000000
-8.641600 0.000000
-8.622200 0.000000
-8.602700 0.000000
-8.583200 0.000000
-8.563700 0.000000
-8.544300 0.000000
-8.524800 0.000000
-8.505300 0.000000
-8.485800 0.000000
-8.466400 0.000000
-8.446900 0.000000
-8.427400 0.000000
-8.407900 0.000000
-8.388500 0.000000
-8.369000 0.000000
-8.349500 0.000000
-8.330000 0.000000
-8.310600 0.000000
-8.291100 0.000000
-8.271600 0.000000
-8.252100 0.000000
-8.232700 0.000000
-8.213200 0.000000
-8.193700 0.000000
-8.174300 0.000000
-8.154800 0.000000
-8.135300 0.000000
-8.115800 0.000000
-8.096400 0.000000
-8.076900 0.000000
-8.057400 0.000000
-8.037900 0.000000
-8.018500 0.000000
-7.999000 0.000000
-7.979500 0.000000
-7.960000 0.000000
-7.940600 0.000000
-7.921100 0.000000
-7.901600 0.000000
-7.882100 0.000000
-7.862700 0.000000
-7.843200 0.000000
-7.823700 0.000000
-7.804200 0.000000
-7.784800 0.000000
-7.765300 0.000000
-7.745800 0.000000
-7.726400 0.000000
-7.706900 0.000000
-7.687400 0.000000
-7.667900 0.000000
-7.648500 0.000000
-7.629000 0.000000
-7.609500 0.000000
-7.590000 0.000000
-7.570600 0.000000
-7.551100 0.000000
-7.531600 0.000000
-7.512100 0.000000
-7.492700 0.000000
-7.473200 0.000000
-7.453700 0.000000
-7.434200 0.000000
-7.414800 0.000000
-7.395300 0.000000
-7.375800 0.000000
-7.356300 0.000000
-7.336900 0.000000
-7.317400 0.000000
-7.297900 0.000000
-7.278500 0.000000
-7.259000 0.000000
-7.239500 0.000000
-7.220000 0.000000
-7.200600 0.000000
-7.181100 0.000000
-7.161600 0.000000
-7.142100 0.000000
-7.122700 0.000000
-7.103200 0.000000
-7.083700 0.000000
-7.064200 0.000000
-7.044800 0.000000
-7.025300 0.000000
-7.005800 0.000000
-6.986300 0.000000
-6.966900 0.000000
-6.947400 0.000000
-6.927900 0.000000
-6.908400 0.000100
-6.889000 0.007600
-6.869500 0.028000
-6.850000 0.045000
-6.830600 0.053400
-6.811100 0.064200
-6.791600 0.075100
-6.772100 0.083800
-6.752700 0.091100
-6.733200 0.093600
-6.713700 0.098000
-6.694200 0.103800
-6.674800 0.110700
-6.655300 0.114900
-6.635800 0.121300
-6.616300 0.127700
-6.596900 0.132700
-6.577400 0.134500
-6.557900 0.138400
-6.538400 0.142800
-6.519000 0.147500
-6.499500 0.151800
-6.480000 0.155400
-6.460500 0.158200
-6.441100 0.161600
-6.421600 0.166100
-6.402100 0.171300
-6.382700 0.176600
-6.363200 0.179900
-6.343700 0.183100
-6.324200 0.185800
-6.304800 0.188500
-6.285300 0.191500
-6.265800 0.195200
-6.246300 0.198600
-6.226900 0.201900
-6.207400 0.205100
-6.187900 0.208300
-6.168400 0.211600
-6.149000 0.215100
-6.129500 0.218800
-6.110000 0.222800
-6.090500 0.226700
-6.071100 0.229900
-6.051600 0.233200
-6.032100 0.236600
-6.012600 0.239500
-5.993200 0.241800
-5.973700 0.244200
-5.954200 0.246800
-5.934800 0.249600
-5.915300 0.252500
-5.895800 0.256200
-5.876300 0.259500
-5.856900 0.262900
-5.837400 0.266300
-5.817900 0.269900
-5.798400 0.273600
-5.779000 0.277400
-5.759500 0.281000
-5.740000 0.284100
-5.720500 0.286800
-5.701100 0.289400
-5.681600 0.292400
-5.662100 0.295400
-5.642600 0.298400
-5.623200 0.301400
-5.603700 0.304500
-5.584200 0.307700
-5.564700 0.310900
-5.545300 0.314200
-5.525800 0.317500
-5.506300 0.320800
-5.486900 0.324100
-5.467400 0.327400
-5.447900 0.331500
-5.428400 0.335400
-5.409000 0.339400
-5.389500 0.343500
-5.370000 0.347100
-5.350500 0.350400
-5.331100 0.353500
-5.311600 0.356700
-5.292100 0.360200
-5.272600 0.363500
-5.253200 0.366900
-5.233700 0.370300
-5.214200 0.373900
-5.194700 0.377800
-5.175300 0.382000
-5.155800 0.386200
-5.136300 0.390400
-5.116800 0.394500
-5.097400 0.398700
-5.077900 0.403000
-5.058400 0.407300
-5.039000 0.411600
-5.019500 0.415900
-5.000000 0.420300
-4.980500 0.424500
-4.961100 0.429400
-4.941600 0.434100
-4.922100 0.438900
-4.902600 0.443800
-4.883200 0.448800
-4.863700 0.453800
-4.844200 0.458900
-4.824700 0.464100
-4.805300 0.469300
-4.785800 0.474500
-4.766300 0.479800
-4.746800 0.485200
-4.727400 0.491000
-4.707900 0.497200
-4.688400 0.503800
-4.668900 0.510500
-4.649500 0.517200
-4.630000 0.523800
-4.610500 0.530600
-4.591100 0.537400
-4.571600 0.544200
-4.552100 0.551500
-4.532600 0.559300
-4.513200 0.567100
-4.493700 0.575200
-4.474200 0.585100
-4.454700 0.594600
-4.435300 0.604400
-4.415800 0.614500
-4.396300 0.624800
-4.376800 0.635400
-4.357400 0.646400
-4.337900 0.657600
-4.318400 0.669100
-4.298900 0.681100
-4.279500 0.694200
-4.260000 0.708800
-4.240500 0.724600
-4.221000 0.741000
-4.201600 0.757900
-4.182100 0.775500
-4.162600 0.796300
-4.143200 0.818400
-4.123700 0.841900
-4.104200 0.872000
-4.084700 0.906300
-4.065300 0.945800
-4.045800 0.990300
-4.026300 1.040400
-4.006800 1.116700
-3.987400 1.201500
-3.967900 1.278100
-3.948400 1.260200
-3.928900 1.234800
-3.909500 1.214900
-3.890000 1.200700
-3.870500 1.220400
-3.851000 1.206300
-3.831600 1.232000
-3.812100 1.250900
-3.792600 1.227700
-3.773100 1.230100
-3.753700 1.220000
-3.734200 1.207500
-3.714700 1.194200
-3.695300 1.188700
-3.675800 1.183000
-3.656300 1.176700
-3.636800 1.213400
-3.617400 1.251700
-3.597900 1.239600
-3.578400 1.236300
-3.558900 1.210000
-3.539500 1.133500
-3.520000 1.011900
-3.500500 0.837500
-3.481000 0.695800
-3.461600 0.588500
-3.442100 0.522100
-3.422600 0.505600
-3.403100 0.487400
-3.383700 0.464300
-3.364200 0.442900
-3.344700 0.433300
-3.325200 0.425500
-3.305800 0.406300
-3.286300 0.389000
-3.266800 0.372900
-3.247400 0.358000
-3.227900 0.344400
-3.208400 0.333400
-3.188900 0.323000
-3.169500 0.313000
-3.150000 0.303900
-3.130500 0.295300
-3.111000 0.287300
-3.091600 0.275800
-3.072100 0.268900
-3.052600 0.262700
-3.033100 0.256400
-3.013700 0.249700
-2.994200 0.242800
-2.974700 0.235500
-2.955200 0.229700
-2.935800 0.222000
-2.916300 0.214700
-2.896800 0.208200
-2.877300 0.202300
-2.857900 0.196600
-2.838400 0.191200
-2.818900 0.186000
-2.799500 0.179600
-2.780000 0.173900
-2.760500 0.168500
-2.741000 0.164000
-2.721600 0.159700
-2.702100 0.155700
-2.682600 0.152000
-2.663100 0.148400
-2.643700 0.144500
-2.624200 0.140200
-2.604700 0.135900
-2.585200 0.130600
-2.565800 0.125900
-2.546300 0.121800
-2.526800 0.118100
-2.507300 0.114700
-2.487900 0.110700
-2.468400 0.106400
-2.448900 0.102300
-2.429400 0.098400
-2.410000 0.094900
-2.390500 0.092200
-2.371000 0.090300
-2.351600 0.088100
-2.332100 0.084800
-2.312600 0.080600
-2.293100 0.076000
-2.273700 0.071600
-2.254200 0.069500
-2.234700 0.065600
-2.215200 0.061900
-2.195800 0.058200
-2.176300 0.054700
-2.156800 0.051300
-2.137300 0.051800
-2.117900 0.048700
-2.098400 0.044500
-2.078900 0.039200
-2.059400 0.032800
-2.040000 0.028500
-2.020500 0.024600
-2.001000 0.019600
-1.981500 0.013600
-1.962100 0.000000
-1.942600 0.000000
-1.923100 0.000000
-1.903700 0.000000
-1.884200 0.000000
-1.864700 0.000000
-1.845200 0.000000
-1.825800 0.000000
-1.806300 0.000000
-1.786800 0.000000
-1.767300 0.000000
-1.747900 0.000000
-1.728400 0.000000
-1.708900 0.000000
-1.689400 0.000000
-1.670000 0.000000
-1.650500 0.000000
-1.631000 0.000000
-1.611500 0.000000
-1.592100 0.000000
-1.572600 0.000000
-1.553100 0.000000
-1.533600 0.000000
-1.514200 0.000000
-1.494700 0.000000
-1.475200 0.000000
-1.455800 0.000000
-1.436300 0.000000
-1.416800 0.000000
-1.397300 0.000000
-1.377900 0.000000
-1.358400 0.000000
-1.338900 0.000000
-1.319400 0.000000
-1.300000 0.000000
-1.280500 0.000000
-1.261000 0.000000
-1.241500 0.000000
-1.222100 0.000000
-1.202600 0.000000
-1.183100 0.000000
-1.163600 0.000000
-1.144200 0.000000
-1.124700 0.000000
-1.105200 0.000000
-1.085700 0.000000
-1.066300 0.000000
-1.046800 0.000000
-1.027300 0.000000
-1.007900 0.000000
-0.988400 0.000000
-0.968900 0.000000
-0.949400 0.000000
-0.930000 0.000000
-0.910500 0.000000
-0.891000 0.000000
-0.871500 0.000000
-0.852100 0.000000
-0.832600 0.000000
-0.813100 0.000000
-0.793600 0.000000
-0.774200 0.000000
-0.754700 0.000000
-0.735200 0.000000
-0.715700 0.000000
-0.696300 0.000000
-0.676800 0.000000
-0.657300 0.000000
-0.637900 0.000000
-0.618400 0.000000
-0.598900 0.000000
-0.579400 0.000000
-0.560000 0.000000
-0.540500 0.000000
-0.521000 0.000000
-0.501500 0.000000
-0.482100 0.000000
-0.462600 0.000000
-0.443100 0.000000
-0.423600 0.000000
-0.404200 0.000000
-0.384700 0.000000
-0.365200 0.000000
-0.345700 0.000000
-0.326300 0.000000
-0.306800 0.000000
-0.287300 0.000000
-0.267800 0.000000
-0.248400 0.000000
-0.228900 0.000000
-0.209400 0.000000
-0.190000 0.000000
-0.170500 0.000000
-0.151000 0.000000
-0.131500 0.000000
-0.112100 0.000000
-0.092600 0.000000
-0.073100 0.000000
-0.053600 0.000000
-0.034200 0.000000
-0.014700 0.000000
0.004800 0.000000
0.024300 0.000000
0.043700 0.000000
0.063200 0.000000
0.082700 0.000000
0.102200 0.000000
0.121600 0.000000
0.141100 0.000000
0.160600 0.000000
0.180100 0.000000
0.199500 0.000000
0.219000 0.000000
0.238500 0.000000
0.257900 0.000000
0.277400 0.000000
0.296900 0.000000
0.316400 0.000000
0.335800 0.000000
0.355300 0.000000
0.374800 0.000000
0.394300 0.000000
0.413700 0.000000
0.433200 0.000000
0.452700 0.000000
0.472200 0.000000
0.491600 0.000000
0.511100 0.000000
0.530600 0.000000
0.550100 0.000000
0.569500 0.000000
0.589000 0.000000
0.608500 0.000000
0.628000 0.000000
0.647400 0.000000
0.666900 0.000000
0.686400 0.000000
0.705800 0.000000
0.725300 0.000000
0.744800 0.000000
0.764300 0.000000
0.783700 0.000000
0.803200 0.000000
0.822700 0.000000
0.842200 0.000000
0.861600 0.000000
0.881100 0.000000
0.900600 0.000000
0.920100 0.000000
0.939500 0.000000
0.959000 0.000000
0.978500 0.000000
0.998000 0.000000
1.017400 0.000000
1.036900 0.000000
1.056400 0.000000
1.075900 0.000000
1.095300 0.000000
1.114800 0.000000
1.134300 0.000000
1.153700 0.000000
1.173200 0.000000
1.192700 0.000000
1.212200 0.000000
1.231600 0.000000
1.251100 0.000000
1.270600 0.000000
1.290100 0.000000
1.309500 0.000000
1.329000 0.000000
1.348500 0.000000
1.368000 0.000000
1.387400 0.000000
1.406900 0.000000
1.426400 0.000000
1.445900 0.000000
1.465300 0.000000
1.484800 0.000000
1.504300 0.000000
1.523800 0.000000
1.543200 0.000000
1.562700 0.039800
1.582200 0.083200
1.601600 0.097800
1.621100 0.113200
1.640600 0.135700
1.660100 0.157800
1.679500 0.172900
1.699000 0.192800
1.718500 0.218500
1.738000 0.240000
1.757400 0.252800
1.776900 0.252600
1.796400 0.257400
1.815900 0.271300
1.835300 0.286500
1.854800 0.299600
1.874300 0.310500
1.893800 0.320600
1.913200 0.340900
1.932700 0.330200
1.952200 0.343100
1.971700 0.356400
1.991100 0.370000
2.010600 0.384100
2.030100 0.398600
2.049500 0.412800
2.069000 0.423800
2.088500 0.432100
2.108000 0.436800
2.127400 0.446800
2.146900 0.457800
2.166400 0.469200
2.185900 0.479000
2.205300 0.481600
2.224800 0.491300
2.244300 0.500900
2.263800 0.509900
2.283200 0.520800
2.302700 0.532000
2.322200 0.543700
2.341700 0.555800
2.361100 0.568800
2.380600 0.582600
2.400100 0.597000
2.419600 0.612400
2.439000 0.629000
2.458500 0.641800
2.478000 0.655000
2.497400 0.666700
2.516900 0.678700
2.536400 0.694200
2.555900 0.712800
2.575300 0.733300
2.594800 0.756700
2.614300 0.780700
2.633800 0.805600
2.653200 0.834600
2.672700 0.868400
2.692200 0.908800
2.711700 0.947300
2.731100 0.982300
2.750600 1.014000
2.770100 1.040700
2.789600 1.061500
2.809000 1.102000
2.828500 1.095500
2.848000 1.089700
2.867500 1.094800
2.886900 1.067900
2.906400 1.042800
2.925900 1.026000
2.945300 1.011200
2.964800 0.952800
2.984300 0.975900
3.003800 0.918600
3.023200 0.888500
3.042700 0.860000
3.062200 0.833200
3.081700 0.809000
3.101100 0.787100
3.120600 0.766600
3.140100 0.745700
3.159600 0.723900
3.179000 0.709500
3.198500 0.697900
3.218000 0.687700
3.237500 0.676100
3.256900 0.665500
3.276400 0.655800
3.295900 0.634000
3.315400 0.622600
3.334800 0.611100
3.354300 0.617900
3.373800 0.580700
3.393200 0.573900
3.412700 0.567600
3.432200 0.561400
3.451700 0.555300
3.471100 0.549300
3.490600 0.539500
3.510100 0.534500
3.529600 0.529900
3.549000 0.525900
3.568500 0.522800
3.588000 0.520300
3.607500 0.518100
3.626900 0.515800
3.646400 0.536900
3.665900 0.542800
3.685400 0.527600
3.704800 0.527600
3.724300 0.527600
3.743800 0.525100
3.763300 0.522500
3.782700 0.522500
3.802200 0.522300
3.821700 0.521900
3.841100 0.527900
3.860600 0.528700
3.880100 0.537500
3.899600 0.540200
3.919000 0.541000
3.938500 0.545100
3.958000 0.550700
3.977500 0.556000
3.996900 0.561100
4.016400 0.565900
4.035900 0.571300
4.055400 0.562200
4.074800 0.564200
4.094300 0.566000
4.113800 0.567400
4.133300 0.568600
4.152700 0.569600
4.172200 0.569300
4.191700 0.567300
4.211200 0.564900
4.230600 0.561900
4.250100 0.577900
4.269600 0.565500
4.289000 0.548100
4.308500 0.543300
4.328000 0.539200
4.347500 0.535800
4.366900 0.533400
4.386400 0.532200
4.405900 0.535400
4.425400 0.539000
4.444800 0.541300
4.464300 0.544500
4.483800 0.550400
4.503300 0.552300
4.522700 0.546500
4.542200 0.547200
4.561700 0.549200
4.581200 0.551300
4.600600 0.560400
4.620100 0.571100
4.639600 0.583000
4.659100 0.590700
4.678500 0.588500
4.698000 0.598000
4.717500 0.608900
4.736900 0.609900
4.756400 0.620300
4.775900 0.624700
4.795400 0.632700
4.814800 0.636300
4.834300 0.648600
4.853800 0.660400
4.873300 0.641500
4.892700 0.644800
4.912200 0.647600
4.931700 0.648800
4.951200 0.651400
4.970600 0.653800
4.990100 0.671100
5.009600 0.663600
5.029100 0.648600
5.048500 0.648500
5.068000 0.648200
5.087500 0.646900
5.107000 0.648100
5.126400 0.649900
5.145900 0.651200
5.165400 0.652200
5.184800 0.652800
5.204300 0.653100
5.223800 0.653400
5.243300 0.661800
5.262700 0.662600
5.282200 0.662700
5.301700 0.662500
5.321200 0.662700
5.340600 0.662900
5.360100 0.663400
5.379600 0.678900
5.399100 0.674800
5.418500 0.672600
5.438000 0.670100
5.457500 0.668200
5.477000 0.664700
5.496400 0.657400
5.515900 0.652800
5.535400 0.652600
5.554900 0.651900
5.574300 0.653000
5.593800 0.654100
5.613300 0.655000
5.632700 0.655900
5.652200 0.656700
5.671700 0.657500
5.691200 0.658300
5.710600 0.661000
5.730100 0.663200
5.749600 0.664600
5.769100 0.664900
5.788500 0.664500
5.808000 0.664600
5.827500 0.666500
5.847000 0.666500
5.866400 0.666800
5.885900 0.666600
5.905400 0.665800
5.924900 0.665400
5.944300 0.667800
5.963800 0.668800
5.983300 0.677900
6.002800 0.676400
6.022200 0.677300
6.041700 0.680100
6.061200 0.681800
6.080600 0.678000
6.100100 0.670800
6.119600 0.667300
6.139100 0.667200
6.158500 0.665200
6.178000 0.665000
6.197500 0.664900
6.217000 0.664800
6.236400 0.665200
6.255900 0.668100
6.275400 0.670600
6.294900 0.672800
6.314300 0.673700
6.333800 0.673700
6.353300 0.673700
6.372800 0.673800
6.392200 0.674000
6.411700 0.674500
6.431200 0.675400
6.450700 0.676300
6.470100 0.677300
6.489600 0.678100
6.509100 0.677700
6.528500 0.677900
6.548000 0.678500
6.567500 0.679100
6.587000 0.679800
6.606400 0.681600
6.625900 0.682200
6.645400 0.682900
6.664900 0.683500
6.684300 0.697600
6.703800 0.722400
6.723300 0.709400
6.742800 0.708300
6.762200 0.699400
6.781700 0.685900
6.801200 0.686300
6.820700 0.686900
6.840100 0.690400
6.859600 0.694100
6.879100 0.697000
6.898600 0.697800
6.918000 0.696900
6.937500 0.696200
6.957000 0.695700
6.976400 0.695900
6.995900 0.696000
7.015400 0.696200
7.034900 0.696500
7.054300 0.696900
7.073800 0.697400
7.093300 0.697500
7.112800 0.698000
7.132200 0.698600
7.151700 0.699300
7.171200 0.700100
7.190700 0.701000
7.210100 0.701900
7.229600 0.702700
7.249100 0.703500
7.268600 0.704300
7.288000 0.705300
7.307500 0.705500
7.327000 0.706500
7.346500 0.707400
7.365900 0.708300
7.385400 0.709400
7.404900 0.717600
7.424300 0.727700
7.443800 0.739500
7.463300 0.750400
7.482800 0.747900
7.502200 0.754400
7.521700 0.736200
7.541200 0.739800
7.560700 0.734200
7.580100 0.731800
7.599600 0.732000
7.619100 0.732100
7.638600 0.732000
7.658000 0.732900
7.677500 0.733100
7.697000 0.733300
7.716500 0.733600
7.735900 0.732100
7.755400 0.732300
7.774900 0.739600
7.794400 0.747800
7.813800 0.754500
7.833300 0.762800
7.852800 0.758400
7.872200 0.755500
7.891700 0.752500
7.911200 0.747900
7.930700 0.743400
7.950100 0.738300
7.969600 0.732500
7.989100 0.726200
8.008600 0.719400
8.028000 0.717500
8.047500 0.708400
8.067000 0.701500
8.086500 0.695500
8.105900 0.690900
8.125400 0.687000
8.144900 0.691700
8.164400 0.701800
8.183800 0.697900
8.203300 0.693100
8.222800 0.691800
8.242300 0.689800
8.261700 0.689200
8.281200 0.690000
8.300700 0.690500
8.320100 0.690100
8.339600 0.689000
8.359100 0.695300
8.378600 0.691700
8.398000 0.690300
8.417500 0.690900
8.437000 0.692700
8.456500 0.692100
8.475900 0.694000
8.495400 0.696000
8.514900 0.698100
8.534400 0.700200
8.553800 0.702400
8.573300 0.703700
8.592800 0.704800
8.612300 0.706800
8.631700 0.709000
8.651200 0.711000
8.670700 0.714100
8.690200 0.717300
8.709600 0.720600
8.729100 0.724100
8.748600 0.727800
8.768000 0.731900
8.787500 0.732400
8.807000 0.737300
8.826500 0.747300
8.845900 0.764400
8.865400 0.768900
8.884900 0.775600
8.904400 0.784100
8.923800 0.793200
8.943300 0.803000
8.962800 0.811500
8.982300 0.822300
9.001700 0.833800
9.021200 0.845800
9.040700 0.858500
9.060200 0.872000
9.079600 0.886300
9.099100 0.902200
9.118600 0.921100
9.138100 0.942300
9.157500 0.964700
9.177000 0.988300
9.196500 1.013700
9.215900 1.041200
9.235400 1.070800
9.254900 1.102300
9.274400 1.136600
9.293800 1.175400
9.313300 1.215900
9.332800 1.264300
9.352300 1.336400
9.371700 1.385200
9.391200 1.385100
9.410700 1.377900
9.430200 1.368700
9.449600 1.360600
9.469100 1.354300
9.488600 1.580200
9.508100 1.228100
9.527500 0.979400
9.547000 0.906900
9.566500 0.856500
9.586000 0.821400
9.605400 0.799900
9.624900 0.782700
9.644400 0.767300
9.663800 0.743500
9.683300 0.727800
9.702800 0.709100
9.722300 0.686800
9.741700 0.662800
9.761200 0.637000
9.780700 0.615700
9.800200 0.606700
9.819600 0.586300
9.839100 0.566400
9.858600 0.546700
9.878100 0.527200
9.897500 0.508400
9.917000 0.492200
9.936500 0.473500
9.956000 0.459500
9.975400 0.446500
9.994900 0.445600
10.014400 0.434700
10.033800 0.429900
10.053300 0.421100
10.072800 0.412100
10.092300 0.404000
10.111700 0.396900
10.131200 0.390500
10.150700 0.384500
10.170200 0.387100
10.189600 0.385000
10.209100 0.412600
10.228600 0.401900
10.248100 0.391400
10.267500 0.375200
10.287000 0.363200
10.306500 0.358700
10.326000 0.356400
10.345400 0.355600
10.364900 0.355700
10.384400 0.347600
10.403900 0.343700
10.423300 0.340300
10.442800 0.337100
10.462300 0.359800
10.481700 0.335600
10.501200 0.346000
10.520700 0.333400
10.540200 0.324000
10.559600 0.315100
10.579100 0.310500
10.598600 0.307700
10.618100 0.307200
10.637500 0.306800
10.657000 0.304500
10.676500 0.303700
10.696000 0.302100
10.715400 0.299600
10.734900 0.296300
10.754400 0.294000
10.773900 0.295400
10.793300 0.300900
10.812800 0.292200
10.832300 0.286300
10.851800 0.283100
10.871200 0.280100
10.890700 0.275200
10.910200 0.270900
10.929600 0.268800
10.949100 0.267800
10.968600 0.266600
10.988100 0.265100
11.007500 0.263500
11.027000 0.261800
11.046500 0.265800
11.066000 0.254700
11.085400 0.247700
11.104900 0.243500
11.124400 0.238900
11.143900 0.234300
11.163300 0.230200
11.182800 0.226900
11.202300 0.224600
11.221800 0.223200
11.241200 0.222700
11.260700 0.228000
11.280200 0.216600
11.299700 0.210400
11.319100 0.204600
11.338600 0.199000
11.358100 0.193700
11.377500 0.188400
11.397000 0.183500
11.416500 0.179400
11.436000 0.184900
11.455400 0.167400
11.474900 0.162700
11.494400 0.163700
11.513900 0.165000
11.533300 0.166400
11.552800 0.168000
11.572300 0.169600
11.591800 0.171200
11.611200 0.172800
11.630700 0.174500
11.650200 0.175900
11.669700 0.177400
11.689100 0.178800
11.708600 0.180100
11.728100 0.181400
11.747600 0.182400
11.767000 0.183800
11.786500 0.185200
11.806000 0.186700
11.825400 0.188200
11.844900 0.189700
11.864400 0.191300
11.883900 0.192800
11.903300 0.194500
11.922800 0.196100
11.942300 0.197900
11.961800 0.199300
11.981200 0.200800
12.000700 0.202300
12.020200 0.203700
12.039700 0.205100
12.059100 0.206500
12.078600 0.207800
12.098100 0.209200
12.117600 0.210500
12.137000 0.211700
12.156500 0.213000
12.176000 0.214200
12.195500 0.215400
12.214900 0.216600
12.234400 0.217700
12.253900 0.219100
12.273300 0.220500
12.292800 0.221900
12.312300 0.223300
12.331800 0.224700
12.351200 0.227500
12.370700 0.231000
12.390200 0.235200
12.409700 0.240100
12.429100 0.245600
12.448600 0.251700
12.468100 0.258300
12.487600 0.265500
12.507000 0.273300
12.526500 0.281500
12.546000 0.290400
12.565500 0.299800
12.584900 0.309800
12.604400 0.320400
12.623900 0.331600
12.643400 0.345500
12.662800 0.361600
12.682300 0.366400
12.701800 0.368700
12.721200 0.374700
12.740700 0.383700
12.760200 0.393600
12.779700 0.403900
12.799100 0.414100
12.818600 0.411800
12.838100 0.420400
12.857600 0.429200
12.877000 0.438200
12.896500 0.447500
12.916000 0.457100
12.935500 0.467300
12.954900 0.478200
12.974400 0.489800
12.993900 0.502200
13.013400 0.513900
13.032800 0.524400
13.052300 0.529700
13.071800 0.544800
13.091300 0.562200
13.110700 0.581700
13.130200 0.603600
13.149700 0.621400
13.169100 0.634400
13.188600 0.646400
13.208100 0.660300
13.227600 0.676300
13.247000 0.693200
13.266500 0.710800
13.286000 0.729700
13.305500 0.750300
13.324900 0.772600
13.344400 0.796600
13.363900 0.822300
13.383400 0.840300
13.402800 0.870600
13.422300 0.904000
13.441800 0.938600
13.461300 0.978000
13.480700 1.031600
13.500200 1.089000
13.519700 1.146000
13.539200 1.202500
13.558600 1.257000
13.578100 1.316500
13.597600 1.388700
13.617000 1.470400
13.636500 1.539300
13.656000 1.570000
13.675500 1.503500
13.694900 1.330900
13.714400 1.181400
13.733900 1.073200
13.753400 0.998700
13.772800 0.947600
13.792300 0.916800
13.811800 0.891700
13.831300 0.860700
13.850700 0.837800
13.870200 0.822400
13.889700 0.809300
13.909200 0.797800
13.928600 0.787900
13.948100 0.779100
13.967600 0.771700
13.987100 0.788000
14.006500 0.768100
14.026000 0.742800
14.045500 0.711000
14.064900 0.697300
14.084400 0.692000
14.103900 0.696100
14.123400 0.704800
14.142800 0.710300
14.162300 0.702900
14.181800 0.693600
14.201300 0.694200
14.220700 0.694400
14.240200 0.696500
14.259700 0.700000
14.279200 0.700500
14.298600 0.707600
14.318100 0.717200
14.337600 0.728000
14.357100 0.739900
14.376500 0.757700
14.396000 0.774500
14.415500 0.795600
14.435000 0.822400
14.454400 0.792100
14.473900 0.813100
14.493400 0.840200
14.512800 0.863700
14.532300 0.887700
14.551800 0.913800
14.571300 0.939100
14.590700 0.958600
14.610200 0.977100
14.629700 0.994000
14.649200 1.008000
14.668600 1.016900
14.688100 1.050300
14.707600 1.059100
14.727100 1.076900
14.746500 1.096000
14.766000 1.116800
14.785500 1.138700
14.805000 1.165400
14.824400 1.200200
14.843900 1.252200
14.863400 1.305100
14.882900 1.349300
14.902300 1.363500
14.921800 1.381300
14.941300 1.382900
14.960700 1.388600
14.980200 1.379500
14.999700 1.375100
15.019200 1.379600
15.038600 1.377900
15.058100 1.373800
15.077600 1.374000
15.097100 1.380900
15.116500 1.386200
15.136000 1.390500
15.155500 1.386900
15.175000 1.371900
15.194400 1.355900
15.213900 1.341600
15.233400 1.329500
15.252900 1.311400
15.272300 1.298800
15.291800 1.281600
15.311300 1.264600
15.330800 1.245800
15.350200 1.225200
15.369700 1.203600
15.389200 1.182100
15.408600 1.173100
15.428100 1.150300
15.447600 1.125900
15.467100 1.097000
15.486500 1.059500
15.506000 1.017100
15.525500 0.977800
15.545000 0.952800
15.564400 0.935800
15.583900 0.920700
15.603400 0.906900
15.622900 0.893600
15.642300 0.884400
15.661800 0.876600
15.681300 0.874900
15.700800 0.876200
15.720200 0.879000
15.739700 0.933000
15.759200 0.935700
15.778700 0.890900
15.798100 0.892300
15.817600 0.895400
15.837100 0.900300
15.856500 0.906700
15.876000 0.913800
15.895500 0.921900
15.915000 0.931600
15.934400 0.942200
15.953900 0.954100
15.973400 0.967100
15.992900 0.977400
16.012300 0.986600
16.031800 1.013700
16.051300 1.028700
16.070800 1.042700
16.090200 1.036700
16.109700 1.043200
16.129200 1.047300
16.148700 1.050500
16.168100 1.054500
16.187600 1.058300
16.207100 1.061700
16.226600 1.064500
16.246000 1.067000
16.265500 1.068100
16.285000 1.068400
16.304400 1.067900
16.323900 1.062900
16.343400 1.079300
16.362900 1.076500
16.382300 1.058600
16.401800 1.067100
16.421300 1.082500
16.440800 1.106000
16.460200 1.261000
16.479700 1.171900
16.499200 1.183600
16.518700 1.192600
16.538100 1.188400
16.557600 1.183700
16.577100 1.169200
16.596600 1.142500
16.616000 1.126400
16.635500 1.114200
16.655000 1.100200
16.674500 1.073900
16.693900 1.073700
16.713400 1.074700
16.732900 1.076600
16.752300 1.079300
16.771800 1.079100
16.791300 1.078900
16.810800 1.140000
16.830200 1.131900
16.849700 1.082500
16.869200 1.081600
16.888700 1.067500
16.908100 1.059600
16.927600 1.050400
16.947100 1.042900
16.966600 1.038600
16.986000 1.035400
17.005500 1.032600
17.025000 1.031700
17.044500 1.030000
17.063900 1.029000
17.083400 1.028400
17.102900 1.028100
17.122400 1.026900
17.141800 1.026400
17.161300 1.028200
17.180800 1.030400
17.200200 1.049300
17.219700 1.099800
17.239200 1.153800
17.258700 1.124400
17.278100 1.106500
17.297600 1.147300
17.317100 1.109700
17.336600 1.085400
17.356000 1.058900
17.375500 1.034400
17.395000 1.013200
17.414500 1.006700
17.433900 1.001400
17.453400 0.996900
17.472900 0.995000
17.492400 0.993900
17.511800 0.993500
17.531300 0.992800
17.550800 0.991400
17.570300 0.989300
17.589700 0.986700
17.609200 0.986000
17.628700 0.981100
17.648100 0.981400
17.667600 0.978300
17.687100 0.975500
17.706600 0.973200
17.726000 0.972100
17.745500 0.972100
17.765000 0.972700
17.784500 0.973600
17.803900 0.991200
17.823400 0.987700
17.842900 0.984300
17.862400 0.981500
17.881800 0.979600
17.901300 0.981000
17.920800 0.985400
17.940300 0.992200
17.959700 1.001600
17.979200 1.004300
17.998700 1.019800
18.018200 1.033600
18.037600 1.047500
18.057100 1.064100
18.076600 1.087200
18.096000 1.117800
18.115500 1.141700
18.135000 1.161300
18.154500 1.150200
18.173900 1.120700
18.193400 1.124000
18.212900 1.110700
18.232400 1.101800
18.251800 1.107300
18.271300 1.127100
18.290800 1.141400
18.310300 1.156000
18.329700 1.177500
18.349200 1.205600
18.368700 1.158200
18.388200 1.142200
18.407600 1.144700
18.427100 1.148000
18.446600 1.148300
18.466100 1.146100
18.485500 1.148200
18.505000 1.149700
18.524500 1.150500
18.543900 1.149300
18.563400 1.146600
18.582900 1.152300
18.602400 1.152600
18.621800 1.153700
18.641300 1.155700
18.660800 1.160300
18.680300 1.163100
18.699700 1.165000
18.719200 1.168000
18.738700 1.179200
18.758200 1.190400
18.777600 1.203000
18.797100 1.203100
18.816600 1.208300
18.836100 1.213500
18.855500 1.216500
18.875000 1.209100
18.894500 1.198700
18.914000 1.202900
18.933400 1.215400
18.952900 1.218400
18.972400 1.215400
18.991800 1.225300
19.011300 1.225100
19.030800 1.220900
19.050300 1.219000
19.069700 1.217100
19.089200 1.214800
19.108700 1.210000
19.128200 1.210900
19.147600 1.212400
19.167100 1.206900
19.186600 1.208300
19.206100 1.211000
19.225500 1.215500
19.245000 1.230600
19.264500 1.232600
19.284000 1.237900
19.303400 1.243200
19.322900 1.263600
19.342400 1.266100
19.361900 1.280400
19.381300 1.276300
19.400800 1.274000
19.420300 1.281400
19.439700 1.298700
19.459200 1.320800
19.478700 1.360100
19.498200 1.356000
19.517600 1.350200
19.537100 1.338100
19.556600 1.347600
19.576100 1.358700
19.595500 1.383200
19.615000 1.413000
19.634500 1.450200
19.654000 1.481000
19.673400 1.495200
19.692900 1.494500
19.712400 1.511600
19.731900 1.508100
19.751300 1.511100
19.770800 1.510700
19.790300 1.504700
19.809800 1.511100
19.829200 1.512200
19.848700 1.492400
19.868200 1.469800
19.887600 1.458900
19.907100 1.433000
19.926600 1.410800
19.946100 1.378000
19.965500 1.360300
19.985000 1.341800
20.004500 1.331700
20.024000 1.313600
20.043400 1.281300
20.062900 1.244100
20.082400 1.211000
20.101900 1.183300
20.121300 1.163100
20.140800 1.141400
20.160300 1.125100
20.179800 1.121100
20.199200 1.117500
20.218700 1.120000
20.238200 1.111500
20.257700 1.098800
20.277100 1.088900
20.296600 1.087700
20.316100 1.087700
20.335500 1.090900
20.355000 1.107300
20.374500 1.120500
20.394000 1.105800
20.413400 1.091000
20.432900 1.100200
20.452400 1.120600
20.471900 1.129400
20.491300 1.131800
20.510800 1.129100
20.530300 1.120800
20.549800 1.106900
20.569200 1.092000
20.588700 1.071800
20.608200 1.052000
20.627700 1.036800
20.647100 1.025700
20.666600 1.018500
20.686100 1.072800
20.705500 1.011400
20.725000 1.002300
20.744500 1.000900
20.764000 0.991400
20.783400 0.981200
20.802900 0.972200
20.822400 0.988600
20.841900 0.965600
20.861300 0.935700
20.880800 0.921700
20.900300 0.918600
20.919800 0.919800
20.939200 0.926800
20.958700 0.926000
20.978200 0.946900
20.997700 0.950100
21.017100 0.931900
21.036600 0.930200
21.056100 0.927000
21.075600 0.922600
21.095000 0.910600
21.114500 0.910500
21.134000 0.910600
21.153400 0.911200
21.172900 0.910100
21.192400 0.911400
21.211900 0.911900
21.231300 0.912200
21.250800 0.912900
21.270300 0.914000
21.289800 0.914700
21.309200 0.913700
21.328700 0.914500
21.348200 0.914600
21.367700 0.915400
21.387100 0.914700
21.406600 0.914300
21.426100 0.914200
21.445600 0.914600
21.465000 0.915300
21.484500 0.917900
21.504000 0.920700
21.523500 0.930700
21.542900 0.946700
21.562400 0.968600
21.581900 0.998900
21.601300 1.038200
21.620800 1.095500
21.640300 1.102900
21.659800 1.111500
21.679200 1.134400
21.698700 1.204100
21.718200 1.246600
21.737700 1.281400
21.757100 1.303200
21.776600 1.331500
21.796100 1.364900
21.815600 1.385200
21.835000 1.391900
21.854500 1.395900
21.874000 1.390200
21.893500 1.384400
21.912900 1.383000
21.932400 1.386600
21.951900 1.567600
21.971400 1.368600
21.990800 1.370600
22.010300 1.355800
22.029800 1.339900
22.049200 1.324700
22.068700 1.311400
22.088200 1.300200
22.107700 1.296800
22.127100 1.284700
22.146600 1.280500
22.166100 1.286200
22.185600 1.287100
22.205000 1.291500
22.224500 1.295100
22.244000 1.297600
22.263500 1.308100
22.282900 1.305000
22.302400 1.302700
22.321900 1.301000
22.341400 1.312500
22.360800 1.324100
22.380300 1.336400
22.399800 1.352600
22.419300 1.363900
22.438700 1.375800
22.458200 1.388700
22.477700 1.404500
22.497100 1.419400
22.516600 1.419900
22.536100 1.419100
22.555600 1.414600
22.575000 1.412000
22.594500 1.406400
22.614000 1.403900
22.633500 1.403500
22.652900 1.407200
22.672400 1.420500
22.691900 1.403100
22.711400 1.400500
22.730800 1.378900
22.750300 1.368400
22.769800 1.360300
22.789300 1.356300
22.808700 1.417100
22.828200 1.460700
22.847700 1.519900
22.867200 1.562200
22.886600 1.597400
22.906100 1.626500
22.925600 1.596500
22.945000 1.586200
22.964500 1.575000
22.984000 1.602400
23.003500 1.609500
23.022900 1.590600
23.042400 1.566800
23.061900 1.545500
23.081400 1.533800
23.100800 1.525400
23.120300 1.518900
23.139800 1.499300
23.159300 1.496900
23.178700 1.486800
23.198200 1.486600
23.217700 1.480000
23.237200 1.472100
23.256600 1.457800
23.276100 1.446800
23.295600 1.436800
23.315100 1.431900
23.334500 1.423500
23.354000 1.417100
23.373500 1.412100
23.392900 1.406600
23.412400 1.406300
23.431900 1.406900
23.451400 1.387500
23.470800 1.374500
23.490300 1.368400
23.509800 1.363600
23.529300 1.353500
23.548700 1.347600
23.568200 1.379700
23.587700 1.381800
23.607200 1.387700
23.626600 1.398500
23.646100 1.413900
23.665600 1.433100
23.685100 1.451500
23.704500 1.469900
23.724000 1.476500
23.743500 1.461500
23.763000 1.465500
23.782400 1.469600
23.801900 1.474000
23.821400 1.476300
23.840800 1.486300
23.860300 1.520300
23.879800 1.455600
23.899300 1.458600
23.918700 1.459200
23.938200 1.458700
23.957700 1.484900
23.977200 1.465400
23.996600 1.440400
24.016100 1.421300
24.035600 1.403300
24.055100 1.376900
24.074500 1.359000
24.094000 1.350800
24.113500 1.343100
24.133000 1.336500
24.152400 1.331200
24.171900 1.323000
24.191400 1.310500
24.210900 1.302100
24.230300 1.290300
24.249800 1.279800
24.269300 1.269900
24.288700 1.263100
24.308200 1.257100
24.327700 1.247700
24.347200 1.239100
24.366600 1.231900
24.386100 1.224600
24.405600 1.219900
24.425100 1.214500
24.444500 1.208800
24.464000 1.204300
24.483500 1.200700
24.503000 1.198700
24.522400 1.197600
24.541900 1.194900
24.561400 1.190700
24.580900 1.184900
24.600300 1.177200
24.619800 1.165800
24.639300 1.156400
24.658800 1.147500
24.678200 1.138400
24.697700 1.135200
24.717200 1.167600
24.736600 1.166900
24.756100 1.133900
24.775600 1.095400
24.795100 1.058800
24.814500 1.022200
24.834000 1.016300
24.853500 0.981600
24.873000 0.908700
24.892400 0.900100
24.911900 0.892400
24.931400 0.885900
24.950900 0.879100
24.970300 0.875400
24.989800 0.892400
25.009300 0.887300
25.028800 0.872800
25.048200 0.863900
25.067700 0.878500
25.087200 0.855900
25.106700 0.853500
25.126100 0.851300
25.145600 0.849200
25.165100 0.847400
25.184500 0.832500
25.204000 0.827900
25.223500 0.821400
25.243000 0.818200
25.262400 0.818500
25.281900 0.817500
25.301400 0.817300
25.320900 0.817600
25.340300 0.818300
25.359800 0.816000
25.379300 0.808700
25.398800 0.807600
25.418200 0.807200
25.437700 0.804900
25.457200 0.805100
25.476700 0.805800
25.496100 0.807000
25.515600 0.809100
25.535100 0.810800
25.554600 0.828700
25.574000 0.835500
25.593500 0.835200
25.613000 0.843800
25.632400 0.852600
25.651900 0.862300
25.671400 0.871500
25.690900 0.882400
25.710300 0.891000
25.729800 0.900000
25.749300 0.909100
25.768800 0.919000
25.788200 0.928400
25.807700 0.935000
25.827200 0.932000
25.846700 0.938600
25.866100 0.946400
25.885600 0.956500
25.905100 0.967200
25.924600 0.974800
25.944000 0.977500
25.963500 0.978800
25.983000 0.976500
26.002500 0.974000
26.021900 0.965200
26.041400 0.954000
26.060900 0.940100
26.080300 0.923100
26.099800 0.903800
26.119300 0.883100
26.138800 0.849000
26.158200 0.808100
26.177700 0.804900
26.197200 0.817500
26.216700 0.777100
26.236100 0.744700
26.255600 0.729800
26.275100 0.716300
26.294600 0.702500
26.314000 0.688700
26.333500 0.676500
26.353000 0.666100
26.372500 0.654600
26.391900 0.647300
26.411400 0.641500
26.430900 0.628100
26.450400 0.605900
26.469800 0.587700
26.489300 0.574800
26.508800 0.564100
26.528200 0.555800
26.547700 0.553500
26.567200 0.572400
26.586700 0.558400
26.606100 0.532800
26.625600 0.507400
26.645100 0.496800
26.664600 0.488300
26.684000 0.480600
26.703500 0.473100
26.723000 0.465700
26.742500 0.458600
26.761900 0.451600
26.781400 0.445500
26.800900 0.439700
26.820400 0.433800
26.839800 0.428100
26.859300 0.422600
26.878800 0.417500
26.898300 0.417600
26.917700 0.412300
26.937200 0.407300
26.956700 0.401700
26.976100 0.395400
26.995600 0.389100
27.015100 0.382500
27.034600 0.374900
27.054000 0.366700
27.073500 0.354500
27.093000 0.347200
27.112500 0.340400
27.131900 0.334800
27.151400 0.329600
27.170900 0.325000
27.190400 0.320900
27.209800 0.317500
27.229300 0.314500
27.248800 0.312400
27.268300 0.310700
27.287700 0.298500
27.307200 0.292300
27.326700 0.287400
27.346200 0.280800
27.365600 0.275300
27.385100 0.269800
27.404600 0.264300
27.424000 0.258900
27.443500 0.253500
27.463000 0.248100
27.482500 0.242700
27.501900 0.237400
27.521400 0.232100
27.540900 0.226800
27.560400 0.221800
27.579800 0.216400
27.599300 0.211000
27.618800 0.204300
27.638300 0.197200
27.657700 0.190100
27.677200 0.183100
27.696700 0.176200
27.716200 0.169300
27.735600 0.162600
27.755100 0.154100
27.774600 0.149000
27.794100 0.144200
27.813500 0.139600
27.833000 0.135200
27.852500 0.131000
27.871900 0.127100
27.891400 0.123200
27.910900 0.119600
27.930400 0.116300
27.949800 0.113900
27.969300 0.111000
27.988800 0.105600
28.008300 0.100000
28.027700 0.094600
28.047200 0.089600
28.066700 0.085200
28.086200 0.081300
28.105600 0.077800
28.125100 0.074200
28.144600 0.070700
28.164100 0.067200
28.183500 0.063700
28.203000 0.060300
28.222500 0.056900
28.242000 0.053500
28.261400 0.050100
28.280900 0.046800
28.300400 0.043400
28.319800 0.040200
28.339300 0.036800
28.358800 0.032200
28.378300 0.027800
28.397700 0.023700
28.417200 0.019800
28.436700 0.016100
28.456200 0.012700
28.475600 0.009500
28.495100 0.006500
28.514600 0.000000
28.534100 0.000000
28.553500 0.000000
28.573000 0.000000
28.592500 0.000000
28.612000 0.000000
28.631400 0.000000
28.650900 0.000000
28.670400 0.000000
28.689900 0.000000
28.709300 0.000000
28.728800 0.000000
28.748300 0.000000
28.767700 0.000000
28.787200 0.000000
28.806700 0.000000
28.826200 0.000000
28.845600 0.000000
28.865100 0.000000
28.884600 0.000000
28.904100 0.000000
28.923500 0.000000
28.943000 0.000000
28.962500 0.000000
28.982000 0.000000
29.001400 0.000000
29.020900 0.000000
29.040400 0.000000
29.059900 0.000000
29.079300 0.000000
29.098800 0.000000
29.118300 0.000000
29.137800 0.000000
29.157200 0.000000
29.176700 0.000000
29.196200 0.000000
29.215600 0.000000
29.235100 0.000000
29.254600 0.000000
29.274100 0.000000
29.293500 0.000000
29.313000 0.000000
29.332500 0.000000
29.352000 0.000000
29.371400 0.000000
29.390900 0.000000
29.410400 0.000000
29.429900 0.000000
29.449300 0.000000
29.468800 0.000000
29.488300 0.000000
29.507800 0.000000
29.527200 0.000000
29.546700 0.000000
29.566200 0.000000
29.585700 0.000000
29.605100 0.000000
29.624600 0.000000
29.644100 0.000000
29.663500 0.000000
29.683000 0.000000
29.702500 0.000000
29.722000 0.000000
29.741400 0.000000
29.760900 0.000000
29.780400 0.000000
29.799900 0.000000
29.819300 0.000000
29.838800 0.000000
29.858300 0.000000
29.877800 0.000000
29.897200 0.000000
29.916700 0.000000
29.936200 0.000000
29.955700 0.000000
29.975100 0.000000
29.994600 0.000000
30.014100 0.000000
30.033600 0.000000
30.053000 0.000000
30.072500 0.000000
30.092000 0.000000
30.111400 0.000000
30.130900 0.000000
30.150400 0.000000
30.169900 0.000000
30.189300 0.000000
30.208800 0.000000
30.228300 0.000000
30.247800 0.000000
30.267200 0.000000
e
