set title 'mp-990424 - Density of States'
set xlabel 'Energy (eV)'
set ylabel 'DOS (states/eV)'
set grid
set xrange [-10:10]
set yrange [0:6.927]
set xzeroaxis lt -1
set terminal png size 800,600
set output 'mp-990424_dos_gnuplot.png'
plot '-' using 1:2 with lines title 'DOS'
-23.483800 0.000000
-23.461500 0.000000
-23.439300 0.000000
-23.417000 0.000000
-23.394800 0.000000
-23.372500 0.000000
-23.350200 0.000000
-23.328000 0.000000
-23.305700 0.000000
-23.283500 0.000000
-23.261200 0.000000
-23.238900 0.000000
-23.216700 0.000000
-23.194400 0.000000
-23.172200 0.000000
-23.149900 0.000000
-23.127600 0.000000
-23.105400 0.000000
-23.083100 0.000000
-23.060900 0.000000
-23.038600 0.000000
-23.016300 0.000000
-22.994100 0.000000
-22.971800 0.000000
-22.949600 0.000000
-22.927300 0.000000
-22.905000 0.000000
-22.882800 0.000000
-22.860500 0.000000
-22.838300 0.000000
-22.816000 0.000000
-22.793700 0.000000
-22.771500 0.000000
-22.749200 0.000000
-22.727000 0.000000
-22.704700 0.000000
-22.682400 0.000000
-22.660200 0.000000
-22.637900 0.000000
-22.615700 0.000000
-22.593400 0.000000
-22.571100 0.000000
-22.548900 0.000000
-22.526600 0.000000
-22.504400 0.000000
-22.482100 0.000000
-22.459800 0.000000
-22.437600 0.000000
-22.415300 0.000000
-22.393100 0.000000
-22.370800 0.000000
-22.348500 0.000000
-22.326300 0.000000
-22.304000 0.000000
-22.281800 0.000000
-22.259500 0.000000
-22.237200 0.000000
-22.215000 0.000000
-22.192700 0.000000
-22.170400 0.000000
-22.148200 0.000000
-22.125900 0.000000
-22.103700 0.000000
-22.081400 0.000000
-22.059100 0.000000
-22.036900 0.000000
-22.014600 0.000000
-21.992400 0.000000
-21.970100 0.000000
-21.947800 0.000000
-21.925600 0.000000
-21.903300 0.000000
-21.881100 0.000000
-21.858800 0.000000
-21.836500 0.000000
-21.814300 0.000000
-21.792000 0.000000
-21.769800 0.000000
-21.747500 0.000000
-21.725200 0.000000
-21.703000 0.000000
-21.680700 0.000000
-21.658500 0.000000
-21.636200 0.000000
-21.613900 0.000000
-21.591700 0.000000
-21.569400 0.000000
-21.547200 0.000000
-21.524900 0.000000
-21.502600 0.000000
-21.480400 0.000000
-21.458100 0.019000
-21.435900 0.229300
-21.413600 0.439500
-21.391300 0.265700
-21.369100 0.472500
-21.346800 0.702600
-21.324600 0.582200
-21.302300 0.617500
-21.280000 0.618900
-21.257800 0.614900
-21.235500 0.623600
-21.213300 0.619700
-21.191000 0.603900
-21.168700 0.596700
-21.146500 0.609100
-21.124200 0.621500
-21.102000 0.634000
-21.079700 0.619500
-21.057400 0.624400
-21.035200 0.629300
-21.012900 0.608000
-20.990700 0.605400
-20.968400 0.604700
-20.946100 0.606600
-20.923900 0.608400
-20.901600 0.611800
-20.879400 0.618200
-20.857100 0.624500
-20.834800 0.630900
-20.812600 0.634400
-20.790300 0.629500
-20.768100 0.624600
-20.745800 0.625000
-20.723500 0.617500
-20.701300 0.610000
-20.679000 0.609600
-20.656800 0.610800
-20.634500 0.612000
-20.612200 0.613300
-20.590000 0.615400
-20.567700 0.618000
-20.545400 0.620500
-20.523200 0.624000
-20.500900 0.627900
-20.478700 0.631700
-20.456400 0.635600
-20.434100 0.628900
-20.411900 0.629500
-20.389600 0.630000
-20.367400 0.619800
-20.345100 0.617000
-20.322800 0.615900
-20.300600 0.615200
-20.278300 0.614600
-20.256100 0.615800
-20.233800 0.617400
-20.211500 0.619000
-20.189300 0.620600
-20.167000 0.622200
-20.144800 0.623800
-20.122500 0.625600
-20.100200 0.627700
-20.078000 0.629800
-20.055700 0.632100
-20.033500 0.634800
-20.011200 0.634800
-19.988900 0.632500
-19.966700 0.630700
-19.944400 0.628700
-19.922200 0.624900
-19.899900 0.622100
-19.877600 0.621900
-19.855400 0.621600
-19.833100 0.621400
-19.810900 0.621200
-19.788600 0.621800
-19.766300 0.622400
-19.744100 0.623200
-19.721800 0.624600
-19.699600 0.626100
-19.677300 0.627600
-19.655000 0.629000
-19.632800 0.630500
-19.610500 0.631900
-19.588300 0.633400
-19.566000 0.634900
-19.543700 0.636400
-19.521500 0.638100
-19.499200 0.639800
-19.477000 0.635700
-19.454700 0.636000
-19.432400 0.631600
-19.410200 0.630100
-19.387900 0.628800
-19.365700 0.628300
-19.343400 0.627800
-19.321100 0.627800
-19.298900 0.628200
-19.276600 0.628700
-19.254400 0.629200
-19.232100 0.629700
-19.209800 0.630200
-19.187600 0.630700
-19.165300 0.631500
-19.143100 0.632300
-19.120800 0.633300
-19.098500 0.634600
-19.076300 0.635800
-19.054000 0.637100
-19.031800 0.638400
-19.009500 0.639700
-18.987200 0.640900
-18.965000 0.642200
-18.942700 0.643500
-18.920400 0.644100
-18.898200 0.642800
-18.875900 0.641400
-18.853700 0.640300
-18.831400 0.638300
-18.809100 0.636700
-18.786900 0.636600
-18.764600 0.636500
-18.742400 0.636500
-18.720100 0.636400
-18.697800 0.636700
-18.675600 0.637000
-18.653300 0.637400
-18.631100 0.638200
-18.608800 0.638900
-18.586500 0.639600
-18.564300 0.640400
-18.542000 0.641100
-18.519800 0.641800
-18.497500 0.642600
-18.475200 0.643300
-18.453000 0.644100
-18.430700 0.645100
-18.408500 0.646000
-18.386200 0.647100
-18.363900 0.648300
-18.341700 0.649500
-18.319400 0.650600
-18.297200 0.651800
-18.274900 0.652900
-18.252600 0.651700
-18.230400 0.651900
-18.208100 0.652100
-18.185900 0.649500
-18.163600 0.648800
-18.141300 0.648500
-18.119100 0.648300
-18.096800 0.648200
-18.074600 0.648700
-18.052300 0.649100
-18.030000 0.649600
-18.007800 0.650100
-17.985500 0.650700
-17.963300 0.651200
-17.941000 0.651800
-17.918700 0.652600
-17.896500 0.653300
-17.874200 0.654300
-17.852000 0.655200
-17.829700 0.656200
-17.807400 0.657100
-17.785200 0.658100
-17.762900 0.659000
-17.740700 0.660000
-17.718400 0.660900
-17.696100 0.661900
-17.673900 0.662800
-17.651600 0.663800
-17.629400 0.664900
-17.607100 0.666000
-17.584800 0.667300
-17.562600 0.668600
-17.540300 0.669200
-17.518100 0.669300
-17.495800 0.669400
-17.473500 0.669100
-17.451300 0.668800
-17.429000 0.669400
-17.406800 0.670000
-17.384500 0.670600
-17.362200 0.671200
-17.340000 0.672000
-17.317700 0.672900
-17.295400 0.673900
-17.273200 0.675100
-17.250900 0.676300
-17.228700 0.677700
-17.206400 0.679000
-17.184100 0.680500
-17.161900 0.682100
-17.139600 0.683600
-17.117400 0.685100
-17.095100 0.686900
-17.072800 0.688800
-17.050600 0.690900
-17.028300 0.693300
-17.006100 0.695600
-16.983800 0.697900
-16.961500 0.700200
-16.939300 0.702500
-16.917000 0.704900
-16.894800 0.707200
-16.872500 0.709500
-16.850200 0.711800
-16.828000 0.714100
-16.805700 0.716400
-16.783500 0.719200
-16.761200 0.723100
-16.738900 0.727800
-16.716700 0.734100
-16.694400 0.740900
-16.672200 0.747800
-16.649900 0.755100
-16.627600 0.762500
-16.605400 0.770400
-16.583100 0.778400
-16.560900 0.786300
-16.538600 0.794300
-16.516300 0.802200
-16.494100 0.811100
-16.471800 0.821800
-16.449600 0.833500
-16.427300 0.847400
-16.405000 0.958100
-16.382800 0.952900
-16.360500 1.044400
-16.338300 1.017900
-16.316000 0.991400
-16.293700 0.964900
-16.271500 1.231100
-16.249200 1.121700
-16.227000 1.308600
-16.204700 1.096100
-16.182400 0.883700
-16.160200 0.716200
-16.137900 0.632200
-16.115700 0.616400
-16.093400 0.600600
-16.071100 0.584800
-16.048900 0.569000
-16.026600 0.553200
-16.004400 0.537400
-15.982100 0.521600
-15.959800 0.507100
-15.937600 0.493800
-15.915300 0.487600
-15.893100 0.538500
-15.870800 1.002400
-15.848500 0.707100
-15.826300 0.945700
-15.804000 0.430800
-15.781800 0.421400
-15.759500 0.411900
-15.737200 0.402500
-15.715000 0.393000
-15.692700 0.383500
-15.670400 0.374100
-15.648200 0.364600
-15.625900 0.355200
-15.603700 0.345700
-15.581400 0.336200
-15.559100 0.326800
-15.536900 0.317300
-15.514600 0.307900
-15.492400 0.298400
-15.470100 0.289000
-15.447800 0.279500
-15.425600 0.270000
-15.403300 0.260600
-15.381100 0.251100
-15.358800 0.241700
-15.336500 0.238900
-15.314300 0.251600
-15.292000 0.273700
-15.269800 0.295900
-15.247500 0.318000
-15.225200 0.340100
-15.203000 0.362300
-15.180700 0.262400
-15.158500 0.269400
-15.136200 0.161100
-15.113900 0.164900
-15.091700 0.210700
-15.069400 0.278400
-15.047200 0.346100
-15.024900 0.413800
-15.002600 0.481400
-14.980400 0.549100
-14.958100 0.616800
-14.935900 0.684500
-14.913600 0.581100
-14.891300 0.474000
-14.869100 0.488400
-14.846800 0.607000
-14.824600 0.964200
-14.802300 1.382900
-14.780000 0.978700
-14.757800 0.582500
-14.735500 0.584800
-14.713300 0.587100
-14.691000 0.589300
-14.668700 0.591600
-14.646500 0.593900
-14.624200 0.596100
-14.602000 0.598400
-14.579700 0.600700
-14.557400 0.602900
-14.535200 0.605200
-14.512900 0.610200
-14.490700 0.625600
-14.468400 0.647700
-14.446100 0.669700
-14.423900 1.173600
-14.401600 0.758700
-14.379400 0.786900
-14.357100 0.815100
-14.334800 0.843300
-14.312600 0.871400
-14.290300 0.899600
-14.268100 0.927800
-14.245800 0.956000
-14.223500 0.984200
-14.201300 1.012400
-14.179000 1.043000
-14.156800 1.074800
-14.134500 1.108200
-14.112200 1.141600
-14.090000 0.996000
-14.067700 0.830400
-14.045400 0.822800
-14.023200 0.815100
-14.000900 0.807500
-13.978700 0.799800
-13.956400 0.792100
-13.934100 0.784500
-13.911900 0.777000
-13.889600 0.769600
-13.867400 0.762200
-13.845100 0.754800
-13.822800 0.747400
-13.800600 0.740500
-13.778300 0.734000
-13.756100 0.727800
-13.733800 0.721600
-13.711500 0.715300
-13.689300 0.709100
-13.667000 0.702900
-13.644800 0.696700
-13.622500 0.690500
-13.600200 0.684200
-13.578000 0.678000
-13.555700 0.671800
-13.533500 0.665600
-13.511200 0.659300
-13.488900 0.653000
-13.466700 0.646500
-13.444400 0.639900
-13.422200 0.634900
-13.399900 0.632700
-13.377600 0.630800
-13.355400 0.628900
-13.333100 0.627100
-13.310900 0.625300
-13.288600 0.623500
-13.266300 0.621800
-13.244100 0.620000
-13.221800 0.618300
-13.199600 0.616500
-13.177300 0.614700
-13.155000 0.613000
-13.132800 0.611200
-13.110500 0.609400
-13.088300 0.607500
-13.066000 0.605600
-13.043700 0.603700
-13.021500 0.601800
-12.999200 0.599900
-12.977000 0.598000
-12.954700 0.596100
-12.932400 0.594200
-12.910200 0.574100
-12.887900 0.555100
-12.865700 0.554200
-12.843400 0.553400
-12.821100 0.552500
-12.798900 0.551700
-12.776600 0.550800
-12.754400 0.549900
-12.732100 0.549100
-12.709800 0.548200
-12.687600 0.547400
-12.665300 0.546500
-12.643100 0.545600
-12.620800 0.544700
-12.598500 0.543800
-12.576300 0.542900
-12.554000 0.542000
-12.531800 0.541100
-12.509500 0.540200
-12.487200 0.539300
-12.465000 0.538200
-12.442700 0.554600
-12.420400 0.573200
-12.398200 0.591800
-12.375900 0.610400
-12.353700 0.629000
-12.331400 0.647600
-12.309100 0.666200
-12.286900 0.684800
-12.264600 0.703400
-12.242400 0.722000
-12.220100 0.740600
-12.197800 0.759200
-12.175600 0.777800
-12.153300 0.796400
-12.131100 0.761900
-12.108800 0.722000
-12.086500 0.720600
-12.064300 0.720900
-12.042000 0.721400
-12.019800 0.722000
-11.997500 0.722300
-11.975200 0.722500
-11.953000 0.722400
-11.930700 0.722300
-11.908500 0.722200
-11.886200 0.722100
-11.863900 0.722000
-11.841700 0.722000
-11.819400 0.721900
-11.797200 0.721800
-11.774900 0.722500
-11.752600 0.726100
-11.730400 0.730000
-11.708100 0.733900
-11.685900 0.737900
-11.663600 0.741800
-11.641300 0.745700
-11.619100 0.749600
-11.596800 0.753600
-11.574600 0.757500
-11.552300 0.761400
-11.530000 0.765400
-11.507800 0.769300
-11.485500 0.773100
-11.463300 0.776900
-11.441000 0.767300
-11.418700 0.756200
-11.396500 0.755700
-11.374200 0.755200
-11.352000 0.755000
-11.329700 0.755100
-11.307400 0.755400
-11.285200 0.755700
-11.262900 0.755900
-11.240700 0.756200
-11.218400 0.756500
-11.196100 0.756700
-11.173900 0.757000
-11.151600 0.757200
-11.129400 0.757500
-11.107100 0.757800
-11.084800 0.758000
-11.062600 0.781700
-11.040300 0.783200
-11.018100 0.784800
-10.995800 0.786300
-10.973500 0.787900
-10.951300 0.789400
-10.929000 0.791000
-10.906800 0.792500
-10.884500 0.794000
-10.862200 0.795200
-10.840000 0.795600
-10.817700 0.795300
-10.795400 0.795000
-10.773200 0.794700
-10.750900 0.794500
-10.728700 0.794200
-10.706400 0.793900
-10.684100 0.793600
-10.661900 0.793400
-10.639600 0.793100
-10.617400 0.792800
-10.595100 0.792500
-10.572800 0.794100
-10.550600 0.796300
-10.528300 0.797700
-10.506100 0.802000
-10.483800 0.806800
-10.461500 0.811500
-10.439300 0.816100
-10.417000 0.820000
-10.394800 0.823500
-10.372500 0.826900
-10.350200 0.830400
-10.328000 0.833900
-10.305700 0.837300
-10.283500 0.840800
-10.261200 0.843900
-10.238900 0.846900
-10.216700 0.849800
-10.194400 0.852800
-10.172200 0.855700
-10.149900 0.857600
-10.127600 0.858700
-10.105400 0.859800
-10.083100 0.860900
-10.060900 0.861900
-10.038600 0.863000
-10.016300 0.864100
-9.994100 0.865200
-9.971800 0.866300
-9.949600 0.867300
-9.927300 0.868400
-9.905000 0.869500
-9.882800 0.870600
-9.860500 0.871700
-9.838300 0.872700
-9.816000 0.897800
-9.793700 1.044200
-9.771500 1.183100
-9.749200 1.077000
-9.727000 1.102700
-9.704700 1.135100
-9.682400 1.159600
-9.660200 1.179900
-9.637900 1.197500
-9.615700 1.202200
-9.593400 1.192600
-9.571100 1.183100
-9.548900 1.184800
-9.526600 1.194500
-9.504400 1.203900
-9.482100 1.212300
-9.459800 1.220400
-9.437600 1.228400
-9.415300 1.236500
-9.393100 1.244500
-9.370800 1.252500
-9.348500 1.235000
-9.326300 1.237900
-9.304000 1.240800
-9.281700 1.243700
-9.259500 1.246500
-9.237200 1.250000
-9.215000 1.294700
-9.192700 1.451500
-9.170400 1.608200
-9.148200 1.491600
-9.125900 1.509100
-9.103700 1.526700
-9.081400 1.549800
-9.059100 1.574700
-9.036900 1.598000
-9.014600 1.601200
-8.992400 1.620900
-8.970100 1.655700
-8.947800 1.692700
-8.925600 1.731000
-8.903300 1.769300
-8.881100 1.805200
-8.858800 1.835600
-8.836500 1.865600
-8.814300 1.895600
-8.792000 1.918200
-8.769800 1.900300
-8.747500 1.900600
-8.725200 1.900900
-8.703000 1.901300
-8.680700 1.901600
-8.658500 1.900200
-8.636200 1.900300
-8.613900 1.900800
-8.591700 1.677800
-8.569400 1.635000
-8.547200 1.592200
-8.524900 1.549300
-8.502600 1.586900
-8.480400 1.731400
-8.458100 1.897300
-8.435900 2.071300
-8.413600 2.340200
-8.391300 2.437100
-8.369100 2.462500
-8.346800 2.487300
-8.324600 2.365500
-8.302300 2.158500
-8.280000 2.043300
-8.257800 2.075300
-8.235500 1.975800
-8.213300 1.884000
-8.191000 1.876300
-8.168700 1.874700
-8.146500 1.873100
-8.124200 1.871600
-8.102000 1.909100
-8.079700 2.056800
-8.057400 2.204500
-8.035200 2.013800
-8.012900 1.679300
-7.990700 1.421800
-7.968400 1.477300
-7.946100 1.532700
-7.923900 1.538700
-7.901600 1.552300
-7.879400 1.572900
-7.857100 1.599900
-7.834800 1.644400
-7.812600 1.679000
-7.790300 1.620600
-7.768100 1.562100
-7.745800 1.503700
-7.723500 1.445300
-7.701300 1.459900
-7.679000 1.493500
-7.656700 1.386500
-7.634500 1.286500
-7.612200 1.186600
-7.590000 1.084000
-7.567700 1.099600
-7.545400 1.184800
-7.523200 1.333000
-7.500900 1.481200
-7.478700 1.346800
-7.456400 1.423500
-7.434100 1.469700
-7.411900 1.439900
-7.389600 1.408500
-7.367400 1.388300
-7.345100 1.391400
-7.322800 1.394400
-7.300600 1.151000
-7.278300 1.405700
-7.256100 1.644200
-7.233800 1.582400
-7.211500 1.521700
-7.189300 1.461100
-7.167000 1.400500
-7.144800 1.339800
-7.122500 1.339300
-7.100200 1.360500
-7.078000 1.381600
-7.055700 1.402900
-7.033500 1.424700
-7.011200 1.430100
-6.988900 1.412400
-6.966700 1.394700
-6.944400 1.372400
-6.922200 1.351500
-6.899900 1.330700
-6.877600 1.309800
-6.855400 1.303300
-6.833100 1.291500
-6.810900 1.284600
-6.788600 1.277500
-6.766300 1.273100
-6.744100 1.268100
-6.721800 1.262100
-6.699600 1.256100
-6.677300 1.250000
-6.655000 1.244000
-6.632800 1.238000
-6.610500 1.232200
-6.588300 1.228000
-6.566000 1.223800
-6.543700 1.219700
-6.521500 1.215500
-6.499200 1.211300
-6.477000 1.207200
-6.454700 1.203000
-6.432400 1.198800
-6.410200 1.194700
-6.387900 1.190500
-6.365700 1.186300
-6.343400 1.182500
-6.321100 1.180800
-6.298900 1.177900
-6.276600 1.174200
-6.254400 1.178200
-6.232100 1.198800
-6.209800 1.196700
-6.187600 1.192000
-6.165300 1.187400
-6.143100 1.182800
-6.120800 1.178200
-6.098500 1.173600
-6.076300 1.169300
-6.054000 1.163300
-6.031700 1.158500
-6.009500 1.153700
-5.987200 1.148900
-5.965000 1.144200
-5.942700 1.139900
-5.920400 1.135600
-5.898200 1.131300
-5.875900 1.127000
-5.853700 1.122700
-5.831400 1.121400
-5.809100 1.122800
-5.786900 1.125300
-5.764600 1.128400
-5.742400 1.131700
-5.720100 1.162900
-5.697800 1.159800
-5.675600 1.156700
-5.653300 1.153600
-5.631100 1.150500
-5.608800 1.147400
-5.586500 1.144000
-5.564300 1.136500
-5.542000 1.129900
-5.519800 1.123400
-5.497500 1.116900
-5.475200 1.111100
-5.453000 1.105600
-5.430700 1.100100
-5.408500 1.094600
-5.386200 1.097900
-5.363900 1.112400
-5.341700 1.127000
-5.319400 1.141600
-5.297200 1.141100
-5.274900 1.131000
-5.252600 1.120600
-5.230400 1.110600
-5.208100 1.100900
-5.185900 1.146900
-5.163600 1.174800
-5.141300 1.141900
-5.119100 1.109300
-5.096800 1.077500
-5.074600 1.257400
-5.052300 1.148000
-5.030000 1.039200
-5.007800 0.930500
-4.985500 0.821700
-4.963300 0.715700
-4.941000 0.716700
-4.918700 0.722800
-4.896500 0.728900
-4.874200 0.735000
-4.852000 0.741100
-4.829700 0.747100
-4.807400 0.752800
-4.785200 0.759000
-4.762900 0.765600
-4.740700 0.772200
-4.718400 0.779800
-4.696100 0.793900
-4.673900 0.809300
-4.651600 0.824800
-4.629400 0.840200
-4.607100 0.855600
-4.584800 0.871100
-4.562600 0.886500
-4.540300 0.904400
-4.518100 0.922800
-4.495800 0.941200
-4.473500 1.086700
-4.451300 1.053100
-4.429000 1.020400
-4.406700 0.988200
-4.384500 0.966600
-4.362200 0.953600
-4.340000 0.944000
-4.317700 1.329300
-4.295400 0.981900
-4.273200 0.995600
-4.250900 1.009300
-4.228700 1.175200
-4.206400 1.085400
-4.184100 0.995700
-4.161900 0.906000
-4.139600 0.816300
-4.117400 0.825000
-4.095100 0.861000
-4.072800 0.897000
-4.050600 0.679000
-4.028300 0.716100
-4.006100 0.725700
-3.983800 0.700900
-3.961500 0.676000
-3.939300 0.656500
-3.917000 0.643800
-3.894800 0.631100
-3.872500 0.618400
-3.850200 0.605700
-3.828000 0.593000
-3.805700 0.580300
-3.783500 0.567600
-3.761200 0.554900
-3.738900 0.546500
-3.716700 0.472300
-3.694400 0.473400
-3.672200 0.474600
-3.649900 0.475700
-3.627600 0.476700
-3.605400 0.473100
-3.583100 0.467300
-3.560900 0.460900
-3.538600 0.454500
-3.516300 0.448200
-3.494100 0.441800
-3.471800 0.387100
-3.449600 0.383300
-3.427300 0.379400
-3.405000 0.375500
-3.382800 0.371700
-3.360500 0.367800
-3.338300 0.363900
-3.316000 0.360100
-3.293700 0.353200
-3.271500 0.345100
-3.249200 0.336700
-3.227000 0.326600
-3.204700 0.316500
-3.182400 0.306400
-3.160200 0.299000
-3.137900 0.293000
-3.115700 0.287000
-3.093400 0.281000
-3.071100 0.275000
-3.048900 0.269000
-3.026600 0.263000
-3.004400 0.257000
-2.982100 0.251000
-2.959800 0.248300
-2.937600 0.246600
-2.915300 0.244800
-2.893100 0.243100
-2.870800 0.241300
-2.848500 0.239600
-2.826300 0.200400
-2.804000 0.196600
-2.781700 0.192800
-2.759500 0.188900
-2.737200 0.185100
-2.715000 0.181200
-2.692700 0.177400
-2.670400 0.173500
-2.648200 0.169700
-2.625900 0.165800
-2.603700 0.162000
-2.581400 0.158200
-2.559100 0.129600
-2.536900 0.124300
-2.514600 0.119100
-2.492400 0.113800
-2.470100 0.108500
-2.447800 0.103300
-2.425600 0.098000
-2.403300 0.092800
-2.381100 0.087500
-2.358800 0.082200
-2.336500 0.077000
-2.314300 0.071700
-2.292000 0.066500
-2.269800 0.061200
-2.247500 0.055900
-2.225200 0.050700
-2.203000 0.045400
-2.180700 0.040200
-2.158500 0.034900
-2.136200 0.029600
-2.113900 0.024400
-2.091700 0.021500
-2.069400 0.018600
-2.047200 0.015700
-2.024900 0.012800
-2.002600 0.009900
-1.980400 0.007000
-1.958100 0.004200
-1.935900 0.001300
-1.913600 0.001500
-1.891300 0.004100
-1.869100 0.006700
-1.846800 0.009300
-1.824600 0.011900
-1.802300 0.014500
-1.780000 0.017100
-1.757800 0.019700
-1.735500 0.022300
-1.713300 0.027400
-1.691000 0.033000
-1.668700 0.038600
-1.646500 0.044100
-1.624200 0.049700
-1.602000 0.055300
-1.579700 0.060800
-1.557400 0.066400
-1.535200 0.072000
-1.512900 0.077500
-1.490700 0.083100
-1.468400 0.088700
-1.446100 0.094200
-1.423900 0.099800
-1.401600 0.105400
-1.379400 0.110900
-1.357100 0.116500
-1.334800 0.122100
-1.312600 0.127600
-1.290300 0.133200
-1.268100 0.138800
-1.245800 0.144300
-1.223500 0.179600
-1.201300 0.183900
-1.179000 0.188200
-1.156700 0.192600
-1.134500 0.196900
-1.112200 0.201300
-1.090000 0.279500
-1.067700 0.277200
-1.045400 0.274900
-1.023200 0.272700
-1.000900 0.270400
-0.978700 0.268100
-0.956400 0.265800
-0.934100 0.263500
-0.911900 0.261300
-0.889600 0.259000
-0.867400 0.260100
-0.845100 0.277100
-0.822800 0.294200
-0.800600 0.311200
-0.778300 0.328200
-0.756100 0.345300
-0.733800 0.362300
-0.711500 0.379400
-0.689300 0.396400
-0.667000 0.413400
-0.644800 0.430500
-0.622500 0.447500
-0.600200 0.464600
-0.578000 0.481600
-0.555700 0.498600
-0.533500 0.515700
-0.511200 0.735500
-0.488900 0.625700
-0.466700 0.515900
-0.444400 0.541300
-0.422200 0.582700
-0.399900 0.624100
-0.377600 0.871600
-0.355400 0.898000
-0.333100 1.144400
-0.310900 1.399300
-0.288600 1.080900
-0.266300 1.168300
-0.244100 0.948400
-0.221800 0.944700
-0.199600 0.941000
-0.177300 0.937300
-0.155000 0.933600
-0.132800 0.977400
-0.110500 1.245700
-0.088300 1.517600
-0.066000 1.109700
-0.043700 1.139700
-0.021500 1.169600
0.000800 0.973800
0.023000 0.945400
0.045300 0.922100
0.067600 0.898800
0.089800 0.875500
0.112100 0.852200
0.134300 0.832400
0.156600 0.815700
0.178900 0.799600
0.201100 0.783500
0.223400 0.767400
0.245600 0.751300
0.267900 0.735200
0.290200 0.719600
0.312400 0.709400
0.334700 0.696400
0.356900 0.687800
0.379200 0.679500
0.401500 0.671400
0.423700 0.664300
0.446000 0.657200
0.468300 0.650700
0.490500 0.644300
0.512800 0.635300
0.535000 0.630300
0.557300 0.625300
0.579600 0.620300
0.601800 0.615300
0.624100 0.610300
0.646300 0.605200
0.668600 0.600200
0.690900 0.596000
0.713100 0.591800
0.735400 0.587600
0.757600 0.583700
0.779900 0.580000
0.802200 0.576300
0.824400 0.572600
0.846700 0.569100
0.868900 0.565600
0.891200 0.562100
0.913500 0.558600
0.935700 0.555000
0.958000 0.551500
0.980200 0.548300
1.002500 0.545100
1.024800 0.541900
1.047000 0.538700
1.069300 0.535500
1.091500 0.532400
1.113800 0.529300
1.136100 0.526100
1.158300 0.522600
1.180600 0.518800
1.202800 0.514900
1.225100 0.511100
1.247400 0.507300
1.269600 0.503600
1.291900 0.500900
1.314100 0.498600
1.336400 0.496300
1.358700 0.493200
1.380900 0.490000
1.403200 0.486900
1.425400 0.483700
1.447700 0.553400
1.470000 0.669300
1.492200 0.785200
1.514500 0.669300
1.536700 0.677500
1.559000 0.685600
1.581300 0.693800
1.603500 0.702000
1.625800 0.710200
1.648000 0.718300
1.670300 0.705700
1.692600 0.691900
1.714800 0.678000
1.737100 0.675400
1.759300 0.677200
1.781600 0.679000
1.803900 0.680900
1.826100 0.682700
1.848400 0.755500
1.870600 0.871200
1.892900 0.986900
1.915200 0.879900
1.937400 0.872200
1.959700 0.879200
1.981900 0.886100
2.004200 0.893100
2.026500 0.900100
2.048700 0.907000
2.071000 0.897100
2.093300 0.884200
2.115500 0.872300
2.137800 0.868400
2.160000 0.871700
2.182300 0.874800
2.204600 0.877900
2.226800 0.881000
2.249100 0.881300
2.271300 0.884900
2.293600 0.888400
2.315900 0.886200
2.338100 0.883500
2.360400 0.859300
2.382600 0.855900
2.404900 0.851500
2.427200 0.850100
2.449400 0.869900
2.471700 0.927300
2.493900 1.022200
2.516200 1.078500
2.538500 1.084200
2.560700 1.055400
2.583000 1.054200
2.605200 1.065200
2.627500 1.076100
2.649800 1.087000
2.672000 1.094100
2.694300 1.094200
2.716500 1.085200
2.738800 1.070600
2.761100 1.060900
2.783300 1.056600
2.805600 1.053200
2.827800 1.065000
2.850100 1.089400
2.872400 1.126100
2.894600 1.149000
2.916900 1.173000
2.939100 1.198000
2.961400 1.220600
2.983700 1.240900
3.005900 1.260600
3.028200 1.275800
3.050400 1.279200
3.072700 1.269000
3.095000 1.271300
3.117200 1.273000
3.139500 1.275100
3.161700 1.278300
3.184000 1.281700
3.206300 1.284300
3.228500 1.279100
3.250800 1.280900
3.273000 1.284200
3.295300 1.292400
3.317600 1.306500
3.339800 1.323900
3.362100 1.335000
3.384300 1.342200
3.406600 1.347700
3.428900 1.354800
3.451100 1.366100
3.473400 1.381400
3.495600 1.414300
3.517900 1.451800
3.540200 1.490500
3.562400 1.528900
3.584700 1.567300
3.607000 1.606200
3.629200 1.645600
3.651500 1.686000
3.673700 1.682300
3.696000 1.673300
3.718300 1.665900
3.740500 1.659700
3.762800 1.647400
3.785000 1.632300
3.807300 1.629000
3.829600 1.633800
3.851800 1.638200
3.874100 1.639200
3.896300 1.644200
3.918600 1.650600
3.940900 1.658300
3.963100 1.667500
3.985400 1.678000
4.007600 1.680100
4.029900 1.678300
4.052200 1.676500
4.074400 1.632200
4.096700 1.422200
4.118900 1.303500
4.141200 1.202900
4.163500 1.165500
4.185700 1.127700
4.208000 1.100000
4.230200 1.083700
4.252500 1.106300
4.274800 1.128500
4.297000 1.152700
4.319300 1.188700
4.341500 1.185700
4.363800 1.282500
4.386100 1.377300
4.408300 1.453400
4.430600 1.532200
4.452800 1.960100
4.475100 2.498100
4.497400 2.081600
4.519600 1.803800
4.541900 1.739700
4.564100 1.682700
4.586400 1.703600
4.608700 1.728700
4.630900 1.755600
4.653200 1.781400
4.675400 1.797200
4.697700 1.814300
4.720000 1.836700
4.742200 1.859900
4.764500 1.902500
4.786700 1.957100
4.809000 2.002100
4.831300 2.035200
4.853500 1.827600
4.875800 1.720100
4.898000 1.618400
4.920300 1.525800
4.942600 1.450300
4.964800 1.398000
4.987100 1.423100
5.009300 1.486500
5.031600 1.539100
5.053900 1.582900
5.076100 1.619100
5.098400 1.638400
5.120600 1.650200
5.142900 1.669400
5.165200 1.696000
5.187400 1.898200
5.209700 2.246300
5.232000 2.444800
5.254200 2.440700
5.276500 2.341400
5.298700 2.205600
5.321000 2.069200
5.343300 1.968000
5.365500 1.914800
5.387800 2.045600
5.410000 2.172800
5.432300 2.308800
5.454600 2.410900
5.476800 2.505700
5.499100 2.813000
5.521300 2.987000
5.543600 3.069300
5.565900 3.068100
5.588100 3.081100
5.610400 3.101800
5.632600 2.992700
5.654900 2.907300
5.677200 2.885000
5.699400 2.878100
5.721700 2.843300
5.743900 2.778600
5.766200 2.782900
5.788500 2.787800
5.810700 2.802600
5.833000 2.699700
5.855200 2.773600
5.877500 2.853300
5.899800 2.938400
5.922000 3.026600
5.944300 3.120800
5.966500 3.238500
5.988800 3.303000
6.011100 3.321900
6.033300 3.296700
6.055600 3.274900
6.077800 3.198200
6.100100 3.168000
6.122400 3.179500
6.144600 3.223300
6.166900 3.276800
6.189100 3.318800
6.211400 3.343900
6.233700 3.365700
6.255900 3.416500
6.278200 3.493500
6.300400 3.568000
6.322700 3.598700
6.345000 3.616900
6.367200 3.621000
6.389500 4.772600
6.411700 4.593100
6.434000 5.338000
6.456300 5.561000
6.478500 5.217400
6.500800 4.904800
6.523000 4.796600
6.545300 5.194800
6.567600 4.636500
6.589800 4.369900
6.612100 3.969500
6.634300 3.928500
6.656600 3.862800
6.678900 3.795400
6.701100 3.742600
6.723400 3.682200
6.745600 3.612400
6.767900 3.527900
6.790200 3.440000
6.812400 3.354300
6.834700 3.283100
6.857000 3.226800
6.879200 3.169100
6.901500 3.349800
6.923700 3.312500
6.946000 3.238600
6.968300 3.094700
6.990500 2.968600
7.012800 2.927000
7.035000 2.948000
7.057300 2.972100
7.079600 3.116300
7.101800 3.134300
7.124100 3.165300
7.146300 3.215700
7.168600 3.281400
7.190900 3.354800
7.213100 3.423600
7.235400 3.482400
7.257600 3.528700
7.279900 3.621200
7.302200 3.700400
7.324400 3.741100
7.346700 3.785800
7.368900 3.827500
7.391200 3.867000
7.413500 3.758000
7.435700 3.644300
7.458000 3.556200
7.480200 3.476500
7.502500 3.399100
7.524800 3.346000
7.547000 3.316200
7.569300 3.285500
7.591500 3.257800
7.613800 3.231800
7.636100 3.209000
7.658300 3.191800
7.680600 3.179500
7.702800 3.201600
7.725100 3.417100
7.747400 3.171600
7.769600 3.096100
7.791900 3.020300
7.814100 2.989800
7.836400 2.961100
7.858700 2.941300
7.880900 2.899100
7.903200 2.847200
7.925400 2.843500
7.947700 2.838600
7.970000 2.829900
7.992200 2.795800
8.014500 2.771300
8.036700 2.750800
8.059000 2.734200
8.081300 2.720400
8.103500 2.708700
8.125800 2.699100
8.148000 2.690600
8.170300 2.707800
8.192600 2.716000
8.214800 3.805900
8.237100 3.051900
8.259300 3.375200
8.281600 4.070600
8.303900 3.614700
8.326100 3.601600
8.348400 3.592600
8.370600 3.587600
8.392900 3.579500
8.415200 3.567400
8.437400 3.550700
8.459700 3.532400
8.482000 3.514900
8.504200 3.531000
8.526500 3.553000
8.548700 3.531900
8.571000 3.505000
8.593300 3.472900
8.615500 3.447000
8.637800 3.523600
8.660000 3.720900
8.682300 3.997800
8.704600 4.308200
8.726800 4.490400
8.749100 6.297700
8.771300 4.637300
8.793600 4.652800
8.815900 4.546400
8.838100 4.473300
8.860400 4.390300
8.882600 4.291600
8.904900 4.151100
8.927200 3.999200
8.949400 3.839900
8.971700 3.694200
8.993900 3.573000
9.016200 3.478500
9.038500 3.517400
9.060700 3.444800
9.083000 3.367700
9.105200 3.292700
9.127500 3.237400
9.149800 3.196500
9.172000 3.156600
9.194300 3.383000
9.216500 3.435400
9.238800 3.336700
9.261100 3.243800
9.283300 3.209100
9.305600 3.289900
9.327800 3.315900
9.350100 3.262100
9.372400 3.208900
9.394600 3.156500
9.416900 3.106200
9.439100 3.057600
9.461400 3.016000
9.483700 2.992900
9.505900 3.177500
9.528200 3.159400
9.550400 3.141900
9.572700 3.125400
9.595000 3.114200
9.617200 3.117800
9.639500 3.123600
9.661700 3.136200
9.684000 3.156800
9.706300 3.184800
9.728500 3.219300
9.750800 3.267400
9.773000 3.368500
9.795300 3.477900
9.817600 3.572000
9.839800 3.788600
9.862100 3.736500
9.884300 3.684200
9.906600 3.637200
9.928900 3.473300
9.951100 3.416600
9.973400 3.341400
9.995600 3.248700
10.017900 3.240800
10.040200 3.268100
10.062400 3.178700
10.084700 3.076600
10.107000 3.104800
10.129200 3.138200
10.151500 3.183500
10.173700 3.247000
10.196000 3.294900
10.218300 3.303400
10.240500 3.215100
10.262800 3.199900
10.285000 3.185200
10.307300 3.171700
10.329600 3.160000
10.351800 3.149400
10.374100 3.244200
10.396300 3.637300
10.418600 3.811200
10.440900 3.784300
10.463100 3.629100
10.485400 3.232600
10.507600 3.591900
10.529900 3.598900
10.552200 3.850200
10.574400 4.044000
10.596700 4.015200
10.618900 4.062200
10.641200 3.942800
10.663500 3.914800
10.685700 4.109600
10.708000 4.228900
10.730200 4.333500
10.752500 4.304900
10.774800 4.181200
10.797000 4.037700
10.819300 3.843600
10.841500 3.606700
10.863800 3.481600
10.886100 3.405800
10.908300 3.371500
10.930600 3.345300
10.952800 6.339300
10.975100 3.205400
10.997400 3.239600
11.019600 3.307100
11.041900 3.372900
11.064100 3.445500
11.086400 3.547000
11.108700 3.673400
11.130900 3.794100
11.153200 4.233300
11.175400 4.658700
11.197700 4.718400
11.220000 4.399700
11.242200 4.183800
11.264500 4.037400
11.286700 3.905000
11.309000 3.750000
11.331300 3.637400
11.353500 3.565600
11.375800 3.534700
11.398000 3.506500
11.420300 3.534700
11.442600 3.615300
11.464800 3.725400
11.487100 4.001900
11.509300 3.949100
11.531600 3.915100
11.553900 3.886400
11.576100 3.863300
11.598400 3.897400
11.620600 4.040800
11.642900 4.297700
11.665200 4.199600
11.687400 4.223700
11.709700 3.885800
11.732000 3.514300
11.754200 3.397500
11.776500 3.354200
11.798700 3.320200
11.821000 3.285600
11.843300 3.254000
11.865500 3.284200
11.887800 3.428900
11.910000 3.630000
11.932300 3.664300
11.954600 3.665000
11.976800 3.724700
11.999100 3.958800
12.021300 4.265400
12.043600 4.333300
12.065900 4.263000
12.088100 4.386400
12.110400 4.236800
12.132600 3.917300
12.154900 3.932100
12.177200 3.942200
12.199400 3.903000
12.221700 3.846800
12.243900 3.691300
12.266200 3.508800
12.288500 3.432900
12.310700 3.847900
12.333000 3.505300
12.355200 3.434100
12.377500 3.360300
12.399800 3.305700
12.422000 3.272300
12.444300 3.247100
12.466500 3.234700
12.488800 3.256700
12.511100 3.315300
12.533300 3.419400
12.555600 3.236300
12.577800 3.136900
12.600100 3.166000
12.622400 3.214000
12.644600 3.287000
12.666900 3.246900
12.689100 3.316800
12.711400 3.415400
12.733700 3.554300
12.755900 3.627700
12.778200 3.655100
12.800400 3.810800
12.822700 3.916600
12.845000 3.892700
12.867200 3.842800
12.889500 3.696400
12.911700 3.549600
12.934000 3.560300
12.956300 3.600800
12.978500 3.636300
13.000800 3.661200
13.023000 3.565800
13.045300 3.445800
13.067600 3.351600
13.089800 3.264900
13.112100 3.177000
13.134300 3.100600
13.156600 3.038200
13.178900 2.987200
13.201100 2.967800
13.223400 2.955500
13.245600 2.943500
13.267900 2.933200
13.290200 2.974300
13.312400 2.796900
13.334700 2.802000
13.357000 2.866900
13.379200 2.961200
13.401500 3.232100
13.423700 3.404400
13.446000 3.739000
13.468300 3.870600
13.490500 4.037400
13.512800 4.356100
13.535000 4.704700
13.557300 4.556800
13.579600 3.502000
13.601800 3.359200
13.624100 3.296400
13.646300 3.318400
13.668600 3.387000
13.690900 3.459300
13.713100 3.499400
13.735400 3.463200
13.757600 3.463400
13.779900 3.473200
13.802200 3.500700
13.824400 3.679400
13.846700 3.691100
13.868900 3.697700
13.891200 3.730300
13.913500 3.773700
13.935700 3.819200
13.958000 3.843000
13.980200 3.819700
14.002500 3.756700
14.024800 3.688000
14.047000 3.681900
14.069300 3.688500
14.091500 3.700000
14.113800 3.728600
14.136100 3.759400
14.158300 3.661400
14.180600 3.555500
14.202800 3.480800
14.225100 3.422600
14.247400 3.378400
14.269600 3.428500
14.291900 3.508200
14.314100 3.424000
14.336400 3.363100
14.358700 3.328500
14.380900 3.379400
14.403200 3.320500
14.425400 3.200100
14.447700 3.232600
14.470000 3.370600
14.492200 3.495000
14.514500 3.483400
14.536700 3.453500
14.559000 3.586400
14.581300 3.746900
14.603500 4.541000
14.625800 4.240800
14.648000 4.542100
14.670300 4.157600
14.692600 4.049000
14.714800 3.959100
14.737100 3.867000
14.759300 3.729700
14.781600 3.728400
14.803900 3.772200
14.826100 3.903100
14.848400 4.060800
14.870600 4.130500
14.892900 4.102600
14.915200 4.059900
14.937400 3.973700
14.959700 4.112300
14.982000 3.984000
15.004200 3.652800
15.026500 3.526300
15.048700 3.455100
15.071000 3.454600
15.093300 3.465300
15.115500 3.491100
15.137800 3.484900
15.160000 3.405400
15.182300 3.565900
15.204600 3.510800
15.226800 3.431300
15.249100 3.474000
15.271300 3.558000
15.293600 3.597400
15.315900 3.646700
15.338100 3.936100
15.360400 4.087400
15.382600 3.929600
15.404900 3.884000
15.427200 3.916800
15.449400 3.938200
15.471700 3.884100
15.493900 3.830900
15.516200 3.702900
15.538500 3.553600
15.560700 3.451100
15.583000 3.471400
15.605200 3.403300
15.627500 3.314500
15.649800 3.261400
15.672000 3.246500
15.694300 3.252900
15.716500 3.317900
15.738800 3.493700
15.761100 3.792200
15.783300 4.117900
15.805600 4.574500
15.827800 4.543600
15.850100 4.473900
15.872400 4.290500
15.894600 4.136400
15.916900 3.992400
15.939100 3.849500
15.961400 3.852600
15.983700 3.974200
16.005900 4.070100
16.028200 4.093700
16.050400 4.087100
16.072700 3.744600
16.095000 3.425500
16.117200 3.216200
16.139500 3.058900
16.161700 2.906600
16.184000 2.756500
16.206300 2.609200
16.228500 2.472700
16.250800 2.363000
16.273000 2.290100
16.295300 2.233300
16.317600 2.166400
16.339800 2.114600
16.362100 2.032100
16.384300 1.942600
16.406600 1.872100
16.428900 1.797700
16.451100 1.722800
16.473400 1.652700
16.495600 1.588600
16.517900 1.541300
16.540200 1.343600
16.562400 1.144600
16.584700 1.142200
16.607000 1.151400
16.629200 1.169200
16.651500 1.217600
16.673700 1.292700
16.696000 1.395100
16.718300 1.515700
16.740500 1.617000
16.762800 1.703500
16.785000 1.782300
16.807300 1.853200
16.829600 1.911200
16.851800 1.954000
16.874100 1.984200
16.896300 2.002400
16.918600 2.013400
16.940900 2.018700
16.963100 2.018300
16.985400 2.011000
17.007600 1.985900
17.029900 1.960700
17.052200 1.922200
17.074400 1.886700
17.096700 1.844000
17.118900 1.795000
17.141200 1.753700
17.163500 1.715400
17.185700 1.649100
17.208000 1.424400
17.230200 1.266200
17.252500 1.104900
17.274800 0.941800
17.297000 0.834400
17.319300 0.789200
17.341500 0.750400
17.363800 0.713100
17.386100 0.677400
17.408300 0.643200
17.430600 0.610700
17.452800 0.580200
17.475100 0.550600
17.497400 0.485900
17.519600 0.429200
17.541900 0.405000
17.564100 0.401100
17.586400 0.397600
17.608700 0.394700
17.630900 0.392300
17.653200 0.391300
17.675400 0.393800
17.697700 0.399900
17.720000 0.405500
17.742200 0.410900
17.764500 0.420200
17.786700 0.458100
17.809000 0.513900
17.831300 0.541700
17.853500 0.541200
17.875800 0.537000
17.898000 0.530100
17.920300 0.520900
17.942600 0.509500
17.964800 0.511100
17.987100 0.519600
18.009300 0.530200
18.031600 0.543100
18.053900 0.558100
18.076100 0.575300
18.098400 0.595200
18.120700 0.617700
18.142900 0.642400
18.165200 0.669000
18.187400 0.697300
18.209700 0.726800
18.232000 0.757400
18.254200 0.789200
18.276500 0.822200
18.298700 0.856400
18.321000 0.945300
18.343300 1.011300
18.365500 1.083600
18.387800 1.148000
18.410000 1.183000
18.432300 1.200600
18.454600 1.222300
18.476800 1.239000
18.499100 1.237500
18.521300 1.174300
18.543600 1.117600
18.565900 1.065400
18.588100 1.006600
18.610400 0.929900
18.632600 0.830800
18.654900 0.664100
18.677200 0.397300
18.699400 0.327500
18.721700 0.265900
18.743900 0.206900
18.766200 0.143300
18.788500 0.068900
18.810700 0.010000
18.833000 0.005700
18.855200 0.004400
18.877500 0.003200
18.899800 0.002200
18.922000 0.001500
18.944300 0.000800
18.966500 0.000400
18.988800 0.000100
19.011100 0.000000
19.033300 0.000000
19.055600 0.000000
19.077800 0.000000
19.100100 0.000000
19.122400 0.000000
19.144600 0.000000
19.166900 0.000000
19.189100 0.000000
19.211400 0.000000
19.233700 0.000000
19.255900 0.000000
19.278200 0.000000
19.300400 0.000000
19.322700 0.000000
19.345000 0.000000
19.367200 0.000000
19.389500 0.000000
19.411700 0.000000
19.434000 0.000000
19.456300 0.000000
19.478500 0.000000
19.500800 0.000000
19.523000 0.000000
19.545300 0.000000
19.567600 0.000000
19.589800 0.000000
19.612100 0.000000
19.634300 0.000000
19.656600 0.000000
19.678900 0.000000
19.701100 0.000000
19.723400 0.000000
19.745700 0.000000
19.767900 0.000000
19.790200 0.000000
19.812400 0.000000
19.834700 0.000000
19.857000 0.000000
19.879200 0.000000
19.901500 0.000000
19.923700 0.000000
19.946000 0.000000
19.968300 0.000000
19.990500 0.000000
20.012800 0.000000
20.035000 0.000000
20.057300 0.000000
20.079600 0.000000
20.101800 0.000000
20.124100 0.000000
20.146300 0.000000
20.168600 0.000000
20.190900 0.000000
20.213100 0.000000
20.235400 0.000000
20.257600 0.000000
20.279900 0.000000
20.302200 0.000000
20.324400 0.000000
20.346700 0.000000
20.368900 0.000000
20.391200 0.000000
20.413500 0.000000
20.435700 0.000000
20.458000 0.000000
20.480200 0.000000
20.502500 0.000000
20.524800 0.000000
20.547000 0.000000
20.569300 0.000000
20.591500 0.000000
20.613800 0.000000
20.636100 0.000000
20.658300 0.000000
20.680600 0.000000
20.702800 0.000000
20.725100 0.000000
20.747400 0.000000
20.769600 0.000000
20.791900 0.000000
20.814100 0.000000
20.836400 0.000000
20.858700 0.000000
20.880900 0.000000
20.903200 0.000000
20.925400 0.000000
20.947700 0.000000
20.970000 0.000000
20.992200 0.000000
21.014500 0.000000
21.036700 0.000000
e
