set title 'mp-971718 - Density of States'
set xlabel 'Energy (eV)'
set ylabel 'DOS (states/eV)'
set grid
set xrange [-10:10]
set yrange [0:97.420]
set xzeroaxis lt -1
set terminal png size 800,600
set output 'mp-971718_dos_gnuplot.png'
plot '-' using 1:2 with lines title 'DOS'
-9.298400 0.000000
-9.279700 0.000000
-9.260900 0.000000
-9.242200 0.000000
-9.223400 0.000000
-9.204700 0.000000
-9.186000 0.000000
-9.167200 0.000000
-9.148500 0.000000
-9.129700 0.000000
-9.111000 0.000000
-9.092300 0.000000
-9.073500 0.000000
-9.054800 0.000000
-9.036000 0.000000
-9.017300 0.000000
-8.998600 0.000000
-8.979800 0.000000
-8.961100 0.000000
-8.942400 0.000000
-8.923600 0.000000
-8.904900 0.000000
-8.886100 0.000000
-8.867400 0.000000
-8.848700 0.000000
-8.829900 0.000000
-8.811200 0.000000
-8.792400 0.000000
-8.773700 0.000000
-8.755000 0.000000
-8.736200 0.000000
-8.717500 0.000000
-8.698700 0.000000
-8.680000 0.000000
-8.661300 0.000000
-8.642500 0.000000
-8.623800 0.000000
-8.605000 0.000000
-8.586300 0.000000
-8.567600 0.000000
-8.548800 0.000000
-8.530100 0.000000
-8.511300 0.000000
-8.492600 0.000000
-8.473900 0.000000
-8.455100 0.000000
-8.436400 0.000000
-8.417700 0.000000
-8.398900 0.000000
-8.380200 0.000000
-8.361400 0.000000
-8.342700 0.000000
-8.324000 0.000000
-8.305200 0.000000
-8.286500 0.000000
-8.267700 0.000000
-8.249000 0.000000
-8.230300 0.000000
-8.211500 0.000000
-8.192800 0.000000
-8.174000 0.000000
-8.155300 0.000000
-8.136600 0.000000
-8.117800 0.000000
-8.099100 0.000000
-8.080300 0.000000
-8.061600 0.000000
-8.042900 0.000000
-8.024100 0.000000
-8.005400 0.000000
-7.986600 0.000000
-7.967900 0.000000
-7.949200 0.000000
-7.930400 0.000000
-7.911700 0.000000
-7.893000 0.000000
-7.874200 0.000000
-7.855500 0.000000
-7.836700 0.000000
-7.818000 0.000000
-7.799300 0.000000
-7.780500 0.000000
-7.761800 0.000000
-7.743000 0.000000
-7.724300 0.000000
-7.705600 0.000200
-7.686800 0.000900
-7.668100 0.003500
-7.649300 0.011000
-7.630600 0.027400
-7.611900 0.054900
-7.593100 0.091200
-7.574400 0.130700
-7.555600 0.174400
-7.536900 0.234500
-7.518200 0.316700
-7.499400 0.392200
-7.480700 0.410000
-7.461900 0.354900
-7.443200 0.279000
-7.424500 0.258500
-7.405700 0.325700
-7.387000 0.446700
-7.368300 0.558400
-7.349500 0.629100
-7.330800 0.678700
-7.312000 0.727800
-7.293300 0.745300
-7.274600 0.682700
-7.255800 0.547500
-7.237100 0.409600
-7.218300 0.334400
-7.199600 0.335800
-7.180900 0.400300
-7.162100 0.534400
-7.143400 0.752900
-7.124600 1.011500
-7.105900 1.187200
-7.087200 1.176000
-7.068400 1.005100
-7.049700 0.812300
-7.030900 0.717500
-7.012200 0.735600
-6.993500 0.800600
-6.974700 0.840700
-6.956000 0.832300
-6.937200 0.794200
-6.918500 0.743900
-6.899800 0.684900
-6.881000 0.645400
-6.862300 0.678900
-6.843600 0.801100
-6.824800 0.963400
-6.806100 1.120700
-6.787300 1.284900
-6.768600 1.469800
-6.749900 1.612500
-6.731100 1.607700
-6.712400 1.425700
-6.693600 1.166300
-6.674900 0.982900
-6.656200 0.957700
-6.637400 1.045000
-6.618700 1.123700
-6.599900 1.108500
-6.581200 1.020100
-6.562500 0.947400
-6.543700 0.944800
-6.525000 0.993200
-6.506200 1.067700
-6.487500 1.192700
-6.468800 1.398600
-6.450000 1.666000
-6.431300 1.952400
-6.412500 2.236000
-6.393800 2.481400
-6.375100 2.588500
-6.356300 2.457300
-6.337600 2.114800
-6.318900 1.718500
-6.300100 1.421600
-6.281400 1.276400
-6.262600 1.244400
-6.243900 1.242000
-6.225200 1.196700
-6.206400 1.119500
-6.187700 1.118800
-6.168900 1.299600
-6.150200 1.623600
-6.131500 1.896900
-6.112700 1.950800
-6.094000 1.824000
-6.075200 1.702000
-6.056500 1.693100
-6.037800 1.727000
-6.019000 1.664800
-6.000300 1.450000
-5.981500 1.145800
-5.962800 0.865700
-5.944100 0.686000
-5.925300 0.601300
-5.906600 0.552900
-5.887800 0.501300
-5.869100 0.467700
-5.850400 0.503300
-5.831600 0.624300
-5.812900 0.786800
-5.794200 0.930700
-5.775400 1.029300
-5.756700 1.086900
-5.737900 1.119900
-5.719200 1.149900
-5.700500 1.186000
-5.681700 1.213700
-5.663000 1.219000
-5.644200 1.207600
-5.625500 1.200900
-5.606800 1.232000
-5.588000 1.332800
-5.569300 1.498700
-5.550500 1.664100
-5.531800 1.732600
-5.513100 1.664800
-5.494300 1.554500
-5.475600 1.577400
-5.456800 1.813700
-5.438100 2.140800
-5.419400 2.344500
-5.400600 2.338500
-5.381900 2.251400
-5.363100 2.296900
-5.344400 2.564200
-5.325700 2.930300
-5.306900 3.168400
-5.288200 3.158000
-5.269500 2.975500
-5.250700 2.772100
-5.232000 2.608500
-5.213200 2.434100
-5.194500 2.176000
-5.175800 1.833400
-5.157000 1.518100
-5.138300 1.394500
-5.119500 1.543400
-5.100800 1.883800
-5.082100 2.246600
-5.063300 2.526500
-5.044600 2.747300
-5.025800 2.963300
-5.007100 3.127400
-4.988400 3.134100
-4.969600 2.983300
-4.950900 2.774900
-4.932100 2.518000
-4.913400 2.109400
-4.894700 1.560000
-4.875900 1.092400
-4.857200 0.943900
-4.838400 1.163400
-4.819700 1.617400
-4.801000 2.109400
-4.782200 2.468700
-4.763500 2.596000
-4.744800 2.494600
-4.726000 2.273700
-4.707300 2.087200
-4.688500 2.030200
-4.669800 2.096500
-4.651100 2.239200
-4.632300 2.429300
-4.613600 2.630500
-4.594800 2.756600
-4.576100 2.735500
-4.557400 2.633900
-4.538600 2.632200
-4.519900 2.803400
-4.501100 2.988600
-4.482400 2.970300
-4.463700 2.727300
-4.444900 2.453600
-4.426200 2.345100
-4.407400 2.415200
-4.388700 2.517200
-4.370000 2.531900
-4.351200 2.515300
-4.332500 2.623600
-4.313700 2.900800
-4.295000 3.196600
-4.276300 3.299700
-4.257500 3.112300
-4.238800 2.717200
-4.220100 2.323200
-4.201300 2.125100
-4.182600 2.180900
-4.163800 2.395500
-4.145100 2.596000
-4.126400 2.647400
-4.107600 2.531400
-4.088900 2.318300
-4.070100 2.077200
-4.051400 1.826400
-4.032700 1.547800
-4.013900 1.236000
-3.995200 0.942000
-3.976400 0.761700
-3.957700 0.758900
-3.939000 0.892600
-3.920200 1.034300
-3.901500 1.074900
-3.882700 1.011100
-3.864000 0.905800
-3.845300 0.785000
-3.826500 0.625400
-3.807800 0.432000
-3.789000 0.268700
-3.770300 0.206800
-3.751600 0.267500
-3.732800 0.403200
-3.714100 0.519300
-3.695400 0.538600
-3.676600 0.464600
-3.657900 0.363300
-3.639100 0.284900
-3.620400 0.231400
-3.601700 0.193200
-3.582900 0.171200
-3.564200 0.159900
-3.545400 0.140600
-3.526700 0.103600
-3.508000 0.060300
-3.489200 0.027000
-3.470500 0.009300
-3.451700 0.002400
-3.433000 0.000500
-3.414300 0.000100
-3.395500 0.000000
-3.376800 0.000000
-3.358000 0.000000
-3.339300 0.000000
-3.320600 0.000000
-3.301800 0.000000
-3.283100 0.000000
-3.264300 0.000000
-3.245600 0.000000
-3.226900 0.000000
-3.208100 0.000000
-3.189400 0.000000
-3.170700 0.000000
-3.151900 0.000000
-3.133200 0.000000
-3.114400 0.000000
-3.095700 0.000000
-3.077000 0.000000
-3.058200 0.000000
-3.039500 0.000000
-3.020700 0.000000
-3.002000 0.000000
-2.983300 0.000000
-2.964500 0.000000
-2.945800 0.000000
-2.927000 0.000000
-2.908300 0.000000
-2.889600 0.000000
-2.870800 0.000000
-2.852100 0.000000
-2.833300 0.000000
-2.814600 0.000000
-2.795900 0.000000
-2.777100 0.000000
-2.758400 0.000000
-2.739600 0.000000
-2.720900 0.000000
-2.702200 0.000000
-2.683400 0.000000
-2.664700 0.000000
-2.646000 0.000000
-2.627200 0.000000
-2.608500 0.000000
-2.589700 0.000000
-2.571000 0.000000
-2.552300 0.000000
-2.533500 0.000000
-2.514800 0.000000
-2.496000 0.000000
-2.477300 0.000000
-2.458600 0.000000
-2.439800 0.000000
-2.421100 0.000000
-2.402300 0.000000
-2.383600 0.000000
-2.364900 0.000000
-2.346100 0.000000
-2.327400 0.000000
-2.308600 0.000000
-2.289900 0.000000
-2.271200 0.000000
-2.252400 0.000000
-2.233700 0.000000
-2.214900 0.000000
-2.196200 0.000000
-2.177500 0.000000
-2.158700 0.000000
-2.140000 0.000000
-2.121300 0.000000
-2.102500 0.000000
-2.083800 0.000000
-2.065000 0.000000
-2.046300 0.000000
-2.027600 0.000000
-2.008800 0.000000
-1.990100 0.000000
-1.971300 0.000000
-1.952600 0.000000
-1.933900 0.000000
-1.915100 0.000000
-1.896400 0.000000
-1.877600 0.000000
-1.858900 0.000000
-1.840200 0.000000
-1.821400 0.000000
-1.802700 0.000000
-1.783900 0.000000
-1.765200 0.000000
-1.746500 0.000000
-1.727700 0.000000
-1.709000 0.000000
-1.690200 0.000000
-1.671500 0.000000
-1.652800 0.000000
-1.634000 0.000000
-1.615300 0.000000
-1.596600 0.000000
-1.577800 0.000000
-1.559100 0.000000
-1.540300 0.000100
-1.521600 0.001000
-1.502900 0.008900
-1.484100 0.064200
-1.465400 0.358800
-1.446600 1.563300
-1.427900 5.337500
-1.409200 14.381400
-1.390400 30.862400
-1.371700 53.375800
-1.352900 75.465300
-1.334200 88.563200
-1.315500 87.363600
-1.296700 72.842300
-1.278000 51.147400
-1.259200 29.923300
-1.240500 14.399100
-1.221800 5.636400
-1.203000 1.781600
-1.184300 0.452900
-1.165500 0.092400
-1.146800 0.015100
-1.128100 0.002000
-1.109300 0.000200
-1.090600 0.000000
-1.071900 0.000000
-1.053100 0.000000
-1.034400 0.000000
-1.015600 0.000000
-0.996900 0.000000
-0.978200 0.000000
-0.959400 0.000000
-0.940700 0.000000
-0.921900 0.000000
-0.903200 0.000000
-0.884500 0.000000
-0.865700 0.000000
-0.847000 0.000000
-0.828200 0.000000
-0.809500 0.000000
-0.790800 0.000000
-0.772000 0.000000
-0.753300 0.000000
-0.734500 0.000000
-0.715800 0.000000
-0.697100 0.000000
-0.678300 0.000000
-0.659600 0.000000
-0.640800 0.000000
-0.622100 0.000000
-0.603400 0.000000
-0.584600 0.000000
-0.565900 0.000000
-0.547200 0.000000
-0.528400 0.000000
-0.509700 0.000000
-0.490900 0.000000
-0.472200 0.000000
-0.453500 0.000000
-0.434700 0.000000
-0.416000 0.000000
-0.397200 0.000000
-0.378500 0.000000
-0.359800 0.000000
-0.341000 0.000000
-0.322300 0.000000
-0.303500 0.000000
-0.284800 0.000000
-0.266100 0.000000
-0.247300 0.000000
-0.228600 0.000000
-0.209800 0.000000
-0.191100 0.000000
-0.172400 0.000000
-0.153600 0.000000
-0.134900 0.000000
-0.116100 0.000000
-0.097400 0.000100
-0.078700 0.000600
-0.059900 0.003200
-0.041200 0.013000
-0.022500 0.040000
-0.003700 0.095000
0.015000 0.176100
0.033800 0.260300
0.052500 0.317600
0.071200 0.337600
0.090000 0.340500
0.108700 0.367900
0.127500 0.458300
0.146200 0.615100
0.164900 0.796900
0.183700 0.942600
0.202400 1.008700
0.221200 1.012700
0.239900 1.046600
0.258600 1.183900
0.277400 1.355500
0.296100 1.399400
0.314900 1.266700
0.333600 1.108700
0.352300 1.107000
0.371100 1.247500
0.389800 1.322800
0.408600 1.179300
0.427300 0.907100
0.446000 0.743300
0.464800 0.842300
0.483500 1.176000
0.502200 1.598600
0.521000 1.957300
0.539700 2.165200
0.558500 2.223200
0.577200 2.202400
0.595900 2.189700
0.614700 2.206300
0.633400 2.166500
0.652200 1.962100
0.670900 1.606300
0.689600 1.247300
0.708400 1.017000
0.727100 0.924000
0.745900 0.921600
0.764600 1.006000
0.783300 1.193400
0.802100 1.450600
0.820800 1.699600
0.839600 1.864300
0.858300 1.902100
0.877000 1.826400
0.895800 1.707200
0.914500 1.628600
0.933300 1.634700
0.952000 1.708400
0.970700 1.796300
0.989500 1.868500
1.008200 1.944900
1.026900 2.031000
1.045700 2.055900
1.064400 1.951700
1.083200 1.789500
1.101900 1.737300
1.120600 1.837400
1.139400 1.913300
1.158100 1.778500
1.176900 1.486400
1.195600 1.294800
1.214300 1.391500
1.233100 1.698600
1.251800 1.955400
1.270600 1.974900
1.289300 1.782000
1.308000 1.504200
1.326800 1.223100
1.345500 0.984500
1.364300 0.867900
1.383000 0.951800
1.401700 1.219500
1.420500 1.541000
1.439200 1.760900
1.458000 1.796900
1.476700 1.658400
1.495400 1.404100
1.514200 1.119600
1.532900 0.928500
1.551600 0.953100
1.570400 1.218000
1.589100 1.614700
1.607900 1.977400
1.626600 2.185400
1.645300 2.202200
1.664100 2.063400
1.682800 1.868900
1.701600 1.751300
1.720300 1.783500
1.739000 1.919500
1.757800 2.064600
1.776500 2.164700
1.795300 2.186400
1.814000 2.082600
1.832700 1.859000
1.851500 1.625800
1.870200 1.517100
1.889000 1.579800
1.907700 1.762000
1.926400 1.977700
1.945200 2.148500
1.963900 2.196200
1.982700 2.058900
2.001400 1.773400
2.020100 1.519800
2.038900 1.527200
2.057600 1.888000
2.076300 2.444800
2.095100 2.884100
2.113800 2.986400
2.132600 2.795200
2.151300 2.538300
2.170000 2.394300
2.188800 2.372400
2.207500 2.415100
2.226300 2.525600
2.245000 2.734200
2.263700 3.015200
2.282500 3.293700
2.301200 3.468300
2.320000 3.415900
2.338700 3.078100
2.357400 2.582300
2.376200 2.208200
2.394900 2.174300
2.413700 2.443700
2.432400 2.759200
2.451100 2.881500
2.469900 2.771400
2.488600 2.553100
2.507400 2.369600
2.526100 2.306400
2.544800 2.400500
2.563600 2.650600
2.582300 2.984500
2.601000 3.237500
2.619800 3.238300
2.638500 2.966400
2.657300 2.590600
2.676000 2.299900
2.694700 2.135700
2.713500 2.056800
2.732200 2.100700
2.751000 2.337200
2.769700 2.692700
2.788400 2.980300
2.807200 3.113700
2.825900 3.155200
2.844700 3.153700
2.863400 3.081300
2.882100 2.938900
2.900900 2.787700
2.919600 2.658700
2.938400 2.534100
2.957100 2.413600
2.975800 2.314000
2.994600 2.212300
3.013300 2.064500
3.032100 1.879300
3.050800 1.720800
3.069500 1.653600
3.088300 1.722800
3.107000 1.935000
3.125700 2.190500
3.144500 2.306300
3.163200 2.213400
3.182000 2.084900
3.200700 2.150000
3.219400 2.396300
3.238200 2.557200
3.256900 2.402100
3.275700 1.962800
3.294400 1.463300
3.313100 1.108200
3.331900 0.974000
3.350600 1.036400
3.369400 1.226500
3.388100 1.451700
3.406800 1.613000
3.425600 1.651000
3.444300 1.579900
3.463100 1.459600
3.481800 1.336800
3.500500 1.220200
3.519300 1.124100
3.538000 1.122100
3.556800 1.294900
3.575500 1.597800
3.594200 1.843200
3.613000 1.868700
3.631700 1.698400
3.650400 1.513200
3.669200 1.473400
3.687900 1.583100
3.706700 1.719400
3.725400 1.777500
3.744100 1.764400
3.762900 1.755400
3.781600 1.799600
3.800400 1.898700
3.819100 2.049500
3.837800 2.270200
3.856600 2.564800
3.875300 2.844000
3.894100 2.920100
3.912800 2.690700
3.931500 2.320100
3.950300 2.110400
3.969000 2.176200
3.987800 2.352000
4.006500 2.431800
4.025200 2.397000
4.044000 2.371100
4.062700 2.423300
4.081500 2.486500
4.100200 2.467000
4.118900 2.394000
4.137700 2.409600
4.156400 2.616200
4.175100 2.997300
4.193900 3.464900
4.212600 3.898200
4.231400 4.172900
4.250100 4.243800
4.268800 4.139800
4.287600 3.841700
4.306300 3.290700
4.325100 2.559200
4.343800 1.892400
4.362500 1.530900
4.381300 1.541800
4.400000 1.809600
4.418800 2.137600
4.437500 2.365000
4.456200 2.406600
4.475000 2.231800
4.493700 1.884200
4.512500 1.502800
4.531200 1.233400
4.549900 1.128100
4.568700 1.175000
4.587400 1.377100
4.606100 1.734900
4.624900 2.155900
4.643600 2.440600
4.662400 2.417600
4.681100 2.104400
4.699800 1.706200
4.718600 1.442600
4.737300 1.401700
4.756100 1.545200
4.774800 1.776100
4.793500 1.966600
4.812300 1.999900
4.831000 1.878000
4.849800 1.759800
4.868500 1.806600
4.887200 2.014000
4.906000 2.252000
4.924700 2.421600
4.943500 2.510300
4.962200 2.532700
4.980900 2.479400
4.999700 2.344400
5.018400 2.172000
5.037200 2.022500
5.055900 1.906100
5.074600 1.801100
5.093400 1.739200
5.112100 1.816500
5.130800 2.086400
5.149600 2.474000
5.168300 2.836100
5.187100 3.076500
5.205800 3.179500
5.224500 3.169800
5.243300 3.064900
5.262000 2.867100
5.280800 2.613300
5.299500 2.384000
5.318200 2.220100
5.337000 2.079400
5.355700 1.904100
5.374500 1.678400
5.393200 1.411500
5.411900 1.117200
5.430700 0.837000
5.449400 0.649500
5.468200 0.624700
5.486900 0.766900
5.505600 1.007500
5.524400 1.246200
5.543100 1.414100
5.561900 1.517200
5.580600 1.614100
5.599300 1.742800
5.618100 1.886900
5.636800 2.002600
5.655500 2.054600
5.674300 2.039800
5.693000 1.994900
5.711800 1.958900
5.730500 1.934500
5.749200 1.913500
5.768000 1.920100
5.786700 1.980400
5.805500 2.054100
5.824200 2.051700
5.842900 1.943700
5.861700 1.809000
5.880400 1.752300
5.899200 1.810300
5.917900 1.976300
5.936600 2.279500
5.955400 2.744100
5.974100 3.248000
5.992900 3.536000
6.011600 3.473700
6.030300 3.212300
6.049100 3.021100
6.067800 3.027300
6.086600 3.175300
6.105300 3.346200
6.124000 3.420300
6.142800 3.285400
6.161500 2.912100
6.180200 2.419800
6.199000 1.976600
6.217700 1.650100
6.236500 1.423100
6.255200 1.324000
6.273900 1.467900
6.292700 1.944800
6.311400 2.669800
6.330200 3.354800
6.348900 3.663700
6.367600 3.453100
6.386400 2.889800
6.405100 2.308600
6.423900 1.943900
6.442600 1.813700
6.461300 1.822200
6.480100 1.901000
6.498800 2.060500
6.517600 2.355800
6.536300 2.793100
6.555000 3.249100
6.573800 3.541900
6.592500 3.621100
6.611300 3.606100
6.630000 3.585300
6.648700 3.479500
6.667500 3.194800
6.686200 2.814900
6.704900 2.522900
6.723700 2.393700
6.742400 2.364000
6.761200 2.360600
6.779900 2.387300
6.798600 2.519000
6.817400 2.851200
6.836100 3.420400
6.854900 4.119000
6.873600 4.686700
6.892300 4.858400
6.911100 4.581700
6.929800 4.055400
6.948600 3.540400
6.967300 3.198100
6.986000 3.077200
7.004800 3.119700
7.023500 3.169700
7.042300 3.091900
7.061000 2.903500
7.079700 2.728400
7.098500 2.613800
7.117200 2.472200
7.136000 2.231700
7.154700 1.963600
7.173400 1.806100
7.192200 1.820200
7.210900 1.977300
7.229600 2.258600
7.248400 2.692400
7.267100 3.253000
7.285900 3.770400
7.304600 4.028600
7.323300 3.957400
7.342100 3.659100
7.360800 3.262700
7.379600 2.847800
7.398300 2.510400
7.417000 2.391500
7.435800 2.569600
7.454500 2.951400
7.473300 3.347900
7.492000 3.673200
7.510700 3.980200
7.529500 4.279600
7.548200 4.441200
7.567000 4.342100
7.585700 4.030100
7.604400 3.664300
7.623200 3.344500
7.641900 3.082600
7.660700 2.896300
7.679400 2.825700
7.698100 2.875600
7.716900 3.025400
7.735600 3.282600
7.754300 3.661200
7.773100 4.100800
7.791800 4.453400
7.810600 4.567500
7.829300 4.374000
7.848000 3.910400
7.866800 3.302400
7.885500 2.721800
7.904300 2.327900
7.923000 2.221900
7.941700 2.407500
7.960500 2.761500
7.979200 3.080100
7.998000 3.194600
8.016700 3.045100
8.035400 2.680300
8.054200 2.232600
8.072900 1.865200
8.091700 1.682700
8.110400 1.697200
8.129100 1.881000
8.147900 2.168500
8.166600 2.412300
8.185400 2.490700
8.204100 2.489000
8.222800 2.624500
8.241600 2.950400
8.260300 3.253700
8.279000 3.291500
8.297800 3.044500
8.316500 2.684100
8.335300 2.362700
8.354000 2.106500
8.372700 1.866700
8.391500 1.621100
8.410200 1.448000
8.429000 1.506300
8.447700 1.877400
8.466400 2.390300
8.485200 2.683200
8.503900 2.532800
8.522700 2.087600
8.541400 1.700800
8.560100 1.598900
8.578900 1.780800
8.597600 2.121700
8.616400 2.442800
8.635100 2.550700
8.653800 2.358500
8.672600 1.980900
8.691300 1.625700
8.710100 1.384400
8.728800 1.201900
8.747500 1.035600
8.766300 0.954800
8.785000 1.052200
8.803700 1.302400
8.822500 1.546800
8.841200 1.627700
8.860000 1.518700
8.878700 1.318900
8.897400 1.162500
8.916200 1.151600
8.934900 1.320800
8.953700 1.613900
8.972400 1.894500
8.991100 2.010600
9.009900 1.888600
9.028600 1.580700
9.047400 1.219400
9.066100 0.934000
9.084800 0.797400
9.103600 0.807100
9.122300 0.888800
9.141100 0.937700
9.159800 0.886400
9.178500 0.747900
9.197300 0.593600
9.216000 0.495000
9.234800 0.489400
9.253500 0.578200
9.272200 0.719400
9.291000 0.832500
9.309700 0.858400
9.328400 0.837700
9.347200 0.891500
9.365900 1.082100
9.384700 1.309800
9.403400 1.410500
9.422100 1.352800
9.440900 1.274500
9.459600 1.318800
9.478400 1.502300
9.497100 1.745200
9.515800 1.972500
9.534600 2.181900
9.553300 2.432800
9.572100 2.747700
9.590800 3.017500
9.609500 3.057100
9.628300 2.776400
9.647000 2.271400
9.665800 1.750600
9.684500 1.397100
9.703200 1.290700
9.722000 1.403100
9.740700 1.641300
9.759500 1.921800
9.778200 2.211600
9.796900 2.480100
9.815700 2.645300
9.834400 2.632200
9.853100 2.469800
9.871900 2.271000
9.890600 2.136500
9.909400 2.116400
9.928100 2.221400
9.946800 2.435500
9.965600 2.751100
9.984300 3.163800
10.003100 3.564300
10.021800 3.707800
10.040500 3.412100
10.059300 2.748200
10.078000 1.965600
10.096800 1.290600
10.115500 0.832900
10.134200 0.611700
10.153000 0.619400
10.171700 0.862200
10.190500 1.332100
10.209200 1.932300
10.227900 2.463400
10.246700 2.741400
10.265400 2.767300
10.284200 2.765500
10.302900 2.979600
10.321600 3.390700
10.340400 3.687100
10.359100 3.560200
10.377800 2.991800
10.396600 2.229700
10.415300 1.557800
10.434100 1.154200
10.452800 1.091600
10.471500 1.339700
10.490300 1.750200
10.509000 2.115400
10.527800 2.299500
10.546500 2.309600
10.565200 2.227100
10.584000 2.107200
10.602700 1.990400
10.621500 1.951000
10.640200 2.054000
10.658900 2.278800
10.677700 2.520400
10.696400 2.664900
10.715200 2.674400
10.733900 2.613900
10.752600 2.591300
10.771400 2.662600
10.790100 2.806500
10.808900 2.988500
10.827600 3.198200
10.846300 3.390800
10.865100 3.465400
10.883800 3.377700
10.902500 3.218600
10.921300 3.122500
10.940000 3.158700
10.958800 3.333100
10.977500 3.593400
10.996200 3.799700
11.015000 3.806000
11.033700 3.609500
11.052500 3.319300
11.071200 2.991300
11.089900 2.617600
11.108700 2.254800
11.127400 2.045200
11.146200 2.077200
11.164900 2.260900
11.183600 2.405400
11.202400 2.448500
11.221100 2.515800
11.239900 2.692000
11.258600 2.854900
11.277300 2.820800
11.296100 2.565200
11.314800 2.254700
11.333600 2.111800
11.352300 2.226300
11.371000 2.463300
11.389800 2.617500
11.408500 2.682300
11.427200 2.866500
11.446000 3.303000
11.464700 3.837800
11.483500 4.173800
11.502200 4.162600
11.520900 3.878400
11.539700 3.451100
11.558400 2.958400
11.577200 2.494800
11.595900 2.195700
11.614600 2.093300
11.633400 2.028600
11.652100 1.807500
11.670900 1.421100
11.689600 1.050700
11.708300 0.881900
11.727100 0.957100
11.745800 1.181200
11.764600 1.425000
11.783300 1.619500
11.802000 1.765900
11.820800 1.879500
11.839500 1.950100
11.858300 1.968500
11.877000 1.978100
11.895700 2.060300
11.914500 2.252100
11.933200 2.498900
11.951900 2.693600
11.970700 2.729200
11.989400 2.545700
12.008200 2.193700
12.026900 1.846700
12.045600 1.681000
12.064400 1.723000
12.083100 1.850700
12.101900 1.944600
12.120600 1.983200
12.139300 1.988000
12.158100 1.967700
12.176800 1.941800
12.195600 1.938000
12.214300 1.941200
12.233000 1.914100
12.251800 1.881500
12.270500 1.922800
12.289300 2.055900
12.308000 2.197300
12.326700 2.256200
12.345500 2.218200
12.364200 2.127600
12.383000 2.011500
12.401700 1.845200
12.420400 1.624300
12.439200 1.447000
12.457900 1.453300
12.476600 1.671500
12.495400 1.980200
12.514100 2.234400
12.532900 2.380800
12.551600 2.443900
12.570300 2.464900
12.589100 2.476000
12.607800 2.489200
12.626600 2.496200
12.645300 2.499300
12.664000 2.532400
12.682800 2.631700
12.701500 2.790600
12.720300 2.948200
12.739000 3.006700
12.757700 2.878100
12.776500 2.578600
12.795200 2.268600
12.814000 2.117600
12.832700 2.120700
12.851400 2.114400
12.870200 1.975800
12.888900 1.750300
12.907700 1.584600
12.926400 1.582300
12.945100 1.735000
12.963900 1.943700
12.982600 2.076200
13.001300 2.042400
13.020100 1.867000
13.038800 1.674300
13.057600 1.556400
13.076300 1.492000
13.095000 1.437300
13.113800 1.441200
13.132500 1.606500
13.151300 1.975900
13.170000 2.494800
13.188700 3.051200
13.207500 3.514700
13.226200 3.777400
13.245000 3.831200
13.263700 3.809900
13.282400 3.870100
13.301200 3.988000
13.319900 3.945100
13.338700 3.587100
13.357400 3.041300
13.376100 2.599800
13.394900 2.436600
13.413600 2.498500
13.432400 2.607300
13.451100 2.616800
13.469800 2.511100
13.488600 2.374600
13.507300 2.274200
13.526000 2.207400
13.544800 2.164400
13.563500 2.187300
13.582300 2.338900
13.601000 2.619200
13.619700 2.933700
13.638500 3.158400
13.657200 3.245200
13.676000 3.242200
13.694700 3.190400
13.713400 3.049800
13.732200 2.790400
13.750900 2.512100
13.769700 2.394500
13.788400 2.561700
13.807100 3.035800
13.825900 3.723500
13.844600 4.386300
13.863400 4.749600
13.882100 4.726400
13.900800 4.442700
13.919600 4.043400
13.938300 3.621700
13.957100 3.288900
13.975800 3.112000
13.994500 3.006500
14.013300 2.840200
14.032000 2.613600
14.050700 2.443400
14.069500 2.403000
14.088200 2.448000
14.107000 2.498400
14.125700 2.553900
14.144400 2.681900
14.163200 2.894900
14.181900 3.104000
14.200700 3.210400
14.219400 3.176400
14.238100 3.002400
14.256900 2.718800
14.275600 2.430100
14.294400 2.283100
14.313100 2.341900
14.331800 2.534300
14.350600 2.742300
14.369300 2.914600
14.388100 3.071700
14.406800 3.230500
14.425500 3.366200
14.444300 3.467200
14.463000 3.604000
14.481800 3.865500
14.500500 4.199500
14.519200 4.405200
14.538000 4.352500
14.556700 4.145800
14.575400 4.003100
14.594200 4.003600
14.612900 4.044100
14.631700 4.038100
14.650400 4.018600
14.669100 4.015100
14.687900 3.986500
14.706600 3.923600
14.725400 3.884600
14.744100 3.901500
14.762800 3.952200
14.781600 4.003500
14.800300 3.997200
14.819100 3.844500
14.837800 3.504300
14.856500 3.037200
14.875300 2.574900
14.894000 2.239900
14.912800 2.082100
14.931500 2.099500
14.950200 2.301100
14.969000 2.686700
14.987700 3.184200
15.006500 3.690200
15.025200 4.164100
15.043900 4.619800
15.062700 5.031300
15.081400 5.292300
15.100100 5.282500
15.118900 4.963400
15.137600 4.418600
15.156400 3.826100
15.175100 3.364800
15.193800 3.102400
15.212600 3.004700
15.231300 3.047200
15.250100 3.225700
15.268800 3.473300
15.287500 3.690800
15.306300 3.848600
15.325000 3.961200
15.343800 3.987500
15.362500 3.861500
15.381200 3.617600
15.400000 3.392000
15.418700 3.296600
15.437500 3.362000
15.456200 3.557000
15.474900 3.782500
15.493700 3.913700
15.512400 3.915400
15.531200 3.861500
15.549900 3.826500
15.568600 3.819400
15.587400 3.814200
15.606100 3.800100
15.624800 3.826700
15.643600 3.990900
15.662300 4.327300
15.681100 4.726500
15.699800 5.002400
15.718500 5.011700
15.737300 4.712900
15.756000 4.186800
15.774800 3.625800
15.793500 3.229300
15.812200 3.072700
15.831000 3.113700
15.849700 3.298200
15.868500 3.560500
15.887200 3.749900
15.905900 3.711700
15.924700 3.455300
15.943400 3.118300
15.962200 2.788500
15.980900 2.479100
15.999600 2.237200
16.018400 2.161000
16.037100 2.295100
16.055900 2.548200
16.074600 2.754700
16.093300 2.835400
16.112100 2.850300
16.130800 2.889900
16.149500 3.006600
16.168300 3.250700
16.187000 3.630500
16.205800 4.014500
16.224500 4.214600
16.243200 4.192000
16.262000 4.058000
16.280700 3.872100
16.299500 3.581700
16.318200 3.184500
16.336900 2.818800
16.355700 2.634600
16.374400 2.646800
16.393200 2.755500
16.411900 2.875000
16.430600 2.985000
16.449400 3.066400
16.468100 3.080400
16.486900 3.047800
16.505600 3.054700
16.524300 3.109000
16.543100 3.077200
16.561800 2.853400
16.580600 2.526400
16.599300 2.310800
16.618000 2.367600
16.636800 2.699800
16.655500 3.139400
16.674200 3.446600
16.693000 3.502400
16.711700 3.383500
16.730500 3.228400
16.749200 3.111900
16.767900 3.085700
16.786700 3.222400
16.805400 3.508100
16.824200 3.756800
16.842900 3.762500
16.861600 3.526500
16.880400 3.256800
16.899100 3.156600
16.917900 3.267800
16.936600 3.508800
16.955300 3.807400
16.974100 4.146800
16.992800 4.484000
17.011600 4.678100
17.030300 4.559600
17.049000 4.084500
17.067800 3.394800
17.086500 2.724500
17.105300 2.274500
17.124000 2.148200
17.142700 2.320700
17.161500 2.668600
17.180200 3.069300
17.198900 3.460900
17.217700 3.823400
17.236400 4.159600
17.255200 4.477300
17.273900 4.726600
17.292600 4.771600
17.311400 4.493900
17.330100 3.953600
17.348900 3.425800
17.367600 3.220100
17.386300 3.407500
17.405100 3.735100
17.423800 3.878300
17.442600 3.785200
17.461300 3.702700
17.480000 3.859000
17.498800 4.224000
17.517500 4.604800
17.536300 4.839100
17.555000 4.841300
17.573700 4.606300
17.592500 4.260000
17.611200 4.013900
17.630000 3.967700
17.648700 3.988300
17.667400 3.866600
17.686200 3.566700
17.704900 3.232700
17.723600 2.996200
17.742400 2.895800
17.761100 2.953100
17.779900 3.194700
17.798600 3.555800
17.817300 3.853000
17.836100 3.933300
17.854800 3.822800
17.873600 3.699200
17.892300 3.734300
17.911000 3.935400
17.929800 4.108600
17.948500 4.044300
17.967300 3.784700
17.986000 3.638100
18.004700 3.872500
18.023500 4.444400
18.042200 5.056000
18.061000 5.431100
18.079700 5.509900
18.098400 5.405700
18.117200 5.213500
18.135900 4.906600
18.154700 4.443900
18.173400 3.915300
18.192100 3.497600
18.210900 3.291700
18.229600 3.275500
18.248300 3.386700
18.267100 3.580600
18.285800 3.810900
18.304600 4.020400
18.323300 4.215500
18.342000 4.513900
18.360800 4.960100
18.379500 5.323400
18.398300 5.320900
18.417000 5.050400
18.435700 4.947900
18.454500 5.295400
18.473200 5.956300
18.492000 6.574500
18.510700 6.870200
18.529400 6.762000
18.548200 6.349700
18.566900 5.799900
18.585700 5.192900
18.604400 4.522200
18.623100 3.839300
18.641900 3.285900
18.660600 2.981300
18.679400 2.958400
18.698100 3.170200
18.716800 3.493100
18.735600 3.791800
18.754300 4.038600
18.773000 4.297000
18.791800 4.579000
18.810500 4.823500
18.829300 4.991000
18.848000 5.056100
18.866700 4.969800
18.885500 4.753100
18.904200 4.560300
18.923000 4.532900
18.941700 4.623900
18.960400 4.651400
18.979200 4.510300
18.997900 4.276400
19.016700 4.100500
19.035400 4.043300
19.054100 4.059900
19.072900 4.126900
19.091600 4.290500
19.110400 4.566300
19.129100 4.891300
19.147800 5.204400
19.166600 5.465100
19.185300 5.582300
19.204100 5.472900
19.222800 5.220600
19.241500 5.028500
19.260300 4.971300
19.279000 4.896500
19.297700 4.620100
19.316500 4.173600
19.335200 3.800100
19.354000 3.687800
19.372700 3.759400
19.391400 3.784300
19.410200 3.668700
19.428900 3.569000
19.447700 3.708500
19.466400 4.115200
19.485100 4.573300
19.503900 4.821000
19.522600 4.743000
19.541400 4.410300
19.560100 4.048000
19.578800 3.932100
19.597600 4.190100
19.616300 4.699900
19.635100 5.225400
19.653800 5.602100
19.672500 5.785500
19.691300 5.815900
19.710000 5.756100
19.728800 5.616100
19.747500 5.352500
19.766200 4.950700
19.785000 4.481300
19.803700 4.085400
19.822400 3.877700
19.841200 3.810600
19.859900 3.705900
19.878700 3.495200
19.897400 3.340200
19.916100 3.436500
19.934900 3.754900
19.953600 4.054500
19.972400 4.141700
19.991100 4.066400
20.009800 4.040000
20.028600 4.182900
20.047300 4.407200
20.066100 4.565800
20.084800 4.652000
20.103500 4.786600
20.122300 5.034900
20.141000 5.327800
20.159800 5.572400
20.178500 5.755600
20.197200 5.885100
20.216000 5.870000
20.234700 5.569900
20.253500 5.019100
20.272200 4.503200
20.290900 4.289700
20.309700 4.335700
20.328400 4.384600
20.347100 4.309600
20.365900 4.235300
20.384600 4.354000
20.403400 4.721400
20.422100 5.200700
20.440800 5.557500
20.459600 5.646300
20.478300 5.523400
20.497100 5.371600
20.515800 5.337100
20.534500 5.428100
20.553300 5.529600
20.572000 5.506000
20.590800 5.313500
20.609500 5.026900
20.628200 4.762000
20.647000 4.578900
20.665700 4.461100
20.684500 4.366300
20.703200 4.278400
20.721900 4.197200
20.740700 4.087400
20.759400 3.883600
20.778200 3.588500
20.796900 3.328700
20.815600 3.229500
20.834400 3.249500
20.853100 3.239200
20.871800 3.166800
20.890600 3.190200
20.909300 3.456300
20.928100 3.900800
20.946800 4.316400
20.965500 4.587700
20.984300 4.778700
21.003000 4.979300
21.021800 5.164500
21.040500 5.258400
21.059200 5.243500
21.078000 5.122200
21.096700 4.858700
21.115500 4.452200
21.134200 4.034900
21.152900 3.833500
21.171700 4.003600
21.190400 4.465000
21.209200 4.920900
21.227900 5.121600
21.246600 5.107200
21.265400 5.098800
21.284100 5.174600
21.302900 5.190600
21.321600 5.040800
21.340300 4.845800
21.359100 4.790800
21.377800 4.888300
21.396500 4.990100
21.415300 4.968900
21.434000 4.848400
21.452800 4.800800
21.471500 5.003600
21.490200 5.446100
21.509000 5.879600
21.527700 5.998900
21.546500 5.700700
21.565200 5.184400
21.583900 4.794700
21.602700 4.723200
21.621400 4.832700
21.640200 4.813800
21.658900 4.549600
21.677600 4.276300
21.696400 4.337100
21.715100 4.801700
21.733900 5.355900
21.752600 5.584000
21.771300 5.344900
21.790100 4.829900
21.808800 4.295900
21.827600 3.868600
21.846300 3.600400
21.865000 3.561700
21.883800 3.817000
21.902500 4.371200
21.921200 5.139100
21.940000 5.925500
21.958700 6.468900
21.977500 6.564000
21.996200 6.191100
22.014900 5.563900
22.033700 5.032100
22.052400 4.873300
22.071200 5.124800
22.089900 5.584800
22.108600 5.957200
22.127400 6.024300
22.146100 5.749000
22.164900 5.265000
22.183600 4.778100
22.202300 4.467100
22.221100 4.440800
22.239800 4.708300
22.258600 5.156200
22.277300 5.607200
22.296000 5.926100
22.314800 6.049900
22.333500 5.953700
22.352300 5.668600
22.371000 5.315000
22.389700 5.030900
22.408500 4.839800
22.427200 4.641700
22.445900 4.352800
22.464700 4.026500
22.483400 3.835600
22.502200 3.952200
22.520900 4.431500
22.539600 5.151400
22.558400 5.836200
22.577100 6.194500
22.595900 6.084200
22.614600 5.577000
22.633300 4.950500
22.652100 4.600000
22.670800 4.763700
22.689600 5.253800
22.708300 5.605400
22.727000 5.562800
22.745800 5.288500
22.764500 5.060200
22.783300 4.932300
22.802000 4.787000
22.820700 4.602600
22.839500 4.526200
22.858200 4.667900
22.877000 4.916000
22.895700 5.045900
22.914400 5.002500
22.933200 4.971000
22.951900 5.123500
22.970600 5.380200
22.989400 5.462100
23.008100 5.149400
23.026900 4.533200
23.045600 4.026100
23.064300 4.039600
23.083100 4.623100
23.101800 5.441900
23.120600 6.063800
23.139300 6.240800
23.158000 5.996000
23.176800 5.520900
23.195500 5.023700
23.214300 4.686600
23.233000 4.667400
23.251700 4.983000
23.270500 5.431700
23.289200 5.781800
23.308000 5.991400
23.326700 6.127600
23.345400 6.164400
23.364200 6.007300
23.382900 5.662100
23.401700 5.257900
23.420400 4.932700
23.439100 4.766900
23.457900 4.778000
23.476600 4.917300
23.495300 5.105100
23.514100 5.305500
23.532800 5.543100
23.551600 5.830100
23.570300 6.117200
23.589000 6.337600
23.607800 6.442200
23.626500 6.376200
23.645300 6.134200
23.664000 5.862000
23.682700 5.747500
23.701500 5.777300
23.720200 5.773100
23.739000 5.680500
23.757700 5.621100
23.776400 5.638000
23.795200 5.591700
23.813900 5.399800
23.832700 5.211600
23.851400 5.188600
23.870100 5.235800
23.888900 5.133800
23.907600 4.851100
23.926400 4.568500
23.945100 4.464700
23.963800 4.596200
23.982600 4.926700
24.001300 5.377600
24.020000 5.843700
24.038800 6.195100
24.057500 6.311400
24.076300 6.146800
24.095000 5.754300
24.113700 5.281200
24.132500 4.968400
24.151200 5.017800
24.170000 5.335900
24.188700 5.537200
24.207400 5.331800
24.226200 4.806600
24.244900 4.281400
24.263700 4.028800
24.282400 4.125800
24.301100 4.420100
24.319900 4.624700
24.338600 4.528700
24.357400 4.141900
24.376100 3.658400
24.394800 3.300100
24.413600 3.158700
24.432300 3.177500
24.451100 3.297500
24.469800 3.543200
24.488500 3.898500
24.507300 4.198600
24.526000 4.260900
24.544700 4.072500
24.563500 3.772200
24.582200 3.494400
24.601000 3.299600
24.619700 3.218100
24.638400 3.266400
24.657200 3.405200
24.675900 3.543200
24.694700 3.604100
24.713400 3.565900
24.732100 3.450000
24.750900 3.311300
24.769600 3.216700
24.788400 3.200500
24.807100 3.240000
24.825800 3.261900
24.844600 3.187100
24.863300 3.030200
24.882100 2.923600
24.900800 2.960700
24.919500 3.076200
24.938300 3.169800
24.957000 3.258600
24.975800 3.412900
24.994500 3.612600
25.013200 3.750300
25.032000 3.743000
25.050700 3.592800
25.069400 3.360700
25.088200 3.138100
25.106900 3.033600
25.125700 3.101900
25.144400 3.262400
25.163100 3.354600
25.181900 3.279700
25.200600 3.036000
25.219400 2.666000
25.238100 2.252400
25.256800 1.927100
25.275600 1.805500
25.294300 1.903200
25.313100 2.109800
25.331800 2.235600
25.350500 2.137800
25.369300 1.851300
25.388000 1.579700
25.406800 1.515600
25.425500 1.659800
25.444200 1.833900
25.463000 1.863700
25.481700 1.722800
25.500500 1.493900
25.519200 1.256400
25.537900 1.054500
25.556700 0.916900
25.575400 0.837500
25.594100 0.770000
25.612900 0.678200
25.631600 0.566500
25.650400 0.454600
25.669100 0.349400
25.687800 0.251500
25.706600 0.175100
25.725300 0.149100
25.744100 0.193000
25.762800 0.292900
25.781500 0.399900
25.800300 0.456400
25.819000 0.430800
25.837800 0.334800
25.856500 0.212200
25.875200 0.108200
25.894000 0.043700
25.912700 0.013900
25.931500 0.003400
25.950200 0.000700
25.968900 0.000200
25.987700 0.000500
26.006400 0.002500
26.025200 0.008800
26.043900 0.023700
26.062600 0.048500
26.081400 0.075400
26.100100 0.089100
26.118800 0.080000
26.137600 0.054600
26.156300 0.028300
26.175100 0.011200
26.193800 0.003300
26.212500 0.000800
26.231300 0.000100
26.250000 0.000000
26.268800 0.000000
26.287500 0.000000
26.306200 0.000000
26.325000 0.000000
26.343700 0.000000
26.362500 0.000200
26.381200 0.001200
26.399900 0.004900
26.418700 0.015200
26.437400 0.035500
26.456200 0.063000
26.474900 0.085100
26.493600 0.087200
26.512400 0.067900
26.531100 0.040200
26.549900 0.018100
26.568600 0.006200
26.587300 0.001600
26.606100 0.000300
26.624800 0.000000
26.643500 0.000000
26.662300 0.000000
26.681000 0.000000
26.699800 0.000000
26.718500 0.000000
26.737200 0.000000
26.756000 0.000000
26.774700 0.000000
26.793500 0.000000
26.812200 0.000000
26.830900 0.000000
26.849700 0.000000
26.868400 0.000000
26.887200 0.000000
26.905900 0.000000
26.924600 0.000000
26.943400 0.000000
26.962100 0.000000
26.980900 0.000000
26.999600 0.000000
27.018300 0.000000
27.037100 0.000000
27.055800 0.000000
27.074600 0.000000
27.093300 0.000000
27.112000 0.000000
27.130800 0.000000
27.149500 0.000000
27.168200 0.000000
27.187000 0.000000
27.205700 0.000000
27.224500 0.000000
27.243200 0.000000
27.261900 0.000000
27.280700 0.000000
27.299400 0.000000
27.318200 0.000000
27.336900 0.000000
27.355600 0.000000
27.374400 0.000000
27.393100 0.000000
27.411900 0.000000
27.430600 0.000000
27.449300 0.000000
27.468100 0.000000
27.486800 0.000000
27.505600 0.000000
27.524300 0.000000
27.543000 0.000000
27.561800 0.000000
27.580500 0.000000
27.599300 0.000000
27.618000 0.000000
27.636700 0.000000
27.655500 0.000000
27.674200 0.000000
27.692900 0.000000
27.711700 0.000000
27.730400 0.000000
27.749200 0.000000
27.767900 0.000000
27.786600 0.000000
27.805400 0.000000
27.824100 0.000000
27.842900 0.000000
27.861600 0.000000
27.880300 0.000000
27.899100 0.000000
27.917800 0.000000
27.936600 0.000000
27.955300 0.000000
27.974000 0.000000
27.992800 0.000000
28.011500 0.000000
28.030300 0.000000
28.049000 0.000000
28.067700 0.000000
28.086500 0.000000
28.105200 0.000000
28.124000 0.000000
28.142700 0.000000
28.161400 0.000000
28.180200 0.000000
e
