set title 'mp-725294 - Density of States'
set xlabel 'Energy (eV)'
set ylabel 'DOS (states/eV)'
set grid
set xrange [-10:10]
set yrange [0:97.713]
set xzeroaxis lt -1
set terminal png size 800,600
set output 'mp-725294_dos_gnuplot.png'
plot '-' using 1:2 with lines title 'DOS'
-14.949100 0.000000
-14.936700 0.000000
-14.924400 0.000000
-14.912100 0.000000
-14.899700 0.000000
-14.887400 0.000000
-14.875100 0.000000
-14.862800 0.000000
-14.850400 0.000000
-14.838100 0.000000
-14.825800 0.000000
-14.813400 0.000000
-14.801100 0.000000
-14.788800 0.000000
-14.776500 0.000000
-14.764100 0.000000
-14.751800 0.000000
-14.739500 0.000000
-14.727200 0.000000
-14.714800 0.000000
-14.702500 0.000000
-14.690200 0.000000
-14.677800 0.000000
-14.665500 0.000000
-14.653200 0.000000
-14.640900 0.000000
-14.628500 0.000000
-14.616200 0.000000
-14.603900 0.000000
-14.591600 0.000000
-14.579200 0.000000
-14.566900 0.000000
-14.554600 0.000000
-14.542200 0.000000
-14.529900 0.000000
-14.517600 0.000000
-14.505300 0.000000
-14.492900 0.000000
-14.480600 0.000000
-14.468300 0.000000
-14.456000 0.000000
-14.443600 0.000000
-14.431300 0.000000
-14.419000 0.000000
-14.406600 0.000000
-14.394300 0.000000
-14.382000 0.000000
-14.369700 0.000000
-14.357300 0.000000
-14.345000 0.000000
-14.332700 0.000000
-14.320300 0.000000
-14.308000 0.000000
-14.295700 0.000000
-14.283400 0.000000
-14.271000 0.000000
-14.258700 0.000000
-14.246400 0.000000
-14.234100 0.000000
-14.221700 0.000000
-14.209400 0.000000
-14.197100 0.000000
-14.184700 0.000000
-14.172400 0.000000
-14.160100 0.000000
-14.147800 0.000000
-14.135400 0.000000
-14.123100 0.000000
-14.110800 0.000000
-14.098500 0.000000
-14.086100 0.000000
-14.073800 0.000000
-14.061500 0.000000
-14.049100 0.000000
-14.036800 0.000000
-14.024500 0.000000
-14.012200 0.000000
-13.999800 0.000000
-13.987500 0.000000
-13.975200 0.000000
-13.962800 0.000000
-13.950500 0.000000
-13.938200 0.000000
-13.925900 0.000000
-13.913500 0.000000
-13.901200 0.000000
-13.888900 0.000000
-13.876600 0.000000
-13.864200 0.000000
-13.851900 0.000000
-13.839600 0.000000
-13.827200 0.170600
-13.814900 18.253800
-13.802600 18.253000
-13.790300 18.252200
-13.777900 18.251500
-13.765600 12.216200
-13.753300 6.211000
-13.741000 6.211000
-13.728600 6.210900
-13.716300 6.210900
-13.704000 6.210800
-13.691600 6.210800
-13.679300 6.210700
-13.667000 6.210700
-13.654700 6.210600
-13.642300 6.210600
-13.630000 6.210500
-13.617700 6.210500
-13.605400 5.100900
-13.593000 3.984100
-13.580700 3.984100
-13.568400 3.984100
-13.556000 3.984000
-13.543700 3.984000
-13.531400 3.983900
-13.519100 3.983900
-13.506700 3.983900
-13.494400 3.983800
-13.482100 3.983800
-13.469700 3.983800
-13.457400 3.983700
-13.445100 3.983700
-13.432800 3.983700
-13.420400 3.983600
-13.408100 3.983600
-13.395800 3.983600
-13.383500 3.983500
-13.371100 3.983500
-13.358800 4.212400
-13.346500 4.696600
-13.334100 4.696300
-13.321800 4.695900
-13.309500 4.695500
-13.297200 4.695200
-13.284800 4.694800
-13.272500 4.694500
-13.260200 4.694100
-13.247900 13.824600
-13.235500 25.465600
-13.223200 26.416800
-13.210900 26.410800
-13.198500 18.470300
-13.186200 12.547600
-13.173900 12.381900
-13.161600 12.136800
-13.149200 10.899700
-13.136900 9.976200
-13.124600 7.688800
-13.112300 7.688400
-13.099900 7.688000
-13.087600 7.687700
-13.075300 7.687300
-13.062900 6.156700
-13.050600 5.642000
-13.038300 5.638900
-13.026000 5.638500
-13.013600 5.638100
-13.001300 5.637700
-12.989000 5.637400
-12.976600 5.637000
-12.964300 5.636600
-12.952000 5.636200
-12.939700 5.635900
-12.927300 5.635500
-12.915000 5.635100
-12.902700 6.250000
-12.890400 9.481000
-12.878000 10.735900
-12.865700 11.261800
-12.853400 11.288100
-12.841000 11.021800
-12.828700 9.185900
-12.816400 4.656900
-12.804100 4.661900
-12.791700 4.667000
-12.779400 4.672100
-12.767100 0.293800
-12.754800 0.459200
-12.742400 1.019300
-12.730100 2.081400
-12.717800 3.018400
-12.705400 3.656500
-12.693100 3.845600
-12.680800 3.848600
-12.668500 3.849500
-12.656100 3.850400
-12.643800 3.851300
-12.631500 3.852200
-12.619200 3.853100
-12.606800 3.854000
-12.594500 3.854900
-12.582200 3.855800
-12.569800 3.856700
-12.557500 3.857600
-12.545200 3.858500
-12.532900 3.859300
-12.520500 3.860200
-12.508200 3.861100
-12.495900 3.862000
-12.483500 3.862900
-12.471200 3.030000
-12.458900 2.574800
-12.446600 2.468400
-12.434200 2.468400
-12.421900 2.468400
-12.409600 2.468400
-12.397300 2.468400
-12.384900 2.468400
-12.372600 2.468400
-12.360300 2.468400
-12.347900 2.468400
-12.335600 2.468400
-12.323300 2.468400
-12.311000 2.468400
-12.298600 2.468400
-12.286300 2.468400
-12.274000 2.468400
-12.261700 2.468500
-12.249300 2.468500
-12.237000 2.468500
-12.224700 2.468500
-12.212300 2.468500
-12.200000 2.468500
-12.187700 2.468500
-12.175400 2.468500
-12.163000 2.468500
-12.150700 2.468500
-12.138400 2.468500
-12.126100 2.468500
-12.113700 2.468500
-12.101400 2.468600
-12.089100 2.468600
-12.076700 2.468600
-12.064400 3.076400
-12.052100 3.258300
-12.039800 11.319400
-12.027400 11.318700
-12.015100 11.317900
-12.002800 11.317100
-11.990400 11.316400
-11.978100 11.315600
-11.965800 11.314900
-11.953500 11.314100
-11.941100 11.313300
-11.928800 11.312600
-11.916500 8.192000
-11.904200 8.048500
-11.891800 8.047700
-11.879500 8.046900
-11.867200 8.046100
-11.854800 8.045300
-11.842500 8.044500
-11.830200 8.043700
-11.817900 8.042900
-11.805500 8.042200
-11.793200 8.041400
-11.780900 8.040600
-11.768600 9.696600
-11.756200 13.794400
-11.743900 15.485600
-11.731600 15.677200
-11.719200 16.051800
-11.706900 18.088000
-11.694600 18.592900
-11.682300 16.882800
-11.669900 13.386600
-11.657600 9.891500
-11.645300 8.706500
-11.633000 8.197600
-11.620600 8.050200
-11.608300 8.050600
-11.596000 8.059600
-11.583600 198.039300
-11.571300 114.635700
-11.559000 97.617800
-11.546700 160.454900
-11.534300 89.282100
-11.522000 71.518700
-11.509700 34.695300
-11.497300 24.292300
-11.485000 17.830600
-11.472700 13.353000
-11.460400 9.903200
-11.448000 7.936700
-11.435700 8.118800
-11.423400 8.198300
-11.411100 8.271200
-11.398700 5.087900
-11.386400 2.051600
-11.374100 46.871600
-11.361700 147.918300
-11.349400 65.451300
-11.337100 41.546600
-11.324800 28.005800
-11.312400 23.522100
-11.300100 14.395000
-11.287800 9.016200
-11.275500 3.606100
-11.263100 1.224200
-11.250800 0.097000
-11.238500 0.000000
-11.226100 0.000000
-11.213800 0.000000
-11.201500 0.000000
-11.189200 0.000000
-11.176800 0.000000
-11.164500 0.000000
-11.152200 0.000000
-11.139900 0.000000
-11.127500 0.000000
-11.115200 0.000000
-11.102900 0.000000
-11.090500 0.000000
-11.078200 0.000000
-11.065900 0.000000
-11.053600 0.000000
-11.041200 0.000000
-11.028900 0.000000
-11.016600 0.000000
-11.004200 0.000000
-10.991900 0.000000
-10.979600 0.000000
-10.967300 0.000000
-10.954900 0.000000
-10.942600 0.000000
-10.930300 0.000000
-10.918000 0.000000
-10.905600 0.000000
-10.893300 0.000000
-10.881000 0.000000
-10.868600 0.000000
-10.856300 0.000000
-10.844000 0.000000
-10.831700 0.000000
-10.819300 0.000000
-10.807000 0.000000
-10.794700 0.000000
-10.782400 0.000000
-10.770000 0.000000
-10.757700 0.000000
-10.745400 0.000000
-10.733000 0.000000
-10.720700 0.000000
-10.708400 0.000000
-10.696100 0.000000
-10.683700 0.000000
-10.671400 0.000000
-10.659100 0.000000
-10.646800 0.000000
-10.634400 0.000000
-10.622100 0.000000
-10.609800 0.000000
-10.597400 0.000000
-10.585100 0.000000
-10.572800 0.000000
-10.560500 0.000000
-10.548100 0.000000
-10.535800 0.000000
-10.523500 0.000000
-10.511100 0.000000
-10.498800 0.000000
-10.486500 0.000000
-10.474200 0.000000
-10.461800 0.000000
-10.449500 0.000000
-10.437200 0.000000
-10.424900 0.000000
-10.412500 5.892100
-10.400200 13.983300
-10.387900 17.446500
-10.375500 18.055800
-10.363200 17.049800
-10.350900 11.366100
-10.338600 7.087300
-10.326200 6.191600
-10.313900 6.150200
-10.301600 6.151300
-10.289300 6.152400
-10.276900 6.153500
-10.264600 6.154500
-10.252300 6.155600
-10.239900 6.156700
-10.227600 6.157700
-10.215300 6.158800
-10.203000 6.159900
-10.190600 5.500200
-10.178300 4.854800
-10.166000 4.738000
-10.153700 4.736000
-10.141300 4.736400
-10.129000 4.736700
-10.116700 4.737000
-10.104300 4.737300
-10.092000 4.737600
-10.079700 4.737900
-10.067400 4.738200
-10.055000 4.738600
-10.042700 4.738900
-10.030400 4.739200
-10.018000 4.739500
-10.005700 4.739800
-9.993400 4.740100
-9.981100 6.559200
-9.968700 9.162000
-9.956400 9.541700
-9.944100 9.543500
-9.931800 9.545300
-9.919400 9.547000
-9.907100 9.548700
-9.894800 9.550500
-9.882400 8.969000
-9.870100 2.522200
-9.857800 0.145500
-9.845500 0.000000
-9.833100 0.000000
-9.820800 0.000000
-9.808500 0.000000
-9.796200 0.000000
-9.783800 0.000000
-9.771500 0.000000
-9.759200 0.000000
-9.746800 0.000000
-9.734500 0.000000
-9.722200 0.000000
-9.709900 0.000000
-9.697500 0.000000
-9.685200 0.000000
-9.672900 0.000000
-9.660600 0.000000
-9.648200 0.000000
-9.635900 0.000000
-9.623600 0.000000
-9.611200 0.000000
-9.598900 0.000000
-9.586600 0.000000
-9.574300 0.000000
-9.561900 0.000000
-9.549600 0.000000
-9.537300 0.000000
-9.524900 0.000000
-9.512600 0.000000
-9.500300 0.000000
-9.488000 0.000000
-9.475600 0.000000
-9.463300 0.000000
-9.451000 0.000000
-9.438700 0.000000
-9.426300 0.000000
-9.414000 0.000000
-9.401700 0.000000
-9.389300 0.000000
-9.377000 0.000000
-9.364700 0.000000
-9.352400 0.000000
-9.340000 0.000000
-9.327700 0.000000
-9.315400 0.000000
-9.303100 0.000000
-9.290700 0.000000
-9.278400 0.000000
-9.266100 0.000000
-9.253700 0.000000
-9.241400 0.000000
-9.229100 0.000000
-9.216800 0.000000
-9.204400 0.000000
-9.192100 0.000000
-9.179800 0.000000
-9.167400 0.000000
-9.155100 0.000000
-9.142800 0.000000
-9.130500 0.000000
-9.118100 0.000000
-9.105800 0.000000
-9.093500 0.000000
-9.081200 0.000000
-9.068800 0.000000
-9.056500 0.000000
-9.044200 0.000000
-9.031800 0.000000
-9.019500 0.000000
-9.007200 0.000000
-8.994900 0.000000
-8.982500 0.000000
-8.970200 0.000000
-8.957900 0.000000
-8.945600 0.000000
-8.933200 0.000000
-8.920900 0.000000
-8.908600 0.000000
-8.896200 0.000000
-8.883900 0.000000
-8.871600 0.000000
-8.859300 0.000000
-8.846900 0.000000
-8.834600 0.000000
-8.822300 0.000000
-8.810000 0.000000
-8.797600 0.000000
-8.785300 0.000000
-8.773000 0.000000
-8.760600 0.000000
-8.748300 0.000000
-8.736000 0.000000
-8.723700 0.000000
-8.711300 0.000000
-8.699000 0.000000
-8.686700 0.000000
-8.674300 0.000000
-8.662000 0.000000
-8.649700 0.000000
-8.637400 0.000000
-8.625000 0.000000
-8.612700 0.000000
-8.600400 0.000000
-8.588100 0.000000
-8.575700 0.000000
-8.563400 0.000000
-8.551100 0.000000
-8.538700 0.000000
-8.526400 0.000000
-8.514100 0.000000
-8.501800 0.000000
-8.489400 0.000000
-8.477100 0.000000
-8.464800 0.000000
-8.452500 0.000000
-8.440100 0.000000
-8.427800 0.000000
-8.415500 0.000000
-8.403100 0.000000
-8.390800 0.000000
-8.378500 0.000000
-8.366200 0.000000
-8.353800 0.000000
-8.341500 0.000000
-8.329200 0.000000
-8.316900 0.000000
-8.304500 0.000000
-8.292200 0.000000
-8.279900 0.000000
-8.267500 0.000000
-8.255200 0.000000
-8.242900 0.000000
-8.230600 0.000000
-8.218200 0.000000
-8.205900 0.000000
-8.193600 0.000000
-8.181200 0.000000
-8.168900 0.000000
-8.156600 0.000000
-8.144300 0.000000
-8.131900 0.000000
-8.119600 0.000000
-8.107300 0.000000
-8.095000 0.000000
-8.082600 0.000000
-8.070300 0.000000
-8.058000 0.000000
-8.045600 0.000000
-8.033300 0.000000
-8.021000 0.000000
-8.008700 0.000000
-7.996300 0.000000
-7.984000 0.000000
-7.971700 0.000000
-7.959400 0.000000
-7.947000 0.000000
-7.934700 0.000000
-7.922400 0.000000
-7.910000 0.000000
-7.897700 0.000000
-7.885400 0.000000
-7.873100 0.000000
-7.860700 0.000000
-7.848400 0.000000
-7.836100 0.000000
-7.823800 0.000000
-7.811400 0.000000
-7.799100 0.000000
-7.786800 0.000000
-7.774400 0.000000
-7.762100 0.000000
-7.749800 0.000000
-7.737500 0.000000
-7.725100 0.000000
-7.712800 0.000000
-7.700500 0.000000
-7.688100 0.000000
-7.675800 0.000000
-7.663500 0.000000
-7.651200 0.000000
-7.638800 0.000000
-7.626500 0.000000
-7.614200 0.000000
-7.601900 0.000000
-7.589500 0.000000
-7.577200 0.000000
-7.564900 0.000000
-7.552500 0.000000
-7.540200 0.000000
-7.527900 0.000000
-7.515600 0.000000
-7.503200 0.000000
-7.490900 0.000000
-7.478600 0.000000
-7.466300 0.000000
-7.453900 0.000000
-7.441600 0.000000
-7.429300 0.000000
-7.416900 0.000000
-7.404600 0.000000
-7.392300 0.000000
-7.380000 0.000000
-7.367600 0.000000
-7.355300 0.000000
-7.343000 0.000000
-7.330700 0.000000
-7.318300 0.000000
-7.306000 0.000000
-7.293700 0.000000
-7.281300 0.000000
-7.269000 0.000000
-7.256700 0.000000
-7.244400 0.000000
-7.232000 0.000000
-7.219700 0.000000
-7.207400 0.000000
-7.195000 0.000000
-7.182700 0.000000
-7.170400 0.000000
-7.158100 0.000000
-7.145700 0.000000
-7.133400 0.000000
-7.121100 0.000000
-7.108800 0.000000
-7.096400 0.000000
-7.084100 0.000000
-7.071800 0.000000
-7.059400 0.000000
-7.047100 0.000000
-7.034800 0.000000
-7.022500 0.000000
-7.010100 0.000000
-6.997800 0.000000
-6.985500 0.000000
-6.973200 0.000000
-6.960800 0.000000
-6.948500 0.000000
-6.936200 0.000000
-6.923800 0.000000
-6.911500 0.000000
-6.899200 0.000000
-6.886900 0.000000
-6.874500 0.000000
-6.862200 0.000000
-6.849900 0.000000
-6.837600 0.000000
-6.825200 0.000000
-6.812900 0.000000
-6.800600 0.000000
-6.788200 0.000000
-6.775900 0.000000
-6.763600 0.000000
-6.751300 0.000000
-6.738900 0.000000
-6.726600 0.000000
-6.714300 0.000000
-6.701900 0.000000
-6.689600 0.000000
-6.677300 0.000000
-6.665000 0.000000
-6.652600 0.000000
-6.640300 0.000000
-6.628000 0.000000
-6.615700 0.000000
-6.603300 0.000000
-6.591000 0.000000
-6.578700 0.000000
-6.566300 0.000000
-6.554000 0.000000
-6.541700 0.000000
-6.529400 0.000000
-6.517000 0.000000
-6.504700 0.000000
-6.492400 0.000000
-6.480100 0.000000
-6.467700 0.000000
-6.455400 0.000000
-6.443100 0.000000
-6.430700 0.000000
-6.418400 0.000000
-6.406100 0.000000
-6.393800 0.000000
-6.381400 0.000000
-6.369100 0.000000
-6.356800 0.000000
-6.344500 0.000000
-6.332100 0.000000
-6.319800 0.000000
-6.307500 0.000000
-6.295100 0.000000
-6.282800 0.000000
-6.270500 0.000000
-6.258200 0.000000
-6.245800 0.000000
-6.233500 0.000000
-6.221200 0.000000
-6.208800 0.000000
-6.196500 0.000000
-6.184200 0.000000
-6.171900 0.000000
-6.159500 0.000000
-6.147200 0.000000
-6.134900 0.000000
-6.122600 0.000000
-6.110200 0.000000
-6.097900 0.000000
-6.085600 0.000000
-6.073200 0.000000
-6.060900 0.000000
-6.048600 0.000000
-6.036300 0.000000
-6.023900 0.000000
-6.011600 0.000000
-5.999300 0.000000
-5.987000 0.000000
-5.974600 0.000000
-5.962300 0.000000
-5.950000 0.000000
-5.937600 0.000000
-5.925300 0.000000
-5.913000 0.000000
-5.900700 0.000000
-5.888300 0.000000
-5.876000 0.000000
-5.863700 0.000000
-5.851400 0.000000
-5.839000 0.000000
-5.826700 0.000000
-5.814400 0.000000
-5.802000 0.000000
-5.789700 0.000000
-5.777400 1.429400
-5.765100 3.552800
-5.752700 3.607200
-5.740400 3.607200
-5.728100 3.607100
-5.715700 3.607100
-5.703400 3.607000
-5.691100 3.607000
-5.678800 3.607000
-5.666400 3.606900
-5.654100 3.606900
-5.641800 3.606800
-5.629500 3.606800
-5.617100 3.606800
-5.604800 3.606700
-5.592500 3.606700
-5.580100 3.606700
-5.567800 3.606600
-5.555500 3.606600
-5.543200 3.606500
-5.530800 3.606500
-5.518500 3.606500
-5.506200 3.606400
-5.493900 1.716300
-5.481500 1.346300
-5.469200 1.346300
-5.456900 1.346300
-5.444500 1.346300
-5.432200 1.346300
-5.419900 1.346300
-5.407600 1.346300
-5.395200 1.346300
-5.382900 1.346300
-5.370600 1.346200
-5.358300 1.346200
-5.345900 1.346200
-5.333600 1.346200
-5.321300 1.346200
-5.308900 1.346200
-5.296600 1.346200
-5.284300 1.346200
-5.272000 1.346200
-5.259600 1.346200
-5.247300 1.346100
-5.235000 1.346100
-5.222600 1.346100
-5.210300 1.346100
-5.198000 4.743300
-5.185700 4.743300
-5.173300 4.743300
-5.161000 4.743200
-5.148700 4.743200
-5.136400 4.743200
-5.124000 4.743200
-5.111700 4.743200
-5.099400 4.743200
-5.087000 4.743200
-5.074700 4.743200
-5.062400 4.743200
-5.050100 4.743100
-5.037700 4.743100
-5.025400 4.743100
-5.013100 4.743100
-5.000800 4.743100
-4.988400 4.743100
-4.976100 4.743100
-4.963800 4.743100
-4.951400 4.743100
-4.939100 4.743000
-4.926800 4.743000
-4.914500 4.743000
-4.902100 3.019200
-4.889800 3.017300
-4.877500 3.015400
-4.865200 3.013400
-4.852800 3.011600
-4.840500 3.009700
-4.828200 3.007800
-4.815800 3.005900
-4.803500 3.004100
-4.791200 3.002200
-4.778900 3.000400
-4.766500 3.079500
-4.754200 3.348700
-4.741900 3.610400
-4.729500 3.696900
-4.717200 3.698700
-4.704900 3.694500
-4.692600 3.690200
-4.680200 3.686000
-4.667900 3.681800
-4.655600 3.677700
-4.643300 3.673600
-4.630900 3.669400
-4.618600 3.665400
-4.606300 3.661300
-4.593900 3.657300
-4.581600 3.653300
-4.569300 3.649300
-4.557000 3.645400
-4.544600 3.641500
-4.532300 3.637600
-4.520000 3.633700
-4.507700 3.629800
-4.495300 3.626000
-4.483000 3.622200
-4.470700 6.885100
-4.458300 9.600800
-4.446000 9.217000
-4.433700 8.934000
-4.421400 8.926600
-4.409000 9.254200
-4.396700 9.732500
-4.384400 10.275500
-4.372000 10.834500
-4.359700 11.334400
-4.347400 11.825200
-4.335100 15.535500
-4.322700 18.883400
-4.310400 18.552400
-4.298100 18.256500
-4.285800 18.244800
-4.273400 18.445600
-4.261100 18.647300
-4.248800 18.849800
-4.236400 19.053100
-4.224100 22.310600
-4.211800 28.469800
-4.199500 34.769200
-4.187100 44.114200
-4.174800 37.138600
-4.162500 26.371100
-4.150200 29.148500
-4.137800 28.960200
-4.125500 29.678700
-4.113200 29.491900
-4.100800 28.386900
-4.088500 18.912500
-4.076200 14.756400
-4.063900 5.560500
-4.051500 2.793600
-4.039200 2.794100
-4.026900 2.794700
-4.014600 2.795200
-4.002200 2.795700
-3.989900 2.796300
-3.977600 2.796800
-3.965200 2.797400
-3.952900 2.798000
-3.940600 2.798600
-3.928300 2.799200
-3.915900 2.799800
-3.903600 2.800400
-3.891300 2.801000
-3.878900 2.801600
-3.866600 2.802200
-3.854300 2.802800
-3.842000 2.803500
-3.829600 2.804100
-3.817300 2.804800
-3.805000 2.805400
-3.792700 2.806100
-3.780300 2.806800
-3.768000 2.807400
-3.755700 2.808100
-3.743300 2.808800
-3.731000 2.809500
-3.718700 2.810200
-3.706400 2.810900
-3.694000 2.811700
-3.681700 2.812400
-3.669400 2.813100
-3.657100 2.813900
-3.644700 2.814600
-3.632400 2.807900
-3.620100 2.775700
-3.607700 2.705400
-3.595400 2.607500
-3.583100 2.549700
-3.570800 2.532200
-3.558400 2.531400
-3.546100 2.530500
-3.533800 2.529700
-3.521500 2.528900
-3.509100 2.528100
-3.496800 2.527300
-3.484500 2.526500
-3.472100 2.525700
-3.459800 2.524900
-3.447500 2.524200
-3.435200 2.523400
-3.422800 2.522600
-3.410500 2.521800
-3.398200 2.521100
-3.385800 2.520300
-3.373500 2.519500
-3.361200 2.518800
-3.348900 2.518000
-3.336500 5.339000
-3.324200 8.710500
-3.311900 14.198400
-3.299600 13.963900
-3.287200 13.852400
-3.274900 12.411400
-3.262600 13.553300
-3.250200 14.327500
-3.237900 13.512900
-3.225600 14.235600
-3.213300 13.622200
-3.200900 13.708900
-3.188600 12.670400
-3.176300 12.220900
-3.164000 12.076000
-3.151600 12.094900
-3.139300 12.091400
-3.127000 12.291600
-3.114600 12.884600
-3.102300 13.474900
-3.090000 14.021100
-3.077700 14.026600
-3.065300 14.195100
-3.053000 13.985100
-3.040700 13.938000
-3.028400 13.499100
-3.016000 13.173700
-3.003700 12.875900
-2.991400 12.551700
-2.979000 12.201100
-2.966700 11.852000
-2.954400 11.603900
-2.942100 11.361700
-2.929700 11.253200
-2.917400 11.294300
-2.905100 11.073900
-2.892700 10.699800
-2.880400 10.733400
-2.868100 10.617000
-2.855800 10.645500
-2.843400 10.675200
-2.831100 10.705900
-2.818800 10.737900
-2.806500 10.771100
-2.794100 10.814900
-2.781800 11.032200
-2.769500 11.292100
-2.757100 11.392700
-2.744800 11.216400
-2.732500 11.858200
-2.720200 11.922700
-2.707800 10.867700
-2.695500 9.738600
-2.683200 9.277700
-2.670900 8.990000
-2.658500 8.662000
-2.646200 8.350900
-2.633900 8.057000
-2.621500 7.684400
-2.609200 7.371600
-2.596900 7.162300
-2.584600 6.956700
-2.572200 6.744700
-2.559900 6.526500
-2.547600 6.306100
-2.535300 6.148900
-2.522900 6.075600
-2.510600 6.054700
-2.498300 6.293600
-2.485900 6.559100
-2.473600 6.610000
-2.461300 6.548000
-2.449000 6.165500
-2.436600 4.861200
-2.424300 3.299000
-2.412000 2.055400
-2.399600 1.189700
-2.387300 1.034700
-2.375000 0.890600
-2.362700 0.757300
-2.350300 1.826700
-2.338000 2.128300
-2.325700 2.476600
-2.313400 2.871500
-2.301000 3.313000
-2.288700 3.801300
-2.276400 4.336200
-2.264000 4.917700
-2.251700 5.546000
-2.239400 6.299900
-2.227100 8.789500
-2.214700 10.058900
-2.202400 9.517700
-2.190100 8.580800
-2.177800 9.160200
-2.165400 10.073100
-2.153100 10.489600
-2.140800 10.954200
-2.128400 11.469000
-2.116100 12.053400
-2.103800 12.709200
-2.091500 13.490500
-2.079100 14.990000
-2.066800 19.106800
-2.054500 19.329900
-2.042200 16.723900
-2.029800 18.199500
-2.017500 15.213300
-2.005200 11.258800
-1.992800 11.385100
-1.980500 13.169900
-1.968200 15.794400
-1.955900 17.003900
-1.943500 17.036200
-1.931200 17.067800
-1.918900 17.098800
-1.906500 18.352200
-1.894200 20.785800
-1.881900 22.963700
-1.869600 25.030600
-1.857200 25.072800
-1.844900 23.195200
-1.832600 21.895900
-1.820300 22.579300
-1.807900 23.230900
-1.795600 23.994700
-1.783300 24.871000
-1.770900 31.093100
-1.758600 35.358500
-1.746300 37.396000
-1.734000 39.132200
-1.721600 40.433500
-1.709300 40.184100
-1.697000 37.549700
-1.684700 33.808700
-1.672300 27.032000
-1.660000 23.514500
-1.647700 23.434900
-1.635300 22.038000
-1.623000 21.543800
-1.610700 21.682100
-1.598400 22.165600
-1.586000 24.158600
-1.573700 23.283400
-1.561400 23.420000
-1.549100 23.432100
-1.536700 23.732000
-1.524400 26.162300
-1.512100 24.472200
-1.499700 20.986700
-1.487400 20.949000
-1.475100 21.105800
-1.462800 21.115600
-1.450400 21.500700
-1.438100 31.798400
-1.425800 42.102900
-1.413400 25.632800
-1.401100 39.624900
-1.388800 32.918500
-1.376500 24.194200
-1.364100 21.216700
-1.351800 19.383000
-1.339500 17.813000
-1.327200 17.457800
-1.314800 17.136600
-1.302500 16.850100
-1.290200 16.600200
-1.277800 16.387100
-1.265500 16.210800
-1.253200 16.071200
-1.240900 15.968400
-1.228500 15.902400
-1.216200 15.873100
-1.203900 15.903900
-1.191600 16.114900
-1.179200 16.751600
-1.166900 17.817400
-1.154600 18.920900
-1.142200 15.906000
-1.129900 15.895900
-1.117600 16.762500
-1.105300 17.926100
-1.092900 19.367400
-1.080600 20.892000
-1.068300 41.423100
-1.056000 17.760300
-1.043600 23.374600
-1.031300 26.178800
-1.019000 25.672800
-1.006600 25.122900
-0.994300 32.348400
-0.982000 23.816000
-0.969700 26.924900
-0.957300 29.528700
-0.945000 32.758700
-0.932700 34.794900
-0.920300 37.020500
-0.908000 42.210300
-0.895700 68.349900
-0.883400 85.902200
-0.871000 88.830000
-0.858700 76.823000
-0.846400 78.140600
-0.834100 68.213400
-0.821700 64.799000
-0.809400 64.428700
-0.797100 59.695600
-0.784700 64.366900
-0.772400 46.583100
-0.760100 52.120600
-0.747800 46.494300
-0.735400 50.616800
-0.723100 42.459100
-0.710800 36.478000
-0.698500 31.951200
-0.686100 24.675400
-0.673800 25.085500
-0.661500 26.698800
-0.649100 17.998600
-0.636800 10.622000
-0.624500 11.270000
-0.612200 10.571700
-0.599800 10.067600
-0.587500 9.757800
-0.575200 9.647300
-0.562900 9.865300
-0.550500 12.649500
-0.538200 21.281400
-0.525900 51.554600
-0.513500 33.586400
-0.501200 44.084300
-0.488900 43.717900
-0.476600 30.178700
-0.464200 30.616100
-0.451900 28.932100
-0.439600 28.103700
-0.427200 28.358200
-0.414900 54.870000
-0.402600 27.622700
-0.390300 38.124200
-0.377900 47.791200
-0.365600 63.033100
-0.353300 61.625700
-0.341000 37.931300
-0.328600 35.207500
-0.316300 35.504900
-0.304000 31.485600
-0.291600 24.259900
-0.279300 23.230100
-0.267000 23.650100
-0.254700 26.964000
-0.242300 28.987000
-0.230000 27.786900
-0.217700 24.115700
-0.205400 20.177300
-0.193000 23.669400
-0.180700 17.325400
-0.168400 2.015900
-0.156000 2.116700
-0.143700 2.211000
-0.131400 2.298800
-0.119100 2.380100
-0.106700 2.531900
-0.094400 2.570500
-0.082100 2.679500
-0.069800 2.680400
-0.057400 2.681200
-0.045100 2.682100
-0.032800 2.683000
-0.020400 2.683900
-0.008100 2.684800
0.004200 2.685700
0.016500 2.686600
0.028900 2.687500
0.041200 2.688400
0.053500 2.689300
0.065900 2.690300
0.078200 2.691200
0.090500 2.692100
0.102800 2.693100
0.115200 2.694000
0.127500 2.694900
0.139800 2.695900
0.152100 2.696900
0.164500 2.697800
0.176800 2.698800
0.189100 2.699800
0.201500 2.700700
0.213800 2.701700
0.226100 2.702700
0.238400 2.703700
0.250800 2.704700
0.263100 2.705700
0.275400 2.706700
0.287700 2.707700
0.300100 2.708700
0.312400 2.709700
0.324700 2.710800
0.337100 2.711800
0.349400 2.712800
0.361700 2.704400
0.374000 2.662100
0.386400 2.561900
0.398700 2.320000
0.411000 2.064600
0.423400 1.825600
0.435700 1.744300
0.448000 1.744300
0.460300 1.744400
0.472700 1.744400
0.485000 1.744500
0.497300 1.744500
0.509600 1.744600
0.522000 1.744600
0.534300 1.744700
0.546600 1.744700
0.559000 1.744800
0.571300 1.744800
0.583600 1.744900
0.595900 1.744900
0.608300 1.745000
0.620600 1.745000
0.632900 1.745100
0.645200 1.745100
0.657600 1.745200
0.669900 1.745200
0.682200 1.745300
0.694600 1.745400
0.706900 1.745400
0.719200 1.745500
0.731500 1.745500
0.743900 1.729200
0.756200 1.637700
0.768500 1.628900
0.780800 1.628900
0.793200 1.628900
0.805500 1.628800
0.817800 1.628800
0.830200 1.628800
0.842500 1.628800
0.854800 1.628700
0.867100 1.628700
0.879500 1.628700
0.891800 1.628700
0.904100 1.628600
0.916500 1.628600
0.928800 1.628600
0.941100 1.628600
0.953400 1.628500
0.965800 1.628500
0.978100 1.628500
0.990400 1.628500
1.002700 1.628400
1.015100 1.628400
1.027400 1.628400
1.039700 1.628400
1.052100 1.628300
1.064400 1.628300
1.076700 1.628300
1.089000 1.628300
1.101400 1.628200
1.113700 1.628200
1.126000 1.628200
1.138300 1.628200
1.150700 1.628200
1.163000 1.628100
1.175300 1.628100
1.187700 1.628100
1.200000 1.628100
1.212300 1.628100
1.224600 1.628000
1.237000 1.628000
1.249300 1.628000
1.261600 1.628000
1.273900 1.628000
1.286300 1.627900
1.298600 1.627900
1.310900 1.627900
1.323300 1.627900
1.335600 1.627900
1.347900 1.627800
1.360200 1.627800
1.372600 1.627800
1.384900 1.627800
1.397200 1.627800
1.409600 1.627800
1.421900 1.627700
1.434200 1.627700
1.446500 1.627700
1.458900 1.627700
1.471200 1.627700
1.483500 1.627700
1.495800 1.627600
1.508200 1.627600
1.520500 1.627600
1.532800 1.627600
1.545200 1.627600
1.557500 1.627600
1.569800 1.627600
1.582100 1.627500
1.594500 1.627500
1.606800 1.627500
1.619100 1.627500
1.631400 1.627500
1.643800 1.627500
1.656100 1.627500
1.668400 1.627400
1.680800 1.627400
1.693100 1.627400
1.705400 1.627400
1.717700 1.627400
1.730100 1.627400
1.742400 3.618500
1.754700 5.400500
1.767000 5.331600
1.779400 5.264800
1.791700 5.200000
1.804000 5.137300
1.816400 5.076700
1.828700 5.018200
1.841000 14.952400
1.853300 29.414000
1.865700 50.694500
1.878000 49.421200
1.890300 35.771400
1.902700 31.189200
1.915000 27.571400
1.927300 21.639800
1.939600 18.537000
1.952000 15.645700
1.964300 15.454900
1.976600 15.273800
1.988900 15.102500
2.001300 14.940900
2.013600 14.789000
2.025900 14.646700
2.038300 14.504800
2.050600 14.358600
2.062900 14.208800
2.075200 14.082400
2.087600 13.954600
2.099900 13.690400
2.112200 13.389200
2.124500 13.223600
2.136900 13.061100
2.149200 12.901600
2.161500 12.745200
2.173900 12.591700
2.186200 12.441200
2.198500 12.293800
2.210800 12.149300
2.223200 12.007000
2.235500 11.371300
2.247800 10.140500
2.260100 11.425500
2.272500 19.044100
2.284800 4.165900
2.297100 3.472700
2.309500 3.476200
2.321800 3.479800
2.334100 3.483400
2.346400 3.487100
2.358800 3.490700
2.371100 3.494400
2.383400 3.498200
2.395800 3.501900
2.408100 3.505700
2.420400 3.509500
2.432700 3.513400
2.445100 3.517300
2.457400 3.521200
2.469700 3.525100
2.482000 3.529100
2.494400 3.533100
2.506700 3.537100
2.519000 3.541200
2.531400 3.545300
2.543700 3.549400
2.556000 3.553600
2.568300 3.557700
2.580700 3.561900
2.593000 3.188000
2.605300 1.094700
2.617600 1.095300
2.630000 1.096000
2.642300 1.096600
2.654600 1.097300
2.667000 1.097900
2.679300 1.098600
2.691600 1.099200
2.703900 1.099900
2.716300 1.100600
2.728600 1.101200
2.740900 1.101900
2.753200 1.102600
2.765600 1.103300
2.777900 1.104000
2.790200 1.104700
2.802600 1.105400
2.814900 1.106000
2.827200 1.106700
2.839500 1.107500
2.851900 1.108200
2.864200 1.108900
2.876500 1.109600
2.888900 1.110300
2.901200 1.111000
2.913500 1.111700
2.925800 1.112500
2.938200 1.113200
2.950500 1.113900
2.962800 1.114700
2.975100 1.115400
2.987500 1.116200
2.999800 1.116900
3.012100 1.117700
3.024500 1.118400
3.036800 1.228400
3.049100 1.670100
3.061400 1.670100
3.073800 1.670100
3.086100 1.670100
3.098400 1.670100
3.110700 1.670100
3.123100 1.670100
3.135400 1.670100
3.147700 1.670100
3.160100 1.670100
3.172400 1.670100
3.184700 1.670100
3.197000 1.670100
3.209400 1.670100
3.221700 1.670100
3.234000 1.670100
3.246300 1.670100
3.258700 1.670100
3.271000 1.670100
3.283300 1.670100
3.295700 1.670100
3.308000 1.670100
3.320300 1.670100
3.332600 1.670100
3.345000 1.670100
3.357300 1.670100
3.369600 1.670100
3.382000 1.670100
3.394300 1.670100
3.406600 1.670100
3.418900 1.670100
3.431300 1.670100
3.443600 1.670100
3.455900 1.670100
3.468200 1.670100
3.480600 1.670100
3.492900 1.670100
3.505200 1.670100
3.517600 1.670100
3.529900 1.670100
3.542200 1.670100
3.554500 1.670100
3.566900 1.670100
3.579200 1.670100
3.591500 1.670100
3.603800 1.670100
3.616200 1.670100
3.628500 1.670100
3.640800 0.000000
3.653200 0.000000
3.665500 0.000000
3.677800 0.000000
3.690100 0.000000
3.702500 0.000000
3.714800 0.000000
3.727100 0.000000
3.739400 0.000000
3.751800 0.000000
3.764100 0.000000
3.776400 0.000000
3.788800 0.000000
3.801100 0.000000
3.813400 0.000000
3.825700 0.000000
3.838100 0.000000
3.850400 0.000000
3.862700 0.000000
3.875100 0.000000
3.887400 0.000000
3.899700 0.000000
3.912000 0.000000
3.924400 0.000000
3.936700 0.000000
3.949000 0.000000
3.961300 0.000000
3.973700 0.000000
3.986000 0.000000
3.998300 0.000000
4.010700 0.000000
4.023000 0.000000
4.035300 0.000000
4.047600 0.000000
4.060000 0.000000
4.072300 0.000000
4.084600 0.000000
4.096900 0.000000
4.109300 0.000000
4.121600 0.000000
4.133900 0.000000
4.146300 0.000000
4.158600 0.000000
4.170900 0.000000
4.183200 0.000000
4.195600 0.000000
4.207900 0.000000
4.220200 0.000000
4.232500 0.000000
4.244900 0.000000
4.257200 0.000000
4.269500 0.000000
4.281900 0.000000
4.294200 0.000000
4.306500 0.000000
4.318800 0.000000
4.331200 0.000000
4.343500 0.000000
4.355800 0.000000
4.368200 0.000000
4.380500 0.000000
4.392800 0.000000
4.405100 0.000000
4.417500 0.000000
4.429800 0.000000
4.442100 0.000000
4.454400 0.000000
4.466800 0.000000
4.479100 0.000000
4.491400 0.000000
4.503800 0.000000
4.516100 0.000000
4.528400 0.000000
4.540700 0.000000
4.553100 0.000000
4.565400 0.000000
4.577700 0.000000
4.590000 0.000000
4.602400 0.000000
4.614700 0.002400
4.627000 0.013000
4.639400 0.031900
4.651700 0.059200
4.664000 0.094800
4.676300 0.138800
4.688700 0.191200
4.701000 0.251900
4.713300 0.321000
4.725600 0.398500
4.738000 0.484000
4.750300 0.574600
4.762600 0.669800
4.775000 0.769500
4.787300 0.873700
4.799600 1.107000
4.811900 1.345700
4.824300 1.567700
4.836600 1.772900
4.848900 1.961200
4.861300 2.132700
4.873600 2.287500
4.885900 2.425400
4.898200 2.546500
4.910600 2.622800
4.922900 2.637300
4.935200 2.645800
4.947500 2.648400
4.959900 3.064900
4.972200 2.890600
4.984500 2.725200
4.996900 2.568700
5.009200 2.421200
5.021500 2.282500
5.033800 2.152700
5.046200 2.031900
5.058500 1.595000
5.070800 1.599500
5.083100 1.604500
5.095500 1.609200
5.107800 1.613100
5.120100 1.616300
5.132500 1.618700
5.144800 1.620400
5.157100 1.621300
5.169400 2.380200
5.181800 3.375800
5.194100 4.314200
5.206400 5.075700
5.218800 5.285800
5.231100 5.468800
5.243400 5.615900
5.255700 5.738500
5.268100 5.836800
5.280400 5.705300
5.292700 5.321400
5.305000 5.028100
5.317400 4.723900
5.329700 3.725500
5.342000 3.483500
5.354400 3.381100
5.366700 3.327200
5.379000 3.302100
5.391300 3.325000
5.403700 4.259100
5.416000 11.646900
5.428300 10.592700
5.440600 8.772500
5.453000 9.830700
5.465300 11.047100
5.477600 12.201400
5.490000 13.373600
5.502300 13.982400
5.514600 17.343300
5.526900 17.774100
5.539300 18.367600
5.551600 19.270400
5.563900 19.653000
5.576200 19.277300
5.588600 20.307300
5.600900 21.191600
5.613200 21.749200
5.625600 20.361800
5.637900 18.626400
5.650200 19.584900
5.662500 18.637400
5.674900 17.810500
5.687200 15.707800
5.699500 15.846600
5.711900 16.314100
5.724200 15.974200
5.736500 15.437900
5.748800 16.147000
5.761200 16.671300
5.773500 17.101200
5.785800 16.961700
5.798100 16.977000
5.810500 16.892000
5.822800 16.735700
5.835100 16.965100
5.847500 15.910000
5.859800 16.160400
5.872100 18.525400
5.884400 17.238000
5.896800 16.546700
5.909100 19.977900
5.921400 20.656400
5.933700 21.430400
5.946100 22.308500
5.958400 22.352700
5.970700 22.240100
5.983100 22.574400
5.995400 22.977900
6.007700 23.992000
6.020000 24.983500
6.032400 25.103300
6.044700 24.633500
6.057000 24.200500
6.069300 23.149600
6.081700 22.546100
6.094000 20.249900
6.106300 19.550600
6.118700 19.400200
6.131000 19.167100
6.143300 18.636800
6.155600 18.253700
6.168000 18.111000
6.180300 17.815300
6.192600 18.000300
6.205000 18.084000
6.217300 18.134500
6.229600 18.733400
6.241900 19.307900
6.254300 20.099900
6.266600 21.612200
6.278900 21.062100
6.291200 20.554100
6.303600 20.088100
6.315900 19.157100
6.328200 18.965200
6.340600 20.574000
6.352900 19.946600
6.365200 18.860400
6.377500 18.237300
6.389900 19.747000
6.402200 20.780000
6.414500 23.103600
6.426800 23.986500
6.439200 20.671400
6.451500 19.990900
6.463800 18.882700
6.476200 17.861300
6.488500 16.816600
6.500800 15.887400
6.513100 15.632300
6.525500 15.981900
6.537800 16.700200
6.550100 17.387100
6.562400 19.109200
6.574800 22.136000
6.587100 23.859300
6.599400 27.292200
6.611800 26.517800
6.624100 25.309700
6.636400 26.051900
6.648700 23.661900
6.661100 19.195400
6.673400 17.917900
6.685700 17.217000
6.698100 17.085400
6.710400 33.586300
6.722700 29.557500
6.735000 26.696300
6.747400 23.851200
6.759700 23.572200
6.772000 25.615500
6.784300 28.301800
6.796700 29.885100
6.809000 26.035600
6.821300 23.125100
6.833700 22.397100
6.846000 21.390100
6.858300 22.721500
6.870600 23.254800
6.883000 23.356900
6.895300 23.301200
6.907600 22.495300
6.919900 22.033500
6.932300 21.726500
6.944600 20.766600
6.956900 20.650900
6.969300 20.694400
6.981600 19.906700
6.993900 19.376700
7.006200 19.941400
7.018600 21.837800
7.030900 21.990500
7.043200 22.458000
7.055500 22.999300
7.067900 22.123200
7.080200 22.070500
7.092500 21.385100
7.104900 21.444300
7.117200 21.153400
7.129500 20.729600
7.141800 20.653700
7.154200 20.103000
7.166500 19.134700
7.178800 18.098200
7.191200 16.013400
7.203500 13.945300
7.215800 13.498500
7.228100 13.195300
7.240500 12.924200
7.252800 12.826800
7.265100 12.668600
7.277400 16.765300
7.289800 14.814800
7.302100 10.287000
7.314400 10.233000
7.326800 13.710300
7.339100 11.607700
7.351400 11.765300
7.363700 11.947500
7.376100 14.227300
7.388400 14.976400
7.400700 14.137800
7.413000 14.711600
7.425400 13.771200
7.437700 13.870500
7.450000 14.119900
7.462400 14.595800
7.474700 15.193500
7.487000 16.559700
7.499300 17.925400
7.511700 19.294600
7.524000 20.687500
7.536300 21.369400
7.548600 21.483300
7.561000 22.120700
7.573300 21.653000
7.585600 21.053100
7.598000 20.730200
7.610300 19.975300
7.622600 18.845400
7.634900 18.761100
7.647300 19.580900
7.659600 20.104900
7.671900 22.689900
7.684300 25.139800
7.696600 27.462000
7.708900 32.427500
7.721200 39.260600
7.733600 30.344600
7.745900 27.913800
7.758200 25.023200
7.770500 23.882400
7.782900 23.462500
7.795200 22.901800
7.807500 21.455200
7.819900 23.571000
7.832200 22.477700
7.844500 22.046100
7.856800 21.599000
7.869200 19.292400
7.881500 24.031000
7.893800 20.078900
7.906100 21.476100
7.918500 22.865100
7.930800 21.092700
7.943100 19.060100
7.955500 19.289900
7.967800 22.212900
7.980100 23.302100
7.992400 20.779000
8.004800 25.589900
8.017100 28.138200
8.029400 24.163600
8.041700 23.186200
8.054100 22.431000
8.066400 22.574300
8.078700 22.853900
8.091100 25.116400
8.103400 20.159500
8.115700 17.230100
8.128000 17.459500
8.140400 24.218100
8.152700 19.222700
8.165000 23.814400
8.177400 26.910600
8.189700 25.763100
8.202000 29.657400
8.214300 28.414100
8.226700 29.188300
8.239000 22.547100
8.251300 18.403000
8.263600 15.788500
8.276000 13.781000
8.288300 17.428800
8.300600 16.288700
8.313000 15.626500
8.325300 15.363500
8.337600 15.070800
8.349900 14.609300
8.362300 18.451400
8.374600 20.466700
8.386900 20.412500
8.399200 20.267800
8.411600 20.015300
8.423900 18.064000
8.436200 18.090100
8.448600 17.082400
8.460900 16.325200
8.473200 18.273500
8.485500 15.477200
8.497900 10.969400
8.510200 9.305200
8.522500 8.877600
8.534800 5.879300
8.547200 4.713700
8.559500 4.483400
8.571800 3.447600
8.584200 2.501900
8.596500 0.000000
8.608800 0.000000
8.621100 0.000000
8.633500 0.000000
8.645800 0.000000
8.658100 0.000000
8.670500 0.000000
8.682800 0.000000
8.695100 0.000000
8.707400 0.000000
8.719800 0.000000
8.732100 0.000000
8.744400 0.000000
8.756700 0.000000
8.769100 0.000000
8.781400 0.000000
8.793700 0.000000
8.806100 0.000000
8.818400 0.000000
8.830700 0.000000
8.843000 0.000000
8.855400 0.000000
8.867700 0.000000
8.880000 0.000000
8.892300 0.000000
8.904700 0.000000
8.917000 0.000000
8.929300 0.000000
8.941700 0.000000
8.954000 0.000000
8.966300 0.000000
8.978600 0.000000
8.991000 0.000000
9.003300 0.000000
9.015600 0.000000
9.027900 0.000000
9.040300 0.000000
9.052600 0.000000
9.064900 0.000000
9.077300 0.000000
9.089600 0.000000
9.101900 0.000000
9.114200 0.000000
9.126600 0.000000
9.138900 0.000000
9.151200 0.000000
9.163600 0.000000
9.175900 0.000000
9.188200 0.000000
9.200500 0.000000
9.212900 0.000000
9.225200 0.000000
9.237500 0.000000
9.249800 0.000000
9.262200 0.000000
9.274500 0.000000
9.286800 0.000000
9.299200 0.000000
9.311500 0.000000
9.323800 0.000000
9.336100 0.000000
9.348500 0.000000
9.360800 0.000000
9.373100 0.000000
9.385400 0.000000
9.397800 0.000000
9.410100 0.000000
9.422400 0.000000
9.434800 0.000000
9.447100 0.000000
9.459400 0.000000
9.471700 0.000000
9.484100 0.000000
9.496400 0.000000
9.508700 0.000000
9.521000 0.000000
9.533400 0.000000
9.545700 0.000000
9.558000 0.000000
9.570400 0.000000
9.582700 0.000000
9.595000 0.000000
9.607300 0.000000
9.619700 0.000000
9.632000 0.000000
9.644300 0.000000
9.656700 0.000000
9.669000 0.000000
9.681300 0.000000
9.693600 0.000000
9.706000 0.000000
e
