set title 'mp-7716 - Density of States'
set xlabel 'Energy (eV)'
set ylabel 'DOS (states/eV)'
set grid
set xrange [-10:10]
set yrange [0:24.767]
set xzeroaxis lt -1
set terminal png size 800,600
set output 'mp-7716_dos_gnuplot.png'
plot '-' using 1:2 with lines title 'DOS'
-7.768900 0.000000
-7.759300 0.000000
-7.749800 0.000000
-7.740300 0.000000
-7.730700 0.000000
-7.721200 0.000000
-7.711700 0.000000
-7.702100 0.000000
-7.692600 0.000000
-7.683100 0.000000
-7.673500 0.000000
-7.664000 0.000000
-7.654500 0.000000
-7.645000 0.000000
-7.635400 0.000000
-7.625900 0.000000
-7.616400 0.000000
-7.606800 0.000000
-7.597300 0.000000
-7.587800 0.000000
-7.578200 0.000000
-7.568700 0.000000
-7.559200 0.000000
-7.549600 0.000000
-7.540100 0.000000
-7.530600 0.000000
-7.521100 0.000000
-7.511500 0.000000
-7.502000 0.000000
-7.492500 0.000000
-7.482900 0.000000
-7.473400 0.000000
-7.463900 0.000000
-7.454300 0.000000
-7.444800 0.000000
-7.435300 0.000000
-7.425700 0.000000
-7.416200 0.000000
-7.406700 0.000000
-7.397100 0.000000
-7.387600 0.000000
-7.378100 0.000000
-7.368600 0.000000
-7.359000 0.000000
-7.349500 0.000000
-7.340000 0.000000
-7.330400 0.000000
-7.320900 0.000000
-7.311400 0.000000
-7.301800 0.000000
-7.292300 0.000000
-7.282800 0.000000
-7.273200 0.000000
-7.263700 0.000000
-7.254200 0.000000
-7.244700 0.000000
-7.235100 0.000000
-7.225600 0.000000
-7.216100 0.000000
-7.206500 0.000000
-7.197000 0.000000
-7.187500 0.000000
-7.177900 0.000000
-7.168400 0.000000
-7.158900 0.000000
-7.149300 0.000000
-7.139800 0.000000
-7.130300 0.000000
-7.120800 0.000000
-7.111200 0.000000
-7.101700 0.000000
-7.092200 0.000000
-7.082600 0.000000
-7.073100 0.000000
-7.063600 0.000000
-7.054000 0.000000
-7.044500 0.000000
-7.035000 0.000000
-7.025400 0.000000
-7.015900 0.000000
-7.006400 0.000000
-6.996900 0.000000
-6.987300 0.000000
-6.977800 0.000000
-6.968300 0.000000
-6.958700 0.000000
-6.949200 0.000000
-6.939700 0.000000
-6.930100 0.000000
-6.920600 0.000000
-6.911100 0.000000
-6.901500 0.001600
-6.892000 0.224200
-6.882500 0.574800
-6.872900 0.925500
-6.863400 1.202900
-6.853900 0.759400
-6.844400 1.056900
-6.834800 1.439700
-6.825300 1.822800
-6.815800 1.887200
-6.806200 1.606300
-6.796700 1.666200
-6.787200 1.725400
-6.777600 1.740500
-6.768100 1.735600
-6.758600 1.730700
-6.749000 1.726700
-6.739500 1.746200
-6.730000 1.733600
-6.720500 1.709400
-6.710900 1.685100
-6.701400 1.669100
-6.691900 1.684500
-6.682300 1.706500
-6.672800 1.728500
-6.663300 1.750500
-6.653700 1.772500
-6.644200 1.794500
-6.634700 1.781000
-6.625100 1.760800
-6.615600 1.770700
-6.606100 1.780700
-6.596600 1.790600
-6.587000 1.744800
-6.577500 1.728700
-6.568000 1.726500
-6.558400 1.726400
-6.548900 1.731300
-6.539400 1.736300
-6.529800 1.741300
-6.520300 1.746400
-6.510800 1.755900
-6.501200 1.768100
-6.491700 1.780300
-6.482200 1.792400
-6.472700 1.804600
-6.463100 1.816800
-6.453600 1.829700
-6.444100 1.902100
-6.434500 2.084500
-6.425000 2.380500
-6.415500 2.676100
-6.405900 2.782800
-6.396400 2.772100
-6.386900 2.653100
-6.377300 2.655400
-6.367800 2.689700
-6.358300 2.730500
-6.348700 2.771000
-6.339200 2.797900
-6.329700 2.804500
-6.320200 2.855700
-6.310600 2.991400
-6.301100 3.241300
-6.291600 3.506400
-6.282000 3.666100
-6.272500 3.737300
-6.263000 3.714200
-6.253400 3.677300
-6.243900 3.737100
-6.234400 3.796800
-6.224800 3.855600
-6.215300 3.900300
-6.205800 3.903300
-6.196300 3.866100
-6.186700 3.821100
-6.177200 3.791500
-6.167700 3.785100
-6.158100 3.775800
-6.148600 3.788000
-6.139100 3.803200
-6.129500 3.823100
-6.120000 3.846600
-6.110500 3.872200
-6.100900 3.897800
-6.091400 3.922900
-6.081900 3.931100
-6.072400 3.935600
-6.062800 3.936400
-6.053300 3.940400
-6.043800 3.954200
-6.034200 3.962600
-6.024700 3.964800
-6.015200 3.963500
-6.005600 3.967200
-5.996100 3.978800
-5.986600 3.997400
-5.977000 4.017400
-5.967500 4.037400
-5.958000 4.057800
-5.948400 4.078500
-5.938900 4.099200
-5.929400 4.118200
-5.919900 4.132500
-5.910300 4.142100
-5.900800 4.148000
-5.891300 4.152800
-5.881700 4.160100
-5.872200 4.171900
-5.862700 4.188000
-5.853100 4.206500
-5.843600 4.225000
-5.834100 4.243500
-5.824500 4.258600
-5.815000 4.271300
-5.805500 4.284100
-5.796000 4.301300
-5.786400 4.319300
-5.776900 4.338000
-5.767400 4.358000
-5.757800 4.379600
-5.748300 4.402500
-5.738800 4.425500
-5.729200 4.448600
-5.719700 4.471700
-5.710200 4.492100
-5.700600 4.511200
-5.691100 4.529700
-5.681600 4.550700
-5.672100 4.571800
-5.662500 4.593100
-5.653000 4.615700
-5.643500 4.640000
-5.633900 4.665500
-5.624400 4.694900
-5.614900 4.728900
-5.605300 4.758800
-5.595800 4.789600
-5.586300 4.835600
-5.576700 4.876000
-5.567200 4.916000
-5.557700 4.955200
-5.548200 4.997400
-5.538600 5.080700
-5.529100 5.216300
-5.519600 5.388100
-5.510000 5.515000
-5.500500 5.647700
-5.491000 5.787800
-5.481400 5.937400
-5.471900 6.096400
-5.462400 6.266300
-5.452800 6.433500
-5.443300 6.588200
-5.433800 6.703400
-5.424200 6.771300
-5.414700 6.817900
-5.405200 6.907600
-5.395700 7.001000
-5.386100 7.123400
-5.376600 7.312600
-5.367100 7.518500
-5.357500 7.702800
-5.348000 7.927600
-5.338500 8.162400
-5.328900 8.802700
-5.319400 9.012600
-5.309900 9.671300
-5.300300 9.807000
-5.290800 9.987200
-5.281300 10.163500
-5.271800 10.391800
-5.262200 10.671300
-5.252700 12.390700
-5.243200 12.120000
-5.233600 13.298300
-5.224100 12.934200
-5.214600 12.070400
-5.205000 11.266300
-5.195500 10.935700
-5.186000 10.650700
-5.176400 10.724500
-5.166900 11.290100
-5.157400 13.090300
-5.147900 11.348200
-5.138300 10.979000
-5.128800 10.222800
-5.119300 9.723200
-5.109700 10.194000
-5.100200 10.861800
-5.090700 10.831800
-5.081100 12.955500
-5.071600 13.741900
-5.062100 11.942100
-5.052500 12.388200
-5.043000 12.948400
-5.033500 13.515200
-5.024000 13.369100
-5.014400 13.176500
-5.004900 13.660600
-4.995400 15.795500
-4.985800 17.873100
-4.976300 22.515600
-4.966800 15.772900
-4.957200 17.343600
-4.947700 16.113400
-4.938200 15.340400
-4.928600 15.670800
-4.919100 17.582600
-4.909600 19.153400
-4.900000 15.963200
-4.890500 14.441100
-4.881000 15.796400
-4.871500 15.344700
-4.861900 12.492000
-4.852400 11.895700
-4.842900 8.592100
-4.833300 7.163000
-4.823800 5.798800
-4.814300 2.582300
-4.804700 1.117800
-4.795200 1.108400
-4.785700 1.082200
-4.776100 1.048000
-4.766600 1.039700
-4.757100 1.035100
-4.747600 1.030100
-4.738000 1.024800
-4.728500 1.022900
-4.719000 1.027100
-4.709400 1.035400
-4.699900 1.043900
-4.690400 1.052400
-4.680800 1.060800
-4.671300 1.069300
-4.661800 1.077800
-4.652200 1.086300
-4.642700 1.094700
-4.633200 1.093200
-4.623700 1.073100
-4.614100 1.047800
-4.604600 1.027300
-4.595100 1.024300
-4.585500 1.025700
-4.576000 1.027000
-4.566500 1.028300
-4.556900 1.029700
-4.547400 1.031000
-4.537900 1.032200
-4.528300 1.033500
-4.518800 1.034700
-4.509300 1.038200
-4.499800 1.043800
-4.490200 1.049300
-4.480700 1.054900
-4.471200 1.060400
-4.461600 1.066000
-4.452100 1.071500
-4.442600 1.077100
-4.433000 1.082600
-4.423500 1.088200
-4.414000 1.057500
-4.404400 1.053700
-4.394900 1.049800
-4.385400 1.045900
-4.375800 1.042000
-4.366300 1.038100
-4.356800 1.036800
-4.347300 1.040400
-4.337700 1.043900
-4.328200 1.047400
-4.318700 1.050900
-4.309100 1.054500
-4.299600 1.058000
-4.290100 1.061500
-4.280500 1.065000
-4.271000 1.068600
-4.261500 1.072100
-4.251900 1.075600
-4.242400 1.079700
-4.232900 1.085300
-4.223400 1.091000
-4.213800 1.096600
-4.204300 1.102300
-4.194800 1.108000
-4.185200 1.113600
-4.175700 1.119300
-4.166200 1.124800
-4.156600 1.116900
-4.147100 1.108500
-4.137600 1.105900
-4.128000 1.109600
-4.118500 1.113400
-4.109000 1.117100
-4.099500 1.120900
-4.089900 1.124600
-4.080400 1.128400
-4.070900 1.132100
-4.061300 1.141100
-4.051800 1.150200
-4.042300 1.159400
-4.032700 1.168600
-4.023200 1.177700
-4.013700 1.186900
-4.004100 1.196100
-3.994600 1.205200
-3.985100 1.214400
-3.975600 1.223500
-3.966000 1.232700
-3.956500 1.241900
-3.947000 1.254200
-3.937400 1.268400
-3.927900 1.282600
-3.918400 1.296700
-3.908800 1.310900
-3.899300 1.325100
-3.889800 1.339300
-3.880200 1.353500
-3.870700 1.367600
-3.861200 1.374000
-3.851600 1.391500
-3.842100 1.409100
-3.832600 1.448100
-3.823100 1.488100
-3.813500 1.528000
-3.804000 1.568000
-3.794500 1.631000
-3.784900 1.742600
-3.775400 1.854200
-3.765900 1.965700
-3.756300 2.077300
-3.746800 2.188800
-3.737300 3.033800
-3.727700 2.756200
-3.718200 2.478800
-3.708700 2.201600
-3.699200 1.924600
-3.689600 1.647700
-3.680100 1.525100
-3.670600 1.554200
-3.661000 1.583300
-3.651500 1.612500
-3.642000 1.641900
-3.632400 1.671300
-3.622900 1.292200
-3.613400 1.344900
-3.603800 1.397600
-3.594300 1.450300
-3.584800 1.503100
-3.575300 1.555800
-3.565700 1.762200
-3.556200 2.058500
-3.546700 2.287400
-3.537100 2.218700
-3.527600 2.150400
-3.518100 2.086800
-3.508500 2.274200
-3.499000 3.134100
-3.489500 5.734500
-3.479900 11.147100
-3.470400 4.275800
-3.460900 6.485100
-3.451300 8.014200
-3.441800 5.041400
-3.432300 5.321300
-3.422800 5.997200
-3.413200 7.069200
-3.403700 10.081900
-3.394200 9.846100
-3.384600 14.103500
-3.375100 11.024900
-3.365600 8.431300
-3.356000 6.719600
-3.346500 6.324400
-3.337000 5.932100
-3.327400 5.564500
-3.317900 5.245000
-3.308400 4.955100
-3.298900 4.755000
-3.289300 4.689300
-3.279800 4.624000
-3.270300 4.559100
-3.260700 4.495400
-3.251200 4.441500
-3.241700 4.396200
-3.232100 7.792300
-3.222600 6.800700
-3.213100 6.549400
-3.203500 6.394900
-3.194000 6.264300
-3.184500 6.147700
-3.175000 6.031200
-3.165400 5.915100
-3.155900 5.799200
-3.146400 5.620000
-3.136800 5.487800
-3.127300 5.316300
-3.117800 5.304000
-3.108200 5.296400
-3.098700 5.289000
-3.089200 5.281800
-3.079600 5.274700
-3.070100 5.269300
-3.060600 5.267000
-3.051100 5.264800
-3.041500 5.500200
-3.032000 5.611900
-3.022500 5.616000
-3.012900 5.622800
-3.003400 5.949300
-2.993900 5.976100
-2.984300 6.013000
-2.974800 6.058000
-2.965300 6.141100
-2.955700 6.299200
-2.946200 6.526500
-2.936700 6.825600
-2.927100 7.219900
-2.917600 7.769700
-2.908100 8.454100
-2.898600 7.421400
-2.889000 7.324000
-2.879500 7.277100
-2.870000 7.323900
-2.860400 7.498800
-2.850900 7.775600
-2.841400 7.024900
-2.831800 6.667700
-2.822300 6.534100
-2.812800 6.505200
-2.803200 6.506400
-2.793700 6.539600
-2.784200 6.589000
-2.774700 6.614300
-2.765100 6.656900
-2.755600 6.993100
-2.746100 7.523900
-2.736500 8.754100
-2.727000 9.401700
-2.717500 8.960600
-2.707900 8.537000
-2.698400 8.127700
-2.688900 7.762100
-2.679300 7.410100
-2.669800 7.061400
-2.660300 6.696900
-2.650800 6.364100
-2.641200 6.022400
-2.631700 5.606200
-2.622200 4.518200
-2.612600 4.586900
-2.603100 4.576400
-2.593600 4.689700
-2.584000 5.105900
-2.574500 5.568400
-2.565000 5.593600
-2.555400 5.362900
-2.545900 5.130000
-2.536400 4.919200
-2.526900 4.723900
-2.517300 4.533100
-2.507800 4.343900
-2.498300 4.156200
-2.488700 3.970200
-2.479200 3.770000
-2.469700 3.574300
-2.460100 3.384700
-2.450600 3.207500
-2.441100 3.047900
-2.431500 2.848600
-2.422000 2.658600
-2.412500 2.440400
-2.402900 2.403700
-2.393400 2.419400
-2.383900 2.435200
-2.374400 2.451100
-2.364800 2.467100
-2.355300 2.483100
-2.345800 2.499200
-2.336200 2.515400
-2.326700 2.531500
-2.317200 2.547800
-2.307600 2.564300
-2.298100 2.581500
-2.288600 2.599300
-2.279000 2.617700
-2.269500 2.627000
-2.260000 2.506600
-2.250500 3.299000
-2.240900 3.156200
-2.231400 3.017100
-2.221900 2.875500
-2.212300 2.732000
-2.202800 2.763500
-2.193300 2.902300
-2.183700 3.041200
-2.174200 3.180800
-2.164700 3.323800
-2.155100 3.464300
-2.145600 3.604900
-2.136100 3.745500
-2.126600 3.072000
-2.117000 3.018000
-2.107500 2.964000
-2.098000 2.910000
-2.088400 2.856300
-2.078900 2.802900
-2.069400 2.749900
-2.059800 2.697000
-2.050300 2.644200
-2.040800 2.593500
-2.031200 2.570100
-2.021700 2.546700
-2.012200 2.523300
-2.002700 2.500200
-1.993100 2.477400
-1.983600 2.455000
-1.974100 2.432700
-1.964500 2.410400
-1.955000 2.392500
-1.945500 2.381400
-1.935900 2.374900
-1.926400 2.366000
-1.916900 2.354900
-1.907300 2.340600
-1.897800 2.331200
-1.888300 2.320400
-1.878700 2.308400
-1.869200 2.295000
-1.859700 2.280400
-1.850200 2.266300
-1.840600 2.257700
-1.831100 2.252100
-1.821600 2.244400
-1.812000 2.235600
-1.802500 2.225700
-1.793000 2.214800
-1.783400 2.202800
-1.773900 2.191100
-1.764400 2.180700
-1.754800 2.171900
-1.745300 2.164600
-1.735800 2.158900
-1.726300 2.154700
-1.716700 2.149600
-1.707200 2.143100
-1.697700 2.142900
-1.688100 2.141800
-1.678600 2.140800
-1.669100 2.139600
-1.659500 2.137500
-1.650000 2.134600
-1.640500 2.130900
-1.630900 2.126900
-1.621400 2.123100
-1.611900 2.119500
-1.602400 2.116100
-1.592800 2.102100
-1.583300 2.076900
-1.573800 2.063000
-1.564200 2.060600
-1.554700 2.069200
-1.545200 2.088000
-1.535600 2.103400
-1.526100 2.115700
-1.516600 2.124900
-1.507000 2.130900
-1.497500 2.133700
-1.488000 2.140600
-1.478500 2.160400
-1.468900 2.154800
-1.459400 2.121300
-1.449900 2.075800
-1.440300 2.031200
-1.430800 1.987200
-1.421300 1.943700
-1.411700 1.900400
-1.402200 1.857500
-1.392700 1.815200
-1.383100 1.776900
-1.373600 1.743300
-1.364100 1.714600
-1.354500 1.690700
-1.345000 1.667500
-1.335500 1.643400
-1.326000 1.618500
-1.316400 1.592800
-1.306900 1.566200
-1.297400 1.539000
-1.287800 1.512200
-1.278300 1.484500
-1.268800 1.456000
-1.259200 1.410400
-1.249700 1.373900
-1.240200 1.344400
-1.230600 1.319500
-1.221100 1.299000
-1.211600 1.283700
-1.202100 1.253400
-1.192500 1.222800
-1.183000 1.193400
-1.173500 1.164700
-1.163900 1.136500
-1.154400 1.108900
-1.144900 1.081800
-1.135300 1.055300
-1.125800 1.029400
-1.116300 1.004000
-1.106700 0.979200
-1.097200 0.955000
-1.087700 0.931300
-1.078200 0.908600
-1.068600 0.886600
-1.059100 0.865200
-1.049600 0.844400
-1.040000 0.813100
-1.030500 0.784000
-1.021000 0.759300
-1.011400 0.738800
-1.001900 0.722600
-0.992400 0.710700
-0.982800 0.703100
-0.973300 0.699600
-0.963800 0.697100
-0.954200 0.694700
-0.944700 0.694100
-0.935200 0.695000
-0.925700 0.696000
-0.916100 0.697000
-0.906600 0.697900
-0.897100 0.694900
-0.887500 0.691000
-0.878000 0.687000
-0.868500 0.683100
-0.858900 0.679200
-0.849400 0.675200
-0.839900 0.671300
-0.830300 0.667400
-0.820800 0.663400
-0.811300 0.659500
-0.801800 0.655600
-0.792200 0.651600
-0.782700 0.647700
-0.773200 0.643700
-0.763600 0.639800
-0.754100 0.636400
-0.744600 0.634000
-0.735000 0.631500
-0.725500 0.629000
-0.716000 0.626600
-0.706400 0.624100
-0.696900 0.621600
-0.687400 0.619200
-0.677900 0.616700
-0.668300 0.614200
-0.658800 0.611700
-0.649300 0.628800
-0.639700 0.623100
-0.630200 0.617400
-0.620700 0.611700
-0.611100 0.606000
-0.601600 0.600400
-0.592100 0.594700
-0.582500 0.589000
-0.573000 0.583300
-0.563500 0.577600
-0.554000 0.571900
-0.544400 0.566300
-0.534900 0.560600
-0.525400 0.554900
-0.515800 0.549200
-0.506300 0.543500
-0.496800 0.537800
-0.487200 0.535000
-0.477700 0.541400
-0.468200 0.548300
-0.458600 0.555200
-0.449100 0.561800
-0.439600 0.568400
-0.430000 0.572300
-0.420500 0.564500
-0.411000 0.552800
-0.401500 0.541100
-0.391900 0.529400
-0.382400 0.517700
-0.372900 0.506000
-0.363300 0.494400
-0.353800 0.482700
-0.344300 0.471000
-0.334700 0.459400
-0.325200 0.447700
-0.315700 0.436100
-0.306100 0.553700
-0.296600 0.628700
-0.287100 0.606200
-0.277600 0.484900
-0.268000 0.367600
-0.258500 0.254400
-0.249000 0.147600
-0.239400 0.067300
-0.229900 0.018100
-0.220400 0.000100
-0.210800 0.000000
-0.201300 0.000000
-0.191800 0.000000
-0.182200 0.000000
-0.172700 0.000000
-0.163200 0.000000
-0.153700 0.000000
-0.144100 0.000000
-0.134600 0.000000
-0.125100 0.000000
-0.115500 0.000000
-0.106000 0.000000
-0.096500 0.000000
-0.086900 0.000000
-0.077400 0.000000
-0.067900 0.000000
-0.058300 0.000000
-0.048800 0.000000
-0.039300 0.000000
-0.029800 0.000000
-0.020200 0.000000
-0.010700 0.000000
-0.001200 0.000000
0.008400 0.000000
0.017900 0.000000
0.027400 0.000000
0.037000 0.000000
0.046500 0.000000
0.056000 0.000000
0.065600 0.000000
0.075100 0.000000
0.084600 0.000000
0.094200 0.000000
0.103700 0.000000
0.113200 0.000000
0.122700 0.000000
0.132300 0.000000
0.141800 0.000000
0.151300 0.000000
0.160900 0.000000
0.170400 0.000000
0.179900 0.000000
0.189500 0.000000
0.199000 0.000000
0.208500 0.000000
0.218100 0.000000
0.227600 0.000000
0.237100 0.000000
0.246600 0.000000
0.256200 0.000000
0.265700 0.000000
0.275200 0.000000
0.284800 0.000000
0.294300 0.000000
0.303800 0.000000
0.313400 0.000000
0.322900 0.000000
0.332400 0.000000
0.342000 0.000000
0.351500 0.000000
0.361000 0.000000
0.370500 0.000000
0.380100 0.000000
0.389600 0.000000
0.399100 0.000000
0.408700 0.000000
0.418200 0.000000
0.427700 0.000000
0.437300 0.000000
0.446800 0.000000
0.456300 0.000000
0.465900 0.000000
0.475400 0.000000
0.484900 0.000000
0.494400 0.000000
0.504000 0.000000
0.513500 0.000000
0.523000 0.000000
0.532600 0.000000
0.542100 0.000000
0.551600 0.000000
0.561200 0.000000
0.570700 0.000000
0.580200 0.000000
0.589800 0.000000
0.599300 0.000000
0.608800 0.000000
0.618400 0.000000
0.627900 0.000000
0.637400 0.000000
0.646900 1.301000
0.656500 1.636900
0.666000 1.766100
0.675500 1.735000
0.685100 1.773300
0.694600 1.875300
0.704100 2.015800
0.713700 2.192000
0.723200 2.358500
0.732700 2.412400
0.742300 2.770400
0.751800 3.115700
0.761300 3.296100
0.770800 3.677700
0.780400 3.675800
0.789900 3.638000
0.799400 3.707300
0.809000 3.836600
0.818500 4.017400
0.828000 4.189100
0.837600 4.270300
0.847100 4.261200
0.856600 4.221800
0.866200 4.222100
0.875700 4.232000
0.885200 4.230200
0.894700 4.230000
0.904300 4.235700
0.913800 4.243900
0.923300 4.236400
0.932900 4.230600
0.942400 4.248800
0.951900 4.279000
0.961500 4.310500
0.971000 4.335300
0.980500 4.353000
0.990100 4.363700
0.999600 4.486600
1.009100 5.434400
1.018600 5.797300
1.028200 5.478500
1.037700 5.143700
1.047200 4.807200
1.056800 4.475900
1.066300 4.508200
1.075800 5.441600
1.085400 6.267700
1.094900 5.950200
1.104400 4.965100
1.114000 4.362500
1.123500 4.681000
1.133000 4.695400
1.142600 4.147800
1.152100 3.686100
1.161600 3.308800
1.171100 3.023600
1.180700 2.831900
1.190200 2.730600
1.199700 2.717700
1.209300 2.803200
1.218800 2.867600
1.228300 2.648400
1.237900 2.449400
1.247400 2.291700
1.256900 2.299600
1.266500 2.408700
1.276000 2.547700
1.285500 2.716400
1.295000 2.927400
1.304600 3.199900
1.314100 3.749500
1.323600 4.584900
1.333200 5.157000
1.342700 4.500500
1.352200 3.976000
1.361800 3.637200
1.371300 3.484100
1.380800 3.508100
1.390400 3.579100
1.399900 3.832500
1.409400 4.277500
1.418900 4.689300
1.428500 4.578600
1.438000 4.305900
1.447500 4.113000
1.457100 4.013400
1.466600 4.047400
1.476100 4.106600
1.485700 4.191100
1.495200 4.076200
1.504700 4.007900
1.514300 4.066500
1.523800 4.189100
1.533300 4.341600
1.542900 4.545600
1.552400 4.749300
1.561900 4.951800
1.571400 4.879800
1.581000 5.037800
1.590500 5.193000
1.600000 5.310900
1.609600 5.486800
1.619100 6.072200
1.628600 6.757900
1.638200 7.060400
1.647700 7.432600
1.657200 7.862500
1.666800 8.185700
1.676300 8.384100
1.685800 8.502000
1.695300 8.516300
1.704900 8.414400
1.714400 8.281900
1.723900 8.316000
1.733500 8.533800
1.743000 8.350000
1.752500 7.821400
1.762100 7.371900
1.771600 6.963700
1.781100 6.595600
1.790700 6.271400
1.800200 6.004700
1.809700 5.953500
1.819200 5.972900
1.828800 6.041600
1.838300 6.191500
1.847800 6.898000
1.857400 8.020600
1.866900 8.613900
1.876400 9.085800
1.886000 9.576700
1.895500 10.081800
1.905000 10.219600
1.914600 9.911500
1.924100 9.753900
1.933600 9.589400
1.943100 9.571700
1.952700 9.520700
1.962200 9.497300
1.971700 9.448800
1.981300 9.380600
1.990800 9.318100
2.000300 9.270100
2.009900 9.241200
2.019400 9.205400
2.028900 9.138500
2.038500 9.032800
2.048000 8.822400
2.057500 8.530000
2.067100 8.216500
2.076600 7.980100
2.086100 8.174400
2.095600 8.615500
2.105200 9.320700
2.114700 10.129400
2.124200 10.839300
2.133800 11.029500
2.143300 10.284800
2.152800 9.312800
2.162400 9.436000
2.171900 9.576300
2.181400 9.747900
2.191000 9.642400
2.200500 9.536700
2.210000 9.509700
2.219500 9.657000
2.229100 10.116700
2.238600 10.110400
2.248100 9.921800
2.257700 9.885700
2.267200 9.856500
2.276700 9.871800
2.286300 9.880900
2.295800 9.880200
2.305300 9.911000
2.314900 9.997800
2.324400 10.130600
2.333900 10.295900
2.343400 10.492400
2.353000 10.714400
2.362500 10.650800
2.372000 10.618100
2.381600 10.572700
2.391100 10.518200
2.400600 10.532800
2.410200 10.586800
2.419700 10.677400
2.429200 10.791700
2.438800 10.969200
2.448300 11.168900
2.457800 11.163200
2.467300 11.066500
2.476900 11.124800
2.486400 11.108400
2.495900 11.065100
2.505500 10.812900
2.515000 10.514700
2.524500 10.352000
2.534100 10.178200
2.543600 10.048400
2.553100 9.945800
2.562700 9.823600
2.572200 9.680800
2.581700 9.514000
2.591300 9.468100
2.600800 9.463400
2.610300 9.471000
2.619800 9.488200
2.629400 9.527500
2.638900 9.533000
2.648400 9.542000
2.658000 9.582200
2.667500 9.655400
2.677000 9.734700
2.686600 9.909800
2.696100 10.003500
2.705600 9.949700
2.715200 9.855000
2.724700 9.852100
2.734200 9.823700
2.743700 9.804000
2.753300 9.841100
2.762800 9.974900
2.772300 10.648900
2.781900 11.468800
2.791400 11.372700
2.800900 11.360100
2.810500 11.241700
2.820000 13.980700
2.829500 12.093200
2.839100 11.759500
2.848600 11.477400
2.858100 11.230200
2.867600 10.984700
2.877200 10.773400
2.886700 10.634000
2.896200 10.620200
2.905800 10.649100
2.915300 10.644600
2.924800 10.735500
2.934400 10.898300
2.943900 11.147800
2.953400 11.529200
2.963000 11.905200
2.972500 12.028800
2.982000 12.325100
2.991500 13.090500
3.001100 14.145500
3.010600 13.602200
3.020100 12.931400
3.029700 12.265600
3.039200 11.600400
3.048700 10.996200
3.058300 10.464700
3.067800 10.179000
3.077300 9.940900
3.086900 9.831100
3.096400 9.861300
3.105900 10.113400
3.115500 10.482000
3.125000 11.256700
3.134500 12.134600
3.144000 12.987700
3.153600 13.808400
3.163100 14.545600
3.172600 15.182500
3.182200 14.899100
3.191700 14.380200
3.201200 13.252700
3.210800 12.426600
3.220300 11.804700
3.229800 11.184200
3.239400 11.167000
3.248900 10.711000
3.258400 10.464800
3.267900 10.370900
3.277500 10.386800
3.287000 10.334100
3.296500 10.241000
3.306100 10.137200
3.315600 10.343500
3.325100 10.067300
3.334700 9.741300
3.344200 9.450600
3.353700 9.200600
3.363300 8.991100
3.372800 8.832400
3.382300 8.724200
3.391800 8.645500
3.401400 8.566600
3.410900 8.476800
3.420400 8.420400
3.430000 8.382400
3.439500 8.358300
3.449000 8.253700
3.458600 8.150500
3.468100 8.067500
3.477600 8.061300
3.487200 8.075200
3.496700 8.140900
3.506200 8.276500
3.515700 8.408600
3.525300 8.644000
3.534800 9.345800
3.544300 10.311200
3.553900 10.863600
3.563400 10.950900
3.572900 11.147600
3.582500 10.697900
3.592000 10.381700
3.601500 10.112400
3.611100 9.883700
3.620600 9.655600
3.630100 9.409600
3.639700 9.156400
3.649200 8.953500
3.658700 8.764000
3.668200 8.628300
3.677800 8.532400
3.687300 8.455400
3.696800 8.386000
3.706400 8.300400
3.715900 8.218000
3.725400 8.131200
3.735000 7.797500
3.744500 7.573700
3.754000 7.489400
3.763600 7.424600
3.773100 7.931100
3.782600 8.324500
3.792100 8.648000
3.801700 8.917600
3.811200 9.016000
3.820700 8.898700
3.830300 8.833600
3.839800 8.865200
3.849300 8.857100
3.858900 8.879400
3.868400 8.974700
3.877900 9.308200
3.887500 9.130500
3.897000 8.265800
3.906500 8.110200
3.916000 8.212100
3.925600 8.365500
3.935100 8.546000
3.944600 8.735500
3.954200 8.951900
3.963700 9.091400
3.973200 9.157400
3.982800 9.116700
3.992300 8.989200
4.001800 8.778600
4.011400 8.481300
4.020900 8.125900
4.030400 7.667400
4.040000 7.394800
4.049500 7.084900
4.059000 6.847500
4.068500 7.041000
4.078100 6.782500
4.087600 7.040400
4.097100 7.174400
4.106700 7.215000
4.116200 7.319500
4.125700 7.462800
4.135300 7.718000
4.144800 8.167500
4.154300 9.972700
4.163900 10.122500
4.173400 9.926000
4.182900 9.575900
4.192400 9.271200
4.202000 9.085900
4.211500 9.129200
4.221000 9.492100
4.230600 10.132400
4.240100 10.480100
4.249600 10.676000
4.259200 9.956800
4.268700 8.845400
4.278200 7.968700
4.287800 7.651300
4.297300 7.622000
4.306800 7.693500
4.316300 7.854100
4.325900 7.982200
4.335400 8.075400
4.344900 8.181600
4.354500 8.184100
4.364000 8.008800
4.373500 7.481300
4.383100 7.359000
4.392600 7.465800
4.402100 7.741800
4.411700 8.076800
4.421200 8.516700
4.430700 9.098300
4.440200 10.648700
4.449800 9.303300
4.459300 9.357800
4.468800 9.503400
4.478400 9.906200
4.487900 11.544800
4.497400 11.424300
4.507000 11.435900
4.516500 11.353100
4.526000 11.196800
4.535600 10.962900
4.545100 10.599200
4.554600 10.115300
4.564200 9.775700
4.573700 9.423000
4.583200 9.136900
4.592700 8.779300
4.602300 8.367100
4.611800 8.335500
4.621300 8.687600
4.630900 8.574000
4.640400 8.199500
4.649900 7.902500
4.659500 7.866700
4.669000 8.063000
4.678500 8.431900
4.688100 8.796400
4.697600 9.226700
4.707100 10.171300
4.716600 11.254600
4.726200 9.950500
4.735700 11.015600
4.745200 12.073100
4.754800 12.752300
4.764300 12.886300
4.773800 12.590000
4.783400 12.545700
4.792900 12.605700
4.802400 12.085500
4.812000 11.182300
4.821500 10.023300
4.831000 9.463800
4.840500 8.994900
4.850100 8.674200
4.859600 8.445700
4.869100 8.365300
4.878700 8.362400
4.888200 8.344400
4.897700 8.354100
4.907300 8.608000
4.916800 8.867900
4.926300 9.100000
4.935900 9.257000
4.945400 9.328700
4.954900 9.429000
4.964400 9.530000
4.974000 9.513400
4.983500 9.390100
4.993000 9.272200
5.002600 11.023000
5.012100 11.794500
5.021600 11.612800
5.031200 11.332100
5.040700 9.256500
5.050200 8.516300
5.059800 7.960900
5.069300 7.470700
5.078800 7.734200
5.088400 7.646900
5.097900 7.700500
5.107400 7.790600
5.116900 7.914900
5.126500 8.320500
5.136000 8.679200
5.145500 9.021000
5.155100 9.678800
5.164600 10.376100
5.174100 10.900500
5.183700 11.278100
5.193200 11.590600
5.202700 11.931100
5.212300 12.314500
5.221800 12.887800
5.231300 13.704200
5.240800 13.177800
5.250400 11.030200
5.259900 8.059100
5.269400 10.337200
5.279000 8.579100
5.288500 7.790700
5.298000 7.514500
5.307600 7.353700
5.317100 7.338000
5.326600 7.347500
5.336200 7.375800
5.345700 7.404100
5.355200 7.446800
5.364700 7.918200
5.374300 8.040700
5.383800 8.217900
5.393300 8.451400
5.402900 8.739700
5.412400 8.959100
5.421900 9.105600
5.431500 9.542900
5.441000 8.931300
5.450500 8.285500
5.460100 7.342300
5.469600 6.956900
5.479100 6.574400
5.488600 6.222100
5.498200 5.869200
5.507700 5.635300
5.517200 5.562100
5.526800 5.499700
5.536300 5.808400
5.545800 6.147900
5.555400 5.397900
5.564900 4.624100
5.574400 4.428700
5.584000 4.369100
5.593500 4.690100
5.603000 5.186400
5.612600 4.814100
5.622100 3.534700
5.631600 2.719200
5.641100 2.310900
5.650700 2.051600
5.660200 1.984600
5.669700 1.963200
5.679300 1.950700
5.688800 1.945900
5.698300 1.936400
5.707900 1.908800
5.717400 1.863300
5.726900 1.820700
5.736500 1.792700
5.746000 1.783900
5.755500 1.826000
5.765000 1.924600
5.774600 2.032000
5.784100 2.098400
5.793600 2.089300
5.803200 2.019400
5.812700 1.936300
5.822200 1.846200
5.831800 1.749100
5.841300 1.645000
5.850800 1.534000
5.860400 1.415900
5.869900 1.254500
5.879400 1.210300
5.888900 1.200100
5.898500 1.186700
5.908000 1.167500
5.917500 1.142600
5.927100 1.111900
5.936600 1.075400
5.946100 1.033200
5.955700 0.988900
5.965200 0.955000
5.974700 0.939600
5.984300 0.946400
5.993800 0.976000
6.003300 1.068600
6.012800 1.249000
6.022400 1.444800
6.031900 1.557900
6.041400 1.676500
6.051000 1.492100
6.060500 1.291400
6.070000 1.074400
6.079600 0.841100
6.089100 0.591500
6.098600 0.325500
6.108200 0.086300
6.117700 0.018600
6.127200 0.000000
6.136800 0.000000
6.146300 0.000000
6.155800 0.000000
6.165300 0.000000
6.174900 0.000000
6.184400 0.000000
6.193900 0.000000
6.203500 0.000000
6.213000 0.000000
6.222500 0.000000
6.232100 0.000000
6.241600 0.000000
6.251100 0.249300
6.260700 0.316900
6.270200 0.378900
6.279700 0.435300
6.289200 0.486000
6.298800 0.531200
6.308300 0.570900
6.317800 0.606300
6.327400 0.637400
6.336900 0.664400
6.346400 0.687100
6.356000 0.705700
6.365500 0.794400
6.375000 0.761500
6.384600 0.736600
6.394100 0.728200
6.403600 0.736200
6.413100 0.761200
6.422700 0.805000
6.432200 0.873900
6.441700 0.992800
6.451300 1.155500
6.460800 1.356700
6.470300 1.598600
6.479900 1.914700
6.489400 3.108000
6.498900 3.376200
6.508500 2.587100
6.518000 2.854000
6.527500 3.147600
6.537100 3.462500
6.546600 3.794100
6.556100 4.145300
6.565600 4.372200
6.575200 4.511300
6.584700 4.757300
6.594200 5.007700
6.603800 5.258300
6.613300 5.663100
6.622800 6.079900
6.632400 6.233900
6.641900 6.435500
6.651400 7.153400
6.661000 7.750700
6.670500 8.076400
6.680000 8.283900
6.689500 8.395300
6.699100 8.426900
6.708600 8.421400
6.718100 8.445800
6.727700 8.608000
6.737200 8.727500
6.746700 8.885600
6.756300 9.094400
6.765800 9.065400
6.775300 9.277100
6.784900 9.472800
6.794400 9.638000
6.803900 9.789200
6.813400 9.979400
6.823000 10.357800
6.832500 10.765200
6.842000 11.017000
6.851600 10.880600
6.861100 10.542100
6.870600 10.249500
6.880200 10.868800
6.889700 12.221700
6.899200 11.051200
6.908800 10.676700
6.918300 10.326800
6.927800 10.022900
6.937300 9.950700
6.946900 10.550900
6.956400 13.932500
6.965900 11.995600
6.975500 12.131600
6.985000 12.160200
6.994500 12.085000
7.004100 11.717600
7.013600 11.501500
7.023100 11.846500
7.032700 12.678600
7.042200 13.573400
7.051700 13.367200
7.061300 12.915800
7.070800 12.490600
7.080300 12.246200
7.089800 12.285200
7.099400 11.336300
7.108900 10.962000
7.118400 10.650500
7.128000 10.434600
7.137500 10.501000
7.147000 10.510000
7.156600 10.685100
7.166100 10.875800
7.175600 11.063100
7.185200 11.284500
7.194700 11.674600
7.204200 12.050200
7.213700 12.678900
7.223300 14.181800
7.232800 15.670000
7.242300 15.968600
7.251900 14.167700
7.261400 12.372100
7.270900 10.862400
7.280500 10.251000
7.290000 9.788700
7.299500 9.377500
7.309100 9.073000
7.318600 9.085100
7.328100 9.186100
7.337600 9.423200
7.347200 10.132300
7.356700 10.690600
7.366200 11.958200
7.375800 11.326100
7.385300 10.584000
7.394800 9.737200
7.404400 9.309200
7.413900 8.941700
7.423400 8.615500
7.433000 8.305100
7.442500 7.691000
7.452000 6.846300
7.461500 6.422900
7.471100 6.130600
7.480600 5.962100
7.490100 5.846200
7.499700 5.812200
7.509200 5.844800
7.518700 5.953800
7.528300 6.115200
7.537800 6.301300
7.547300 6.536300
7.556900 6.844700
7.566400 7.129600
7.575900 7.290000
7.585500 7.486000
7.595000 7.702000
7.604500 7.930900
7.614000 8.173400
7.623600 8.408300
7.633100 8.634800
7.642600 8.901200
7.652200 9.186700
7.661700 9.366800
7.671200 9.588500
7.680800 9.727500
7.690300 9.930400
7.699800 10.155100
7.709400 10.323600
7.718900 10.417200
7.728400 9.332700
7.737900 9.148600
7.747500 9.104900
7.757000 9.175000
7.766500 9.261000
7.776100 9.260000
7.785600 9.351700
7.795100 9.351400
7.804700 9.429200
7.814200 9.549000
7.823700 9.379000
7.833300 9.050600
7.842800 8.874500
7.852300 8.805300
7.861800 8.802400
7.871400 8.845300
7.880900 8.957600
7.890400 9.084700
7.900000 9.163400
7.909500 9.241100
7.919000 9.395600
7.928600 8.862100
7.938100 8.340800
7.947600 7.830300
7.957200 7.371100
7.966700 6.983200
7.976200 6.727600
7.985700 6.614100
7.995300 6.461700
8.004800 6.295100
8.014300 6.091800
8.023900 5.699500
8.033400 5.453600
8.042900 5.354600
8.052500 5.287200
8.062000 5.231300
8.071500 5.185100
8.081100 5.144100
8.090600 5.057600
8.100100 4.958800
8.109700 4.893600
8.119200 4.892600
8.128700 4.958900
8.138200 5.079400
8.147800 5.233400
8.157300 5.402400
8.166800 5.567400
8.176400 5.732500
8.185900 5.898400
8.195400 6.065100
8.205000 6.043200
8.214500 6.035900
8.224000 6.165400
8.233600 6.290900
8.243100 6.432900
8.252600 6.605800
8.262100 6.720900
8.271700 6.925600
8.281200 7.149300
8.290700 7.317900
8.300300 7.474700
8.309800 7.718700
8.319300 9.262100
8.328900 10.007100
8.338400 9.461400
8.347900 8.995300
8.357500 8.648300
8.367000 8.410000
8.376500 8.287600
8.386000 8.194900
8.395600 8.142400
8.405100 8.140600
8.414600 8.181700
8.424200 8.256200
8.433700 8.209200
8.443200 8.065900
8.452800 8.032100
8.462300 8.031600
8.471800 8.028700
8.481400 8.045800
8.490900 8.114900
8.500400 8.319100
8.509900 8.840000
8.519500 9.917600
8.529000 10.410000
8.538500 10.417100
8.548100 10.434100
8.557600 10.437800
8.567100 10.427600
8.576700 10.492600
8.586200 10.634300
8.595700 10.947800
8.605300 11.134500
8.614800 11.138100
8.624300 10.999900
8.633900 10.978300
8.643400 11.155400
8.652900 11.249400
8.662400 11.445900
8.672000 12.102600
8.681500 12.665700
8.691000 12.416900
8.700600 12.277400
8.710100 12.125800
8.719600 11.895300
8.729200 11.637000
8.738700 11.518100
8.748200 11.444300
8.757800 11.694600
8.767300 11.124700
8.776800 10.520000
8.786300 9.966300
8.795900 9.704400
8.805400 9.985200
8.814900 9.445100
8.824500 9.137700
8.834000 9.041400
8.843500 9.053500
8.853100 9.104200
8.862600 9.189400
8.872100 9.309400
8.881700 9.461100
8.891200 9.524900
8.900700 9.601200
8.910200 9.665600
8.919800 9.717200
8.929300 9.836100
8.938800 10.068700
8.948400 10.663800
8.957900 8.811400
8.967400 8.565400
8.977000 8.524800
8.986500 8.592800
8.996000 8.738000
9.005600 8.988700
9.015100 9.071700
9.024600 9.042700
9.034200 9.035500
9.043700 8.947700
9.053200 8.792200
9.062700 8.601100
9.072300 8.389300
9.081800 8.233000
9.091300 8.141400
9.100900 8.081100
9.110400 8.105400
9.119900 8.177800
9.129500 7.867800
9.139000 7.077000
9.148500 7.272100
9.158100 7.503700
9.167600 7.693400
9.177100 7.922600
9.186600 8.184800
9.196200 8.420900
9.205700 8.570300
9.215200 8.808700
9.224800 9.102600
9.234300 9.337600
9.243800 9.543300
9.253400 9.837300
9.262900 10.467400
9.272400 9.898100
9.282000 9.548700
9.291500 9.466500
9.301000 9.962400
9.310500 10.595600
9.320100 10.668400
9.329600 10.468600
9.339100 10.297500
9.348700 10.122700
9.358200 9.731300
9.367700 9.317300
9.377300 8.667200
9.386800 7.843100
9.396300 7.304300
9.405900 7.205700
9.415400 7.196800
9.424900 7.284400
9.434400 7.405000
9.444000 7.594100
9.453500 7.750100
9.463000 7.830000
9.472600 8.004100
9.482100 8.337700
9.491600 8.895800
9.501200 9.644400
9.510700 9.900100
9.520200 9.583000
9.529800 9.539300
9.539300 8.951500
9.548800 8.535500
9.558400 8.189500
9.567900 7.823400
9.577400 7.437400
9.586900 7.026100
9.596500 6.603100
9.606000 6.483100
9.615500 6.491700
9.625100 6.427300
9.634600 6.418300
9.644100 6.463400
9.653700 6.284100
9.663200 6.106200
9.672700 5.983900
9.682300 5.893200
9.691800 5.795900
9.701300 5.691400
9.710800 5.579900
9.720400 5.565600
9.729900 5.571400
9.739400 5.562500
9.749000 5.585600
9.758500 5.608000
9.768000 5.379300
9.777600 5.117800
9.787100 4.913800
9.796600 4.802000
9.806200 4.364500
9.815700 3.879100
9.825200 3.735400
9.834700 3.669600
9.844300 3.457000
9.853800 3.120700
9.863300 2.835300
9.872900 2.614700
9.882400 2.458700
9.891900 2.367500
9.901500 2.325900
9.911000 2.290700
9.920500 2.257700
9.930100 2.226900
9.939600 2.198200
9.949100 2.171700
9.958600 2.147300
9.968200 2.125200
9.977700 2.105200
9.987200 2.087300
9.996800 2.071700
10.006300 2.059600
10.015800 2.128800
10.025400 2.270100
10.034900 2.343800
10.044400 2.406300
10.054000 2.458500
10.063500 2.501500
10.073000 2.536800
10.082600 2.598600
10.092100 2.725400
10.101600 2.769900
10.111100 2.671100
10.120700 2.298500
10.130200 1.837600
10.139700 1.556200
10.149300 1.342400
10.158800 1.159000
10.168300 1.004100
10.177900 0.877600
10.187400 0.779400
10.196900 0.709600
10.206500 0.662800
10.216000 0.631400
10.225500 0.615500
10.235000 0.612400
10.244600 0.614800
10.254100 0.622000
10.263600 0.634100
10.273200 0.649300
10.282700 0.665400
10.292200 0.682500
10.301800 0.700500
10.311300 0.719600
10.320800 0.739500
10.330400 0.760500
10.339900 0.782400
10.349400 0.805300
10.358900 0.829100
10.368500 0.853900
10.378000 0.879700
10.387500 0.906500
10.397100 0.838500
10.406600 0.575600
10.416100 0.304700
10.425700 0.025800
10.435200 0.000000
10.444700 0.000000
10.454300 0.000000
10.463800 0.000000
10.473300 0.000000
10.482800 0.000000
10.492400 0.000000
10.501900 0.000000
10.511400 0.000000
10.521000 0.000000
10.530500 0.000000
10.540000 0.000000
10.549600 0.000000
10.559100 0.000000
10.568600 0.000000
10.578200 0.000000
10.587700 0.000000
10.597200 0.000000
10.606800 0.000000
10.616300 0.000000
10.625800 0.000000
10.635300 0.000000
10.644900 0.000000
10.654400 0.000000
10.663900 0.000000
10.673500 0.000000
10.683000 0.000000
10.692500 0.000000
10.702100 0.000000
10.711600 0.000000
10.721100 0.000000
10.730700 0.000000
10.740200 0.000000
10.749700 0.000000
10.759200 0.000000
10.768800 0.000000
10.778300 0.000000
10.787800 0.000000
10.797400 0.000000
10.806900 0.000000
10.816400 0.000000
10.826000 0.000000
10.835500 0.000000
10.845000 0.000000
10.854600 0.000000
10.864100 0.000000
10.873600 0.000000
10.883100 0.000000
10.892700 0.000000
10.902200 0.000000
10.911700 0.000000
10.921300 0.000000
10.930800 0.000000
10.940300 0.000000
10.949900 0.000000
10.959400 0.000000
10.968900 0.000000
10.978500 0.000000
10.988000 0.000000
10.997500 0.000000
11.007000 0.000000
11.016600 0.000000
11.026100 0.000000
11.035600 0.000000
11.045200 0.000000
11.054700 0.000000
11.064200 0.000000
11.073800 0.000000
11.083300 0.000000
11.092800 0.000000
11.102400 0.000000
11.111900 0.000000
11.121400 0.000000
11.131000 0.000000
11.140500 0.000000
11.150000 0.000000
11.159500 0.000000
11.169100 0.000000
11.178600 0.000000
11.188100 0.000000
11.197700 0.000000
11.207200 0.000000
11.216700 0.000000
11.226300 0.000000
11.235800 0.000000
11.245300 0.000000
11.254900 0.000000
11.264400 0.000000
11.273900 0.000000
11.283400 0.000000
11.293000 0.000000
e
