set title 'mp-971832 - Density of States'
set xlabel 'Energy (eV)'
set ylabel 'DOS (states/eV)'
set grid
set xrange [-10:10]
set yrange [0:85.272]
set xzeroaxis lt -1
set terminal png size 800,600
set output 'mp-971832_dos_gnuplot.png'
plot '-' using 1:2 with lines title 'DOS'
-10.439700 0.000000
-10.419800 0.000000
-10.399900 0.000000
-10.380000 0.000000
-10.360100 0.000000
-10.340200 0.000000
-10.320300 0.000000
-10.300400 0.000000
-10.280500 0.000000
-10.260600 0.000000
-10.240700 0.000000
-10.220800 0.000000
-10.200900 0.000000
-10.181000 0.000000
-10.161100 0.000000
-10.141200 0.000000
-10.121300 0.000000
-10.101400 0.000000
-10.081500 0.000000
-10.061600 0.000000
-10.041700 0.000000
-10.021800 0.000000
-10.001900 0.000000
-9.982000 0.000000
-9.962200 0.000000
-9.942300 0.000000
-9.922400 0.000000
-9.902500 0.000000
-9.882600 0.000000
-9.862700 0.000000
-9.842800 0.000000
-9.822900 0.000000
-9.803000 0.000000
-9.783100 0.000000
-9.763200 0.000000
-9.743300 0.000000
-9.723400 0.000000
-9.703500 0.000000
-9.683600 0.000000
-9.663700 0.000000
-9.643800 0.000000
-9.623900 0.000000
-9.604000 0.000000
-9.584100 0.000000
-9.564200 0.000000
-9.544300 0.000000
-9.524400 0.000000
-9.504500 0.000000
-9.484600 0.000000
-9.464700 0.000000
-9.444800 0.000000
-9.424900 0.000000
-9.405000 0.000000
-9.385100 0.000000
-9.365200 0.000000
-9.345300 0.000000
-9.325400 0.000000
-9.305500 0.000000
-9.285600 0.000000
-9.265800 0.000000
-9.245900 0.000000
-9.226000 0.000000
-9.206100 0.000000
-9.186200 0.000000
-9.166300 0.000000
-9.146400 0.000000
-9.126500 0.000000
-9.106600 0.000000
-9.086700 0.000000
-9.066800 0.000000
-9.046900 0.000000
-9.027000 0.000000
-9.007100 0.000000
-8.987200 0.000000
-8.967300 0.000000
-8.947400 0.000000
-8.927500 0.000000
-8.907600 0.000000
-8.887700 0.000000
-8.867800 0.000000
-8.847900 0.000000
-8.828000 0.000000
-8.808100 0.000000
-8.788200 0.000000
-8.768300 0.000000
-8.748400 0.000500
-8.728500 0.003700
-8.708600 0.021500
-8.688700 0.095200
-8.668800 0.324600
-8.648900 0.863800
-8.629000 1.846300
-8.609100 3.315800
-8.589200 5.336400
-8.569400 8.270000
-8.549500 12.887000
-8.529600 19.965700
-8.509700 29.500600
-8.489800 40.142900
-8.469900 49.470200
-8.450000 55.291100
-8.430100 57.326100
-8.410200 57.557600
-8.390300 58.478900
-8.370400 60.959500
-8.350500 63.859700
-8.330600 65.445400
-8.310700 65.181300
-8.290800 64.574100
-8.270900 66.051000
-8.251000 70.338000
-8.231100 75.226400
-8.211200 77.520400
-8.191300 75.851700
-8.171400 71.408100
-8.151500 66.488900
-8.131600 62.323500
-8.111700 57.865400
-8.091800 50.935000
-8.071900 40.763000
-8.052000 29.079800
-8.032100 18.624700
-8.012200 11.056700
-7.992300 6.364500
-7.972400 3.636000
-7.952500 1.989700
-7.932600 0.965600
-7.912700 0.387300
-7.892800 0.122800
-7.873000 0.030000
-7.853100 0.005600
-7.833200 0.000800
-7.813300 0.000100
-7.793400 0.000000
-7.773500 0.000000
-7.753600 0.000000
-7.733700 0.000000
-7.713800 0.000000
-7.693900 0.000000
-7.674000 0.000000
-7.654100 0.000000
-7.634200 0.000000
-7.614300 0.000000
-7.594400 0.000000
-7.574500 0.000000
-7.554600 0.000000
-7.534700 0.000000
-7.514800 0.000000
-7.494900 0.000000
-7.475000 0.000000
-7.455100 0.000000
-7.435200 0.000000
-7.415300 0.000000
-7.395400 0.000000
-7.375500 0.000000
-7.355600 0.000000
-7.335700 0.000000
-7.315800 0.000000
-7.295900 0.000000
-7.276000 0.000000
-7.256100 0.000000
-7.236200 0.000000
-7.216300 0.000000
-7.196400 0.000000
-7.176500 0.000000
-7.156700 0.000000
-7.136800 0.000000
-7.116900 0.000000
-7.097000 0.000000
-7.077100 0.000000
-7.057200 0.000000
-7.037300 0.000000
-7.017400 0.000000
-6.997500 0.000000
-6.977600 0.000000
-6.957700 0.000000
-6.937800 0.000000
-6.917900 0.000000
-6.898000 0.000000
-6.878100 0.000000
-6.858200 0.000000
-6.838300 0.000000
-6.818400 0.000000
-6.798500 0.000000
-6.778600 0.000000
-6.758700 0.000000
-6.738800 0.000000
-6.718900 0.000000
-6.699000 0.000000
-6.679100 0.000000
-6.659200 0.000000
-6.639300 0.000000
-6.619400 0.000000
-6.599500 0.000000
-6.579600 0.000000
-6.559700 0.000000
-6.539800 0.000000
-6.519900 0.000000
-6.500000 0.000000
-6.480100 0.000000
-6.460300 0.000000
-6.440400 0.000000
-6.420500 0.000000
-6.400600 0.000000
-6.380700 0.000000
-6.360800 0.000000
-6.340900 0.000000
-6.321000 0.000000
-6.301100 0.000000
-6.281200 0.000000
-6.261300 0.000000
-6.241400 0.000000
-6.221500 0.000000
-6.201600 0.000000
-6.181700 0.000000
-6.161800 0.000000
-6.141900 0.000000
-6.122000 0.000000
-6.102100 0.000000
-6.082200 0.000000
-6.062300 0.000000
-6.042400 0.000000
-6.022500 0.000000
-6.002600 0.000000
-5.982700 0.000000
-5.962800 0.000000
-5.942900 0.000000
-5.923000 0.000000
-5.903100 0.000000
-5.883200 0.000000
-5.863300 0.000000
-5.843400 0.000000
-5.823500 0.000000
-5.803600 0.000000
-5.783700 0.000000
-5.763900 0.000000
-5.744000 0.000000
-5.724100 0.000000
-5.704200 0.000000
-5.684300 0.000000
-5.664400 0.000000
-5.644500 0.000000
-5.624600 0.000000
-5.604700 0.000000
-5.584800 0.000000
-5.564900 0.000000
-5.545000 0.000000
-5.525100 0.000000
-5.505200 0.000000
-5.485300 0.000000
-5.465400 0.000000
-5.445500 0.000000
-5.425600 0.000000
-5.405700 0.000000
-5.385800 0.000000
-5.365900 0.000000
-5.346000 0.000000
-5.326100 0.000000
-5.306200 0.000000
-5.286300 0.000000
-5.266400 0.000000
-5.246500 0.000000
-5.226600 0.000000
-5.206700 0.000000
-5.186800 0.000000
-5.166900 0.000000
-5.147000 0.000000
-5.127100 0.000000
-5.107200 0.000000
-5.087300 0.000000
-5.067500 0.000000
-5.047600 0.000000
-5.027700 0.000000
-5.007800 0.000000
-4.987900 0.000000
-4.968000 0.000000
-4.948100 0.000000
-4.928200 0.000000
-4.908300 0.000000
-4.888400 0.000000
-4.868500 0.000000
-4.848600 0.000000
-4.828700 0.000000
-4.808800 0.000000
-4.788900 0.000000
-4.769000 0.000000
-4.749100 0.000000
-4.729200 0.000000
-4.709300 0.000000
-4.689400 0.000000
-4.669500 0.000000
-4.649600 0.000000
-4.629700 0.000000
-4.609800 0.000000
-4.589900 0.000000
-4.570000 0.000000
-4.550100 0.000000
-4.530200 0.000000
-4.510300 0.000000
-4.490400 0.000000
-4.470500 0.000000
-4.450600 0.000000
-4.430700 0.000000
-4.410800 0.000000
-4.390900 0.000000
-4.371100 0.000000
-4.351200 0.000000
-4.331300 0.000000
-4.311400 0.000000
-4.291500 0.000000
-4.271600 0.000000
-4.251700 0.000000
-4.231800 0.000000
-4.211900 0.000000
-4.192000 0.000000
-4.172100 0.000000
-4.152200 0.000000
-4.132300 0.000000
-4.112400 0.000000
-4.092500 0.000000
-4.072600 0.000000
-4.052700 0.000000
-4.032800 0.000000
-4.012900 0.000000
-3.993000 0.000000
-3.973100 0.000000
-3.953200 0.000000
-3.933300 0.000000
-3.913400 0.000000
-3.893500 0.000000
-3.873600 0.000000
-3.853700 0.000000
-3.833800 0.000000
-3.813900 0.000000
-3.794000 0.000000
-3.774100 0.000000
-3.754200 0.000000
-3.734300 0.000000
-3.714400 0.000000
-3.694500 0.000000
-3.674600 0.000000
-3.654800 0.000000
-3.634900 0.000000
-3.615000 0.000000
-3.595100 0.000000
-3.575200 0.000000
-3.555300 0.000000
-3.535400 0.000000
-3.515500 0.000000
-3.495600 0.000000
-3.475700 0.000000
-3.455800 0.000000
-3.435900 0.000000
-3.416000 0.000000
-3.396100 0.000000
-3.376200 0.000000
-3.356300 0.000000
-3.336400 0.000000
-3.316500 0.000000
-3.296600 0.000000
-3.276700 0.000000
-3.256800 0.000000
-3.236900 0.000000
-3.217000 0.000000
-3.197100 0.000000
-3.177200 0.000000
-3.157300 0.000100
-3.137400 0.000700
-3.117500 0.002900
-3.097600 0.009200
-3.077700 0.022100
-3.057800 0.040700
-3.037900 0.061300
-3.018000 0.081900
-2.998100 0.104000
-2.978200 0.130500
-2.958400 0.170600
-2.938500 0.238600
-2.918600 0.325300
-2.898700 0.380800
-2.878800 0.356200
-2.858900 0.259300
-2.839000 0.149200
-2.819100 0.083700
-2.799200 0.091200
-2.779300 0.175600
-2.759400 0.315000
-2.739500 0.453900
-2.719600 0.529900
-2.699700 0.523100
-2.679800 0.470900
-2.659900 0.433800
-2.640000 0.456500
-2.620100 0.534500
-2.600200 0.593900
-2.580300 0.546900
-2.560400 0.394800
-2.540500 0.234400
-2.520600 0.154100
-2.500700 0.163200
-2.480800 0.218000
-2.460900 0.290200
-2.441000 0.395600
-2.421100 0.545900
-2.401200 0.689100
-2.381300 0.746200
-2.361400 0.703700
-2.341500 0.634500
-2.321600 0.624400
-2.301700 0.692700
-2.281800 0.772300
-2.262000 0.761300
-2.242100 0.617600
-2.222200 0.403100
-2.202300 0.226500
-2.182400 0.161800
-2.162500 0.225000
-2.142600 0.386900
-2.122700 0.593300
-2.102800 0.792500
-2.082900 0.941200
-2.063000 0.993500
-2.043100 0.933300
-2.023200 0.813900
-2.003300 0.712600
-1.983400 0.653800
-1.963500 0.614800
-1.943600 0.581500
-1.923700 0.556100
-1.903800 0.538400
-1.883900 0.527100
-1.864000 0.518500
-1.844100 0.515000
-1.824200 0.550200
-1.804300 0.653200
-1.784400 0.776500
-1.764500 0.823200
-1.744600 0.761200
-1.724700 0.670100
-1.704800 0.670100
-1.684900 0.803600
-1.665000 0.990100
-1.645100 1.102900
-1.625200 1.069700
-1.605300 0.902700
-1.585400 0.691400
-1.565600 0.580600
-1.545700 0.695300
-1.525800 1.038100
-1.505900 1.446200
-1.486000 1.674400
-1.466100 1.583700
-1.446200 1.264400
-1.426300 0.938800
-1.406400 0.746100
-1.386500 0.660900
-1.366600 0.593800
-1.346700 0.511300
-1.326800 0.445300
-1.306900 0.429500
-1.287000 0.465300
-1.267100 0.556700
-1.247200 0.734300
-1.227300 1.003600
-1.207400 1.302300
-1.187500 1.562800
-1.167600 1.777900
-1.147700 1.953600
-1.127800 2.038300
-1.107900 1.984000
-1.088000 1.878900
-1.068100 1.933600
-1.048200 2.330900
-1.028300 3.127200
-1.008400 4.239900
-0.988500 5.462700
-0.968600 6.575600
-0.948700 7.645100
-0.928800 9.294900
-0.908900 12.477700
-0.889000 17.944000
-0.869200 26.348900
-0.849300 38.628900
-0.829400 54.424500
-0.809500 68.986700
-0.789600 74.078800
-0.769700 65.076500
-0.749800 46.271200
-0.729900 26.997100
-0.710000 13.669400
-0.690100 6.867000
-0.670200 4.047700
-0.650300 2.824900
-0.630400 2.104600
-0.610500 1.657800
-0.590600 1.452000
-0.570700 1.407300
-0.550800 1.433200
-0.530900 1.458300
-0.511000 1.452100
-0.491100 1.429400
-0.471200 1.387200
-0.451300 1.284300
-0.431400 1.118200
-0.411500 0.953600
-0.391600 0.846300
-0.371700 0.796200
-0.351800 0.782200
-0.331900 0.798400
-0.312000 0.835900
-0.292100 0.860500
-0.272200 0.849800
-0.252300 0.831400
-0.232400 0.846200
-0.212500 0.888600
-0.192600 0.923700
-0.172800 0.938000
-0.152900 0.945900
-0.133000 0.968800
-0.113100 1.013800
-0.093200 1.058800
-0.073300 1.076500
-0.053400 1.067100
-0.033500 1.071500
-0.013600 1.176100
0.006300 1.442400
0.026200 1.788100
0.046100 2.021400
0.066000 2.021200
0.085900 1.807100
0.105800 1.461700
0.125700 1.079000
0.145600 0.764800
0.165500 0.594400
0.185400 0.561300
0.205300 0.608000
0.225200 0.698400
0.245100 0.821200
0.265000 0.941000
0.284900 1.001500
0.304800 1.002600
0.324700 1.026100
0.344600 1.120900
0.364500 1.206800
0.384400 1.167800
0.404300 0.996300
0.424200 0.803200
0.444100 0.726700
0.464000 0.825900
0.483900 1.027300
0.503800 1.201300
0.523700 1.297600
0.543500 1.357600
0.563400 1.428600
0.583300 1.532100
0.603200 1.670300
0.623100 1.796100
0.643000 1.816400
0.662900 1.676700
0.682800 1.420700
0.702700 1.149100
0.722600 0.932100
0.742500 0.758200
0.762400 0.575500
0.782300 0.386100
0.802200 0.269700
0.822100 0.315900
0.842000 0.545300
0.861900 0.870000
0.881800 1.131500
0.901700 1.224200
0.921600 1.177700
0.941500 1.098400
0.961400 1.060600
0.981300 1.081900
1.001200 1.166600
1.021100 1.328200
1.041000 1.564300
1.060900 1.819100
1.080800 1.972000
1.100700 1.909700
1.120600 1.628100
1.140500 1.235500
1.160400 0.876900
1.180300 0.668700
1.200200 0.664400
1.220100 0.849600
1.239900 1.142200
1.259800 1.410100
1.279700 1.563700
1.299600 1.654300
1.319500 1.805000
1.339400 2.018400
1.359300 2.133900
1.379200 2.006100
1.399100 1.658800
1.419000 1.257500
1.438900 0.975600
1.458800 0.873600
1.478700 0.876100
1.498600 0.878400
1.518500 0.870300
1.538400 0.924700
1.558300 1.071300
1.578200 1.221400
1.598100 1.255400
1.618000 1.166600
1.637900 1.058500
1.657800 1.017500
1.677700 1.054400
1.697600 1.128000
1.717500 1.164900
1.737400 1.109300
1.757300 1.000500
1.777200 0.955900
1.797100 1.051800
1.817000 1.255300
1.836900 1.486500
1.856800 1.687900
1.876700 1.820000
1.896600 1.873300
1.916500 1.867100
1.936300 1.775200
1.956200 1.549500
1.976100 1.249200
1.996000 1.017200
2.015900 0.938600
2.035800 1.012200
2.055700 1.195600
2.075600 1.395100
2.095500 1.478600
2.115400 1.378800
2.135300 1.153700
2.155200 0.919100
2.175100 0.769500
2.195000 0.770400
2.214900 0.959200
2.234800 1.327100
2.254700 1.798000
2.274600 2.213000
2.294500 2.370800
2.314400 2.161800
2.334300 1.688500
2.354200 1.219500
2.374100 0.990900
2.394000 1.036200
2.413900 1.194900
2.433800 1.280400
2.453700 1.242300
2.473600 1.182700
2.493500 1.249000
2.513400 1.507100
2.533300 1.850500
2.553200 2.032800
2.573100 1.879800
2.593000 1.493300
2.612900 1.183200
2.632700 1.191000
2.652600 1.498100
2.672500 1.857100
2.692400 1.995300
2.712300 1.834500
2.732200 1.526800
2.752100 1.290700
2.772000 1.251600
2.791900 1.421700
2.811800 1.736600
2.831700 2.061600
2.851600 2.215800
2.871500 2.077200
2.891400 1.703200
2.911300 1.322500
2.931200 1.151700
2.951100 1.213000
2.971000 1.357500
2.990900 1.439400
3.010800 1.415700
3.030700 1.311400
3.050600 1.171300
3.070500 1.056400
3.090400 1.022900
3.110300 1.078300
3.130200 1.180200
3.150100 1.265900
3.170000 1.270900
3.189900 1.150300
3.209800 0.917800
3.229700 0.663800
3.249600 0.508200
3.269500 0.524300
3.289400 0.711700
3.309300 1.001200
3.329100 1.285100
3.349000 1.501700
3.368900 1.667500
3.388800 1.787000
3.408700 1.813000
3.428600 1.755300
3.448500 1.724900
3.468400 1.792600
3.488300 1.883700
3.508200 1.881000
3.528100 1.763100
3.548000 1.607900
3.567900 1.515400
3.587800 1.538800
3.607700 1.651900
3.627600 1.768400
3.647500 1.803800
3.667400 1.732100
3.687300 1.592700
3.707200 1.433800
3.727100 1.272800
3.747000 1.137500
3.766900 1.092400
3.786800 1.171400
3.806700 1.338000
3.826600 1.532800
3.846500 1.688600
3.866400 1.717000
3.886300 1.579700
3.906200 1.366800
3.926100 1.249900
3.946000 1.366000
3.965900 1.719800
3.985800 2.142400
4.005700 2.378600
4.025600 2.273700
4.045400 1.889200
4.065300 1.453500
4.085200 1.190000
4.105100 1.157200
4.125000 1.259100
4.144900 1.393700
4.164800 1.529500
4.184700 1.655300
4.204600 1.743700
4.224500 1.768300
4.244400 1.723800
4.264300 1.635000
4.284200 1.535800
4.304100 1.434100
4.324000 1.344000
4.343900 1.326100
4.363800 1.414100
4.383700 1.547500
4.403600 1.652700
4.423500 1.714000
4.443400 1.728900
4.463300 1.689500
4.483200 1.634200
4.503100 1.644300
4.523000 1.771400
4.542900 1.990100
4.562800 2.194100
4.582700 2.240300
4.602600 2.060800
4.622500 1.744400
4.642400 1.456300
4.662300 1.266800
4.682200 1.111200
4.702100 0.929500
4.722000 0.775300
4.741800 0.754200
4.761700 0.896600
4.781600 1.112100
4.801500 1.266000
4.821400 1.290400
4.841300 1.207400
4.861200 1.084000
4.881100 1.004800
4.901000 1.035800
4.920900 1.175200
4.940800 1.367200
4.960700 1.534300
4.980600 1.589800
5.000500 1.522200
5.020400 1.474200
5.040300 1.601700
5.060200 1.842300
5.080100 1.961300
5.100000 1.821000
5.119900 1.493600
5.139800 1.129900
5.159700 0.829700
5.179600 0.642500
5.199500 0.598800
5.219400 0.709000
5.239300 0.984100
5.259200 1.454900
5.279100 2.095100
5.299000 2.736100
5.318900 3.168600
5.338800 3.314200
5.358700 3.221600
5.378600 2.994600
5.398500 2.768300
5.418400 2.630900
5.438200 2.565500
5.458100 2.527700
5.478000 2.491900
5.497900 2.403300
5.517800 2.205900
5.537700 1.932100
5.557600 1.691900
5.577500 1.569000
5.597400 1.532600
5.617300 1.454700
5.637200 1.243500
5.657100 0.941100
5.677000 0.677500
5.696900 0.569200
5.716800 0.659900
5.736700 0.909400
5.756600 1.250200
5.776500 1.661600
5.796400 2.132300
5.816300 2.545400
5.836200 2.692800
5.856100 2.464700
5.876000 1.971100
5.895900 1.437000
5.915800 1.031300
5.935700 0.827300
5.955600 0.866800
5.975500 1.186400
5.995400 1.738700
6.015300 2.303600
6.035200 2.577800
6.055100 2.431300
6.075000 2.026200
6.094900 1.641400
6.114800 1.440100
6.134600 1.418100
6.154500 1.505800
6.174400 1.654600
6.194300 1.808900
6.214200 1.862100
6.234100 1.720800
6.254000 1.405600
6.273900 1.062900
6.293800 0.868800
6.313700 0.904300
6.333600 1.105800
6.353500 1.327400
6.373400 1.455700
6.393300 1.482400
6.413200 1.482900
6.433100 1.550200
6.453000 1.744400
6.472900 2.057100
6.492800 2.415100
6.512700 2.726200
6.532600 2.877900
6.552500 2.756100
6.572400 2.400600
6.592300 2.079900
6.612200 2.089800
6.632100 2.484400
6.652000 3.001100
6.671900 3.248800
6.691800 3.032800
6.711700 2.511900
6.731600 2.024600
6.751500 1.814400
6.771400 1.923400
6.791300 2.228500
6.811200 2.512200
6.831000 2.578300
6.850900 2.387600
6.870800 2.047400
6.890700 1.658700
6.910600 1.261200
6.930500 0.912100
6.950400 0.700800
6.970300 0.698400
6.990200 0.937000
7.010100 1.376800
7.030000 1.873200
7.049900 2.230600
7.069800 2.314800
7.089700 2.126600
7.109600 1.793700
7.129500 1.476100
7.149400 1.267100
7.169300 1.187400
7.189200 1.221200
7.209100 1.313200
7.229000 1.385100
7.248900 1.403700
7.268800 1.403800
7.288700 1.431100
7.308600 1.490200
7.328500 1.570000
7.348400 1.692900
7.368300 1.875600
7.388200 2.057900
7.408100 2.151200
7.428000 2.141600
7.447900 2.065700
7.467800 1.933600
7.487700 1.771300
7.507600 1.663900
7.527400 1.666900
7.547300 1.737700
7.567200 1.796800
7.587100 1.811600
7.607000 1.817400
7.626900 1.877700
7.646800 2.005600
7.666700 2.108400
7.686600 2.053700
7.706500 1.817100
7.726400 1.520800
7.746300 1.325600
7.766200 1.313700
7.786100 1.450100
7.806000 1.627900
7.825900 1.787900
7.845800 1.985100
7.865700 2.278000
7.885600 2.595400
7.905500 2.801000
7.925400 2.845800
7.945300 2.774000
7.965200 2.636400
7.985100 2.472400
8.005000 2.334600
8.024900 2.286500
8.044800 2.388000
8.064700 2.630900
8.084600 2.837000
8.104500 2.745300
8.124400 2.317800
8.144300 1.852100
8.164200 1.674600
8.184100 1.807000
8.204000 2.027900
8.223900 2.178600
8.243700 2.269000
8.263600 2.319300
8.283500 2.268700
8.303400 2.080600
8.323300 1.839500
8.343200 1.719400
8.363100 1.848300
8.383000 2.143100
8.402900 2.329600
8.422800 2.227400
8.442700 1.948000
8.462600 1.715600
8.482500 1.592100
8.502400 1.485500
8.522300 1.337600
8.542200 1.188300
8.562100 1.100900
8.582000 1.105400
8.601900 1.202300
8.621800 1.381100
8.641700 1.643500
8.661600 1.965100
8.681500 2.198400
8.701400 2.129600
8.721300 1.723900
8.741200 1.210800
8.761100 0.878500
8.781000 0.877100
8.800900 1.197400
8.820800 1.693500
8.840700 2.120800
8.860600 2.285300
8.880500 2.195500
8.900400 2.020700
8.920300 1.901800
8.940100 1.832700
8.960000 1.750800
8.979900 1.715800
8.999800 1.883600
9.019700 2.268800
9.039600 2.662000
9.059500 2.865300
9.079400 2.900900
9.099300 2.887300
9.119200 2.846200
9.139100 2.767800
9.159000 2.731600
9.178900 2.801800
9.198800 2.887000
9.218700 2.826200
9.238600 2.576800
9.258500 2.268800
9.278400 2.084600
9.298300 2.082200
9.318200 2.158300
9.338100 2.193100
9.358000 2.149000
9.377900 2.035900
9.397800 1.909700
9.417700 1.873200
9.437600 1.973700
9.457500 2.149800
9.477400 2.347200
9.497300 2.630400
9.517200 3.090900
9.537100 3.655700
9.557000 4.075500
9.576900 4.111600
9.596800 3.699800
9.616700 2.980800
9.636500 2.201300
9.656400 1.551400
9.676300 1.083900
9.696200 0.773400
9.716100 0.611500
9.736000 0.645000
9.755900 0.919500
9.775800 1.367800
9.795700 1.794200
9.815600 2.034500
9.835500 2.108700
9.855400 2.136400
9.875300 2.147600
9.895200 2.085600
9.915100 1.958000
9.935000 1.850700
9.954900 1.801800
9.974800 1.766800
9.994700 1.727600
10.014600 1.746200
10.034500 1.868900
10.054400 2.041300
10.074300 2.166500
10.094200 2.206800
10.114100 2.180100
10.134000 2.098900
10.153900 1.992300
10.173800 1.969000
10.193700 2.167800
10.213600 2.606700
10.233500 3.069300
10.253400 3.222700
10.273300 2.969000
10.293200 2.588200
10.313100 2.406900
10.332900 2.454100
10.352800 2.535300
10.372700 2.509900
10.392600 2.420800
10.412500 2.424200
10.432400 2.607400
10.452300 2.863700
10.472200 3.014300
10.492100 3.040600
10.512000 3.084100
10.531900 3.251500
10.551800 3.514400
10.571700 3.740600
10.591600 3.790300
10.611500 3.667100
10.631400 3.522800
10.651300 3.421300
10.671200 3.219600
10.691100 2.794500
10.711000 2.264300
10.730900 1.883600
10.750800 1.804500
10.770700 1.990900
10.790600 2.278100
10.810500 2.471500
10.830400 2.436800
10.850300 2.169200
10.870200 1.833300
10.890100 1.687200
10.910000 1.861900
10.929900 2.236900
10.949800 2.578500
10.969700 2.728600
10.989600 2.654200
11.009500 2.426500
11.029300 2.186500
11.049200 2.064800
11.069100 2.099300
11.089000 2.239000
11.108900 2.420400
11.128800 2.597200
11.148700 2.699200
11.168600 2.668600
11.188500 2.574400
11.208400 2.561200
11.228300 2.617700
11.248200 2.542900
11.268100 2.246900
11.288000 1.917600
11.307900 1.777900
11.327800 1.854700
11.347700 2.084500
11.367600 2.451600
11.387500 2.890700
11.407400 3.230100
11.427300 3.370000
11.447200 3.359600
11.467100 3.216600
11.487000 2.883700
11.506900 2.424800
11.526800 2.048800
11.546700 1.884700
11.566600 1.874200
11.586500 1.904100
11.606400 1.938700
11.626300 1.998200
11.646200 2.105200
11.666100 2.293700
11.686000 2.579100
11.705900 2.892600
11.725800 3.160800
11.745600 3.432700
11.765500 3.766000
11.785400 4.009900
11.805300 3.890700
11.825200 3.353900
11.845100 2.675000
11.865000 2.183100
11.884900 2.036100
11.904800 2.283600
11.924700 2.882700
11.944600 3.543100
11.964500 3.797900
11.984400 3.412000
12.004300 2.629600
12.024200 1.925700
12.044100 1.578800
12.064000 1.543900
12.083900 1.668000
12.103800 1.897000
12.123700 2.231100
12.143600 2.572500
12.163500 2.725700
12.183400 2.560000
12.203300 2.138500
12.223200 1.697800
12.243100 1.523400
12.263000 1.770500
12.282900 2.327100
12.302800 2.889500
12.322700 3.240800
12.342600 3.395300
12.362500 3.424700
12.382400 3.308500
12.402300 3.065300
12.422200 2.837600
12.442000 2.724400
12.461900 2.661200
12.481800 2.530800
12.501700 2.333400
12.521600 2.196800
12.541500 2.206000
12.561400 2.273600
12.581300 2.221200
12.601200 1.971600
12.621100 1.622300
12.641000 1.321200
12.660900 1.155600
12.680800 1.184100
12.700700 1.438200
12.720600 1.855200
12.740500 2.310900
12.760400 2.708200
12.780300 2.982900
12.800200 3.087800
12.820100 3.026800
12.840000 2.850500
12.859900 2.578100
12.879800 2.181900
12.899700 1.686000
12.919600 1.221100
12.939500 0.933400
12.959400 0.875400
12.979300 1.010400
12.999200 1.269000
13.019100 1.569200
13.039000 1.841900
13.058900 2.069300
13.078800 2.251400
13.098700 2.365800
13.118600 2.432700
13.138400 2.540200
13.158300 2.686400
13.178200 2.704500
13.198100 2.491200
13.218000 2.204500
13.237900 2.085200
13.257800 2.167300
13.277700 2.296400
13.297600 2.381900
13.317500 2.481100
13.337400 2.620200
13.357300 2.700800
13.377200 2.671100
13.397100 2.628400
13.417000 2.639600
13.436900 2.623100
13.456800 2.510200
13.476700 2.359100
13.496600 2.236300
13.516500 2.130800
13.536400 2.025300
13.556300 1.948400
13.576200 1.918400
13.596100 1.887700
13.616000 1.800900
13.635900 1.686100
13.655800 1.640200
13.675700 1.736400
13.695600 1.957800
13.715500 2.191300
13.735400 2.291400
13.755300 2.195800
13.775200 1.991000
13.795100 1.834600
13.815000 1.798800
13.834800 1.810900
13.854700 1.750700
13.874600 1.578000
13.894500 1.365500
13.914400 1.253500
13.934300 1.362300
13.954200 1.683500
13.974100 2.068100
13.994000 2.362200
14.013900 2.511400
14.033800 2.518000
14.053700 2.361000
14.073600 2.008900
14.093500 1.520700
14.113400 1.077800
14.133300 0.856300
14.153200 0.896800
14.173100 1.132200
14.193000 1.483000
14.212900 1.882400
14.232800 2.266200
14.252700 2.583000
14.272600 2.780600
14.292500 2.781400
14.312400 2.568100
14.332300 2.304100
14.352200 2.232200
14.372100 2.415400
14.392000 2.661000
14.411900 2.718800
14.431800 2.519700
14.451700 2.224300
14.471600 2.053500
14.491500 2.083500
14.511400 2.214300
14.531200 2.315200
14.551100 2.346700
14.571000 2.321100
14.590900 2.229300
14.610800 2.077200
14.630700 1.921200
14.650600 1.813600
14.670500 1.769600
14.690400 1.795600
14.710300 1.869700
14.730200 1.919400
14.750100 1.921800
14.770000 1.983600
14.789900 2.209500
14.809800 2.534500
14.829700 2.799100
14.849600 2.924700
14.869500 2.908900
14.889400 2.728600
14.909300 2.387700
14.929200 2.040600
14.949100 1.928000
14.969000 2.129800
14.988900 2.484700
15.008800 2.796800
15.028700 2.987400
15.048600 3.013300
15.068500 2.821300
15.088400 2.481900
15.108300 2.231500
15.128200 2.266800
15.148100 2.541800
15.168000 2.821900
15.187900 2.900100
15.207800 2.743200
15.227600 2.489200
15.247500 2.332700
15.267400 2.363700
15.287300 2.500800
15.307200 2.582700
15.327100 2.485000
15.347000 2.200700
15.366900 1.913700
15.386800 1.915500
15.406700 2.299200
15.426600 2.785000
15.446500 2.986400
15.466400 2.821700
15.486300 2.509700
15.506200 2.212700
15.526100 1.906000
15.546000 1.581200
15.565900 1.369100
15.585800 1.416600
15.605700 1.738200
15.625600 2.226200
15.645500 2.753200
15.665400 3.232000
15.685300 3.610500
15.705200 3.829900
15.725100 3.807400
15.745000 3.528700
15.764900 3.142200
15.784800 2.867900
15.804700 2.817500
15.824600 2.953300
15.844500 3.170700
15.864400 3.345900
15.884300 3.341600
15.904200 3.085000
15.924100 2.685500
15.943900 2.387900
15.963800 2.357500
15.983700 2.560300
16.003600 2.859100
16.023500 3.185500
16.043400 3.568400
16.063300 3.968200
16.083200 4.176800
16.103100 4.004400
16.123000 3.507800
16.142900 2.937700
16.162800 2.536500
16.182700 2.402100
16.202600 2.434900
16.222500 2.463100
16.242400 2.462700
16.262300 2.522300
16.282200 2.609200
16.302100 2.551600
16.322000 2.273200
16.341900 1.929500
16.361800 1.779000
16.381700 1.969900
16.401600 2.443500
16.421500 2.992200
16.441400 3.411400
16.461300 3.609100
16.481200 3.578300
16.501100 3.344100
16.521000 3.007000
16.540900 2.764300
16.560800 2.747900
16.580700 2.850800
16.600600 2.851400
16.620500 2.708400
16.640300 2.609700
16.660200 2.737600
16.680100 3.086600
16.700000 3.489000
16.719900 3.743400
16.739800 3.757400
16.759700 3.594100
16.779600 3.348700
16.799500 3.046700
16.819400 2.728500
16.839300 2.521700
16.859200 2.526300
16.879100 2.687700
16.899000 2.855400
16.918900 2.948200
16.938800 3.012400
16.958700 3.110300
16.978600 3.222300
16.998500 3.307700
17.018400 3.380000
17.038300 3.454900
17.058200 3.476000
17.078100 3.343900
17.098000 3.017000
17.117900 2.585500
17.137800 2.241000
17.157700 2.157000
17.177600 2.378700
17.197500 2.792100
17.217400 3.186800
17.237300 3.401700
17.257200 3.421500
17.277100 3.314000
17.297000 3.163700
17.316900 3.117400
17.336700 3.323500
17.356600 3.713300
17.376500 3.987600
17.396400 3.927300
17.416300 3.604600
17.436200 3.233600
17.456100 2.939200
17.476000 2.756800
17.495900 2.736800
17.515800 2.884600
17.535700 3.056600
17.555600 3.080600
17.575500 2.954100
17.595400 2.831100
17.615300 2.834000
17.635200 2.915200
17.655100 2.926000
17.675000 2.819300
17.694900 2.706100
17.714800 2.696400
17.734700 2.773800
17.754600 2.836100
17.774500 2.816700
17.794400 2.792800
17.814300 2.951300
17.834200 3.345000
17.854100 3.726600
17.874000 3.794600
17.893900 3.561200
17.913800 3.299100
17.933700 3.193900
17.953600 3.226700
17.973500 3.298400
17.993400 3.293300
18.013300 3.092200
18.033100 2.678000
18.053000 2.205100
18.072900 1.891000
18.092800 1.848500
18.112700 2.046000
18.132600 2.397200
18.152500 2.805200
18.172400 3.095900
18.192300 3.051400
18.212200 2.625500
18.232100 2.063200
18.252000 1.753000
18.271900 1.971600
18.291800 2.691300
18.311700 3.524200
18.331600 3.939100
18.351500 3.698200
18.371400 3.065400
18.391300 2.501300
18.411200 2.234900
18.431100 2.227700
18.451000 2.388700
18.470900 2.601400
18.490800 2.660100
18.510700 2.442500
18.530600 2.107800
18.550500 1.967100
18.570400 2.203800
18.590300 2.765600
18.610200 3.420900
18.630100 3.865400
18.650000 3.859500
18.669900 3.385500
18.689800 2.703500
18.709700 2.179400
18.729500 2.004100
18.749400 2.121400
18.769300 2.422400
18.789200 2.861100
18.809100 3.332500
18.829000 3.623300
18.848900 3.590100
18.868800 3.312900
18.888700 3.023400
18.908600 2.903300
18.928500 2.963200
18.948400 3.086200
18.968300 3.164600
18.988200 3.212100
19.008100 3.357900
19.028000 3.689000
19.047900 4.050900
19.067800 4.093800
19.087700 3.646300
19.107600 2.925200
19.127500 2.274400
19.147400 1.875400
19.167300 1.775600
19.187200 1.965900
19.207100 2.341200
19.227000 2.737600
19.246900 3.032200
19.266800 3.123300
19.286700 2.919700
19.306600 2.480200
19.326500 2.051200
19.346400 1.850300
19.366300 1.870400
19.386200 1.943400
19.406100 1.944100
19.426000 1.867800
19.445800 1.749700
19.465700 1.619400
19.485600 1.532900
19.505500 1.547900
19.525400 1.653400
19.545300 1.778800
19.565200 1.871900
19.585100 1.917300
19.605000 1.880400
19.624900 1.741100
19.644800 1.595700
19.664700 1.577400
19.684600 1.670100
19.704500 1.745600
19.724400 1.771600
19.744300 1.855800
19.764200 2.065300
19.784100 2.290700
19.804000 2.350400
19.823900 2.217900
19.843800 2.089800
19.863700 2.163100
19.883600 2.373500
19.903500 2.480900
19.923400 2.396300
19.943300 2.257600
19.963200 2.182600
19.983100 2.106600
20.003000 1.941200
20.022900 1.786900
20.042800 1.830600
20.062700 2.077000
20.082600 2.356700
20.102500 2.564400
20.122400 2.720600
20.142200 2.826700
20.162100 2.809200
20.182000 2.648500
20.201900 2.474200
20.221800 2.417600
20.241700 2.420500
20.261600 2.338000
20.281500 2.168400
20.301400 2.026600
20.321300 1.970000
20.341200 1.991700
20.361100 2.080900
20.381000 2.175400
20.400900 2.171000
20.420800 2.060700
20.440700 1.954500
20.460600 1.923100
20.480500 1.933000
20.500400 1.969100
20.520300 2.106000
20.540200 2.372400
20.560100 2.658600
20.580000 2.869600
20.599900 3.033200
20.619800 3.162200
20.639700 3.190300
20.659600 3.109100
20.679500 3.013300
20.699400 2.994700
20.719300 3.067200
20.739200 3.162900
20.759100 3.191700
20.779000 3.139600
20.798900 3.093900
20.818800 3.171600
20.838600 3.448100
20.858500 3.911000
20.878400 4.394200
20.898300 4.606400
20.918200 4.386900
20.938100 3.939100
20.958000 3.647900
20.977900 3.630900
20.997800 3.627900
21.017700 3.400900
21.037600 3.047800
21.057500 2.821900
21.077400 2.836000
21.097300 3.028400
21.117200 3.268300
21.137100 3.458200
21.157000 3.607600
21.176900 3.768900
21.196800 3.905700
21.216700 3.911900
21.236600 3.719800
21.256500 3.334200
21.276400 2.840000
21.296300 2.400600
21.316200 2.176400
21.336100 2.212100
21.356000 2.380400
21.375900 2.444100
21.395800 2.277900
21.415700 2.033400
21.435600 1.984200
21.455500 2.227700
21.475400 2.609300
21.495300 2.935800
21.515200 3.195300
21.535000 3.470600
21.554900 3.707200
21.574800 3.776000
21.594700 3.715100
21.614600 3.676000
21.634500 3.680000
21.654400 3.642900
21.674300 3.580000
21.694200 3.574800
21.714100 3.618500
21.734000 3.674400
21.753900 3.808600
21.773800 4.048200
21.793700 4.187100
21.813600 3.960200
21.833500 3.426400
21.853400 2.990800
21.873300 2.972600
21.893200 3.291600
21.913100 3.661600
21.933000 3.931700
21.952900 4.109200
21.972800 4.181600
21.992700 4.078800
22.012600 3.801700
22.032500 3.489000
22.052400 3.275100
22.072300 3.112900
22.092200 2.866400
22.112100 2.574800
22.132000 2.449400
22.151900 2.581400
22.171800 2.853000
22.191700 3.149600
22.211600 3.431700
22.231400 3.609100
22.251300 3.579700
22.271200 3.373900
22.291100 3.108800
22.311000 2.848500
22.330900 2.599000
22.350800 2.382700
22.370700 2.252500
22.390600 2.269800
22.410500 2.537800
22.430400 3.182800
22.450300 4.139000
22.470200 5.016200
22.490100 5.400900
22.510000 5.252700
22.529900 4.832100
22.549800 4.337000
22.569700 3.793600
22.589600 3.231200
22.609500 2.762900
22.629400 2.470100
22.649300 2.324500
22.669200 2.259100
22.689100 2.226200
22.709000 2.174000
22.728900 2.082400
22.748800 2.041000
22.768700 2.189300
22.788600 2.538000
22.808500 2.891800
22.828400 3.005800
22.848300 2.848000
22.868200 2.646100
22.888100 2.625100
22.908000 2.767900
22.927800 2.912300
22.947700 2.990500
22.967600 3.013300
22.987500 2.917900
23.007400 2.657900
23.027300 2.377800
23.047200 2.294700
23.067100 2.434300
23.087000 2.608400
23.106900 2.658900
23.126800 2.656200
23.146700 2.789400
23.166600 3.068100
23.186500 3.235600
23.206400 3.028700
23.226300 2.462200
23.246200 1.824000
23.266100 1.435600
23.286000 1.431000
23.305900 1.715400
23.325800 2.099000
23.345700 2.446900
23.365600 2.702700
23.385500 2.833300
23.405400 2.831700
23.425300 2.752900
23.445200 2.667000
23.465100 2.588100
23.485000 2.499700
23.504900 2.416000
23.524800 2.398500
23.544700 2.521200
23.564600 2.769100
23.584500 2.972200
23.604400 2.939600
23.624300 2.676600
23.644100 2.403500
23.664000 2.358700
23.683900 2.601200
23.703800 2.954500
23.723700 3.149100
23.743600 3.066300
23.763500 2.806800
23.783400 2.530000
23.803300 2.318900
23.823200 2.174300
23.843100 2.063600
23.863000 1.996800
23.882900 2.030400
23.902800 2.131200
23.922700 2.128200
23.942600 1.917000
23.962500 1.604200
23.982400 1.356200
24.002300 1.217000
24.022200 1.121300
24.042100 1.002700
24.062000 0.868300
24.081900 0.776200
24.101800 0.748800
24.121700 0.749900
24.141600 0.739500
24.161500 0.711300
24.181400 0.677300
24.201300 0.639000
24.221200 0.580600
24.241100 0.504300
24.261000 0.456800
24.280900 0.481300
24.300800 0.552700
24.320700 0.610200
24.340500 0.644300
24.360400 0.697400
24.380300 0.775900
24.400200 0.823900
24.420100 0.793400
24.440000 0.692700
24.459900 0.561000
24.479800 0.433100
24.499700 0.331500
24.519600 0.275300
24.539500 0.276700
24.559400 0.315600
24.579300 0.337000
24.599200 0.297900
24.619100 0.207500
24.639000 0.111700
24.658900 0.045900
24.678800 0.015300
24.698700 0.009700
24.718600 0.027800
24.738500 0.086100
24.758400 0.204700
24.778300 0.373300
24.798200 0.534200
24.818100 0.614800
24.838000 0.582300
24.857900 0.466700
24.877800 0.335400
24.897700 0.237300
24.917600 0.178300
24.937500 0.155000
24.957400 0.182000
24.977300 0.260300
24.997200 0.342000
25.017100 0.364300
25.036900 0.321700
25.056800 0.266800
25.076700 0.236400
25.096600 0.223000
25.116500 0.228600
25.136400 0.291800
25.156300 0.431600
25.176200 0.596900
25.196100 0.710400
25.216000 0.742400
25.235900 0.707900
25.255800 0.624700
25.275700 0.512000
25.295600 0.394600
25.315500 0.284800
25.335400 0.182700
25.355300 0.096900
25.375200 0.040100
25.395100 0.012600
25.415000 0.002900
25.434900 0.000500
25.454800 0.000100
25.474700 0.000200
25.494600 0.001200
25.514500 0.006600
25.534400 0.027300
25.554300 0.084300
25.574200 0.193500
25.594100 0.331300
25.614000 0.423800
25.633900 0.406100
25.653800 0.292200
25.673700 0.160300
25.693600 0.075200
25.713500 0.050200
25.733300 0.064300
25.753200 0.086800
25.773100 0.094400
25.793000 0.084800
25.812900 0.073700
25.832800 0.075400
25.852700 0.096900
25.872600 0.142900
25.892500 0.205700
25.912400 0.252400
25.932300 0.246700
25.952200 0.191300
25.972100 0.132600
25.992000 0.116600
26.011900 0.145400
26.031800 0.177000
26.051700 0.169100
26.071600 0.120100
26.091500 0.062800
26.111400 0.024100
26.131300 0.006800
26.151200 0.001400
26.171100 0.000200
26.191000 0.000300
26.210900 0.001900
26.230800 0.009500
26.250700 0.034200
26.270600 0.090400
26.290500 0.175600
26.310400 0.250500
26.330300 0.262800
26.350200 0.204400
26.370100 0.123800
26.390000 0.074200
26.409900 0.068900
26.429700 0.084600
26.449600 0.091500
26.469500 0.081900
26.489400 0.076400
26.509300 0.099100
26.529200 0.145200
26.549100 0.178000
26.569000 0.165900
26.588900 0.118300
26.608800 0.072500
26.628700 0.051500
26.648600 0.048100
26.668500 0.044300
26.688400 0.032300
26.708300 0.017600
26.728200 0.007100
26.748100 0.002100
26.768000 0.000500
26.787900 0.000100
26.807800 0.000000
26.827700 0.000000
26.847600 0.000000
26.867500 0.000000
26.887400 0.000000
26.907300 0.000000
26.927200 0.000000
26.947100 0.000000
26.967000 0.000000
26.986900 0.000000
27.006800 0.000000
27.026700 0.000000
27.046600 0.000000
27.066500 0.000000
27.086400 0.000000
27.106300 0.000000
27.126100 0.000000
27.146000 0.000000
27.165900 0.000000
27.185800 0.000000
27.205700 0.000000
27.225600 0.000000
27.245500 0.000000
27.265400 0.000000
27.285300 0.000000
27.305200 0.000000
27.325100 0.000000
27.345000 0.000000
27.364900 0.000000
27.384800 0.000000
27.404700 0.000000
27.424600 0.000100
27.444500 0.000400
27.464400 0.001700
27.484300 0.006100
27.504200 0.015800
27.524100 0.030100
27.544000 0.042200
27.563900 0.043400
27.583800 0.032800
27.603700 0.018200
27.623600 0.007400
27.643500 0.002200
27.663400 0.000500
27.683300 0.000100
27.703200 0.000000
27.723100 0.000000
27.743000 0.000000
27.762900 0.000000
27.782800 0.000000
27.802700 0.000000
27.822600 0.000000
27.842400 0.000000
27.862300 0.000000
27.882200 0.000000
27.902100 0.000000
27.922000 0.000000
27.941900 0.000000
27.961800 0.000000
27.981700 0.000000
28.001600 0.000000
28.021500 0.000000
28.041400 0.000000
28.061300 0.000000
28.081200 0.000000
28.101100 0.000000
28.121000 0.000000
28.140900 0.000000
28.160800 0.000000
28.180700 0.000000
28.200600 0.000000
28.220500 0.000000
28.240400 0.000000
28.260300 0.000000
28.280200 0.000000
28.300100 0.000000
28.320000 0.000000
28.339900 0.000000
28.359800 0.000000
28.379700 0.000000
28.399600 0.000000
28.419500 0.000000
28.439400 0.000000
28.459300 0.000000
28.479200 0.000000
28.499100 0.000000
28.519000 0.000000
28.538800 0.000000
28.558700 0.000000
28.578600 0.000000
28.598500 0.000000
28.618400 0.000000
28.638300 0.000000
28.658200 0.000000
28.678100 0.000000
28.698000 0.000000
28.717900 0.000000
28.737800 0.000000
28.757700 0.000000
28.777600 0.000000
28.797500 0.000000
28.817400 0.000000
28.837300 0.000000
28.857200 0.000000
28.877100 0.000000
28.897000 0.000000
28.916900 0.000000
28.936800 0.000000
28.956700 0.000000
28.976600 0.000000
28.996500 0.000000
29.016400 0.000000
29.036300 0.000000
29.056200 0.000000
29.076100 0.000000
29.096000 0.000000
29.115900 0.000000
29.135800 0.000000
29.155700 0.000000
29.175600 0.000000
29.195500 0.000000
29.215400 0.000000
29.235200 0.000000
29.255100 0.000000
29.275000 0.000000
29.294900 0.000000
29.314800 0.000000
29.334700 0.000000
29.354600 0.000000
e
