set title 'mp-985295 - Density of States'
set xlabel 'Energy (eV)'
set ylabel 'DOS (states/eV)'
set grid
set xrange [-10:10]
set yrange [0:18.029]
set xzeroaxis lt -1
set terminal png size 800,600
set output 'mp-985295_dos_gnuplot.png'
plot '-' using 1:2 with lines title 'DOS'
-8.923600 0.000000
-8.901200 0.000000
-8.878900 0.000000
-8.856600 0.000000
-8.834300 0.000000
-8.812000 0.000000
-8.789600 0.000000
-8.767300 0.000000
-8.745000 0.000000
-8.722700 0.000000
-8.700400 0.000000
-8.678100 0.000000
-8.655700 0.000000
-8.633400 0.000000
-8.611100 0.000000
-8.588800 0.000000
-8.566500 0.000000
-8.544200 0.000000
-8.521800 0.000000
-8.499500 0.000000
-8.477200 0.000000
-8.454900 0.000000
-8.432600 0.000000
-8.410300 0.000000
-8.387900 0.000000
-8.365600 0.000000
-8.343300 0.000000
-8.321000 0.000000
-8.298700 0.000000
-8.276400 0.000000
-8.254000 0.000000
-8.231700 0.000000
-8.209400 0.000000
-8.187100 0.000000
-8.164800 0.000000
-8.142500 0.000000
-8.120100 0.000000
-8.097800 0.000000
-8.075500 0.000000
-8.053200 0.000000
-8.030900 0.000000
-8.008600 0.000000
-7.986200 0.000000
-7.963900 0.000000
-7.941600 0.000000
-7.919300 0.000000
-7.897000 0.000000
-7.874600 0.000000
-7.852300 0.000000
-7.830000 0.000000
-7.807700 0.000000
-7.785400 0.000000
-7.763100 0.000000
-7.740700 0.000000
-7.718400 0.000000
-7.696100 0.000000
-7.673800 0.000000
-7.651500 0.000000
-7.629200 0.000000
-7.606800 0.000000
-7.584500 0.000000
-7.562200 0.000000
-7.539900 0.000000
-7.517600 0.000000
-7.495300 0.000000
-7.472900 0.000000
-7.450600 0.000000
-7.428300 0.000000
-7.406000 0.000000
-7.383700 0.000000
-7.361400 0.000000
-7.339000 0.000000
-7.316700 0.000000
-7.294400 0.000000
-7.272100 0.000000
-7.249800 0.000000
-7.227500 0.000000
-7.205100 0.000000
-7.182800 0.000000
-7.160500 0.000000
-7.138200 0.000000
-7.115900 0.000000
-7.093600 0.000000
-7.071200 0.000000
-7.048900 0.000000
-7.026600 0.000000
-7.004300 0.000100
-6.982000 0.000700
-6.959700 0.003200
-6.937300 0.011500
-6.915000 0.030800
-6.892700 0.066900
-6.870400 0.124200
-6.848100 0.197300
-6.825700 0.259400
-6.803400 0.281200
-6.781100 0.282600
-6.758800 0.321000
-6.736500 0.406700
-6.714200 0.490800
-6.691800 0.541200
-6.669500 0.555900
-6.647200 0.538800
-6.624900 0.527500
-6.602600 0.573000
-6.580300 0.657400
-6.557900 0.718700
-6.535600 0.751800
-6.513300 0.800100
-6.491000 0.889500
-6.468700 1.007700
-6.446400 1.092100
-6.424000 1.079300
-6.401700 1.010900
-6.379400 1.017200
-6.357100 1.167200
-6.334800 1.386000
-6.312500 1.555300
-6.290100 1.662800
-6.267800 1.782600
-6.245500 1.925400
-6.223200 1.986200
-6.200900 1.905900
-6.178600 1.824000
-6.156200 1.922800
-6.133900 2.187000
-6.111600 2.478500
-6.089300 2.731700
-6.067000 2.956100
-6.044700 3.199200
-6.022300 3.577200
-6.000000 4.187500
-5.977700 4.937800
-5.955400 5.547900
-5.933100 5.773800
-5.910700 5.585700
-5.888400 5.067600
-5.866100 4.214800
-5.843800 3.020400
-5.821500 1.735600
-5.799200 0.756000
-5.776800 0.240600
-5.754500 0.054700
-5.732200 0.008700
-5.709900 0.001000
-5.687600 0.000100
-5.665300 0.000000
-5.642900 0.000000
-5.620600 0.000000
-5.598300 0.000000
-5.576000 0.000000
-5.553700 0.000000
-5.531400 0.000000
-5.509000 0.000000
-5.486700 0.000000
-5.464400 0.000000
-5.442100 0.000000
-5.419800 0.000000
-5.397500 0.000000
-5.375100 0.000000
-5.352800 0.000000
-5.330500 0.000000
-5.308200 0.000000
-5.285900 0.000000
-5.263600 0.000000
-5.241200 0.000000
-5.218900 0.000000
-5.196600 0.000000
-5.174300 0.000000
-5.152000 0.000000
-5.129700 0.000000
-5.107300 0.000000
-5.085000 0.000000
-5.062700 0.000000
-5.040400 0.000000
-5.018100 0.000000
-4.995700 0.000000
-4.973400 0.000000
-4.951100 0.000000
-4.928800 0.000000
-4.906500 0.000000
-4.884200 0.000000
-4.861800 0.000000
-4.839500 0.000000
-4.817200 0.000000
-4.794900 0.000000
-4.772600 0.000000
-4.750300 0.000000
-4.727900 0.000000
-4.705600 0.000000
-4.683300 0.000000
-4.661000 0.000000
-4.638700 0.000000
-4.616400 0.000000
-4.594000 0.000000
-4.571700 0.000000
-4.549400 0.000000
-4.527100 0.000000
-4.504800 0.000000
-4.482500 0.000000
-4.460100 0.000000
-4.437800 0.000000
-4.415500 0.000000
-4.393200 0.000000
-4.370900 0.000000
-4.348600 0.000000
-4.326200 0.000000
-4.303900 0.000000
-4.281600 0.000000
-4.259300 0.000000
-4.237000 0.000000
-4.214700 0.000000
-4.192300 0.000000
-4.170000 0.000000
-4.147700 0.000000
-4.125400 0.000000
-4.103100 0.000000
-4.080800 0.000000
-4.058400 0.000000
-4.036100 0.000000
-4.013800 0.000000
-3.991500 0.000000
-3.969200 0.000000
-3.946800 0.000000
-3.924500 0.000000
-3.902200 0.000000
-3.879900 0.000000
-3.857600 0.000000
-3.835300 0.000000
-3.812900 0.000000
-3.790600 0.000000
-3.768300 0.000000
-3.746000 0.000000
-3.723700 0.000000
-3.701400 0.000000
-3.679000 0.000000
-3.656700 0.000000
-3.634400 0.000000
-3.612100 0.000000
-3.589800 0.000000
-3.567500 0.000000
-3.545100 0.000000
-3.522800 0.000000
-3.500500 0.000000
-3.478200 0.000000
-3.455900 0.000000
-3.433600 0.000000
-3.411200 0.000000
-3.388900 0.000000
-3.366600 0.000000
-3.344300 0.000000
-3.322000 0.000000
-3.299700 0.000000
-3.277300 0.000000
-3.255000 0.000000
-3.232700 0.000000
-3.210400 0.000000
-3.188100 0.000000
-3.165800 0.000000
-3.143400 0.000000
-3.121100 0.000000
-3.098800 0.000000
-3.076500 0.000000
-3.054200 0.000000
-3.031800 0.000000
-3.009500 0.000000
-2.987200 0.000000
-2.964900 0.000000
-2.942600 0.000000
-2.920300 0.000000
-2.897900 0.000000
-2.875600 0.000000
-2.853300 0.000000
-2.831000 0.000000
-2.808700 0.000000
-2.786400 0.000000
-2.764000 0.000000
-2.741700 0.000000
-2.719400 0.000000
-2.697100 0.000000
-2.674800 0.000000
-2.652500 0.000000
-2.630100 0.000000
-2.607800 0.000000
-2.585500 0.000000
-2.563200 0.000000
-2.540900 0.000000
-2.518600 0.000000
-2.496200 0.000000
-2.473900 0.000000
-2.451600 0.000200
-2.429300 0.001100
-2.407000 0.005100
-2.384700 0.018400
-2.362300 0.052000
-2.340000 0.118300
-2.317700 0.220900
-2.295400 0.344600
-2.273100 0.462200
-2.250800 0.547500
-2.228400 0.576500
-2.206100 0.565400
-2.183800 0.607200
-2.161500 0.773600
-2.139200 0.990200
-2.116800 1.137800
-2.094500 1.242900
-2.072200 1.415800
-2.049900 1.709000
-2.027600 2.182800
-2.005300 2.915400
-1.982900 3.829600
-1.960600 4.665900
-1.938300 5.136600
-1.916000 5.145100
-1.893700 4.954600
-1.871400 4.931900
-1.849000 5.104300
-1.826700 5.198600
-1.804400 5.008700
-1.782100 4.550100
-1.759800 3.970700
-1.737500 3.424700
-1.715100 3.006900
-1.692800 2.727900
-1.670500 2.537800
-1.648200 2.424200
-1.625900 2.446200
-1.603600 2.665900
-1.581200 3.165100
-1.558900 4.086600
-1.536600 5.498100
-1.514300 7.177700
-1.492000 8.660300
-1.469700 9.592000
-1.447300 9.896300
-1.425000 9.703100
-1.402700 9.382100
-1.380400 9.345400
-1.358100 9.711900
-1.335800 10.431600
-1.313400 11.466900
-1.291100 12.665100
-1.268800 13.668900
-1.246500 14.126000
-1.224200 14.092600
-1.201900 13.979600
-1.179500 13.979400
-1.157200 13.934000
-1.134900 13.654000
-1.112600 13.009400
-1.090300 11.993300
-1.067900 10.935700
-1.045600 10.318200
-1.023300 10.163300
-1.001000 10.022700
-0.978700 9.660800
-0.956400 9.219600
-0.934000 8.790300
-0.911700 8.313000
-0.889400 7.823500
-0.867100 7.516000
-0.844800 7.536800
-0.822500 7.835200
-0.800100 8.234900
-0.777800 8.523700
-0.755500 8.504700
-0.733200 8.146800
-0.710900 7.655000
-0.688600 7.239400
-0.666200 6.922200
-0.643900 6.728500
-0.621600 6.862900
-0.599300 7.447600
-0.577000 8.285600
-0.554700 9.077100
-0.532300 9.726000
-0.510000 10.327400
-0.487700 10.901900
-0.465400 11.217000
-0.443100 11.051000
-0.420800 10.693700
-0.398400 10.784300
-0.376100 11.477400
-0.353800 12.234100
-0.331500 12.517300
-0.309200 12.249000
-0.286900 11.644100
-0.264500 10.974700
-0.242200 10.455700
-0.219900 10.201600
-0.197600 10.201400
-0.175300 10.246300
-0.152900 10.125100
-0.130600 9.996300
-0.108300 10.238900
-0.086000 10.905200
-0.063700 11.549700
-0.041400 11.651200
-0.019000 11.148900
0.003300 10.414300
0.025600 9.724500
0.047900 9.092200
0.070200 8.585300
0.092500 8.356600
0.114900 8.427200
0.137200 8.826000
0.159500 9.644400
0.181800 10.721400
0.204100 11.659400
0.226400 12.170800
0.248800 12.236400
0.271100 12.025200
0.293400 11.730500
0.315700 11.586000
0.338000 11.919100
0.360300 12.908000
0.382700 14.338400
0.405000 15.680300
0.427300 16.389900
0.449600 16.219000
0.471900 15.303300
0.494200 14.033100
0.516600 12.853400
0.538900 12.079800
0.561200 11.755900
0.583500 11.636600
0.605800 11.451600
0.628100 11.149500
0.650500 10.731400
0.672800 10.078600
0.695100 9.148500
0.717400 8.145500
0.739700 7.362500
0.762000 6.932900
0.784400 6.764900
0.806700 6.625500
0.829000 6.309800
0.851300 5.846500
0.873600 5.471800
0.896000 5.332700
0.918300 5.316100
0.940600 5.261400
0.962900 5.340600
0.985200 6.078700
1.007500 7.751800
1.029900 9.798200
1.052200 11.150900
1.074500 11.220700
1.096800 10.315500
1.119100 9.185000
1.141400 8.413200
1.163800 8.091400
1.186100 7.849100
1.208400 7.301200
1.230700 6.503100
1.253000 5.846200
1.275300 5.580200
1.297700 5.591400
1.320000 5.566900
1.342300 5.296400
1.364600 4.854600
1.386900 4.470700
1.409200 4.239900
1.431600 4.075500
1.453900 3.888100
1.476200 3.650400
1.498500 3.344300
1.520800 2.968100
1.543100 2.577100
1.565500 2.260900
1.587800 2.055600
1.610100 1.956000
1.632400 2.005400
1.654700 2.240000
1.677000 2.552600
1.699400 2.715000
1.721700 2.593500
1.744000 2.311700
1.766300 2.097800
1.788600 2.026500
1.811000 2.035600
1.833300 2.054700
1.855600 2.020400
1.877900 1.921800
1.900200 1.811700
1.922500 1.690700
1.944900 1.539000
1.967200 1.429600
1.989500 1.417500
2.011800 1.428600
2.034100 1.395500
2.056400 1.362000
2.078800 1.387100
2.101100 1.439100
2.123400 1.424000
2.145700 1.309300
2.168000 1.187600
2.190300 1.174900
2.212700 1.264400
2.235000 1.329000
2.257300 1.282700
2.279600 1.187100
2.301900 1.169800
2.324200 1.278300
2.346600 1.448300
2.368900 1.615500
2.391200 1.807000
2.413500 2.042500
2.435800 2.208200
2.458100 2.164600
2.480500 1.931300
2.502800 1.665800
2.525100 1.509900
2.547400 1.515800
2.569700 1.691200
2.592000 1.985600
2.614400 2.179500
2.636700 2.033300
2.659000 1.655600
2.681300 1.408100
2.703600 1.411700
2.726000 1.466400
2.748300 1.419900
2.770600 1.321800
2.792900 1.263300
2.815200 1.309100
2.837500 1.555600
2.859900 2.061200
2.882200 2.655600
2.904500 2.983600
2.926800 2.873600
2.949100 2.522100
2.971400 2.206300
2.993800 2.006400
3.016100 1.903900
3.038400 1.901300
3.060700 1.928700
3.083000 1.884700
3.105300 1.805600
3.127700 1.780600
3.150000 1.810600
3.172300 1.843400
3.194600 1.812900
3.216900 1.706500
3.239200 1.627500
3.261600 1.661100
3.283900 1.704800
3.306200 1.593300
3.328500 1.350100
3.350800 1.147800
3.373100 1.083400
3.395500 1.101600
3.417800 1.105300
3.440100 1.091700
3.462400 1.123000
3.484700 1.229300
3.507000 1.426600
3.529400 1.720300
3.551700 2.019800
3.574000 2.148400
3.596300 2.010200
3.618600 1.700800
3.640900 1.461700
3.663300 1.533300
3.685600 1.921700
3.707900 2.304000
3.730200 2.357200
3.752500 2.125100
3.774900 1.820300
3.797200 1.470200
3.819500 1.061800
3.841800 0.742500
3.864100 0.614400
3.886400 0.588600
3.908800 0.573700
3.931100 0.593400
3.953400 0.675600
3.975700 0.771000
3.998000 0.812000
4.020300 0.809700
4.042700 0.863400
4.065000 1.033500
4.087300 1.228300
4.109600 1.291400
4.131900 1.183300
4.154200 1.013400
4.176600 0.917000
4.198900 0.939900
4.221200 1.023300
4.243500 1.089400
4.265800 1.135300
4.288100 1.210700
4.310500 1.307500
4.332800 1.337300
4.355100 1.271400
4.377400 1.200700
4.399700 1.160100
4.422000 1.054100
4.444400 0.849400
4.466700 0.673800
4.489000 0.667500
4.511300 0.838400
4.533600 1.083200
4.555900 1.324700
4.578300 1.577800
4.600600 1.847400
4.622900 2.060700
4.645200 2.142200
4.667500 2.068400
4.689900 1.882000
4.712200 1.706500
4.734500 1.641100
4.756800 1.651500
4.779100 1.662100
4.801400 1.674500
4.823800 1.717900
4.846100 1.772900
4.868400 1.805400
4.890700 1.794700
4.913000 1.726000
4.935300 1.614600
4.957700 1.485200
4.980000 1.345400
5.002300 1.206300
5.024600 1.095900
5.046900 1.088700
5.069200 1.229000
5.091600 1.360300
5.113900 1.276900
5.136200 1.078000
5.158500 1.059500
5.180800 1.282600
5.203100 1.544500
5.225500 1.721700
5.247800 1.872500
5.270100 2.022000
5.292400 2.058800
5.314700 1.874100
5.337000 1.513900
5.359400 1.130100
5.381700 0.838900
5.404000 0.693700
5.426300 0.703600
5.448600 0.801800
5.470900 0.863700
5.493300 0.815800
5.515600 0.687200
5.537900 0.541400
5.560200 0.413100
5.582500 0.323600
5.604900 0.288500
5.627200 0.292500
5.649500 0.323600
5.671800 0.413500
5.694100 0.594100
5.716400 0.836700
5.738800 1.034000
5.761100 1.064900
5.783400 0.918700
5.805700 0.706200
5.828000 0.533100
5.850300 0.419800
5.872700 0.354200
5.895000 0.361400
5.917300 0.469100
5.939600 0.629500
5.961900 0.750800
5.984200 0.815400
6.006600 0.869100
6.028900 0.907600
6.051200 0.903400
6.073500 0.904600
6.095800 0.969000
6.118100 1.046900
6.140500 1.048200
6.162800 0.976100
6.185100 0.917300
6.207400 0.955700
6.229700 1.089800
6.252000 1.194500
6.274400 1.116500
6.296700 0.837200
6.319000 0.514500
6.341300 0.353900
6.363600 0.450700
6.385900 0.735400
6.408300 1.044100
6.430600 1.259200
6.452900 1.374200
6.475200 1.448900
6.497500 1.558100
6.519800 1.729600
6.542200 1.874600
6.564500 1.851200
6.586800 1.654900
6.609100 1.453700
6.631400 1.386900
6.653800 1.426300
6.676100 1.469200
6.698400 1.476400
6.720700 1.459000
6.743000 1.405200
6.765300 1.306600
6.787700 1.179800
6.810000 1.039700
6.832300 0.925200
6.854600 0.892600
6.876900 0.956100
6.899200 1.079100
6.921600 1.198000
6.943900 1.268900
6.966200 1.316600
6.988500 1.374700
7.010800 1.408500
7.033100 1.406700
7.055500 1.456500
7.077800 1.580200
7.100100 1.649500
7.122400 1.592100
7.144700 1.491200
7.167000 1.426700
7.189400 1.394100
7.211700 1.364700
7.234000 1.312300
7.256300 1.203500
7.278600 1.043100
7.300900 0.934200
7.323300 1.002100
7.345600 1.219200
7.367900 1.414400
7.390200 1.494100
7.412500 1.539300
7.434800 1.665800
7.457200 1.860500
7.479500 1.982800
7.501800 1.946500
7.524100 1.843100
7.546400 1.835100
7.568800 1.961500
7.591100 2.087200
7.613400 2.087200
7.635700 2.010100
7.658000 1.958000
7.680300 1.921400
7.702700 1.834500
7.725000 1.692200
7.747300 1.530400
7.769600 1.355400
7.791900 1.193200
7.814200 1.139800
7.836600 1.230300
7.858900 1.333400
7.881200 1.312100
7.903500 1.206800
7.925800 1.148700
7.948100 1.185300
7.970500 1.252500
7.992800 1.259600
8.015100 1.195700
8.037400 1.154600
8.059700 1.208400
8.082000 1.315700
8.104400 1.414900
8.126700 1.478700
8.149000 1.480200
8.171300 1.442600
8.193600 1.434700
8.215900 1.459900
8.238300 1.468300
8.260600 1.467200
8.282900 1.513500
8.305200 1.594000
8.327500 1.616300
8.349800 1.554100
8.372200 1.480900
8.394500 1.439500
8.416800 1.437200
8.439100 1.562900
8.461400 1.875000
8.483700 2.195700
8.506100 2.275400
8.528400 2.120200
8.550700 1.936500
8.573000 1.859200
8.595300 1.912400
8.617700 2.066400
8.640000 2.193500
8.662300 2.146300
8.684600 1.930900
8.706900 1.654100
8.729200 1.381200
8.751600 1.157800
8.773900 1.056200
8.796200 1.145100
8.818500 1.440000
8.840800 1.837300
8.863100 2.123700
8.885500 2.145600
8.907800 1.946100
8.930100 1.668100
8.952400 1.424000
8.974700 1.345100
8.997000 1.570400
9.019400 2.053300
9.041700 2.549300
9.064000 2.831200
9.086300 2.839700
9.108600 2.702500
9.130900 2.603100
9.153300 2.581400
9.175600 2.512400
9.197900 2.270900
9.220200 1.877800
9.242500 1.491900
9.264800 1.271200
9.287200 1.250000
9.309500 1.378700
9.331800 1.650000
9.354100 2.029200
9.376400 2.307300
9.398700 2.310500
9.421100 2.141600
9.443400 1.955000
9.465700 1.749200
9.488000 1.557600
9.510300 1.534000
9.532700 1.688000
9.555000 1.788500
9.577300 1.716700
9.599600 1.635800
9.621900 1.637300
9.644200 1.579200
9.666600 1.417700
9.688900 1.365100
9.711200 1.570400
9.733500 1.879100
9.755800 2.050200
9.778100 2.026300
9.800500 1.901200
9.822800 1.819900
9.845100 1.894000
9.867400 2.037800
9.889700 2.018100
9.912000 1.778000
9.934400 1.516000
9.956700 1.372200
9.979000 1.258600
10.001300 1.084500
10.023600 0.953300
10.045900 1.045000
10.068300 1.381500
10.090600 1.752300
10.112900 1.897700
10.135200 1.752500
10.157500 1.452500
10.179800 1.164300
10.202200 0.985200
10.224500 0.937100
10.246800 0.971500
10.269100 1.004900
10.291400 1.032200
10.313700 1.134000
10.336100 1.291700
10.358400 1.355600
10.380700 1.270700
10.403000 1.169300
10.425300 1.178800
10.447700 1.250400
10.470000 1.252000
10.492300 1.180500
10.514600 1.138300
10.536900 1.120000
10.559200 1.038900
10.581600 0.927900
10.603900 0.918700
10.626200 1.060100
10.648500 1.286000
10.670800 1.544500
10.693100 1.808700
10.715500 1.963900
10.737800 1.917100
10.760100 1.807100
10.782400 1.840900
10.804700 1.963700
10.827000 1.932900
10.849400 1.685700
10.871700 1.449700
10.894000 1.457600
10.916300 1.667900
10.938600 1.867400
10.960900 1.957300
10.983300 1.995400
11.005600 2.054100
11.027900 2.136300
11.050200 2.175400
11.072500 2.144400
11.094800 2.136500
11.117200 2.245900
11.139500 2.400100
11.161800 2.396300
11.184100 2.197900
11.206400 2.069400
11.228700 2.182300
11.251100 2.339400
11.273400 2.348400
11.295700 2.301600
11.318000 2.288700
11.340300 2.208500
11.362600 2.001200
11.385000 1.798600
11.407300 1.797000
11.429600 2.094900
11.451900 2.549600
11.474200 2.819300
11.496600 2.760800
11.518900 2.615100
11.541200 2.592600
11.563500 2.578800
11.585800 2.420900
11.608100 2.194900
11.630500 2.029900
11.652800 1.870900
11.675100 1.591200
11.697400 1.258100
11.719700 1.077900
11.742000 1.129800
11.764400 1.345300
11.786700 1.658400
11.809000 2.005500
11.831300 2.295700
11.853600 2.432100
11.875900 2.327200
11.898300 2.064500
11.920600 1.947300
11.942900 2.167300
11.965200 2.575300
11.987500 2.872200
12.009800 2.916700
12.032200 2.791600
12.054500 2.578000
12.076800 2.241700
12.099100 1.839400
12.121400 1.555900
12.143700 1.441500
12.166100 1.369700
12.188400 1.278800
12.210700 1.299500
12.233000 1.592700
12.255300 2.060800
12.277600 2.345400
12.300000 2.236300
12.322300 1.936100
12.344600 1.765400
12.366900 1.769100
12.389200 1.794600
12.411600 1.769900
12.433900 1.721500
12.456200 1.672500
12.478500 1.668700
12.500800 1.822900
12.523100 2.194500
12.545500 2.598300
12.567800 2.737100
12.590100 2.583800
12.612400 2.374100
12.634700 2.236600
12.657000 2.123900
12.679400 2.046100
12.701700 2.079000
12.724000 2.199300
12.746300 2.347400
12.768600 2.558000
12.790900 2.825800
12.813300 2.970500
12.835600 2.815000
12.857900 2.409300
12.880200 1.953500
12.902500 1.612400
12.924800 1.465600
12.947200 1.482900
12.969500 1.519400
12.991800 1.439100
13.014100 1.263500
13.036400 1.133600
13.058700 1.128600
13.081100 1.203700
13.103400 1.290700
13.125700 1.349100
13.148000 1.348500
13.170300 1.315300
13.192600 1.304500
13.215000 1.282500
13.237300 1.191600
13.259600 1.074100
13.281900 1.002300
13.304200 0.994000
13.326600 1.042000
13.348900 1.130800
13.371200 1.235400
13.393500 1.347800
13.415800 1.447200
13.438100 1.440900
13.460500 1.248100
13.482800 0.953200
13.505100 0.751200
13.527400 0.737300
13.549700 0.849100
13.572000 0.991700
13.594400 1.124600
13.616700 1.238900
13.639000 1.325000
13.661300 1.365300
13.683600 1.367200
13.705900 1.398400
13.728300 1.524000
13.750600 1.730700
13.772900 1.931100
13.795200 1.991400
13.817500 1.818700
13.839800 1.479300
13.862200 1.188300
13.884500 1.141100
13.906800 1.336900
13.929100 1.569600
13.951400 1.638200
13.973700 1.587000
13.996100 1.652400
14.018400 1.947700
14.040700 2.288500
14.063000 2.412100
14.085300 2.282700
14.107600 2.058600
14.130000 1.853200
14.152300 1.654100
14.174600 1.418400
14.196900 1.164000
14.219200 0.966600
14.241500 0.905600
14.263900 1.019500
14.286200 1.302500
14.308500 1.701000
14.330800 2.064700
14.353100 2.245200
14.375500 2.309600
14.397800 2.402700
14.420100 2.453200
14.442400 2.330700
14.464700 2.106600
14.487000 1.937800
14.509400 1.891300
14.531700 1.931600
14.554000 1.972900
14.576300 1.980400
14.598600 1.991300
14.620900 2.008700
14.643300 1.999000
14.665600 1.997300
14.687900 2.058500
14.710200 2.134300
14.732500 2.149500
14.754800 2.116800
14.777200 2.075700
14.799500 2.075100
14.821800 2.207700
14.844100 2.442900
14.866400 2.568200
14.888700 2.477700
14.911100 2.289000
14.933400 2.126600
14.955700 2.069800
14.978000 2.204900
15.000300 2.462100
15.022600 2.584200
15.045000 2.450600
15.067300 2.218900
15.089600 2.022200
15.111900 1.829200
15.134200 1.661800
15.156500 1.640300
15.178900 1.784700
15.201200 1.936500
15.223500 1.943900
15.245800 1.860100
15.268100 1.814300
15.290500 1.777800
15.312800 1.643100
15.335100 1.439600
15.357400 1.312700
15.379700 1.315000
15.402000 1.318400
15.424400 1.193800
15.446700 1.011800
15.469000 0.934700
15.491300 0.978500
15.513600 1.035500
15.535900 1.042700
15.558300 1.017300
15.580600 1.011900
15.602900 1.082200
15.625200 1.237100
15.647500 1.435700
15.669800 1.657000
15.692200 1.899400
15.714500 2.089800
15.736800 2.111800
15.759100 1.975300
15.781400 1.815500
15.803700 1.700000
15.826100 1.637400
15.848400 1.705400
15.870700 1.946700
15.893000 2.238800
15.915300 2.412200
15.937600 2.441600
15.960000 2.450400
15.982300 2.525300
16.004600 2.573800
16.026900 2.421300
16.049200 2.077100
16.071500 1.795700
16.093900 1.805600
16.116200 2.085900
16.138500 2.395100
16.160800 2.445600
16.183100 2.169400
16.205400 1.819700
16.227800 1.694700
16.250100 1.815000
16.272400 1.968400
16.294700 1.986800
16.317000 1.909800
16.339400 1.894400
16.361700 1.970600
16.384000 2.007100
16.406300 1.949000
16.428600 1.884200
16.450900 1.868600
16.473300 1.858200
16.495600 1.817700
16.517900 1.790700
16.540200 1.830400
16.562500 1.901300
16.584800 1.928900
16.607200 1.954300
16.629500 2.118900
16.651800 2.411400
16.674100 2.560500
16.696400 2.380900
16.718700 2.070400
16.741100 1.927400
16.763400 1.985600
16.785700 2.092700
16.808000 2.137800
16.830300 2.081300
16.852600 1.905300
16.875000 1.627400
16.897300 1.321800
16.919600 1.113400
16.941900 1.121300
16.964200 1.329400
16.986500 1.572700
17.008900 1.739100
17.031200 1.861000
17.053500 1.947700
17.075800 1.940700
17.098100 1.869700
17.120400 1.862500
17.142800 1.968000
17.165100 2.051900
17.187400 1.919600
17.209700 1.575100
17.232000 1.302900
17.254400 1.403400
17.276700 1.871800
17.299000 2.417200
17.321300 2.782400
17.343600 2.919900
17.365900 2.876200
17.388300 2.715300
17.410600 2.549400
17.432900 2.492600
17.455200 2.575000
17.477500 2.731000
17.499800 2.866700
17.522200 2.897700
17.544500 2.744200
17.566800 2.424100
17.589100 2.079900
17.611400 1.807200
17.633700 1.619300
17.656100 1.569200
17.678400 1.678700
17.700700 1.801000
17.723000 1.773000
17.745300 1.634100
17.767600 1.564700
17.790000 1.678200
17.812300 1.886300
17.834600 1.991700
17.856900 1.951700
17.879200 1.878600
17.901500 1.798800
17.923900 1.672300
17.946200 1.563100
17.968500 1.526200
17.990800 1.452900
18.013100 1.227000
18.035400 0.938600
18.057800 0.822200
18.080100 0.989100
18.102400 1.286100
18.124700 1.505200
18.147000 1.661900
18.169400 1.902500
18.191700 2.226700
18.214000 2.503500
18.236300 2.668000
18.258600 2.723200
18.280900 2.662100
18.303300 2.503100
18.325600 2.274000
18.347900 1.983400
18.370200 1.717800
18.392500 1.626600
18.414800 1.707400
18.437200 1.747200
18.459500 1.611300
18.481800 1.469600
18.504100 1.563400
18.526400 1.861600
18.548700 2.135500
18.571100 2.245200
18.593400 2.202200
18.615700 2.104400
18.638000 2.084100
18.660300 2.203600
18.682600 2.389800
18.705000 2.508300
18.727300 2.504600
18.749600 2.470000
18.771900 2.559000
18.794200 2.825900
18.816500 3.112800
18.838900 3.170600
18.861200 2.988300
18.883500 2.794500
18.905800 2.671200
18.928100 2.496600
18.950400 2.239700
18.972800 2.044800
18.995100 2.092600
19.017400 2.414100
19.039700 2.791100
19.062000 2.978200
19.084300 2.976300
19.106700 2.895700
19.129000 2.742200
19.151300 2.527700
19.173600 2.361100
19.195900 2.317400
19.218300 2.366200
19.240600 2.462700
19.262900 2.639300
19.285200 2.959600
19.307500 3.341100
19.329800 3.500900
19.352200 3.244800
19.374500 2.739800
19.396800 2.316400
19.419100 2.105800
19.441400 1.991200
19.463700 1.790300
19.486100 1.445900
19.508400 1.113300
19.530700 1.036200
19.553000 1.321000
19.575300 1.837300
19.597600 2.337900
19.620000 2.693500
19.642300 2.973500
19.664600 3.271900
19.686900 3.520100
19.709200 3.522900
19.731500 3.192000
19.753900 2.707200
19.776200 2.356200
19.798500 2.240800
19.820800 2.255600
19.843100 2.293200
19.865400 2.294300
19.887800 2.207700
19.910100 2.098100
19.932400 2.174800
19.954700 2.545400
19.977000 2.984100
19.999300 3.101500
20.021700 2.813000
20.044000 2.444700
20.066300 2.276000
20.088600 2.259700
20.110900 2.288100
20.133300 2.415600
20.155600 2.686500
20.177900 2.975400
20.200200 3.110200
20.222500 3.033900
20.244800 2.806400
20.267200 2.534100
20.289500 2.291600
20.311800 2.077800
20.334100 1.900200
20.356400 1.857800
20.378700 2.048000
20.401100 2.415300
20.423400 2.728500
20.445700 2.715800
20.468000 2.307200
20.490300 1.781400
20.512600 1.538500
20.535000 1.696600
20.557300 2.035300
20.579600 2.287300
20.601900 2.360800
20.624200 2.343600
20.646500 2.360400
20.668900 2.408500
20.691200 2.393200
20.713500 2.300600
20.735800 2.206600
20.758100 2.177500
20.780400 2.251100
20.802800 2.382400
20.825100 2.459100
20.847400 2.503900
20.869700 2.639500
20.892000 2.819100
20.914300 2.869900
20.936700 2.764500
20.959000 2.647600
20.981300 2.605600
21.003600 2.581400
21.025900 2.575600
21.048300 2.700200
21.070600 2.928600
21.092900 3.070800
21.115200 3.084400
21.137500 3.115700
21.159800 3.218500
21.182200 3.289400
21.204500 3.235000
21.226800 3.051800
21.249100 2.824500
21.271400 2.730200
21.293700 2.892500
21.316100 3.146500
21.338400 3.152900
21.360700 2.831800
21.383000 2.481400
21.405300 2.377600
21.427600 2.435500
21.450000 2.410800
21.472300 2.309200
21.494600 2.350300
21.516900 2.572800
21.539200 2.783700
21.561500 2.869400
21.583900 2.861600
21.606200 2.791200
21.628500 2.704300
21.650800 2.700500
21.673100 2.805100
21.695400 2.883600
21.717800 2.811000
21.740100 2.707200
21.762400 2.769800
21.784700 2.928000
21.807000 2.987700
21.829300 2.948200
21.851700 2.887400
21.874000 2.775800
21.896300 2.590800
21.918600 2.389900
21.940900 2.202900
21.963200 2.040600
21.985600 2.040800
22.007900 2.442000
22.030200 3.255800
22.052500 4.032900
22.074800 4.248500
22.097200 3.903800
22.119500 3.472600
22.141800 3.334400
22.164100 3.457100
22.186400 3.528500
22.208700 3.269500
22.231100 2.692100
22.253400 2.090000
22.275700 1.749100
22.298000 1.742900
22.320300 2.010200
22.342600 2.491100
22.365000 3.084000
22.387300 3.550600
22.409600 3.634600
22.431900 3.323200
22.454200 2.923400
22.476500 2.763100
22.498900 2.808400
22.521200 2.771400
22.543500 2.549800
22.565800 2.301000
22.588100 2.191700
22.610400 2.293700
22.632800 2.644000
22.655100 3.179600
22.677400 3.564400
22.699700 3.374800
22.722000 2.636900
22.744300 1.866400
22.766700 1.474300
22.789000 1.465700
22.811300 1.674300
22.833600 1.961500
22.855900 2.246700
22.878200 2.524100
22.900600 2.793600
22.922900 2.988400
22.945200 3.053900
22.967500 3.004200
22.989800 2.828200
23.012200 2.475600
23.034500 2.004200
23.056800 1.597700
23.079100 1.387400
23.101400 1.393900
23.123700 1.632200
23.146100 2.095900
23.168400 2.672000
23.190700 3.164300
23.213000 3.345600
23.235300 3.111100
23.257600 2.659700
23.280000 2.320700
23.302300 2.246600
23.324600 2.423100
23.346900 2.785500
23.369200 3.183000
23.391500 3.368600
23.413900 3.221700
23.436200 2.923900
23.458500 2.727800
23.480800 2.687700
23.503100 2.737300
23.525400 2.813200
23.547800 2.825800
23.570100 2.677700
23.592400 2.374700
23.614700 2.050000
23.637000 1.842700
23.659300 1.827300
23.681700 2.035100
23.704000 2.385500
23.726300 2.647600
23.748600 2.665900
23.770900 2.538300
23.793200 2.403800
23.815600 2.252300
23.837900 2.099500
23.860200 2.056600
23.882500 2.113200
23.904800 2.119400
23.927100 2.020700
23.949500 1.950400
23.971800 2.033800
23.994100 2.185700
24.016400 2.261400
24.038700 2.347600
24.061100 2.654800
24.083400 3.141000
24.105700 3.491200
24.128000 3.485700
24.150300 3.174100
24.172600 2.723000
24.195000 2.318900
24.217300 2.145600
24.239600 2.236800
24.261900 2.411200
24.284200 2.490900
24.306500 2.444400
24.328900 2.272100
24.351200 2.008500
24.373500 1.826100
24.395800 1.890500
24.418100 2.166500
24.440400 2.490500
24.462800 2.735400
24.485100 2.838700
24.507400 2.802800
24.529700 2.703300
24.552000 2.599900
24.574300 2.482100
24.596700 2.336400
24.619000 2.198000
24.641300 2.157200
24.663600 2.291500
24.685900 2.529800
24.708200 2.722500
24.730600 2.849600
24.752900 2.936800
24.775200 2.883400
24.797500 2.628900
24.819800 2.327000
24.842100 2.147100
24.864500 2.111700
24.886800 2.212100
24.909100 2.422700
24.931400 2.628500
24.953700 2.711600
24.976100 2.646300
24.998400 2.484600
25.020700 2.269000
25.043000 1.986700
25.065300 1.678700
25.087600 1.469000
25.110000 1.425300
25.132300 1.544700
25.154600 1.820200
25.176900 2.151400
25.199200 2.293300
25.221500 2.091900
25.243900 1.732900
25.266200 1.589200
25.288500 1.798900
25.310800 2.151200
25.333100 2.410500
25.355400 2.547300
25.377800 2.617800
25.400100 2.608700
25.422400 2.482600
25.444700 2.286000
25.467000 2.117200
25.489300 2.008200
25.511700 1.945700
25.534000 1.966900
25.556300 2.112500
25.578600 2.353600
25.600900 2.616900
25.623200 2.801500
25.645600 2.808900
25.667900 2.660500
25.690200 2.512700
25.712500 2.498200
25.734800 2.630900
25.757100 2.839700
25.779500 3.031000
25.801800 3.103200
25.824100 2.984600
25.846400 2.768600
25.868700 2.654600
25.891100 2.673200
25.913400 2.697000
25.935700 2.684800
25.958000 2.687800
25.980300 2.650800
26.002600 2.439200
26.025000 2.108600
26.047300 1.871400
26.069600 1.810700
26.091900 1.894600
26.114200 2.114300
26.136500 2.371100
26.158900 2.457700
26.181200 2.324900
26.203500 2.138500
26.225800 2.012300
26.248100 1.890800
26.270400 1.722100
26.292800 1.592400
26.315100 1.620500
26.337400 1.811900
26.359700 2.059700
26.382000 2.211600
26.404300 2.155800
26.426700 1.947800
26.449000 1.820000
26.471300 1.922100
26.493600 2.118000
26.515900 2.179400
26.538200 2.068700
26.560600 1.918100
26.582900 1.783500
26.605200 1.587300
26.627500 1.354300
26.649800 1.250100
26.672100 1.335000
26.694500 1.521400
26.716800 1.761700
26.739100 2.110100
26.761400 2.545000
26.783700 2.835200
26.806000 2.773000
26.828400 2.502900
26.850700 2.331000
26.873000 2.279300
26.895300 2.157800
26.917600 1.956000
26.940000 1.881000
26.962300 2.044100
26.984600 2.269100
27.006900 2.325400
27.029200 2.242600
27.051500 2.202800
27.073900 2.246800
27.096200 2.292100
27.118500 2.318700
27.140800 2.374200
27.163100 2.478900
27.185400 2.597400
27.207800 2.679100
27.230100 2.694500
27.252400 2.625600
27.274700 2.466900
27.297000 2.262000
27.319300 2.137700
27.341700 2.236100
27.364000 2.500900
27.386300 2.673700
27.408600 2.632800
27.430900 2.491600
27.453200 2.363900
27.475600 2.306500
27.497900 2.371000
27.520200 2.537400
27.542500 2.687100
27.564800 2.727100
27.587100 2.739700
27.609500 2.876400
27.631800 3.083200
27.654100 3.174300
27.676400 3.189800
27.698700 3.375300
27.721000 3.752200
27.743400 4.026100
27.765700 4.028700
27.788000 3.945300
27.810300 3.975100
27.832600 4.002700
27.855000 3.788100
27.877300 3.324700
27.899600 2.810900
27.921900 2.421400
27.944200 2.258600
27.966500 2.362500
27.988900 2.619100
28.011200 2.756500
28.033500 2.576000
28.055800 2.197800
28.078100 2.007100
28.100400 2.295600
28.122800 2.953200
28.145100 3.564100
28.167400 3.808700
28.189700 3.751200
28.212000 3.696500
28.234300 3.725100
28.256700 3.580100
28.279000 3.140900
28.301300 2.661100
28.323600 2.412700
28.345900 2.409600
28.368200 2.532100
28.390600 2.667500
28.412900 2.702700
28.435200 2.574100
28.457500 2.359300
28.479800 2.236500
28.502100 2.362300
28.524500 2.779800
28.546800 3.358300
28.569100 3.861200
28.591400 4.122300
28.613700 4.068400
28.636000 3.718900
28.658400 3.321200
28.680700 3.191500
28.703000 3.297600
28.725300 3.327600
28.747600 3.157800
28.770000 2.906600
28.792300 2.660700
28.814600 2.468300
28.836900 2.428800
28.859200 2.582200
28.881500 2.819100
28.903900 2.966000
28.926200 2.931400
28.948500 2.772100
28.970800 2.588800
28.993100 2.448400
29.015400 2.470200
29.037800 2.725900
29.060100 3.007900
29.082400 3.061100
29.104700 2.940000
29.127000 2.835000
29.149300 2.823200
29.171700 2.882700
29.194000 2.917000
29.216300 2.847700
29.238600 2.728500
29.260900 2.677700
29.283200 2.756200
29.305600 2.863300
29.327900 2.797300
29.350200 2.583900
29.372500 2.556200
29.394800 2.877400
29.417100 3.218500
29.439500 3.181800
29.461800 2.820200
29.484100 2.503300
29.506400 2.466200
29.528700 2.655800
29.551000 2.917500
29.573400 3.167200
29.595700 3.332000
29.618000 3.293800
29.640300 3.048300
29.662600 2.765000
29.684900 2.548800
29.707300 2.342300
29.729600 2.143300
29.751900 2.062900
29.774200 2.145200
29.796500 2.327700
29.818900 2.520500
29.841200 2.667100
29.863500 2.822000
29.885800 3.041100
29.908100 3.236600
29.930400 3.373700
29.952800 3.583200
29.975100 3.863200
29.997400 3.947400
30.019700 3.624600
30.042000 3.002700
30.064300 2.363000
30.086700 1.900300
30.109000 1.642800
30.131300 1.520400
30.153600 1.537500
30.175900 1.838700
30.198200 2.426600
30.220600 2.918300
30.242900 2.906300
30.265200 2.483800
30.287500 2.108200
30.309800 2.093200
30.332100 2.415000
30.354500 2.820500
30.376800 3.044800
30.399100 2.990600
30.421400 2.742400
30.443700 2.474100
30.466000 2.315000
30.488400 2.264100
30.510700 2.242300
30.533000 2.219100
30.555300 2.257800
30.577600 2.406600
30.599900 2.575400
30.622300 2.598700
30.644600 2.443600
30.666900 2.259400
30.689200 2.182500
30.711500 2.238200
30.733900 2.444100
30.756200 2.771800
30.778500 3.015800
30.800800 2.982800
30.823100 2.802100
30.845400 2.782700
30.867800 3.002600
30.890100 3.276200
30.912400 3.433900
30.934700 3.443100
30.957000 3.335100
30.979300 3.174100
31.001700 3.088100
31.024000 3.154100
31.046300 3.226100
31.068600 3.093400
31.090900 2.811400
31.113200 2.609900
31.135600 2.531900
31.157900 2.449000
31.180200 2.331400
31.202500 2.228000
31.224800 2.095200
31.247100 1.892500
31.269500 1.727600
31.291800 1.689700
31.314100 1.719300
31.336400 1.779200
31.358700 1.905100
31.381000 2.060700
31.403400 2.136400
31.425700 2.100400
31.448000 2.076400
31.470300 2.225100
31.492600 2.510100
31.514900 2.655900
31.537300 2.475900
31.559600 2.122600
31.581900 1.835900
31.604200 1.660200
31.626500 1.522900
31.648800 1.385100
31.671200 1.272100
31.693500 1.236100
31.715800 1.261100
31.738100 1.235400
31.760400 1.102400
31.782800 0.952800
31.805100 0.890900
31.827400 0.921100
31.849700 1.005500
31.872000 1.118700
31.894300 1.201800
31.916700 1.140500
31.939000 0.902700
31.961300 0.673700
31.983600 0.707200
32.005900 1.042700
32.028200 1.458500
32.050600 1.674000
32.072900 1.556400
32.095200 1.213300
32.117500 0.906900
32.139800 0.809400
32.162100 0.868000
32.184500 0.919400
32.206800 0.862100
32.229100 0.709700
32.251400 0.534600
32.273700 0.386400
32.296000 0.269400
32.318400 0.190600
32.340700 0.176400
32.363000 0.242500
32.385300 0.379200
32.407600 0.524000
32.429900 0.578900
32.452300 0.547800
32.474600 0.560900
32.496900 0.673200
32.519200 0.757400
32.541500 0.675000
32.563800 0.465900
32.586200 0.287400
32.608500 0.224500
32.630800 0.253800
32.653100 0.329000
32.675400 0.405200
32.697800 0.434800
32.720100 0.412900
32.742400 0.386500
32.764700 0.391500
32.787000 0.420200
32.809300 0.451800
32.831700 0.469400
32.854000 0.460700
32.876300 0.431300
32.898600 0.394400
32.920900 0.364100
32.943200 0.370500
32.965600 0.416400
32.987900 0.436000
33.010200 0.371800
33.032500 0.256100
33.054800 0.165900
33.077100 0.129500
33.099500 0.112900
33.121800 0.086000
33.144100 0.062600
33.166400 0.068000
33.188700 0.095000
33.211000 0.111200
33.233400 0.102100
33.255700 0.083300
33.278000 0.067000
33.300300 0.049600
33.322600 0.033200
33.344900 0.026300
33.367300 0.028100
33.389600 0.031500
33.411900 0.039700
33.434200 0.062900
33.456500 0.093300
33.478800 0.102600
33.501200 0.078100
33.523500 0.040600
33.545800 0.014400
33.568100 0.003500
33.590400 0.001000
33.612800 0.002200
33.635100 0.007000
33.657400 0.015800
33.679700 0.024000
33.702000 0.024900
33.724300 0.017500
33.746700 0.008400
33.769000 0.002700
33.791300 0.000600
33.813600 0.000100
33.835900 0.000000
33.858200 0.000000
33.880600 0.000000
33.902900 0.000000
33.925200 0.000000
33.947500 0.000000
33.969800 0.000000
33.992100 0.000000
34.014500 0.000000
34.036800 0.000000
34.059100 0.000000
34.081400 0.000000
34.103700 0.000000
34.126000 0.000000
34.148400 0.000000
34.170700 0.000000
34.193000 0.000000
34.215300 0.000000
34.237600 0.000000
34.259900 0.000000
34.282300 0.000000
34.304600 0.000000
34.326900 0.000000
34.349200 0.000000
34.371500 0.000000
34.393800 0.000000
34.416200 0.000000
34.438500 0.000000
34.460800 0.000000
34.483100 0.000000
34.505400 0.000000
34.527700 0.000000
34.550100 0.000000
34.572400 0.000000
34.594700 0.000000
34.617000 0.000000
34.639300 0.000000
34.661700 0.000000
34.684000 0.000000
34.706300 0.000000
34.728600 0.000000
34.750900 0.000000
34.773200 0.000000
34.795600 0.000000
34.817900 0.000000
34.840200 0.000000
34.862500 0.000000
34.884800 0.000000
34.907100 0.000000
34.929500 0.000000
34.951800 0.000000
34.974100 0.000000
34.996400 0.000000
35.018700 0.000000
35.041000 0.000000
35.063400 0.000000
35.085700 0.000000
35.108000 0.000000
35.130300 0.000000
35.152600 0.000000
35.174900 0.000000
35.197300 0.000000
35.219600 0.000000
35.241900 0.000000
35.264200 0.000000
35.286500 0.000000
35.308800 0.000000
35.331200 0.000000
35.353500 0.000000
35.375800 0.000000
35.398100 0.000000
35.420400 0.000000
35.442700 0.000000
35.465100 0.000000
35.487400 0.000000
35.509700 0.000000
35.532000 0.000000
35.554300 0.000000
35.576700 0.000000
35.599000 0.000000
35.621300 0.000000
35.643600 0.000000
35.665900 0.000000
35.688200 0.000000
35.710600 0.000000
e
