set title 'mp-1228120 - Density of States'
set xlabel 'Energy (eV)'
set ylabel 'DOS (states/eV)'
set grid
set xrange [-10:10]
set yrange [0:8.850]
set xzeroaxis lt -1
set terminal png size 800,600
set output 'mp-1228120_dos_gnuplot.png'
plot '-' using 1:2 with lines title 'DOS'
-5.615600 0.000000
-5.598400 0.000000
-5.581100 0.000000
-5.563900 0.000000
-5.546600 0.000000
-5.529400 0.000000
-5.512100 0.000000
-5.494900 0.000000
-5.477600 0.000000
-5.460400 0.000000
-5.443100 0.000000
-5.425800 0.000000
-5.408600 0.000000
-5.391300 0.000000
-5.374100 0.000000
-5.356800 0.000000
-5.339600 0.000000
-5.322300 0.000000
-5.305100 0.000000
-5.287800 0.000000
-5.270500 0.000000
-5.253300 0.000000
-5.236000 0.000000
-5.218800 0.000000
-5.201500 0.000000
-5.184300 0.000000
-5.167000 0.000000
-5.149800 0.000000
-5.132500 0.000000
-5.115200 0.000000
-5.098000 0.000000
-5.080700 0.000000
-5.063500 0.000000
-5.046200 0.000000
-5.029000 0.000000
-5.011700 0.000000
-4.994500 0.000000
-4.977200 0.000000
-4.959900 0.000000
-4.942700 0.000000
-4.925400 0.000000
-4.908200 0.000000
-4.890900 0.000000
-4.873700 0.000000
-4.856400 0.000000
-4.839200 0.000000
-4.821900 0.000000
-4.804600 0.000000
-4.787400 0.000000
-4.770100 0.000000
-4.752900 0.000000
-4.735600 0.000000
-4.718400 0.000000
-4.701100 0.000000
-4.683900 0.000000
-4.666600 0.000000
-4.649300 0.000000
-4.632100 0.000000
-4.614800 0.000000
-4.597600 0.000000
-4.580300 0.000000
-4.563100 0.000000
-4.545800 0.000000
-4.528600 0.000000
-4.511300 0.000000
-4.494100 0.000000
-4.476800 0.000000
-4.459500 0.000000
-4.442300 0.000000
-4.425000 0.000000
-4.407800 0.000000
-4.390500 0.000000
-4.373300 0.000000
-4.356000 0.000000
-4.338800 0.000000
-4.321500 0.000000
-4.304200 0.000000
-4.287000 0.000000
-4.269700 0.000000
-4.252500 0.000000
-4.235200 0.000000
-4.218000 0.000000
-4.200700 0.000000
-4.183500 0.000000
-4.166200 0.000000
-4.148900 0.000000
-4.131700 0.000000
-4.114400 0.000000
-4.097200 0.000000
-4.079900 0.000000
-4.062700 0.000000
-4.045400 0.000400
-4.028200 0.027100
-4.010900 0.070900
-3.993600 0.114700
-3.976400 0.158600
-3.959100 0.202400
-3.941900 0.246300
-3.924600 0.290100
-3.907400 0.333900
-3.890100 0.377800
-3.872900 0.421600
-3.855600 0.465400
-3.838300 0.344800
-3.821100 0.255800
-3.803800 0.259400
-3.786600 0.263100
-3.769300 0.266800
-3.752100 0.270500
-3.734800 0.274200
-3.717600 0.277800
-3.700300 0.281500
-3.683100 0.285200
-3.665800 0.288900
-3.648500 0.292500
-3.631300 0.296200
-3.614000 0.299900
-3.596800 0.303600
-3.579500 0.307300
-3.562300 0.310900
-3.545000 0.314600
-3.527800 0.318300
-3.510500 0.322000
-3.493200 0.325600
-3.476000 0.329300
-3.458700 0.333000
-3.441500 0.333900
-3.424200 0.329600
-3.407000 0.325100
-3.389700 0.320600
-3.372500 0.316100
-3.355200 0.311600
-3.337900 0.307100
-3.320700 0.302600
-3.303400 0.298100
-3.286200 0.293600
-3.268900 0.289100
-3.251700 0.285100
-3.234400 0.285300
-3.217200 0.286600
-3.199900 0.287900
-3.182600 0.289200
-3.165400 0.290500
-3.148100 0.291900
-3.130900 0.293200
-3.113600 0.294500
-3.096400 0.295800
-3.079100 0.297100
-3.061900 0.298400
-3.044600 0.299700
-3.027300 0.301000
-3.010100 0.302300
-2.992800 0.303600
-2.975600 0.304900
-2.958300 0.306200
-2.941100 0.307500
-2.923800 0.308800
-2.906600 0.310100
-2.889300 0.311400
-2.872000 0.312800
-2.854800 0.314100
-2.837500 0.315400
-2.820300 0.316700
-2.803000 0.318000
-2.785800 0.319300
-2.768500 0.320600
-2.751300 0.321900
-2.734000 0.323200
-2.716800 0.324500
-2.699500 0.325800
-2.682200 0.327100
-2.665000 0.320000
-2.647700 0.303900
-2.630500 0.303700
-2.613200 0.303400
-2.596000 0.303200
-2.578700 0.302900
-2.561500 0.302700
-2.544200 0.302400
-2.526900 0.302200
-2.509700 0.301900
-2.492400 0.305000
-2.475200 0.313300
-2.457900 0.325200
-2.440700 0.339200
-2.423400 0.355200
-2.406200 0.373200
-2.388900 0.392900
-2.371600 0.414000
-2.354400 0.436300
-2.337100 0.460000
-2.319900 0.485000
-2.302600 0.498800
-2.285400 0.486300
-2.268100 0.490100
-2.250900 0.495100
-2.233600 0.501600
-2.216300 0.509800
-2.199100 0.518200
-2.181800 0.527200
-2.164600 0.537100
-2.147300 0.548400
-2.130100 0.560400
-2.112800 0.571700
-2.095600 0.582000
-2.078300 0.591400
-2.061000 0.599800
-2.043800 0.607100
-2.026500 0.613000
-2.009300 0.617600
-1.992000 0.620700
-1.974800 0.622500
-1.957500 0.611200
-1.940300 0.603700
-1.923000 0.608000
-1.905800 0.612200
-1.888500 0.615700
-1.871200 0.618300
-1.854000 0.620300
-1.836700 0.621900
-1.819500 0.623700
-1.802200 0.626800
-1.785000 0.631300
-1.767700 0.637100
-1.750500 0.644400
-1.733200 0.652700
-1.715900 0.661300
-1.698700 0.670100
-1.681400 0.679200
-1.664200 0.687400
-1.646900 0.695900
-1.629700 0.704900
-1.612400 0.702800
-1.595200 0.699500
-1.577900 0.701300
-1.560600 0.703300
-1.543400 0.705100
-1.526100 0.706700
-1.508900 0.708300
-1.491600 0.710200
-1.474400 0.713500
-1.457100 0.717400
-1.439900 0.721700
-1.422600 0.726300
-1.405300 0.731200
-1.388100 0.736300
-1.370800 0.741700
-1.353600 0.747700
-1.336300 0.753900
-1.319100 0.760100
-1.301800 0.766200
-1.284600 0.772200
-1.267300 0.778300
-1.250000 0.784400
-1.232800 0.790600
-1.215500 0.796800
-1.198300 0.802700
-1.181000 0.808400
-1.163800 0.813800
-1.146500 0.819000
-1.129300 0.824100
-1.112000 0.829100
-1.094700 0.830500
-1.077500 0.833000
-1.060200 0.835700
-1.043000 0.838400
-1.025700 0.841300
-1.008500 0.844400
-0.991200 0.847600
-0.974000 0.850900
-0.956700 0.854200
-0.939500 0.857700
-0.922200 0.861100
-0.904900 0.864700
-0.887700 0.868500
-0.870400 0.872200
-0.853200 0.876000
-0.835900 0.882100
-0.818700 0.888400
-0.801400 0.894400
-0.784200 0.899800
-0.766900 0.903800
-0.749600 0.906900
-0.732400 0.911100
-0.715100 0.914500
-0.697900 0.916900
-0.680600 0.918300
-0.663400 0.918900
-0.646100 0.918400
-0.628900 0.917000
-0.611600 0.914600
-0.594300 0.911900
-0.577100 0.913900
-0.559800 0.915900
-0.542600 0.917900
-0.525300 0.919900
-0.508100 0.921900
-0.490800 0.923900
-0.473600 0.929500
-0.456300 0.939600
-0.439000 0.949100
-0.421800 0.956500
-0.404500 0.963400
-0.387300 0.970100
-0.370000 0.976100
-0.352800 0.981500
-0.335500 0.981800
-0.318300 0.980500
-0.301000 0.983500
-0.283700 0.986600
-0.266500 0.989800
-0.249200 0.992700
-0.232000 0.995500
-0.214700 0.998400
-0.197500 1.001500
-0.180200 1.004100
-0.163000 1.006700
-0.145700 1.009400
-0.128500 1.012200
-0.111200 1.015200
-0.093900 1.018100
-0.076700 1.020900
-0.059400 1.023700
-0.042200 1.026600
-0.024900 1.029600
-0.007700 1.032600
0.009600 1.035800
0.026800 1.038800
0.044100 1.042000
0.061400 1.046100
0.078600 1.050100
0.095900 1.054300
0.113100 1.058400
0.130400 1.061900
0.147600 1.065300
0.164900 1.068700
0.182100 1.072200
0.199400 1.075600
0.216700 1.079000
0.233900 1.082300
0.251200 1.085600
0.268400 1.089000
0.285700 1.092400
0.302900 1.095900
0.320200 1.099400
0.337400 1.102900
0.354700 1.106500
0.372000 1.110200
0.389200 1.113900
0.406500 1.117700
0.423700 1.121600
0.441000 1.125700
0.458200 1.129700
0.475500 1.133600
0.492700 1.137400
0.510000 1.141200
0.527300 1.145000
0.544500 1.148700
0.561800 1.152400
0.579000 1.155900
0.596300 1.159800
0.613500 1.163800
0.630800 1.167700
0.648000 1.171600
0.665300 1.175500
0.682600 1.179400
0.699800 1.183300
0.717100 1.187200
0.734300 1.191200
0.751600 1.195100
0.768800 1.199100
0.786100 1.322800
0.803300 1.321300
0.820600 1.319800
0.837800 1.318100
0.855100 1.316200
0.872400 1.314300
0.889600 1.312400
0.906900 1.310600
0.924100 1.308900
0.941400 1.307300
0.958600 1.305800
0.975900 1.304200
0.993100 1.302700
1.010400 1.301100
1.027700 1.299600
1.044900 1.298100
1.062200 1.296600
1.079400 1.295100
1.096700 1.293600
1.113900 1.292100
1.131200 1.290600
1.148400 1.289100
1.165700 1.287600
1.183000 1.287300
1.200200 1.292700
1.217500 1.303100
1.234700 1.313800
1.252000 1.316100
1.269200 1.308800
1.286500 1.293500
1.303700 1.273000
1.321000 1.271500
1.338300 1.270200
1.355500 1.728400
1.372800 1.684900
1.390000 1.641700
1.407300 1.598700
1.424500 1.555800
1.441800 1.513200
1.459000 1.470700
1.476300 1.428500
1.493600 1.386400
1.510800 1.344400
1.528100 1.302600
1.545300 1.260900
1.562600 1.219400
1.579800 1.178500
1.597100 1.158100
1.614300 1.160100
1.631600 1.161700
1.648900 1.162900
1.666100 1.164400
1.683400 1.166200
1.700600 1.168200
1.717900 1.170400
1.735100 1.173000
1.752400 1.176100
1.769600 1.179400
1.786900 1.182700
1.804100 1.185800
1.821400 1.189500
1.838700 1.193900
1.855900 1.199000
1.873200 1.204600
1.890400 1.210700
1.907700 1.217200
1.924900 1.223300
1.942200 1.230000
1.959400 1.237400
1.976700 1.245300
1.994000 1.253800
2.011200 1.262700
2.028500 1.271600
2.045700 1.280500
2.063000 1.289400
2.080200 1.298200
2.097500 1.307100
2.114700 1.316000
2.132000 1.324900
2.149300 1.333800
2.166500 1.342800
2.183800 1.351900
2.201000 1.361000
2.218300 1.370200
2.235500 1.379600
2.252800 1.389000
2.270000 1.398500
2.287300 1.408100
2.304600 1.417900
2.321800 1.427800
2.339100 1.437800
2.356300 1.447800
2.373600 1.457800
2.390800 1.467600
2.408100 1.477400
2.425300 1.545300
2.442600 1.786400
2.459900 1.763200
2.477100 1.683100
2.494400 1.575100
2.511600 1.534300
2.528900 1.498800
2.546100 1.468400
2.563400 1.441200
2.580600 1.413600
2.597900 1.382200
2.615100 1.346800
2.632400 1.307900
2.649700 1.288300
2.666900 1.206100
2.684200 1.195800
2.701400 1.188700
2.718700 1.184900
2.735900 1.185900
2.753200 1.191200
2.770400 1.196600
2.787700 1.202100
2.805000 1.207800
2.822200 1.214600
2.839500 1.223900
2.856700 1.234900
2.874000 1.247100
2.891200 1.260600
2.908500 1.275200
2.925700 1.291200
2.943000 1.308200
2.960300 1.326100
2.977500 1.345100
2.994800 1.365500
3.012000 1.388700
3.029300 1.414900
3.046500 1.614700
3.063800 1.626100
3.081000 1.635700
3.098300 1.644200
3.115600 1.653800
3.132800 1.664400
3.150100 1.676200
3.167300 1.689000
3.184600 1.701600
3.201800 1.713900
3.219100 1.723100
3.236300 1.727500
3.253600 1.730100
3.270900 1.730700
3.288100 1.728200
3.305400 1.722000
3.322600 1.706600
3.339900 1.690300
3.357100 1.674800
3.374400 1.660200
3.391600 1.646400
3.408900 1.633600
3.426200 1.622000
3.443400 1.610000
3.460700 1.596700
3.477900 1.582500
3.495200 1.567900
3.512400 1.552900
3.529700 1.537600
3.546900 1.522300
3.564200 3.244300
3.581400 1.933700
3.598700 2.965600
3.616000 1.556200
3.633200 1.412500
3.650500 1.378000
3.667700 1.368100
3.685000 1.381300
3.702200 1.419400
3.719500 1.456100
3.736700 1.488400
3.754000 1.516400
3.771300 1.540700
3.788500 1.570300
3.805800 1.593500
3.823000 1.640500
3.840300 1.692700
3.857500 1.717100
3.874800 1.661300
3.892000 1.619900
3.909300 1.612400
3.926600 1.604900
3.943800 1.599400
3.961100 1.596800
3.978300 1.592500
3.995600 1.586500
4.012800 1.587900
4.030100 1.584800
4.047300 1.569900
4.064600 1.543500
4.081900 1.504800
4.099100 1.463100
4.116400 1.418600
4.133600 1.368400
4.150900 1.320100
4.168100 1.276700
4.185400 1.238100
4.202600 1.214300
4.219900 1.205400
4.237200 1.208200
4.254400 1.225300
4.271700 1.259300
4.288900 1.310400
4.306200 1.378900
4.323400 1.460100
4.340700 1.473500
4.357900 1.491600
4.375200 1.503000
4.392400 1.513900
4.409700 1.535600
4.427000 1.573600
4.444200 1.631600
4.461500 1.700600
4.478700 1.754400
4.496000 1.791400
4.513200 1.811800
4.530500 1.797700
4.547700 1.756200
4.565000 1.747200
4.582300 1.760200
4.599500 1.748800
4.616800 1.743100
4.634000 1.738200
4.651300 1.739600
4.668500 1.747700
4.685800 1.810800
4.703000 1.981400
4.720300 1.944900
4.737600 1.819700
4.754800 1.703700
4.772100 1.630300
4.789300 1.562100
4.806600 1.532300
4.823800 1.520400
4.841100 1.525800
4.858300 1.544400
4.875600 1.574500
4.892900 1.616600
4.910100 1.667600
4.927400 1.714100
4.944600 1.749500
4.961900 1.776400
4.979100 1.796800
4.996400 1.811400
5.013600 1.817900
5.030900 1.819900
5.048200 1.825400
5.065400 1.799800
5.082700 1.759200
5.099900 1.722700
5.117200 1.673700
5.134400 1.603400
5.151700 1.589900
5.168900 1.635300
5.186200 1.724700
5.203500 1.799700
5.220700 1.843600
5.238000 1.874800
5.255200 1.899200
5.272500 1.952600
5.289700 2.195900
5.307000 2.388700
5.324200 2.458600
5.341500 3.848000
5.358700 1.905500
5.376000 1.897000
5.393300 1.893400
5.410500 1.978600
5.427800 2.026600
5.445000 2.041400
5.462300 2.095000
5.479500 2.137300
5.496800 2.169700
5.514000 2.191100
5.531300 2.196200
5.548600 2.179900
5.565800 2.158200
5.583100 2.133300
5.600300 2.107000
5.617600 2.079300
5.634800 2.056200
5.652100 2.032900
5.669300 2.008500
5.686600 1.985600
5.703900 1.977500
5.721100 1.974600
5.738400 1.971000
5.755600 1.962500
5.772900 1.948700
5.790100 1.929600
5.807400 1.910100
5.824600 1.916800
5.841900 1.932600
5.859200 1.959500
5.876400 1.984500
5.893700 2.011900
5.910900 2.041000
5.928200 2.068000
5.945400 2.016600
5.962700 1.904700
5.979900 1.737300
5.997200 1.700000
6.014500 1.673800
6.031700 1.659500
6.049000 1.658800
6.066200 1.662300
6.083500 1.663600
6.100700 1.662800
6.118000 1.663800
6.135200 1.667200
6.152500 1.669300
6.169700 1.666600
6.187000 1.649900
6.204300 1.625400
6.221500 1.599900
6.238800 1.573500
6.256000 1.546300
6.273300 1.515100
6.290500 1.464200
6.307800 1.436500
6.325000 1.419600
6.342300 1.404900
6.359600 1.396300
6.376800 1.395600
6.394100 1.402800
6.411300 1.405800
6.428600 1.405300
6.445800 1.407200
6.463100 1.410200
6.480300 1.415200
6.497600 1.423000
6.514900 1.433800
6.532100 1.446200
6.549400 1.457900
6.566600 1.466700
6.583900 1.467200
6.601100 1.457900
6.618400 1.439300
6.635600 1.411400
6.652900 1.395700
6.670200 1.385500
6.687400 1.378800
6.704700 1.377900
6.721900 1.387200
6.739200 1.406800
6.756400 1.433000
6.773700 1.470500
6.790900 1.501900
6.808200 1.516600
6.825500 1.527300
6.842700 1.545700
6.860000 1.566700
6.877200 1.587800
6.894500 1.607400
6.911700 1.619700
6.929000 1.629200
6.946200 1.657300
6.963500 1.746600
6.980800 1.894100
6.998000 1.983100
7.015300 2.016600
7.032500 2.030200
7.049800 2.027800
7.067000 2.034600
7.084300 2.042800
7.101500 2.050200
7.118800 2.056200
7.136000 2.059900
7.153300 2.059600
7.170600 2.046900
7.187800 2.025900
7.205100 2.016600
7.222300 2.005700
7.239600 1.990100
7.256800 1.968900
7.274100 1.946800
7.291300 1.933200
7.308600 1.922000
7.325900 1.912600
7.343100 1.905100
7.360400 1.903600
7.377600 1.908900
7.394900 1.929400
7.412100 1.977800
7.429400 2.041600
7.446600 2.120600
7.463900 8.045900
7.481200 2.140700
7.498400 2.156500
7.515700 2.175100
7.532900 2.187100
7.550200 2.168400
7.567400 2.195600
7.584700 2.220300
7.601900 2.220800
7.619200 2.213800
7.636500 2.207400
7.653700 2.201800
7.671000 2.196800
7.688200 2.191900
7.705500 2.186000
7.722700 2.184700
7.740000 2.179800
7.757200 2.170500
7.774500 2.158400
7.791800 2.143400
7.809000 2.125700
7.826300 2.105900
7.843500 2.083800
7.860800 2.059500
7.878000 2.035100
7.895300 2.013700
7.912500 1.995600
7.929800 1.980900
7.947000 1.970700
7.964300 1.965900
7.981600 1.965700
7.998800 1.979400
8.016100 2.006700
8.033300 2.048300
8.050600 2.105300
8.067800 2.131800
8.085100 2.145800
8.102300 2.154600
8.119600 2.176700
8.136900 2.212900
8.154100 2.258500
8.171400 2.285900
8.188600 2.301300
8.205900 2.302200
8.223100 2.296200
8.240400 2.287200
8.257600 2.272200
8.274900 2.251800
8.292200 2.226900
8.309400 2.207400
8.326700 2.182600
8.343900 2.139600
8.361200 2.083000
8.378400 2.027700
8.395700 1.976000
8.412900 1.917900
8.430200 1.853800
8.447500 1.843800
8.464700 1.842300
8.482000 1.848300
8.499200 1.857300
8.516500 1.866600
8.533700 1.879300
8.551000 1.896000
8.568200 1.903900
8.585500 1.855700
8.602800 1.827000
8.620000 1.822800
8.637300 1.823100
8.654500 1.823700
8.671800 1.821500
8.689000 1.818800
8.706300 1.815000
8.723500 1.809800
8.740800 1.803100
8.758100 1.794200
8.775300 1.784200
8.792600 1.775000
8.809800 1.770400
8.827100 1.770600
8.844300 1.776700
8.861600 1.785700
8.878800 1.795800
8.896100 1.807000
8.913300 1.819000
8.930600 1.833200
8.947900 1.845000
8.965100 1.854100
8.982400 1.860900
8.999600 1.865100
9.016900 1.848400
9.034100 1.847100
9.051400 1.877600
9.068600 1.885700
9.085900 1.892400
9.103200 1.898600
9.120400 1.909100
9.137700 1.921200
9.154900 1.942200
9.172200 1.965100
9.189400 1.992000
9.206700 2.026600
9.223900 2.052900
9.241200 2.053700
9.258500 2.041900
9.275700 2.029400
9.293000 2.016300
9.310200 2.020600
9.327500 2.037500
9.344700 2.058000
9.362000 2.075800
9.379200 2.086200
9.396500 2.087600
9.413800 2.080000
9.431000 2.061900
9.448300 2.045100
9.465500 2.041600
9.482800 2.039700
9.500000 2.046000
9.517300 2.063300
9.534500 2.083800
9.551800 2.107000
9.569100 2.127900
9.586300 2.144500
9.603600 2.153200
9.620800 2.155100
9.638100 2.155100
9.655300 2.170300
9.672600 2.186300
9.689800 2.201800
9.707100 2.217200
9.724400 2.233100
9.741600 2.249500
9.758900 2.260000
9.776100 2.265400
9.793400 2.273600
9.810600 2.283400
9.827900 2.292500
9.845100 2.299300
9.862400 2.299600
9.879600 2.302000
9.896900 2.306000
9.914200 2.306700
9.931400 2.306900
9.948700 2.308300
9.965900 2.312800
9.983200 2.322500
10.000400 2.320700
10.017700 2.348900
10.034900 2.669000
10.052200 2.473200
10.069500 2.460800
10.086700 2.424400
10.104000 2.388800
10.121200 2.366300
10.138500 2.356000
10.155700 2.351500
10.173000 2.346000
10.190200 2.340200
10.207500 2.326700
10.224800 2.307300
10.242000 2.290500
10.259300 2.274600
10.276500 2.260500
10.293800 2.250000
10.311000 2.239600
10.328300 2.235500
10.345500 2.256000
10.362800 2.297400
10.380100 2.336800
10.397300 2.364300
10.414600 2.384300
10.431800 2.397900
10.449100 2.404100
10.466300 2.503200
10.483600 2.423700
10.500800 2.412600
10.518100 2.396100
10.535400 2.374100
10.552600 2.348500
10.569900 2.328600
10.587100 2.319500
10.604400 2.311500
10.621600 2.303800
10.638900 2.295800
10.656100 2.287800
10.673400 2.280600
10.690600 2.275400
10.707900 2.277900
10.725200 2.279400
10.742400 2.272800
10.759700 2.266000
10.776900 2.260200
10.794200 2.255900
10.811400 2.252900
10.828700 2.250700
10.845900 2.250300
10.863200 2.247600
10.880500 2.241700
10.897700 2.232300
10.915000 2.220100
10.932200 2.205800
10.949500 2.190700
10.966700 2.175300
10.984000 2.157000
11.001200 2.131500
11.018500 2.108700
11.035800 2.081600
11.053000 2.070000
11.070300 2.067500
11.087500 2.068300
11.104800 2.072500
11.122000 2.079800
11.139300 2.090000
11.156500 2.103400
11.173800 2.118200
11.191100 2.132600
11.208300 2.154200
11.225600 2.183100
11.242800 2.219200
11.260100 2.262300
11.277300 2.295700
11.294600 2.312700
11.311800 2.319400
11.329100 2.325000
11.346400 2.328900
11.363600 2.330200
11.380900 2.329300
11.398100 2.327900
11.415400 2.324400
11.432600 2.319700
11.449900 2.313100
11.467100 2.304600
11.484400 2.301100
11.501700 2.320200
11.518900 2.341500
11.536200 2.357500
11.553400 2.382000
11.570700 2.399000
11.587900 2.405100
11.605200 2.410700
11.622400 2.416300
11.639700 2.422000
11.656900 2.426800
11.674200 2.431100
11.691500 2.434900
11.708700 2.441500
11.726000 2.452900
11.743200 2.463300
11.760500 2.472400
11.777700 2.481900
11.795000 2.490600
11.812200 2.500000
11.829500 2.510600
11.846800 2.522700
11.864000 2.533800
11.881300 2.564000
11.898500 2.611800
11.915800 2.576200
11.933000 2.475600
11.950300 2.465200
11.967500 2.460400
11.984800 2.458200
12.002100 2.457100
12.019300 2.457600
12.036600 2.460000
12.053800 2.464100
12.071100 2.469600
12.088300 2.476800
12.105600 2.486200
12.122800 2.496600
12.140100 2.506700
12.157400 2.516400
12.174600 2.523200
12.191900 2.536500
12.209100 2.552400
12.226400 2.566400
12.243600 2.580800
12.260900 2.589700
12.278100 2.604200
12.295400 2.856600
12.312700 2.820300
12.329900 2.673200
12.347200 2.674700
12.364400 2.676100
12.381700 2.676600
12.398900 2.676500
12.416200 2.676000
12.433400 2.676500
12.450700 2.677700
12.467900 2.679200
12.485200 2.680000
12.502500 2.679900
12.519700 2.678500
12.537000 2.674800
12.554200 2.667000
12.571500 2.651200
12.588700 2.639900
12.606000 2.625000
12.623200 2.604500
12.640500 2.587100
12.657800 2.572900
12.675000 2.559800
12.692300 2.586800
12.709500 2.600100
12.726800 2.588700
12.744000 2.554200
12.761300 2.521700
12.778500 2.497800
12.795800 2.488300
12.813100 2.492400
12.830300 2.502100
12.847600 2.516500
12.864800 2.534400
12.882100 2.557100
12.899300 2.600400
12.916600 2.611400
12.933800 2.594300
12.951100 2.570900
12.968400 2.552300
12.985600 2.536700
13.002900 2.523900
13.020100 2.514200
13.037400 2.507200
13.054600 2.502600
13.071900 2.499500
13.089100 2.496700
13.106400 2.494600
13.123700 2.493400
13.140900 2.491800
13.158200 2.489800
13.175400 2.486700
13.192700 2.483600
13.209900 2.484400
13.227200 2.490600
13.244400 2.486000
13.261700 2.488600
13.279000 2.492400
13.296200 2.499400
13.313500 2.504400
13.330700 2.505700
13.348000 2.503500
13.365200 2.489500
13.382500 2.478300
13.399700 2.470600
13.417000 2.469400
13.434200 2.469700
13.451500 2.466400
13.468800 2.457300
13.486000 2.448900
13.503300 2.446900
13.520500 2.447900
13.537800 2.451400
13.555000 2.487600
13.572300 2.513100
13.589500 2.466200
13.606800 2.469500
13.624100 2.473200
13.641300 2.477500
13.658600 2.482100
13.675800 2.487200
13.693100 2.491200
13.710300 2.496300
13.727600 2.504900
13.744800 2.514400
13.762100 2.525100
13.779400 2.536800
13.796600 2.549600
13.813900 2.580700
13.831100 2.637700
13.848400 2.631700
13.865600 2.631800
13.882900 2.634200
13.900100 2.637900
13.917400 2.642700
13.934700 2.648200
13.951900 2.650700
13.969200 2.653500
13.986400 2.660600
14.003700 2.675200
14.020900 2.702200
14.038200 2.719500
14.055400 2.733300
14.072700 2.746900
14.090000 2.759000
14.107200 2.763300
14.124500 2.765000
14.141700 2.769200
14.159000 2.787400
14.176200 2.792800
14.193500 2.788300
14.210700 2.784500
14.228000 2.781700
14.245200 2.780200
14.262500 2.788100
14.279800 2.797800
14.297000 2.808700
14.314300 2.820200
14.331500 2.832300
14.348800 2.849100
14.366000 2.878900
14.383300 2.922100
14.400500 2.972300
14.417800 3.006700
14.435100 3.033900
14.452300 3.055700
14.469600 3.076600
14.486800 3.115700
14.504100 3.122300
14.521300 3.076300
14.538600 3.025200
14.555800 2.991900
14.573100 2.971700
14.590400 2.953200
14.607600 2.929100
14.624900 2.888500
14.642100 2.856900
14.659400 2.824900
14.676600 2.792300
14.693900 2.759900
14.711100 2.727700
14.728400 2.679800
14.745700 2.646500
14.762900 2.613100
14.780200 2.579900
14.797400 2.555000
14.814700 2.539000
14.831900 2.532300
14.849200 2.529200
14.866400 2.526300
14.883700 2.524100
14.901000 2.514100
14.918200 2.506300
14.935500 2.501200
14.952700 2.500800
14.970000 2.641400
14.987200 2.765700
15.004500 2.821300
15.021700 2.832400
15.039000 2.786400
15.056300 2.696900
15.073500 2.635300
15.090800 2.602300
15.108000 2.589000
15.125300 2.598200
15.142500 2.606900
15.159800 2.609500
15.177000 2.605700
15.194300 2.598900
15.211500 2.590200
15.228800 2.579000
15.246100 2.566800
15.263300 2.552900
15.280600 2.536900
15.297800 2.521500
15.315100 2.512600
15.332300 2.510900
15.349600 2.516100
15.366800 2.520200
15.384100 2.518300
15.401400 2.510800
15.418600 2.505500
15.435900 2.529700
15.453100 2.542000
15.470400 2.538100
15.487600 2.530700
15.504900 2.526700
15.522100 2.527700
15.539400 2.547500
15.556700 2.607500
15.573900 2.612600
15.591200 2.614400
15.608400 2.613300
15.625700 2.609000
15.642900 2.614300
15.660200 2.625100
15.677400 2.642900
15.694700 2.662400
15.712000 2.690100
15.729200 2.726100
15.746500 2.755000
15.763700 2.784700
15.781000 2.820600
15.798200 2.857800
15.815500 2.886300
15.832700 2.900200
15.850000 2.907400
15.867300 2.908500
15.884500 2.904100
15.901800 2.892300
15.919000 2.868800
15.936300 2.832800
15.953500 2.730100
15.970800 2.711600
15.988000 2.693200
16.005300 2.678700
16.022500 2.666700
16.039800 2.662900
16.057100 2.662500
16.074300 2.661400
16.091600 2.661100
16.108800 2.658900
16.126100 2.654200
16.143300 2.647200
16.160600 2.637700
16.177800 2.629700
16.195100 2.632100
16.212400 2.638500
16.229600 2.643200
16.246900 2.648600
16.264100 2.654600
16.281400 2.661300
16.298600 2.669900
16.315900 2.681300
16.333100 2.692100
16.350400 2.698200
16.367700 2.693500
16.384900 2.666300
16.402200 2.660500
16.419400 2.636600
16.436700 2.613700
16.453900 2.592300
16.471200 2.575500
16.488400 2.563400
16.505700 2.560200
16.523000 2.569500
16.540200 2.581300
16.557500 2.596500
16.574700 2.616800
16.592000 2.641700
16.609200 2.670500
16.626500 2.700100
16.643700 2.730600
16.661000 2.760500
16.678300 2.780000
16.695500 2.800900
16.712800 2.766100
16.730000 2.714200
16.747300 2.655600
16.764500 2.593800
16.781800 2.527600
16.799000 2.455800
16.816300 2.376000
16.833600 2.294100
16.850800 2.232300
16.868100 2.199700
16.885300 2.172300
16.902600 2.152200
16.919800 2.140500
16.937100 2.137600
16.954300 2.142500
16.971600 2.150900
16.988800 2.164900
17.006100 2.182400
17.023400 2.205000
17.040600 2.232400
17.057900 2.266800
17.075100 2.309100
17.092400 2.359200
17.109600 2.416700
17.126900 2.477400
17.144100 2.538400
17.161400 2.600400
17.178700 2.668200
17.195900 2.739700
17.213200 2.806600
17.230400 2.854600
17.247700 2.895700
17.264900 2.928800
17.282200 2.954500
17.299400 2.977300
17.316700 2.994100
17.334000 3.001700
17.351200 2.999000
17.368500 2.969900
17.385700 2.937900
17.403000 2.912500
17.420200 2.888500
17.437500 2.870100
17.454700 2.856400
17.472000 2.843300
17.489300 2.828400
17.506500 2.809400
17.523800 2.789000
17.541000 2.767100
17.558300 2.748400
17.575500 2.723600
17.592800 2.698100
17.610000 2.673500
17.627300 2.651000
17.644600 2.629900
17.661800 2.611400
17.679100 2.570400
17.696300 2.527400
17.713600 2.493900
17.730800 2.469500
17.748100 2.451100
17.765300 2.433800
17.782600 2.419000
17.799800 2.413400
17.817100 2.462700
17.834400 2.650000
17.851600 2.711900
17.868900 2.715700
17.886100 2.717300
17.903400 2.717000
17.920600 2.715300
17.937900 2.712600
17.955100 2.715400
17.972400 2.721800
17.989700 2.722900
18.006900 2.727900
18.024200 2.732500
18.041400 2.737400
18.058700 2.741100
18.075900 2.742200
18.093200 2.737300
18.110400 2.727400
18.127700 2.715800
18.145000 2.699500
18.162200 2.673100
18.179500 2.635400
18.196700 2.591400
18.214000 2.558300
18.231200 2.527100
18.248500 2.501400
18.265700 2.481400
18.283000 2.468900
18.300300 2.465000
18.317500 2.473600
18.334800 2.491100
18.352000 2.512500
18.369300 2.536100
18.386500 2.560700
18.403800 2.586100
18.421000 2.614400
18.438300 2.643100
18.455600 2.670700
18.472800 2.697100
18.490100 2.722400
18.507300 2.745800
18.524600 2.767300
18.541800 2.788200
18.559100 2.808100
18.576300 2.827200
18.593600 2.842600
18.610900 2.856700
18.628100 2.861900
18.645400 2.870500
18.662600 2.877300
18.679900 2.876700
18.697100 2.871800
18.714400 2.866700
18.731600 2.861700
18.748900 2.856900
18.766100 2.851300
18.783400 2.845400
18.800700 2.839800
18.817900 2.833500
18.835200 2.828000
18.852400 2.823800
18.869700 2.819300
18.886900 2.814100
18.904200 2.809300
18.921400 2.775500
18.938700 2.760700
18.956000 2.760200
18.973200 2.767300
18.990500 2.781200
19.007700 2.802100
19.025000 2.827700
19.042200 2.853700
19.059500 2.877800
19.076700 2.900200
19.094000 2.921900
19.111300 2.943500
19.128500 2.964400
19.145800 2.984200
19.163000 3.002800
19.180300 3.020000
19.197500 3.036000
19.214800 3.053500
19.232000 3.064700
19.249300 3.074700
19.266600 3.084400
19.283800 3.101800
19.301100 3.292600
19.318300 3.060500
19.335600 3.057300
19.352800 3.051400
19.370100 3.046500
19.387300 3.052700
19.404600 3.067800
19.421900 3.072100
19.439100 3.088200
19.456400 3.112000
19.473600 3.137600
19.490900 3.183100
19.508100 3.208100
19.525400 3.183200
19.542600 3.135200
19.559900 3.138100
19.577200 3.139600
19.594400 3.142800
19.611700 3.149900
19.628900 3.165100
19.646200 3.191000
19.663400 3.233300
19.680700 3.252900
19.697900 3.244200
19.715200 3.234300
19.732400 3.227000
19.749700 3.229500
19.767000 3.241400
19.784200 3.312200
19.801500 3.409100
19.818700 3.394200
19.836000 3.326300
19.853200 3.314700
19.870500 3.325300
19.887700 3.334100
19.905000 3.340600
19.922300 3.343400
19.939500 3.347200
19.956800 3.346900
19.974000 3.356900
19.991300 3.361500
20.008500 3.366200
20.025800 3.372700
20.043000 3.383300
20.060300 3.383600
20.077600 3.372800
20.094800 3.353400
20.112100 3.315800
20.129300 3.306000
20.146600 3.291800
20.163800 3.282000
20.181100 3.272400
20.198300 3.262800
20.215600 3.258000
20.232900 3.258600
20.250100 3.291000
20.267400 3.360800
20.284600 3.373500
20.301900 3.314700
20.319100 3.330900
20.336400 3.373500
20.353600 3.413700
20.370900 3.449900
20.388200 3.485500
20.405400 3.511200
20.422700 3.519800
20.439900 3.524100
20.457200 3.520300
20.474400 3.507600
20.491700 3.475700
20.508900 3.459300
20.526200 3.454700
20.543400 3.443700
20.560700 3.422200
20.578000 3.392600
20.595200 3.363600
20.612500 3.341300
20.629700 3.321800
20.647000 3.297900
20.664200 3.243500
20.681500 3.196900
20.698700 3.160700
20.716000 3.129900
20.733300 3.114700
20.750500 3.102500
20.767800 3.088700
20.785000 3.075300
20.802300 3.064100
20.819500 3.046700
20.836800 3.029600
20.854000 3.027100
20.871300 3.033800
20.888600 3.087700
20.905800 3.222400
20.923100 3.103900
20.940300 2.882400
20.957600 2.883600
20.974800 2.887200
20.992100 2.891100
21.009300 2.895100
21.026600 2.900500
21.043900 2.907100
21.061100 2.917700
21.078400 2.934000
21.095600 2.951400
21.112900 2.965900
21.130100 2.979900
21.147400 2.998100
21.164600 3.022800
21.181900 3.054600
21.199200 3.086800
21.216400 3.118400
21.233700 3.152800
21.250900 3.189800
21.268200 3.226900
21.285400 3.238100
21.302700 3.343400
21.319900 3.170900
21.337200 3.123900
21.354500 3.063000
21.371700 3.038600
21.389000 3.052600
21.406200 3.041000
21.423500 3.053100
21.440700 3.080300
21.458000 3.116600
21.475200 3.141000
21.492500 3.148100
21.509700 3.143900
21.527000 3.149600
21.544300 3.154500
21.561500 3.191300
21.578800 3.208000
21.596000 3.207100
21.613300 3.152300
21.630500 3.019600
21.647800 2.937500
21.665000 2.910100
21.682300 2.935800
21.699600 2.926500
21.716800 2.905600
21.734100 2.877600
21.751300 2.921900
21.768600 2.941900
21.785800 2.908100
21.803100 2.826100
21.820300 2.810200
21.837600 2.802300
21.854900 2.807100
21.872100 2.813300
21.889400 2.820100
21.906600 2.833700
21.923900 2.848400
21.941100 2.874700
21.958400 2.892500
21.975600 2.933800
21.992900 2.989700
22.010200 3.039100
22.027400 3.068000
22.044700 3.064800
22.061900 3.050300
22.079200 3.028900
22.096400 3.007700
22.113700 2.983700
22.130900 2.956500
22.148200 2.929100
22.165500 2.892300
22.182700 2.887500
22.200000 2.895200
22.217200 2.935300
22.234500 2.985900
22.251700 3.090600
22.269000 3.192100
22.286200 3.289000
22.303500 3.345900
22.320700 3.412200
22.338000 3.486100
22.355300 3.564900
22.372500 3.635800
22.389800 3.637800
22.407000 3.554100
22.424300 3.452400
22.441500 3.354900
22.458800 3.270900
22.476000 3.231200
22.493300 3.210100
22.510600 3.202500
22.527800 3.216000
22.545100 3.253000
22.562300 3.387200
22.579600 3.435600
22.596800 3.475800
22.614100 3.348100
22.631300 3.337800
22.648600 3.377900
22.665900 3.423700
22.683100 3.504600
22.700400 3.482900
22.717600 3.426400
22.734900 3.380600
22.752100 3.352800
22.769400 3.337800
22.786600 3.369600
22.803900 3.406300
22.821200 3.428800
22.838400 3.449900
22.855700 3.463200
22.872900 3.473000
22.890200 3.495200
22.907400 3.408300
22.924700 3.177900
22.941900 2.891300
22.959200 2.749400
22.976500 2.661600
22.993700 2.599800
23.011000 2.558100
23.028200 2.542700
23.045500 2.552100
23.062700 2.569200
23.080000 2.608700
23.097200 2.649700
23.114500 2.681400
23.131800 2.705900
23.149000 2.727700
23.166300 2.760800
23.183500 2.812200
23.200800 2.918800
23.218000 2.897200
23.235300 2.901400
23.252500 2.959400
23.269800 3.014800
23.287000 3.069100
23.304300 3.121100
23.321600 3.174900
23.338800 3.257900
23.356100 3.342900
23.373300 3.416100
23.390600 3.491600
23.407800 3.606200
23.425100 3.731500
23.442300 3.516100
23.459600 3.461700
23.476900 3.393000
23.494100 3.321100
23.511400 3.330000
23.528600 3.338900
23.545900 3.329800
23.563100 3.322000
23.580400 3.316900
23.597600 3.313200
23.614900 3.311700
23.632200 3.304300
23.649400 3.285300
23.666700 3.270400
23.683900 3.255300
23.701200 3.235000
23.718400 3.176800
23.735700 3.081100
23.752900 3.028900
23.770200 3.001400
23.787500 2.967000
23.804700 2.931700
23.822000 2.912400
23.839200 2.894900
23.856500 2.895900
23.873700 2.919200
23.891000 2.946800
23.908200 2.965000
23.925500 2.991300
23.942800 2.992800
23.960000 2.948300
23.977300 2.918200
23.994500 2.929500
24.011800 2.960000
24.029000 3.000500
24.046300 3.036700
24.063500 3.059700
24.080800 3.094300
24.098000 3.105500
24.115300 3.100000
24.132600 3.114200
24.149800 3.136200
24.167100 3.191400
24.184300 3.429000
24.201600 3.350300
24.218800 3.232400
24.236100 3.229600
24.253300 3.252500
24.270600 3.302100
24.287900 3.363600
24.305100 3.396200
24.322400 3.381200
24.339600 3.290800
24.356900 3.219300
24.374100 3.149400
24.391400 3.097800
24.408600 3.032000
24.425900 2.987800
24.443200 2.971800
24.460400 2.978700
24.477700 2.991000
24.494900 3.055500
24.512200 3.115900
24.529400 3.173300
24.546700 3.220900
24.563900 3.246100
24.581200 3.252900
24.598500 3.254200
24.615700 3.253700
24.633000 3.260400
24.650200 3.274800
24.667500 3.294900
24.684700 3.309700
24.702000 3.359400
24.719200 3.475600
24.736500 3.549200
24.753800 3.587500
24.771000 3.556500
24.788300 3.515000
24.805500 3.471000
24.822800 3.438000
24.840000 3.388200
24.857300 3.318100
24.874500 3.243900
24.891800 3.268400
24.909100 3.393200
24.926300 3.237700
24.943600 3.184500
24.960800 3.123500
24.978100 3.050800
24.995300 2.971400
25.012600 2.886300
25.029800 2.792100
25.047100 2.695500
25.064300 2.613000
25.081600 2.598500
25.098900 2.607700
25.116100 2.622200
25.133400 2.634000
25.150600 2.589100
25.167900 2.545200
25.185100 2.476200
25.202400 2.367400
25.219600 2.251100
25.236900 2.173600
25.254200 2.120000
25.271400 2.082400
25.288700 2.049700
25.305900 2.022300
25.323200 1.998300
25.340400 1.979300
25.357700 1.966200
25.374900 1.961300
25.392200 1.967200
25.409500 1.978300
25.426700 1.990900
25.444000 1.995100
25.461200 1.986200
25.478500 1.980600
25.495700 1.976200
25.513000 1.966800
25.530200 1.951100
25.547500 1.913600
25.564800 1.872200
25.582000 1.837000
25.599300 1.808900
25.616500 1.781400
25.633800 1.754300
25.651000 1.728100
25.668300 1.702600
25.685500 1.679300
25.702800 1.654700
25.720100 1.635900
25.737300 1.616300
25.754600 1.597000
25.771800 1.576100
25.789100 1.554300
25.806300 1.532100
25.823600 1.509100
25.840800 1.485400
25.858100 1.460900
25.875300 1.436300
25.892600 1.416800
25.909900 1.404500
25.927100 1.412600
25.944400 1.408500
25.961600 1.404200
25.978900 1.397600
25.996100 1.387400
26.013400 1.373500
26.030600 1.356400
26.047900 1.336400
26.065200 1.314700
26.082400 1.293800
26.099700 1.275400
26.116900 1.261700
26.134200 1.251600
26.151400 1.249400
26.168700 1.249000
26.185900 1.250200
26.203200 1.252800
26.220500 1.254600
26.237700 1.250700
26.255000 1.240800
26.272200 1.224900
26.289500 1.205800
26.306700 1.188600
26.324000 1.203900
26.341200 1.196800
26.358500 1.186700
26.375800 1.174400
26.393000 1.159700
26.410300 1.142500
26.427500 1.122100
26.444800 1.101000
26.462000 1.084400
26.479300 1.064100
26.496500 1.038900
26.513800 0.997000
26.531100 0.942100
26.548300 0.891800
26.565600 0.846100
26.582800 0.805000
26.600100 0.769100
26.617300 0.739000
26.634600 0.703400
26.651800 0.668300
26.669100 0.634000
26.686400 0.600600
26.703600 0.592900
26.720900 0.590700
26.738100 0.606400
26.755400 0.551100
26.772600 0.472000
26.789900 0.442800
26.807100 0.409100
26.824400 0.371100
26.841600 0.334900
26.858900 0.305000
26.876200 0.281300
26.893400 0.262600
26.910700 0.246100
26.927900 0.227100
26.945200 0.199000
26.962400 0.161700
26.979700 0.124500
26.996900 0.108800
27.014200 0.094800
27.031500 0.082500
27.048700 0.071300
27.066000 0.061400
27.083200 0.052500
27.100500 0.044900
27.117700 0.038200
27.135000 0.032200
27.152200 0.026600
27.169500 0.021600
27.186800 0.017100
27.204000 0.013100
27.221300 0.009700
27.238500 0.006800
27.255800 0.004400
27.273000 0.002500
27.290300 0.001100
27.307500 0.000300
27.324800 0.000000
27.342100 0.000000
27.359300 0.000000
27.376600 0.000000
27.393800 0.000000
27.411100 0.000000
27.428300 0.000000
27.445600 0.000000
27.462800 0.000000
27.480100 0.000000
27.497400 0.000000
27.514600 0.000000
27.531900 0.000000
27.549100 0.000000
27.566400 0.000000
27.583600 0.000000
27.600900 0.000000
27.618100 0.000000
27.635400 0.000000
27.652700 0.000000
27.669900 0.000000
27.687200 0.000000
27.704400 0.000000
27.721700 0.000000
27.738900 0.000000
27.756200 0.000000
27.773400 0.000000
27.790700 0.000000
27.807900 0.000000
27.825200 0.000000
27.842500 0.000000
27.859700 0.000000
27.877000 0.000000
27.894200 0.000000
27.911500 0.000000
27.928700 0.000000
27.946000 0.000000
27.963200 0.000000
27.980500 0.000000
27.997800 0.000000
28.015000 0.000000
28.032300 0.000000
28.049500 0.000000
28.066800 0.000000
28.084000 0.000000
28.101300 0.000000
28.118500 0.000000
28.135800 0.000000
28.153100 0.000000
28.170300 0.000000
28.187600 0.000000
28.204800 0.000000
28.222100 0.000000
28.239300 0.000000
28.256600 0.000000
28.273800 0.000000
28.291100 0.000000
28.308400 0.000000
28.325600 0.000000
28.342900 0.000000
28.360100 0.000000
28.377400 0.000000
28.394600 0.000000
28.411900 0.000000
28.429100 0.000000
28.446400 0.000000
28.463700 0.000000
28.480900 0.000000
28.498200 0.000000
28.515400 0.000000
28.532700 0.000000
28.549900 0.000000
28.567200 0.000000
28.584400 0.000000
28.601700 0.000000
28.618900 0.000000
28.636200 0.000000
28.653500 0.000000
28.670700 0.000000
28.688000 0.000000
28.705200 0.000000
28.722500 0.000000
28.739700 0.000000
28.757000 0.000000
28.774200 0.000000
28.791500 0.000000
28.808800 0.000000
28.826000 0.000000
28.843300 0.000000
28.860500 0.000000
28.877800 0.000000
28.895000 0.000000
e
