set title 'mp-1184502 - Density of States'
set xlabel 'Energy (eV)'
set ylabel 'DOS (states/eV)'
set grid
set xrange [-10:10]
set yrange [0:134.641]
set xzeroaxis lt -1
set terminal png size 800,600
set output 'mp-1184502_dos_gnuplot.png'
plot '-' using 1:2 with lines title 'DOS'
-9.700900 0.000000
-9.679000 0.000000
-9.657000 0.000000
-9.635100 0.000000
-9.613100 0.000000
-9.591200 0.000000
-9.569200 0.000000
-9.547200 0.000000
-9.525300 0.000000
-9.503300 0.000000
-9.481400 0.000000
-9.459400 0.000000
-9.437500 0.000000
-9.415500 0.000000
-9.393600 0.000000
-9.371600 0.000000
-9.349600 0.000000
-9.327700 0.000000
-9.305700 0.000000
-9.283800 0.000000
-9.261800 0.000000
-9.239900 0.000000
-9.217900 0.000000
-9.196000 0.000000
-9.174000 0.000000
-9.152000 0.000000
-9.130100 0.000000
-9.108100 0.000000
-9.086200 0.000000
-9.064200 0.000000
-9.042300 0.000000
-9.020300 0.000000
-8.998400 0.000000
-8.976400 0.000000
-8.954400 0.000000
-8.932500 0.000000
-8.910500 0.000000
-8.888600 0.000000
-8.866600 0.000000
-8.844700 0.000000
-8.822700 0.000000
-8.800800 0.000000
-8.778800 0.000000
-8.756800 0.000000
-8.734900 0.000000
-8.712900 0.000000
-8.691000 0.000000
-8.669000 0.000000
-8.647100 0.000000
-8.625100 0.000000
-8.603100 0.000000
-8.581200 0.000000
-8.559200 0.000000
-8.537300 0.000000
-8.515300 0.000000
-8.493400 0.000000
-8.471400 0.000000
-8.449500 0.000000
-8.427500 0.000000
-8.405500 0.000000
-8.383600 0.000000
-8.361600 0.000000
-8.339700 0.000000
-8.317700 0.000000
-8.295800 0.000000
-8.273800 0.000000
-8.251900 0.000000
-8.229900 0.000000
-8.207900 0.000000
-8.186000 0.000000
-8.164000 0.000000
-8.142100 0.000000
-8.120100 0.000000
-8.098200 0.000000
-8.076200 0.000000
-8.054300 0.000000
-8.032300 0.000000
-8.010300 0.000000
-7.988400 0.000000
-7.966400 0.000000
-7.944500 0.000000
-7.922500 0.000000
-7.900600 0.000000
-7.878600 0.000000
-7.856700 0.000000
-7.834700 0.000000
-7.812700 0.000000
-7.790800 0.000000
-7.768800 0.000000
-7.746900 0.000000
-7.724900 0.000000
-7.703000 1.081700
-7.681000 7.874800
-7.659000 11.621000
-7.637100 17.344000
-7.615100 29.343000
-7.593200 64.433200
-7.571200 78.511000
-7.549300 86.070100
-7.527300 72.446000
-7.505400 61.378600
-7.483400 98.116700
-7.461400 61.983100
-7.439500 72.774300
-7.417500 24.117300
-7.395600 63.954900
-7.373600 58.125200
-7.351700 62.970800
-7.329700 89.434200
-7.307800 62.532500
-7.285800 72.980400
-7.263800 94.220500
-7.241900 122.401300
-7.219900 68.899900
-7.198000 16.168300
-7.176000 0.000000
-7.154100 0.000000
-7.132100 0.000000
-7.110200 0.000000
-7.088200 0.000000
-7.066200 0.000000
-7.044300 0.000000
-7.022300 0.000000
-7.000400 0.000000
-6.978400 0.000000
-6.956500 0.000000
-6.934500 0.000000
-6.912600 0.000000
-6.890600 0.000000
-6.868600 0.000000
-6.846700 0.000000
-6.824700 0.000000
-6.802800 0.000000
-6.780800 0.000000
-6.758900 0.000000
-6.736900 0.000000
-6.714900 0.000000
-6.693000 0.000000
-6.671000 0.000000
-6.649100 0.000000
-6.627100 0.000000
-6.605200 0.000000
-6.583200 0.000000
-6.561300 0.000000
-6.539300 0.000000
-6.517300 0.000000
-6.495400 0.000000
-6.473400 0.000000
-6.451500 0.000000
-6.429500 0.000000
-6.407600 0.000000
-6.385600 0.000000
-6.363700 0.000000
-6.341700 0.000000
-6.319700 0.000000
-6.297800 0.000000
-6.275800 0.000000
-6.253900 0.000000
-6.231900 0.000000
-6.210000 0.000000
-6.188000 0.000000
-6.166100 0.000000
-6.144100 0.000000
-6.122100 0.000000
-6.100200 0.000000
-6.078200 0.000000
-6.056300 0.000000
-6.034300 0.000000
-6.012400 0.000000
-5.990400 0.000000
-5.968500 0.000000
-5.946500 0.000000
-5.924500 0.000000
-5.902600 0.000000
-5.880600 0.000000
-5.858700 0.000000
-5.836700 0.000000
-5.814800 0.000000
-5.792800 0.000000
-5.770800 0.000000
-5.748900 0.000000
-5.726900 0.000000
-5.705000 0.000000
-5.683000 0.000000
-5.661100 0.000000
-5.639100 0.000000
-5.617200 0.000000
-5.595200 0.000000
-5.573200 0.000000
-5.551300 0.000000
-5.529300 0.000000
-5.507400 0.000000
-5.485400 0.000000
-5.463500 0.000000
-5.441500 0.000000
-5.419600 0.000000
-5.397600 0.000000
-5.375600 0.000000
-5.353700 0.000000
-5.331700 0.000000
-5.309800 0.000000
-5.287800 0.000000
-5.265900 0.000000
-5.243900 0.000000
-5.222000 0.000000
-5.200000 0.000000
-5.178000 0.000000
-5.156100 0.000000
-5.134100 0.000000
-5.112200 0.000000
-5.090200 0.000000
-5.068300 0.000000
-5.046300 0.000000
-5.024400 0.000000
-5.002400 0.000000
-4.980400 0.000000
-4.958500 0.000000
-4.936500 0.000000
-4.914600 0.000000
-4.892600 0.000000
-4.870700 0.000000
-4.848700 0.000000
-4.826700 0.000000
-4.804800 0.000000
-4.782800 0.000000
-4.760900 0.000000
-4.738900 0.000000
-4.717000 0.000000
-4.695000 0.000000
-4.673100 0.000000
-4.651100 0.000000
-4.629100 0.000000
-4.607200 0.000000
-4.585200 0.000000
-4.563300 0.000000
-4.541300 0.000000
-4.519400 0.000000
-4.497400 0.000000
-4.475500 0.000000
-4.453500 0.000000
-4.431500 0.000000
-4.409600 0.000000
-4.387600 0.000000
-4.365700 0.000000
-4.343700 0.000000
-4.321800 0.000000
-4.299800 0.000000
-4.277900 0.000000
-4.255900 0.000000
-4.233900 0.000000
-4.212000 0.000000
-4.190000 0.000000
-4.168100 0.000000
-4.146100 0.000000
-4.124200 0.000000
-4.102200 0.000000
-4.080300 0.000000
-4.058300 0.000000
-4.036300 0.000000
-4.014400 0.000000
-3.992400 0.000000
-3.970500 0.000000
-3.948500 0.000000
-3.926600 0.000000
-3.904600 0.000000
-3.882600 0.000000
-3.860700 0.000000
-3.838700 0.000000
-3.816800 0.000000
-3.794800 0.000000
-3.772900 0.000000
-3.750900 0.000000
-3.729000 0.000000
-3.707000 0.000000
-3.685000 0.000000
-3.663100 0.000000
-3.641100 0.000000
-3.619200 0.000000
-3.597200 0.000000
-3.575300 0.000000
-3.553300 0.000000
-3.531400 0.000000
-3.509400 0.000000
-3.487400 0.000000
-3.465500 0.000000
-3.443500 0.000000
-3.421600 0.000000
-3.399600 0.000000
-3.377700 0.000000
-3.355700 0.000000
-3.333800 0.000000
-3.311800 0.000000
-3.289800 0.000000
-3.267900 0.000000
-3.245900 0.000000
-3.224000 0.000000
-3.202000 0.000000
-3.180100 0.000000
-3.158100 0.000000
-3.136200 0.000000
-3.114200 0.000000
-3.092200 0.000000
-3.070300 0.000000
-3.048300 0.000000
-3.026400 0.000000
-3.004400 0.000000
-2.982500 0.000000
-2.960500 0.000000
-2.938500 0.000000
-2.916600 0.000000
-2.894600 0.000000
-2.872700 0.000000
-2.850700 0.000000
-2.828800 0.000000
-2.806800 0.000000
-2.784900 0.000000
-2.762900 0.000000
-2.740900 0.000000
-2.719000 0.000000
-2.697000 0.000000
-2.675100 0.000000
-2.653100 0.000000
-2.631200 0.000000
-2.609200 0.000000
-2.587300 0.000000
-2.565300 0.000000
-2.543300 0.000000
-2.521400 0.000000
-2.499400 0.000000
-2.477500 0.000000
-2.455500 0.000000
-2.433600 0.000000
-2.411600 0.000000
-2.389700 0.000000
-2.367700 0.000000
-2.345700 0.000000
-2.323800 0.000000
-2.301800 0.000000
-2.279900 0.000000
-2.257900 0.000000
-2.236000 0.000000
-2.214000 0.000000
-2.192100 0.000000
-2.170100 0.000000
-2.148100 0.002300
-2.126200 0.018600
-2.104200 0.041700
-2.082300 0.070800
-2.060300 0.104100
-2.038400 0.140700
-2.016400 0.180300
-1.994400 0.204700
-1.972500 0.196600
-1.950500 0.201000
-1.928600 0.211000
-1.906600 0.220500
-1.884700 0.229900
-1.862700 0.241300
-1.840800 0.253200
-1.818800 0.264400
-1.796800 0.274900
-1.774900 0.285300
-1.752900 0.296400
-1.731000 0.308200
-1.709000 0.320200
-1.687100 0.334000
-1.665100 0.348600
-1.643200 0.359100
-1.621200 0.367300
-1.599200 0.373500
-1.577300 0.377400
-1.555300 0.378200
-1.533400 0.375800
-1.511400 0.370200
-1.489500 0.362900
-1.467500 0.370100
-1.445600 0.388200
-1.423600 0.402200
-1.401600 0.412000
-1.379700 0.417800
-1.357700 0.423100
-1.335800 0.428700
-1.313800 0.434700
-1.291900 0.441000
-1.269900 0.447500
-1.248000 0.454400
-1.226000 0.460600
-1.204000 0.466200
-1.182100 0.471300
-1.160100 0.476800
-1.138200 0.482600
-1.116200 0.488600
-1.094300 0.494800
-1.072300 0.501500
-1.050300 0.508700
-1.028400 0.516400
-1.006400 0.519200
-0.984500 0.523600
-0.962500 0.527700
-0.940600 0.531500
-0.918600 0.535400
-0.896700 0.539500
-0.874700 0.543700
-0.852700 0.547800
-0.830800 0.551900
-0.808800 0.555900
-0.786900 0.559800
-0.764900 0.563800
-0.743000 0.567800
-0.721000 0.571800
-0.699100 0.575800
-0.677100 0.579900
-0.655100 0.584100
-0.633200 0.588100
-0.611200 0.592100
-0.589300 0.596200
-0.567300 0.600300
-0.545400 0.604300
-0.523400 0.608200
-0.501500 0.612100
-0.479500 0.617000
-0.457500 0.622000
-0.435600 0.627100
-0.413600 0.632300
-0.391700 0.637100
-0.369700 0.641700
-0.347800 0.646300
-0.325800 0.650900
-0.303800 0.655400
-0.281900 0.659800
-0.259900 0.664200
-0.238000 0.668700
-0.216000 0.673500
-0.194100 0.678300
-0.172100 0.682400
-0.150200 0.686300
-0.128200 0.689800
-0.106200 0.693100
-0.084300 0.696300
-0.062300 0.699300
-0.040400 0.702200
-0.018400 0.705200
0.003500 0.708500
0.025500 0.712400
0.047400 0.720200
0.069400 0.732800
0.091400 0.750300
0.113300 0.763600
0.135300 0.745800
0.157200 0.721500
0.179200 0.722900
0.201100 0.724700
0.223100 0.726800
0.245000 0.729400
0.267000 0.732400
0.289000 0.735500
0.310900 0.739000
0.332900 0.743100
0.354800 0.747600
0.376800 0.752600
0.398700 0.758100
0.420700 0.764200
0.442600 0.772500
0.464600 0.781100
0.486600 0.788500
0.508500 0.794400
0.530500 0.798400
0.552400 0.800600
0.574400 0.801000
0.596300 0.801300
0.618300 0.803400
0.640300 0.807100
0.662200 0.811300
0.684200 0.815400
0.706100 0.819500
0.728100 0.823600
0.750000 0.827600
0.772000 0.831600
0.793900 0.835500
0.815900 0.839500
0.837900 0.843400
0.859800 0.847200
0.881800 0.851000
0.903700 0.854800
0.925700 0.858500
0.947600 0.861500
0.969600 0.864000
0.991500 0.866800
1.013500 0.869600
1.035500 0.872100
1.057400 0.874300
1.079400 0.876200
1.101300 0.877800
1.123300 0.879700
1.145200 0.883200
1.167200 0.886700
1.189100 0.890200
1.211100 0.893800
1.233100 0.897300
1.255000 0.900800
1.277000 0.904300
1.298900 0.908100
1.320900 0.911900
1.342800 0.915900
1.364800 0.919900
1.386700 0.924000
1.408700 0.928300
1.430700 0.932600
1.452600 0.936800
1.474600 0.941000
1.496500 0.945300
1.518500 0.949500
1.540400 0.953600
1.562400 0.957700
1.584400 0.961800
1.606300 0.966100
1.628300 0.970500
1.650200 0.975000
1.672200 0.979500
1.694100 0.984100
1.716100 0.988800
1.738000 0.993700
1.760000 0.998900
1.782000 1.004100
1.803900 1.009300
1.825900 1.014500
1.847800 1.019700
1.869800 1.024900
1.891700 1.030300
1.913700 1.035800
1.935600 1.044400
1.957600 1.056100
1.979600 1.075000
2.001500 1.090900
2.023500 1.103600
2.045400 1.113500
2.067400 1.122800
2.089300 1.132000
2.111300 1.141000
2.133200 1.152100
2.155200 1.161900
2.177200 1.170300
2.199100 1.177300
2.221100 1.182900
2.243000 1.187200
2.265000 1.190400
2.286900 1.192900
2.308900 1.194700
2.330800 1.196500
2.352800 1.198500
2.374800 1.200600
2.396700 1.209500
2.418700 1.232900
2.440600 1.278900
2.462600 1.318800
2.484500 1.343000
2.506500 1.351900
2.528500 1.352200
2.550400 1.347000
2.572400 1.336500
2.594300 1.327500
2.616300 1.325200
2.638200 1.315800
2.660200 1.299400
2.682100 1.276200
2.704100 1.258600
2.726100 1.244800
2.748000 1.231800
2.770000 1.207700
2.791900 1.185500
2.813900 1.165000
2.835800 1.139000
2.857800 1.108200
2.879700 1.083300
2.901700 1.081200
2.923700 1.085300
2.945600 1.091500
2.967600 1.093100
2.989500 1.093700
3.011500 1.094600
3.033400 1.095600
3.055400 1.096700
3.077300 1.098200
3.099300 1.099600
3.121300 1.101100
3.143200 1.103400
3.165200 1.107200
3.187100 1.120200
3.209100 1.143700
3.231000 1.163400
3.253000 1.177900
3.274900 1.187600
3.296900 1.193100
3.318900 1.191000
3.340800 1.185200
3.362800 1.180100
3.384700 1.173400
3.406700 1.155000
3.428600 1.122800
3.450600 1.084000
3.472600 1.050400
3.494500 1.024900
3.516500 1.002800
3.538400 0.982500
3.560400 0.964000
3.582300 0.967300
3.604300 1.018500
3.626200 1.032000
3.648200 1.021500
3.670200 0.998400
3.692100 0.952500
3.714100 0.908400
3.736000 0.891600
3.758000 0.900900
3.779900 0.927800
3.801900 0.970400
3.823800 1.024000
3.845800 1.090000
3.867800 1.159000
3.889700 1.243800
3.911700 1.300800
3.933600 1.339500
3.955600 1.361800
3.977500 1.357600
3.999500 1.335900
4.021400 1.320200
4.043400 1.312000
4.065400 1.314400
4.087300 1.332500
4.109300 1.363100
4.131200 1.442500
4.153200 1.458600
4.175100 1.401000
4.197100 1.336200
4.219000 1.329700
4.241000 1.268200
4.263000 1.230600
4.284900 1.153800
4.306900 1.038200
4.328800 1.019200
4.350800 1.022300
4.372700 1.048000
4.394700 1.087200
4.416700 1.149100
4.438600 1.213900
4.460600 1.311300
4.482500 1.412600
4.504500 1.462900
4.526400 1.417200
4.548400 1.349200
4.570300 1.318200
4.592300 1.279600
4.614300 1.232400
4.636200 1.182700
4.658200 1.141400
4.680100 1.104400
4.702100 1.066700
4.724000 1.033300
4.746000 1.013900
4.767900 0.989500
4.789900 0.962200
4.811900 0.931400
4.833800 0.892600
4.855800 0.853500
4.877700 0.819100
4.899700 0.790300
4.921600 0.768900
4.943600 0.754000
4.965500 0.743800
4.987500 0.737900
5.009500 0.736300
5.031400 0.739600
5.053400 0.751000
5.075300 0.783600
5.097300 0.820300
5.119200 0.832700
5.141200 0.813600
5.163100 0.787900
5.185100 0.763000
5.207100 0.751700
5.229000 0.752200
5.251000 0.749400
5.272900 0.749700
5.294900 0.757500
5.316800 0.771800
5.338800 0.788400
5.360800 0.807000
5.382700 0.827000
5.404700 0.846700
5.426600 0.884700
5.448600 0.943300
5.470500 0.975100
5.492500 0.996500
5.514400 1.011600
5.536400 1.031600
5.558400 1.069300
5.580300 1.109300
5.602300 1.151400
5.624200 1.196400
5.646200 1.244800
5.668100 1.294900
5.690100 1.338400
5.712000 1.367900
5.734000 1.387800
5.756000 1.401900
5.777900 1.413900
5.799900 1.429800
5.821800 1.445800
5.843800 1.462900
5.865700 1.483900
5.887700 1.520600
5.909600 1.536200
5.931600 1.548200
5.953600 1.554800
5.975500 1.555800
5.997500 1.550400
6.019400 1.554100
6.041400 1.569200
6.063300 1.592300
6.085300 1.636800
6.107200 1.686600
6.129200 1.742900
6.151200 1.805600
6.173100 1.826900
6.195100 1.845000
6.217000 1.899200
6.239000 1.934800
6.260900 1.868500
6.282900 1.812700
6.304900 1.757400
6.326800 1.710400
6.348800 1.657000
6.370700 1.620900
6.392700 1.594600
6.414600 1.575300
6.436600 1.557400
6.458500 1.555400
6.480500 1.570300
6.502500 1.586900
6.524400 1.570600
6.546400 1.520500
6.568300 1.347000
6.590300 1.235600
6.612200 1.177300
6.634200 1.128500
6.656100 1.102200
6.678100 1.095700
6.700100 1.092200
6.722000 1.102100
6.744000 1.138400
6.765900 1.199500
6.787900 1.273600
6.809800 1.338800
6.831800 1.576800
6.853700 1.611700
6.875700 1.551300
6.897700 1.481400
6.919600 1.423200
6.941600 1.427600
6.963500 1.480300
6.985500 1.458000
7.007400 1.457900
7.029400 1.468200
7.051300 1.484400
7.073300 1.505900
7.095300 1.530900
7.117200 1.558800
7.139200 1.570500
7.161100 1.577300
7.183100 1.584600
7.205000 1.592900
7.227000 1.603500
7.249000 1.608600
7.270900 1.625000
7.292900 1.610000
7.314800 1.529100
7.336800 1.496800
7.358700 1.478700
7.380700 1.464500
7.402600 1.449300
7.424600 1.434200
7.446600 1.419400
7.468500 1.404600
7.490500 1.389700
7.512400 1.375200
7.534400 1.361400
7.556300 1.351600
7.578300 1.347700
7.600200 1.347200
7.622200 1.344200
7.644200 1.338900
7.666100 1.306200
7.688100 1.311000
7.710000 1.304600
7.732000 1.276600
7.753900 1.262300
7.775900 1.257600
7.797800 1.252600
7.819800 1.246700
7.841800 1.239600
7.863700 1.235200
7.885700 1.232000
7.907600 1.232800
7.929600 1.235600
7.951500 1.243200
7.973500 1.257800
7.995400 1.278700
8.017400 1.302300
8.039400 1.329700
8.061300 1.359500
8.083300 1.391600
8.105200 1.426400
8.127200 1.465900
8.149100 1.515400
8.171100 1.601400
8.193100 1.705000
8.215000 1.769300
8.237000 1.794100
8.258900 1.836300
8.280900 1.876100
8.302800 1.890200
8.324800 1.877400
8.346700 1.838700
8.368700 1.796100
8.390700 1.783900
8.412600 1.781800
8.434600 1.784200
8.456500 1.784400
8.478500 1.779100
8.500400 1.773400
8.522400 1.770300
8.544300 1.772900
8.566300 1.774300
8.588300 1.776400
8.610200 1.779800
8.632200 1.779800
8.654100 1.776300
8.676100 1.772800
8.698000 1.765300
8.720000 1.756800
8.741900 1.749300
8.763900 1.742800
8.785900 1.736300
8.807800 1.730300
8.829800 1.727600
8.851700 1.734700
8.873700 1.751400
8.895600 1.779800
8.917600 1.789900
8.939500 1.770600
8.961500 1.725600
8.983500 1.679700
9.005400 1.638900
9.027400 1.608300
9.049300 1.583100
9.071300 1.563000
9.093200 1.549200
9.115200 1.543000
9.137200 1.543100
9.159100 1.537500
9.181100 1.503000
9.203000 1.476300
9.225000 1.457800
9.246900 1.447900
9.268900 1.446700
9.290800 1.451600
9.312800 1.457200
9.334800 1.464900
9.356700 1.472100
9.378700 1.478400
9.400600 1.484100
9.422600 1.490600
9.444500 1.501900
9.466500 1.515500
9.488400 1.531000
9.510400 1.547300
9.532400 1.560400
9.554300 1.569300
9.576300 1.585300
9.598200 1.616300
9.620200 1.659900
9.642100 1.689800
9.664100 1.699900
9.686000 1.709200
9.708000 1.719100
9.730000 1.733400
9.751900 1.754100
9.773900 1.773400
9.795800 1.782100
9.817800 1.783100
9.839700 1.779200
9.861700 1.766200
9.883600 1.744500
9.905600 1.714200
9.927600 1.682000
9.949500 1.674800
9.971500 1.658700
9.993400 1.662300
10.015400 1.671400
10.037300 1.685300
10.059300 1.699800
10.081300 1.711100
10.103200 1.721600
10.125200 1.731800
10.147100 1.740600
10.169100 1.750900
10.191000 1.762700
10.213000 1.776300
10.234900 1.790900
10.256900 1.807800
10.278900 1.826700
10.300800 1.844100
10.322800 1.856300
10.344700 1.870200
10.366700 1.886100
10.388600 1.899900
10.410600 1.907700
10.432500 1.907700
10.454500 1.898700
10.476500 1.884100
10.498400 1.869800
10.520400 1.879100
10.542300 1.877400
10.564300 1.880200
10.586200 1.881500
10.608200 1.877100
10.630100 1.864700
10.652100 1.845900
10.674100 1.829300
10.696000 1.817500
10.718000 1.805200
10.739900 1.794000
10.761900 1.785700
10.783800 1.780500
10.805800 1.777600
10.827700 1.793800
10.849700 1.813100
10.871700 1.812600
10.893600 1.845800
10.915600 1.811400
10.937500 1.786900
10.959500 1.769400
10.981400 1.756600
11.003400 1.747800
11.025400 1.742800
11.047300 1.742100
11.069300 1.744800
11.091200 1.750300
11.113200 1.756800
11.135100 1.759100
11.157100 1.756000
11.179000 1.750200
11.201000 1.749400
11.223000 1.753300
11.244900 1.757900
11.266900 1.760600
11.288800 1.761900
11.310800 1.763300
11.332700 1.812800
11.354700 1.848200
11.376600 1.888800
11.398600 1.922900
11.420600 1.950500
11.442500 1.973600
11.464500 1.980900
11.486400 1.987400
11.508400 2.000000
11.530300 2.018000
11.552300 2.041800
11.574200 2.073600
11.596200 2.111500
11.618200 2.153900
11.640100 2.201400
11.662100 2.254700
11.684000 2.310900
11.706000 2.361600
11.727900 2.392000
11.749900 2.402900
11.771800 2.409000
11.793800 2.407700
11.815800 2.404100
11.837700 2.398800
11.859700 2.391900
11.881600 2.386100
11.903600 2.375800
11.925500 2.349100
11.947500 2.281700
11.969500 2.249400
11.991400 2.208600
12.013400 2.170400
12.035300 2.134900
12.057300 2.104100
12.079200 2.087800
12.101200 2.090600
12.123100 2.084000
12.145100 2.064900
12.167100 2.034300
12.189000 2.033400
12.211000 2.033900
12.232900 2.037200
12.254900 2.039700
12.276800 2.043000
12.298800 2.047800
12.320700 2.055800
12.342700 2.068200
12.364700 2.073000
12.386600 2.095400
12.408600 2.133200
12.430500 2.131300
12.452500 2.131100
12.474400 2.130700
12.496400 2.128300
12.518300 2.134200
12.540300 2.137700
12.562300 2.137000
12.584200 2.131300
12.606200 2.129000
12.628100 2.153100
12.650100 2.160800
12.672000 2.152700
12.694000 2.128300
12.715900 2.105700
12.737900 2.084300
12.759900 2.064900
12.781800 2.048100
12.803800 2.032600
12.825700 2.019100
12.847700 2.007100
12.869600 2.002400
12.891600 1.996800
12.913600 1.987000
12.935500 1.969800
12.957500 1.946900
12.979400 1.932800
13.001400 1.919300
13.023300 1.903400
13.045300 1.892900
13.067200 1.882800
13.089200 1.872200
13.111200 1.862400
13.133100 1.855500
13.155100 1.851700
13.177000 1.850400
13.199000 1.850200
13.220900 1.850500
13.242900 1.852000
13.264800 1.854900
13.286800 1.856200
13.308800 1.856800
13.330700 1.859000
13.352700 1.862700
13.374600 1.867800
13.396600 1.872800
13.418500 1.877500
13.440500 1.881400
13.462400 1.883800
13.484400 1.880500
13.506400 1.940900
13.528300 1.917000
13.550300 1.876000
13.572200 1.872800
13.594200 1.868500
13.616100 1.863600
13.638100 1.858500
13.660000 1.851600
13.682000 1.844700
13.704000 1.829700
13.725900 1.822200
13.747900 1.815800
13.769800 1.808600
13.791800 1.803300
13.813700 1.810100
13.835700 1.825900
13.857700 1.845000
13.879600 1.864400
13.901600 1.883200
13.923500 1.914000
13.945500 1.967100
13.967400 2.014900
13.989400 2.044100
14.011300 2.042200
14.033300 2.008000
14.055300 1.945800
14.077200 1.922800
14.099200 1.917600
14.121100 1.913600
14.143100 1.906300
14.165000 1.872000
14.187000 1.830300
14.208900 1.784600
14.230900 1.748700
14.252900 1.717700
14.274800 1.688200
14.296800 1.658000
14.318700 1.642100
14.340700 1.629300
14.362600 1.616400
14.384600 1.603400
14.406500 1.591100
14.428500 1.579600
14.450500 1.568900
14.472400 1.558800
14.494400 1.549200
14.516300 1.541200
14.538300 1.535400
14.560200 1.530300
14.582200 1.524500
14.604100 1.517500
14.626100 1.510200
14.648100 1.502600
14.670000 1.494600
14.692000 1.487800
14.713900 1.481600
14.735900 1.475000
14.757800 1.467800
14.779800 1.458800
14.801800 1.452700
14.823700 1.458900
14.845700 1.460100
14.867600 1.463300
14.889600 1.471100
14.911500 1.475500
14.933500 1.478400
14.955400 1.480400
14.977400 1.481000
14.999400 1.480400
15.021300 1.478600
15.043300 1.473600
15.065200 1.468700
15.087200 1.463700
15.109100 1.458200
15.131100 1.452200
15.153000 1.448900
15.175000 1.448600
15.197000 1.461800
15.218900 1.477400
15.240900 1.494600
15.262800 1.504400
15.284800 1.504600
15.306700 1.505200
15.328700 1.522200
15.350600 1.533400
15.372600 1.537800
15.394600 1.544000
15.416500 1.551600
15.438500 1.560100
15.460400 1.569200
15.482400 1.579000
15.504300 1.590900
15.526300 1.602300
15.548200 1.613400
15.570200 1.620800
15.592200 1.627500
15.614100 1.634600
15.636100 1.643600
15.658000 1.652100
15.680000 1.658700
15.701900 1.662500
15.723900 1.664500
15.745900 1.666400
15.767800 1.670300
15.789800 1.678000
15.811700 1.688400
15.833700 1.700700
15.855600 1.716500
15.877600 1.735500
15.899500 1.759000
15.921500 1.787700
15.943500 1.823300
15.965400 1.865300
15.987400 1.919700
16.009300 1.978200
16.031300 2.029100
16.053200 2.095900
16.075200 2.150100
16.097100 2.171100
16.119100 2.186100
16.141100 2.208200
16.163000 2.240500
16.185000 2.270600
16.206900 2.298700
16.228900 2.328500
16.250800 2.384900
16.272800 2.423200
16.294700 2.458300
16.316700 2.507100
16.338700 2.574500
16.360600 2.560200
16.382600 2.510200
16.404500 2.477000
16.426500 2.486800
16.448400 2.451100
16.470400 2.444600
16.492300 2.425800
16.514300 2.433000
16.536300 2.378300
16.558200 2.338300
16.580200 2.316300
16.602100 2.267900
16.624100 2.244200
16.646000 2.272700
16.668000 2.282300
16.690000 2.262600
16.711900 2.242100
16.733900 2.252900
16.755800 2.259700
16.777800 2.263300
16.799700 2.263300
16.821700 2.258500
16.843600 2.248900
16.865600 2.238200
16.887600 2.226700
16.909500 2.227200
16.931500 2.234400
16.953400 2.252100
16.975400 2.278900
16.997300 2.314600
17.019300 2.357900
17.041200 2.407300
17.063200 2.462400
17.085200 2.523300
17.107100 2.581200
17.129100 2.536900
17.151000 2.552500
17.173000 2.552900
17.194900 2.539700
17.216900 2.516900
17.238800 2.485200
17.260800 2.429200
17.282800 2.411200
17.304700 2.397400
17.326700 2.383900
17.348600 2.378700
17.370600 2.387800
17.392500 2.427300
17.414500 2.479300
17.436400 2.515400
17.458400 2.491400
17.480400 2.594500
17.502300 2.561100
17.524300 2.522800
17.546200 2.507800
17.568200 2.496900
17.590100 2.488300
17.612100 2.487500
17.634100 2.495700
17.656000 2.520500
17.678000 2.549800
17.699900 2.564300
17.721900 2.594000
17.743800 2.653400
17.765800 2.656600
17.787700 2.630000
17.809700 2.609900
17.831700 2.538500
17.853600 2.497200
17.875600 2.498600
17.897500 2.505800
17.919500 2.506500
17.941400 2.498200
17.963400 2.486900
17.985300 2.469100
18.007300 2.454200
18.029300 2.442300
18.051200 2.428100
18.073200 2.376100
18.095100 2.338500
18.117100 2.315100
18.139000 2.292300
18.161000 2.267000
18.182900 2.253100
18.204900 2.242400
18.226900 2.253700
18.248800 2.267500
18.270800 2.276900
18.292700 2.282200
18.314700 2.282400
18.336600 2.278400
18.358600 2.271000
18.380500 2.260000
18.402500 2.233600
18.424500 2.202200
18.446400 2.169200
18.468400 2.152400
18.490300 2.145800
18.512300 2.155200
18.534200 2.178400
18.556200 2.215000
18.578200 2.266100
18.600100 2.341000
18.622100 2.404600
18.644000 2.455200
18.666000 2.392200
18.687900 2.355800
18.709900 2.320500
18.731800 2.302200
18.753800 2.350100
18.775800 2.348900
18.797700 2.321400
18.819700 2.295000
18.841600 2.260900
18.863600 2.227700
18.885500 2.200100
18.907500 2.180600
18.929400 2.163100
18.951400 2.115000
18.973400 2.044200
18.995300 1.973700
19.017300 1.905300
19.039200 1.836700
19.061200 1.792200
19.083100 1.777200
19.105100 1.773200
19.127000 1.755600
19.149000 1.738300
19.171000 1.715100
19.192900 1.686100
19.214900 1.669300
19.236800 1.654100
19.258800 1.631600
19.280700 1.527400
19.302700 1.430700
19.324600 1.358300
19.346600 1.319400
19.368600 1.298300
19.390500 1.280800
19.412500 1.265800
19.434400 1.259400
19.456400 1.264200
19.478300 1.289100
19.500300 1.269000
19.522300 1.200300
19.544200 1.142800
19.566200 1.100800
19.588100 1.072600
19.610100 1.058100
19.632000 1.058200
19.654000 1.072500
19.675900 1.088000
19.697900 1.107300
19.719900 1.131500
19.741800 1.162900
19.763800 1.196800
19.785700 1.238900
19.807700 1.336400
19.829600 1.425300
19.851600 1.507500
19.873500 1.586300
19.895500 1.686500
19.917500 1.806400
19.939400 1.931500
19.961400 2.072900
19.983300 2.220900
20.005300 2.371100
20.027200 2.503600
20.049200 2.361700
20.071100 2.402300
20.093100 2.446400
20.115100 2.469400
20.137000 2.479000
20.159000 2.478200
20.180900 2.470800
20.202900 2.471300
20.224800 2.479600
20.246800 2.490700
20.268700 2.503400
20.290700 2.525500
20.312700 2.569700
20.334600 2.607500
20.356600 2.635600
20.378500 2.667600
20.400500 2.683800
20.422400 2.667000
20.444400 2.637100
20.466400 2.638200
20.488300 2.641900
20.510300 2.658800
20.532200 2.680100
20.554200 2.695400
20.576100 2.689600
20.598100 2.695100
20.620000 2.728000
20.642000 2.753900
20.664000 2.775900
20.685900 2.798600
20.707900 2.830500
20.729800 2.860200
20.751800 2.875600
20.773700 2.851700
20.795700 2.811100
20.817600 2.780900
20.839600 2.756500
20.861600 2.723600
20.883500 2.643200
20.905500 2.616000
20.927400 2.578800
20.949400 2.558100
20.971300 2.589300
20.993300 2.646900
21.015200 2.690500
21.037200 2.598900
21.059200 2.569400
21.081100 2.564900
21.103100 2.562500
21.125000 2.557900
21.147000 2.584000
21.168900 2.618000
21.190900 2.641400
21.212800 2.635900
21.234800 2.651000
21.256800 2.655500
21.278700 2.659500
21.300700 2.668300
21.322600 2.684600
21.344600 2.709700
21.366500 2.741500
21.388500 2.786700
21.410500 2.848900
21.432400 2.924500
21.454400 2.996500
21.476300 3.062900
21.498300 3.124200
21.520200 3.148400
21.542200 3.094600
21.564100 2.958200
21.586100 2.868900
21.608100 2.841500
21.630000 2.831100
21.652000 2.734000
21.673900 2.663700
21.695900 2.588000
21.717800 2.608200
21.739800 2.602500
21.761700 2.602800
21.783700 2.617100
21.805700 2.652200
21.827600 2.848100
21.849600 2.974100
21.871500 3.017300
21.893500 2.920100
21.915400 2.919300
21.937400 2.901500
21.959300 2.876100
21.981300 2.846000
22.003300 2.801900
22.025200 2.754100
22.047200 2.716600
22.069100 2.654100
22.091100 2.619700
22.113000 2.585000
22.135000 2.625900
22.156900 2.543500
22.178900 2.511800
22.200900 2.380900
22.222800 2.277200
22.244800 2.219800
22.266700 2.176200
22.288700 2.164800
22.310600 2.180100
22.332600 2.205800
22.354600 2.243600
22.376500 2.293800
22.398500 2.372800
22.420400 2.485700
22.442400 2.595000
22.464300 2.743800
22.486300 2.918000
22.508200 3.095300
22.530200 3.251900
22.552200 3.402200
22.574100 3.448300
22.596100 3.152300
22.618000 2.966600
22.640000 2.858300
22.661900 2.778800
22.683900 2.729200
22.705800 2.685700
22.727800 2.636700
22.749800 2.579300
22.771700 2.551200
22.793700 2.574200
22.815600 2.633000
22.837600 2.668500
22.859500 2.657900
22.881500 2.654900
22.903400 2.666400
22.925400 2.698000
22.947400 2.741900
22.969300 2.790600
22.991300 2.843200
23.013200 2.900100
23.035200 2.956100
23.057100 2.993700
23.079100 2.995500
23.101000 2.954700
23.123000 2.911700
23.145000 2.882500
23.166900 2.875700
23.188900 2.860400
23.210800 2.845000
23.232800 2.857000
23.254700 2.875000
23.276700 2.894100
23.298700 2.914900
23.320600 2.926100
23.342600 2.932200
23.364500 2.965000
23.386500 3.029600
23.408400 3.073900
23.430400 3.115300
23.452300 3.153500
23.474300 3.210800
23.496300 3.213900
23.518200 3.176000
23.540200 3.185400
23.562100 3.225100
23.584100 3.266900
23.606000 3.318000
23.628000 3.318800
23.649900 3.309400
23.671900 3.319400
23.693900 3.406800
23.715800 3.475200
23.737800 3.460800
23.759700 3.272100
23.781700 3.138700
23.803600 3.074200
23.825600 3.034000
23.847500 3.005300
23.869500 2.970700
23.891500 2.942900
23.913400 2.922400
23.935400 2.898800
23.957300 2.858500
23.979300 2.819600
24.001200 2.805500
24.023200 2.797700
24.045100 2.824000
24.067100 2.853100
24.089100 2.878400
24.111000 2.903100
24.133000 2.938400
24.154900 2.972500
24.176900 3.016200
24.198800 3.080900
24.220800 3.131600
24.242800 3.174000
24.264700 3.198300
24.286700 3.178700
24.308600 3.112600
24.330600 3.032000
24.352500 2.993600
24.374500 2.981200
24.396400 2.990800
24.418400 2.980500
24.440400 2.968000
24.462300 2.979200
24.484300 2.962500
24.506200 2.913500
24.528200 2.858600
24.550100 2.831400
24.572100 2.806500
24.594000 2.788400
24.616000 2.774300
24.638000 2.801900
24.659900 2.850200
24.681900 2.893100
24.703800 2.935300
24.725800 2.981100
24.747700 3.073600
24.769700 3.135700
24.791600 3.172800
24.813600 3.194500
24.835600 3.217000
24.857500 3.248400
24.879500 3.279000
24.901400 3.308400
24.923400 3.324800
24.945300 3.337600
24.967300 3.325100
24.989200 3.347600
25.011200 3.375100
25.033200 3.411000
25.055100 3.441700
25.077100 3.497600
25.099000 3.512500
25.121000 3.437200
25.142900 3.335900
25.164900 3.299200
25.186900 3.303600
25.208800 3.312000
25.230800 3.321200
25.252700 3.327600
25.274700 3.335600
25.296600 3.359200
25.318600 3.391700
25.340500 3.373700
25.362500 3.348100
25.384500 3.345400
25.406400 3.357400
25.428400 3.363400
25.450300 3.359800
25.472300 3.323600
25.494200 3.267200
25.516200 3.210500
25.538100 3.150100
25.560100 3.101200
25.582100 3.078800
25.604000 3.054200
25.626000 3.064300
25.647900 3.092200
25.669900 3.124800
25.691800 3.282700
25.713800 3.211300
25.735700 3.261200
25.757700 3.313600
25.779700 3.366200
25.801600 3.349800
25.823600 3.374600
25.845500 3.405500
25.867500 3.433300
25.889400 3.458100
25.911400 3.491000
25.933300 3.517700
25.955300 3.545700
25.977300 3.507400
25.999200 3.476600
26.021200 3.470600
26.043100 3.443100
26.065100 3.399600
26.087000 3.350700
26.109000 3.351700
26.131000 3.282500
26.152900 3.211500
26.174900 3.156600
26.196800 3.112700
26.218800 3.070900
26.240700 3.026800
26.262700 2.998000
26.284600 2.983100
26.306600 2.978400
26.328600 2.985000
26.350500 3.004800
26.372500 2.997600
26.394400 3.007600
26.416400 3.003400
26.438300 3.002100
26.460300 3.008700
26.482200 3.018700
26.504200 3.032900
26.526200 3.045300
26.548100 3.053000
26.570100 3.052700
26.592000 3.047500
26.614000 3.061000
26.635900 3.078600
26.657900 3.101400
26.679800 3.129600
26.701800 3.160700
26.723800 3.193400
26.745700 3.206000
26.767700 3.176300
26.789600 3.209400
26.811600 3.211800
26.833500 3.207800
26.855500 3.203300
26.877400 3.198800
26.899400 3.201400
26.921400 3.211500
26.943300 3.214000
26.965300 3.223300
26.987200 3.268200
27.009200 3.290000
27.031100 3.289000
27.053100 3.269700
27.075100 3.255600
27.097000 3.245500
27.119000 3.240700
27.140900 3.240000
27.162900 3.237500
27.184800 3.244000
27.206800 3.263800
27.228700 3.273500
27.250700 3.276600
27.272700 3.279400
27.294600 3.282200
27.316600 3.294100
27.338500 3.294100
27.360500 3.281700
27.382400 3.282700
27.404400 3.293100
27.426300 3.301600
27.448300 3.305800
27.470300 3.303500
27.492200 3.309900
27.514200 3.351600
27.536100 3.314300
27.558100 3.265100
27.580000 3.208200
27.602000 3.143400
27.623900 3.090600
27.645900 3.053000
27.667900 3.028400
27.689800 3.031700
27.711800 3.049700
27.733700 3.083500
27.755700 3.140900
27.777600 3.189300
27.799600 3.202100
27.821500 3.180800
27.843500 3.147300
27.865500 3.122200
27.887400 3.100400
27.909400 3.081400
27.931300 3.065400
27.953300 3.047400
27.975200 3.021500
27.997200 3.005500
28.019200 3.008300
28.041100 3.026700
28.063100 3.054900
28.085000 3.188100
28.107000 3.392000
28.128900 3.302400
28.150900 3.302500
28.172800 3.319700
28.194800 3.340000
28.216800 3.328400
28.238700 3.252600
28.260700 3.208200
28.282600 3.229900
28.304600 3.336700
28.326500 3.453900
28.348500 3.410700
28.370400 3.415000
28.392400 3.432000
28.414400 3.447100
28.436300 3.475700
28.458300 3.515000
28.480200 3.512400
28.502200 3.461600
28.524100 3.392200
28.546100 3.321800
28.568000 3.260800
28.590000 3.209300
28.612000 3.156000
28.633900 3.115500
28.655900 3.081200
28.677800 3.053500
28.699800 3.044500
28.721700 3.036100
28.743700 3.044200
28.765600 3.056200
28.787600 3.091300
28.809600 3.149600
28.831500 3.139000
28.853500 3.084400
28.875400 3.095600
28.897400 3.269400
28.919300 3.370700
28.941300 3.094200
28.963300 3.015500
28.985200 3.036300
29.007200 3.066200
29.029100 3.102500
29.051100 3.123800
29.073000 3.118300
29.095000 3.103700
29.116900 3.099500
29.138900 3.090100
29.160900 3.071200
29.182800 3.044700
29.204800 3.013200
29.226700 2.978700
29.248700 2.942900
29.270600 2.902100
29.292600 2.859900
29.314500 2.821400
29.336500 2.784600
29.358500 2.756800
29.380400 2.738200
29.402400 2.732300
29.424300 2.740500
29.446300 2.760600
29.468200 2.779900
29.490200 2.794900
29.512100 2.805700
29.534100 2.779900
29.556100 2.782000
29.578000 2.787500
29.600000 2.796200
29.621900 2.789500
29.643900 2.715800
29.665800 2.629600
29.687800 2.745700
29.709700 2.704000
29.731700 2.631100
29.753700 2.568800
29.775600 2.831500
29.797600 2.916600
29.819500 2.994100
29.841500 3.104000
29.863400 3.133700
29.885400 3.064400
29.907400 2.896600
29.929300 2.693700
29.951300 2.551400
29.973200 2.475000
29.995200 2.425700
30.017100 2.389300
30.039100 2.336900
30.061000 2.255500
30.083000 2.227900
30.105000 2.233100
30.126900 2.249900
30.148900 2.323700
30.170800 2.402100
30.192800 2.472800
30.214700 2.534900
30.236700 2.590400
30.258600 2.620400
30.280600 2.640700
30.302600 2.739300
30.324500 2.766000
30.346500 2.781300
30.368400 2.791800
30.390400 2.799800
30.412300 2.827400
30.434300 2.786700
30.456200 2.631900
30.478200 2.502400
30.500200 2.412800
30.522100 2.328100
30.544100 2.245500
30.566000 2.167700
30.588000 2.104700
30.609900 2.000800
30.631900 1.893900
30.653800 1.854100
30.675800 1.891300
30.697800 1.984700
30.719700 2.255400
30.741700 2.342500
30.763600 2.370500
30.785600 2.365100
30.807500 2.239800
30.829500 2.121500
30.851500 2.067400
30.873400 2.032100
30.895400 1.965600
30.917300 1.880700
30.939300 1.778900
30.961200 1.678500
30.983200 1.551000
31.005100 1.401200
31.027100 1.290900
31.049100 1.225300
31.071000 1.184900
31.093000 1.144000
31.114900 1.102100
31.136900 1.065400
31.158800 1.037500
31.180800 1.029300
31.202700 1.064900
31.224700 1.120700
31.246700 1.152800
31.268600 1.160300
31.290600 1.147000
31.312500 1.117100
31.334500 1.073100
31.356400 1.033600
31.378400 1.001500
31.400300 0.963900
31.422300 0.920900
31.444300 0.872400
31.466200 0.824400
31.488200 0.781300
31.510100 0.741200
31.532100 0.705200
31.554000 0.677900
31.576000 0.652800
31.597900 0.633100
31.619900 0.598500
31.641900 0.560900
31.663800 0.522000
31.685800 0.481900
31.707700 0.440600
31.729700 0.398100
31.751600 0.355300
31.773600 0.314800
31.795600 0.273200
31.817500 0.228200
31.839500 0.182900
31.861400 0.164000
31.883400 0.146200
31.905300 0.129800
31.927300 0.114600
31.949200 0.103100
31.971200 0.098700
31.993200 0.095000
32.015100 0.091800
32.037100 0.089100
32.059000 0.087000
32.081000 0.082900
32.102900 0.070900
32.124900 0.057300
32.146800 0.043600
32.168800 0.029700
32.190800 0.015600
32.212700 0.001300
32.234700 0.000000
32.256600 0.000000
32.278600 0.000000
32.300500 0.000000
32.322500 0.000000
32.344400 0.000000
32.366400 0.000000
32.388400 0.000000
32.410300 0.000000
32.432300 0.000000
32.454200 0.000000
32.476200 0.000000
32.498100 0.000000
32.520100 0.000000
32.542000 0.000000
32.564000 0.000000
32.586000 0.000000
32.607900 0.000000
32.629900 0.000000
32.651800 0.000000
32.673800 0.000000
32.695700 0.000000
32.717700 0.000000
32.739700 0.000000
32.761600 0.000000
32.783600 0.000000
32.805500 0.000000
32.827500 0.000000
32.849400 0.000000
32.871400 0.000000
32.893300 0.000000
32.915300 0.000000
32.937300 0.000000
32.959200 0.000000
32.981200 0.000000
33.003100 0.000000
33.025100 0.000000
33.047000 0.000000
33.069000 0.000000
33.090900 0.000000
33.112900 0.000000
33.134900 0.000000
33.156800 0.000000
33.178800 0.000000
33.200700 0.000000
33.222700 0.000000
33.244600 0.000000
33.266600 0.000000
33.288500 0.000000
33.310500 0.000000
33.332500 0.000000
33.354400 0.000000
33.376400 0.000000
33.398300 0.000000
33.420300 0.000000
33.442200 0.000000
33.464200 0.000000
33.486100 0.000000
33.508100 0.000000
33.530100 0.000000
33.552000 0.000000
33.574000 0.000000
33.595900 0.000000
33.617900 0.000000
33.639800 0.000000
33.661800 0.000000
33.683800 0.000000
33.705700 0.000000
33.727700 0.000000
33.749600 0.000000
33.771600 0.000000
33.793500 0.000000
33.815500 0.000000
33.837400 0.000000
33.859400 0.000000
33.881400 0.000000
33.903300 0.000000
33.925300 0.000000
33.947200 0.000000
33.969200 0.000000
33.991100 0.000000
34.013100 0.000000
34.035000 0.000000
34.057000 0.000000
34.079000 0.000000
34.100900 0.000000
34.122900 0.000000
34.144800 0.000000
34.166800 0.000000
34.188700 0.000000
34.210700 0.000000
e
