set title 'mp-634101 - Density of States'
set xlabel 'Energy (eV)'
set ylabel 'DOS (states/eV)'
set grid
set xrange [-10:10]
set yrange [0:8.427]
set xzeroaxis lt -1
set terminal png size 800,600
set output 'mp-634101_dos_gnuplot.png'
plot '-' using 1:2 with lines title 'DOS'
-22.696600 0.000000
-22.643800 0.000000
-22.591100 0.000000
-22.538300 0.000000
-22.485600 0.000000
-22.432800 0.000000
-22.380100 0.000000
-22.327300 0.000000
-22.274600 0.000000
-22.221800 0.000000
-22.169100 0.000000
-22.116300 0.000000
-22.063600 0.000000
-22.010800 0.000000
-21.958100 0.000000
-21.905300 0.000000
-21.852600 0.000000
-21.799800 0.000000
-21.747100 0.000000
-21.694300 0.000000
-21.641600 0.000000
-21.588800 0.000000
-21.536100 0.000000
-21.483300 0.000000
-21.430600 0.000000
-21.377800 0.000000
-21.325100 0.000000
-21.272300 0.000000
-21.219600 0.000000
-21.166800 0.000000
-21.114100 0.000000
-21.061300 0.000000
-21.008600 0.000000
-20.955800 0.000000
-20.903100 0.000000
-20.850300 0.000000
-20.797600 0.000000
-20.744800 0.000000
-20.692100 0.000000
-20.639300 0.000000
-20.586600 0.000000
-20.533800 0.000000
-20.481100 0.000000
-20.428300 0.000000
-20.375600 0.000000
-20.322800 0.000000
-20.270100 0.000000
-20.217300 0.000000
-20.164600 0.000000
-20.111800 0.000000
-20.059100 0.000000
-20.006300 0.000000
-19.953600 0.000000
-19.900800 0.000000
-19.848100 0.000000
-19.795300 0.000000
-19.742600 0.000000
-19.689800 0.000000
-19.637100 0.000000
-19.584300 0.000000
-19.531600 0.000000
-19.478800 0.000000
-19.426100 0.000000
-19.373300 0.000000
-19.320600 0.000000
-19.267800 0.000000
-19.215100 0.000000
-19.162300 0.000000
-19.109600 0.000000
-19.056800 0.000000
-19.004100 0.000000
-18.951300 0.000000
-18.898600 0.000000
-18.845800 0.000000
-18.793100 0.000000
-18.740300 0.000000
-18.687600 0.000000
-18.634800 0.000000
-18.582100 0.000000
-18.529300 0.000000
-18.476600 0.000000
-18.423800 0.000000
-18.371100 0.000000
-18.318300 0.000000
-18.265600 0.000000
-18.212800 0.000000
-18.160100 0.000000
-18.107300 0.000000
-18.054600 0.000000
-18.001800 0.000900
-17.949100 0.047300
-17.896300 0.499800
-17.843600 1.534900
-17.790800 1.806900
-17.738100 1.307200
-17.685300 2.513600
-17.632600 3.804900
-17.579800 2.248300
-17.527100 0.434300
-17.474300 0.019900
-17.421600 0.000200
-17.368800 0.000000
-17.316100 0.007400
-17.263300 0.247900
-17.210600 1.795500
-17.157800 3.885700
-17.105100 2.854200
-17.052300 0.651800
-16.999600 0.035800
-16.946800 0.000300
-16.894100 0.000000
-16.841300 0.000000
-16.788600 0.000000
-16.735800 0.000000
-16.683100 0.001200
-16.630300 0.093000
-16.577600 1.318100
-16.524800 4.179200
-16.472100 3.266200
-16.419300 0.599000
-16.366600 0.021900
-16.313800 0.000900
-16.261100 0.085300
-16.208300 1.211300
-16.155600 2.557200
-16.102800 0.844000
-16.050100 0.040600
-15.997300 0.000300
-15.944600 0.000000
-15.891800 0.000000
-15.839100 0.000000
-15.786300 0.000000
-15.733600 0.000000
-15.680800 0.000000
-15.628100 0.000000
-15.575300 0.000000
-15.522600 0.000000
-15.469800 0.000000
-15.417100 0.000000
-15.364300 0.000000
-15.311600 0.000000
-15.258800 0.000000
-15.206100 0.000000
-15.153300 0.000000
-15.100600 0.000000
-15.047800 0.000000
-14.995100 0.000000
-14.942300 0.000000
-14.889600 0.000000
-14.836800 0.000000
-14.784100 0.000000
-14.731300 0.000000
-14.678600 0.000000
-14.625800 0.000000
-14.573100 0.000000
-14.520300 0.000000
-14.467600 0.000000
-14.414800 0.000000
-14.362100 0.000000
-14.309300 0.000000
-14.256600 0.000000
-14.203800 0.000000
-14.151100 0.000000
-14.098300 0.000000
-14.045600 0.000000
-13.992800 0.000000
-13.940100 0.000000
-13.887300 0.000000
-13.834600 0.000000
-13.781800 0.000000
-13.729100 0.000000
-13.676300 0.000000
-13.623600 0.000000
-13.570800 0.000000
-13.518100 0.000000
-13.465300 0.000000
-13.412600 0.000000
-13.359800 0.000000
-13.307100 0.000000
-13.254300 0.000000
-13.201600 0.000000
-13.148800 0.000000
-13.096100 0.000000
-13.043300 0.000000
-12.990600 0.000000
-12.937800 0.000000
-12.885100 0.000000
-12.832300 0.000000
-12.779600 0.000000
-12.726800 0.000000
-12.674100 0.000000
-12.621300 0.000000
-12.568600 0.000000
-12.515800 0.000000
-12.463100 0.000000
-12.410300 0.000000
-12.357600 0.000000
-12.304800 0.000000
-12.252100 0.000000
-12.199300 0.000000
-12.146600 0.000000
-12.093800 0.000000
-12.041100 0.000000
-11.988300 0.000000
-11.935600 0.000000
-11.882800 0.000000
-11.830100 0.000000
-11.777300 0.000000
-11.724600 0.000000
-11.671800 0.000000
-11.619100 0.000000
-11.566300 0.000000
-11.513500 0.000000
-11.460800 0.000000
-11.408000 0.000000
-11.355300 0.000000
-11.302500 0.000000
-11.249800 0.000000
-11.197000 0.000000
-11.144300 0.000000
-11.091500 0.000000
-11.038800 0.000000
-10.986000 0.000300
-10.933300 0.040900
-10.880500 0.847100
-10.827800 2.558000
-10.775000 1.207500
-10.722300 0.084700
-10.669500 0.000800
-10.616800 0.000000
-10.564000 0.000000
-10.511300 0.000000
-10.458500 0.000000
-10.405800 0.000000
-10.353000 0.000000
-10.300300 0.000000
-10.247500 0.000200
-10.194800 0.033400
-10.142000 0.784900
-10.089300 3.703300
-10.036500 3.959000
-9.983800 0.951800
-9.931000 0.045600
-9.878300 0.000400
-9.825500 0.000000
-9.772800 0.000000
-9.720000 0.000000
-9.667300 0.000000
-9.614500 0.000000
-9.561800 0.000000
-9.509000 0.000000
-9.456300 0.000000
-9.403500 0.000000
-9.350800 0.000000
-9.298000 0.000000
-9.245300 0.000000
-9.192500 0.000000
-9.139800 0.000000
-9.087000 0.000000
-9.034300 0.000000
-8.981500 0.000000
-8.928800 0.000000
-8.876000 0.000000
-8.823300 0.000000
-8.770500 0.000000
-8.717800 0.000000
-8.665000 0.000000
-8.612300 0.000000
-8.559500 0.000000
-8.506800 0.000000
-8.454000 0.000000
-8.401300 0.000100
-8.348500 0.014600
-8.295800 0.412400
-8.243000 2.518900
-8.190300 4.217900
-8.137500 2.050500
-8.084800 0.257600
-8.032000 0.006600
-7.979300 0.000000
-7.926500 0.000000
-7.873800 0.000000
-7.821000 0.000000
-7.768300 0.000000
-7.715500 0.000000
-7.662800 0.000000
-7.610000 0.000000
-7.557300 0.000000
-7.504500 0.000000
-7.451800 0.000000
-7.399000 0.000000
-7.346300 0.000000
-7.293500 0.000000
-7.240800 0.000000
-7.188000 0.000000
-7.135300 0.000000
-7.082500 0.000000
-7.029800 0.000000
-6.977000 0.000000
-6.924300 0.000000
-6.871500 0.000000
-6.818800 0.000000
-6.766000 0.000000
-6.713300 0.000000
-6.660500 0.000000
-6.607800 0.000000
-6.555000 0.000000
-6.502300 0.000000
-6.449500 0.000000
-6.396800 0.000000
-6.344000 0.000000
-6.291300 0.000000
-6.238500 0.000000
-6.185800 0.000000
-6.133000 0.000000
-6.080300 0.000000
-6.027500 0.000000
-5.974800 0.000100
-5.922000 0.015700
-5.869300 0.432600
-5.816500 2.586400
-5.763800 4.215300
-5.711000 1.982500
-5.658300 0.240100
-5.605500 0.005900
-5.552800 0.000000
-5.500000 0.000000
-5.447300 0.000000
-5.394500 0.000000
-5.341800 0.000000
-5.289000 0.000000
-5.236300 0.000000
-5.183500 0.000000
-5.130800 0.000000
-5.078000 0.002300
-5.025300 0.071600
-4.972500 0.378300
-4.919800 0.621300
-4.867000 0.872700
-4.814300 1.194500
-4.761500 1.886100
-4.708800 2.332200
-4.656000 1.841000
-4.603300 1.533500
-4.550500 1.104100
-4.497800 1.283400
-4.445000 2.591800
-4.392300 2.754300
-4.339500 3.305000
-4.286800 3.077100
-4.234000 1.824100
-4.181300 1.629400
-4.128500 2.222000
-4.075800 3.356300
-4.023000 5.003900
-3.970300 7.108400
-3.917500 6.349500
-3.864800 3.030600
-3.812000 3.742500
-3.759300 3.921900
-3.706500 4.021600
-3.653800 7.660700
-3.601000 4.801200
-3.548300 0.985700
-3.495500 0.060900
-3.442800 0.000700
-3.390000 0.000000
-3.337300 0.000000
-3.284500 0.000000
-3.231800 0.000000
-3.179000 0.000000
-3.126300 0.000000
-3.073500 0.000000
-3.020800 0.000000
-2.968000 0.000000
-2.915300 0.000000
-2.862500 0.000000
-2.809800 0.000000
-2.757000 0.000000
-2.704300 0.000000
-2.651500 0.000000
-2.598800 0.000000
-2.546000 0.000000
-2.493300 0.000000
-2.440500 0.000000
-2.387800 0.000000
-2.335000 0.000000
-2.282300 0.000000
-2.229500 0.000000
-2.176800 0.000000
-2.124000 0.000000
-2.071300 0.000000
-2.018500 0.000000
-1.965800 0.000000
-1.913000 0.000000
-1.860300 0.000000
-1.807500 0.000000
-1.754800 0.000000
-1.702000 0.000000
-1.649300 0.000000
-1.596500 0.000000
-1.543800 0.000000
-1.491000 0.000000
-1.438300 0.000000
-1.385500 0.000000
-1.332800 0.000000
-1.280000 0.000000
-1.227300 0.000000
-1.174500 0.000000
-1.121800 0.000000
-1.069000 0.000000
-1.016300 0.000000
-0.963500 0.000000
-0.910800 0.000000
-0.858000 0.000000
-0.805300 0.000000
-0.752500 0.002500
-0.699800 0.085100
-0.647000 0.632100
-0.594300 1.566200
-0.541500 1.649600
-0.488800 0.704900
-0.436000 0.096100
-0.383300 0.002800
-0.330500 0.000000
-0.277800 0.000000
-0.225000 0.000000
-0.172300 0.000000
-0.119500 0.000000
-0.066800 0.000000
-0.014000 0.000000
0.038700 0.000000
0.091500 0.000000
0.144200 0.000000
0.197000 0.000000
0.249700 0.000000
0.302500 0.000000
0.355200 0.000000
0.408000 0.000000
0.460700 0.000000
0.513500 0.000000
0.566200 0.000000
0.619000 0.000000
0.671700 0.000000
0.724500 0.000000
0.777200 0.000000
0.830000 0.000000
0.882700 0.000000
0.935500 0.000000
0.988200 0.000000
1.041000 0.000000
1.093700 0.000000
1.146500 0.000000
1.199200 0.000000
1.252000 0.000000
1.304700 0.000000
1.357500 0.000000
1.410200 0.000000
1.463000 0.000800
1.515700 0.061300
1.568500 0.872100
1.621200 3.270600
1.674000 3.879800
1.726700 1.296700
1.779500 0.096200
1.832200 0.001200
1.885000 0.000000
1.937700 0.000000
1.990500 0.000000
2.043200 0.000000
2.096000 0.000000
2.148700 0.000000
2.201500 0.000000
2.254200 0.000000
2.307000 0.000000
2.359700 0.000000
2.412500 0.000000
2.465200 0.000000
2.518000 0.000000
2.570800 0.000000
2.623500 0.000000
2.676300 0.000000
2.729000 0.000000
2.781800 0.000000
2.834500 0.000000
2.887300 0.000000
2.940000 0.000000
2.992800 0.000000
3.045500 0.000000
3.098300 0.000000
3.151000 0.000000
3.203800 0.000100
3.256500 0.010000
3.309300 0.099600
3.362000 0.151800
3.414800 0.065600
3.467500 0.081700
3.520300 0.033400
3.573000 0.002100
3.625800 0.003300
3.678500 0.083800
3.731300 0.310500
3.784000 0.186500
3.836800 0.141700
3.889500 0.326100
3.942300 0.215300
3.995000 0.319600
4.047800 0.178800
4.100500 0.098300
4.153300 0.310400
4.206000 0.179600
4.258800 0.016100
4.311500 0.023100
4.364300 0.169600
4.417000 0.379000
4.469800 0.445100
4.522500 0.662600
4.575300 0.390300
4.628000 0.378400
4.680800 0.705200
4.733500 0.558600
4.786300 0.503700
4.839000 0.208700
4.891800 0.018800
4.944500 0.046200
4.997300 0.463100
5.050000 1.034900
5.102800 1.331800
5.155500 1.993100
5.208300 2.825900
5.261000 1.336900
5.313800 1.055200
5.366500 1.726000
5.419300 2.688000
5.472000 2.849100
5.524800 2.024500
5.577500 0.903300
5.630300 2.069100
5.683000 2.496700
5.735800 2.037700
5.788500 2.129100
5.841300 1.671900
5.894000 0.872100
5.946800 0.771400
5.999500 0.910600
6.052300 2.012900
6.105000 2.337200
6.157800 1.714700
6.210500 2.533900
6.263300 1.533500
6.316000 0.671500
6.368800 0.763500
6.421500 0.660800
6.474300 1.188400
6.527000 1.699000
6.579800 1.838100
6.632500 1.586800
6.685300 0.800400
6.738000 1.126800
6.790800 0.954100
6.843500 0.254800
6.896300 0.610400
6.949000 0.714800
7.001800 0.630700
7.054500 0.792300
7.107300 0.877900
7.160000 1.353100
7.212800 1.115200
7.265500 0.649800
7.318300 0.332400
7.371000 1.350000
7.423800 2.580400
7.476500 2.479400
7.529300 2.186300
7.582000 1.623400
7.634800 1.941700
7.687500 1.681900
7.740300 0.745300
7.793000 0.854300
7.845800 0.758400
7.898500 0.534800
7.951300 0.855300
8.004000 0.992900
8.056800 1.158100
8.109500 0.929600
8.162300 0.800400
8.215000 0.576500
8.267800 0.179500
8.320500 0.627400
8.373300 1.151200
8.426000 1.633100
8.478800 2.102400
8.531500 2.166800
8.584300 1.090700
8.637000 0.947800
8.689800 1.835400
8.742500 1.359100
8.795300 0.765100
8.848000 1.663500
8.900800 2.548100
8.953500 1.356500
9.006300 1.249900
9.059000 2.395000
9.111800 3.319300
9.164500 2.977900
9.217300 1.807300
9.270000 1.398400
9.322800 1.483300
9.375500 1.577400
9.428300 1.833400
9.481000 1.064200
9.533800 0.806100
9.586500 0.910100
9.639300 1.522800
9.692000 0.853000
9.744800 0.367700
9.797500 0.427200
9.850300 0.723400
9.903000 1.128400
9.955800 0.749000
10.008500 0.535200
10.061300 1.163500
10.114000 1.684600
10.166800 0.705200
10.219500 0.537100
10.272300 1.604900
10.325000 2.181700
10.377800 1.022200
10.430500 0.606000
10.483300 0.975900
10.536000 0.943800
10.588800 1.083800
10.641500 1.161000
10.694300 0.798800
10.747000 1.322700
10.799800 1.628500
10.852500 0.633100
10.905300 0.850600
10.958000 1.951900
11.010800 1.944300
11.063500 0.780400
11.116300 1.272700
11.169000 2.257100
11.221800 1.274800
11.274500 1.015300
11.327300 1.054000
11.380000 1.501800
11.432800 1.895600
11.485500 1.486600
11.538300 1.271600
11.591000 0.998000
11.643800 1.257500
11.696500 1.431900
11.749300 1.973400
11.802000 2.382400
11.854800 2.549600
11.907500 2.574800
11.960300 1.619400
12.013000 1.144900
12.065800 1.271500
12.118500 0.971500
12.171300 0.430900
12.224000 0.332200
12.276800 0.521600
12.329500 0.914700
12.382300 1.226000
12.435000 0.922400
12.487800 1.112400
12.540500 1.748300
12.593300 1.951500
12.646000 1.936100
12.698800 1.852200
12.751500 1.548000
12.804300 1.447400
12.857000 0.675800
12.909800 1.171400
12.962500 1.523500
13.015300 0.835800
13.068000 1.418800
13.120800 2.287100
13.173500 2.394200
13.226300 2.069300
13.279000 2.127600
13.331800 1.279000
13.384500 1.318500
13.437300 1.772600
13.490000 1.916600
13.542800 1.835000
13.595500 1.326700
13.648300 1.402200
13.701000 1.825000
13.753800 2.016000
13.806500 2.032900
13.859300 1.606400
13.912000 1.800200
13.964800 1.938800
14.017500 1.873900
14.070300 1.727100
14.123000 1.471500
14.175800 1.857300
14.228500 2.190200
14.281300 2.134600
14.334000 1.804800
14.386800 2.129500
14.439500 2.082100
14.492300 1.441500
14.545000 0.942900
14.597800 0.795800
14.650500 1.319700
14.703300 1.291100
14.756000 1.608100
14.808800 2.099600
14.861500 1.503500
14.914300 0.849500
14.967000 1.145200
15.019800 1.896700
15.072500 1.007500
15.125300 0.112000
15.178000 0.193600
15.230800 1.532500
15.283500 3.019200
15.336300 2.504100
15.389000 1.453600
15.441800 1.068000
15.494500 1.478300
15.547300 1.219500
15.600000 0.987600
15.652800 0.452600
15.705500 0.232600
15.758300 0.675900
15.811000 1.184200
15.863800 1.556100
15.916500 2.396800
15.969300 2.161200
16.022000 1.096800
16.074800 1.302600
16.127500 1.068300
16.180300 1.287600
16.233000 1.302300
16.285800 1.299800
16.338500 1.721800
16.391300 1.404300
16.444000 1.661500
16.496800 1.590800
16.549500 1.131300
16.602300 1.020800
16.655000 0.688200
16.707800 0.547800
16.760600 0.983300
16.813300 1.098600
16.866100 0.959700
16.918800 1.476300
16.971600 1.487200
17.024300 0.778100
17.077100 0.853300
17.129800 1.333500
17.182600 1.764000
17.235300 1.083200
17.288100 0.981700
17.340800 2.214500
17.393600 1.827400
17.446300 1.457600
17.499100 2.092100
17.551800 1.988200
17.604600 1.812500
17.657300 1.160400
17.710100 1.001200
17.762800 0.968500
17.815600 0.435300
17.868300 1.072900
17.921100 2.353100
17.973800 2.082200
18.026600 1.888700
18.079300 1.838800
18.132100 1.385400
18.184800 1.446700
18.237600 1.254500
18.290300 1.059400
18.343100 1.330400
18.395800 0.697300
18.448600 0.322200
18.501300 0.392300
18.554100 0.201800
18.606800 0.675100
18.659600 1.437500
18.712300 1.214100
18.765100 1.216500
18.817800 0.668800
18.870600 0.643500
18.923300 1.443400
18.976100 1.677000
19.028800 0.874500
19.081600 1.015900
19.134300 1.938600
19.187100 1.190500
19.239800 1.211900
19.292600 1.418100
19.345300 1.566700
19.398100 2.684600
19.450800 3.977900
19.503600 3.314200
19.556300 2.535700
19.609100 2.426300
19.661800 1.552500
19.714600 0.727500
19.767300 1.056400
19.820100 2.110500
19.872800 2.077000
19.925600 1.690700
19.978300 1.868100
20.031100 3.186900
20.083800 3.815900
20.136600 2.632300
20.189300 1.520900
20.242100 1.355000
20.294800 2.218500
20.347600 1.961900
20.400300 1.644200
20.453100 1.443300
20.505800 1.240600
20.558600 1.494600
20.611300 1.033700
20.664100 0.555100
20.716800 0.849000
20.769600 2.394200
20.822300 2.137100
20.875100 1.048900
20.927800 0.981800
20.980600 1.149200
21.033300 1.359500
21.086100 2.379500
21.138800 2.683700
21.191600 2.451100
21.244300 2.013700
21.297100 1.761500
21.349800 1.487000
21.402600 1.310800
21.455300 0.843100
21.508100 0.497600
21.560800 0.630500
21.613600 0.731500
21.666300 1.363400
21.719100 1.652900
21.771800 1.639600
21.824600 2.203500
21.877300 1.883700
21.930100 1.576800
21.982800 2.035100
22.035600 2.291500
22.088300 1.430900
22.141100 0.637700
22.193800 1.201900
22.246600 2.205600
22.299300 2.781500
22.352100 1.839300
22.404800 1.049600
22.457600 2.010000
22.510300 2.760600
22.563100 1.788500
22.615800 1.568500
22.668600 1.199700
22.721300 1.755600
22.774100 1.883800
22.826800 0.803700
22.879600 1.154700
22.932300 2.955700
22.985100 3.953700
23.037800 3.468900
23.090600 2.145000
23.143300 0.898200
23.196100 1.364800
23.248800 1.917500
23.301600 1.249500
23.354300 1.196700
23.407100 1.283100
23.459800 1.425900
23.512600 2.373700
23.565300 2.259900
23.618100 1.190900
23.670800 1.571700
23.723600 1.933200
23.776300 1.243900
23.829100 1.352100
23.881800 1.874600
23.934600 1.527400
23.987300 1.324000
24.040100 1.129300
24.092800 1.292000
24.145600 1.607000
24.198300 1.652400
24.251100 1.214600
24.303800 1.096000
24.356600 2.886300
24.409300 2.780100
24.462100 1.847400
24.514800 1.843400
24.567600 1.870500
24.620300 1.824500
24.673100 1.583100
24.725800 1.731200
24.778600 1.881500
24.831300 2.463100
24.884100 1.749300
24.936800 1.374300
24.989600 2.234800
25.042300 2.596700
25.095100 1.375100
25.147800 0.907600
25.200600 1.332400
25.253300 2.262100
25.306100 2.984900
25.358800 2.479300
25.411600 2.043500
25.464300 1.269700
25.517100 1.474400
25.569800 1.264300
25.622600 1.919900
25.675300 2.345500
25.728100 1.522400
25.780800 1.248500
25.833600 1.518500
25.886300 1.581200
25.939100 1.780400
25.991800 1.254400
26.044600 1.512100
26.097300 3.182200
26.150100 2.712400
26.202800 1.531500
26.255600 1.320400
26.308300 1.459500
26.361100 2.126300
26.413800 1.251600
26.466600 0.741100
26.519300 1.844700
26.572100 2.361000
26.624800 1.107600
26.677600 0.808000
26.730300 1.854400
26.783100 2.144300
26.835800 1.501000
26.888600 3.480600
26.941300 4.064100
26.994100 2.407400
27.046800 1.628500
27.099600 2.259000
27.152300 1.179200
27.205100 0.616300
27.257800 1.021600
27.310600 1.355100
27.363300 1.763200
27.416100 2.754200
27.468800 3.650100
27.521600 2.855100
27.574300 1.808000
27.627100 0.461700
27.679800 0.543800
27.732600 1.098800
27.785300 1.287900
27.838100 1.654600
27.890800 3.190900
27.943600 3.667000
27.996300 2.181700
28.049100 1.424900
28.101800 1.843200
28.154600 1.614500
28.207300 1.560800
28.260100 1.470100
28.312800 1.066800
28.365600 1.659800
28.418300 1.496800
28.471100 0.954600
28.523800 0.966300
28.576600 0.928400
28.629300 0.776100
28.682100 0.812200
28.734800 1.760700
28.787600 2.340900
28.840300 2.217100
28.893100 1.695800
28.945800 1.643200
28.998600 1.524800
29.051300 1.504000
29.104100 2.127500
29.156800 2.984100
29.209600 3.143200
29.262300 4.183600
29.315100 3.111400
29.367800 2.212300
29.420600 1.978000
29.473300 1.425800
29.526100 1.450500
29.578800 1.144400
29.631600 1.696300
29.684300 2.928600
29.737100 4.605500
29.789800 4.473000
29.842600 2.383300
29.895300 1.432000
29.948100 1.280800
30.000800 1.462700
30.053600 1.746000
30.106300 1.209700
30.159100 0.721000
30.211800 0.625800
30.264600 0.991100
30.317300 2.111300
30.370100 2.794500
30.422800 2.074800
30.475600 2.019100
30.528300 2.199900
30.581100 2.390200
30.633800 3.425400
30.686600 2.295500
30.739300 1.583500
30.792100 1.786800
30.844900 1.482500
30.897600 1.333900
30.950400 2.379000
31.003100 2.101200
31.055900 1.583000
31.108600 1.999700
31.161400 2.140100
31.214100 2.257200
31.266900 1.936400
31.319600 1.137700
31.372400 1.916300
31.425100 1.632200
31.477900 1.249700
31.530600 1.591300
31.583400 1.592200
31.636100 1.744800
31.688900 1.659300
31.741600 0.810300
31.794400 0.647800
31.847100 1.910000
31.899900 1.963300
31.952600 2.340100
32.005400 2.553700
32.058100 2.407600
32.110900 2.239600
32.163600 2.580500
32.216400 3.378100
32.269100 3.255600
32.321900 2.141500
32.374600 2.118000
32.427400 1.846200
32.480100 1.222400
32.532900 0.694300
32.585600 0.923800
32.638400 1.377400
32.691100 2.219800
32.743900 2.049000
32.796600 0.905000
32.849400 1.303000
32.902100 1.680500
32.954900 1.384400
33.007600 1.589200
33.060400 1.679000
33.113100 1.448800
33.165900 1.830300
33.218600 2.245800
33.271400 1.995600
33.324100 1.486600
33.376900 2.111800
33.429600 2.041800
33.482400 3.194500
33.535100 2.649500
33.587900 2.718900
33.640600 1.790700
33.693400 1.650000
33.746100 2.175100
33.798900 2.045100
33.851600 1.706400
33.904400 1.180100
33.957100 0.580600
34.009900 1.349000
34.062600 1.381200
34.115400 1.497100
34.168100 2.394400
34.220900 2.442900
34.273600 2.262100
34.326400 2.454100
34.379100 2.161000
34.431900 1.393500
34.484600 0.584900
34.537400 1.196400
34.590100 2.562800
34.642900 2.440300
34.695600 2.932700
34.748400 2.165200
34.801100 0.793500
34.853900 1.194700
34.906600 2.141500
34.959400 1.813000
35.012100 1.323400
35.064900 1.741000
35.117600 2.621700
35.170400 3.319100
35.223100 3.260900
35.275900 2.905800
35.328600 1.768900
35.381400 2.738800
35.434100 2.512500
35.486900 1.921800
35.539600 1.943500
35.592400 1.618400
35.645100 2.563200
35.697900 2.973600
35.750600 2.457000
35.803400 2.204000
35.856100 2.682900
35.908900 2.350700
35.961600 2.390400
36.014400 3.455900
36.067100 2.644100
36.119900 1.408000
36.172600 1.575400
36.225400 2.555600
36.278100 2.419500
36.330900 1.498700
36.383600 1.328600
36.436400 1.683800
36.489100 1.793500
36.541900 1.547700
36.594600 1.271400
36.647400 1.886900
36.700100 2.278900
36.752900 1.934900
36.805600 2.036400
36.858400 2.341200
36.911100 1.903700
36.963900 1.922000
37.016600 1.467300
37.069400 1.508300
37.122100 1.504600
37.174900 2.562200
37.227600 2.344900
37.280400 1.451100
37.333100 2.693300
37.385900 4.384700
37.438600 2.714800
37.491400 0.882700
37.544100 1.149500
37.596900 1.245900
37.649600 1.428600
37.702400 2.836400
37.755100 2.443100
37.807900 1.848900
37.860600 1.530500
37.913400 1.797700
37.966100 2.498100
38.018900 2.354500
38.071600 2.493800
38.124400 2.349000
38.177100 2.919600
38.229900 2.734000
38.282600 2.162900
38.335400 2.256800
38.388100 2.538800
38.440900 1.486100
38.493600 0.936300
38.546400 1.636500
38.599100 1.906600
38.651900 1.846600
38.704600 2.368900
38.757400 2.097600
38.810100 1.916600
38.862900 2.672200
38.915600 2.208900
38.968400 1.648700
39.021100 1.422500
39.073900 1.256800
39.126600 1.160700
39.179400 0.833500
39.232100 1.579400
39.284900 2.231400
39.337600 2.202800
39.390400 2.090200
39.443100 2.210900
39.495900 1.462600
39.548600 1.743800
39.601400 2.076700
39.654100 2.519800
39.706900 1.633800
39.759600 0.995800
39.812400 1.354200
39.865100 2.222800
39.917900 1.636300
39.970600 0.802300
40.023400 1.572800
40.076100 2.544100
40.128900 2.511200
40.181600 1.781300
40.234400 1.466700
40.287100 1.648400
40.339900 1.980000
40.392600 3.462400
40.445400 3.665300
40.498100 1.664500
40.550900 2.182200
40.603600 3.588300
40.656400 3.044700
40.709100 2.427600
40.761900 1.959700
40.814600 1.889100
40.867400 1.227700
40.920100 1.032300
40.972900 1.309400
41.025600 2.079100
41.078400 3.233100
41.131100 4.162800
41.183900 3.621500
41.236600 3.207100
41.289400 3.094300
41.342100 1.699900
41.394900 1.434900
41.447600 2.056700
41.500400 1.165400
41.553100 1.057900
41.605900 1.911400
41.658600 2.162500
41.711400 1.978500
41.764100 2.412900
41.816900 2.847700
41.869600 2.060300
41.922400 2.004800
41.975100 2.763500
42.027900 2.426500
42.080600 2.523800
42.133400 3.491400
42.186100 3.191000
42.238900 2.041300
42.291600 2.302900
42.344400 3.195500
42.397100 2.952300
42.449900 2.439500
42.502600 2.016600
42.555400 1.686900
42.608100 1.740000
42.660900 2.299800
42.713600 2.598700
42.766400 1.966800
42.819100 1.703900
42.871900 1.814800
42.924600 2.023300
42.977400 1.786300
43.030100 0.965000
43.082900 1.560400
43.135600 2.619200
43.188400 3.190600
43.241100 2.630300
43.293900 2.008800
43.346600 1.500000
43.399400 2.237600
43.452100 2.897700
43.504900 2.380800
43.557600 1.760400
43.610400 1.358300
43.663100 1.913500
43.715900 2.535900
43.768600 1.855800
43.821400 1.564000
43.874100 1.748800
43.926900 1.729400
43.979600 2.291700
44.032400 2.310800
44.085100 2.357000
44.137900 3.783300
44.190600 4.018400
44.243400 2.662600
44.296100 2.304600
44.348900 1.304200
44.401600 1.311500
44.454400 1.739200
44.507100 1.633400
44.559900 1.635900
44.612600 3.150600
44.665400 4.306100
44.718100 3.213400
44.770900 2.385400
44.823600 1.668400
44.876400 1.276800
44.929100 1.686700
44.981900 1.642800
45.034700 2.206700
45.087400 2.521000
45.140200 2.719000
45.192900 2.209700
45.245700 1.832300
45.298400 1.922700
45.351200 1.597500
45.403900 2.285800
45.456700 2.068300
45.509400 2.044500
45.562200 1.680000
45.614900 2.903900
45.667700 3.585400
45.720400 2.107600
45.773200 1.599600
45.825900 1.523600
45.878700 1.948500
45.931400 2.470100
45.984200 1.613400
46.036900 0.985400
46.089700 1.833400
46.142400 2.196100
46.195200 2.486100
46.247900 3.223600
46.300700 3.198100
46.353400 3.358600
46.406200 3.693300
46.458900 3.281800
46.511700 3.759200
46.564400 4.489900
46.617200 3.814500
46.669900 2.005100
46.722700 1.286700
46.775400 1.771100
46.828200 1.928800
46.880900 1.102000
46.933700 0.523000
46.986400 1.172000
47.039200 1.666200
47.091900 1.923600
47.144700 1.801600
47.197400 1.404800
47.250200 1.415800
47.302900 1.901500
47.355700 3.667200
47.408400 4.278300
47.461200 2.761900
47.513900 2.761900
47.566700 2.564500
47.619400 1.323900
47.672200 1.876700
47.724900 3.993800
47.777700 4.124600
47.830400 3.482800
47.883200 3.209600
47.935900 2.537500
47.988700 2.650500
48.041400 3.164900
48.094200 3.289000
48.146900 3.611700
48.199700 2.324400
48.252400 1.363600
48.305200 2.131100
48.357900 2.138900
48.410700 2.449200
48.463400 1.999700
48.516200 2.468900
48.568900 3.011900
48.621700 2.916500
48.674400 1.684500
48.727200 1.733600
48.779900 2.858500
48.832700 3.362200
48.885400 3.297000
48.938200 3.866800
48.990900 3.120700
49.043700 2.478200
49.096400 3.887800
49.149200 3.786500
49.201900 2.108700
49.254700 1.531000
49.307400 1.301700
49.360200 1.534800
49.412900 1.381400
49.465700 1.336100
49.518400 2.426200
49.571200 2.291500
49.623900 1.752400
49.676700 2.115500
49.729400 1.699700
49.782200 2.195600
49.834900 1.931500
49.887700 1.140100
49.940400 1.207900
49.993200 2.273200
50.045900 3.220600
50.098700 3.585000
50.151400 2.893700
50.204200 1.673900
50.256900 1.081700
50.309700 2.663400
50.362400 4.013000
50.415200 2.974300
50.467900 2.190000
50.520700 2.605600
50.573400 2.703700
50.626200 2.214000
50.678900 2.126100
50.731700 2.959200
50.784400 2.917300
50.837200 2.044500
50.889900 2.407500
50.942700 2.589800
50.995400 1.680600
51.048200 1.499800
51.100900 1.634200
51.153700 1.993300
51.206400 2.930100
51.259200 2.790200
51.311900 2.724700
51.364700 3.645100
51.417400 2.861400
51.470200 2.006300
51.522900 1.927600
51.575700 2.366500
51.628400 1.920400
51.681200 1.282500
51.733900 1.808100
51.786700 1.819500
51.839400 1.348700
51.892200 2.638700
51.944900 2.788000
51.997700 3.319700
52.050400 2.870100
52.103200 1.435300
52.155900 1.422800
52.208700 1.405900
52.261400 1.709000
52.314200 2.189300
52.366900 2.890700
52.419700 3.234400
52.472400 2.754200
52.525200 2.403200
52.577900 2.041800
52.630700 2.136300
52.683400 1.570500
52.736200 1.508500
52.788900 2.018900
52.841700 1.806300
52.894400 1.629200
52.947200 1.742700
52.999900 1.935500
53.052700 3.052400
53.105400 2.874900
53.158200 2.155900
53.210900 1.609300
53.263700 2.238000
53.316400 2.919800
53.369200 2.772100
53.421900 3.086400
53.474700 3.032300
53.527400 2.058400
53.580200 1.628900
53.632900 1.376200
53.685700 1.942400
53.738400 3.346900
53.791200 2.483000
53.843900 1.999000
53.896700 2.595100
53.949400 3.030300
54.002200 2.518600
54.054900 2.835300
54.107700 3.125900
54.160400 3.042500
54.213200 3.519300
54.265900 3.202000
54.318700 2.349800
54.371400 2.477800
54.424200 2.552100
54.476900 2.508800
54.529700 3.276300
54.582400 3.825300
54.635200 2.452100
54.687900 1.378500
54.740700 2.068400
54.793400 3.096200
54.846200 3.129200
54.898900 2.866400
54.951700 2.094100
55.004400 2.169300
55.057200 3.316400
55.109900 4.193900
55.162700 3.447500
55.215400 2.023400
55.268200 1.870400
55.320900 2.251600
55.373700 3.142200
55.426400 3.628100
55.479200 3.142800
55.531900 2.264700
55.584700 2.288900
55.637400 2.307900
55.690200 2.070600
55.742900 2.299500
55.795700 3.203400
55.848400 2.410800
55.901200 2.787400
55.953900 2.604500
56.006700 1.160800
56.059400 0.951500
56.112200 1.972100
56.164900 1.855700
56.217700 1.514800
56.270400 1.648300
56.323200 2.169500
56.375900 1.905300
56.428700 2.615300
56.481400 4.128000
56.534200 3.423100
56.586900 1.800200
56.639700 2.590000
56.692400 3.411700
56.745200 2.796700
56.797900 2.339700
56.850700 1.796900
56.903400 2.405800
56.956200 3.634800
57.008900 2.983700
57.061700 2.404200
57.114400 2.559600
57.167200 1.857700
57.219900 2.463600
57.272700 2.933800
57.325400 4.006100
57.378200 3.252700
57.430900 2.940000
57.483700 3.433300
57.536400 4.342500
57.589200 2.389600
57.641900 1.542500
57.694700 3.046000
57.747400 2.865700
57.800200 1.850900
57.852900 3.414700
57.905700 3.539600
57.958400 2.543300
58.011200 1.898400
58.063900 1.462400
58.116700 1.469500
58.169400 2.520100
58.222200 2.433400
58.274900 1.660600
58.327700 2.349100
58.380400 1.802100
58.433200 1.634300
58.485900 2.396900
58.538700 1.880200
58.591400 2.374600
58.644200 2.348000
58.696900 2.326300
58.749700 2.966700
58.802400 3.094200
58.855200 3.281100
58.907900 2.320800
58.960700 2.926200
59.013400 3.688300
59.066200 3.742800
59.118900 4.381400
59.171700 3.523200
59.224500 2.495300
59.277200 1.046300
59.330000 0.954300
59.382700 2.113100
59.435500 2.368600
59.488200 2.534500
59.541000 1.676100
59.593700 1.720800
59.646500 2.375900
59.699200 1.392400
59.752000 2.291400
59.804700 3.195400
59.857500 1.964100
59.910200 1.957100
59.963000 2.675000
60.015700 3.511300
60.068500 2.901200
60.121200 2.217800
60.174000 1.731100
60.226700 1.318900
60.279500 0.965400
60.332200 1.048800
60.385000 1.757200
60.437700 2.634700
60.490500 2.230700
60.543200 2.299500
60.596000 3.250900
60.648700 3.879700
60.701500 2.662800
60.754200 1.654500
60.807000 2.078500
60.859700 2.434200
60.912500 2.570000
60.965200 4.464000
61.018000 4.354600
61.070700 3.484100
61.123500 3.265400
61.176200 2.538200
61.229000 1.645500
61.281700 1.891600
61.334500 3.122700
61.387200 2.674200
61.440000 1.143800
61.492700 1.984400
61.545500 2.611900
61.598200 3.049200
61.651000 4.601900
61.703700 2.492600
61.756500 1.688800
61.809200 2.806100
61.862000 3.856300
61.914700 3.909000
61.967500 3.274300
62.020200 1.828200
62.073000 1.117800
62.125700 1.561400
62.178500 2.759200
62.231200 2.353900
62.284000 2.389500
62.336700 3.561600
62.389500 2.942000
62.442200 3.056400
62.495000 2.772500
62.547700 2.854700
62.600500 3.432700
62.653200 4.344900
62.706000 3.775300
62.758700 1.663800
62.811500 1.617400
62.864200 1.911000
62.917000 2.693400
62.969700 5.513900
63.022500 4.808100
63.075200 2.487300
63.128000 1.233000
63.180700 1.517300
63.233500 3.450200
63.286200 4.653400
63.339000 3.993600
63.391700 2.101500
63.444500 1.523900
63.497200 2.066100
63.550000 1.679700
63.602700 0.887600
63.655500 1.847100
63.708200 1.729900
63.761000 2.384000
63.813700 3.100200
63.866500 3.785800
63.919200 5.578100
63.972000 4.047900
64.024700 2.420500
64.077500 2.778200
64.130200 2.649300
64.183000 2.044500
64.235700 2.411900
64.288500 2.100400
64.341200 3.339900
64.394000 3.297100
64.446700 2.103900
64.499500 2.245600
64.552200 3.130400
64.605000 2.881100
64.657700 3.018800
64.710500 3.882700
64.763200 3.683500
64.816000 2.816500
64.868700 2.086000
64.921500 1.706800
64.974200 1.821100
65.027000 2.661200
65.079700 2.347600
65.132500 1.179400
65.185200 1.595200
65.238000 2.615800
65.290700 2.880400
65.343500 2.366200
65.396200 3.121500
65.449000 3.201400
65.501700 2.516200
65.554500 1.337000
65.607200 1.737800
65.660000 1.851800
65.712700 2.324400
65.765500 2.449100
65.818200 1.972200
65.871000 2.870200
65.923700 1.994400
65.976500 1.853900
66.029200 2.552200
66.082000 3.164100
66.134700 2.857900
66.187500 2.185900
66.240200 2.525800
66.293000 2.819900
66.345700 3.106300
66.398500 2.806900
66.451200 2.373600
66.504000 1.807000
66.556700 2.255400
66.609500 2.061500
66.662200 2.812800
66.715000 3.784100
66.767700 3.169800
66.820500 2.698900
66.873200 2.765300
66.926000 1.768800
66.978700 2.407600
67.031500 2.914000
67.084200 3.381700
67.137000 4.460100
67.189700 5.069800
67.242500 4.516600
67.295200 4.446500
67.348000 3.805600
67.400700 2.579300
67.453500 2.836200
67.506200 3.132100
67.559000 2.710000
67.611700 3.839200
67.664500 3.629700
67.717200 1.716900
67.770000 1.928200
67.822700 3.131300
67.875500 2.619500
67.928200 2.231400
67.981000 2.203300
68.033700 1.968900
68.086500 1.590800
68.139200 2.067500
68.192000 2.641300
68.244700 3.491400
68.297500 3.913500
68.350200 1.615500
68.403000 0.995600
68.455700 1.584300
68.508500 2.604100
68.561200 2.470100
68.614000 1.458500
68.666700 1.012100
68.719500 2.797100
68.772200 4.811300
68.825000 3.478700
68.877700 2.384500
68.930500 2.281800
68.983200 3.576800
69.036000 4.327600
69.088700 3.908600
69.141500 2.435200
69.194200 2.071700
69.247000 1.804600
69.299700 1.650400
69.352500 1.985300
69.405200 2.011900
69.458000 1.446400
69.510700 2.619200
69.563500 3.094700
69.616200 3.168500
69.669000 3.029500
69.721700 3.232100
69.774500 4.085300
69.827200 3.909600
69.880000 2.773400
69.932700 2.542000
69.985500 2.418500
70.038200 2.642000
70.091000 2.999600
70.143700 3.181600
70.196500 3.359300
70.249200 2.601900
70.302000 1.358700
70.354700 1.810400
70.407500 2.782600
70.460200 3.161000
70.513000 3.894200
70.565700 3.920400
70.618500 2.539700
70.671200 1.918100
70.724000 3.331300
70.776700 4.193900
70.829500 4.218700
70.882200 2.660100
70.935000 3.246600
70.987700 4.354000
71.040500 3.123000
71.093200 2.641900
71.146000 3.020800
71.198700 2.694000
71.251500 1.668700
71.304200 2.450400
71.357000 3.457600
71.409700 3.373100
71.462500 3.956500
71.515200 4.902100
71.568000 3.266600
71.620700 1.887600
71.673500 2.501400
71.726200 2.989900
71.779000 3.234600
71.831700 3.409300
71.884500 3.450900
71.937200 2.921600
71.990000 2.208500
72.042700 2.060300
72.095500 2.354400
72.148200 2.412900
72.201000 2.255100
72.253700 2.495200
72.306500 1.974800
72.359200 1.636000
72.412000 1.894500
72.464700 1.926300
72.517500 2.406700
72.570200 3.624300
72.623000 3.436200
72.675700 2.523100
72.728500 2.360000
72.781200 2.791100
72.834000 3.237300
72.886700 3.446900
72.939500 3.029600
72.992200 4.379500
73.045000 4.171100
73.097700 3.072600
73.150500 3.178100
73.203200 3.025200
73.256000 2.348800
73.308800 2.426600
73.361500 2.587400
73.414300 1.761900
73.467000 1.347200
73.519800 1.742800
73.572500 2.850700
73.625300 2.834000
73.678000 2.697600
73.730800 2.480000
73.783500 3.192800
73.836300 3.728400
73.889000 3.025500
73.941800 2.735400
73.994500 3.200100
74.047300 2.566400
74.100000 2.533500
74.152800 2.109000
74.205500 2.197700
74.258300 2.984800
74.311000 2.255400
74.363800 1.758200
74.416500 2.396500
74.469300 2.339300
74.522000 1.754500
74.574800 2.483900
74.627500 4.076400
74.680300 3.958600
74.733000 2.501200
74.785800 2.683600
74.838500 2.572900
74.891300 2.866500
74.944000 2.531400
74.996800 2.323200
75.049500 2.142100
75.102300 2.254800
75.155000 2.373000
75.207800 2.240600
75.260500 2.907000
75.313300 2.487100
75.366000 1.702300
75.418800 2.028000
75.471500 2.444600
75.524300 3.606000
75.577000 3.765700
75.629800 2.136400
75.682500 1.808100
75.735300 1.783900
75.788000 1.920700
75.840800 1.503200
75.893500 1.196000
75.946300 1.404700
75.999000 1.756800
76.051800 1.484400
76.104500 0.516100
76.157300 0.779000
76.210000 1.038200
76.262800 0.508100
76.315500 0.515900
76.368300 1.289900
76.421000 2.087000
76.473800 1.998800
76.526500 1.424900
76.579300 1.057200
76.632000 1.110800
76.684800 1.298900
76.737500 1.424400
76.790300 1.068600
76.843000 1.217200
76.895800 0.825600
76.948500 0.173800
77.001300 0.105000
77.054000 0.380900
77.106800 0.869900
77.159500 0.932500
77.212300 0.443300
77.265000 0.526800
77.317800 0.889900
77.370500 0.600100
77.423300 0.417400
77.476000 0.188700
77.528800 0.144300
77.581500 0.531500
77.634300 0.943500
77.687000 0.640000
77.739800 0.221900
77.792500 0.019100
77.845300 0.029500
77.898000 0.313500
77.950800 0.669400
78.003500 0.508200
78.056300 0.227300
78.109000 0.028400
78.161800 0.000600
78.214500 0.000000
78.267300 0.000000
78.320000 0.000000
78.372800 0.000000
78.425500 0.000000
78.478300 0.000000
78.531000 0.000000
78.583800 0.000000
78.636500 0.000000
78.689300 0.000000
78.742000 0.000000
78.794800 0.000000
78.847500 0.000000
78.900300 0.000000
78.953000 0.000000
79.005800 0.000000
79.058500 0.000000
79.111300 0.000000
79.164000 0.000000
79.216800 0.000000
79.269500 0.000000
79.322300 0.000000
79.375000 0.000000
79.427800 0.000000
79.480500 0.000000
79.533300 0.000000
79.586000 0.000000
79.638800 0.000000
79.691500 0.000000
79.744300 0.000000
79.797000 0.000000
79.849800 0.000000
79.902500 0.000000
79.955300 0.000000
80.008000 0.000000
80.060800 0.000000
80.113500 0.000000
80.166300 0.000000
80.219000 0.000000
80.271800 0.000000
80.324500 0.000000
80.377300 0.000000
80.430000 0.000000
80.482800 0.000000
80.535500 0.000000
80.588300 0.000000
80.641000 0.000000
80.693800 0.000000
80.746500 0.000000
80.799300 0.000000
80.852000 0.000000
80.904800 0.000000
80.957500 0.000000
81.010300 0.000000
81.063000 0.000000
81.115800 0.000000
81.168500 0.000000
81.221300 0.000000
81.274000 0.000000
81.326800 0.000000
81.379500 0.000000
81.432300 0.000000
81.485000 0.000000
81.537800 0.000000
81.590500 0.000000
81.643300 0.000000
81.696000 0.000000
81.748800 0.000000
81.801500 0.000000
81.854300 0.000000
81.907000 0.000000
81.959800 0.000000
82.012500 0.000000
82.065300 0.000000
82.118000 0.000000
82.170800 0.000000
82.223500 0.000000
82.276300 0.000000
82.329000 0.000000
82.381800 0.000000
82.434500 0.000000
82.487300 0.000000
82.540000 0.000000
82.592800 0.000000
82.645500 0.000000
82.698300 0.000000
82.751000 0.000000
82.803800 0.000000
e
