set title 'mp-1092293 - Density of States'
set xlabel 'Energy (eV)'
set ylabel 'DOS (states/eV)'
set grid
set xrange [-10:10]
set yrange [0:10.720]
set xzeroaxis lt -1
set terminal png size 800,600
set output 'mp-1092293_dos_gnuplot.png'
plot '-' using 1:2 with lines title 'DOS'
-8.426400 0.000000
-8.408500 0.000000
-8.390600 0.000000
-8.372800 0.000000
-8.354900 0.000000
-8.337000 0.000000
-8.319200 0.000000
-8.301300 0.000000
-8.283400 0.000000
-8.265500 0.000000
-8.247700 0.000000
-8.229800 0.000000
-8.211900 0.000000
-8.194100 0.000000
-8.176200 0.000000
-8.158300 0.000000
-8.140400 0.000000
-8.122600 0.000000
-8.104700 0.000000
-8.086800 0.000000
-8.068900 0.000000
-8.051100 0.000000
-8.033200 0.000000
-8.015300 0.000000
-7.997500 0.000000
-7.979600 0.000000
-7.961700 0.000000
-7.943800 0.000000
-7.926000 0.000000
-7.908100 0.000000
-7.890200 0.000000
-7.872400 0.000000
-7.854500 0.000000
-7.836600 0.000000
-7.818700 0.000000
-7.800900 0.000000
-7.783000 0.000000
-7.765100 0.000000
-7.747200 0.000000
-7.729400 0.000000
-7.711500 0.000000
-7.693600 0.000000
-7.675800 0.000000
-7.657900 0.000000
-7.640000 0.000000
-7.622100 0.000000
-7.604300 0.000000
-7.586400 0.000000
-7.568500 0.000000
-7.550700 0.000000
-7.532800 0.000000
-7.514900 0.000000
-7.497000 0.000000
-7.479200 0.000000
-7.461300 0.000000
-7.443400 0.000000
-7.425500 0.000000
-7.407700 0.000000
-7.389800 0.000000
-7.371900 0.000000
-7.354100 0.000000
-7.336200 0.000000
-7.318300 0.000000
-7.300400 0.000000
-7.282600 0.000000
-7.264700 0.000000
-7.246800 0.000000
-7.229000 0.000000
-7.211100 0.000000
-7.193200 0.000000
-7.175300 0.000000
-7.157500 0.000000
-7.139600 0.000000
-7.121700 0.000000
-7.103800 0.000000
-7.086000 0.000000
-7.068100 0.000000
-7.050200 0.000000
-7.032400 0.000000
-7.014500 0.000000
-6.996600 0.000000
-6.978700 0.000000
-6.960900 0.000000
-6.943000 0.000000
-6.925100 0.000000
-6.907300 0.000000
-6.889400 0.000000
-6.871500 0.000000
-6.853600 0.000000
-6.835800 0.000000
-6.817900 0.000000
-6.800000 0.000100
-6.782100 0.013600
-6.764300 0.049900
-6.746400 0.109200
-6.728500 0.165000
-6.710700 0.189400
-6.692800 0.201400
-6.674900 0.205800
-6.657000 0.226300
-6.639200 0.248400
-6.621300 0.271300
-6.603400 0.294100
-6.585600 0.315500
-6.567700 0.333000
-6.549800 0.346100
-6.531900 0.355700
-6.514100 0.364300
-6.496200 0.375000
-6.478300 0.388800
-6.460400 0.403000
-6.442600 0.417400
-6.424700 0.431800
-6.406800 0.446300
-6.389000 0.460300
-6.371100 0.473700
-6.353200 0.487400
-6.335300 0.500900
-6.317500 0.513600
-6.299600 0.526000
-6.281700 0.539000
-6.263900 0.553000
-6.246000 0.567900
-6.228100 0.583600
-6.210200 0.599100
-6.192400 0.614600
-6.174500 0.630300
-6.156600 0.646400
-6.138700 0.662700
-6.120900 0.679400
-6.103000 0.696700
-6.085100 0.714700
-6.067300 0.732600
-6.049400 0.750500
-6.031500 0.765900
-6.013600 0.774500
-5.995800 0.776600
-5.977900 0.778100
-5.960000 0.784200
-5.942200 0.789900
-5.924300 0.795300
-5.906400 0.800200
-5.888500 0.804800
-5.870700 0.809000
-5.852800 0.813000
-5.834900 0.818100
-5.817000 0.825200
-5.799200 0.832500
-5.781300 0.839900
-5.763400 0.847600
-5.745600 0.855400
-5.727700 0.863200
-5.709800 0.871200
-5.691900 0.879200
-5.674100 0.887400
-5.656200 0.895800
-5.638300 0.905600
-5.620500 0.926500
-5.602600 0.956000
-5.584700 0.980400
-5.566800 1.007400
-5.549000 1.036900
-5.531100 1.068100
-5.513200 1.099800
-5.495300 1.131400
-5.477500 1.163600
-5.459600 1.196500
-5.441700 1.230400
-5.423900 1.266000
-5.406000 1.303400
-5.388100 1.341300
-5.370200 1.379700
-5.352400 1.418900
-5.334500 1.458800
-5.316600 1.499300
-5.298800 1.538700
-5.280900 1.581200
-5.263000 1.632700
-5.245100 1.686300
-5.227300 1.742500
-5.209400 1.805300
-5.191500 1.873500
-5.173600 1.946400
-5.155800 2.021400
-5.137900 2.116400
-5.120000 2.260000
-5.102200 2.355500
-5.084300 2.471900
-5.066400 2.578700
-5.048500 2.679100
-5.030700 2.766000
-5.012800 2.823300
-4.994900 2.886500
-4.977100 3.060500
-4.959200 2.667300
-4.941300 2.676800
-4.923400 2.710500
-4.905600 2.680100
-4.887700 2.621200
-4.869800 2.661800
-4.851900 2.687900
-4.834100 2.700000
-4.816200 2.723900
-4.798300 2.762500
-4.780500 2.784200
-4.762600 2.803000
-4.744700 2.762800
-4.726800 2.885500
-4.709000 3.007100
-4.691100 2.684600
-4.673200 2.591100
-4.655400 2.888800
-4.637500 3.386400
-4.619600 4.236600
-4.601700 4.484500
-4.583900 4.367500
-4.566000 4.318300
-4.548100 4.466000
-4.530200 4.555200
-4.512400 4.443600
-4.494500 5.073400
-4.476600 3.715900
-4.458800 3.400300
-4.440900 3.200400
-4.423000 3.260900
-4.405100 3.327200
-4.387300 3.556600
-4.369400 3.051300
-4.351500 2.739800
-4.333600 2.488900
-4.315800 2.330000
-4.297900 1.943500
-4.280000 1.354600
-4.262200 1.005800
-4.244300 0.000000
-4.226400 0.000000
-4.208500 0.000000
-4.190700 0.000000
-4.172800 0.000000
-4.154900 0.000000
-4.137100 0.000000
-4.119200 0.000000
-4.101300 0.000000
-4.083400 0.000000
-4.065600 0.000000
-4.047700 0.000000
-4.029800 0.000000
-4.011900 0.000000
-3.994100 0.000000
-3.976200 0.000000
-3.958300 0.000000
-3.940500 0.000000
-3.922600 0.000000
-3.904700 0.000000
-3.886800 0.000000
-3.869000 0.000000
-3.851100 0.000000
-3.833200 0.000000
-3.815400 0.000000
-3.797500 0.000000
-3.779600 0.000000
-3.761700 0.000000
-3.743900 0.000000
-3.726000 0.000000
-3.708100 0.000000
-3.690200 0.000000
-3.672400 0.000000
-3.654500 0.000000
-3.636600 0.000000
-3.618800 0.000000
-3.600900 0.000000
-3.583000 0.000000
-3.565100 0.000000
-3.547300 0.000000
-3.529400 0.000000
-3.511500 0.000000
-3.493700 0.000000
-3.475800 0.000000
-3.457900 0.000000
-3.440000 0.000000
-3.422200 0.000000
-3.404300 0.000000
-3.386400 0.000000
-3.368500 0.000000
-3.350700 0.000000
-3.332800 0.000000
-3.314900 0.000000
-3.297100 0.000000
-3.279200 0.000000
-3.261300 0.000000
-3.243400 0.000000
-3.225600 0.000000
-3.207700 0.000000
-3.189800 0.000000
-3.172000 0.000000
-3.154100 0.000000
-3.136200 0.000000
-3.118300 0.000000
-3.100500 0.000000
-3.082600 0.000000
-3.064700 0.000000
-3.046800 0.000000
-3.029000 0.000000
-3.011100 0.000000
-2.993200 0.000000
-2.975400 0.000000
-2.957500 0.000000
-2.939600 0.000000
-2.921700 0.000000
-2.903900 0.000000
-2.886000 0.000000
-2.868100 0.000000
-2.850300 0.000000
-2.832400 0.000000
-2.814500 0.000000
-2.796600 0.000000
-2.778800 0.000000
-2.760900 0.000000
-2.743000 0.000000
-2.725100 0.000000
-2.707300 0.000000
-2.689400 0.000000
-2.671500 0.000000
-2.653700 0.000000
-2.635800 0.000000
-2.617900 0.000000
-2.600000 0.000000
-2.582200 0.000000
-2.564300 0.000000
-2.546400 0.000000
-2.528600 0.000000
-2.510700 0.000000
-2.492800 0.000000
-2.474900 0.000000
-2.457100 0.000000
-2.439200 0.000000
-2.421300 0.000000
-2.403400 0.000000
-2.385600 0.000000
-2.367700 0.000000
-2.349800 0.000000
-2.332000 0.000000
-2.314100 0.000000
-2.296200 0.000000
-2.278300 0.000000
-2.260500 0.000000
-2.242600 0.000000
-2.224700 0.000000
-2.206900 0.000000
-2.189000 0.000000
-2.171100 0.000000
-2.153200 0.000000
-2.135400 0.000000
-2.117500 0.000000
-2.099600 0.000000
-2.081700 0.000000
-2.063900 0.000000
-2.046000 0.000000
-2.028100 0.000000
-2.010300 0.000000
-1.992400 0.000000
-1.974500 0.000000
-1.956600 0.000000
-1.938800 0.000000
-1.920900 0.000000
-1.903000 0.000000
-1.885200 0.000000
-1.867300 0.000000
-1.849400 0.000000
-1.831500 0.000000
-1.813700 0.000000
-1.795800 0.000000
-1.777900 0.000000
-1.760000 0.000000
-1.742200 0.000000
-1.724300 0.000000
-1.706400 0.000000
-1.688600 0.000000
-1.670700 0.000000
-1.652800 0.000000
-1.634900 0.000000
-1.617100 0.000000
-1.599200 0.000000
-1.581300 0.000000
-1.563500 0.000000
-1.545600 0.000000
-1.527700 0.000000
-1.509800 0.000000
-1.492000 0.000000
-1.474100 0.000000
-1.456200 0.000000
-1.438300 0.000000
-1.420500 0.000000
-1.402600 0.000000
-1.384700 0.000000
-1.366900 0.000000
-1.349000 0.000000
-1.331100 0.000000
-1.313200 0.000000
-1.295400 0.000000
-1.277500 0.000000
-1.259600 0.000000
-1.241800 0.000000
-1.223900 0.000000
-1.206000 0.000000
-1.188100 0.000000
-1.170300 0.000000
-1.152400 0.000000
-1.134500 0.000000
-1.116600 0.000000
-1.098800 0.000000
-1.080900 0.000000
-1.063000 0.000000
-1.045200 0.000000
-1.027300 0.000000
-1.009400 0.000000
-0.991500 0.000000
-0.973700 0.000000
-0.955800 0.000000
-0.937900 0.000000
-0.920100 0.000000
-0.902200 0.000000
-0.884300 0.000000
-0.866400 0.000000
-0.848600 0.000000
-0.830700 0.000000
-0.812800 0.000000
-0.794900 0.000000
-0.777100 0.000000
-0.759200 0.000000
-0.741300 0.000000
-0.723500 0.000000
-0.705600 0.000000
-0.687700 0.000000
-0.669800 0.000000
-0.652000 0.000000
-0.634100 0.000000
-0.616200 0.000000
-0.598400 0.000000
-0.580500 0.000000
-0.562600 0.000000
-0.544700 0.000000
-0.526900 0.000000
-0.509000 0.000000
-0.491100 0.000000
-0.473200 0.000000
-0.455400 0.000000
-0.437500 0.000000
-0.419600 0.000000
-0.401800 0.000000
-0.383900 0.000000
-0.366000 0.000000
-0.348100 0.000000
-0.330300 0.000000
-0.312400 0.000000
-0.294500 0.000000
-0.276700 0.000000
-0.258800 0.000000
-0.240900 0.000000
-0.223000 0.000000
-0.205200 0.000000
-0.187300 0.000000
-0.169400 0.000000
-0.151500 0.000000
-0.133700 0.000000
-0.115800 0.000000
-0.097900 0.000000
-0.080100 0.000000
-0.062200 0.000000
-0.044300 0.000000
-0.026400 0.000000
-0.008600 0.000000
0.009300 0.000000
0.027200 0.000000
0.045000 0.000000
0.062900 0.000000
0.080800 0.000000
0.098700 0.000000
0.116500 0.000000
0.134400 0.000000
0.152300 0.000000
0.170200 0.000000
0.188000 0.000000
0.205900 0.000000
0.223800 0.000000
0.241600 0.000000
0.259500 0.000000
0.277400 0.000200
0.295300 0.028600
0.313100 0.158900
0.331000 0.226800
0.348900 0.259100
0.366700 0.285000
0.384600 0.317400
0.402500 0.358800
0.420400 0.407400
0.438200 0.461200
0.456100 0.711300
0.474000 0.678900
0.491900 0.764300
0.509700 0.861000
0.527600 0.980600
0.545500 1.036100
0.563300 1.015100
0.581200 1.066700
0.599100 1.138100
0.617000 1.209100
0.634800 1.291300
0.652700 1.382300
0.670600 1.427900
0.688400 1.427900
0.706300 1.451300
0.724200 1.488600
0.742100 1.525500
0.759900 1.563900
0.777800 1.640000
0.795700 1.695200
0.813600 1.737600
0.831400 1.859300
0.849300 1.982800
0.867200 2.105500
0.885000 2.187800
0.902900 2.209900
0.920800 2.260600
0.938700 2.285600
0.956500 2.344800
0.974400 2.267700
0.992300 2.193300
1.010100 2.154900
1.028000 2.141400
1.045900 2.141800
1.063800 2.167500
1.081600 2.189600
1.099500 2.160300
1.117400 2.133700
1.135300 2.080200
1.153100 2.047400
1.171000 2.026700
1.188900 2.009800
1.206700 1.993800
1.224600 2.000700
1.242500 2.026000
1.260400 2.055600
1.278200 2.020700
1.296100 2.016700
1.314000 2.033700
1.331800 2.097500
1.349700 2.337100
1.367600 2.378200
1.385500 2.432200
1.403300 2.565600
1.421200 2.699200
1.439100 2.642900
1.457000 2.579200
1.474800 2.670800
1.492700 2.760400
1.510600 3.525900
1.528400 3.566700
1.546300 3.545400
1.564200 3.545000
1.582100 3.438900
1.599900 3.338800
1.617800 3.213200
1.635700 3.191100
1.653600 3.159900
1.671400 3.128800
1.689300 3.113300
1.707200 3.200000
1.725000 3.171000
1.742900 3.423500
1.760800 3.431900
1.778700 3.331000
1.796500 3.328300
1.814400 3.284800
1.832300 3.240400
1.850100 3.268200
1.868000 3.799800
1.885900 4.233500
1.903800 4.505600
1.921600 4.705700
1.939500 5.138500
1.957400 5.573500
1.975300 5.487400
1.993100 5.297700
2.011000 5.509400
2.028900 4.988200
2.046700 5.641100
2.064600 6.510400
2.082500 6.100700
2.100400 5.482100
2.118200 5.382900
2.136100 5.706200
2.154000 6.082600
2.171800 7.306500
2.189700 8.762600
2.207600 9.745500
2.225500 9.394900
2.243300 8.591900
2.261200 6.750800
2.279100 5.287400
2.297000 4.392900
2.314800 2.128300
2.332700 1.315700
2.350600 1.268000
2.368400 1.385600
2.386300 1.555800
2.404200 2.041200
2.422100 2.268900
2.439900 2.628800
2.457800 3.322600
2.475700 4.149400
2.493500 4.575300
2.511400 4.812000
2.529300 4.953600
2.547200 5.501500
2.565000 5.804100
2.582900 6.174100
2.600800 6.325800
2.618700 6.179700
2.636500 5.556100
2.654400 4.868000
2.672300 4.381500
2.690100 4.080000
2.708000 4.268200
2.725900 4.541300
2.743800 4.869800
2.761600 5.517300
2.779500 5.608100
2.797400 6.512400
2.815200 7.246200
2.833100 7.320800
2.851000 7.800300
2.868900 7.262000
2.886700 5.644200
2.904600 5.367200
2.922500 4.857100
2.940400 4.485200
2.958200 4.482000
2.976100 4.685700
2.994000 4.996000
3.011800 5.443500
3.029700 5.599300
3.047600 5.265500
3.065500 4.868400
3.083300 4.561600
3.101200 4.014600
3.119100 4.386300
3.136900 2.545100
3.154800 2.444900
3.172700 2.905600
3.190600 2.486600
3.208400 2.511200
3.226300 3.805600
3.244200 5.444800
3.262100 7.062100
3.279900 5.244300
3.297800 4.369200
3.315700 3.777100
3.333500 3.645500
3.351400 3.310700
3.369300 3.164600
3.387200 3.390800
3.405000 3.935300
3.422900 4.514600
3.440800 4.676100
3.458600 4.690000
3.476500 4.734200
3.494400 4.998600
3.512300 5.664000
3.530100 7.444500
3.548000 6.292200
3.565900 5.579600
3.583800 4.216600
3.601600 3.698700
3.619500 3.465500
3.637400 3.054600
3.655200 2.669500
3.673100 2.429900
3.691000 2.331700
3.708900 2.318400
3.726700 2.455000
3.744600 2.293500
3.762500 2.214500
3.780300 2.074700
3.798200 1.913400
3.816100 1.833600
3.834000 1.766000
3.851800 1.711700
3.869700 1.673600
3.887600 1.626000
3.905500 1.582500
3.923300 1.550600
3.941200 1.532500
3.959100 1.528200
3.976900 1.514500
3.994800 1.499900
4.012700 1.497000
4.030600 1.529200
4.048400 1.558800
4.066300 1.582600
4.084200 1.599800
4.102000 1.622600
4.119900 1.598000
4.137800 1.554700
4.155700 1.507800
4.173500 1.487400
4.191400 1.469100
4.209300 1.458300
4.227200 1.471200
4.245000 1.510600
4.262900 1.560800
4.280800 1.607600
4.298600 1.642600
4.316500 1.767600
4.334400 1.771400
4.352300 1.716300
4.370100 1.772500
4.388000 1.856200
4.405900 1.941400
4.423700 2.086700
4.441600 2.078300
4.459500 2.067800
4.477400 2.086300
4.495200 2.112000
4.513100 2.127600
4.531000 2.134700
4.548900 2.136800
4.566700 2.129700
4.584600 2.115600
4.602500 2.103700
4.620300 2.092300
4.638200 2.084800
4.656100 2.084200
4.674000 2.084200
4.691800 2.081100
4.709700 2.074900
4.727600 2.065900
4.745400 2.044200
4.763300 2.005700
4.781200 1.968500
4.799100 1.928900
4.816900 1.894900
4.834800 1.842600
4.852700 1.815900
4.870600 1.794300
4.888400 1.775800
4.906300 1.759500
4.924200 1.746800
4.942000 1.737000
4.959900 1.729100
4.977800 1.725800
4.995700 1.723800
5.013500 1.718200
5.031400 1.715000
5.049300 1.714300
5.067100 1.711200
5.085000 1.701600
5.102900 1.691100
5.120800 1.681000
5.138600 1.672600
5.156500 1.667800
5.174400 1.667200
5.192300 1.660300
5.210100 1.654200
5.228000 1.641400
5.245900 1.629500
5.263700 1.633800
5.281600 1.625700
5.299500 1.635100
5.317400 1.657300
5.335200 1.683000
5.353100 1.712000
5.371000 1.743700
5.388800 1.769400
5.406700 1.786000
5.424600 1.806100
5.442500 1.830600
5.460300 1.858700
5.478200 1.885100
5.496100 1.930800
5.514000 1.990700
5.531800 2.045400
5.549700 2.076700
5.567600 2.102500
5.585400 2.089700
5.603300 2.070700
5.621200 2.055800
5.639100 2.044300
5.656900 2.043400
5.674800 2.058900
5.692700 2.031300
5.710500 2.009000
5.728400 2.000500
5.746300 2.001400
5.764200 2.004900
5.782000 1.998200
5.799900 1.987300
5.817800 1.968700
5.835700 1.946700
5.853500 1.919900
5.871400 1.872200
5.889300 1.818300
5.907100 1.770600
5.925000 1.729700
5.942900 1.693900
5.960800 1.662700
5.978600 1.635700
5.996500 1.612000
6.014400 1.591700
6.032200 1.576200
6.050100 1.581600
6.068000 1.594600
6.085900 1.590500
6.103700 1.573000
6.121600 1.552000
6.139500 1.532000
6.157400 1.511700
6.175200 1.490100
6.193100 1.468200
6.211000 1.444700
6.228800 1.423600
6.246700 1.402600
6.264600 1.381500
6.282500 1.368900
6.300300 1.358400
6.318200 1.346500
6.336100 1.333300
6.353900 1.321300
6.371800 1.314400
6.389700 1.315900
6.407600 1.309700
6.425400 1.249600
6.443300 1.195900
6.461200 1.173900
6.479100 1.156700
6.496900 1.141300
6.514800 1.126900
6.532700 1.114900
6.550500 1.108700
6.568400 1.106300
6.586300 1.105600
6.604200 1.118200
6.622000 1.149900
6.639900 1.130700
6.657800 1.115600
6.675600 1.118200
6.693500 1.126900
6.711400 1.141600
6.729300 1.160400
6.747100 1.177700
6.765000 1.190300
6.782900 1.198300
6.800800 1.204200
6.818600 1.241300
6.836500 1.284400
6.854400 1.258000
6.872200 1.270900
6.890100 1.312600
6.908000 1.368100
6.925900 1.389700
6.943700 1.412000
6.961600 1.461400
6.979500 1.520900
6.997300 1.589800
7.015200 1.672500
7.033100 1.656200
7.051000 1.626100
7.068800 1.603500
7.086700 1.599600
7.104600 1.593400
7.122500 1.586700
7.140300 1.579700
7.158200 1.575200
7.176100 1.571600
7.193900 1.574000
7.211800 1.528100
7.229700 1.481700
7.247600 1.465900
7.265400 1.470700
7.283300 1.488200
7.301200 1.509600
7.319000 1.539900
7.336900 1.583700
7.354800 1.605300
7.372700 1.619500
7.390500 1.627400
7.408400 1.638100
7.426300 1.650000
7.444200 1.669500
7.462000 1.639000
7.479900 1.637100
7.497800 1.655800
7.515600 1.701200
7.533500 1.713000
7.551400 1.726400
7.569300 1.741200
7.587100 1.748300
7.605000 1.762800
7.622900 1.783000
7.640800 1.785000
7.658600 1.802000
7.676500 1.847200
7.694400 1.894600
7.712200 1.897600
7.730100 1.893000
7.748000 1.889300
7.765900 1.873600
7.783700 1.835500
7.801600 1.791900
7.819500 1.754700
7.837300 1.721700
7.855200 1.693700
7.873100 1.670400
7.891000 1.691100
7.908800 1.673400
7.926700 1.642900
7.944600 1.627900
7.962500 1.629300
7.980300 1.632300
7.998200 1.583500
8.016100 1.571300
8.033900 1.561600
8.051800 1.550400
8.069700 1.534600
8.087600 1.507200
8.105400 1.491300
8.123300 1.478400
8.141200 1.456400
8.159000 1.436800
8.176900 1.420200
8.194800 1.405600
8.212700 1.392600
8.230500 1.379700
8.248400 1.382400
8.266300 1.379400
8.284200 1.386000
8.302000 1.411500
8.319900 1.435300
8.337800 1.463000
8.355600 1.513100
8.373500 1.549800
8.391400 1.580300
8.409300 1.602900
8.427100 1.616500
8.445000 1.623000
8.462900 1.631500
8.480700 1.660400
8.498600 1.664900
8.516500 1.661500
8.534400 1.662500
8.552200 1.667700
8.570100 1.678700
8.588000 1.694600
8.605900 1.737600
8.623700 1.755900
8.641600 1.751900
8.659500 1.749400
8.677300 1.748000
8.695200 1.739600
8.713100 1.732400
8.731000 1.728700
8.748800 1.727400
8.766700 1.731900
8.784600 1.740200
8.802400 1.750000
8.820300 1.760200
8.838200 1.780900
8.856100 1.787400
8.873900 1.787400
8.891800 1.782400
8.909700 1.777600
8.927600 1.775300
8.945400 1.776100
8.963300 1.781300
8.981200 1.791900
8.999000 1.806200
9.016900 1.821700
9.034800 1.838100
9.052700 1.845700
9.070500 1.839200
9.088400 1.834800
9.106300 1.838800
9.124100 1.837700
9.142000 1.834000
9.159900 1.819200
9.177800 1.807700
9.195600 1.799500
9.213500 1.793400
9.231400 1.788600
9.249300 1.782900
9.267100 1.781300
9.285000 1.786400
9.302900 1.792000
9.320700 1.789400
9.338600 1.779600
9.356500 1.761100
9.374400 1.733500
9.392200 1.705100
9.410100 1.702900
9.428000 1.682600
9.445800 1.664700
9.463700 1.649200
9.481600 1.629900
9.499500 1.611400
9.517300 1.586300
9.535200 1.583400
9.553100 1.554000
9.571000 1.523400
9.588800 1.491900
9.606700 1.459700
9.624600 1.426300
9.642400 1.366600
9.660300 1.279800
9.678200 1.210500
9.696100 1.135000
9.713900 1.044200
9.731800 0.978800
9.749700 0.914100
9.767500 0.851000
9.785400 0.789700
9.803300 0.731600
9.821200 0.678100
9.839000 0.626300
9.856900 0.552900
9.874800 0.496200
9.892700 0.493300
9.910500 0.501500
9.928400 0.511300
9.946300 0.523100
9.964100 0.538300
9.982000 0.554200
9.999900 0.569500
10.017800 0.584100
10.035600 0.598300
10.053500 0.611500
10.071400 0.626700
10.089200 0.643900
10.107100 0.661900
10.125000 0.680800
10.142900 0.700100
10.160700 0.720600
10.178600 0.742900
10.196500 0.766700
10.214400 0.792100
10.232200 0.819100
10.250100 0.848200
10.268000 0.880000
10.285800 0.914400
10.303700 0.952500
10.321600 0.995900
10.339500 1.037500
10.357300 1.077900
10.375200 1.103700
10.393100 1.108300
10.410900 1.091400
10.428800 1.058800
10.446700 1.021900
10.464600 0.990300
10.482400 0.969900
10.500300 0.956400
10.518200 0.945500
10.536100 0.940700
10.553900 0.943800
10.571800 0.949500
10.589700 0.957600
10.607500 0.967700
10.625400 0.978700
10.643300 0.992700
10.661200 1.009700
10.679000 1.032900
10.696900 1.061200
10.714800 1.088600
10.732600 1.133100
10.750500 1.174700
10.768400 1.211200
10.786300 1.239600
10.804100 1.264700
10.822000 1.290600
10.839900 1.317600
10.857800 1.344400
10.875600 1.370300
10.893500 1.395500
10.911400 1.418900
10.929200 1.438000
10.947100 1.443000
10.965000 1.437700
10.982900 1.441700
11.000700 1.468500
11.018600 1.503900
11.036500 1.550200
11.054300 1.610200
11.072200 1.683200
11.090100 1.765200
11.108000 1.853200
11.125800 1.941200
11.143700 2.026700
11.161600 2.089200
11.179500 2.126900
11.197300 2.173500
11.215200 2.220900
11.233100 2.120000
11.250900 2.101600
11.268800 2.068000
11.286700 2.028100
11.304600 1.996500
11.322400 1.927300
11.340300 1.858900
11.358200 1.779200
11.376000 1.702500
11.393900 1.634600
11.411800 1.563700
11.429700 1.540900
11.447500 1.534600
11.465400 1.522500
11.483300 1.505600
11.501200 1.499900
11.519000 1.499200
11.536900 1.500100
11.554800 1.502100
11.572600 1.486900
11.590500 1.428400
11.608400 1.356600
11.626300 1.348100
11.644100 1.343200
11.662000 1.343100
11.679900 1.346300
11.697700 1.353400
11.715600 1.363100
11.733500 1.375100
11.751400 1.382300
11.769200 1.392000
11.787100 1.401800
11.805000 1.409500
11.822900 1.419200
11.840700 1.430900
11.858600 1.442900
11.876500 1.452400
11.894300 1.465900
11.912200 1.489800
11.930100 1.517000
11.948000 1.546000
11.965800 1.579200
11.983700 1.616400
12.001600 1.658800
12.019400 1.705800
12.037300 1.769200
12.055200 1.835700
12.073100 1.871400
12.090900 1.888800
12.108800 1.895900
12.126700 1.898800
12.144600 1.897400
12.162400 1.889500
12.180300 1.862400
12.198200 1.823300
12.216000 1.782000
12.233900 1.738400
12.251800 1.696100
12.269700 1.662800
12.287500 1.621000
12.305400 1.569300
12.323300 1.508200
12.341100 1.453900
12.359000 1.421500
12.376900 1.392900
12.394800 1.369000
12.412600 1.367100
12.430500 1.382900
12.448400 1.407400
12.466300 1.438000
12.484100 1.468400
12.502000 1.488300
12.519900 1.509700
12.537700 1.529100
12.555600 1.551000
12.573500 1.583300
12.591400 1.625300
12.609200 1.677100
12.627100 1.741000
12.645000 1.801800
12.662800 1.864700
12.680700 2.001200
12.698600 2.055500
12.716500 2.084600
12.734300 2.125100
12.752200 2.173000
12.770100 2.230900
12.788000 2.281200
12.805800 2.332000
12.823700 2.361600
12.841600 2.373000
12.859400 2.379400
12.877300 2.357200
12.895200 2.337300
12.913100 2.324400
12.930900 2.298900
12.948800 2.286300
12.966700 2.276300
12.984500 2.250500
13.002400 2.228300
13.020300 2.213800
13.038200 2.202300
13.056000 2.185000
13.073900 2.164600
13.091800 2.139400
13.109700 2.100800
13.127500 2.056200
13.145400 2.031700
13.163300 2.018300
13.181100 2.018300
13.199000 2.039200
13.216900 2.058300
13.234800 2.078100
13.252600 2.104700
13.270500 2.135100
13.288400 2.162800
13.306200 2.177300
13.324100 2.212700
13.342000 2.241000
13.359900 2.245600
13.377700 2.247800
13.395600 2.275000
13.413500 2.316200
13.431400 2.325500
13.449200 2.331700
13.467100 2.335200
13.485000 2.345700
13.502800 2.384100
13.520700 2.420000
13.538600 2.444400
13.556500 2.448200
13.574300 2.444900
13.592200 2.445300
13.610100 2.444900
13.628000 2.426300
13.645800 2.378100
13.663700 2.329000
13.681600 2.250000
13.699400 2.206800
13.717300 2.189200
13.735200 2.174200
13.753100 2.162400
13.770900 2.155500
13.788800 2.145300
13.806700 2.130200
13.824500 2.113900
13.842400 2.094000
13.860300 2.079500
13.878200 2.073600
13.896000 2.075600
13.913900 2.079600
13.931800 2.088500
13.949700 2.101000
13.967500 2.127300
13.985400 2.196900
14.003300 2.253500
14.021100 2.236400
14.039000 2.214700
14.056900 2.206200
14.074800 2.210200
14.092600 2.218500
14.110500 2.252300
14.128400 2.336500
14.146200 2.374500
14.164100 2.424600
14.182000 2.486400
14.199900 2.514400
14.217700 2.515500
14.235600 2.491400
14.253500 2.492800
14.271400 2.522600
14.289200 2.560300
14.307100 2.566400
14.325000 2.543200
14.342800 2.512000
14.360700 2.552800
14.378600 2.646000
14.396500 2.674100
14.414300 2.621500
14.432200 2.625400
14.450100 2.658500
14.467900 2.642300
14.485800 2.683500
14.503700 2.743400
14.521600 2.774300
14.539400 2.798700
14.557300 2.820900
14.575200 2.795300
14.593100 2.746500
14.610900 2.700500
14.628800 2.667400
14.646700 2.663700
14.664500 2.651400
14.682400 2.599700
14.700300 2.508000
14.718200 2.468100
14.736000 2.445600
14.753900 2.443100
14.771800 2.443700
14.789600 2.425400
14.807500 2.414400
14.825400 2.425300
14.843300 2.437600
14.861100 2.453300
14.879000 2.455000
14.896900 2.432800
14.914800 2.408000
14.932600 2.400600
14.950500 2.417800
14.968400 2.383600
14.986200 2.336800
15.004100 2.285800
15.022000 2.247100
15.039900 2.216400
15.057700 2.191100
15.075600 2.168000
15.093500 2.149900
15.111300 2.137400
15.129200 2.132500
15.147100 2.136600
15.165000 2.142800
15.182800 2.148600
15.200700 2.154500
15.218600 2.162900
15.236500 2.174000
15.254300 2.186700
15.272200 2.209800
15.290100 2.270300
15.307900 2.331400
15.325800 2.387300
15.343700 2.411600
15.361600 2.402100
15.379400 2.413400
15.397300 2.437100
15.415200 2.461300
15.433000 2.465500
15.450900 2.451700
15.468800 2.421400
15.486700 2.369300
15.504500 2.327800
15.522400 2.298800
15.540300 2.275800
15.558200 2.251300
15.576000 2.228000
15.593900 2.239200
15.611800 2.257300
15.629600 2.287500
15.647500 2.339200
15.665400 2.400600
15.683300 2.477700
15.701100 2.506200
15.719000 2.524000
15.736900 2.515500
15.754700 2.491200
15.772600 2.464800
15.790500 2.464400
15.808400 2.467500
15.826200 2.424100
15.844100 2.391800
15.862000 2.372000
15.879900 2.346100
15.897700 2.322000
15.915600 2.302500
15.933500 2.291800
15.951300 2.294700
15.969200 2.309000
15.987100 2.329400
16.005000 2.348100
16.022800 2.365400
16.040700 2.389900
16.058600 2.409700
16.076400 2.420500
16.094300 2.384500
16.112200 2.352900
16.130100 2.333400
16.147900 2.336800
16.165800 2.341400
16.183700 2.335100
16.201600 2.310300
16.219400 2.277800
16.237300 2.241900
16.255200 2.216900
16.273000 2.190800
16.290900 2.177600
16.308800 2.178200
16.326700 2.186400
16.344500 2.179800
16.362400 2.165100
16.380300 2.149800
16.398100 2.129400
16.416000 2.113900
16.433900 2.150900
16.451800 2.198500
16.469600 2.219800
16.487500 2.193500
16.505400 2.147400
16.523300 2.130800
16.541100 2.111900
16.559000 2.097900
16.576900 2.100000
16.594700 2.108600
16.612600 2.123100
16.630500 2.135600
16.648400 2.155400
16.666200 2.188800
16.684100 2.233400
16.702000 2.261400
16.719800 2.271400
16.737700 2.277000
16.755600 2.285900
16.773500 2.299200
16.791300 2.314300
16.809200 2.330900
16.827100 2.343000
16.845000 2.351300
16.862800 2.352600
16.880700 2.347200
16.898600 2.341200
16.916400 2.339400
16.934300 2.337600
16.952200 2.340300
16.970100 2.344200
16.987900 2.349500
17.005800 2.361800
17.023700 2.378800
17.041500 2.414400
17.059400 2.439700
17.077300 2.478800
17.095200 2.496300
17.113000 2.520600
17.130900 2.544900
17.148800 2.557200
17.166700 2.570500
17.184500 2.583200
17.202400 2.568900
17.220300 2.555900
17.238100 2.546600
17.256000 2.527700
17.273900 2.519900
17.291800 2.507600
17.309600 2.496900
17.327500 2.495400
17.345400 2.500300
17.363200 2.510100
17.381100 2.521400
17.399000 2.536800
17.416900 2.553500
17.434700 2.568500
17.452600 2.564400
17.470500 2.567200
17.488400 2.589200
17.506200 2.626600
17.524100 2.681900
17.542000 2.798300
17.559800 2.770000
17.577700 2.776600
17.595600 2.773800
17.613500 2.770500
17.631300 2.771200
17.649200 2.778900
17.667100 2.794500
17.684900 2.813200
17.702800 2.829600
17.720700 2.844600
17.738600 2.860200
17.756400 2.893200
17.774300 2.968000
17.792200 2.969600
17.810100 2.932100
17.827900 2.902800
17.845800 2.879400
17.863700 2.830400
17.881500 2.781600
17.899400 2.731900
17.917300 2.687800
17.935200 2.646000
17.953000 2.634700
17.970900 2.638400
17.988800 2.648500
18.006600 2.680700
18.024500 2.726200
18.042400 2.767900
18.060300 2.806400
18.078100 2.839900
18.096000 2.874100
18.113900 2.913900
18.131800 2.963800
18.149600 3.004800
18.167500 3.032900
18.185400 3.050400
18.203200 3.070000
18.221100 3.112100
18.239000 3.152100
18.256900 3.193700
18.274700 3.220300
18.292600 3.227400
18.310500 3.236400
18.328300 3.269500
18.346200 3.282800
18.364100 3.286900
18.382000 3.290100
18.399800 3.279900
18.417700 3.239300
18.435600 3.318500
18.453500 3.334700
18.471300 3.273400
18.489200 3.312100
18.507100 3.294500
18.524900 3.290000
18.542800 3.291500
18.560700 3.320600
18.578600 3.348300
18.596400 3.440700
18.614300 3.437200
18.632200 3.458100
18.650000 3.453200
18.667900 3.458400
18.685800 3.484800
18.703700 3.501600
18.721500 3.508700
18.739400 3.517000
18.757300 3.544600
18.775200 3.533100
18.793000 3.537200
18.810900 3.536000
18.828800 3.504300
18.846600 3.537100
18.864500 3.596600
18.882400 3.622400
18.900300 3.610500
18.918100 3.526100
18.936000 3.463400
18.953900 3.421200
18.971700 3.343400
18.989600 3.282200
19.007500 3.245200
19.025400 3.208700
19.043200 3.198700
19.061100 3.203500
19.079000 3.212700
19.096900 3.229900
19.114700 3.257600
19.132600 3.262600
19.150500 3.305200
19.168300 3.327400
19.186200 3.357700
19.204100 3.402600
19.222000 3.354200
19.239800 3.317300
19.257700 3.327500
19.275600 3.319000
19.293500 3.347400
19.311300 3.362400
19.329200 3.358000
19.347100 3.383200
19.364900 3.463100
19.382800 3.351700
19.400700 3.294400
19.418600 3.276900
19.436400 3.286900
19.454300 3.307600
19.472200 3.314000
19.490000 3.292400
19.507900 3.266600
19.525800 3.263100
19.543700 3.258500
19.561500 3.289300
19.579400 3.334900
19.597300 3.361100
19.615200 3.353400
19.633000 3.330600
19.650900 3.310600
19.668800 3.272500
19.686600 3.294500
19.704500 3.308300
19.722400 3.255300
19.740300 3.243000
19.758100 3.264100
19.776000 3.283600
19.793900 3.264200
19.811700 3.259900
19.829600 3.287800
19.847500 3.323700
19.865400 3.375000
19.883200 3.413100
19.901100 3.444400
19.919000 3.487100
19.936900 3.520900
19.954700 3.443300
19.972600 3.365600
19.990500 3.317100
20.008300 3.281900
20.026200 3.275600
20.044100 3.314100
20.062000 3.270700
20.079800 3.228700
20.097700 3.463500
20.115600 3.340600
20.133400 3.345700
20.151300 3.366800
20.169200 3.394600
20.187100 3.425500
20.204900 3.313700
20.222800 3.252500
20.240700 3.210900
20.258600 3.168200
20.276400 3.110400
20.294300 3.070500
20.312200 3.022000
20.330000 2.986500
20.347900 2.964800
20.365800 2.937300
20.383700 2.889000
20.401500 2.854000
20.419400 2.838800
20.437300 2.855600
20.455100 2.899700
20.473000 2.944800
20.490900 2.984600
20.508800 2.995600
20.526600 2.975000
20.544500 2.943900
20.562400 2.946500
20.580300 2.866700
20.598100 2.817900
20.616000 2.828200
20.633900 2.915600
20.651700 2.946300
20.669600 2.953900
20.687500 2.964200
20.705400 2.969700
20.723200 2.949300
20.741100 2.904300
20.759000 2.882000
20.776800 2.874100
20.794700 2.877800
20.812600 2.879900
20.830500 2.874400
20.848300 2.907900
20.866200 2.940400
20.884100 2.939800
20.902000 2.940200
20.919800 2.949300
20.937700 2.987100
20.955600 3.037900
20.973400 3.122200
20.991300 3.197600
21.009200 3.262400
21.027100 3.277500
21.044900 3.269800
21.062800 3.258900
21.080700 3.221300
21.098500 3.143200
21.116400 3.123700
21.134300 3.136400
21.152200 3.132300
21.170000 3.175500
21.187900 3.169700
21.205800 3.168100
21.223700 3.176700
21.241500 3.194500
21.259400 3.221200
21.277300 3.239700
21.295100 3.230700
21.313000 3.214500
21.330900 3.203700
21.348800 3.185200
21.366600 3.176900
21.384500 3.157300
21.402400 3.145700
21.420200 3.211400
21.438100 3.181700
21.456000 3.150900
21.473900 3.131400
21.491700 3.123700
21.509600 3.179400
21.527500 3.225500
21.545400 3.237100
21.563200 3.165900
21.581100 3.115400
21.599000 3.082400
21.616800 3.061500
21.634700 3.049100
21.652600 3.042200
21.670500 3.013800
21.688300 3.045400
21.706200 3.091600
21.724100 3.195600
21.741900 3.211500
21.759800 3.177100
21.777700 3.139900
21.795600 3.140500
21.813400 3.158600
21.831300 3.163200
21.849200 3.141700
21.867100 3.129700
21.884900 3.096100
21.902800 3.058800
21.920700 3.040600
21.938500 3.026000
21.956400 3.054800
21.974300 3.107800
21.992200 3.141800
22.010000 3.242500
22.027900 3.146800
22.045800 3.059400
22.063600 3.005000
22.081500 2.981800
22.099400 3.016400
22.117300 3.078300
22.135100 3.111300
22.153000 3.139400
22.170900 3.223100
22.188800 3.286000
22.206600 3.296700
22.224500 3.304400
22.242400 3.348200
22.260200 3.384500
22.278100 3.444800
22.296000 3.482800
22.313900 3.509600
22.331700 3.540200
22.349600 3.565700
22.367500 3.595500
22.385300 3.625500
22.403200 3.606900
22.421100 3.544600
22.439000 3.499500
22.456800 3.448300
22.474700 3.411000
22.492600 3.374900
22.510500 3.340300
22.528300 3.314800
22.546200 3.325800
22.564100 3.357100
22.581900 3.413500
22.599800 3.450900
22.617700 3.463600
22.635600 3.487900
22.653400 3.510800
22.671300 3.535800
22.689200 3.599900
22.707000 3.651400
22.724900 3.696200
22.742800 3.676600
22.760700 3.623800
22.778500 3.624100
22.796400 3.613000
22.814300 3.677300
22.832200 3.665000
22.850000 3.605600
22.867900 3.519000
22.885800 3.456600
22.903600 3.407600
22.921500 3.369700
22.939400 3.326700
22.957300 3.327200
22.975100 3.347600
22.993000 3.402400
23.010900 3.477600
23.028700 3.463800
23.046600 3.415900
23.064500 3.383500
23.082400 3.398600
23.100200 3.510100
23.118100 3.648400
23.136000 3.785400
23.153900 3.922100
23.171700 3.926900
23.189600 3.854200
23.207500 3.780500
23.225300 3.733800
23.243200 3.691200
23.261100 3.633900
23.279000 3.562000
23.296800 3.524600
23.314700 3.541400
23.332600 3.540700
23.350400 3.534500
23.368300 3.530900
23.386200 3.493600
23.404100 3.458000
23.421900 3.449500
23.439800 3.431500
23.457700 3.461300
23.475600 3.463200
23.493400 3.494500
23.511300 3.562100
23.529200 3.631000
23.547000 3.639900
23.564900 3.520400
23.582800 3.481200
23.600700 3.469900
23.618500 3.478200
23.636400 3.468600
23.654300 3.403100
23.672100 3.329600
23.690000 3.322600
23.707900 3.311300
23.725800 3.294200
23.743600 3.270400
23.761500 3.236200
23.779400 3.234400
23.797300 3.194500
23.815100 3.148800
23.833000 3.101200
23.850900 3.036200
23.868700 2.989700
23.886600 2.983600
23.904500 2.994200
23.922400 3.005200
23.940200 3.017900
23.958100 3.058500
23.976000 3.102800
23.993800 3.127000
24.011700 3.132300
24.029600 3.152700
24.047500 3.176600
24.065300 3.192400
24.083200 3.177800
24.101100 3.125100
24.119000 3.031500
24.136800 2.951400
24.154700 2.878200
24.172600 2.801200
24.190400 2.733600
24.208300 2.685000
24.226200 2.640700
24.244100 2.596000
24.261900 2.538100
24.279800 2.455800
24.297700 2.358300
24.315500 2.279400
24.333400 2.216600
24.351300 2.186500
24.369200 2.116500
24.387000 2.047900
24.404900 1.980100
24.422800 1.902500
24.440700 1.825200
24.458500 1.747000
24.476400 1.672600
24.494300 1.605500
24.512100 1.547200
24.530000 1.515600
24.547900 1.509400
24.565800 1.498300
24.583600 1.420700
24.601500 1.318400
24.619400 1.230000
24.637200 1.141000
24.655100 1.036800
24.673000 0.943100
24.690900 0.865800
24.708700 0.794300
24.726600 0.730300
24.744500 0.674200
24.762400 0.625600
24.780200 0.579400
24.798100 0.534000
24.816000 0.489400
24.833800 0.452100
24.851700 0.430200
24.869600 0.415600
24.887500 0.408600
24.905300 0.409200
24.923200 0.423700
24.941100 0.409000
24.958900 0.400800
24.976800 0.314400
24.994700 0.227300
25.012600 0.179900
25.030400 0.147400
25.048300 0.120800
25.066200 0.097700
25.084100 0.078300
25.101900 0.062400
25.119800 0.049900
25.137700 0.041000
25.155500 0.035400
25.173400 0.031300
25.191300 0.028100
25.209200 0.025700
25.227000 0.023600
25.244900 0.021900
25.262800 0.020300
25.280700 0.019100
25.298500 0.018100
25.316400 0.017200
25.334300 0.016300
25.352100 0.015500
25.370000 0.014700
25.387900 0.014100
25.405800 0.013500
25.423600 0.013000
25.441500 0.011500
25.459400 0.009900
25.477200 0.008400
25.495100 0.007100
25.513000 0.005900
25.530900 0.004800
25.548700 0.003800
25.566600 0.002900
25.584500 0.002100
25.602400 0.001500
25.620200 0.001000
25.638100 0.000600
25.656000 0.000300
25.673800 0.000100
25.691700 0.000000
25.709600 0.000000
25.727500 0.000000
25.745300 0.000000
25.763200 0.000000
25.781100 0.000000
25.798900 0.000000
25.816800 0.000000
25.834700 0.000000
25.852600 0.000000
25.870400 0.000000
25.888300 0.000000
25.906200 0.000000
25.924100 0.000000
25.941900 0.000000
25.959800 0.000000
25.977700 0.000000
25.995500 0.000000
26.013400 0.000000
26.031300 0.000000
26.049200 0.000000
26.067000 0.000000
26.084900 0.000000
26.102800 0.000000
26.120600 0.000000
26.138500 0.000000
26.156400 0.000000
26.174300 0.000000
26.192100 0.000000
26.210000 0.000000
26.227900 0.000000
26.245800 0.000000
26.263600 0.000000
26.281500 0.000000
26.299400 0.000000
26.317200 0.000000
26.335100 0.000000
26.353000 0.000000
26.370900 0.000000
26.388700 0.000000
26.406600 0.000000
26.424500 0.000000
26.442300 0.000000
26.460200 0.000000
26.478100 0.000000
26.496000 0.000000
26.513800 0.000000
26.531700 0.000000
26.549600 0.000000
26.567500 0.000000
26.585300 0.000000
26.603200 0.000000
26.621100 0.000000
26.638900 0.000000
26.656800 0.000000
26.674700 0.000000
26.692600 0.000000
26.710400 0.000000
26.728300 0.000000
26.746200 0.000000
26.764000 0.000000
26.781900 0.000000
26.799800 0.000000
26.817700 0.000000
26.835500 0.000000
26.853400 0.000000
26.871300 0.000000
26.889200 0.000000
26.907000 0.000000
26.924900 0.000000
26.942800 0.000000
26.960600 0.000000
26.978500 0.000000
26.996400 0.000000
27.014300 0.000000
27.032100 0.000000
27.050000 0.000000
27.067900 0.000000
27.085700 0.000000
27.103600 0.000000
27.121500 0.000000
27.139400 0.000000
27.157200 0.000000
27.175100 0.000000
27.193000 0.000000
27.210900 0.000000
27.228700 0.000000
27.246600 0.000000
27.264500 0.000000
27.282300 0.000000
27.300200 0.000000
27.318100 0.000000
e
