set title 'mp-1080030 - Density of States'
set xlabel 'Energy (eV)'
set ylabel 'DOS (states/eV)'
set grid
set xrange [-10:10]
set yrange [0:3.844]
set xzeroaxis lt -1
set terminal png size 800,600
set output 'mp-1080030_dos_gnuplot.png'
plot '-' using 1:2 with lines title 'DOS'
-14.830600 0.000000
-14.800300 0.000000
-14.770000 0.000000
-14.739700 0.000000
-14.709300 0.000000
-14.679000 0.000000
-14.648700 0.000000
-14.618400 0.000000
-14.588100 0.000000
-14.557800 0.000000
-14.527500 0.000000
-14.497200 0.000000
-14.466900 0.000000
-14.436600 0.000000
-14.406300 0.000000
-14.376000 0.000000
-14.345600 0.000000
-14.315300 0.000000
-14.285000 0.000000
-14.254700 0.000000
-14.224400 0.000000
-14.194100 0.000000
-14.163800 0.000000
-14.133500 0.000000
-14.103200 0.000000
-14.072900 0.000000
-14.042600 0.000000
-14.012300 0.000000
-13.982000 0.000000
-13.951600 0.000000
-13.921300 0.000000
-13.891000 0.000000
-13.860700 0.000000
-13.830400 0.000000
-13.800100 0.000000
-13.769800 0.000000
-13.739500 0.000000
-13.709200 0.000000
-13.678900 0.000000
-13.648600 0.000000
-13.618300 0.000000
-13.587900 0.000000
-13.557600 0.000000
-13.527300 0.000000
-13.497000 0.000000
-13.466700 0.000000
-13.436400 0.000000
-13.406100 0.000000
-13.375800 0.000000
-13.345500 0.000000
-13.315200 0.000000
-13.284900 0.000000
-13.254600 0.000000
-13.224300 0.000000
-13.193900 0.000000
-13.163600 0.000000
-13.133300 0.000000
-13.103000 0.000000
-13.072700 0.000000
-13.042400 0.000000
-13.012100 0.000000
-12.981800 0.000000
-12.951500 0.000000
-12.921200 0.000000
-12.890900 0.000000
-12.860600 0.000000
-12.830200 0.000000
-12.799900 0.000000
-12.769600 0.000000
-12.739300 0.000000
-12.709000 0.000000
-12.678700 0.000000
-12.648400 0.000000
-12.618100 0.000000
-12.587800 0.000000
-12.557500 0.000000
-12.527200 0.000000
-12.496900 0.000000
-12.466600 0.000000
-12.436200 0.000000
-12.405900 0.000000
-12.375600 0.000000
-12.345300 0.000000
-12.315000 0.000000
-12.284700 0.000000
-12.254400 0.000000
-12.224100 0.000000
-12.193800 0.000000
-12.163500 0.000000
-12.133200 0.000000
-12.102900 0.000000
-12.072500 0.000800
-12.042200 0.090500
-12.011900 0.270600
-11.981600 0.314600
-11.951300 0.272500
-11.921000 0.293300
-11.890700 0.313900
-11.860400 0.317500
-11.830100 0.301000
-11.799800 0.287600
-11.769500 0.288600
-11.739200 0.296000
-11.708900 0.303300
-11.678500 0.310600
-11.648200 0.315200
-11.617900 0.307500
-11.587600 0.297300
-11.557300 0.295800
-11.527000 0.294300
-11.496700 0.294900
-11.466400 0.297800
-11.436100 0.301600
-11.405800 0.305300
-11.375500 0.309100
-11.345200 0.312600
-11.314800 0.310700
-11.284500 0.303300
-11.254200 0.298300
-11.223900 0.297800
-11.193600 0.298500
-11.163300 0.299300
-11.133000 0.300000
-11.102700 0.300900
-11.072400 0.302400
-11.042100 0.304500
-11.011800 0.306800
-10.981500 0.309200
-10.951200 0.311500
-10.920800 0.310800
-10.890500 0.307900
-10.860200 0.304000
-10.829900 0.320500
-10.799600 0.378500
-10.769300 0.413200
-10.739000 0.428200
-10.708700 0.453500
-10.678400 0.482100
-10.648100 0.509100
-10.617800 0.540400
-10.587500 0.578200
-10.557100 0.607400
-10.526800 0.609500
-10.496500 0.611600
-10.466200 0.620300
-10.435900 0.624200
-10.405600 0.617700
-10.375300 0.608600
-10.345000 0.606600
-10.314700 0.608100
-10.284400 0.609600
-10.254100 0.611300
-10.223800 0.612100
-10.193500 0.611800
-10.163100 0.611300
-10.132800 0.613700
-10.102500 0.615000
-10.072200 0.615000
-10.041900 0.615600
-10.011600 0.617200
-9.981300 0.618800
-9.951000 0.620200
-9.920700 0.621200
-9.890400 0.621300
-9.860100 0.619900
-9.829800 0.618100
-9.799400 0.617200
-9.769100 0.618000
-9.738800 0.619100
-9.708500 0.619800
-9.678200 0.619900
-9.647900 0.620200
-9.617600 0.620600
-9.587300 0.620900
-9.557000 0.621300
-9.526700 0.621700
-9.496400 0.621600
-9.466100 0.621400
-9.435800 0.621800
-9.405400 0.622700
-9.375100 0.624000
-9.344800 0.625700
-9.314500 0.627700
-9.284200 0.629800
-9.253900 0.632000
-9.223600 0.633500
-9.193300 0.632800
-9.163000 0.630900
-9.132700 0.636100
-9.102400 0.658900
-9.072100 0.677400
-9.041700 0.695600
-9.011400 0.714800
-8.981100 0.733600
-8.950800 0.744300
-8.920500 0.753100
-8.890200 0.763300
-8.859900 0.773200
-8.829600 0.783000
-8.799300 0.793200
-8.769000 0.805000
-8.738700 0.817400
-8.708400 0.828500
-8.678100 0.839400
-8.647700 0.849600
-8.617400 0.862900
-8.587100 0.878900
-8.556800 0.894200
-8.526500 0.910300
-8.496200 0.927200
-8.465900 0.943300
-8.435600 0.957800
-8.405300 0.961700
-8.375000 0.958900
-8.344700 0.960500
-8.314400 0.961500
-8.284000 0.962000
-8.253700 0.962600
-8.223400 0.964300
-8.193100 0.967000
-8.162800 0.969500
-8.132500 0.971900
-8.102200 0.974300
-8.071900 0.976700
-8.041600 0.978700
-8.011300 0.981100
-7.981000 0.983000
-7.950700 0.984800
-7.920400 0.986600
-7.890000 0.988000
-7.859700 0.989500
-7.829400 0.991200
-7.799100 0.993000
-7.768800 0.994800
-7.738500 0.997000
-7.708200 0.999800
-7.677900 1.002800
-7.647600 1.006000
-7.617300 1.009700
-7.587000 1.013800
-7.556700 1.017800
-7.526300 1.021300
-7.496000 1.025200
-7.465700 1.029800
-7.435400 1.035500
-7.405100 1.041900
-7.374800 1.048300
-7.344500 1.055000
-7.314200 1.062100
-7.283900 1.071900
-7.253600 1.084400
-7.223300 1.097500
-7.193000 1.110500
-7.162700 1.123600
-7.132300 1.136700
-7.102000 1.149800
-7.071700 1.287100
-7.041400 1.437200
-7.011100 1.330400
-6.980800 1.216900
-6.950500 1.115200
-6.920200 1.076500
-6.889900 1.070500
-6.859600 1.063800
-6.829300 1.060000
-6.799000 1.063700
-6.768600 1.258600
-6.738300 1.285000
-6.708000 1.072900
-6.677700 1.076900
-6.647400 1.079900
-6.617100 1.078800
-6.586800 1.079200
-6.556500 1.079900
-6.526200 1.079700
-6.495900 1.079400
-6.465600 1.079500
-6.435300 1.080100
-6.405000 1.080900
-6.374600 1.081800
-6.344300 1.082900
-6.314000 1.084900
-6.283700 1.094400
-6.253400 1.115600
-6.223100 1.139000
-6.192800 1.162900
-6.162500 1.188200
-6.132200 1.216000
-6.101900 1.195700
-6.071600 1.178300
-6.041300 1.207000
-6.010900 1.228800
-5.980600 1.258900
-5.950300 1.361500
-5.920000 1.397000
-5.889700 1.384400
-5.859400 1.364600
-5.829100 1.371700
-5.798800 1.386100
-5.768500 1.333300
-5.738200 1.217500
-5.707900 1.211300
-5.677600 1.259700
-5.647300 1.213200
-5.616900 1.172400
-5.586600 1.167800
-5.556300 1.170600
-5.526000 1.163600
-5.495700 1.181600
-5.465400 1.066000
-5.435100 1.057500
-5.404800 1.050400
-5.374500 1.045000
-5.344200 1.089600
-5.313900 1.177600
-5.283600 1.284000
-5.253200 1.565600
-5.222900 1.639000
-5.192600 1.715700
-5.162300 1.721700
-5.132000 1.536900
-5.101700 1.539800
-5.071400 1.577400
-5.041100 1.636100
-5.010800 1.750200
-4.980500 1.844900
-4.950200 2.431300
-4.919900 1.733200
-4.889600 1.324600
-4.859200 1.196900
-4.828900 1.163900
-4.798600 1.103000
-4.768300 1.070300
-4.738000 1.069100
-4.707700 1.068700
-4.677400 1.154000
-4.647100 1.450000
-4.616800 1.306300
-4.586500 1.312100
-4.556200 1.293900
-4.525900 1.352700
-4.495500 1.085800
-4.465200 0.782300
-4.434900 0.699300
-4.404600 0.636600
-4.374300 0.595800
-4.344000 0.558100
-4.313700 0.523700
-4.283400 0.492600
-4.253100 0.464900
-4.222800 0.431400
-4.192500 0.405300
-4.162200 0.413700
-4.131900 0.473000
-4.101500 0.558000
-4.071200 0.698100
-4.040900 1.113700
-4.010600 1.237000
-3.980300 1.127300
-3.950000 1.204400
-3.919700 1.299500
-3.889400 1.304400
-3.859100 1.301000
-3.828800 1.272600
-3.798500 1.243300
-3.768200 1.223300
-3.737800 1.214000
-3.707500 1.208800
-3.677200 1.244900
-3.646900 1.264000
-3.616600 1.263100
-3.586300 1.273500
-3.556000 1.242400
-3.525700 1.198700
-3.495400 1.182500
-3.465100 1.196700
-3.434800 1.235500
-3.404500 1.317300
-3.374200 1.436900
-3.343800 1.610100
-3.313500 1.796600
-3.283200 1.842000
-3.252900 1.652500
-3.222600 1.481200
-3.192300 1.374900
-3.162000 1.335400
-3.131700 1.345000
-3.101400 1.076200
-3.071100 1.009100
-3.040800 0.993100
-3.010500 1.004400
-2.980100 1.004700
-2.949800 0.998400
-2.919500 1.000600
-2.889200 0.916000
-2.858900 0.876100
-2.828600 0.864600
-2.798300 0.887300
-2.768000 0.918500
-2.737700 0.959500
-2.707400 1.007400
-2.677100 1.027100
-2.646800 1.053300
-2.616500 1.070400
-2.586100 1.092200
-2.555800 1.119100
-2.525500 1.164800
-2.495200 1.223900
-2.464900 1.317500
-2.434600 1.739900
-2.404300 2.095500
-2.374000 1.502100
-2.343700 1.533200
-2.313400 1.500200
-2.283100 1.554500
-2.252800 1.668000
-2.222400 1.792400
-2.192100 1.991100
-2.161800 2.272200
-2.131500 2.229900
-2.101200 2.201000
-2.070900 2.106600
-2.040600 2.103600
-2.010300 2.157300
-1.980000 2.198900
-1.949700 2.280300
-1.919400 2.149800
-1.889100 2.081800
-1.858800 2.070900
-1.828400 2.074100
-1.798100 2.025000
-1.767800 1.956700
-1.737500 1.893000
-1.707200 1.692000
-1.676900 1.552900
-1.646600 1.474500
-1.616300 1.413000
-1.586000 1.373900
-1.555700 1.340100
-1.525400 1.311200
-1.495100 1.283900
-1.464700 1.256300
-1.434400 1.228400
-1.404100 1.208100
-1.373800 1.196400
-1.343500 1.193900
-1.313200 1.203900
-1.282900 1.232000
-1.252600 1.300800
-1.222300 1.470700
-1.192000 1.624100
-1.161700 1.611200
-1.131400 1.658000
-1.101100 1.716100
-1.070700 1.760200
-1.040400 1.685000
-1.010100 1.556000
-0.979800 1.498800
-0.949500 1.492500
-0.919200 1.489600
-0.888900 1.480600
-0.858600 1.487000
-0.828300 1.498500
-0.798000 1.497500
-0.767700 1.485300
-0.737400 1.472000
-0.707000 1.464000
-0.676700 1.452100
-0.646400 1.421100
-0.616100 1.304600
-0.585800 1.219700
-0.555500 1.162000
-0.525200 1.118800
-0.494900 1.095500
-0.464600 1.063900
-0.434300 1.043300
-0.404000 1.046700
-0.373700 1.069200
-0.343400 1.104800
-0.313000 1.141100
-0.282700 1.173700
-0.252400 1.206600
-0.222100 1.221500
-0.191800 1.222300
-0.161500 1.215300
-0.131200 1.208500
-0.100900 1.190500
-0.070600 1.160400
-0.040300 1.146300
-0.010000 1.140600
0.020300 1.156100
0.050700 1.175800
0.081000 1.229100
0.111300 1.278200
0.141600 1.329600
0.171900 1.354000
0.202200 1.385700
0.232500 1.416300
0.262800 1.475000
0.293100 1.510700
0.323400 1.555100
0.353700 1.592200
0.384000 1.642800
0.414300 1.749800
0.444700 1.932200
0.475000 1.997100
0.505300 2.062100
0.535600 2.127900
0.565900 2.178900
0.596200 2.171300
0.626500 2.156500
0.656800 2.164700
0.687100 2.209000
0.717400 2.296300
0.747700 2.592700
0.778000 2.745400
0.808400 2.482400
0.838700 2.185100
0.869000 2.044400
0.899300 1.944800
0.929600 1.856300
0.959900 1.806400
0.990200 1.779700
1.020500 1.761400
1.050800 1.762000
1.081100 1.747700
1.111400 1.748900
1.141700 1.779500
1.172000 1.958500
1.202400 1.901400
1.232700 1.950400
1.263000 2.008900
1.293300 2.070800
1.323600 2.100900
1.353900 2.085400
1.384200 2.032300
1.414500 1.944700
1.444800 1.901800
1.475100 1.923600
1.505400 1.990300
1.535700 2.042800
1.566100 2.070200
1.596400 2.110600
1.626700 2.157400
1.657000 2.174100
1.687300 2.200700
1.717600 2.258000
1.747900 2.215100
1.778200 2.208200
1.808500 2.205200
1.838800 2.215200
1.869100 2.263100
1.899400 2.351000
1.929700 2.420100
1.960100 2.453300
1.990400 2.477000
2.020700 2.487100
2.051000 2.432200
2.081300 2.364600
2.111600 2.324000
2.141900 2.310300
2.172200 2.293400
2.202500 2.333400
2.232800 2.313500
2.263100 2.284600
2.293400 2.272100
2.323800 2.261800
2.354100 2.272800
2.384400 2.295900
2.414700 2.380600
2.445000 2.486500
2.475300 2.543200
2.505600 2.634100
2.535900 2.634300
2.566200 2.596300
2.596500 2.584400
2.626800 2.595300
2.657100 2.563100
2.687400 2.541600
2.717800 2.597100
2.748100 2.646900
2.778400 2.601600
2.808700 2.621400
2.839000 2.662100
2.869300 2.768400
2.899600 2.828200
2.929900 2.969900
2.960200 3.110100
2.990500 3.203000
3.020800 3.426200
3.051100 2.994800
3.081500 2.880200
3.111800 2.838300
3.142100 2.816500
3.172400 2.830900
3.202700 2.849200
3.233000 2.865100
3.263300 2.874700
3.293600 2.876300
3.323900 2.848400
3.354200 2.814000
3.384500 2.746500
3.414800 2.696200
3.445100 2.670400
3.475500 2.647800
3.505800 2.644100
3.536100 2.614100
3.566400 2.553500
3.596700 2.537200
3.627000 2.557100
3.657300 2.593400
3.687600 2.620400
3.717900 2.646500
3.748200 2.663700
3.778500 2.689700
3.808800 2.759100
3.839200 2.808400
3.869500 2.842400
3.899800 2.853500
3.930100 2.831900
3.960400 2.833800
3.990700 2.820200
4.021000 2.797400
4.051300 2.809800
4.081600 2.861200
4.111900 2.868200
4.142200 2.865700
4.172500 2.842900
4.202800 2.760100
4.233200 2.716500
4.263500 2.689600
4.293800 2.920200
4.324100 3.167600
4.354400 3.367300
4.384700 3.494800
4.415000 3.460000
4.445300 3.184200
4.475600 2.834700
4.505900 2.787300
4.536200 2.808600
4.566500 3.060000
4.596900 3.082300
4.627200 3.147500
4.657500 3.051000
4.687800 2.774700
4.718100 2.722900
4.748400 2.759100
4.778700 2.806200
4.809000 2.801300
4.839300 2.844800
4.869600 2.638100
4.899900 2.527900
4.930200 2.482300
4.960500 2.459600
4.990900 2.439900
5.021200 2.424000
5.051500 2.407700
5.081800 2.400700
5.112100 2.411500
5.142400 2.427700
5.172700 2.477600
5.203000 2.545100
5.233300 2.604500
5.263600 2.656600
5.293900 2.734500
5.324200 2.770700
5.354600 2.788800
5.384900 2.803900
5.415200 2.814900
5.445500 2.841400
5.475800 2.851300
5.506100 2.851400
5.536400 2.812900
5.566700 2.846000
5.597000 2.993000
5.627300 3.016100
5.657600 3.028900
5.687900 3.028800
5.718200 2.983600
5.748600 2.926100
5.778900 2.908800
5.809200 2.903000
5.839500 2.889800
5.869800 2.872300
5.900100 2.871500
5.930400 2.898900
5.960700 2.902900
5.991000 2.955300
6.021300 2.984900
6.051600 2.962000
6.081900 2.931100
6.112300 2.854200
6.142600 2.557200
6.172900 2.405400
6.203200 2.282600
6.233500 2.179200
6.263800 2.115600
6.294100 2.069900
6.324400 2.026700
6.354700 1.990300
6.385000 1.959300
6.415300 1.926000
6.445600 1.894200
6.475900 1.865300
6.506300 1.840200
6.536600 1.817200
6.566900 1.796100
6.597200 1.776500
6.627500 1.759500
6.657800 1.745300
6.688100 1.732900
6.718400 1.721200
6.748700 1.709700
6.779000 1.704100
6.809300 1.703500
6.839600 1.701500
6.870000 1.706100
6.900300 1.715600
6.930600 1.716700
6.960900 1.724300
6.991200 1.724700
7.021500 1.724000
7.051800 1.710700
7.082100 1.688500
7.112400 1.693100
7.142700 1.671400
7.173000 1.627500
7.203300 1.587100
7.233700 1.521300
7.264000 1.461000
7.294300 1.414100
7.324600 1.382000
7.354900 1.366800
7.385200 1.355100
7.415500 1.343400
7.445800 1.332600
7.476100 1.329900
7.506400 1.336600
7.536700 1.373800
7.567000 1.385500
7.597300 1.400700
7.627700 1.427800
7.658000 1.466800
7.688300 1.482700
7.718600 1.494800
7.748900 1.490000
7.779200 1.440000
7.809500 1.394000
7.839800 1.350400
7.870100 1.288900
7.900400 1.222100
7.930700 1.186600
7.961000 1.157900
7.991400 1.120600
8.021700 1.092600
8.052000 1.061700
8.082300 1.038000
8.112600 1.021800
8.142900 1.000600
8.173200 0.979600
8.203500 0.983400
8.233800 0.965400
8.264100 0.900900
8.294400 0.836300
8.324700 0.793200
8.355000 0.805900
8.385400 0.771600
8.415700 0.713900
8.446000 0.663000
8.476300 0.605700
8.506600 0.580300
8.536900 0.561100
8.567200 0.540000
8.597500 0.520600
8.627800 0.502200
8.658100 0.484100
8.688400 0.466700
8.718700 0.450900
8.749100 0.432900
8.779400 0.423000
8.809700 0.417300
8.840000 0.413100
8.870300 0.410000
8.900600 0.406400
8.930900 0.403300
8.961200 0.401900
8.991500 0.397700
9.021800 0.393400
9.052100 0.389000
9.082400 0.383800
9.112700 0.378500
9.143100 0.373200
9.173400 0.367800
9.203700 0.362200
9.234000 0.356400
9.264300 0.351400
9.294600 0.346600
9.324900 0.341900
9.355200 0.337100
9.385500 0.332300
9.415800 0.327600
9.446100 0.325200
9.476400 0.325600
9.506800 0.326400
9.537100 0.326200
9.567400 0.327500
9.597700 0.327700
9.628000 0.324500
9.658300 0.319600
9.688600 0.314800
9.718900 0.310100
9.749200 0.305400
9.779500 0.300700
9.809800 0.296100
9.840100 0.291500
9.870400 0.286900
9.900800 0.283100
9.931100 0.281400
9.961400 0.283000
9.991700 0.286700
10.022000 0.288000
10.052300 0.289000
10.082600 0.290200
10.112900 0.287100
10.143200 0.280300
10.173500 0.273500
10.203800 0.266700
10.234100 0.260000
10.264500 0.253200
10.294800 0.248200
10.325100 0.250900
10.355400 0.256500
10.385700 0.265000
10.416000 0.272400
10.446300 0.275900
10.476600 0.271300
10.506900 0.261900
10.537200 0.245600
10.567500 0.248100
10.597800 0.233600
10.628100 0.193100
10.658500 0.145000
10.688800 0.127000
10.719100 0.081100
10.749400 0.033300
10.779700 0.004100
10.810000 0.000000
10.840300 0.000000
10.870600 0.000000
10.900900 0.000000
10.931200 0.000000
10.961500 0.000000
10.991800 0.000000
11.022200 0.000000
11.052500 0.000000
11.082800 0.000000
11.113100 0.000000
11.143400 0.000000
11.173700 0.000000
11.204000 0.000000
11.234300 0.000000
11.264600 0.000000
11.294900 0.000000
11.325200 0.000000
11.355500 0.000000
11.385800 0.000000
11.416200 0.000000
11.446500 0.000000
11.476800 0.000000
11.507100 0.000000
11.537400 0.000000
11.567700 0.000000
11.598000 0.000000
11.628300 0.000000
11.658600 0.000000
11.688900 0.000000
11.719200 0.000000
11.749500 0.000000
11.779900 0.000000
11.810200 0.000000
11.840500 0.000000
11.870800 0.000000
11.901100 0.000000
11.931400 0.000000
11.961700 0.000000
11.992000 0.000000
12.022300 0.000000
12.052600 0.000000
12.082900 0.000000
12.113200 0.000000
12.143500 0.000000
12.173900 0.000000
12.204200 0.000000
12.234500 0.000000
12.264800 0.000000
12.295100 0.000000
12.325400 0.000000
12.355700 0.000000
12.386000 0.000000
12.416300 0.000000
12.446600 0.000000
12.476900 0.000000
12.507200 0.000000
12.537600 0.000000
12.567900 0.000000
12.598200 0.000000
12.628500 0.000000
12.658800 0.000000
12.689100 0.000000
12.719400 0.000000
12.749700 0.000000
12.780000 0.000000
12.810300 0.000000
12.840600 0.000000
12.870900 0.000000
12.901200 0.000000
12.931600 0.000000
12.961900 0.000000
12.992200 0.000000
13.022500 0.000000
13.052800 0.000000
13.083100 0.000000
13.113400 0.000000
13.143700 0.000000
13.174000 0.000000
13.204300 0.000000
13.234600 0.000000
13.264900 0.000000
13.295300 0.000000
13.325600 0.000000
13.355900 0.000000
13.386200 0.000000
13.416500 0.000000
13.446800 0.000000
13.477100 0.000000
13.507400 0.000000
13.537700 0.000000
13.568000 0.000000
13.598300 0.000000
13.628600 0.010600
13.658900 0.137100
13.689300 0.310400
13.719600 0.522000
13.749900 0.719000
13.780200 0.791200
13.810500 0.853900
13.840800 0.906700
13.871100 0.950200
13.901400 0.947700
13.931700 0.944300
13.962000 0.928600
13.992300 0.901900
14.022600 0.845400
14.053000 0.802100
14.083300 0.826400
14.113600 0.855000
14.143900 0.891000
14.174200 0.919800
14.204500 0.948400
14.234800 0.977600
14.265100 1.003400
14.295400 1.033700
14.325700 1.078800
14.356000 1.166700
14.386300 1.297300
14.416600 1.519900
14.447000 1.865400
14.477300 2.554800
14.507600 2.582400
14.537900 2.780400
14.568200 2.943300
14.598500 3.246600
14.628800 3.386200
14.659100 3.463500
14.689400 3.439100
14.719700 3.465300
14.750000 3.220200
14.780300 3.116200
14.810700 3.040200
14.841000 2.965200
14.871300 2.890200
14.901600 2.841900
14.931900 2.485600
14.962200 2.374700
14.992500 2.320300
15.022800 2.252200
15.053100 2.099300
15.083400 2.170800
15.113700 2.237900
15.144000 2.278500
15.174300 2.326200
15.204700 2.553200
15.235000 2.580000
15.265300 2.663600
15.295600 2.756300
15.325900 2.804400
15.356200 2.733700
15.386500 2.583900
15.416800 2.468100
15.447100 2.313000
15.477400 2.092200
15.507700 1.960200
15.538000 1.924500
15.568400 1.927400
15.598700 1.948300
15.629000 2.015700
15.659300 2.152600
15.689600 1.727700
15.719900 1.631800
15.750200 1.543100
15.780500 1.509900
15.810800 1.483500
15.841100 1.461500
15.871400 1.454900
15.901700 1.469800
15.932000 1.527700
15.962400 1.592700
15.992700 1.647000
16.023000 1.705700
16.053300 1.818200
16.083600 2.046100
16.113900 2.521800
16.144200 2.641200
16.174500 2.634200
16.204800 2.532300
16.235100 2.465500
16.265400 2.447700
16.295700 2.529000
16.326100 2.669300
16.356400 2.854500
16.386700 2.987700
16.417000 3.096000
16.447300 3.154100
16.477600 3.109500
16.507900 2.980400
16.538200 3.013400
16.568500 3.091100
16.598800 3.103500
16.629100 3.156600
16.659400 3.228600
16.689700 3.248100
16.720100 3.311000
16.750400 3.299500
16.780700 3.176100
16.811000 3.334900
16.841300 3.389100
16.871600 3.549700
16.901900 3.525600
16.932200 3.407300
16.962500 3.295100
16.992800 3.099700
17.023100 3.112100
17.053400 3.084500
17.083800 3.081800
17.114100 3.129300
17.144400 3.185300
17.174700 3.361000
17.205000 3.442100
17.235300 3.548400
17.265600 3.578800
17.295900 3.453600
17.326200 3.458900
17.356500 3.517400
17.386800 3.392500
17.417100 3.380800
17.447400 3.293500
17.477800 3.208700
17.508100 2.994500
17.538400 2.813000
17.568700 2.638200
17.599000 2.627900
17.629300 2.612600
17.659600 2.587500
17.689900 2.579900
17.720200 2.650900
17.750500 2.892600
17.780800 3.063700
17.811100 3.172900
17.841500 3.185500
17.871800 3.266900
17.902100 3.421100
17.932400 3.718000
17.962700 3.697700
17.993000 3.335500
18.023300 3.170500
18.053600 3.075700
18.083900 3.009000
18.114200 2.930900
18.144500 2.908100
18.174800 2.936100
18.205100 3.016200
18.235500 3.057400
18.265800 3.146600
18.296100 3.327300
18.326400 3.389100
18.356700 3.457300
18.387000 3.387000
18.417300 3.246300
18.447600 3.124000
18.477900 2.996800
18.508200 2.996600
18.538500 3.048300
18.568800 2.913400
18.599200 2.819500
18.629500 2.697000
18.659800 2.627500
18.690100 2.605200
18.720400 2.583100
18.750700 2.603700
18.781000 2.671100
18.811300 2.745500
18.841600 2.790900
18.871900 2.869700
18.902200 3.027300
18.932500 3.202600
18.962800 3.278300
18.993200 3.465100
19.023500 3.311100
19.053800 3.318700
19.084100 3.315500
19.114400 3.360100
19.144700 3.338500
19.175000 3.235500
19.205300 3.244100
19.235600 3.078000
19.265900 3.049600
19.296200 3.053400
19.326500 3.056900
19.356900 3.090500
19.387200 3.085400
19.417500 3.047800
19.447800 3.042000
19.478100 3.037000
19.508400 3.811200
19.538700 3.700500
19.569000 3.364200
19.599300 3.328500
19.629600 3.380500
19.659900 3.372500
19.690200 3.358200
19.720500 3.284600
19.750900 3.223400
19.781200 3.191700
19.811500 3.183000
19.841800 3.133200
19.872100 3.070000
19.902400 3.018400
19.932700 3.011000
19.963000 3.066800
19.993300 3.053300
20.023600 3.085800
20.053900 3.115000
20.084200 3.252200
20.114600 3.463300
20.144900 3.472000
20.175200 3.326000
20.205500 3.168800
20.235800 3.085900
20.266100 2.967400
20.296400 2.907500
20.326700 2.889800
20.357000 2.853600
20.387300 2.834800
20.417600 2.803900
20.447900 2.768600
20.478200 2.694600
20.508600 2.600400
20.538900 2.588700
20.569200 2.546000
20.599500 2.438900
20.629800 2.396900
20.660100 2.349500
20.690400 2.396900
20.720700 2.449900
20.751000 2.354400
20.781300 2.345500
20.811600 2.354100
20.841900 2.351500
20.872300 2.357300
20.902600 2.439900
20.932900 2.491300
20.963200 2.564100
20.993500 2.633600
21.023800 2.681700
21.054100 2.738200
21.084400 2.783800
21.114700 2.810700
21.145000 2.810400
21.175300 2.836600
21.205600 2.884800
21.235900 2.953900
21.266300 3.038600
21.296600 3.042000
21.326900 3.005100
21.357200 2.938500
21.387500 2.778600
21.417800 2.665800
21.448100 2.543200
21.478400 2.389800
21.508700 2.321300
21.539000 2.225400
21.569300 1.983400
21.599600 2.021900
21.630000 2.027500
21.660300 2.139600
21.690600 2.219900
21.720900 2.192700
21.751200 2.089400
21.781500 1.977700
21.811800 1.912700
21.842100 1.909000
21.872400 1.946200
21.902700 2.033200
21.933000 2.047300
21.963300 2.118300
21.993600 2.194100
22.024000 2.273600
22.054300 2.329600
22.084600 2.461300
22.114900 2.495700
22.145200 2.623800
22.175500 2.696600
22.205800 2.839900
22.236100 3.106100
22.266400 3.465900
22.296700 3.451000
22.327000 3.460500
22.357300 3.506500
22.387700 3.203600
22.418000 3.128700
22.448300 3.156900
22.478600 3.326100
22.508900 3.860200
22.539200 3.153200
22.569500 3.350000
22.599800 3.286000
22.630100 2.908800
22.660400 2.913900
22.690700 2.892600
22.721000 3.094400
22.751300 2.981700
22.781700 2.903500
22.812000 2.805400
22.842300 2.875900
22.872600 3.142500
22.902900 3.303900
22.933200 3.400700
22.963500 3.517400
22.993800 3.362200
23.024100 3.141600
23.054400 3.056500
23.084700 2.869800
23.115000 2.871800
23.145400 2.735800
23.175700 2.723200
23.206000 2.645700
23.236300 2.501100
23.266600 2.447100
23.296900 2.415500
23.327200 2.370200
23.357500 2.338100
23.387800 2.338700
23.418100 2.353200
23.448400 2.367100
23.478700 2.350900
23.509000 2.366300
23.539400 2.422000
23.569700 2.495500
23.600000 2.565600
23.630300 2.619800
23.660600 2.685300
23.690900 2.714200
23.721200 2.725800
23.751500 2.766200
23.781800 2.835100
23.812100 3.023000
23.842400 2.879600
23.872700 2.843300
23.903100 2.832500
23.933400 2.553600
23.963700 2.531100
23.994000 2.561500
24.024300 2.591400
24.054600 2.607900
24.084900 2.552200
24.115200 2.460800
24.145500 2.412800
24.175800 2.346700
24.206100 2.297600
24.236400 2.223500
24.266700 2.057800
24.297100 2.020200
24.327400 2.024800
24.357700 2.232500
24.388000 2.325900
24.418300 2.300600
24.448600 2.311200
24.478900 2.365600
24.509200 2.385500
24.539500 2.705900
24.569800 2.350300
24.600100 2.350400
24.630400 2.367000
24.660800 2.375300
24.691100 2.419000
24.721400 2.429000
24.751700 2.413500
24.782000 2.381200
24.812300 2.428800
24.842600 2.558600
24.872900 2.740100
24.903200 3.013800
24.933500 3.377200
24.963800 3.300700
24.994100 3.215600
25.024400 3.038000
25.054800 2.965100
25.085100 2.839500
25.115400 2.769200
25.145700 2.642300
25.176000 2.471000
25.206300 2.272300
25.236600 2.071200
25.266900 1.959300
25.297200 1.878200
25.327500 1.821700
25.357800 1.775900
25.388100 1.730900
25.418500 1.687400
25.448800 1.648000
25.479100 1.607700
25.509400 1.569300
25.539700 1.528100
25.570000 1.492400
25.600300 1.485400
25.630600 1.436000
25.660900 1.396400
25.691200 1.406400
25.721500 1.425300
25.751800 1.478600
25.782100 1.497800
25.812500 1.496700
25.842800 1.513400
25.873100 1.472900
25.903400 1.399600
25.933700 1.344100
25.964000 1.322200
25.994300 1.321100
26.024600 1.323600
26.054900 1.315100
26.085200 1.351300
26.115500 1.392500
26.145800 1.453700
26.176200 1.530600
26.206500 1.591700
26.236800 1.636000
26.267100 1.658900
26.297400 1.665700
26.327700 1.670400
26.358000 1.714300
26.388300 1.804800
26.418600 1.728800
26.448900 1.622000
26.479200 1.544400
26.509500 1.479400
26.539800 1.460500
26.570200 1.351200
26.600500 1.266400
26.630800 1.208800
26.661100 1.200400
26.691400 1.200200
26.721700 1.208500
26.752000 1.213100
26.782300 1.220000
26.812600 1.199900
26.842900 1.193300
26.873200 1.190200
26.903500 1.190900
26.933900 1.211900
26.964200 1.253800
26.994500 1.316600
27.024800 1.368000
27.055100 1.483900
27.085400 1.670700
27.115700 1.429000
27.146000 1.070500
27.176300 1.083900
27.206600 1.098900
27.236900 1.116600
27.267200 1.142700
27.297500 1.179800
27.327900 1.225800
27.358200 1.279300
27.388500 1.366600
27.418800 1.471300
27.449100 1.573800
27.479400 1.673800
27.509700 1.783000
27.540000 1.904800
27.570300 2.139300
27.600600 2.034600
27.630900 1.951200
27.661200 1.867600
27.691600 1.819800
27.721900 1.781600
27.752200 1.807300
27.782500 1.839600
27.812800 1.798300
27.843100 1.765800
27.873400 2.394800
27.903700 1.621000
27.934000 1.587800
27.964300 1.605400
27.994600 1.589300
28.024900 1.508000
28.055200 1.421400
28.085600 1.332800
28.115900 1.334200
28.146200 1.377300
28.176500 1.448600
28.206800 1.616400
28.237100 1.593400
28.267400 1.585100
28.297700 1.567900
28.328000 1.558800
28.358300 1.556000
28.388600 1.560800
28.418900 1.566600
28.449300 1.572800
28.479600 1.579600
28.509900 1.589100
28.540200 1.798400
28.570500 1.904600
28.600800 1.844500
28.631100 1.864700
28.661400 1.897300
28.691700 1.958400
28.722000 2.032000
28.752300 2.107600
28.782600 2.184400
28.812900 2.250500
28.843300 2.262200
28.873600 2.313400
28.903900 2.356700
28.934200 2.413200
28.964500 2.465900
28.994800 2.495000
29.025100 2.579300
29.055400 2.558800
29.085700 2.616900
29.116000 2.662100
29.146300 2.748800
29.176600 2.840500
29.207000 2.834600
29.237300 2.783200
29.267600 2.753200
29.297900 2.764500
29.328200 2.789800
29.358500 2.896900
29.388800 3.086600
29.419100 3.061200
29.449400 2.599200
29.479700 2.532000
29.510000 2.556800
29.540300 2.915500
29.570600 3.210400
29.601000 2.866900
29.631300 2.617400
29.661600 2.461800
29.691900 2.378200
29.722200 2.368800
29.752500 2.488900
29.782800 2.895300
29.813100 3.126000
29.843400 3.078000
29.873700 2.969200
29.904000 3.147500
29.934300 3.215800
29.964700 3.191200
29.995000 3.168700
30.025300 3.113400
30.055600 3.066400
30.085900 3.062900
30.116200 3.136500
30.146500 3.280100
30.176800 3.546100
30.207100 3.429600
30.237400 3.192500
30.267700 3.017800
30.298000 2.983600
30.328300 3.073400
30.358700 3.307600
30.389000 3.543900
30.419300 4.023600
30.449600 4.367000
30.479900 3.985000
30.510200 3.895500
30.540500 3.698800
30.570800 3.581600
30.601100 3.520000
30.631400 3.508800
30.661700 3.418600
30.692000 3.258200
30.722400 3.143700
30.752700 3.122700
30.783000 3.113500
30.813300 3.211800
30.843600 3.590000
30.873900 3.742400
30.904200 3.784300
30.934500 3.885400
30.964800 3.792900
30.995100 3.604900
31.025400 3.612200
31.055700 3.505900
31.086000 3.264100
31.116400 2.998100
31.146700 2.777600
31.177000 2.719200
31.207300 2.437200
31.237600 2.364600
31.267900 2.283000
31.298200 2.210300
31.328500 2.154000
31.358800 2.112900
31.389100 2.082800
31.419400 2.128100
31.449700 2.170600
31.480100 2.155900
31.510400 2.112000
31.540700 2.052000
31.571000 1.975900
31.601300 1.938100
31.631600 1.921100
31.661900 1.895800
31.692200 1.880600
31.722500 1.859400
31.752800 1.842900
31.783100 1.854300
31.813400 1.906100
31.843700 1.964200
31.874100 2.028400
31.904400 2.093100
31.934700 2.147700
31.965000 2.189400
31.995300 2.147700
32.025600 2.105900
32.055900 2.110200
32.086200 2.176500
32.116500 2.378700
32.146800 2.797800
32.177100 3.347200
32.207400 3.248100
32.237800 3.202600
32.268100 3.045900
32.298400 2.493800
32.328700 2.267400
32.359000 2.073400
32.389300 1.945600
32.419600 1.891000
32.449900 2.007400
32.480200 2.019400
32.510500 1.900800
32.540800 1.873400
32.571100 1.894800
32.601400 1.910200
32.631800 2.002800
32.662100 2.123800
32.692400 2.247200
32.722700 2.431400
32.753000 2.649400
32.783300 2.842800
32.813600 3.011800
32.843900 3.349700
32.874200 3.957700
32.904500 4.981700
32.934800 4.215600
32.965100 3.697200
32.995500 3.368700
33.025800 2.948500
33.056100 2.730400
33.086400 2.623100
33.116700 2.338900
33.147000 2.117300
33.177300 2.214400
33.207600 1.687300
33.237900 1.444000
33.268200 1.192200
33.298500 1.078900
33.328800 1.096300
33.359100 1.087600
33.389500 1.057900
33.419800 1.068100
33.450100 1.057600
33.480400 1.132900
33.510700 1.188200
33.541000 1.225400
33.571300 1.263100
33.601600 1.317800
33.631900 1.481600
33.662200 1.716300
33.692500 1.802300
33.722800 1.868300
33.753200 1.980300
33.783500 2.107100
33.813800 2.194300
33.844100 2.225900
33.874400 2.258100
33.904700 2.364300
33.935000 2.546200
33.965300 2.677300
33.995600 2.743400
34.025900 2.727900
34.056200 2.659700
34.086500 2.554900
34.116800 2.551000
34.147200 2.584200
34.177500 2.603800
34.207800 2.580100
34.238100 2.538700
34.268400 2.479500
34.298700 2.182100
34.329000 1.918800
34.359300 1.774700
34.389600 1.732600
34.419900 1.688000
34.450200 1.645100
34.480500 1.593900
34.510900 1.576900
34.541200 1.543800
34.571500 1.531700
34.601800 1.543200
34.632100 1.555900
34.662400 1.558200
34.692700 1.577200
34.723000 1.599300
34.753300 1.629400
34.783600 1.656800
34.813900 1.697700
34.844200 1.730100
34.874500 1.755400
34.904900 1.806500
34.935200 2.097200
34.965500 2.163100
34.995800 2.068100
35.026100 2.092700
35.056400 2.101500
35.086700 2.095800
35.117000 2.116600
35.147300 2.150100
35.177600 2.245900
35.207900 2.325800
35.238200 2.392800
35.268600 2.454800
35.298900 2.548700
35.329200 2.586400
35.359500 2.569700
35.389800 2.533600
35.420100 2.301900
35.450400 2.141500
35.480700 1.957600
35.511000 1.894600
35.541300 1.512900
35.571600 1.347100
35.601900 1.129900
35.632200 1.127700
35.662600 1.217400
35.692900 1.287000
35.723200 1.390700
35.753500 1.584300
35.783800 1.648200
35.814100 1.602400
35.844400 1.534000
35.874700 1.489400
35.905000 1.464600
35.935300 1.441100
35.965600 1.415900
35.995900 1.384700
36.026300 1.341700
36.056600 1.324200
36.086900 1.319100
36.117200 1.314800
36.147500 1.323600
36.177800 1.336700
36.208100 1.354600
36.238400 1.378000
36.268700 1.406400
36.299000 1.443300
36.329300 1.490400
36.359600 1.503600
36.389900 1.522300
36.420300 1.543900
36.450600 1.569000
36.480900 1.615500
36.511200 1.707700
36.541500 1.870700
36.571800 1.842400
36.602100 1.727600
36.632400 1.656300
36.662700 1.608600
36.693000 1.618700
36.723300 1.627300
36.753600 1.637600
36.784000 1.643400
36.814300 1.688600
36.844600 1.735400
36.874900 1.777200
36.905200 1.820500
36.935500 1.880200
36.965800 1.909600
36.996100 1.921400
37.026400 1.936900
37.056700 1.984000
37.087000 2.028900
37.117300 2.070800
37.147600 2.083500
37.178000 2.059900
37.208300 2.032300
37.238600 2.098200
37.268900 2.069700
37.299200 2.078700
37.329500 2.117700
37.359800 2.170200
37.390100 2.117600
37.420400 2.089700
37.450700 2.063000
37.481000 1.992400
37.511300 1.876000
37.541700 1.800300
37.572000 1.766800
37.602300 1.751600
37.632600 1.763700
37.662900 1.791100
37.693200 1.828000
37.723500 1.791200
37.753800 1.801800
37.784100 1.720100
37.814400 1.645300
37.844700 1.556400
37.875000 1.443300
37.905300 1.449200
37.935700 1.443900
37.966000 1.437100
37.996300 1.434700
38.026600 1.455200
38.056900 1.499900
38.087200 1.513100
38.117500 1.503600
38.147800 1.483000
38.178100 1.541000
38.208400 1.645400
38.238700 1.729800
38.269000 1.763900
38.299400 1.790200
38.329700 1.836600
38.360000 1.866800
38.390300 1.913200
38.420600 1.980900
38.450900 2.086600
38.481200 2.207900
38.511500 2.337700
38.541800 2.421700
38.572100 2.171600
38.602400 2.182200
38.632700 2.170400
38.663000 2.135100
38.693400 2.157200
38.723700 2.101200
38.754000 2.001000
38.784300 1.933600
38.814600 1.833100
38.844900 1.751700
38.875200 1.705100
38.905500 1.695100
38.935800 1.722200
38.966100 1.726400
38.996400 1.679300
39.026700 1.593000
39.057100 1.535900
39.087400 1.491500
39.117700 1.476700
39.148000 1.425300
39.178300 1.405200
39.208600 1.414700
39.238900 1.478300
39.269200 1.548600
39.299500 1.624300
39.329800 1.762700
39.360100 1.764400
39.390400 1.709400
39.420700 1.708100
39.451100 1.715800
39.481400 1.729900
39.511700 1.755900
39.542000 1.828100
39.572300 2.037300
39.602600 1.985700
39.632900 1.890200
39.663200 1.886200
39.693500 1.904300
39.723800 1.952300
39.754100 1.921300
39.784400 1.856500
39.814800 1.781700
39.845100 1.737100
39.875400 1.712200
39.905700 1.663700
39.936000 1.605900
39.966300 1.566000
39.996600 1.500500
40.026900 1.456400
40.057200 1.374300
40.087500 1.339800
40.117800 1.307900
40.148100 1.277200
40.178500 1.202200
40.208800 1.175400
40.239100 1.185600
40.269400 1.213800
40.299700 1.235500
40.330000 1.253200
40.360300 1.295500
40.390600 1.351600
40.420900 1.418400
40.451200 1.497500
40.481500 1.591500
40.511800 1.716100
40.542100 1.745700
40.572500 1.730600
40.602800 2.038300
40.633100 1.703400
40.663400 1.713200
40.693700 1.684000
40.724000 1.634700
40.754300 1.572400
40.784600 1.541500
40.814900 1.524300
40.845200 1.521500
40.875500 1.637900
40.905800 1.631300
40.936200 1.596000
40.966500 1.560600
40.996800 1.553400
41.027100 1.596500
41.057400 1.665600
41.087700 1.635300
41.118000 1.610600
41.148300 1.651400
41.178600 1.707500
41.208900 1.764000
41.239200 1.800400
41.269500 1.850600
41.299800 1.943000
41.330200 2.015900
41.360500 2.003100
41.390800 1.910400
41.421100 1.831200
41.451400 1.815800
41.481700 1.836800
41.512000 1.839700
41.542300 1.811400
41.572600 1.746800
41.602900 1.682500
41.633200 1.628500
41.663500 1.572800
41.693900 1.508900
41.724200 1.462700
41.754500 1.402900
41.784800 1.324900
41.815100 1.261700
41.845400 1.196200
41.875700 1.133300
41.906000 1.079400
41.936300 1.034600
41.966600 0.988900
41.996900 0.956900
42.027200 0.931700
42.057500 0.912600
42.087900 0.895900
42.118200 0.881500
42.148500 0.865700
42.178800 0.833200
42.209100 0.799700
42.239400 0.768300
42.269700 0.733500
42.300000 0.693100
42.330300 0.646400
42.360600 0.595900
42.390900 0.554300
42.421200 0.522800
42.451600 0.505500
42.481900 0.467800
42.512200 0.417100
42.542500 0.364600
42.572800 0.313900
42.603100 0.271400
42.633400 0.233600
42.663700 0.189200
42.694000 0.153100
42.724300 0.120400
42.754600 0.084100
42.784900 0.047100
42.815200 0.026900
42.845600 0.019600
42.875900 0.013500
42.906200 0.008700
42.936500 0.004900
42.966800 0.002300
42.997100 0.000600
43.027400 0.000000
43.057700 0.000000
43.088000 0.000000
43.118300 0.000000
43.148600 0.000000
43.178900 0.000000
43.209300 0.000000
43.239600 0.000000
43.269900 0.000000
43.300200 0.000000
43.330500 0.000000
43.360800 0.000000
43.391100 0.000000
43.421400 0.000000
43.451700 0.000000
43.482000 0.000000
43.512300 0.000000
43.542600 0.000000
43.572900 0.000000
43.603300 0.000000
43.633600 0.000000
43.663900 0.000000
43.694200 0.000000
43.724500 0.000000
43.754800 0.000000
43.785100 0.000000
43.815400 0.000000
43.845700 0.000000
43.876000 0.000000
43.906300 0.000000
43.936600 0.000000
43.967000 0.000000
43.997300 0.000000
44.027600 0.000000
44.057900 0.000000
44.088200 0.000000
44.118500 0.000000
44.148800 0.000000
44.179100 0.000000
44.209400 0.000000
44.239700 0.000000
44.270000 0.000000
44.300300 0.000000
44.330600 0.000000
44.361000 0.000000
44.391300 0.000000
44.421600 0.000000
44.451900 0.000000
44.482200 0.000000
44.512500 0.000000
44.542800 0.000000
44.573100 0.000000
44.603400 0.000000
44.633700 0.000000
44.664000 0.000000
44.694300 0.000000
44.724700 0.000000
44.755000 0.000000
44.785300 0.000000
44.815600 0.000000
44.845900 0.000000
44.876200 0.000000
44.906500 0.000000
44.936800 0.000000
44.967100 0.000000
44.997400 0.000000
45.027700 0.000000
45.058000 0.000000
45.088300 0.000000
45.118700 0.000000
45.149000 0.000000
45.179300 0.000000
45.209600 0.000000
45.239900 0.000000
45.270200 0.000000
45.300500 0.000000
45.330800 0.000000
45.361100 0.000000
45.391400 0.000000
45.421700 0.000000
45.452000 0.000000
45.482400 0.000000
45.512700 0.000000
45.543000 0.000000
45.573300 0.000000
45.603600 0.000000
45.633900 0.000000
45.664200 0.000000
45.694500 0.000000
45.724800 0.000000
45.755100 0.000000
45.785400 0.000000
e
