set title 'mp-1040425 - Density of States'
set xlabel 'Energy (eV)'
set ylabel 'DOS (states/eV)'
set grid
set xrange [-10:10]
set yrange [0:4.151]
set xzeroaxis lt -1
set terminal png size 800,600
set output 'mp-1040425_dos_gnuplot.png'
plot '-' using 1:2 with lines title 'DOS'
-25.112700 0.000000
-25.081200 0.000000
-25.049700 0.000000
-25.018200 0.000000
-24.986800 0.000000
-24.955300 0.000000
-24.923800 0.000000
-24.892300 0.000000
-24.860800 0.000000
-24.829400 0.000000
-24.797900 0.000000
-24.766400 0.000000
-24.734900 0.000000
-24.703400 0.000000
-24.672000 0.000000
-24.640500 0.000000
-24.609000 0.000000
-24.577500 0.000000
-24.546000 0.000000
-24.514500 0.000000
-24.483100 0.000000
-24.451600 0.000000
-24.420100 0.000000
-24.388600 0.000000
-24.357100 0.000000
-24.325700 0.000000
-24.294200 0.000000
-24.262700 0.000000
-24.231200 0.000000
-24.199700 0.000000
-24.168200 0.000000
-24.136800 0.000000
-24.105300 0.000000
-24.073800 0.000000
-24.042300 0.000000
-24.010800 0.000000
-23.979400 0.000000
-23.947900 0.000000
-23.916400 0.000000
-23.884900 0.000000
-23.853400 0.000000
-23.821900 0.000000
-23.790500 0.000000
-23.759000 0.000000
-23.727500 0.000000
-23.696000 0.000000
-23.664500 0.000000
-23.633100 0.000000
-23.601600 0.000000
-23.570100 0.000000
-23.538600 0.000000
-23.507100 0.000000
-23.475700 0.000000
-23.444200 0.000000
-23.412700 0.000000
-23.381200 0.000000
-23.349700 0.000000
-23.318200 0.000000
-23.286800 0.000000
-23.255300 0.000000
-23.223800 0.000000
-23.192300 0.000000
-23.160800 0.000000
-23.129400 0.000000
-23.097900 0.000000
-23.066400 0.000000
-23.034900 0.000000
-23.003400 0.000000
-22.971900 0.000000
-22.940500 0.000000
-22.909000 0.000000
-22.877500 0.000000
-22.846000 0.000000
-22.814500 0.000000
-22.783100 0.000000
-22.751600 0.000000
-22.720100 0.000000
-22.688600 0.000000
-22.657100 0.000000
-22.625600 0.000000
-22.594200 0.000000
-22.562700 0.000000
-22.531200 0.000000
-22.499700 0.000000
-22.468200 0.000000
-22.436800 0.000000
-22.405300 0.000000
-22.373800 0.000000
-22.342300 0.000000
-22.310800 0.000000
-22.279300 0.000000
-22.247900 0.027100
-22.216400 0.326300
-22.184900 0.264300
-22.153400 0.289300
-22.121900 0.314300
-22.090500 0.339200
-22.059000 0.308600
-22.027500 0.289400
-21.996000 0.298200
-21.964500 0.307000
-21.933100 0.315800
-21.901600 0.324600
-21.870100 0.305900
-21.838600 0.304100
-21.807100 0.302200
-21.775600 0.300300
-21.744200 0.303700
-21.712700 0.308200
-21.681200 0.312700
-21.649700 0.317200
-21.618200 0.321700
-21.586800 0.314100
-21.555300 0.303500
-21.523800 0.304400
-21.492300 0.305300
-21.460800 0.306100
-21.429300 0.307000
-21.397900 0.307900
-21.366400 0.310600
-21.334900 0.313400
-21.303400 0.316100
-21.271900 0.318900
-21.240500 0.321600
-21.209000 0.311000
-21.177500 0.309000
-21.146000 0.306900
-21.114500 0.306900
-21.083000 0.308000
-21.051600 0.309100
-21.020100 0.310300
-20.988600 0.311400
-20.957100 0.312500
-20.925600 0.313700
-20.894200 0.315500
-20.862700 0.317300
-20.831200 0.319200
-20.799700 0.317100
-20.768200 0.311900
-20.736800 0.311200
-20.705300 0.311000
-20.673800 0.310900
-20.642300 0.310700
-20.610800 0.310500
-20.579300 0.311400
-20.547900 0.312400
-20.516400 0.313500
-20.484900 0.314500
-20.453400 0.315500
-20.421900 0.316600
-20.390500 0.317600
-20.359000 0.318600
-20.327500 0.319900
-20.296000 0.321300
-20.264500 0.316100
-20.233000 0.315000
-20.201600 0.314000
-20.170100 0.313700
-20.138600 0.314100
-20.107100 0.314400
-20.075600 0.314800
-20.044200 0.315100
-20.012700 0.315500
-19.981200 0.315800
-19.949700 0.316700
-19.918200 0.317600
-19.886700 0.318500
-19.855300 0.319400
-19.823800 0.320300
-19.792300 0.321200
-19.760800 0.322100
-19.729300 0.323000
-19.697900 0.320900
-19.666400 0.318500
-19.634900 0.318500
-19.603400 0.318400
-19.571900 0.318300
-19.540500 0.318300
-19.509000 0.318400
-19.477500 0.318900
-19.446000 0.319400
-19.414500 0.319900
-19.383000 0.320400
-19.351600 0.321000
-19.320100 0.321500
-19.288600 0.322000
-19.257100 0.322500
-19.225600 0.323400
-19.194200 0.324200
-19.162700 0.325000
-19.131200 0.325800
-19.099700 0.326600
-19.068200 0.327500
-19.036700 0.325200
-19.005300 0.324700
-18.973800 0.324200
-18.942300 0.324100
-18.910800 0.324300
-18.879300 0.324700
-18.847900 0.325000
-18.816400 0.325400
-18.784900 0.325800
-18.753400 0.326100
-18.721900 0.326800
-18.690400 0.327500
-18.659000 0.328200
-18.627500 0.328800
-18.596000 0.329500
-18.564500 0.330200
-18.533000 0.330900
-18.501600 0.331500
-18.470100 0.332200
-18.438600 0.333000
-18.407100 0.333900
-18.375600 0.334900
-18.344100 0.335200
-18.312700 0.334400
-18.281200 0.334500
-18.249700 0.334900
-18.218200 0.335400
-18.186700 0.335800
-18.155300 0.336200
-18.123800 0.337100
-18.092300 0.337900
-18.060800 0.338700
-18.029300 0.339800
-17.997900 0.340900
-17.966400 0.342000
-17.934900 0.343000
-17.903400 0.344300
-17.871900 0.346000
-17.840400 0.347600
-17.809000 0.349300
-17.777500 0.350900
-17.746000 0.352500
-17.714500 0.354200
-17.683000 0.355800
-17.651600 0.357400
-17.620100 0.359100
-17.588600 0.361100
-17.557100 0.365400
-17.525600 0.370200
-17.494100 0.375000
-17.462700 0.380300
-17.431200 0.385900
-17.399700 0.391500
-17.368200 0.397100
-17.336700 0.402700
-17.305300 0.408500
-17.273800 0.418300
-17.242300 0.428200
-17.210800 0.534900
-17.179300 0.516200
-17.147800 0.497500
-17.116400 0.478800
-17.084900 0.786700
-17.053400 0.638000
-17.021900 0.489300
-16.990400 0.340600
-16.959000 0.313500
-16.927500 0.302300
-16.896000 0.291100
-16.864500 0.280000
-16.833000 0.268800
-16.801600 0.257600
-16.770100 0.247400
-16.738600 0.241500
-16.707100 0.306600
-16.675600 0.770400
-16.644100 0.217900
-16.612700 0.211200
-16.581200 0.204500
-16.549700 0.197800
-16.518200 0.191100
-16.486700 0.184400
-16.455300 0.177800
-16.423800 0.171100
-16.392300 0.164400
-16.360800 0.157700
-16.329300 0.151000
-16.297800 0.144300
-16.266400 0.137600
-16.234900 0.131000
-16.203400 0.124300
-16.171900 0.117600
-16.140400 0.126200
-16.109000 0.141800
-16.077500 0.157400
-16.046000 0.173000
-16.014500 0.188600
-15.983000 0.081700
-15.951500 0.077700
-15.920100 0.102900
-15.888600 0.150800
-15.857100 0.198600
-15.825600 0.246400
-15.794100 0.294300
-15.762700 0.342100
-15.731200 0.232700
-15.699700 0.242900
-15.668200 0.317700
-15.636700 0.603500
-15.605200 0.290600
-15.573800 0.292300
-15.542300 0.294000
-15.510800 0.295800
-15.479300 0.297500
-15.447800 0.299200
-15.416400 0.301000
-15.384900 0.302700
-15.353400 0.304400
-15.321900 0.314500
-15.290400 0.329600
-15.259000 0.344700
-15.227500 0.382800
-15.196000 0.402300
-15.164500 0.421800
-15.133000 0.441200
-15.101500 0.460700
-15.070100 0.480200
-15.038600 0.499700
-15.007100 0.519400
-14.975600 0.542600
-14.944100 0.565800
-14.912700 0.418200
-14.881200 0.412800
-14.849700 0.407400
-14.818200 0.402000
-14.786700 0.396600
-14.755200 0.391200
-14.723800 0.385900
-14.692300 0.380700
-14.660800 0.375500
-14.629300 0.370300
-14.597800 0.365800
-14.566400 0.361400
-14.534900 0.357000
-14.503400 0.352600
-14.471900 0.348200
-14.440400 0.343800
-14.408900 0.339400
-14.377500 0.335000
-14.346000 0.330600
-14.314500 0.326200
-14.283000 0.321500
-14.251500 0.317400
-14.220100 0.316100
-14.188600 0.314800
-14.157100 0.313400
-14.125600 0.312200
-14.094100 0.311000
-14.062700 0.309700
-14.031200 0.308500
-13.999700 0.307200
-13.968200 0.306000
-13.936700 0.304700
-13.905200 0.303300
-13.873800 0.302000
-13.842300 0.300600
-13.810800 0.299300
-13.779300 0.298000
-13.747800 0.296600
-13.716400 0.277600
-13.684900 0.277000
-13.653400 0.276400
-13.621900 0.275800
-13.590400 0.275200
-13.558900 0.274600
-13.527500 0.274000
-13.496000 0.273400
-13.464500 0.272700
-13.433000 0.272100
-13.401500 0.271500
-13.370100 0.270800
-13.338600 0.270200
-13.307100 0.269500
-13.275600 0.275200
-13.244100 0.288400
-13.212600 0.301500
-13.181200 0.314600
-13.149700 0.327800
-13.118200 0.340900
-13.086700 0.354100
-13.055200 0.367200
-13.023800 0.380400
-12.992300 0.393500
-12.960800 0.406600
-12.929300 0.360600
-12.897800 0.360500
-12.866300 0.360900
-12.834900 0.361200
-12.803400 0.361300
-12.771900 0.361300
-12.740400 0.361200
-12.708900 0.361200
-12.677500 0.361100
-12.646000 0.361000
-12.614500 0.361000
-12.583000 0.363000
-12.551500 0.365700
-12.520100 0.368500
-12.488600 0.371300
-12.457100 0.374100
-12.425600 0.376900
-12.394100 0.379600
-12.362600 0.382400
-12.331200 0.385200
-12.299700 0.387900
-12.268200 0.390000
-12.236700 0.378100
-12.205200 0.377800
-12.173800 0.377600
-12.142300 0.377800
-12.110800 0.378000
-12.079300 0.378200
-12.047800 0.378400
-12.016300 0.378500
-11.984900 0.378700
-11.953400 0.378900
-11.921900 0.379100
-11.890400 0.391000
-11.858900 0.392100
-11.827500 0.393200
-11.796000 0.394300
-11.764500 0.395400
-11.733000 0.396500
-11.701500 0.397500
-11.670000 0.397900
-11.638600 0.397700
-11.607100 0.397500
-11.575600 0.397300
-11.544100 0.397100
-11.512600 0.396900
-11.481200 0.396700
-11.449700 0.396500
-11.418200 0.396300
-11.386700 0.398100
-11.355200 0.399000
-11.323800 0.402400
-11.292300 0.405700
-11.260800 0.409000
-11.229300 0.411400
-11.197800 0.413900
-11.166300 0.416300
-11.134900 0.418800
-11.103400 0.421200
-11.071900 0.423300
-11.040400 0.425400
-11.008900 0.427500
-10.977500 0.429000
-10.946000 0.429700
-10.914500 0.430500
-10.883000 0.431300
-10.851500 0.432000
-10.820000 0.432800
-10.788600 0.433600
-10.757100 0.434300
-10.725600 0.435100
-10.694100 0.435900
-10.662600 0.436600
-10.631200 0.437400
-10.599700 0.430700
-10.568200 0.431900
-10.536700 0.447600
-10.505200 0.456500
-10.473700 0.460400
-10.442300 0.464100
-10.410800 0.467800
-10.379300 0.471500
-10.347800 0.476100
-10.316300 0.689000
-10.284900 0.901400
-10.253400 0.713900
-10.221900 0.734100
-10.190400 0.754200
-10.158900 0.774300
-10.127500 0.758300
-10.096000 0.739300
-10.064500 0.745300
-10.033000 0.753800
-10.001500 0.761800
-9.970000 0.769700
-9.938600 0.777700
-9.907100 0.787000
-9.875600 0.771400
-9.844100 0.777700
-9.812600 0.808800
-9.781200 0.827000
-9.749700 0.849000
-9.718200 0.871700
-9.686700 0.888900
-9.655200 0.905700
-9.623700 0.921100
-9.592300 0.934900
-9.560800 0.939500
-9.529300 0.942200
-9.497800 0.974500
-9.466300 1.010200
-9.434900 1.045900
-9.403400 1.081600
-9.371900 1.117400
-9.340400 1.160800
-9.308900 1.176000
-9.277400 1.138300
-9.246000 1.098200
-9.214500 1.073200
-9.183000 1.048200
-9.151500 1.021900
-9.120000 0.713300
-9.088600 0.677100
-9.057100 0.617500
-9.025600 0.591700
-8.994100 0.656100
-8.962600 0.720500
-8.931100 0.785000
-8.899700 0.849400
-8.868200 0.912100
-8.836700 0.949200
-8.805200 1.180400
-8.773700 1.202900
-8.742300 1.182900
-8.710800 1.165100
-8.679300 1.147300
-8.647800 1.082000
-8.616300 0.899000
-8.584900 0.764300
-8.553400 0.719200
-8.521900 0.665500
-8.490400 0.603400
-8.458900 0.544100
-8.427400 0.484800
-8.396000 0.485300
-8.364500 0.496800
-8.333000 0.508300
-8.301500 0.519800
-8.270000 0.531300
-8.238600 0.544100
-8.207100 0.557100
-8.175600 0.570100
-8.144100 0.583100
-8.112600 0.657900
-8.081100 0.940500
-8.049700 0.902600
-8.018200 0.865700
-7.986700 0.828800
-7.955200 0.791900
-7.923700 0.760900
-7.892300 0.741900
-7.860800 0.723400
-7.829300 0.704900
-7.797800 0.686400
-7.766300 0.668000
-7.734800 0.649500
-7.703400 0.631000
-7.671900 0.636500
-7.640400 0.635300
-7.608900 0.634100
-7.577400 0.632400
-7.546000 0.629500
-7.514500 0.626600
-7.483000 0.623700
-7.451500 0.620800
-7.420000 0.617900
-7.388600 0.614200
-7.357100 0.608900
-7.325600 0.604800
-7.294100 0.601400
-7.262600 0.598000
-7.231100 0.594600
-7.199700 0.591200
-7.168200 0.588400
-7.136700 0.587100
-7.105200 0.585500
-7.073700 0.593700
-7.042300 0.597600
-7.010800 0.594400
-6.979300 0.591200
-6.947800 0.588100
-6.916300 0.584900
-6.884800 0.582000
-6.853400 0.579100
-6.821900 0.576200
-6.790400 0.573300
-6.758900 0.570400
-6.727400 0.567600
-6.696000 0.564700
-6.664500 0.562900
-6.633000 0.562100
-6.601500 0.563600
-6.570000 0.565000
-6.538500 0.579000
-6.507100 0.576700
-6.475600 0.574400
-6.444100 0.572100
-6.412600 0.569400
-6.381100 0.565000
-6.349700 0.560900
-6.318200 0.556900
-6.286700 0.553000
-6.255200 0.549000
-6.223700 0.546500
-6.192200 0.556700
-6.160800 0.566900
-6.129300 0.570200
-6.097800 0.562900
-6.066300 0.556300
-6.034800 0.549700
-6.003400 0.593400
-5.971900 0.570700
-5.940400 0.548100
-5.908900 0.640200
-5.877400 0.560600
-5.846000 0.480500
-5.814500 0.401400
-5.783000 0.353700
-5.751500 0.356700
-5.720000 0.361000
-5.688500 0.365900
-5.657100 0.370700
-5.625600 0.375500
-5.594100 0.380400
-5.562600 0.386000
-5.531100 0.393400
-5.499700 0.400900
-5.468200 0.408300
-5.436700 0.415700
-5.405200 0.423200
-5.373700 0.431700
-5.342200 0.452800
-5.310800 0.473900
-5.279300 0.495000
-5.247800 0.516100
-5.216300 0.537200
-5.184800 0.747500
-5.153400 0.670200
-5.121900 0.592900
-5.090400 0.515600
-5.058900 0.439100
-5.027400 0.577900
-4.995900 0.829700
-4.964500 0.422700
-4.933000 0.405900
-4.901500 0.389000
-4.870000 0.372100
-4.838500 0.355200
-4.807100 0.338300
-4.775600 0.321400
-4.744100 0.304500
-4.712600 0.287600
-4.681100 0.270700
-4.649700 0.261500
-4.618200 0.261500
-4.586700 0.261400
-4.555200 0.261300
-4.523700 0.261200
-4.492200 0.261200
-4.460800 0.261100
-4.429300 0.261000
-4.397800 0.200600
-4.366300 0.203000
-4.334800 0.205300
-4.303400 0.207700
-4.271900 0.206400
-4.240400 0.201700
-4.208900 0.194700
-4.177400 0.187800
-4.145900 0.180900
-4.114500 0.173900
-4.083000 0.167000
-4.051500 0.160100
-4.020000 0.153100
-3.988500 0.146200
-3.957100 0.139300
-3.925600 0.132300
-3.894100 0.125400
-3.862600 0.123600
-3.831100 0.122400
-3.799600 0.121200
-3.768200 0.119900
-3.736700 0.118700
-3.705200 0.117500
-3.673700 0.116300
-3.642200 0.115100
-3.610800 0.113800
-3.579300 0.112600
-3.547800 0.111400
-3.516300 0.070400
-3.484800 0.067500
-3.453300 0.064700
-3.421900 0.061800
-3.390400 0.058900
-3.358900 0.056000
-3.327400 0.053100
-3.295900 0.050200
-3.264500 0.047400
-3.233000 0.044500
-3.201500 0.041600
-3.170000 0.038700
-3.138500 0.035800
-3.107100 0.032900
-3.075600 0.030100
-3.044100 0.027200
-3.012600 0.024300
-2.981100 0.021400
-2.949600 0.018500
-2.918200 0.015600
-2.886700 0.012800
-2.855200 0.009900
-2.823700 0.007000
-2.792200 0.004100
-2.760800 0.001200
-2.729300 0.001700
-2.697800 0.004800
-2.666300 0.007800
-2.634800 0.010900
-2.603300 0.013900
-2.571900 0.017000
-2.540400 0.020000
-2.508900 0.023000
-2.477400 0.026100
-2.445900 0.029100
-2.414500 0.032200
-2.383000 0.035200
-2.351500 0.038300
-2.320000 0.041300
-2.288500 0.044400
-2.257000 0.047400
-2.225600 0.050400
-2.194100 0.053500
-2.162600 0.056500
-2.131100 0.059600
-2.099600 0.062600
-2.068200 0.065700
-2.036700 0.068700
-2.005200 0.071800
-1.973700 0.129300
-1.942200 0.129100
-1.910800 0.128900
-1.879300 0.128700
-1.847800 0.128500
-1.816300 0.128300
-1.784800 0.128100
-1.753300 0.127900
-1.721900 0.127700
-1.690400 0.132000
-1.658900 0.142800
-1.627400 0.153600
-1.595900 0.164300
-1.564500 0.175100
-1.533000 0.185900
-1.501500 0.196700
-1.470000 0.207500
-1.438500 0.218300
-1.407000 0.229100
-1.375600 0.239900
-1.344100 0.250700
-1.312600 0.261500
-1.281100 0.534900
-1.249600 0.378200
-1.218200 0.267000
-1.186700 0.303100
-1.155200 0.339100
-1.123700 0.375200
-1.092200 0.411300
-1.060700 0.704800
-1.029300 1.107100
-0.997800 0.743000
-0.966300 0.818500
-0.934800 0.571200
-0.903300 0.544000
-0.871900 0.516900
-0.840400 0.489700
-0.808900 0.465000
-0.777400 0.447700
-0.745900 0.430500
-0.714400 0.413200
-0.683000 0.395900
-0.651500 0.387000
-0.620000 0.379200
-0.588500 0.371400
-0.557000 0.364400
-0.525600 0.357600
-0.494100 0.350800
-0.462600 0.344100
-0.431100 0.337300
-0.399600 0.327900
-0.368200 0.323200
-0.336700 0.318500
-0.305200 0.313800
-0.273700 0.309800
-0.242200 0.306500
-0.210700 0.303700
-0.179300 0.301100
-0.147800 0.298500
-0.116300 0.295900
-0.084800 0.293300
-0.053300 0.290800
-0.021900 0.288200
0.009600 0.285600
0.041100 0.283000
0.072600 0.280400
0.104100 0.277800
0.135600 0.275400
0.167000 0.273000
0.198500 0.270600
0.230000 0.268200
0.261500 0.265700
0.293000 0.263500
0.324400 0.261500
0.355900 0.259400
0.387400 0.257400
0.418900 0.255300
0.450400 0.252200
0.481900 0.249100
0.513300 0.246000
0.544800 0.326700
0.576300 0.488200
0.607800 0.431300
0.639300 0.443700
0.670700 0.456000
0.702200 0.468400
0.733700 0.480700
0.765200 0.474900
0.796700 0.456700
0.828100 0.444900
0.859600 0.448500
0.891100 0.452100
0.922600 0.455700
0.954100 0.459400
0.985600 0.463000
1.017000 0.466700
1.048500 0.449400
1.080000 0.447200
1.111500 0.445000
1.143000 0.442800
1.174400 0.440600
1.205900 0.441100
1.237400 0.442300
1.268900 0.458900
1.300400 0.541500
1.331900 0.659000
1.363300 0.682100
1.394800 0.647700
1.426300 0.654500
1.457800 0.660000
1.489300 0.663400
1.520700 0.661300
1.552200 0.647400
1.583700 0.638100
1.615200 0.640400
1.646700 0.665900
1.678200 0.712900
1.709600 0.746200
1.741100 0.781800
1.772600 0.817200
1.804100 0.846300
1.835600 0.869700
1.867000 0.876500
1.898500 0.868000
1.930000 0.861500
1.961500 0.861100
1.993000 0.860900
2.024400 0.859700
2.055900 0.858200
2.087400 0.861100
2.118900 0.867200
2.150400 0.870600
2.181900 0.870000
2.213300 0.870900
2.244800 0.885800
2.276300 0.904900
2.307800 0.920500
2.339300 0.937600
2.370700 0.958600
2.402200 0.981300
2.433700 1.008200
2.465200 1.035500
2.496700 1.061600
2.528200 1.084500
2.559600 1.105100
2.591100 1.115100
2.622600 1.111800
2.654100 1.116600
2.685600 1.116800
2.717000 1.114500
2.748500 1.113600
2.780000 1.361300
2.811500 1.322800
2.843000 1.286600
2.874500 1.251900
2.905900 1.217300
2.937400 1.182700
2.968900 1.148000
3.000400 1.117400
3.031900 1.096700
3.063300 1.077300
3.094800 1.055500
3.126300 1.036800
3.157800 1.038500
3.189300 1.048500
3.220800 0.956800
3.252200 0.889100
3.283700 0.889600
3.315200 0.968300
3.346700 1.221600
3.378200 1.500600
3.409600 1.466500
3.441100 1.445200
3.472600 1.448200
3.504100 1.440000
3.535600 1.400900
3.567000 1.282700
3.598500 1.144700
3.630000 1.033500
3.661500 1.005100
3.693000 1.022500
3.724500 1.046100
3.755900 1.074600
3.787400 1.108400
3.818900 1.146400
3.850400 1.180500
3.881900 1.208500
3.913300 1.241800
3.944800 1.269300
3.976300 1.281400
4.007800 1.240000
4.039300 1.183400
4.070800 1.162600
4.102200 1.181100
4.133700 1.202200
4.165200 1.223100
4.196700 1.242400
4.228200 1.259300
4.259600 1.279500
4.291100 1.295300
4.322600 1.315100
4.354100 1.342700
4.385600 1.377900
4.417100 1.416100
4.448500 1.457000
4.480000 1.506100
4.511500 1.571600
4.543000 1.534400
4.574500 1.599900
4.605900 1.813400
4.637400 2.033400
4.668900 2.243800
4.700400 2.339900
4.731900 2.435000
4.763300 2.373100
4.794800 2.295800
4.826300 2.228700
4.857800 1.932600
4.889300 1.746000
4.920800 1.608100
4.952200 1.556000
4.983700 1.576900
5.015200 1.612700
5.046700 1.660900
5.078200 1.722700
5.109600 1.801500
5.141100 1.842800
5.172600 1.913100
5.204100 2.031600
5.235600 2.169200
5.267100 2.233400
5.298500 2.341300
5.330000 2.442300
5.361500 2.497600
5.393000 2.526600
5.424500 2.530100
5.455900 2.532900
5.487400 2.555600
5.518900 2.557900
5.550400 2.678900
5.581900 2.923500
5.613400 3.096100
5.644800 2.967300
5.676300 2.969600
5.707800 2.815500
5.739300 2.522300
5.770800 2.330000
5.802200 2.249100
5.833700 2.206200
5.865200 2.193100
5.896700 2.191900
5.928200 2.192300
5.959700 2.194900
5.991100 2.199700
6.022600 2.223700
6.054100 2.270400
6.085600 2.285900
6.117100 2.279200
6.148500 2.281000
6.180000 2.388400
6.211500 2.670500
6.243000 2.634200
6.274500 2.521800
6.305900 2.444000
6.337400 2.372200
6.368900 2.305400
6.400400 2.243800
6.431900 2.187800
6.463400 2.146200
6.494800 2.113500
6.526300 2.090400
6.557800 2.059600
6.589300 2.028200
6.620800 2.003900
6.652200 2.027000
6.683700 2.065900
6.715200 2.109400
6.746700 2.157300
6.778200 2.201000
6.809700 2.244000
6.841100 2.286400
6.872600 2.327500
6.904100 2.532800
6.935600 2.299600
6.967100 2.227500
6.998500 2.186900
7.030000 2.160800
7.061500 2.131300
7.093000 2.086100
7.124500 2.071500
7.156000 2.064100
7.187400 2.064200
7.218900 2.071500
7.250400 2.085700
7.281900 2.125800
7.313400 2.183700
7.344800 2.241100
7.376300 2.298000
7.407800 2.355700
7.439300 2.315300
7.470800 2.318200
7.502200 2.314600
7.533700 2.312700
7.565200 2.311600
7.596700 2.317800
7.628200 2.332500
7.659700 2.338600
7.691100 2.340400
7.722600 2.380400
7.754100 2.381200
7.785600 2.418600
7.817100 2.421000
7.848500 2.419200
7.880000 2.519900
7.911500 2.679500
7.943000 2.943800
7.974500 3.773400
8.006000 3.045300
8.037400 3.013500
8.068900 2.943100
8.100400 2.901300
8.131900 2.815600
8.163400 2.698400
8.194800 2.566900
8.226300 2.431100
8.257800 2.321200
8.289300 2.291100
8.320800 2.274500
8.352300 2.258200
8.383700 2.246200
8.415200 2.244100
8.446700 2.422700
8.478200 2.286100
8.509700 2.269500
8.541100 2.402800
8.572600 3.025100
8.604100 2.398200
8.635600 2.409900
8.667100 2.427000
8.698600 2.345300
8.730000 2.284400
8.761500 2.248800
8.793000 2.222700
8.824500 2.207400
8.856000 2.201200
8.887400 2.207300
8.918900 2.220300
8.950400 2.233600
8.981900 2.267100
9.013400 2.313200
9.044800 2.518800
9.076300 2.430500
9.107800 2.482000
9.139300 2.522300
9.170800 2.552800
9.202300 2.535100
9.233700 2.563000
9.265200 2.582600
9.296700 2.472500
9.328200 2.360900
9.359700 2.301800
9.391100 2.508200
9.422600 2.297300
9.454100 2.153600
9.485600 2.140900
9.517100 2.141100
9.548600 2.142300
9.580000 2.146300
9.611500 2.171100
9.643000 2.225900
9.674500 2.325400
9.706000 2.753400
9.737400 3.054300
9.768900 3.129200
9.800400 3.003700
9.831900 3.065400
9.863400 3.074600
9.894900 2.878500
9.926300 2.696400
9.957800 2.615000
9.989300 2.890600
10.020800 3.366400
10.052300 3.084400
10.083700 3.467100
10.115200 2.633400
10.146700 2.641700
10.178200 2.665500
10.209700 2.703000
10.241100 2.752700
10.272600 2.828900
10.304100 2.601800
10.335600 2.466400
10.367100 2.373000
10.398600 2.324800
10.430000 2.305500
10.461500 2.292600
10.493000 2.349600
10.524500 2.575500
10.556000 2.700700
10.587400 2.827400
10.618900 2.939200
10.650400 3.112200
10.681900 3.366200
10.713400 3.556200
10.744900 3.415500
10.776300 3.425000
10.807800 3.139200
10.839300 3.046800
10.870800 2.912400
10.902300 2.785700
10.933700 2.589300
10.965200 2.407300
10.996700 2.249700
11.028200 2.211400
11.059700 2.255500
11.091200 2.274300
11.122600 2.336700
11.154100 2.387800
11.185600 2.503800
11.217100 2.636300
11.248600 2.765000
11.280000 2.879400
11.311500 2.974400
11.343000 3.154900
11.374500 3.093500
11.406000 3.042300
11.437400 2.978600
11.468900 2.803400
11.500400 2.743300
11.531900 2.646400
11.563400 2.532800
11.594900 2.478400
11.626300 2.481300
11.657800 2.469700
11.689300 2.428200
11.720800 2.408900
11.752300 2.391500
11.783700 2.376400
11.815200 2.365400
11.846700 2.353100
11.878200 2.351000
11.909700 2.358400
11.941200 2.352900
11.972600 2.351700
12.004100 2.373700
12.035600 2.407200
12.067100 2.551500
12.098600 2.713600
12.130000 2.784000
12.161500 2.837400
12.193000 2.844700
12.224500 2.747600
12.256000 2.660900
12.287500 2.582100
12.318900 2.525600
12.350400 2.502700
12.381900 2.491800
12.413400 2.483500
12.444900 2.477600
12.476300 2.443500
12.507800 2.430900
12.539300 2.629300
12.570800 2.626200
12.602300 2.605700
12.633800 2.584000
12.665200 2.535000
12.696700 2.458800
12.728200 2.490700
12.759700 2.464300
12.791200 2.379900
12.822600 2.402800
12.854100 2.421500
12.885600 2.424100
12.917100 2.424300
12.948600 2.490300
12.980000 2.594000
13.011500 2.467400
13.043000 2.490000
13.074500 2.620500
13.106000 2.490000
13.137500 2.625300
13.168900 2.722800
13.200400 2.812900
13.231900 2.939200
13.263400 2.947300
13.294900 2.900600
13.326300 2.930700
13.357800 2.986400
13.389300 3.094900
13.420800 3.187800
13.452300 3.256300
13.483800 3.263100
13.515200 3.196100
13.546700 3.226500
13.578200 3.131000
13.609700 3.002400
13.641200 2.882000
13.672600 2.784300
13.704100 2.709000
13.735600 2.648200
13.767100 2.609100
13.798600 2.589600
13.830100 2.559700
13.861500 2.553200
13.893000 2.563800
13.924500 2.594200
13.956000 2.633100
13.987500 2.669000
14.018900 2.684500
14.050400 2.699200
14.081900 2.712600
14.113400 2.748200
14.144900 2.737800
14.176300 2.749300
14.207800 2.860400
14.239300 2.948900
14.270800 3.029800
14.302300 3.170000
14.333800 3.349500
14.365200 3.376000
14.396700 3.801400
14.428200 3.509200
14.459700 3.433300
14.491200 3.247300
14.522600 3.088000
14.554100 2.982800
14.585600 2.911700
14.617100 2.873900
14.648600 2.926100
14.680100 2.959300
14.711500 2.835700
14.743000 2.798200
14.774500 2.780800
14.806000 2.768700
14.837500 2.746300
14.868900 2.719900
14.900400 2.694200
14.931900 2.682700
14.963400 2.645200
14.994900 2.584800
15.026400 2.529600
15.057800 2.637300
15.089300 2.842100
15.120800 2.925700
15.152300 2.969500
15.183800 2.956300
15.215200 2.993600
15.246700 3.091700
15.278200 3.080100
15.309700 3.035300
15.341200 2.981400
15.372700 2.936900
15.404100 2.937800
15.435600 2.956000
15.467100 2.909700
15.498600 2.738700
15.530100 2.630400
15.561500 2.630000
15.593000 2.651300
15.624500 2.632000
15.656000 2.584400
15.687500 2.588300
15.718900 2.710200
15.750400 2.776600
15.781900 2.872500
15.813400 3.020200
15.844900 3.174500
15.876400 3.250200
15.907800 3.178600
15.939300 2.993200
15.970800 2.836700
16.002300 2.748700
16.033800 2.686500
16.065200 2.717700
16.096700 2.738700
16.128200 2.892400
16.159700 2.962300
16.191200 2.990700
16.222700 2.972500
16.254100 3.114000
16.285600 3.329200
16.317100 3.606800
16.348600 3.850200
16.380100 3.974700
16.411500 3.979100
16.443000 3.907200
16.474500 3.780800
16.506000 3.602200
16.537500 3.443700
16.569000 3.313100
16.600400 3.191200
16.631900 3.046800
16.663400 2.929600
16.694900 2.837100
16.726400 2.770400
16.757800 2.782400
16.789300 2.749700
16.820800 2.647000
16.852300 2.549900
16.883800 2.489800
16.915200 2.443700
16.946700 2.400200
16.978200 2.384100
17.009700 2.413700
17.041200 2.463900
17.072700 2.504000
17.104100 2.538900
17.135600 2.583700
17.167100 2.644800
17.198600 2.745100
17.230100 2.866000
17.261500 2.894800
17.293000 3.059200
17.324500 3.322800
17.356000 3.341800
17.387500 3.419500
17.419000 3.516400
17.450400 3.583500
17.481900 3.569100
17.513400 3.510800
17.544900 3.453100
17.576400 3.392100
17.607800 3.341000
17.639300 3.273400
17.670800 3.225100
17.702300 3.159600
17.733800 3.051800
17.765300 2.978400
17.796700 2.959100
17.828200 2.924900
17.859700 2.891100
17.891200 2.871700
17.922700 2.877200
17.954100 2.907700
17.985600 2.950800
18.017100 3.021500
18.048600 3.089000
18.080100 3.133500
18.111600 3.249300
18.143000 3.222500
18.174500 3.257000
18.206000 3.253400
18.237500 3.265700
18.269000 3.282200
18.300400 3.291900
18.331900 3.318000
18.363400 3.354000
18.394900 3.392500
18.426400 3.418200
18.457800 3.430100
18.489300 3.456900
18.520800 3.494300
18.552300 3.617900
18.583800 3.609600
18.615300 3.518000
18.646700 3.447700
18.678200 3.413400
18.709700 3.396900
18.741200 3.409000
18.772700 3.436700
18.804100 3.464000
18.835600 3.509000
18.867100 3.506300
18.898600 3.498100
18.930100 3.486800
18.961600 3.456600
18.993000 3.616900
19.024500 3.405000
19.056000 3.301300
19.087500 3.235400
19.119000 3.151000
19.150400 3.061600
19.181900 2.993300
19.213400 2.893800
19.244900 2.910600
19.276400 2.890000
19.307900 2.911100
19.339300 2.933900
19.370800 2.925100
19.402300 2.933000
19.433800 2.956900
19.465300 3.019600
19.496700 3.138900
19.528200 3.180800
19.559700 3.231000
19.591200 3.274500
19.622700 3.306600
19.654100 3.352500
19.685600 3.437700
19.717100 3.589700
19.748600 3.659200
19.780100 3.782700
19.811600 3.904800
19.843000 4.013800
19.874500 4.083200
19.906000 4.126000
19.937500 4.168200
19.969000 4.207000
20.000400 4.220400
20.031900 4.130300
20.063400 4.056400
20.094900 3.996900
20.126400 3.943000
20.157900 3.912000
20.189300 3.917300
20.220800 3.984500
20.252300 3.916800
20.283800 3.786400
20.315300 3.738600
20.346700 3.692800
20.378200 3.654900
20.409700 3.618400
20.441200 3.580200
20.472700 3.541200
20.504200 3.508100
20.535600 3.470100
20.567100 3.414600
20.598600 3.396000
20.630100 3.407400
20.661600 3.415700
20.693000 3.541200
20.724500 3.783200
20.756000 4.031800
20.787500 4.097100
20.819000 3.887300
20.850500 3.802800
20.881900 3.799500
20.913400 3.810700
20.944900 3.820800
20.976400 3.822100
21.007900 3.806700
21.039300 3.725500
21.070800 3.715300
21.102300 3.647300
21.133800 3.538700
21.165300 3.342400
21.196700 3.335500
21.228200 3.397400
21.259700 3.480000
21.291200 3.543500
21.322700 3.551700
21.354200 3.615300
21.385600 3.763500
21.417100 3.891400
21.448600 4.026800
21.480100 3.879300
21.511600 3.752800
21.543000 3.685900
21.574500 3.631600
21.606000 3.587800
21.637500 3.536500
21.669000 3.554900
21.700500 3.739100
21.731900 3.827300
21.763400 3.902800
21.794900 3.950700
21.826400 3.962900
21.857900 3.892000
21.889300 3.778000
21.920800 3.706500
21.952300 3.661400
21.983800 3.635300
22.015300 3.631000
22.046800 3.622700
22.078200 3.602500
22.109700 3.584500
22.141200 3.560500
22.172700 3.529400
22.204200 3.492300
22.235600 3.450400
22.267100 3.443400
22.298600 3.428200
22.330100 3.405700
22.361600 3.381800
22.393000 3.359000
22.424500 3.337700
22.456000 3.316100
22.487500 3.297300
22.519000 3.297700
22.550500 3.294900
22.581900 3.324100
22.613400 3.356900
22.644900 3.382300
22.676400 3.427200
22.707900 3.475600
22.739300 3.521700
22.770800 3.571800
22.802300 3.645700
22.833800 3.742000
22.865300 3.839500
22.896800 3.727300
22.928200 3.584400
22.959700 3.546400
22.991200 3.527300
23.022700 3.503800
23.054200 3.481600
23.085600 3.481400
23.117100 3.498100
23.148600 3.555600
23.180100 3.547200
23.211600 3.585900
23.243100 3.653000
23.274500 3.684900
23.306000 3.774100
23.337500 3.826500
23.369000 3.850000
23.400500 3.855700
23.431900 3.847900
23.463400 3.830500
23.494900 3.809300
23.526400 3.763900
23.557900 3.768400
23.589300 3.781600
23.620800 3.753500
23.652300 3.698500
23.683800 3.656100
23.715300 3.645300
23.746800 3.635700
23.778200 3.627800
23.809700 3.625800
23.841200 3.618600
23.872700 3.610800
23.904200 3.606100
23.935600 3.602200
23.967100 3.602900
23.998600 3.603100
24.030100 3.578000
24.061600 3.575500
24.093100 3.589700
24.124500 3.625900
24.156000 3.616700
24.187500 3.637500
24.219000 3.654700
24.250500 3.670800
24.281900 3.685900
24.313400 3.705200
24.344900 3.718300
24.376400 3.720800
24.407900 3.732300
24.439400 3.724400
24.470800 3.871200
24.502300 3.802300
24.533800 3.731000
24.565300 3.698200
24.596800 3.698600
24.628200 3.705600
24.659700 3.734000
24.691200 3.766800
24.722700 3.782000
24.754200 3.786100
24.785700 3.786200
24.817100 3.781500
24.848600 3.778800
24.880100 3.770800
24.911600 3.748400
24.943100 3.700400
24.974500 3.674900
25.006000 3.659500
25.037500 3.629400
25.069000 3.600700
25.100500 3.571300
25.131900 3.578100
25.163400 3.586200
25.194900 3.585700
25.226400 3.588000
25.257900 3.588600
25.289400 3.598900
25.320800 3.616000
25.352300 3.638800
25.383800 3.648600
25.415300 3.684900
25.446800 3.698700
25.478200 3.699200
25.509700 3.691600
25.541200 3.663900
25.572700 3.668000
25.604200 3.636600
25.635700 3.589400
25.667100 3.535100
25.698600 3.531900
25.730100 3.536300
25.761600 3.544800
25.793100 3.554900
25.824500 3.557700
25.856000 3.563700
25.887500 3.571500
25.919000 3.581400
25.950500 3.601400
25.982000 3.651600
26.013400 3.735900
26.044900 3.800600
26.076400 3.845200
26.107900 3.828000
26.139400 3.828500
26.170800 3.835400
26.202300 3.823600
26.233800 3.824500
26.265300 3.795200
26.296800 3.726100
26.328200 3.669900
26.359700 3.719700
26.391200 3.658800
26.422700 3.610000
26.454200 3.595600
26.485700 3.593700
26.517100 3.589600
26.548600 3.597000
26.580100 3.606700
26.611600 3.633200
26.643100 3.674100
26.674500 3.727600
26.706000 3.783000
26.737500 3.812100
26.769000 3.784400
26.800500 3.797100
26.832000 3.798200
26.863400 3.769800
26.894900 3.751100
26.926400 3.737600
26.957900 3.799600
26.989400 3.874700
27.020800 3.942700
27.052300 4.017700
27.083800 4.067100
27.115300 4.088200
27.146800 4.072900
27.178300 4.010300
27.209700 4.031800
27.241200 3.924400
27.272700 3.829900
27.304200 3.793200
27.335700 3.772000
27.367100 3.771400
27.398600 3.802100
27.430100 3.813400
27.461600 3.796000
27.493100 3.729700
27.524600 3.607100
27.556000 3.527600
27.587500 3.487400
27.619000 3.498200
27.650500 3.514400
27.682000 3.531400
27.713400 3.553700
27.744900 3.558900
27.776400 3.575700
27.807900 3.661200
27.839400 3.821000
27.870800 3.780200
27.902300 3.664000
27.933800 3.585800
27.965300 3.536100
27.996800 3.496900
28.028300 3.534100
28.059700 3.534300
28.091200 3.511900
28.122700 3.471900
28.154200 3.481400
28.185700 3.521700
28.217100 3.557300
28.248600 3.618200
28.280100 3.668600
28.311600 3.723200
28.343100 3.801200
28.374600 4.125900
28.406000 4.350600
28.437500 4.392500
28.469000 4.326000
28.500500 4.141900
28.532000 3.859400
28.563400 3.674600
28.594900 3.571800
28.626400 3.508300
28.657900 3.488400
28.689400 3.505800
28.720900 3.539900
28.752300 3.576200
28.783800 3.615300
28.815300 3.661400
28.846800 3.726300
28.878300 3.802300
28.909700 3.859200
28.941200 3.895700
28.972700 3.901000
29.004200 3.874300
29.035700 3.837800
29.067100 3.803100
29.098600 3.768000
29.130100 3.731300
29.161600 3.691900
29.193100 3.644600
29.224600 3.583500
29.256000 3.523700
29.287500 3.443200
29.319000 3.382800
29.350500 3.318300
29.382000 3.253900
29.413400 3.205500
29.444900 3.165800
29.476400 3.138600
29.507900 3.136700
29.539400 3.121700
29.570900 3.102500
29.602300 3.082600
29.633800 3.046900
29.665300 3.009200
29.696800 2.976400
29.728300 2.947500
29.759700 2.898400
29.791200 2.834000
29.822700 2.791000
29.854200 2.745400
29.885700 2.700700
29.917200 2.643400
29.948600 2.568000
29.980100 2.487200
30.011600 2.417000
30.043100 2.382000
30.074600 2.355700
30.106000 2.306000
30.137500 2.236800
30.169000 2.175100
30.200500 2.142200
30.232000 2.121500
30.263500 2.105100
30.294900 2.088800
30.326400 2.072400
30.357900 2.052800
30.389400 2.027300
30.420900 2.003200
30.452300 1.987200
30.483800 1.974100
30.515300 1.963200
30.546800 1.946300
30.578300 1.927000
30.609700 1.911300
30.641200 1.906100
30.672700 1.922900
30.704200 1.894000
30.735700 1.865800
30.767200 1.820200
30.798600 1.779100
30.830100 1.730900
30.861600 1.697100
30.893100 1.648800
30.924600 1.603000
30.956000 1.576100
30.987500 1.556400
31.019000 1.538400
31.050500 1.520700
31.082000 1.502900
31.113500 1.484100
31.144900 1.466000
31.176400 1.450100
31.207900 1.437700
31.239400 1.423400
31.270900 1.409000
31.302300 1.394700
31.333800 1.381000
31.365300 1.367400
31.396800 1.353200
31.428300 1.339900
31.459800 1.328100
31.491200 1.317300
31.522700 1.307600
31.554200 1.295600
31.585700 1.276200
31.617200 1.253800
31.648600 1.230700
31.680100 1.212200
31.711600 1.193500
31.743100 1.175100
31.774600 1.157700
31.806000 1.142300
31.837500 1.128700
31.869000 1.113600
31.900500 1.099500
31.932000 1.088000
31.963500 1.076700
31.994900 1.065400
32.026400 1.055100
32.057900 1.045100
32.089400 1.033700
32.120900 1.021100
32.152300 1.010500
32.183800 1.003100
32.215300 1.001700
32.246800 1.003900
32.278300 0.997400
32.309800 0.960400
32.341200 0.942300
32.372700 0.935500
32.404200 0.928800
32.435700 0.923300
32.467200 0.913900
32.498600 0.902700
32.530100 0.889100
32.561600 0.877100
32.593100 0.824000
32.624600 0.794900
32.656100 0.789000
32.687500 0.783000
32.719000 0.776700
32.750500 0.770400
32.782000 0.764700
32.813500 0.759900
32.844900 0.753400
32.876400 0.744500
32.907900 0.731800
32.939400 0.720800
32.970900 0.711700
33.002300 0.704800
33.033800 0.699200
33.065300 0.695800
33.096800 0.675900
33.128300 0.656700
33.159800 0.638700
33.191200 0.622100
33.222700 0.607800
33.254200 0.598800
33.285700 0.591600
33.317200 0.585800
33.348600 0.575900
33.380100 0.561600
33.411600 0.547300
33.443100 0.533300
33.474600 0.521500
33.506100 0.511500
33.537500 0.500700
33.569000 0.490700
33.600500 0.494500
33.632000 0.515300
33.663500 0.552600
33.694900 0.540700
33.726400 0.513600
33.757900 0.460600
33.789400 0.433000
33.820900 0.392200
33.852400 0.372300
33.883800 0.359900
33.915300 0.348400
33.946800 0.337000
33.978300 0.325700
34.009800 0.314700
34.041200 0.304100
34.072700 0.294100
34.104200 0.284700
34.135700 0.275900
34.167200 0.267200
34.198700 0.258600
34.230100 0.250100
34.261600 0.241600
34.293100 0.249300
34.324600 0.275900
34.356100 0.271300
34.387500 0.183300
34.419000 0.157000
34.450500 0.139500
34.482000 0.123900
34.513500 0.109100
34.544900 0.095500
34.576400 0.087000
34.607900 0.159300
34.639400 0.146400
34.670900 0.133000
34.702400 0.119800
34.733800 0.106700
34.765300 0.093700
34.796800 0.080800
34.828300 0.067900
34.859800 0.055200
34.891200 0.042500
34.922700 0.020300
34.954200 0.005500
34.985700 0.000000
35.017200 0.000000
35.048700 0.000000
35.080100 0.000000
35.111600 0.000000
35.143100 0.000000
35.174600 0.000000
35.206100 0.000000
35.237500 0.000000
35.269000 0.000000
35.300500 0.000000
35.332000 0.000000
35.363500 0.000000
35.395000 0.000000
35.426400 0.000000
35.457900 0.000000
35.489400 0.000000
35.520900 0.000000
35.552400 0.000000
35.583800 0.000000
35.615300 0.000000
35.646800 0.000000
35.678300 0.000000
35.709800 0.000000
35.741200 0.000000
35.772700 0.000000
35.804200 0.000000
35.835700 0.000000
35.867200 0.000000
35.898700 0.000000
35.930100 0.000000
35.961600 0.000000
35.993100 0.000000
36.024600 0.000000
36.056100 0.000000
36.087500 0.000000
36.119000 0.000000
36.150500 0.000000
36.182000 0.000000
36.213500 0.000000
36.245000 0.000000
36.276400 0.000000
36.307900 0.000000
36.339400 0.000000
36.370900 0.000000
36.402400 0.000000
36.433800 0.000000
36.465300 0.000000
36.496800 0.000000
36.528300 0.000000
36.559800 0.000000
36.591300 0.000000
36.622700 0.000000
36.654200 0.000000
36.685700 0.000000
36.717200 0.000000
36.748700 0.000000
36.780100 0.000000
36.811600 0.000000
36.843100 0.000000
36.874600 0.000000
36.906100 0.000000
36.937600 0.000000
36.969000 0.000000
37.000500 0.000000
37.032000 0.000000
37.063500 0.000000
37.095000 0.000000
37.126400 0.000000
37.157900 0.000000
37.189400 0.000000
37.220900 0.000000
37.252400 0.000000
37.283800 0.000000
37.315300 0.000000
37.346800 0.000000
37.378300 0.000000
37.409800 0.000000
37.441300 0.000000
37.472700 0.000000
37.504200 0.000000
37.535700 0.000000
37.567200 0.000000
37.598700 0.000000
37.630100 0.000000
37.661600 0.000000
37.693100 0.000000
37.724600 0.000000
37.756100 0.000000
37.787600 0.000000
37.819000 0.000000
37.850500 0.000000
e
