set title 'mp-27258 - Density of States'
set xlabel 'Energy (eV)'
set ylabel 'DOS (states/eV)'
set grid
set xrange [-10:10]
set yrange [0:27.300]
set xzeroaxis lt -1
set terminal png size 800,600
set output 'mp-27258_dos_gnuplot.png'
plot '-' using 1:2 with lines title 'DOS'
-10.911500 0.000000
-10.894500 0.000000
-10.877500 0.000000
-10.860500 0.000000
-10.843500 0.000000
-10.826400 0.000000
-10.809400 0.000000
-10.792400 0.000000
-10.775400 0.000000
-10.758400 0.000000
-10.741400 0.000000
-10.724400 0.000000
-10.707400 0.000000
-10.690400 0.000000
-10.673400 0.000000
-10.656400 0.000000
-10.639400 0.000000
-10.622300 0.000000
-10.605300 0.000000
-10.588300 0.000000
-10.571300 0.000000
-10.554300 0.000000
-10.537300 0.000000
-10.520300 0.000000
-10.503300 0.000000
-10.486300 0.000000
-10.469300 0.000000
-10.452300 0.000000
-10.435300 0.000000
-10.418200 0.000000
-10.401200 0.000000
-10.384200 0.000000
-10.367200 0.000000
-10.350200 0.000000
-10.333200 0.000000
-10.316200 0.000000
-10.299200 0.000000
-10.282200 0.000000
-10.265200 0.000000
-10.248200 0.000000
-10.231200 0.000000
-10.214100 0.000000
-10.197100 0.000000
-10.180100 0.000000
-10.163100 0.000000
-10.146100 0.000000
-10.129100 0.000000
-10.112100 0.000000
-10.095100 0.000000
-10.078100 0.000000
-10.061100 0.000000
-10.044100 0.000000
-10.027100 0.000000
-10.010000 0.000000
-9.993000 0.000000
-9.976000 0.000000
-9.959000 0.000000
-9.942000 0.000000
-9.925000 0.000000
-9.908000 0.000000
-9.891000 0.000000
-9.874000 0.000000
-9.857000 0.000000
-9.840000 0.000000
-9.823000 0.000000
-9.805900 0.000000
-9.788900 0.000000
-9.771900 0.000000
-9.754900 0.000000
-9.737900 0.000000
-9.720900 0.000000
-9.703900 0.000000
-9.686900 0.000000
-9.669900 0.000000
-9.652900 0.000000
-9.635900 0.000000
-9.618900 0.000000
-9.601800 0.000000
-9.584800 0.000000
-9.567800 0.000000
-9.550800 0.000000
-9.533800 0.000000
-9.516800 0.000000
-9.499800 0.000000
-9.482800 0.000000
-9.465800 0.000000
-9.448800 0.000000
-9.431800 0.000000
-9.414800 0.000000
-9.397700 0.000000
-9.380700 0.000000
-9.363700 0.001100
-9.346700 0.165200
-9.329700 0.535800
-9.312700 0.916500
-9.295700 1.087500
-9.278700 1.297000
-9.261700 1.525400
-9.244700 1.890300
-9.227700 2.302200
-9.210700 2.481000
-9.193600 2.442300
-9.176600 2.498300
-9.159600 2.630500
-9.142600 2.770300
-9.125600 2.911800
-9.108600 3.053700
-9.091600 3.347100
-9.074600 4.408800
-9.057600 3.941000
-9.040600 3.032600
-9.023600 2.747300
-9.006600 2.649100
-8.989500 2.523700
-8.972500 2.376400
-8.955500 2.213600
-8.938500 2.086700
-8.921500 1.972100
-8.904500 1.933400
-8.887500 1.899000
-8.870500 1.865100
-8.853500 1.829900
-8.836500 1.792000
-8.819500 1.738100
-8.802500 1.689800
-8.785400 1.660300
-8.768400 1.635200
-8.751400 1.603700
-8.734400 1.583700
-8.717400 1.558800
-8.700400 1.529300
-8.683400 1.507300
-8.666400 1.488200
-8.649400 1.469700
-8.632400 1.450400
-8.615400 1.426100
-8.598400 1.405400
-8.581300 1.391300
-8.564300 1.380000
-8.547300 1.371500
-8.530300 1.367000
-8.513300 1.366900
-8.496300 1.366900
-8.479300 1.367000
-8.462300 1.367100
-8.445300 3.646700
-8.428300 2.538700
-8.411300 2.105700
-8.394300 1.847600
-8.377200 1.858600
-8.360200 1.757900
-8.343200 1.280900
-8.326200 0.715600
-8.309200 0.315600
-8.292200 0.076900
-8.275200 0.000000
-8.258200 0.000000
-8.241200 0.000000
-8.224200 0.000000
-8.207200 0.000000
-8.190200 0.000000
-8.173100 0.000000
-8.156100 0.000000
-8.139100 0.000000
-8.122100 0.000000
-8.105100 0.109700
-8.088100 2.933300
-8.071100 2.464000
-8.054100 2.249300
-8.037100 2.688300
-8.020100 2.404100
-8.003100 1.797100
-7.986100 1.345000
-7.969000 1.165900
-7.952000 1.146800
-7.935000 1.146600
-7.918000 1.146500
-7.901000 1.146400
-7.884000 1.146400
-7.867000 1.146400
-7.850000 1.264200
-7.833000 1.502300
-7.816000 1.597200
-7.799000 1.715600
-7.781900 1.832000
-7.764900 1.950700
-7.747900 2.190400
-7.730900 2.473600
-7.713900 2.653100
-7.696900 2.816500
-7.679900 2.970600
-7.662900 3.129400
-7.645900 3.288200
-7.628900 3.463200
-7.611900 3.520400
-7.594900 3.567700
-7.577800 3.696600
-7.560800 3.938200
-7.543800 4.243000
-7.526800 4.585000
-7.509800 5.230100
-7.492800 5.449800
-7.475800 6.684300
-7.458800 7.159900
-7.441800 7.923200
-7.424800 7.868900
-7.407800 7.103200
-7.390800 7.094400
-7.373700 6.358500
-7.356700 5.983200
-7.339700 5.345500
-7.322700 4.919700
-7.305700 4.442300
-7.288700 4.117700
-7.271700 4.075100
-7.254700 3.911800
-7.237700 3.580800
-7.220700 3.332300
-7.203700 3.280500
-7.186700 3.317100
-7.169600 2.037400
-7.152600 1.779800
-7.135600 1.748000
-7.118600 1.760700
-7.101600 1.880400
-7.084600 2.135900
-7.067600 2.478600
-7.050600 2.574800
-7.033600 2.277300
-7.016600 1.860300
-6.999600 1.675900
-6.982600 1.610000
-6.965500 1.544500
-6.948500 1.478800
-6.931500 1.410400
-6.914500 1.338000
-6.897500 1.269000
-6.880500 1.202600
-6.863500 1.140800
-6.846500 1.084500
-6.829500 1.033900
-6.812500 0.991800
-6.795500 0.965800
-6.778500 0.951700
-6.761400 0.940900
-6.744400 0.932700
-6.727400 0.918200
-6.710400 0.895500
-6.693400 0.859900
-6.676400 0.806800
-6.659400 0.749300
-6.642400 0.683800
-6.625400 0.608500
-6.608400 0.523300
-6.591400 0.443500
-6.574400 0.367400
-6.557300 0.298700
-6.540300 0.233300
-6.523300 0.175400
-6.506300 0.125000
-6.489300 0.082000
-6.472300 0.046500
-6.455300 0.019400
-6.438300 0.003900
-6.421300 0.000000
-6.404300 0.000000
-6.387300 0.000000
-6.370300 0.000000
-6.353200 0.000000
-6.336200 0.000000
-6.319200 0.000000
-6.302200 0.000000
-6.285200 0.000000
-6.268200 0.000000
-6.251200 0.000000
-6.234200 0.000000
-6.217200 0.000000
-6.200200 0.000000
-6.183200 0.000000
-6.166200 0.000000
-6.149100 0.000000
-6.132100 0.000000
-6.115100 0.000000
-6.098100 0.000000
-6.081100 0.000000
-6.064100 0.000000
-6.047100 0.000000
-6.030100 0.000000
-6.013100 0.000000
-5.996100 0.000000
-5.979100 0.000000
-5.962100 0.000000
-5.945000 0.000000
-5.928000 0.000000
-5.911000 0.000000
-5.894000 0.000000
-5.877000 0.000000
-5.860000 0.000000
-5.843000 0.000000
-5.826000 0.000000
-5.809000 0.000000
-5.792000 0.000000
-5.775000 0.000000
-5.758000 0.000000
-5.740900 0.000000
-5.723900 0.000000
-5.706900 0.009800
-5.689900 0.044500
-5.672900 0.104300
-5.655900 0.189300
-5.638900 0.330900
-5.621900 0.491600
-5.604900 0.565500
-5.587900 0.858000
-5.570900 1.812400
-5.553900 3.296300
-5.536800 3.703400
-5.519800 3.607400
-5.502800 3.368100
-5.485800 3.283100
-5.468800 3.275000
-5.451800 3.238100
-5.434800 3.255000
-5.417800 3.378700
-5.400800 3.560900
-5.383800 3.649200
-5.366800 3.887700
-5.349800 3.844300
-5.332700 3.899600
-5.315700 4.041400
-5.298700 4.155700
-5.281700 4.563200
-5.264700 4.177500
-5.247700 4.199500
-5.230700 4.255600
-5.213700 4.415900
-5.196700 4.836000
-5.179700 5.372800
-5.162700 5.103200
-5.145700 5.083100
-5.128600 5.017200
-5.111600 4.792500
-5.094600 4.627100
-5.077600 4.488300
-5.060600 4.426500
-5.043600 4.363900
-5.026600 4.274700
-5.009600 4.241000
-4.992600 4.219500
-4.975600 4.133300
-4.958600 3.937200
-4.941600 3.707800
-4.924500 3.503300
-4.907500 3.340800
-4.890500 3.149400
-4.873500 2.930000
-4.856500 2.716800
-4.839500 2.538600
-4.822500 2.392800
-4.805500 2.279700
-4.788500 2.184700
-4.771500 2.105600
-4.754500 2.047800
-4.737500 2.007600
-4.720400 1.997100
-4.703400 1.990800
-4.686400 1.986200
-4.669400 1.985500
-4.652400 1.993000
-4.635400 2.017700
-4.618400 2.023200
-4.601400 2.025700
-4.584400 1.995500
-4.567400 1.894700
-4.550400 1.824400
-4.533400 1.696700
-4.516300 1.542800
-4.499300 1.396100
-4.482300 1.300400
-4.465300 1.242700
-4.448300 1.188800
-4.431300 1.134800
-4.414300 1.085000
-4.397300 1.046200
-4.380300 0.989800
-4.363300 0.936700
-4.346300 0.890200
-4.329300 0.848100
-4.312200 0.810200
-4.295200 0.786900
-4.278200 0.774000
-4.261200 0.757500
-4.244200 0.739000
-4.227200 0.718300
-4.210200 0.693200
-4.193200 0.664200
-4.176200 0.632000
-4.159200 0.595600
-4.142200 0.528000
-4.125200 0.506200
-4.108100 0.484100
-4.091100 0.461700
-4.074100 0.439000
-4.057100 0.416400
-4.040100 0.796900
-4.023100 1.024400
-4.006100 1.003700
-3.989100 1.000600
-3.972100 1.019500
-3.955100 0.985800
-3.938100 0.942900
-3.921100 0.916600
-3.904000 0.915500
-3.887000 0.933900
-3.870000 0.959000
-3.853000 0.987600
-3.836000 1.019800
-3.819000 1.052900
-3.802000 1.072000
-3.785000 1.080900
-3.768000 1.086400
-3.751000 1.063500
-3.734000 1.007800
-3.717000 1.011600
-3.699900 1.020700
-3.682900 1.032500
-3.665900 1.045800
-3.648900 1.060700
-3.631900 1.077200
-3.614900 1.094900
-3.597900 1.108900
-3.580900 1.098500
-3.563900 1.102300
-3.546900 1.117400
-3.529900 1.131000
-3.512900 1.143900
-3.495800 1.156700
-3.478800 1.169200
-3.461800 1.175600
-3.444800 1.146800
-3.427800 1.141000
-3.410800 1.129400
-3.393800 1.137300
-3.376800 1.147400
-3.359800 1.157600
-3.342800 1.167900
-3.325800 1.176700
-3.308800 1.183300
-3.291700 1.189800
-3.274700 1.196200
-3.257700 1.203000
-3.240700 1.214100
-3.223700 1.228700
-3.206700 1.245400
-3.189700 1.264000
-3.172700 1.288900
-3.155700 1.310900
-3.138700 1.340800
-3.121700 1.402700
-3.104700 1.438100
-3.087600 1.461000
-3.070600 1.484700
-3.053600 1.521400
-3.036600 1.576300
-3.019600 1.644900
-3.002600 1.787800
-2.985600 1.994600
-2.968600 2.155800
-2.951600 2.185900
-2.934600 2.112400
-2.917600 1.959800
-2.900600 1.718700
-2.883500 1.592800
-2.866500 1.499200
-2.849500 1.422200
-2.832500 1.367100
-2.815500 1.331500
-2.798500 1.305500
-2.781500 1.289300
-2.764500 1.244000
-2.747500 1.223500
-2.730500 1.199000
-2.713500 1.170300
-2.696500 1.137200
-2.679400 1.099600
-2.662400 1.053500
-2.645400 0.944600
-2.628400 0.825200
-2.611400 0.754900
-2.594400 0.716000
-2.577400 0.689100
-2.560400 0.662800
-2.543400 0.636400
-2.526400 0.610500
-2.509400 0.585700
-2.492400 0.562200
-2.475300 0.539500
-2.458300 0.517300
-2.441300 0.495300
-2.424300 0.473600
-2.407300 0.452400
-2.390300 0.432500
-2.373300 0.414500
-2.356300 0.398100
-2.339300 0.382300
-2.322300 0.366900
-2.305300 0.351900
-2.288300 0.337900
-2.271200 0.325300
-2.254200 0.314000
-2.237200 0.301600
-2.220200 0.286000
-2.203200 0.271100
-2.186200 0.257200
-2.169200 0.244200
-2.152200 0.232300
-2.135200 0.221300
-2.118200 0.211300
-2.101200 0.202300
-2.084200 0.194900
-2.067100 0.190100
-2.050100 0.302300
-2.033100 0.195100
-2.016100 0.172000
-1.999100 0.150100
-1.982100 0.129200
-1.965100 0.109500
-1.948100 0.090900
-1.931100 0.073400
-1.914100 0.057100
-1.897100 0.041900
-1.880000 0.027800
-1.863000 0.014900
-1.846000 0.245100
-1.829000 1.616500
-1.812000 1.832500
-1.795000 1.851600
-1.778000 1.835800
-1.761000 1.956100
-1.744000 2.147500
-1.727000 2.458900
-1.710000 2.741800
-1.693000 2.959100
-1.675900 3.231800
-1.658900 3.552500
-1.641900 3.994900
-1.624900 4.192200
-1.607900 4.341500
-1.590900 4.518800
-1.573900 4.804600
-1.556900 5.451800
-1.539900 6.564800
-1.522900 7.252300
-1.505900 6.951900
-1.488900 6.913100
-1.471800 6.980000
-1.454800 7.120900
-1.437800 7.255000
-1.420800 7.407000
-1.403800 7.622600
-1.386800 7.495200
-1.369800 7.206800
-1.352800 6.427700
-1.335800 5.235000
-1.318800 5.281300
-1.301800 5.465800
-1.284800 5.617900
-1.267700 5.834700
-1.250700 5.634800
-1.233700 4.978700
-1.216700 5.267200
-1.199700 5.336100
-1.182700 5.882300
-1.165700 6.794200
-1.148700 7.661600
-1.131700 8.765800
-1.114700 7.821100
-1.097700 7.524800
-1.080700 7.453800
-1.063600 6.641800
-1.046600 6.575200
-1.029600 6.745500
-1.012600 7.208900
-0.995600 7.992000
-0.978600 8.937000
-0.961600 8.524900
-0.944600 7.081200
-0.927600 5.873400
-0.910600 5.103100
-0.893600 4.585200
-0.876600 4.800600
-0.859500 5.458300
-0.842500 6.281200
-0.825500 6.081600
-0.808500 6.162700
-0.791500 6.257700
-0.774500 5.952600
-0.757500 5.855500
-0.740500 5.781000
-0.723500 5.593800
-0.706500 5.603500
-0.689500 5.611700
-0.672500 5.909800
-0.655400 6.436400
-0.638400 6.060100
-0.621400 5.702200
-0.604400 6.081600
-0.587400 7.045100
-0.570400 7.274600
-0.553400 7.681300
-0.536400 9.183400
-0.519400 7.881300
-0.502400 7.562200
-0.485400 7.336600
-0.468400 7.088400
-0.451300 6.664700
-0.434300 6.383600
-0.417300 6.522100
-0.400300 6.409400
-0.383300 6.214000
-0.366300 6.093700
-0.349300 6.170800
-0.332300 6.523500
-0.315300 6.465000
-0.298300 6.467200
-0.281300 6.755400
-0.264300 7.086500
-0.247200 7.066700
-0.230200 6.759000
-0.213200 6.751300
-0.196200 6.867500
-0.179200 7.143900
-0.162200 7.661800
-0.145200 8.571200
-0.128200 9.392700
-0.111200 9.410200
-0.094200 9.102700
-0.077200 8.983000
-0.060200 9.900900
-0.043100 9.014200
-0.026100 8.948400
-0.009100 9.171500
0.007900 9.134100
0.024900 9.429900
0.041900 10.252100
0.058900 10.776000
0.075900 10.322100
0.092900 8.854100
0.109900 9.085900
0.126900 8.860500
0.143900 9.893300
0.161000 11.423400
0.178000 11.995800
0.195000 11.539900
0.212000 11.182100
0.229000 11.133000
0.246000 11.643700
0.263000 12.118800
0.280000 12.563700
0.297000 13.365700
0.314000 13.207900
0.331000 12.766300
0.348000 12.337800
0.365100 12.020000
0.382100 11.439000
0.399100 10.230900
0.416100 9.449700
0.433100 9.866800
0.450100 11.230700
0.467100 12.197400
0.484100 11.914700
0.501100 11.069400
0.518100 10.560500
0.535100 11.131600
0.552100 12.123700
0.569200 12.728900
0.586200 11.751300
0.603200 12.155200
0.620200 12.644400
0.637200 12.435100
0.654200 11.843100
0.671200 14.437700
0.688200 14.928200
0.705200 16.108100
0.722200 16.070600
0.739200 16.160400
0.756200 15.598200
0.773300 13.564300
0.790300 14.384900
0.807300 15.569700
0.824300 17.126500
0.841300 18.838600
0.858300 15.063500
0.875300 14.174500
0.892300 15.429500
0.909300 20.151300
0.926300 20.743400
0.943300 20.892500
0.960300 16.675600
0.977400 16.162800
0.994400 16.490100
1.011400 17.047100
1.028400 18.156300
1.045400 18.859200
1.062400 16.508600
1.079400 14.077700
1.096400 15.912600
1.113400 20.630900
1.130400 24.402000
1.147400 24.818100
1.164400 18.642200
1.181500 16.999800
1.198500 16.862300
1.215500 18.412600
1.232500 18.176100
1.249500 17.813200
1.266500 16.385600
1.283500 14.104800
1.300500 15.246100
1.317500 14.602500
1.334500 14.528700
1.351500 15.679700
1.368500 17.510200
1.385600 19.384300
1.402600 21.405300
1.419600 21.964700
1.436600 18.964700
1.453600 19.497900
1.470600 18.115300
1.487600 19.325000
1.504600 17.255500
1.521600 16.025500
1.538600 16.351100
1.555600 18.788600
1.572600 21.097900
1.589700 20.100400
1.606700 17.883200
1.623700 13.599300
1.640700 10.754000
1.657700 9.536900
1.674700 9.803100
1.691700 14.422700
1.708700 16.166600
1.725700 15.816100
1.742700 16.872700
1.759700 13.543100
1.776700 13.635300
1.793800 13.108400
1.810800 13.370300
1.827800 17.323100
1.844800 20.795100
1.861800 23.020700
1.878800 17.541000
1.895800 17.972400
1.912800 19.235700
1.929800 18.298000
1.946800 16.916900
1.963800 17.496300
1.980800 19.880500
1.997900 17.575200
2.014900 15.088700
2.031900 15.961300
2.048900 18.262900
2.065900 16.384000
2.082900 16.923400
2.099900 21.974300
2.116900 21.776700
2.133900 17.476700
2.150900 16.130300
2.167900 14.045400
2.184900 16.501500
2.202000 16.945700
2.219000 16.425600
2.236000 14.718100
2.253000 16.225000
2.270000 18.370200
2.287000 17.995600
2.304000 15.271400
2.321000 13.698000
2.338000 12.157100
2.355000 11.428500
2.372000 11.635300
2.389000 11.418200
2.406100 11.127700
2.423100 10.851200
2.440100 10.593500
2.457100 10.917600
2.474100 11.357600
2.491100 11.216800
2.508100 10.771900
2.525100 10.054000
2.542100 8.786700
2.559100 8.319500
2.576100 7.715100
2.593100 6.962900
2.610200 6.104300
2.627200 5.277400
2.644200 5.485500
2.661200 6.100300
2.678200 7.201500
2.695200 7.246600
2.712200 6.999900
2.729200 6.861000
2.746200 6.495600
2.763200 6.055500
2.780200 5.645300
2.797200 5.465600
2.814300 5.663300
2.831300 6.257800
2.848300 6.959200
2.865300 7.663900
2.882300 6.600600
2.899300 6.063700
2.916300 5.795900
2.933300 5.705700
2.950300 5.938900
2.967300 6.556600
2.984300 6.718000
3.001300 6.579500
3.018400 6.435700
3.035400 6.363200
3.052400 6.600800
3.069400 5.932300
3.086400 5.542200
3.103400 5.185800
3.120400 4.843800
3.137400 4.608100
3.154400 4.442800
3.171400 4.297500
3.188400 4.263300
3.205400 4.336900
3.222500 4.270200
3.239500 4.888200
3.256500 5.479100
3.273500 5.578700
3.290500 5.872000
3.307500 6.306600
3.324500 6.825400
3.341500 7.269100
3.358500 7.322100
3.375500 7.194900
3.392500 7.013100
3.409500 6.732300
3.426600 6.518900
3.443600 6.252900
3.460600 5.948600
3.477600 5.481600
3.494600 5.194300
3.511600 5.117700
3.528600 5.159800
3.545600 5.293800
3.562600 5.408300
3.579600 5.126500
3.596600 4.915500
3.613600 4.788600
3.630700 4.701500
3.647700 4.708900
3.664700 4.929500
3.681700 5.043800
3.698700 5.042400
3.715700 5.425700
3.732700 5.584300
3.749700 5.742400
3.766700 5.545900
3.783700 5.457000
3.800700 6.194800
3.817700 6.427000
3.834800 6.098100
3.851800 5.622800
3.868800 4.986500
3.885800 4.527000
3.902800 4.213200
3.919800 4.083200
3.936800 3.849200
3.953800 3.713000
3.970800 3.598800
3.987800 3.481200
4.004800 3.118900
4.021800 3.125900
4.038900 3.157100
4.055900 3.198900
4.072900 3.288500
4.089900 3.448200
4.106900 3.983100
4.123900 4.072400
4.140900 4.002500
4.157900 3.948100
4.174900 4.228500
4.191900 4.481600
4.208900 4.733700
4.226000 4.737500
4.243000 4.904100
4.260000 4.648600
4.277000 4.597000
4.294000 4.677700
4.311000 4.751500
4.328000 4.914100
4.345000 5.129500
4.362000 5.068400
4.379000 4.781600
4.396000 4.491100
4.413000 4.207800
4.430100 3.902300
4.447100 3.607100
4.464100 3.467200
4.481100 3.464800
4.498100 3.495600
4.515100 3.579300
4.532100 3.717400
4.549100 3.868800
4.566100 4.049300
4.583100 4.289900
4.600100 4.321200
4.617100 4.419000
4.634200 4.308900
4.651200 4.177100
4.668200 4.087400
4.685200 4.130000
4.702200 4.000500
4.719200 3.780300
4.736200 3.687100
4.753200 3.670200
4.770200 3.626500
4.787200 3.484500
4.804200 3.171600
4.821200 2.728800
4.838300 2.414400
4.855300 2.255700
4.872300 2.196800
4.889300 2.147700
4.906300 1.955100
4.923300 1.811800
4.940300 1.714700
4.957300 1.541300
4.974300 1.452900
4.991300 1.470200
5.008300 1.302600
5.025300 1.263400
5.042400 1.231600
5.059400 1.206300
5.076400 1.187600
5.093400 1.186600
5.110400 1.190100
5.127400 1.179300
5.144400 1.173800
5.161400 1.026100
5.178400 0.847700
5.195400 0.710100
5.212400 0.607600
5.229400 0.517000
5.246500 0.438900
5.263500 0.385300
5.280500 0.339600
5.297500 0.298500
5.314500 0.262100
5.331500 0.230300
5.348500 0.201300
5.365500 0.172300
5.382500 0.143800
5.399500 0.119500
5.416500 0.100100
5.433500 0.082500
5.450600 0.064500
5.467600 0.047000
5.484600 0.068100
5.501600 0.059400
5.518600 0.054000
5.535600 0.053200
5.552600 0.056800
5.569600 0.063500
5.586600 0.070800
5.603600 0.078700
5.620600 0.087200
5.637600 0.096400
5.654700 0.106200
5.671700 0.118100
5.688700 0.133400
5.705700 0.149500
5.722700 0.166400
5.739700 0.184100
5.756700 0.202600
5.773700 0.229400
5.790700 0.294300
5.807700 0.429200
5.824700 0.552600
5.841700 0.598300
5.858800 0.675300
5.875800 0.795200
5.892800 0.877400
5.909800 0.939700
5.926800 0.999300
5.943800 1.056500
5.960800 1.112800
5.977800 1.180000
5.994800 1.262300
6.011800 1.368900
6.028800 1.428000
6.045800 1.456400
6.062900 1.491900
6.079900 1.522000
6.096900 1.548700
6.113900 1.574300
6.130900 1.602300
6.147900 1.635300
6.164900 1.686900
6.181900 1.765200
6.198900 1.855700
6.215900 1.958300
6.232900 2.096800
6.249900 2.276800
6.267000 2.507300
6.284000 2.829400
6.301000 3.151100
6.318000 3.542700
6.335000 4.134000
6.352000 4.760800
6.369000 4.971300
6.386000 5.079300
6.403000 4.968500
6.420000 4.952600
6.437000 4.974200
6.454000 5.082800
6.471100 5.112700
6.488100 5.046900
6.505100 4.951300
6.522100 4.723900
6.539100 4.472200
6.556100 4.211000
6.573100 3.758500
6.590100 3.774700
6.607100 3.839400
6.624100 4.009900
6.641100 4.157700
6.658100 4.408700
6.675200 4.727600
6.692200 4.871400
6.709200 4.928400
6.726200 5.020900
6.743200 4.943100
6.760200 4.412900
6.777200 4.401300
6.794200 4.400900
6.811200 4.406800
6.828200 4.586900
6.845200 4.536400
6.862200 4.476500
6.879300 4.466700
6.896300 4.454600
6.913300 4.526800
6.930300 4.848600
6.947300 5.175900
6.964300 5.244400
6.981300 5.436000
6.998300 5.626900
7.015300 5.812300
7.032300 5.833400
7.049300 5.712400
7.066300 5.544800
7.083400 5.271700
7.100400 4.863700
7.117400 4.546100
7.134400 4.249100
7.151400 3.993600
7.168400 3.833400
7.185400 3.717900
7.202400 3.662400
7.219400 3.681900
7.236400 3.833500
7.253400 3.986300
7.270400 4.129600
7.287500 4.388400
7.304500 4.848100
7.321500 5.541500
7.338500 5.962100
7.355500 6.439700
7.372500 7.115000
7.389500 7.564300
7.406500 8.043200
7.423500 8.385100
7.440500 8.720600
7.457500 9.187200
7.474500 8.854800
7.491600 8.043800
7.508600 7.215100
7.525600 6.863200
7.542600 6.532800
7.559600 6.385100
7.576600 6.548200
7.593600 6.708800
7.610600 7.215000
7.627600 7.315000
7.644600 7.435500
7.661600 7.628400
7.678600 7.946100
7.695700 7.708000
7.712700 6.794600
7.729700 6.171000
7.746700 5.985600
7.763700 6.017700
7.780700 5.827700
7.797700 5.563000
7.814700 5.163600
7.831700 4.820100
7.848700 4.665700
7.865700 4.647200
7.882700 4.550600
7.899800 4.532200
7.916800 4.559800
7.933800 4.619200
7.950800 4.818000
7.967800 4.970100
7.984800 5.243800
8.001800 5.675500
8.018800 6.221200
8.035800 5.967100
8.052800 5.844900
8.069800 5.819000
8.086800 5.519400
8.103900 5.902600
8.120900 6.147600
8.137900 6.282700
8.154900 6.236500
8.171900 6.258000
8.188900 5.731500
8.205900 5.529600
8.222900 5.182900
8.239900 5.183300
8.256900 5.211900
8.273900 5.153000
8.290900 4.932700
8.308000 4.827400
8.325000 5.157600
8.342000 5.126300
8.359000 5.088800
8.376000 4.993900
8.393000 5.154400
8.410000 5.253800
8.427000 5.348700
8.444000 5.448200
8.461000 5.571200
8.478000 5.733800
8.495000 5.894800
8.512100 6.123100
8.529100 6.634700
8.546100 6.785000
8.563100 6.757600
8.580100 6.746900
8.597100 6.564500
8.614100 6.271100
8.631100 5.875500
8.648100 5.486800
8.665100 5.160000
8.682100 4.883200
8.699100 4.669800
8.716200 4.589500
8.733200 4.898000
8.750200 5.000100
8.767200 5.109500
8.784200 5.144300
8.801200 5.104300
8.818200 5.502600
8.835200 5.897300
8.852200 5.624800
8.869200 5.393900
8.886200 5.379400
8.903200 5.526100
8.920300 5.840600
8.937300 5.861400
8.954300 5.843400
8.971300 5.831500
8.988300 5.957600
9.005300 5.999400
9.022300 6.207400
9.039300 6.550300
9.056300 6.612200
9.073300 6.070300
9.090300 5.237200
9.107300 4.659900
9.124400 4.581500
9.141400 4.647200
9.158400 5.487500
9.175400 5.084500
9.192400 5.326000
9.209400 5.512000
9.226400 5.092400
9.243400 5.119500
9.260400 5.149500
9.277400 5.060900
9.294400 4.816200
9.311400 4.599800
9.328500 4.523200
9.345500 4.471800
9.362500 4.387700
9.379500 4.344700
9.396500 4.718600
9.413500 5.272700
9.430500 5.322100
9.447500 5.373900
9.464500 5.393000
9.481500 5.508200
9.498500 5.521100
9.515500 5.596800
9.532600 6.030500
9.549600 6.506800
9.566600 6.616300
9.583600 6.646400
9.600600 6.312000
9.617600 6.050100
9.634600 5.637800
9.651600 5.158600
9.668600 4.674300
9.685600 4.328000
9.702600 4.186900
9.719600 4.058900
9.736700 3.758200
9.753700 3.720400
9.770700 3.847400
9.787700 3.949300
9.804700 4.060500
9.821700 4.351000
9.838700 4.682000
9.855700 5.035400
9.872700 5.126100
9.889700 5.344200
9.906700 5.678100
9.923700 5.873800
9.940800 5.966900
9.957800 5.920900
9.974800 5.808600
9.991800 5.544400
10.008800 5.337400
10.025800 5.124900
10.042800 4.920000
10.059800 4.755200
10.076800 4.638500
10.093800 4.556900
10.110800 4.408700
10.127800 4.492800
10.144900 4.493400
10.161900 3.991100
10.178900 3.684900
10.195900 3.542500
10.212900 3.402800
10.229900 3.350600
10.246900 3.423300
10.263900 3.603100
10.280900 3.896800
10.297900 4.289300
10.314900 4.438000
10.332000 4.648300
10.349000 4.916000
10.366000 5.235100
10.383000 5.517200
10.400000 5.701300
10.417000 5.782200
10.434000 5.753300
10.451000 5.642100
10.468000 5.501100
10.485000 5.436500
10.502000 5.417700
10.519000 5.378600
10.536100 5.370400
10.553100 5.355700
10.570100 5.335100
10.587100 5.326600
10.604100 5.293700
10.621100 5.259000
10.638100 5.271400
10.655100 5.192900
10.672100 5.165200
10.689100 4.954400
10.706100 4.747000
10.723100 4.593400
10.740200 4.477100
10.757200 4.407000
10.774200 4.107400
10.791200 3.834800
10.808200 3.754800
10.825200 3.791600
10.842200 3.830000
10.859200 3.966400
10.876200 4.077700
10.893200 4.209100
10.910200 4.388500
10.927200 4.524300
10.944300 4.554000
10.961300 4.566300
10.978300 4.580200
10.995300 4.649200
11.012300 4.701800
11.029300 4.678700
11.046300 4.488200
11.063300 4.280600
11.080300 3.972700
11.097300 3.635200
11.114300 3.362900
11.131300 3.276500
11.148400 3.315600
11.165400 3.392800
11.182400 3.544900
11.199400 3.803200
11.216400 3.976300
11.233400 4.173700
11.250400 4.318300
11.267400 4.612800
11.284400 4.783300
11.301400 4.631600
11.318400 4.396000
11.335400 4.111400
11.352500 3.958000
11.369500 4.037500
11.386500 4.193700
11.403500 4.078500
11.420500 4.018600
11.437500 4.111100
11.454500 4.241000
11.471500 4.419600
11.488500 4.608900
11.505500 4.731400
11.522500 4.898700
11.539500 5.000000
11.556600 5.078100
11.573600 5.142700
11.590600 4.955000
11.607600 4.752100
11.624600 4.702500
11.641600 4.444700
11.658600 3.867900
11.675600 3.445500
11.692600 3.157600
11.709600 2.972600
11.726600 2.871900
11.743600 2.787800
11.760700 2.762000
11.777700 2.777800
11.794700 2.894900
11.811700 3.146100
11.828700 3.850300
11.845700 4.489900
11.862700 4.966100
11.879700 5.392400
11.896700 5.542300
11.913700 5.529600
11.930700 5.489900
11.947700 5.338900
11.964800 5.246200
11.981800 5.237000
11.998800 5.227800
12.015800 5.173400
12.032800 5.144800
12.049800 4.963000
12.066800 4.734000
12.083800 4.564600
12.100800 4.415100
12.117800 4.364200
12.134800 4.294000
12.151800 4.262100
12.168900 4.457500
12.185900 4.178900
12.202900 4.165800
12.219900 4.181800
12.236900 4.121100
12.253900 3.977200
12.270900 3.853700
12.287900 3.739600
12.304900 3.660200
12.321900 3.758100
12.338900 3.844100
12.355900 3.920900
12.373000 4.017800
12.390000 4.151300
12.407000 4.349000
12.424000 4.683900
12.441000 5.341800
12.458000 5.768600
12.475000 6.113900
12.492000 6.178700
12.509000 6.021300
12.526000 5.764900
12.543000 5.498200
12.560000 5.128700
12.577100 4.994200
12.594100 4.911100
12.611100 4.796800
12.628100 4.775600
12.645100 4.814100
12.662100 4.731600
12.679100 4.727600
12.696100 4.945400
12.713100 5.100800
12.730100 5.259400
12.747100 5.416000
12.764100 5.550500
12.781200 5.717500
12.798200 5.764500
12.815200 5.834000
12.832200 5.800200
12.849200 5.657200
12.866200 5.638000
12.883200 5.530400
12.900200 5.555500
12.917200 5.584100
12.934200 5.342500
12.951200 5.276300
12.968200 5.099800
12.985300 4.865100
13.002300 4.880900
13.019300 5.098600
13.036300 5.213900
13.053300 5.327300
13.070300 5.548100
13.087300 5.732400
13.104300 5.788700
13.121300 5.723900
13.138300 5.837700
13.155300 5.832300
13.172300 5.989200
13.189400 6.270900
13.206400 6.682400
13.223400 6.351100
13.240400 5.950700
13.257400 5.595000
13.274400 5.714800
13.291400 5.724800
13.308400 5.736500
13.325400 5.992900
13.342400 6.213700
13.359400 6.295200
13.376400 6.153300
13.393500 5.833500
13.410500 5.563500
13.427500 5.299300
13.444500 5.145300
13.461500 4.954300
13.478500 4.974300
13.495500 5.033600
13.512500 5.131900
13.529500 5.282500
13.546500 5.395300
13.563500 5.542400
13.580500 5.682300
13.597600 5.818000
13.614600 5.922300
13.631600 5.936200
13.648600 5.830400
13.665600 5.635300
13.682600 5.501400
13.699600 5.425500
13.716600 5.393800
13.733600 5.450500
13.750600 5.636800
13.767600 5.835100
13.784600 6.382800
13.801700 6.646400
13.818700 6.539700
13.835700 6.015400
13.852700 5.579700
13.869700 5.340300
13.886700 5.191400
13.903700 5.174300
13.920700 5.006900
13.937700 4.876800
13.954700 4.687900
13.971700 4.615100
13.988700 4.539000
14.005800 4.552000
14.022800 4.603900
14.039800 4.608700
14.056800 4.631900
14.073800 4.852000
14.090800 4.712200
14.107800 4.628100
14.124800 4.730300
14.141800 5.092800
14.158800 5.560000
14.175800 5.910700
14.192800 5.941300
14.209900 5.703300
14.226900 5.675800
14.243900 5.631800
14.260900 5.426700
14.277900 5.104400
14.294900 5.147100
14.311900 5.267300
14.328900 5.012300
14.345900 4.771600
14.362900 4.834000
14.379900 5.054300
14.396900 5.452400
14.414000 5.677300
14.431000 5.932700
14.448000 6.303800
14.465000 6.317500
14.482000 6.203900
14.499000 6.277300
14.516000 6.364700
14.533000 6.694400
14.550000 6.516300
14.567000 6.404800
14.584000 6.365000
14.601000 6.448200
14.618100 6.357100
14.635100 6.018400
14.652100 5.676900
14.669100 5.280700
14.686100 5.124500
14.703100 5.590200
14.720100 5.945600
14.737100 5.760100
14.754100 5.981700
14.771100 6.231400
14.788100 6.434700
14.805100 6.567500
14.822200 6.669200
14.839200 6.477100
14.856200 6.437300
14.873200 6.501800
14.890200 6.499700
14.907200 6.549900
14.924200 6.471500
14.941200 6.043300
14.958200 5.839300
14.975200 5.821400
14.992200 5.988900
15.009200 6.238200
15.026300 6.710000
15.043300 6.911800
15.060300 7.004900
15.077300 6.908400
15.094300 6.499600
15.111300 6.256200
15.128300 5.969300
15.145300 5.794600
15.162300 6.119100
15.179300 6.368100
15.196300 6.279500
15.213300 6.332400
15.230400 6.565200
15.247400 6.498900
15.264400 6.470800
15.281400 6.578900
15.298400 6.749800
15.315400 6.649500
15.332400 6.413900
15.349400 6.179300
15.366400 6.004500
15.383400 6.035200
15.400400 6.204800
15.417400 6.540300
15.434500 6.566000
15.451500 6.818000
15.468500 7.047300
15.485500 7.245800
15.502500 7.512400
15.519500 7.743000
15.536500 6.829300
15.553500 6.406000
15.570500 6.147700
15.587500 6.085700
15.604500 6.083800
15.621500 6.042900
15.638600 6.121100
15.655600 6.258600
15.672600 6.385700
15.689600 6.539000
15.706600 6.479900
15.723600 6.498300
15.740600 6.522400
15.757600 6.614600
15.774600 6.484800
15.791600 6.095100
15.808600 6.014500
15.825600 6.132000
15.842700 6.103600
15.859700 6.086500
15.876700 6.143400
15.893700 6.180700
15.910700 6.188600
15.927700 6.334400
15.944700 6.424600
15.961700 6.462400
15.978700 6.562400
15.995700 6.601600
16.012700 6.353800
16.029700 6.226400
16.046800 6.133900
16.063800 6.021200
16.080800 6.011900
16.097800 6.701700
16.114800 6.695700
16.131800 6.553500
16.148800 6.443700
16.165800 6.374500
16.182800 6.294800
16.199800 6.745800
16.216800 6.667700
16.233800 6.269800
16.250900 5.706900
16.267900 5.206700
16.284900 4.985600
16.301900 4.941800
16.318900 4.867900
16.335900 4.737900
16.352900 4.732800
16.369900 5.035900
16.386900 5.587700
16.403900 6.099900
16.420900 6.836800
16.438000 6.720300
16.455000 6.976100
16.472000 6.579400
16.489000 6.308100
16.506000 6.070500
16.523000 5.803800
16.540000 5.683400
16.557000 5.717800
16.574000 5.907600
16.591000 6.119400
16.608000 6.334200
16.625000 6.649100
16.642100 7.247700
16.659100 7.183600
16.676100 7.750700
16.693100 7.539800
16.710100 7.514500
16.727100 6.522100
16.744100 6.023500
16.761100 5.796000
16.778100 5.601500
16.795100 5.492500
16.812100 5.434900
16.829100 5.393000
16.846200 5.540400
16.863200 5.745900
16.880200 5.861500
16.897200 5.969500
16.914200 6.131300
16.931200 6.320900
16.948200 6.769900
16.965200 6.430100
16.982200 6.416500
16.999200 6.658300
17.016200 6.937000
17.033200 7.173200
17.050300 7.159300
17.067300 7.165600
17.084300 6.898200
17.101300 6.857000
17.118300 6.674200
17.135300 6.387400
17.152300 6.085400
17.169300 5.712300
17.186300 5.556700
17.203300 5.490300
17.220300 5.451500
17.237300 5.438000
17.254400 5.379700
17.271400 5.252000
17.288400 5.293500
17.305400 5.405300
17.322400 5.753200
17.339400 6.166300
17.356400 6.567900
17.373400 6.949800
17.390400 7.030800
17.407400 6.968100
17.424400 6.651100
17.441400 6.476900
17.458500 6.485900
17.475500 6.397300
17.492500 6.500100
17.509500 6.541300
17.526500 6.430000
17.543500 6.460700
17.560500 6.285300
17.577500 6.197800
17.594500 6.125900
17.611500 6.047200
17.628500 5.920300
17.645500 6.048200
17.662600 6.379300
17.679600 7.329700
17.696600 7.538800
17.713600 7.956400
17.730600 8.261400
17.747600 8.364200
17.764600 8.217200
17.781600 7.737600
17.798600 7.259800
17.815600 6.920500
17.832600 6.278300
17.849600 5.834000
17.866700 5.451000
17.883700 4.923800
17.900700 4.927200
17.917700 5.088000
17.934700 5.229000
17.951700 5.312000
17.968700 5.489500
17.985700 5.771200
18.002700 6.001700
18.019700 6.134700
18.036700 6.286300
18.053700 6.553600
18.070800 6.454800
18.087800 6.449800
18.104800 6.449500
18.121800 6.258900
18.138800 5.998900
18.155800 5.966200
18.172800 5.825400
18.189800 5.816400
18.206800 5.778800
18.223800 5.739800
18.240800 6.070000
18.257800 6.780700
18.274900 6.790200
18.291900 7.270100
18.308900 7.499900
18.325900 7.046500
18.342900 6.847400
18.359900 6.671500
18.376900 6.420800
18.393900 6.539600
18.410900 6.667300
18.427900 6.918100
18.444900 7.243000
18.461900 7.372900
18.479000 7.181300
18.496000 6.727500
18.513000 6.698300
18.530000 6.553600
18.547000 6.508500
18.564000 6.483600
18.581000 6.618800
18.598000 6.664100
18.615000 6.689500
18.632000 6.638100
18.649000 6.821700
18.666000 7.026400
18.683100 7.121700
18.700100 7.209100
18.717100 7.111100
18.734100 6.934200
18.751100 7.097500
18.768100 6.899000
18.785100 6.834300
18.802100 6.790700
18.819100 6.626700
18.836100 6.644500
18.853100 6.610700
18.870100 6.516700
18.887200 6.463900
18.904200 6.505900
18.921200 6.688400
18.938200 7.009900
18.955200 7.355900
18.972200 7.342200
18.989200 7.402200
19.006200 7.515900
19.023200 7.569300
19.040200 7.653200
19.057200 7.702600
19.074200 7.680500
19.091300 7.561700
19.108300 7.307200
19.125300 7.031800
19.142300 6.988300
19.159300 7.322000
19.176300 7.107800
19.193300 7.020200
19.210300 6.969400
19.227300 6.878800
19.244300 6.763400
19.261300 6.810600
19.278300 6.825200
19.295400 6.876600
19.312400 6.825900
19.329400 6.714700
19.346400 6.470100
19.363400 6.248400
19.380400 6.163400
19.397400 6.267400
19.414400 6.218200
19.431400 6.264100
19.448400 6.322900
19.465400 6.251100
19.482400 6.142900
19.499500 6.127200
19.516500 6.169400
19.533500 6.347700
19.550500 6.886300
19.567500 7.446300
19.584500 6.818100
19.601500 6.738800
19.618500 6.249900
19.635500 6.083900
19.652500 5.986900
19.669500 6.041400
19.686500 5.962200
19.703600 6.063000
19.720600 6.396000
19.737600 6.386400
19.754600 6.385000
19.771600 6.381300
19.788600 6.451300
19.805600 6.984800
19.822600 7.146500
19.839600 6.866400
19.856600 6.449300
19.873600 5.982900
19.890600 5.756100
19.907700 5.565800
19.924700 5.518500
19.941700 5.734300
19.958700 6.101300
19.975700 6.196600
19.992700 6.322900
20.009700 6.893400
20.026700 7.737400
20.043700 8.228800
20.060700 8.593800
20.077700 8.582300
20.094700 7.823000
20.111800 7.515700
20.128800 7.015900
20.145800 6.932200
20.162800 6.951800
20.179800 7.006500
20.196800 7.160700
20.213800 7.467200
20.230800 7.464700
20.247800 7.335800
20.264800 7.460300
20.281800 8.103300
20.298800 8.714300
20.315900 8.570600
20.332900 7.829500
20.349900 6.956000
20.366900 6.374600
20.383900 6.156400
20.400900 6.040400
20.417900 6.027600
20.434900 6.178600
20.451900 6.371300
20.468900 6.630900
20.485900 6.857700
20.502900 7.350700
20.520000 7.547100
20.537000 7.392500
20.554000 6.883000
20.571000 6.479600
20.588000 6.250000
20.605000 6.305500
20.622000 6.409700
20.639000 6.744200
20.656000 7.158500
20.673000 7.160400
20.690000 6.599000
20.707000 6.369800
20.724100 6.405600
20.741100 6.493300
20.758100 6.624700
20.775100 6.751400
20.792100 6.973500
20.809100 6.772500
20.826100 6.549600
20.843100 6.321400
20.860100 6.212200
20.877100 6.210600
20.894100 6.127200
20.911100 5.822400
20.928200 5.078000
20.945200 4.668500
20.962200 4.438400
20.979200 4.292900
20.996200 4.175200
21.013200 4.164300
21.030200 4.178200
21.047200 4.191400
21.064200 4.184600
21.081200 4.259100
21.098200 4.296900
21.115200 4.293800
21.132300 4.352300
21.149300 4.288500
21.166300 4.121700
21.183300 3.852100
21.200300 3.496400
21.217300 3.199000
21.234300 2.872500
21.251300 2.520300
21.268300 2.216700
21.285300 1.919800
21.302300 1.649100
21.319300 1.435500
21.336400 1.185200
21.353400 0.875500
21.370400 0.644200
21.387400 0.456200
21.404400 0.339100
21.421400 0.262900
21.438400 0.205900
21.455400 0.158700
21.472400 0.120300
21.489400 0.086200
21.506400 0.056100
21.523400 0.030100
21.540500 0.008900
21.557500 0.000100
21.574500 0.000000
21.591500 0.000000
21.608500 0.000000
21.625500 0.000000
21.642500 0.000000
21.659500 0.000000
21.676500 0.000000
21.693500 0.000000
21.710500 0.000000
21.727500 0.000000
21.744600 0.000000
21.761600 0.000000
21.778600 0.000000
21.795600 0.000000
21.812600 0.000000
21.829600 0.000000
21.846600 0.000000
21.863600 0.000000
21.880600 0.000000
21.897600 0.000000
21.914600 0.000000
21.931600 0.000000
21.948700 0.000000
21.965700 0.000000
21.982700 0.000000
21.999700 0.000000
22.016700 0.000000
22.033700 0.000000
22.050700 0.000000
22.067700 0.000000
22.084700 0.000000
22.101700 0.000000
22.118700 0.000000
22.135700 0.000000
22.152800 0.000000
22.169800 0.000000
22.186800 0.000000
22.203800 0.000000
22.220800 0.000000
22.237800 0.000000
22.254800 0.000000
22.271800 0.000000
22.288800 0.000000
22.305800 0.000000
22.322800 0.000000
22.339900 0.000000
22.356900 0.000000
22.373900 0.000000
22.390900 0.000000
22.407900 0.000000
22.424900 0.000000
22.441900 0.000000
22.458900 0.000000
22.475900 0.000000
22.492900 0.000000
22.509900 0.000000
22.526900 0.000000
22.544000 0.000000
22.561000 0.000000
22.578000 0.000000
22.595000 0.000000
22.612000 0.000000
22.629000 0.000000
22.646000 0.000000
22.663000 0.000000
22.680000 0.000000
22.697000 0.000000
22.714000 0.000000
22.731000 0.000000
22.748100 0.000000
22.765100 0.000000
22.782100 0.000000
22.799100 0.000000
22.816100 0.000000
22.833100 0.000000
22.850100 0.000000
22.867100 0.000000
22.884100 0.000000
22.901100 0.000000
22.918100 0.000000
22.935100 0.000000
22.952200 0.000000
22.969200 0.000000
22.986200 0.000000
23.003200 0.000000
23.020200 0.000000
23.037200 0.000000
23.054200 0.000000
23.071200 0.000000
23.088200 0.000000
23.105200 0.000000
e
