set title 'mp-1079083 - Density of States'
set xlabel 'Energy (eV)'
set ylabel 'DOS (states/eV)'
set grid
set xrange [-10:10]
set yrange [0:23.088]
set xzeroaxis lt -1
set terminal png size 800,600
set output 'mp-1079083_dos_gnuplot.png'
plot '-' using 1:2 with lines title 'DOS'
-9.112600 0.000000
-9.094300 0.000000
-9.076000 0.000000
-9.057700 0.000000
-9.039500 0.000000
-9.021200 0.000000
-9.002900 0.000000
-8.984600 0.000000
-8.966300 0.000000
-8.948000 0.000000
-8.929700 0.000000
-8.911400 0.000000
-8.893100 0.000000
-8.874800 0.000000
-8.856600 0.000000
-8.838300 0.000000
-8.820000 0.000000
-8.801700 0.000000
-8.783400 0.000000
-8.765100 0.000000
-8.746800 0.000000
-8.728500 0.000000
-8.710200 0.000000
-8.691900 0.000000
-8.673700 0.000000
-8.655400 0.000000
-8.637100 0.000000
-8.618800 0.000000
-8.600500 0.000000
-8.582200 0.000000
-8.563900 0.000000
-8.545600 0.000000
-8.527300 0.000000
-8.509000 0.000000
-8.490700 0.000000
-8.472500 0.000000
-8.454200 0.000000
-8.435900 0.000000
-8.417600 0.000000
-8.399300 0.000000
-8.381000 0.000000
-8.362700 0.000000
-8.344400 0.000000
-8.326100 0.000000
-8.307800 0.000000
-8.289600 0.000000
-8.271300 0.000000
-8.253000 0.000000
-8.234700 0.000000
-8.216400 0.000000
-8.198100 0.000000
-8.179800 0.000000
-8.161500 0.000000
-8.143200 0.000000
-8.124900 0.000000
-8.106700 0.000000
-8.088400 0.000000
-8.070100 0.000000
-8.051800 0.000000
-8.033500 0.000000
-8.015200 0.000000
-7.996900 0.000000
-7.978600 0.000000
-7.960300 0.000000
-7.942000 0.000000
-7.923800 0.000000
-7.905500 0.000000
-7.887200 0.000000
-7.868900 0.000000
-7.850600 0.000000
-7.832300 0.000000
-7.814000 0.000000
-7.795700 0.000000
-7.777400 0.000000
-7.759100 0.000000
-7.740900 0.000000
-7.722600 0.000000
-7.704300 0.000000
-7.686000 0.000000
-7.667700 0.000000
-7.649400 0.000000
-7.631100 0.000000
-7.612800 0.000000
-7.594500 0.000000
-7.576200 0.000000
-7.558000 0.000000
-7.539700 0.000000
-7.521400 0.000000
-7.503100 0.000000
-7.484800 0.000000
-7.466500 0.000000
-7.448200 0.000400
-7.429900 0.064700
-7.411600 0.222700
-7.393300 0.363500
-7.375100 0.492700
-7.356800 0.645400
-7.338500 0.714000
-7.320200 0.789600
-7.301900 0.852500
-7.283600 0.926800
-7.265300 1.006400
-7.247000 1.091000
-7.228700 1.198300
-7.210400 1.341800
-7.192200 1.474800
-7.173900 1.640000
-7.155600 1.908600
-7.137300 2.056100
-7.119000 2.143300
-7.100700 2.115000
-7.082400 2.023000
-7.064100 1.991000
-7.045800 1.944800
-7.027500 1.915800
-7.009300 1.908800
-6.991000 1.906000
-6.972700 1.902800
-6.954400 1.898900
-6.936100 1.877500
-6.917800 1.887200
-6.899500 1.866100
-6.881200 1.833000
-6.862900 1.785900
-6.844600 1.779700
-6.826400 1.679800
-6.808100 1.564500
-6.789800 1.462800
-6.771500 1.397600
-6.753200 1.363200
-6.734900 1.341600
-6.716600 1.316100
-6.698300 1.290900
-6.680000 1.264500
-6.661700 1.238700
-6.643500 1.213700
-6.625200 1.187600
-6.606900 1.163200
-6.588600 1.140400
-6.570300 1.118800
-6.552000 1.093500
-6.533700 1.081000
-6.515400 1.067900
-6.497100 1.050600
-6.478800 1.027900
-6.460600 1.008600
-6.442300 0.992900
-6.424000 0.979800
-6.405700 0.968700
-6.387400 0.958300
-6.369100 0.948600
-6.350800 0.939400
-6.332500 0.930800
-6.314200 0.922500
-6.295900 0.914900
-6.277700 0.908000
-6.259400 0.901700
-6.241100 0.895000
-6.222800 0.887600
-6.204500 0.883100
-6.186200 0.885100
-6.167900 0.892500
-6.149600 0.904200
-6.131300 0.921400
-6.113000 0.945800
-6.094800 0.985100
-6.076500 1.047500
-6.058200 1.130000
-6.039900 1.237000
-6.021600 1.535400
-6.003300 1.869100
-5.985000 2.486200
-5.966700 2.129100
-5.948400 1.362800
-5.930100 1.006500
-5.911900 0.799300
-5.893600 0.630500
-5.875300 0.505100
-5.857000 0.416600
-5.838700 0.343900
-5.820400 0.278100
-5.802100 0.218500
-5.783800 0.165100
-5.765500 0.117100
-5.747200 0.076300
-5.729000 0.043000
-5.710700 0.000000
-5.692400 0.000000
-5.674100 0.000000
-5.655800 0.000000
-5.637500 0.000000
-5.619200 0.000000
-5.600900 0.000000
-5.582600 0.055400
-5.564300 0.106100
-5.546100 0.167800
-5.527800 0.233700
-5.509500 0.307200
-5.491200 0.391100
-5.472900 0.495500
-5.454600 0.642800
-5.436300 0.832100
-5.418000 1.137700
-5.399700 1.439000
-5.381400 2.070700
-5.363200 2.325900
-5.344900 1.639300
-5.326600 1.191800
-5.308300 1.022200
-5.290000 0.930800
-5.271700 0.857400
-5.253400 0.801700
-5.235100 0.766400
-5.216800 0.740600
-5.198500 0.721200
-5.180300 0.705500
-5.162000 0.693400
-5.143700 0.683600
-5.125400 0.674700
-5.107100 0.669200
-5.088800 0.666900
-5.070500 0.666800
-5.052200 0.666800
-5.033900 0.666800
-5.015600 0.666800
-4.997400 0.666800
-4.979100 0.666700
-4.960800 0.666700
-4.942500 0.667400
-4.924200 0.668800
-4.905900 0.669900
-4.887600 0.671100
-4.869300 0.672500
-4.851000 0.673900
-4.832700 0.675200
-4.814400 0.676600
-4.796200 0.678000
-4.777900 0.679500
-4.759600 0.681100
-4.741300 0.682800
-4.723000 0.684600
-4.704700 0.686800
-4.686400 0.689200
-4.668100 0.691000
-4.649800 0.692400
-4.631500 0.693700
-4.613300 0.694900
-4.595000 0.695800
-4.576700 0.696600
-4.558400 0.697200
-4.540100 0.697800
-4.521800 0.698300
-4.503500 0.698700
-4.485200 0.699000
-4.466900 0.699100
-4.448600 0.699200
-4.430400 0.699200
-4.412100 0.699200
-4.393800 0.699000
-4.375500 0.699000
-4.357200 0.699000
-4.338900 0.948300
-4.320600 2.044400
-4.302300 2.629800
-4.284000 3.000200
-4.265700 3.215400
-4.247500 3.184400
-4.229200 3.126400
-4.210900 3.112100
-4.192600 3.112700
-4.174300 2.828500
-4.156000 2.736100
-4.137700 2.554400
-4.119400 2.466700
-4.101100 2.406700
-4.082800 2.338800
-4.064600 2.220400
-4.046300 2.080700
-4.028000 2.040700
-4.009700 2.034200
-3.991400 2.242600
-3.973100 2.601100
-3.954800 2.613800
-3.936500 2.633600
-3.918200 2.627500
-3.899900 2.700800
-3.881700 2.786700
-3.863400 2.877500
-3.845100 3.032600
-3.826800 3.238400
-3.808500 3.353700
-3.790200 3.435800
-3.771900 3.516200
-3.753600 3.596400
-3.735300 3.682600
-3.717000 3.780200
-3.698800 3.905400
-3.680500 4.011400
-3.662200 4.113100
-3.643900 4.282400
-3.625600 4.454100
-3.607300 4.670700
-3.589000 5.062500
-3.570700 5.474000
-3.552400 5.776600
-3.534100 5.623500
-3.515900 5.685400
-3.497600 5.923500
-3.479300 5.265400
-3.461000 4.972500
-3.442700 5.007600
-3.424400 5.023900
-3.406100 5.146800
-3.387800 5.162200
-3.369500 4.905300
-3.351200 4.916400
-3.333000 5.000600
-3.314700 4.776500
-3.296400 4.612700
-3.278100 4.503700
-3.259800 4.735900
-3.241500 5.362000
-3.223200 5.492000
-3.204900 5.700200
-3.186600 6.087300
-3.168300 6.503500
-3.150100 6.298800
-3.131800 6.209800
-3.113500 6.202100
-3.095200 11.966000
-3.076900 0.088800
-3.058600 0.036400
-3.040300 0.007000
-3.022000 0.000000
-3.003700 0.000000
-2.985400 0.000000
-2.967200 0.000000
-2.948900 0.000000
-2.930600 0.000000
-2.912300 0.000000
-2.894000 0.000000
-2.875700 0.000000
-2.857400 0.000000
-2.839100 0.000000
-2.820800 0.000000
-2.802500 0.000000
-2.784300 0.000000
-2.766000 0.000000
-2.747700 0.000000
-2.729400 0.000000
-2.711100 0.000000
-2.692800 0.000000
-2.674500 0.000000
-2.656200 0.000000
-2.637900 0.000000
-2.619600 0.000000
-2.601400 0.000000
-2.583100 0.000000
-2.564800 0.000000
-2.546500 0.000000
-2.528200 0.000000
-2.509900 0.000000
-2.491600 0.000000
-2.473300 0.000000
-2.455000 0.000000
-2.436700 0.000000
-2.418500 0.000000
-2.400200 0.000000
-2.381900 0.000000
-2.363600 0.000000
-2.345300 0.000000
-2.327000 0.000000
-2.308700 0.000000
-2.290400 0.000000
-2.272100 0.000000
-2.253800 0.000000
-2.235600 0.000000
-2.217300 0.000000
-2.199000 0.000000
-2.180700 0.000000
-2.162400 0.000000
-2.144100 0.000000
-2.125800 0.000000
-2.107500 0.000000
-2.089200 0.000000
-2.070900 0.000000
-2.052700 0.000000
-2.034400 0.056900
-2.016100 0.563700
-1.997800 0.527800
-1.979500 0.614600
-1.961200 0.703200
-1.942900 0.781600
-1.924600 0.897600
-1.906300 1.036100
-1.888000 1.190400
-1.869800 1.356400
-1.851500 1.512100
-1.833200 1.708400
-1.814900 2.007700
-1.796600 2.357700
-1.778300 2.603700
-1.760000 3.663400
-1.741700 5.016400
-1.723400 7.400400
-1.705100 6.852500
-1.686900 3.719500
-1.668600 3.890100
-1.650300 4.211500
-1.632000 4.241800
-1.613700 4.253000
-1.595400 4.131500
-1.577100 3.891300
-1.558800 3.752100
-1.540500 3.632900
-1.522200 3.632600
-1.504000 3.612900
-1.485700 3.651600
-1.467400 3.715300
-1.449100 3.820200
-1.430800 3.937000
-1.412500 4.066300
-1.394200 4.350700
-1.375900 5.046400
-1.357600 5.628000
-1.339300 6.164800
-1.321100 6.302900
-1.302800 5.717400
-1.284500 5.149500
-1.266200 4.651800
-1.247900 5.198000
-1.229600 4.742600
-1.211300 4.585900
-1.193000 4.474800
-1.174700 3.995100
-1.156400 4.064300
-1.138100 4.500100
-1.119900 4.468100
-1.101600 4.296400
-1.083300 4.119200
-1.065000 3.839800
-1.046700 3.484900
-1.028400 3.165700
-1.010100 2.833800
-0.991800 2.612900
-0.973500 2.565300
-0.955200 1.806100
-0.937000 1.291700
-0.918700 0.945100
-0.900400 0.810100
-0.882100 0.802800
-0.863800 1.099400
-0.845500 1.407800
-0.827200 1.760900
-0.808900 2.003300
-0.790600 2.251700
-0.772300 2.488000
-0.754100 2.806100
-0.735800 3.397800
-0.717500 3.470700
-0.699200 3.280100
-0.680900 3.230200
-0.662600 3.207800
-0.644300 3.212600
-0.626000 3.204100
-0.607700 3.305200
-0.589400 4.000800
-0.571200 4.780300
-0.552900 6.668000
-0.534600 7.813800
-0.516300 5.386600
-0.498000 5.690300
-0.479700 5.642500
-0.461400 6.046200
-0.443100 6.792200
-0.424800 8.790300
-0.406500 12.447200
-0.388300 15.282200
-0.370000 10.964800
-0.351700 13.616700
-0.333400 12.269100
-0.315100 13.948100
-0.296800 14.366900
-0.278500 15.413100
-0.260200 17.081800
-0.241900 19.525400
-0.223600 17.314300
-0.205400 16.742600
-0.187100 14.522400
-0.168800 13.879900
-0.150500 16.262800
-0.132200 16.558400
-0.113900 15.843600
-0.095600 16.492800
-0.077300 17.793200
-0.059000 15.608100
-0.040700 14.310300
-0.022500 13.755900
-0.004200 14.069000
0.014100 15.466500
0.032400 15.626000
0.050700 17.710100
0.069000 20.989500
0.087300 16.987400
0.105600 14.053500
0.123900 12.991700
0.142200 10.825900
0.160400 9.938800
0.178700 10.094000
0.197000 11.272100
0.215300 11.227300
0.233600 11.517500
0.251900 13.808300
0.270200 13.826300
0.288500 13.501600
0.306800 13.530500
0.325100 14.265100
0.343300 17.333800
0.361600 17.992300
0.379900 16.564600
0.398200 15.718600
0.416500 12.274100
0.434800 12.740400
0.453100 16.749300
0.471400 17.853400
0.489700 16.037300
0.508000 14.192900
0.526200 11.688300
0.544500 10.779200
0.562800 11.335200
0.581100 10.280600
0.599400 9.066900
0.617700 7.321200
0.636000 6.342000
0.654300 5.445700
0.672600 5.351700
0.690900 6.136200
0.709100 6.690500
0.727400 7.953500
0.745700 8.341500
0.764000 8.843700
0.782300 11.547900
0.800600 7.334400
0.818900 6.579200
0.837200 6.314000
0.855500 6.274600
0.873800 6.840200
0.892000 7.621400
0.910300 8.521800
0.928600 9.193900
0.946900 10.304400
0.965200 10.985100
0.983500 11.522300
1.001800 11.151800
1.020100 8.460800
1.038400 7.280000
1.056700 6.758800
1.074900 6.490000
1.093200 7.792100
1.111500 11.685100
1.129800 14.847600
1.148100 13.966700
1.166400 11.739400
1.184700 11.931900
1.203000 13.918000
1.221300 15.756300
1.239600 13.810900
1.257800 12.405500
1.276100 10.744800
1.294400 10.292900
1.312700 10.893900
1.331000 12.709700
1.349300 14.173300
1.367600 13.842100
1.385900 14.684400
1.404200 15.899900
1.422500 16.561700
1.440700 20.221500
1.459000 18.346500
1.477300 16.890000
1.495600 16.439100
1.513900 16.730600
1.532200 17.544000
1.550500 17.748900
1.568800 19.407300
1.587100 15.180600
1.605400 11.064500
1.623600 13.548600
1.641900 14.812400
1.660200 16.850200
1.678500 16.938300
1.696800 15.249600
1.715100 12.835400
1.733400 11.159500
1.751700 11.534400
1.770000 12.850000
1.788300 14.563600
1.806500 12.551400
1.824800 11.084800
1.843100 10.040800
1.861400 9.536100
1.879700 9.374900
1.898000 11.684000
1.916300 13.951300
1.934600 14.866300
1.952900 16.911900
1.971200 17.787400
1.989400 17.239200
2.007700 18.785800
2.026000 16.133000
2.044300 14.869300
2.062600 10.134100
2.080900 8.889100
2.099200 7.887800
2.117500 6.890800
2.135800 5.661900
2.154100 4.350600
2.172300 3.942600
2.190600 3.514600
2.208900 3.371200
2.227200 3.071500
2.245500 3.000000
2.263800 2.832800
2.282100 2.503100
2.300400 2.585000
2.318700 3.127800
2.337000 3.603500
2.355200 4.199900
2.373500 5.534000
2.391800 6.453200
2.410100 6.980100
2.428400 9.151800
2.446700 7.765500
2.465000 5.875500
2.483300 5.631800
2.501600 7.782800
2.519900 8.142900
2.538200 7.400100
2.556400 6.726700
2.574700 6.266400
2.593000 6.020800
2.611300 5.882600
2.629600 5.630400
2.647900 11.544700
2.666200 5.484100
2.684500 5.760700
2.702800 5.913400
2.721100 5.415400
2.739300 5.702200
2.757600 6.066600
2.775900 6.433100
2.794200 6.669400
2.812500 6.802400
2.830800 6.811000
2.849100 6.737400
2.867400 6.582300
2.885700 6.335500
2.904000 6.172600
2.922200 5.981900
2.940500 5.682400
2.958800 5.547700
2.977100 5.062300
2.995400 4.984600
3.013700 5.006200
3.032000 5.580400
3.050300 5.701900
3.068600 6.124400
3.086900 6.390300
3.105100 6.751100
3.123400 7.090400
3.141700 7.497200
3.160000 7.385600
3.178300 6.855000
3.196600 6.656400
3.214900 5.447800
3.233200 5.111100
3.251500 5.132000
3.269800 7.105500
3.288000 6.790800
3.306300 5.572300
3.324600 5.061600
3.342900 4.439000
3.361200 4.022300
3.379500 3.671800
3.397800 3.446700
3.416100 3.359800
3.434400 3.290200
3.452700 3.234400
3.470900 3.212600
3.489200 3.205200
3.507500 3.239500
3.525800 3.299400
3.544100 3.342700
3.562400 3.373300
3.580700 3.388400
3.599000 3.323800
3.617300 3.261200
3.635600 3.403200
3.653800 3.880800
3.672100 4.327100
3.690400 3.768600
3.708700 3.188000
3.727000 3.046800
3.745300 4.014400
3.763600 2.078600
3.781900 1.918800
3.800200 1.780400
3.818500 1.627400
3.836700 1.452900
3.855000 1.525100
3.873300 1.480000
3.891600 1.432100
3.909900 1.393200
3.928200 1.368300
3.946500 1.347500
3.964800 1.331800
3.983100 1.322200
4.001400 1.316000
4.019600 1.314100
4.037900 1.316600
4.056200 1.324900
4.074500 1.347500
4.092800 1.400200
4.111100 1.457100
4.129400 1.515500
4.147700 1.565800
4.166000 1.676800
4.184300 1.706700
4.202500 1.708200
4.220800 1.656900
4.239100 1.611900
4.257400 1.555000
4.275700 1.581600
4.294000 1.623800
4.312300 1.670200
4.330600 1.743500
4.348900 2.012200
4.367200 2.221100
4.385400 2.324800
4.403700 2.325900
4.422000 2.222900
4.440300 2.126800
4.458600 1.994100
4.476900 1.944600
4.495200 1.900400
4.513500 1.861800
4.531800 1.828000
4.550100 1.799200
4.568300 1.774900
4.586600 1.733600
4.604900 1.673600
4.623200 1.612600
4.641500 1.551900
4.659800 1.463900
4.678100 1.395600
4.696400 1.336500
4.714700 1.288300
4.733000 1.269600
4.751200 1.251600
4.769500 1.232800
4.787800 1.213500
4.806100 1.193800
4.824400 1.175600
4.842700 1.159300
4.861000 1.143000
4.879300 1.126800
4.897600 1.112400
4.915900 1.100000
4.934100 1.090600
4.952400 1.083300
4.970700 1.076600
4.989000 1.069500
5.007300 1.063100
5.025600 1.057200
5.043900 1.052000
5.062200 1.047600
5.080500 1.044300
5.098800 1.044700
5.117000 1.047900
5.135300 1.052300
5.153600 1.057900
5.171900 1.065800
5.190200 1.076700
5.208500 1.091100
5.226800 1.108800
5.245100 1.148400
5.263400 1.173200
5.281700 1.200200
5.299900 1.229300
5.318200 1.260500
5.336500 1.349500
5.354800 1.368400
5.373100 1.361800
5.391400 1.366800
5.409700 1.364900
5.428000 1.355500
5.446300 1.339100
5.464600 1.323600
5.482800 1.288900
5.501100 1.270400
5.519400 1.402900
5.537700 1.486900
5.556000 1.549200
5.574300 1.594100
5.592600 1.625600
5.610900 1.634400
5.629200 1.621300
5.647500 1.734400
5.665700 1.853600
5.684000 2.102600
5.702300 2.396200
5.720600 2.670500
5.738900 2.926600
5.757200 3.114300
5.775500 3.261300
5.793800 3.283400
5.812100 3.196100
5.830400 3.346500
5.848600 3.582300
5.866900 3.856600
5.885200 4.048000
5.903500 4.190800
5.921800 4.121900
5.940100 3.841300
5.958400 3.403900
5.976700 3.239500
5.995000 3.094400
6.013300 2.977400
6.031600 3.040500
6.049800 3.173600
6.068100 3.503200
6.086400 3.549000
6.104700 3.575800
6.123000 3.685400
6.141300 3.848700
6.159600 3.831600
6.177900 3.573300
6.196200 3.322300
6.214500 3.250000
6.232700 3.334900
6.251000 4.026200
6.269300 3.520300
6.287600 3.533400
6.305900 3.466000
6.324200 3.279100
6.342500 3.808100
6.360800 4.126200
6.379100 4.870900
6.397400 4.390700
6.415600 4.010100
6.433900 3.909300
6.452200 3.972100
6.470500 4.163600
6.488800 4.051600
6.507100 4.111900
6.525400 4.185100
6.543700 4.252500
6.562000 4.391000
6.580300 4.475400
6.598500 4.590600
6.616800 4.745400
6.635100 5.290400
6.653400 5.485600
6.671700 5.630500
6.690000 5.661600
6.708300 5.693200
6.726600 5.689700
6.744900 5.568400
6.763200 4.917800
6.781400 4.374300
6.799700 3.873400
6.818000 3.520800
6.836300 3.202700
6.854600 2.982300
6.872900 2.932200
6.891200 3.029000
6.909500 3.372800
6.927800 3.878600
6.946100 4.383900
6.964300 4.502000
6.982600 4.247600
7.000900 3.986400
7.019200 3.995400
7.037500 4.045200
7.055800 3.614800
7.074100 3.031200
7.092400 2.854600
7.110700 2.720200
7.129000 2.839400
7.147200 3.182000
7.165500 2.547500
7.183800 2.230100
7.202100 2.044700
7.220400 2.010600
7.238700 2.033700
7.257000 2.077900
7.275300 2.159000
7.293600 2.262700
7.311900 2.390600
7.330100 2.493100
7.348400 2.590000
7.366700 2.697700
7.385000 2.817000
7.403300 2.980400
7.421600 3.133800
7.439900 3.447400
7.458200 3.545800
7.476500 3.640400
7.494800 3.735900
7.513000 3.830100
7.531300 3.937600
7.549600 4.129800
7.567900 4.200400
7.586200 4.523400
7.604500 4.093000
7.622800 3.784700
7.641100 3.644700
7.659400 3.477900
7.677700 3.438700
7.695900 4.135100
7.714200 3.942900
7.732500 3.741900
7.750800 3.613300
7.769100 3.740900
7.787400 3.927500
7.805700 3.941500
7.824000 3.966000
7.842300 4.066300
7.860600 4.184400
7.878800 4.145900
7.897100 4.026000
7.915400 3.885600
7.933700 3.669400
7.952000 3.559300
7.970300 3.479200
7.988600 3.395100
8.006900 3.450800
8.025200 3.664000
8.043500 4.639600
8.061700 4.807500
8.080000 4.775800
8.098300 4.662500
8.116600 4.641000
8.134900 4.661500
8.153200 4.730600
8.171500 4.905300
8.189800 5.064900
8.208100 5.413600
8.226400 5.126600
8.244600 4.754100
8.262900 4.267100
8.281200 3.862600
8.299500 3.710900
8.317800 3.651200
8.336100 3.607700
8.354400 3.582300
8.372700 3.647400
8.391000 3.786500
8.409300 3.885900
8.427500 4.048500
8.445800 4.151300
8.464100 4.047700
8.482400 3.867700
8.500700 3.728300
8.519000 3.628500
8.537300 3.647300
8.555600 3.729300
8.573900 3.750600
8.592200 3.752100
8.610400 3.871800
8.628700 3.974400
8.647000 4.049800
8.665300 4.168000
8.683600 4.332800
8.701900 4.506700
8.720200 4.729000
8.738500 4.860800
8.756800 4.960300
8.775100 5.043400
8.793300 5.074200
8.811600 5.032100
8.829900 4.824400
8.848200 4.775300
8.866500 4.741400
8.884800 4.708700
8.903100 4.661700
8.921400 4.523000
8.939700 4.391400
8.958000 4.410600
8.976200 4.463400
8.994500 4.547000
9.012800 4.649800
9.031100 4.782100
9.049400 4.821600
9.067700 4.653300
9.086000 4.642500
9.104300 4.617800
9.122600 4.666100
9.140900 4.702800
9.159100 4.668600
9.177400 4.602900
9.195700 4.474800
9.214000 4.253200
9.232300 4.295800
9.250600 4.466100
9.268900 4.312400
9.287200 4.477900
9.305500 4.756700
9.323800 4.458600
9.342000 4.232300
9.360300 4.022200
9.378600 3.820500
9.396900 3.799900
9.415200 3.827200
9.433500 3.864000
9.451800 3.904300
9.470100 3.967100
9.488400 4.065700
9.506700 4.226800
9.524900 4.340800
9.543200 4.486100
9.561500 4.652400
9.579800 4.795000
9.598100 4.956600
9.616400 5.024200
9.634700 5.102100
9.653000 5.074800
9.671300 4.411800
9.689600 4.510900
9.707900 4.665000
9.726100 4.992000
9.744400 5.057000
9.762700 4.896200
9.781000 4.698300
9.799300 4.425300
9.817600 4.169200
9.835900 3.978500
9.854200 3.883000
9.872500 3.828500
9.890800 3.856600
9.909000 4.128300
9.927300 3.705400
9.945600 3.223800
9.963900 2.897800
9.982200 2.855400
10.000500 2.802600
10.018800 2.817000
10.037100 2.779100
10.055400 2.739300
10.073700 2.748800
10.091900 2.832900
10.110200 2.966000
10.128500 3.126300
10.146800 3.243400
10.165100 3.837600
10.183400 4.097700
10.201700 4.332800
10.220000 4.895900
10.238300 5.535700
10.256600 5.600600
10.274800 5.539900
10.293100 4.629700
10.311400 4.655800
10.329700 4.751100
10.348000 4.839500
10.366300 4.949800
10.384600 4.954100
10.402900 5.041900
10.421200 5.027100
10.439500 5.058000
10.457700 5.266600
10.476000 5.556400
10.494300 6.162800
10.512600 5.089900
10.530900 4.667700
10.549200 4.172100
10.567500 3.789300
10.585800 3.442900
10.604100 3.174000
10.622400 2.872300
10.640600 2.319400
10.658900 2.281600
10.677200 2.246300
10.695500 2.218400
10.713800 2.202500
10.732100 2.247300
10.750400 2.289500
10.768700 2.304200
10.787000 3.159100
10.805300 2.937300
10.823500 3.013600
10.841800 3.137700
10.860100 3.237300
10.878400 3.181100
10.896700 3.129500
10.915000 2.955700
10.933300 2.798500
10.951600 2.788900
10.969900 2.813900
10.988200 2.847100
11.006400 2.876800
11.024700 2.925900
11.043000 2.858100
11.061300 2.779500
11.079600 2.726000
11.097900 2.679100
11.116200 2.629500
11.134500 2.587600
11.152800 2.545200
11.171100 2.501800
11.189300 2.458000
11.207600 2.414600
11.225900 2.362500
11.244200 2.302600
11.262500 2.297200
11.280800 2.290800
11.299100 2.287700
11.317400 2.287800
11.335700 2.280900
11.354000 2.282200
11.372200 2.295500
11.390500 2.317800
11.408800 2.336100
11.427100 2.545100
11.445400 2.867100
11.463700 2.940400
11.482000 3.010600
11.500300 2.929900
11.518600 2.884400
11.536900 2.706700
11.555100 2.565200
11.573400 2.492500
11.591700 2.381900
11.610000 2.248000
11.628300 2.207500
11.646600 2.255200
11.664900 2.666800
11.683200 3.132800
11.701500 3.168400
11.719800 3.246000
11.738000 3.619500
11.756300 3.832000
11.774600 4.083100
11.792900 4.443700
11.811200 4.546200
11.829500 4.571600
11.847800 4.361400
11.866100 4.363300
11.884400 4.404300
11.902700 4.489700
11.920900 4.583100
11.939200 4.836100
11.957500 5.039000
11.975800 5.290800
11.994100 5.538600
12.012400 5.915000
12.030700 4.794500
12.049000 4.623200
12.067300 4.930000
12.085600 5.589000
12.103800 6.278700
12.122100 6.281100
12.140400 6.310800
12.158700 6.235900
12.177000 6.054600
12.195300 5.562100
12.213600 4.996300
12.231900 4.450700
12.250200 3.882400
12.268500 3.634600
12.286700 3.276500
12.305000 3.205800
12.323300 3.201300
12.341600 3.246500
12.359900 3.339600
12.378200 3.670700
12.396500 3.066700
12.414800 2.800600
12.433100 2.733000
12.451400 3.162200
12.469600 3.791700
12.487900 5.367000
12.506200 6.049000
12.524500 6.026300
12.542800 5.964200
12.561100 6.082500
12.579400 6.254600
12.597700 5.543500
12.616000 5.037500
12.634300 4.537900
12.652500 4.028600
12.670800 3.563800
12.689100 3.439200
12.707400 3.063400
12.725700 3.285100
12.744000 3.255300
12.762300 3.307200
12.780600 3.536200
12.798900 3.629700
12.817200 3.765800
12.835400 4.134500
12.853700 4.787500
12.872000 5.326600
12.890300 5.592200
12.908600 5.594100
12.926900 5.552300
12.945200 5.611600
12.963500 5.511000
12.981800 5.304800
13.000100 5.238300
13.018300 5.172900
13.036600 5.186200
13.054900 5.172100
13.073200 5.153500
13.091500 5.061900
13.109800 5.094000
13.128100 5.148100
13.146400 5.157000
13.164700 5.511900
13.183000 5.449000
13.201200 5.189800
13.219500 4.553300
13.237800 4.302900
13.256100 4.248700
13.274400 6.034000
13.292700 4.131300
13.311000 3.964600
13.329300 4.045500
13.347600 4.153600
13.365900 4.308300
13.384200 4.425000
13.402400 4.131500
13.420700 3.990100
13.439000 3.931100
13.457300 3.961500
13.475600 4.030200
13.493900 4.173200
13.512200 4.505600
13.530500 5.044300
13.548800 5.494400
13.567100 6.188400
13.585300 5.913800
13.603600 5.762600
13.621900 5.546100
13.640200 5.427900
13.658500 5.281800
13.676800 4.858400
13.695100 4.586500
13.713400 4.446200
13.731700 4.407500
13.750000 4.399200
13.768200 4.444300
13.786500 4.896800
13.804800 5.190000
13.823100 5.466800
13.841400 5.192700
13.859700 4.913800
13.878000 4.782200
13.896300 4.765500
13.914600 4.767900
13.932900 4.793100
13.951100 4.482400
13.969400 4.474600
13.987700 4.414700
14.006000 4.343000
14.024300 4.288400
14.042600 4.258800
14.060900 4.222700
14.079200 4.157800
14.097500 4.062100
14.115800 4.081000
14.134000 4.138800
14.152300 4.062500
14.170600 3.892300
14.188900 3.876000
14.207200 3.916400
14.225500 3.937000
14.243800 3.879100
14.262100 3.924600
14.280400 4.011000
14.298700 4.230500
14.316900 4.416600
14.335200 4.533100
14.353500 4.653500
14.371800 4.762100
14.390100 4.862000
14.408400 4.993600
14.426700 5.164500
14.445000 5.526400
14.463300 5.527900
14.481600 5.501800
14.499800 5.439900
14.518100 5.462300
14.536400 5.597700
14.554700 5.672400
14.573000 5.393700
14.591300 5.051700
14.609600 4.688600
14.627900 4.284900
14.646200 4.210300
14.664500 4.385800
14.682700 5.510300
14.701000 6.181000
14.719300 5.865400
14.737600 5.835500
14.755900 6.049200
14.774200 6.532800
14.792500 6.672100
14.810800 6.463000
14.829100 6.182300
14.847400 5.897800
14.865600 5.683300
14.883900 5.560700
14.902200 5.236200
14.920500 4.834700
14.938800 4.616300
14.957100 4.530200
14.975400 4.600000
14.993700 4.585800
15.012000 4.752800
15.030300 4.744200
15.048500 4.857600
15.066800 5.055400
15.085100 5.222600
15.103400 5.775200
15.121700 5.577700
15.140000 5.579800
15.158300 5.666400
15.176600 6.096100
15.194900 6.449100
15.213200 6.822100
15.231400 7.080200
15.249700 7.238600
15.268000 7.454400
15.286300 6.911600
15.304600 6.658700
15.322900 6.581900
15.341200 6.635400
15.359500 6.517900
15.377800 6.343300
15.396100 6.178100
15.414300 6.149900
15.432600 6.776300
15.450900 6.257400
15.469200 6.341400
15.487500 6.437400
15.505800 6.427900
15.524100 6.520000
15.542400 6.746600
15.560700 6.401800
15.579000 6.364600
15.597200 6.377100
15.615500 6.268200
15.633800 6.110400
15.652100 5.914600
15.670400 5.603200
15.688700 5.340200
15.707000 5.261600
15.725300 5.348600
15.743600 5.513000
15.761900 5.820300
15.780100 6.083000
15.798400 6.143700
15.816700 6.059200
15.835000 5.952900
15.853300 5.925800
15.871600 5.939600
15.889900 6.024400
15.908200 5.977800
15.926500 6.133500
15.944800 6.386700
15.963000 6.318300
15.981300 6.331500
15.999600 6.382900
16.017900 6.368300
16.036200 6.090800
16.054500 5.817600
16.072800 5.801100
16.091100 5.784700
16.109400 5.764400
16.127700 5.716300
16.145900 5.644400
16.164200 5.554300
16.182500 5.446000
16.200800 5.281900
16.219100 5.105100
16.237400 4.915600
16.255700 4.720000
16.274000 4.666500
16.292300 4.684000
16.310600 4.758100
16.328800 4.498400
16.347100 3.966900
16.365400 3.912600
16.383700 4.054200
16.402000 4.250000
16.420300 4.588700
16.438600 5.280800
16.456900 5.465800
16.475200 5.804200
16.493500 5.953200
16.511700 5.661000
16.530000 5.841500
16.548300 5.830500
16.566600 5.674300
16.584900 5.226600
16.603200 4.922300
16.621500 4.741900
16.639800 4.545000
16.658100 4.375900
16.676400 4.289100
16.694600 4.260600
16.712900 4.443600
16.731200 4.656300
16.749500 4.885700
16.767800 5.117300
16.786100 5.337500
16.804400 5.608000
16.822700 6.077700
16.841000 6.665500
16.859300 6.887600
16.877500 7.000600
16.895800 6.795800
16.914100 6.412100
16.932400 5.960000
16.950700 6.124400
16.969000 5.189400
16.987300 4.555500
17.005600 4.137200
17.023900 3.923100
17.042200 3.943200
17.060500 4.209000
17.078700 4.593400
17.097000 5.040500
17.115300 5.577500
17.133600 6.017700
17.151900 6.646500
17.170200 7.300400
17.188500 6.804400
17.206800 6.610800
17.225100 6.523200
17.243400 6.420200
17.261600 6.189500
17.279900 6.130900
17.298200 6.163400
17.316500 6.148000
17.334800 6.182900
17.353100 6.432300
17.371400 6.163500
17.389700 5.816800
17.408000 5.680800
17.426300 5.535800
17.444500 5.409100
17.462800 5.301500
17.481100 5.187300
17.499400 5.085200
17.517700 5.013200
17.536000 4.919500
17.554300 4.880800
17.572600 4.713300
17.590900 4.776000
17.609200 4.253800
17.627400 3.971800
17.645700 3.812100
17.664000 3.695200
17.682300 3.637900
17.700600 3.556700
17.718900 3.538600
17.737200 3.532800
17.755500 3.540500
17.773800 3.565400
17.792100 3.711000
17.810300 3.739500
17.828600 3.915600
17.846900 4.177000
17.865200 4.362700
17.883500 4.401600
17.901800 4.463800
17.920100 4.457000
17.938400 4.423500
17.956700 4.391300
17.975000 4.388000
17.993200 4.409700
18.011500 4.431400
18.029800 4.429900
18.048100 4.517100
18.066400 4.604600
18.084700 4.771600
18.103000 5.194600
18.121300 5.502700
18.139600 5.738200
18.157900 5.742400
18.176100 5.381800
18.194400 5.169700
18.212700 5.883900
18.231000 5.333400
18.249300 5.034400
18.267600 4.905100
18.285900 4.760700
18.304200 4.532200
18.322500 4.353000
18.340800 4.183600
18.359000 4.046400
18.377300 4.049000
18.395600 4.081800
18.413900 4.123000
18.432200 4.311300
18.450500 4.440400
18.468800 4.570500
18.487100 4.700600
18.505400 4.828600
18.523700 4.961000
18.541900 5.486400
18.560200 5.538900
18.578500 5.374600
18.596800 5.289400
18.615100 5.218800
18.633400 5.079800
18.651700 4.906200
18.670000 4.737400
18.688300 4.702400
18.706600 4.682300
18.724800 4.323600
18.743100 4.010200
18.761400 3.744600
18.779700 3.639000
18.798000 3.571700
18.816300 3.532500
18.834600 3.450200
18.852900 3.431800
18.871200 3.468100
18.889500 3.504500
18.907700 3.558300
18.926000 3.601500
18.944300 3.726100
18.962600 3.962900
18.980900 4.069000
18.999200 4.196700
19.017500 4.341000
19.035800 4.795300
19.054100 5.021400
19.072400 5.301100
19.090600 5.417200
19.108900 5.439200
19.127200 5.323800
19.145500 5.123200
19.163800 4.590000
19.182100 4.467900
19.200400 4.444300
19.218700 4.351100
19.237000 4.233100
19.255300 4.083700
19.273500 4.070700
19.291800 4.077900
19.310100 4.192600
19.328400 4.336300
19.346700 4.622100
19.365000 5.433100
19.383300 6.425700
19.401600 7.681200
19.419900 7.965700
19.438200 8.096800
19.456400 8.352600
19.474700 6.335000
19.493000 5.482800
19.511300 5.561000
19.529600 5.657500
19.547900 5.647200
19.566200 5.300700
19.584500 4.975900
19.602800 4.724600
19.621100 4.709300
19.639300 4.757800
19.657600 4.834500
19.675900 4.940900
19.694200 4.955600
19.712500 4.905300
19.730800 4.851200
19.749100 4.803600
19.767400 4.743900
19.785700 4.784300
19.804000 4.830500
19.822200 4.839200
19.840500 4.958500
19.858800 5.220800
19.877100 5.357400
19.895400 5.468300
19.913700 5.550600
19.932000 5.666500
19.950300 5.801400
19.968600 5.822400
19.986900 5.583600
20.005100 5.311100
20.023400 5.102300
20.041700 4.983700
20.060000 4.904400
20.078300 4.879100
20.096600 4.828600
20.114900 4.789500
20.133200 4.830900
20.151500 4.809600
20.169800 5.028900
20.188000 5.468900
20.206300 5.739500
20.224600 5.935000
20.242900 6.056700
20.261200 6.047600
20.279500 5.903900
20.297800 5.799200
20.316100 5.733600
20.334400 5.669900
20.352700 5.663400
20.370900 5.778200
20.389200 5.854100
20.407500 5.850700
20.425800 5.873100
20.444100 5.835000
20.462400 5.801400
20.480700 5.993500
20.499000 5.815300
20.517300 5.721800
20.535600 5.594700
20.553800 5.408300
20.572100 5.313800
20.590400 5.216600
20.608700 5.164400
20.627000 5.230000
20.645300 5.222600
20.663600 5.265900
20.681900 5.303800
20.700200 5.342500
20.718500 5.393100
20.736800 5.627300
20.755000 5.747700
20.773300 5.519800
20.791600 4.755900
20.809900 4.656200
20.828200 4.648000
20.846500 4.668000
20.864800 4.700700
20.883100 4.906400
20.901400 4.937300
20.919700 4.906000
20.937900 4.836600
20.956200 4.909500
20.974500 5.003400
20.992800 5.093500
21.011100 5.203800
21.029400 5.402900
21.047700 5.446000
21.066000 5.381100
21.084300 5.299500
21.102600 5.270100
21.120800 5.231900
21.139100 5.188100
21.157400 5.070000
21.175700 4.816200
21.194000 4.709900
21.212300 4.743100
21.230600 5.169100
21.248900 5.089900
21.267200 4.921300
21.285500 4.665300
21.303700 4.411400
21.322000 4.238700
21.340300 4.212800
21.358600 4.198800
21.376900 4.194900
21.395200 4.198700
21.413500 4.244700
21.431800 4.290200
21.450100 4.338100
21.468400 4.416900
21.486600 4.419400
21.504900 4.922100
21.523200 4.852200
21.541500 5.281300
21.559800 5.471500
21.578100 5.632100
21.596400 5.743300
21.614700 5.759900
21.633000 5.723800
21.651300 5.659200
21.669500 5.715700
21.687800 5.762700
21.706100 5.647100
21.724400 5.361300
21.742700 4.789800
21.761000 4.318600
21.779300 4.283100
21.797600 4.360300
21.815900 4.730200
21.834200 5.379800
21.852400 6.484900
21.870700 6.972500
21.889000 7.672200
21.907300 6.241300
21.925600 5.773200
21.943900 5.629500
21.962200 5.600000
21.980500 5.673200
21.998800 5.611000
22.017100 5.727600
22.035300 5.788100
22.053600 6.351500
22.071900 6.294500
22.090200 6.239800
22.108500 6.393300
22.126800 5.552900
22.145100 5.139400
22.163400 4.958700
22.181700 4.996700
22.200000 5.177600
22.218200 5.598600
22.236500 5.949600
22.254800 6.176200
22.273100 6.377900
22.291400 6.500000
22.309700 6.405600
22.328000 6.234400
22.346300 6.090200
22.364600 6.061700
22.382900 5.975400
22.401100 5.830800
22.419400 5.665900
22.437700 5.515500
22.456000 5.381600
22.474300 5.565300
22.492600 5.791100
22.510900 6.107700
22.529200 6.675200
22.547500 6.694000
22.565800 6.938200
22.584000 7.133400
22.602300 7.133000
22.620600 7.859200
22.638900 6.721500
22.657200 6.351200
22.675500 6.111600
22.693800 5.850300
22.712100 6.040200
22.730400 6.046200
22.748700 6.229300
22.766900 6.242200
22.785200 6.343700
22.803500 6.415400
22.821800 6.389700
22.840100 6.564800
22.858400 6.185700
22.876700 5.816600
22.895000 5.560600
22.913300 5.293600
22.931600 4.914800
22.949800 4.904000
22.968100 5.150900
22.986400 5.153500
23.004700 5.078900
23.023000 4.946900
23.041300 4.913700
23.059600 5.094300
23.077900 5.268200
23.096200 5.401000
23.114500 5.518700
23.132700 5.345400
23.151000 5.251400
23.169300 5.175300
23.187600 4.801300
23.205900 4.432600
23.224200 4.223600
23.242500 4.186800
23.260800 4.247400
23.279100 4.090000
23.297400 4.327500
23.315600 4.667400
23.333900 5.810900
23.352200 6.134500
23.370500 6.368600
23.388800 6.555500
23.407100 6.688100
23.425400 6.756000
23.443700 6.798600
23.462000 6.657400
23.480300 7.093400
23.498500 6.339200
23.516800 6.160600
23.535100 5.959800
23.553400 5.815400
23.571700 5.727500
23.590000 5.725900
23.608300 5.801000
23.626600 5.778800
23.644900 5.802300
23.663200 5.928500
23.681400 6.073200
23.699700 6.219900
23.718000 6.344400
23.736300 7.116300
23.754600 6.673400
23.772900 6.430700
23.791200 5.693000
23.809500 5.695400
23.827800 5.641600
23.846100 5.687500
23.864300 5.672300
23.882600 5.907500
23.900900 5.979400
23.919200 6.278400
23.937500 6.772200
23.955800 6.291400
23.974100 5.812500
23.992400 5.617600
24.010700 5.429800
24.029000 5.473000
24.047200 5.527100
24.065500 5.615700
24.083800 5.715800
24.102100 5.927800
24.120400 7.203900
24.138700 6.430300
24.157000 6.800900
24.175300 6.662000
24.193600 6.375700
24.211900 5.870400
24.230100 5.580000
24.248400 5.498200
24.266700 5.398500
24.285000 5.214700
24.303300 5.048600
24.321600 4.941500
24.339900 4.972500
24.358200 5.412500
24.376500 5.811100
24.394800 5.308800
24.413100 5.068500
24.431300 4.964600
24.449600 4.673700
24.467900 4.585200
24.486200 4.603900
24.504500 4.764500
24.522800 4.457700
24.541100 4.348200
24.559400 4.471500
24.577700 4.440200
24.596000 4.482500
24.614200 4.506600
24.632500 4.593200
24.650800 4.817700
24.669100 4.993100
24.687400 5.238200
24.705700 5.482700
24.724000 5.702200
24.742300 5.676900
24.760600 5.595600
24.778900 5.493600
24.797100 5.476700
24.815400 5.727300
24.833700 5.900500
24.852000 6.049600
24.870300 6.064800
24.888600 6.150300
24.906900 5.951000
24.925200 5.783100
24.943500 5.189400
24.961800 5.132600
24.980000 5.216100
24.998300 5.376200
25.016600 5.573000
25.034900 5.793700
25.053200 6.107000
25.071500 6.493700
25.089800 7.133200
25.108100 7.353000
25.126400 7.533300
25.144700 7.669100
25.162900 8.062100
25.181200 8.588000
25.199500 9.648700
25.217800 11.242000
25.236100 11.579500
25.254400 12.581400
25.272700 25.990300
25.291000 39.351900
25.309300 29.316900
25.327600 31.203500
25.345800 33.921200
25.364100 25.053600
25.382400 20.264900
25.400700 17.753000
25.419000 17.352500
25.437300 18.507600
25.455600 18.709900
25.473900 18.293200
25.492200 19.491200
25.510500 20.434900
25.528700 19.019000
25.547000 18.032200
25.565300 16.217700
25.583600 12.126800
25.601900 7.974000
25.620200 5.264500
25.638500 3.198600
25.656800 1.558700
25.675100 0.987900
25.693400 0.629300
25.711600 0.370900
25.729900 0.219100
25.748200 0.119900
25.766500 0.043500
25.784800 0.005800
25.803100 0.000000
25.821400 0.000000
25.839700 0.000000
25.858000 0.000000
25.876300 0.000000
25.894500 0.000000
25.912800 0.000000
25.931100 0.000000
25.949400 0.000000
25.967700 0.000000
25.986000 0.000000
26.004300 0.000000
26.022600 0.000000
26.040900 0.000000
26.059200 0.000000
26.077400 0.000000
26.095700 0.000000
26.114000 0.000000
26.132300 0.000000
26.150600 0.000000
26.168900 0.000000
26.187200 0.000000
26.205500 0.000000
26.223800 0.000000
26.242100 0.000000
26.260300 0.000000
26.278600 0.000000
26.296900 0.000000
26.315200 0.000000
26.333500 0.000000
26.351800 0.000000
26.370100 0.000000
26.388400 0.000000
26.406700 0.000000
26.425000 0.000000
26.443200 0.000000
26.461500 0.000000
26.479800 0.000000
26.498100 0.000000
26.516400 0.000000
26.534700 0.000000
26.553000 0.000000
26.571300 0.000000
26.589600 0.000000
26.607900 0.000000
26.626100 0.000000
26.644400 0.000000
26.662700 0.000000
26.681000 0.000000
26.699300 0.000000
26.717600 0.000000
26.735900 0.000000
26.754200 0.000000
26.772500 0.000000
26.790800 0.000000
26.809000 0.000000
26.827300 0.000000
26.845600 0.000000
26.863900 0.000000
26.882200 0.000000
26.900500 0.000000
26.918800 0.000000
26.937100 0.000000
26.955400 0.000000
26.973700 0.000000
26.991900 0.000000
27.010200 0.000000
27.028500 0.000000
27.046800 0.000000
27.065100 0.000000
27.083400 0.000000
27.101700 0.000000
27.120000 0.000000
27.138300 0.000000
27.156600 0.000000
27.174800 0.000000
27.193100 0.000000
27.211400 0.000000
27.229700 0.000000
27.248000 0.000000
27.266300 0.000000
27.284600 0.000000
27.302900 0.000000
27.321200 0.000000
27.339500 0.000000
27.357700 0.000000
27.376000 0.000000
27.394300 0.000000
27.412600 0.000000
27.430900 0.000000
27.449200 0.000000
27.467500 0.000000
e
