set title 'mp-1183202 - Density of States'
set xlabel 'Energy (eV)'
set ylabel 'DOS (states/eV)'
set grid
set xrange [-10:10]
set yrange [0:24.986]
set xzeroaxis lt -1
set terminal png size 800,600
set output 'mp-1183202_dos_gnuplot.png'
plot '-' using 1:2 with lines title 'DOS'
-9.694000 0.000000
-9.671800 0.000000
-9.649700 0.000000
-9.627500 0.000000
-9.605300 0.000000
-9.583100 0.000000
-9.560900 0.000000
-9.538700 0.000000
-9.516500 0.000000
-9.494300 0.000000
-9.472100 0.000000
-9.450000 0.000000
-9.427800 0.000000
-9.405600 0.000000
-9.383400 0.000000
-9.361200 0.000000
-9.339000 0.000000
-9.316800 0.000000
-9.294600 0.000000
-9.272400 0.000000
-9.250200 0.000000
-9.228100 0.000000
-9.205900 0.000000
-9.183700 0.000000
-9.161500 0.000000
-9.139300 0.000000
-9.117100 0.000000
-9.094900 0.000000
-9.072700 0.000000
-9.050500 0.000000
-9.028300 0.000000
-9.006200 0.000000
-8.984000 0.000000
-8.961800 0.000000
-8.939600 0.000000
-8.917400 0.000000
-8.895200 0.000000
-8.873000 0.000000
-8.850800 0.000000
-8.828600 0.000000
-8.806500 0.000000
-8.784300 0.000000
-8.762100 0.000000
-8.739900 0.000000
-8.717700 0.000000
-8.695500 0.000000
-8.673300 0.000000
-8.651100 0.000000
-8.628900 0.000000
-8.606700 0.000000
-8.584600 0.000000
-8.562400 0.000000
-8.540200 0.000000
-8.518000 0.000000
-8.495800 0.000000
-8.473600 0.000000
-8.451400 0.000000
-8.429200 0.000000
-8.407000 0.000000
-8.384800 0.000000
-8.362700 0.000000
-8.340500 0.000000
-8.318300 0.000000
-8.296100 0.000000
-8.273900 0.000000
-8.251700 0.000000
-8.229500 0.000000
-8.207300 0.000000
-8.185100 0.000000
-8.163000 0.000000
-8.140800 0.000000
-8.118600 0.000000
-8.096400 0.000000
-8.074200 0.000000
-8.052000 0.000000
-8.029800 0.000000
-8.007600 0.000000
-7.985400 0.000000
-7.963200 0.000000
-7.941100 0.000000
-7.918900 0.000000
-7.896700 0.000000
-7.874500 0.000000
-7.852300 0.000000
-7.830100 0.000000
-7.807900 0.000000
-7.785700 0.000000
-7.763500 0.000000
-7.741300 0.000000
-7.719200 0.000000
-7.697000 0.000000
-7.674800 0.000400
-7.652600 0.060600
-7.630400 0.199100
-7.608200 0.284200
-7.586000 0.328300
-7.563800 0.385600
-7.541600 0.436300
-7.519500 0.502600
-7.497300 0.567300
-7.475100 0.607200
-7.452900 0.659900
-7.430700 0.715100
-7.408500 0.773700
-7.386300 0.832500
-7.364100 0.894800
-7.341900 0.964500
-7.319700 1.044300
-7.297600 1.132900
-7.275400 1.228300
-7.253200 1.324500
-7.231000 1.428100
-7.208800 1.539000
-7.186600 1.710200
-7.164400 2.020900
-7.142200 2.132400
-7.120000 2.213500
-7.097800 2.368700
-7.075700 2.523200
-7.053500 2.684400
-7.031300 2.900800
-7.009100 3.138700
-6.986900 3.434100
-6.964700 3.794500
-6.942500 4.545600
-6.920300 6.293700
-6.898100 7.247400
-6.876000 6.116000
-6.853800 5.216600
-6.831600 4.871300
-6.809400 4.670100
-6.787200 4.915000
-6.765000 0.000000
-6.742800 0.000000
-6.720600 0.000000
-6.698400 0.000000
-6.676200 0.000000
-6.654100 0.000000
-6.631900 0.000000
-6.609700 0.000000
-6.587500 0.000000
-6.565300 0.000000
-6.543100 0.000000
-6.520900 0.000000
-6.498700 0.000000
-6.476500 0.000000
-6.454300 0.000000
-6.432200 0.000000
-6.410000 0.000000
-6.387800 0.000000
-6.365600 0.000000
-6.343400 0.000000
-6.321200 0.000000
-6.299000 0.000000
-6.276800 0.000000
-6.254600 0.000000
-6.232500 0.000000
-6.210300 0.000000
-6.188100 0.000000
-6.165900 0.000000
-6.143700 0.000000
-6.121500 0.000000
-6.099300 0.000000
-6.077100 0.000000
-6.054900 0.000000
-6.032700 0.000000
-6.010600 0.000000
-5.988400 0.000000
-5.966200 0.000000
-5.944000 0.000000
-5.921800 0.000000
-5.899600 0.000000
-5.877400 0.000000
-5.855200 0.000000
-5.833000 0.000000
-5.810800 0.000000
-5.788700 0.000000
-5.766500 0.000000
-5.744300 0.000000
-5.722100 0.000000
-5.699900 0.000000
-5.677700 0.000000
-5.655500 0.000000
-5.633300 0.000000
-5.611100 0.000000
-5.589000 0.000000
-5.566800 0.000000
-5.544600 0.000000
-5.522400 0.000000
-5.500200 0.000000
-5.478000 0.000000
-5.455800 0.000000
-5.433600 0.000000
-5.411400 0.000000
-5.389200 0.000000
-5.367100 0.000000
-5.344900 0.000000
-5.322700 0.000000
-5.300500 0.000000
-5.278300 0.000000
-5.256100 0.000000
-5.233900 0.000000
-5.211700 0.000000
-5.189500 0.000000
-5.167300 0.000000
-5.145200 0.000000
-5.123000 0.000000
-5.100800 0.000000
-5.078600 0.000000
-5.056400 0.000000
-5.034200 0.000000
-5.012000 0.000000
-4.989800 0.000000
-4.967600 0.000000
-4.945500 0.000000
-4.923300 0.000000
-4.901100 0.000000
-4.878900 0.000000
-4.856700 0.000000
-4.834500 0.000000
-4.812300 0.000000
-4.790100 0.000000
-4.767900 0.000000
-4.745700 0.000000
-4.723600 0.000000
-4.701400 0.000000
-4.679200 0.000000
-4.657000 0.000000
-4.634800 0.000000
-4.612600 0.000000
-4.590400 0.000000
-4.568200 0.000000
-4.546000 0.000000
-4.523900 0.000000
-4.501700 0.000000
-4.479500 0.000000
-4.457300 0.000000
-4.435100 0.000000
-4.412900 0.000000
-4.390700 0.000000
-4.368500 0.000000
-4.346300 0.000000
-4.324100 0.000000
-4.302000 0.000000
-4.279800 0.000000
-4.257600 0.000000
-4.235400 0.000000
-4.213200 0.000000
-4.191000 0.000000
-4.168800 0.000000
-4.146600 0.000000
-4.124400 0.000000
-4.102200 0.000000
-4.080100 0.000000
-4.057900 0.000000
-4.035700 0.000000
-4.013500 0.000000
-3.991300 0.000000
-3.969100 0.000000
-3.946900 0.000000
-3.924700 0.000000
-3.902500 0.000000
-3.880400 0.000000
-3.858200 0.000000
-3.836000 0.000000
-3.813800 0.000000
-3.791600 0.000000
-3.769400 0.000000
-3.747200 0.000000
-3.725000 0.000000
-3.702800 0.000000
-3.680600 0.000000
-3.658500 0.000000
-3.636300 0.000000
-3.614100 0.000000
-3.591900 0.000000
-3.569700 0.000000
-3.547500 0.000000
-3.525300 0.000000
-3.503100 0.000000
-3.480900 0.000000
-3.458700 0.000000
-3.436600 0.000000
-3.414400 0.000000
-3.392200 0.000000
-3.370000 0.000000
-3.347800 0.000000
-3.325600 0.000000
-3.303400 0.000000
-3.281200 0.000000
-3.259000 0.000000
-3.236900 0.000000
-3.214700 0.000000
-3.192500 0.000000
-3.170300 0.000000
-3.148100 0.000000
-3.125900 0.000000
-3.103700 0.000000
-3.081500 0.000000
-3.059300 0.000000
-3.037100 0.000000
-3.015000 0.000000
-2.992800 0.000000
-2.970600 0.000000
-2.948400 0.000000
-2.926200 0.000000
-2.904000 0.000000
-2.881800 0.000000
-2.859600 0.000000
-2.837400 0.000000
-2.815200 0.000000
-2.793100 0.000000
-2.770900 0.000000
-2.748700 0.000000
-2.726500 0.000000
-2.704300 0.000000
-2.682100 0.000000
-2.659900 0.000000
-2.637700 0.000000
-2.615500 0.000000
-2.593400 0.000000
-2.571200 0.006200
-2.549000 0.113700
-2.526800 0.344200
-2.504600 0.579200
-2.482400 0.622700
-2.460200 0.649100
-2.438000 0.705400
-2.415800 0.789200
-2.393600 0.930600
-2.371500 1.398700
-2.349300 1.753500
-2.327100 2.070600
-2.304900 2.941100
-2.282700 4.488100
-2.260500 5.481000
-2.238300 5.318700
-2.216100 5.317800
-2.193900 5.818200
-2.171700 6.317200
-2.149600 6.718600
-2.127400 5.785600
-2.105200 4.888000
-2.083000 4.672700
-2.060800 3.657300
-2.038600 2.882300
-2.016400 2.666500
-1.994200 2.353400
-1.972000 1.974400
-1.949900 1.876800
-1.927700 1.740300
-1.905500 1.771900
-1.883300 2.385200
-1.861100 3.173100
-1.838900 3.848100
-1.816700 5.631100
-1.794500 8.294900
-1.772300 10.108600
-1.750100 11.486200
-1.728000 11.673500
-1.705800 11.522100
-1.683600 10.475700
-1.661400 10.061300
-1.639200 10.125400
-1.617000 11.473700
-1.594800 12.740800
-1.572600 13.135300
-1.550400 15.018900
-1.528200 18.032300
-1.506100 13.676400
-1.483900 13.206300
-1.461700 11.959100
-1.439500 12.377300
-1.417300 15.589900
-1.395100 14.785000
-1.372900 10.832500
-1.350700 10.989000
-1.328500 11.049100
-1.306400 11.475400
-1.284200 11.606700
-1.262000 10.555300
-1.239800 9.684000
-1.217600 8.414800
-1.195400 7.503200
-1.173200 7.168100
-1.151000 9.446600
-1.128800 8.214300
-1.106600 8.058000
-1.084500 7.274200
-1.062300 8.520100
-1.040100 7.340700
-1.017900 7.219100
-0.995700 7.908800
-0.973500 8.515100
-0.951300 9.613000
-0.929100 9.969400
-0.906900 9.833500
-0.884700 9.762800
-0.862600 10.443700
-0.840400 11.417900
-0.818200 11.960100
-0.796000 13.671400
-0.773800 16.078500
-0.751600 16.484600
-0.729400 12.702500
-0.707200 10.109000
-0.685000 9.758300
-0.662900 14.226300
-0.640700 15.174000
-0.618500 13.895500
-0.596300 11.354400
-0.574100 8.682200
-0.551900 9.678800
-0.529700 9.815700
-0.507500 8.823300
-0.485300 9.359100
-0.463100 11.839600
-0.441000 11.459800
-0.418800 11.898400
-0.396600 11.432800
-0.374400 10.681600
-0.352200 10.001000
-0.330000 9.386200
-0.307800 8.970900
-0.285600 7.444200
-0.263400 8.423700
-0.241200 14.469600
-0.219100 16.260100
-0.196900 15.971400
-0.174700 13.921200
-0.152500 12.405300
-0.130300 10.721800
-0.108100 11.105900
-0.085900 12.980300
-0.063700 12.805900
-0.041500 15.496300
-0.019400 21.182700
0.002800 22.714100
0.025000 15.348400
0.047200 14.030900
0.069400 15.403000
0.091600 15.056700
0.113800 17.380700
0.136000 14.513400
0.158200 13.589100
0.180400 12.194500
0.202500 10.952300
0.224700 10.211300
0.246900 8.387300
0.269100 7.878900
0.291300 6.906300
0.313500 6.222100
0.335700 5.935800
0.357900 5.664400
0.380100 5.730500
0.402300 5.533100
0.424400 5.610600
0.446600 5.021500
0.468800 4.275500
0.491000 3.509100
0.513200 5.477600
0.535400 7.528800
0.557600 12.309400
0.579800 18.217400
0.602000 13.238800
0.624100 10.540400
0.646300 8.650300
0.668500 6.953100
0.690700 7.096700
0.712900 6.265600
0.735100 5.678000
0.757300 4.873800
0.779500 5.480000
0.801700 5.619000
0.823900 6.001700
0.846000 6.125000
0.868200 5.421400
0.890400 4.416600
0.912600 3.588100
0.934800 3.139100
0.957000 2.979700
0.979200 2.858700
1.001400 2.761200
1.023600 2.695800
1.045800 2.663000
1.067900 2.666500
1.090100 2.582800
1.112300 2.554400
1.134500 2.529200
1.156700 2.470100
1.178900 2.433200
1.201100 2.410900
1.223300 2.376400
1.245500 2.316300
1.267600 2.273600
1.289800 2.276500
1.312000 2.361700
1.334200 2.116000
1.356400 1.772900
1.378600 1.558100
1.400800 1.387000
1.423000 1.331700
1.445200 1.188700
1.467400 1.116500
1.489500 1.115200
1.511700 1.125200
1.533900 1.142400
1.556100 1.145500
1.578300 1.151000
1.600500 1.158900
1.622700 1.146500
1.644900 1.160800
1.667100 1.171200
1.689300 1.166000
1.711400 1.235300
1.733600 1.399200
1.755800 1.383000
1.778000 1.225700
1.800200 1.229000
1.822400 1.361900
1.844600 1.460400
1.866800 1.640300
1.889000 1.716000
1.911100 1.880200
1.933300 1.673600
1.955500 1.596400
1.977700 1.593600
1.999900 1.596200
2.022100 1.604900
2.044300 1.624000
2.066500 1.655900
2.088700 1.687800
2.110900 1.720100
2.133000 1.711900
2.155200 1.699700
2.177400 1.717600
2.199600 1.752700
2.221800 1.799600
2.244000 1.822800
2.266200 1.826800
2.288400 1.868600
2.310600 1.810900
2.332800 1.782200
2.354900 1.758100
2.377100 1.735600
2.399300 1.730100
2.421500 1.734100
2.443700 1.743400
2.465900 1.755300
2.488100 1.766700
2.510300 1.781400
2.532500 1.804600
2.554600 1.839300
2.576800 1.879700
2.599000 1.904700
2.621200 1.926300
2.643400 1.940300
2.665600 1.946300
2.687800 1.941800
2.710000 1.997700
2.732200 2.039700
2.754400 1.816400
2.776500 1.685500
2.798700 1.606400
2.820900 1.574700
2.843100 1.556200
2.865300 1.541500
2.887500 1.551300
2.909700 1.600600
2.931900 1.598200
2.954100 1.592800
2.976300 1.595900
2.998400 1.593100
3.020600 1.576800
3.042800 1.563800
3.065000 1.598300
3.087200 1.591400
3.109400 1.575500
3.131600 1.513000
3.153800 1.481700
3.176000 1.447100
3.198100 1.415000
3.220300 1.386700
3.242500 1.354100
3.264700 1.334600
3.286900 1.320500
3.309100 1.254600
3.331300 1.239400
3.353500 1.220600
3.375700 1.176400
3.397900 1.139800
3.420000 1.116800
3.442200 1.175600
3.464400 1.207300
3.486600 1.221300
3.508800 1.214600
3.531000 1.187400
3.553200 1.125700
3.575400 1.100900
3.597600 1.074800
3.619800 1.045700
3.641900 1.019800
3.664100 1.008100
3.686300 0.997100
3.708500 0.986400
3.730700 0.975700
3.752900 0.964800
3.775100 0.966600
3.797300 0.950500
3.819500 0.933900
3.841600 0.930500
3.863800 0.929400
3.886000 0.936100
3.908200 0.967400
3.930400 0.941000
3.952600 0.956300
3.974800 0.973100
3.997000 0.993700
4.019200 1.028900
4.041400 1.065000
4.063500 1.113500
4.085700 1.168600
4.107900 1.229000
4.130100 1.289600
4.152300 1.366500
4.174500 1.421700
4.196700 1.406300
4.218900 1.443000
4.241100 1.447900
4.263300 1.495700
4.285400 1.556300
4.307600 1.623000
4.329800 1.685700
4.352000 1.741500
4.374200 1.767500
4.396400 1.793800
4.418600 1.829300
4.440800 1.858600
4.463000 1.877600
4.485100 1.855000
4.507300 1.834400
4.529500 1.833700
4.551700 1.757000
4.573900 1.725200
4.596100 1.700800
4.618300 1.681100
4.640500 1.659000
4.662700 1.642200
4.684900 1.626600
4.707000 1.623600
4.729200 1.597100
4.751400 1.608100
4.773600 1.571000
4.795800 1.518400
4.818000 1.519300
4.840200 1.471400
4.862400 1.294400
4.884600 1.098400
4.906800 1.057700
4.928900 1.021800
4.951100 0.990700
4.973300 0.964400
4.995500 0.942100
5.017700 0.923700
5.039900 0.888400
5.062100 0.860300
5.084300 0.834000
5.106500 0.826400
5.128600 0.826700
5.150800 0.797600
5.173000 0.770500
5.195200 0.744800
5.217400 0.720600
5.239600 0.698000
5.261800 0.674000
5.284000 0.652100
5.306200 0.628400
5.328400 0.611100
5.350500 0.597200
5.372700 0.584700
5.394900 0.572800
5.417100 0.561500
5.439300 0.552900
5.461500 0.548600
5.483700 0.549400
5.505900 0.553700
5.528100 0.552400
5.550200 0.507500
5.572400 0.500400
5.594600 0.517700
5.616800 0.539100
5.639000 0.562300
5.661200 0.586600
5.683400 0.611900
5.705600 0.638300
5.727800 0.669600
5.750000 0.716500
5.772100 0.753100
5.794300 0.817500
5.816500 0.867700
5.838700 1.141100
5.860900 1.221700
5.883100 1.340500
5.905300 1.464700
5.927500 1.591200
5.949700 1.680100
5.971900 1.750500
5.994000 1.800100
6.016200 1.811200
6.038400 1.718200
6.060600 1.447400
6.082800 1.381300
6.105000 1.306000
6.127200 1.273900
6.149400 1.248000
6.171600 1.226200
6.193700 1.206900
6.215900 1.176900
6.238100 1.148300
6.260300 1.136900
6.282500 1.131100
6.304700 1.127200
6.326900 1.124800
6.349100 1.123800
6.371300 1.127800
6.393500 1.139600
6.415600 1.155100
6.437800 1.175100
6.460000 1.194600
6.482200 1.215500
6.504400 1.239200
6.526600 1.259600
6.548800 1.279500
6.571000 1.298800
6.593200 1.317800
6.615400 1.320700
6.637500 1.310300
6.659700 1.317100
6.681900 1.332200
6.704100 1.350200
6.726300 1.366500
6.748500 1.382600
6.770700 1.402700
6.792900 1.423600
6.815100 1.445600
6.837200 1.469100
6.859400 1.517900
6.881600 1.590200
6.903800 1.665700
6.926000 1.699400
6.948200 1.709900
6.970400 1.733600
6.992600 1.751300
7.014800 1.764400
7.037000 1.773100
7.059100 1.816200
7.081300 1.841200
7.103500 1.876100
7.125700 1.908200
7.147900 1.913400
7.170100 1.936200
7.192300 1.952400
7.214500 1.882200
7.236700 1.843000
7.258900 1.788600
7.281000 1.705600
7.303200 1.633400
7.325400 1.573700
7.347600 1.543500
7.369800 1.486900
7.392000 1.427300
7.414200 1.367200
7.436400 1.312400
7.458600 1.264100
7.480700 1.205100
7.502900 1.165000
7.525100 1.133800
7.547300 1.130300
7.569500 1.144900
7.591700 1.219300
7.613900 1.233300
7.636100 1.293100
7.658300 1.232700
7.680500 1.241200
7.702600 1.272900
7.724800 1.380700
7.747000 1.482300
7.769200 1.536800
7.791400 1.538600
7.813600 1.536300
7.835800 1.569700
7.858000 1.591100
7.880200 1.608100
7.902400 1.629900
7.924500 1.653700
7.946700 1.675100
7.968900 1.696500
7.991100 1.720000
8.013300 1.790000
8.035500 1.769700
8.057700 1.810100
8.079900 1.842300
8.102100 1.908200
8.124200 1.919200
8.146400 2.004600
8.168600 2.100700
8.190800 2.157800
8.213000 2.110900
8.235200 2.009000
8.257400 1.850200
8.279600 1.805700
8.301800 1.803800
8.324000 1.825000
8.346100 2.068700
8.368300 3.073000
8.390500 3.823200
8.412700 2.553300
8.434900 1.631500
8.457100 1.471400
8.479300 1.318600
8.501500 1.222100
8.523700 1.149000
8.545900 1.082300
8.568000 1.032500
8.590200 1.066800
8.612400 1.200200
8.634600 1.286700
8.656800 1.425900
8.679000 1.574200
8.701200 1.736800
8.723400 1.924200
8.745600 2.174600
8.767700 2.354400
8.789900 2.512500
8.812100 2.667300
8.834300 2.776500
8.856500 2.847100
8.878700 2.855200
8.900900 2.801400
8.923100 2.801000
8.945300 2.687700
8.967500 2.556000
8.989600 2.452700
9.011800 2.356000
9.034000 2.233600
9.056200 2.122700
9.078400 2.056600
9.100600 2.009100
9.122800 1.946500
9.145000 1.916800
9.167200 1.886100
9.189400 1.846500
9.211500 1.831900
9.233700 1.844300
9.255900 1.891300
9.278100 1.899800
9.300300 1.891600
9.322500 1.747100
9.344700 1.518800
9.366900 1.383500
9.389100 1.317500
9.411200 1.260500
9.433400 1.204400
9.455600 1.145800
9.477800 1.101200
9.500000 1.079700
9.522200 1.087500
9.544400 0.948300
9.566600 0.788200
9.588800 0.783000
9.611000 0.762000
9.633100 0.746600
9.655300 0.736100
9.677500 0.730500
9.699700 0.729700
9.721900 0.733800
9.744100 0.741100
9.766300 0.767600
9.788500 0.785100
9.810700 0.733900
9.832900 0.741800
9.855000 0.751000
9.877200 0.760800
9.899400 0.772700
9.921600 0.788600
9.943800 0.808900
9.966000 0.835000
9.988200 0.867700
10.010400 0.906800
10.032600 0.952600
10.054700 0.993800
10.076900 1.036600
10.099100 1.101400
10.121300 1.175800
10.143500 1.299600
10.165700 1.409600
10.187900 1.524200
10.210100 1.705600
10.232300 2.015400
10.254500 2.204500
10.276600 2.233100
10.298800 2.170800
10.321000 2.196800
10.343200 2.210700
10.365400 2.295100
10.387600 2.542800
10.409800 2.545600
10.432000 2.460200
10.454200 2.462300
10.476400 2.472000
10.498500 2.471800
10.520700 2.441500
10.542900 2.406500
10.565100 2.359600
10.587300 2.311100
10.609500 2.282200
10.631700 2.213600
10.653900 2.119100
10.676100 2.020700
10.698200 1.953000
10.720400 1.912700
10.742600 1.887400
10.764800 1.906100
10.787000 1.913900
10.809200 1.892200
10.831400 1.864500
10.853600 1.762400
10.875800 1.672400
10.898000 1.598600
10.920100 1.553000
10.942300 1.514300
10.964500 1.605000
10.986700 1.622000
11.008900 1.619900
11.031100 1.634500
11.053300 1.662400
11.075500 1.695200
11.097700 1.755900
11.119900 1.799600
11.142000 1.858500
11.164200 1.886000
11.186400 1.910000
11.208600 1.994300
11.230800 2.118400
11.253000 2.152100
11.275200 2.154700
11.297400 2.147100
11.319600 2.159600
11.341700 2.183100
11.363900 2.207600
11.386100 2.135200
11.408300 2.112400
11.430500 2.110500
11.452700 2.108000
11.474900 2.105600
11.497100 2.113600
11.519300 2.115200
11.541500 2.122900
11.563600 2.115400
11.585800 2.037700
11.608000 1.956300
11.630200 1.869000
11.652400 1.781500
11.674600 1.724400
11.696800 1.677000
11.719000 1.640500
11.741200 1.609400
11.763400 1.569500
11.785500 1.547300
11.807700 1.532200
11.829900 1.525700
11.852100 1.529700
11.874300 1.546500
11.896500 1.579200
11.918700 1.622500
11.940900 1.688800
11.963100 1.780600
11.985200 1.859400
12.007400 1.919400
12.029600 1.984800
12.051800 2.044700
12.074000 2.098600
12.096200 2.180200
12.118400 2.289700
12.140600 2.414900
12.162800 2.561600
12.185000 2.716600
12.207100 2.964000
12.229300 3.013500
12.251500 2.968000
12.273700 2.908100
12.295900 2.853100
12.318100 2.804900
12.340300 2.776400
12.362500 2.792500
12.384700 2.732000
12.406900 2.661600
12.429000 2.611300
12.451200 2.559400
12.473400 2.508300
12.495600 2.419600
12.517800 2.283000
12.540000 2.175200
12.562200 2.051100
12.584400 1.930600
12.606600 1.863200
12.628700 1.823300
12.650900 1.793900
12.673100 1.735500
12.695300 1.786700
12.717500 1.741100
12.739700 1.680700
12.761900 1.622800
12.784100 1.558800
12.806300 1.487000
12.828500 1.431500
12.850600 1.390300
12.872800 1.357500
12.895000 1.317200
12.917200 1.271600
12.939400 1.273100
12.961600 1.261000
12.983800 1.232400
13.006000 1.197800
13.028200 1.182900
13.050400 1.188800
13.072500 1.200600
13.094700 1.216900
13.116900 1.238000
13.139100 1.256100
13.161300 1.272400
13.183500 1.288100
13.205700 1.331100
13.227900 1.318100
13.250100 1.282000
13.272200 1.281500
13.294400 1.286400
13.316600 1.292000
13.338800 1.297300
13.361000 1.313700
13.383200 1.327400
13.405400 1.336200
13.427600 1.342900
13.449800 1.349600
13.472000 1.359400
13.494100 1.376100
13.516300 1.405600
13.538500 1.441100
13.560700 1.476300
13.582900 1.510000
13.605100 1.543800
13.627300 1.573900
13.649500 1.601000
13.671700 1.628700
13.693900 1.663800
13.716000 1.697900
13.738200 1.725300
13.760400 1.768400
13.782600 1.810100
13.804800 1.839400
13.827000 1.780400
13.849200 1.726200
13.871400 1.719500
13.893600 1.743100
13.915700 1.780600
13.937900 1.838900
13.960100 1.893500
13.982300 1.927700
14.004500 1.942800
14.026700 1.903400
14.048900 1.893100
14.071100 1.878900
14.093300 1.885700
14.115500 1.894700
14.137600 1.899800
14.159800 1.902700
14.182000 1.906100
14.204200 1.896600
14.226400 1.893800
14.248600 1.885000
14.270800 1.909900
14.293000 1.957700
14.315200 2.060100
14.337400 2.222900
14.359500 2.400200
14.381700 2.292300
14.403900 2.247800
14.426100 2.201500
14.448300 2.134500
14.470500 2.044800
14.492700 1.988300
14.514900 1.977100
14.537100 1.993400
14.559200 2.010200
14.581400 2.040000
14.603600 2.097000
14.625800 2.095700
14.648000 2.085700
14.670200 2.064600
14.692400 2.029100
14.714600 1.987200
14.736800 1.940400
14.759000 1.984800
14.781100 1.947100
14.803300 1.923900
14.825500 1.890500
14.847700 1.851400
14.869900 1.826100
14.892100 1.799700
14.914300 1.781100
14.936500 1.745500
14.958700 1.734200
14.980900 1.705000
15.003000 1.640300
15.025200 1.608000
15.047400 1.588700
15.069600 1.574600
15.091800 1.570000
15.114000 1.567500
15.136200 1.564800
15.158400 1.564300
15.180600 1.565200
15.202700 1.567200
15.224900 1.569600
15.247100 1.572900
15.269300 1.589900
15.291500 1.599500
15.313700 1.598700
15.335900 1.617100
15.358100 1.637400
15.380300 1.655600
15.402500 1.626400
15.424600 1.624600
15.446800 1.635600
15.469000 1.654400
15.491200 1.680900
15.513400 1.710300
15.535600 1.758100
15.557800 1.887800
15.580000 1.945500
15.602200 1.960200
15.624400 1.996800
15.646500 1.956400
15.668700 1.940600
15.690900 1.948300
15.713100 1.994200
15.735300 2.043200
15.757500 2.041600
15.779700 2.010400
15.801900 1.963000
15.824100 1.919000
15.846200 1.885100
15.868400 1.862700
15.890600 1.848400
15.912800 1.836800
15.935000 1.823400
15.957200 1.793300
15.979400 1.765500
16.001600 1.746200
16.023800 1.724900
16.046000 1.715400
16.068100 1.709500
16.090300 1.701500
16.112500 1.696300
16.134700 1.690500
16.156900 1.686300
16.179100 1.683500
16.201300 1.682100
16.223500 1.725400
16.245700 1.756600
16.267800 1.765500
16.290000 1.764500
16.312200 1.753900
16.334400 1.735600
16.356600 1.705000
16.378800 1.692700
16.401000 1.726000
16.423200 1.745700
16.445400 1.764200
16.467600 1.798700
16.489700 1.900100
16.511900 1.958200
16.534100 1.975400
16.556300 2.149900
16.578500 1.984700
16.600700 2.015500
16.622900 2.059800
16.645100 2.060000
16.667300 2.090800
16.689500 2.145300
16.711600 2.254800
16.733800 2.313100
16.756000 2.357100
16.778200 2.370200
16.800400 2.378600
16.822600 2.385800
16.844800 2.413000
16.867000 2.430000
16.889200 2.439200
16.911300 2.482700
16.933500 2.562600
16.955700 2.568900
16.977900 2.552300
17.000100 2.390000
17.022300 2.293100
17.044500 2.233900
17.066700 2.187700
17.088900 2.101100
17.111100 1.978500
17.133200 1.928100
17.155400 1.884500
17.177600 1.847200
17.199800 1.835500
17.222000 1.890600
17.244200 1.934500
17.266400 1.947500
17.288600 1.959200
17.310800 1.969100
17.333000 1.946500
17.355100 1.916300
17.377300 1.852400
17.399500 1.824900
17.421700 1.801100
17.443900 1.790100
17.466100 1.810200
17.488300 1.837000
17.510500 1.855400
17.532700 1.872800
17.554800 1.879700
17.577000 1.884100
17.599200 1.894400
17.621400 1.934300
17.643600 1.978000
17.665800 2.013700
17.688000 2.064200
17.710200 2.123900
17.732400 2.229400
17.754600 2.280900
17.776700 2.332100
17.798900 2.379200
17.821100 2.438700
17.843300 2.566300
17.865500 2.771500
17.887700 2.654500
17.909900 2.504600
17.932100 2.550100
17.954300 2.633700
17.976500 2.642500
17.998600 2.591300
18.020800 2.448700
18.043000 2.441400
18.065200 2.446900
18.087400 2.468000
18.109600 2.428600
18.131800 2.344800
18.154000 2.214700
18.176200 1.983900
18.198300 1.971100
18.220500 1.936600
18.242700 1.910100
18.264900 1.910200
18.287100 1.891400
18.309300 1.881200
18.331500 1.862400
18.353700 1.848800
18.375900 1.872700
18.398100 1.888500
18.420200 2.122200
18.442400 2.161400
18.464600 2.209500
18.486800 2.315200
18.509000 2.394800
18.531200 2.467000
18.553400 2.544900
18.575600 2.803200
18.597800 2.775100
18.620000 2.819800
18.642100 3.020400
18.664300 3.010600
18.686500 3.103400
18.708700 3.021400
18.730900 3.089400
18.753100 3.208500
18.775300 3.248800
18.797500 3.262200
18.819700 3.239100
18.841800 3.207700
18.864000 3.192600
18.886200 3.219000
18.908400 3.283300
18.930600 3.229900
18.952800 3.114100
18.975000 3.020000
18.997200 2.906900
19.019400 2.776600
19.041600 2.521800
19.063700 2.422200
19.085900 2.336500
19.108100 2.257400
19.130300 2.192600
19.152500 2.150400
19.174700 2.135300
19.196900 2.141400
19.219100 2.120700
19.241300 2.148800
19.263500 2.241700
19.285600 2.340700
19.307800 2.440300
19.330000 2.540300
19.352200 2.631700
19.374400 2.716200
19.396600 2.858500
19.418800 2.938600
19.441000 2.938000
19.463200 2.895700
19.485300 2.806900
19.507500 2.761500
19.529700 2.687800
19.551900 2.639300
19.574100 2.850400
19.596300 2.583900
19.618500 2.523100
19.640700 2.498100
19.662900 2.478700
19.685100 2.464700
19.707200 2.457600
19.729400 2.453700
19.751600 2.451600
19.773800 2.454500
19.796000 2.469200
19.818200 2.486800
19.840400 2.521600
19.862600 2.583400
19.884800 2.677400
19.907000 2.752800
19.929100 2.860300
19.951300 3.016700
19.973500 3.082900
19.995700 3.156900
20.017900 3.249000
20.040100 3.333400
20.062300 3.319300
20.084500 3.285000
20.106700 3.078000
20.128800 2.965300
20.151000 2.876700
20.173200 2.843100
20.195400 2.957900
20.217600 2.684900
20.239800 2.669100
20.262000 2.654300
20.284200 2.639100
20.306400 2.637000
20.328600 2.690700
20.350700 2.787400
20.372900 2.963600
20.395100 3.073000
20.417300 2.976600
20.439500 2.812800
20.461700 2.673800
20.483900 2.584900
20.506100 2.517300
20.528300 2.465600
20.550500 2.419900
20.572600 2.390400
20.594800 2.353100
20.617000 2.323400
20.639200 2.291100
20.661400 2.247400
20.683600 2.212500
20.705800 2.170000
20.728000 2.111400
20.750200 2.096400
20.772300 2.101600
20.794500 2.136700
20.816700 2.181100
20.838900 2.203600
20.861100 2.243500
20.883300 2.346000
20.905500 2.533000
20.927700 2.657800
20.949900 2.816500
20.972100 2.906700
20.994200 2.981800
21.016400 3.108400
21.038600 3.151900
21.060800 2.982100
21.083000 2.785100
21.105200 2.760700
21.127400 2.749400
21.149600 2.737200
21.171800 2.741300
21.194000 2.798100
21.216100 2.897000
21.238300 2.863400
21.260500 2.364800
21.282700 2.203000
21.304900 2.118700
21.327100 2.051900
21.349300 2.034900
21.371500 2.051200
21.393700 2.115900
21.415800 2.200000
21.438000 2.215900
21.460200 2.275600
21.482400 2.377500
21.504600 2.460100
21.526800 2.490200
21.549000 2.496300
21.571200 2.562400
21.593400 2.654700
21.615600 2.800100
21.637700 2.831800
21.659900 2.871500
21.682100 2.909900
21.704300 2.948300
21.726500 3.028000
21.748700 3.063700
21.770900 3.019400
21.793100 2.910600
21.815300 2.834700
21.837500 2.762400
21.859600 2.694300
21.881800 2.613900
21.904000 2.563200
21.926200 2.512200
21.948400 2.465800
21.970600 2.401100
21.992800 2.357300
22.015000 2.333100
22.037200 2.353200
22.059300 2.414900
22.081500 2.478500
22.103700 2.630000
22.125900 2.878700
22.148100 2.985400
22.170300 2.938800
22.192500 2.763000
22.214700 2.708500
22.236900 2.634600
22.259100 2.543800
22.281200 2.441100
22.303400 2.293900
22.325600 2.131600
22.347800 1.979400
22.370000 1.846900
22.392200 1.758800
22.414400 1.721200
22.436600 1.680000
22.458800 1.649500
22.481000 1.636300
22.503100 1.632400
22.525300 1.642300
22.547500 1.665500
22.569700 1.699900
22.591900 1.744400
22.614100 1.808000
22.636300 1.868200
22.658500 1.930800
22.680700 1.986600
22.702800 2.045200
22.725000 2.063000
22.747200 2.150800
22.769400 2.194900
22.791600 2.214400
22.813800 2.234000
22.836000 2.273300
22.858200 2.420600
22.880400 2.516400
22.902600 2.600800
22.924700 2.642100
22.946900 2.641600
22.969100 2.685900
22.991300 2.836500
23.013500 2.809700
23.035700 2.767300
23.057900 2.774700
23.080100 2.791500
23.102300 2.827200
23.124500 2.890100
23.146600 2.872400
23.168800 2.857400
23.191000 2.874100
23.213200 3.021100
23.235400 2.920700
23.257600 2.891200
23.279800 2.813000
23.302000 2.819600
23.324200 2.926000
23.346300 2.820200
23.368500 2.793600
23.390700 3.067300
23.412900 2.709800
23.435100 2.636700
23.457300 2.563700
23.479500 2.487600
23.501700 2.482800
23.523900 2.390300
23.546100 2.354200
23.568200 2.324500
23.590400 2.210600
23.612600 2.185700
23.634800 2.177700
23.657000 2.235500
23.679200 2.252900
23.701400 2.255400
23.723600 2.410500
23.745800 2.545700
23.768000 2.627000
23.790100 2.665500
23.812300 2.697000
23.834500 2.751900
23.856700 2.778600
23.878900 2.742600
23.901100 2.792200
23.923300 2.879500
23.945500 2.957700
23.967700 3.022600
23.989800 3.095100
24.012000 3.166500
24.034200 3.132100
24.056400 2.935400
24.078600 2.764700
24.100800 2.724700
24.123000 2.662500
24.145200 2.645800
24.167400 2.597700
24.189600 2.558100
24.211700 2.538100
24.233900 2.604900
24.256100 2.638500
24.278300 2.499800
24.300500 2.371500
24.322700 2.503200
24.344900 2.415000
24.367100 2.436500
24.389300 2.462300
24.411500 2.487900
24.433600 2.508300
24.455800 2.614300
24.478000 2.537200
24.500200 2.423300
24.522400 2.283500
24.544600 2.137900
24.566800 2.018200
24.589000 1.943300
24.611200 1.902900
24.633300 1.902700
24.655500 1.938700
24.677700 1.990700
24.699900 2.029700
24.722100 2.068800
24.744300 2.118200
24.766500 2.187300
24.788700 2.302300
24.810900 2.377700
24.833100 2.491000
24.855200 2.544600
24.877400 2.576500
24.899600 2.600100
24.921800 2.633100
24.944000 2.704000
24.966200 2.628900
24.988400 2.545800
25.010600 2.496700
25.032800 2.404700
25.055000 2.312300
25.077100 2.254600
25.099300 2.232600
25.121500 2.247200
25.143700 2.252600
25.165900 2.243200
25.188100 2.260000
25.210300 2.290800
25.232500 2.342600
25.254700 2.386800
25.276800 2.428100
25.299000 2.475800
25.321200 2.520300
25.343400 2.580200
25.365600 2.660700
25.387800 2.744400
25.410000 2.743200
25.432200 2.718200
25.454400 2.701100
25.476600 2.732200
25.498700 2.759000
25.520900 2.703200
25.543100 2.624500
25.565300 2.604900
25.587500 2.599300
25.609700 2.606300
25.631900 2.644900
25.654100 2.480600
25.676300 2.418500
25.698500 2.397400
25.720600 2.379400
25.742800 2.367900
25.765000 2.327300
25.787200 2.335200
25.809400 2.311200
25.831600 2.325200
25.853800 2.352400
25.876000 2.400700
25.898200 2.466700
25.920300 2.530000
25.942500 2.555100
25.964700 2.579000
25.986900 2.642500
26.009100 2.629800
26.031300 2.558600
26.053500 2.444200
26.075700 2.433900
26.097900 2.423900
26.120100 2.404000
26.142200 2.390900
26.164400 2.384000
26.186600 2.404200
26.208800 2.331900
26.231000 2.265100
26.253200 2.233500
26.275400 2.224800
26.297600 2.256100
26.319800 2.282100
26.341900 2.450600
26.364100 2.675400
26.386300 2.922800
26.408500 2.918900
26.430700 2.973400
26.452900 3.010000
26.475100 2.920900
26.497300 2.776700
26.519500 2.530100
26.541700 2.434300
26.563800 2.399700
26.586000 2.419900
26.608200 2.450900
26.630400 2.487400
26.652600 2.524300
26.674800 2.550800
26.697000 2.619000
26.719200 2.700800
26.741400 2.822600
26.763600 2.932800
26.785700 3.047600
26.807900 3.201900
26.830100 3.226700
26.852300 3.268700
26.874500 3.239000
26.896700 3.188200
26.918900 3.131200
26.941100 3.126500
26.963300 3.051800
26.985400 2.994300
27.007600 2.920300
27.029800 2.866100
27.052000 2.877700
27.074200 2.891000
27.096400 2.904000
27.118600 2.922300
27.140800 2.957900
27.163000 3.184000
27.185200 3.346700
27.207300 3.442300
27.229500 3.427900
27.251700 3.386500
27.273900 3.341300
27.296100 3.305600
27.318300 3.309600
27.340500 3.330200
27.362700 3.033800
27.384900 3.065600
27.407100 3.107200
27.429200 3.172500
27.451400 3.230400
27.473600 3.271100
27.495800 3.306900
27.518000 3.418100
27.540200 3.526600
27.562400 3.625500
27.584600 3.757300
27.606800 3.855200
27.628900 3.830600
27.651100 3.607500
27.673300 3.426300
27.695500 3.296500
27.717700 3.176500
27.739900 3.115400
27.762100 3.070100
27.784300 3.088500
27.806500 3.153200
27.828700 3.134500
27.850800 3.121200
27.873000 3.099500
27.895200 3.077200
27.917400 3.079600
27.939600 3.127800
27.961800 3.094800
27.984000 3.065500
28.006200 3.035300
28.028400 3.014600
28.050600 3.083100
28.072700 3.164800
28.094900 3.199500
28.117100 3.152100
28.139300 3.101400
28.161500 3.083600
28.183700 3.039000
28.205900 2.933100
28.228100 2.753100
28.250300 2.593500
28.272400 2.502000
28.294600 2.481400
28.316800 2.511400
28.339000 2.576300
28.361200 2.589600
28.383400 2.697700
28.405600 2.599700
28.427800 2.643900
28.450000 2.708400
28.472200 2.766600
28.494300 2.792200
28.516500 2.791500
28.538700 2.776900
28.560900 2.746800
28.583100 2.724700
28.605300 2.721200
28.627500 2.544400
28.649700 2.446100
28.671900 2.463000
28.694100 2.490200
28.716200 2.527200
28.738400 2.570200
28.760600 2.663100
28.782800 2.732200
28.805000 2.759900
28.827200 2.823500
28.849400 2.917700
28.871600 3.011700
28.893800 3.109400
28.915900 3.218700
28.938100 3.299300
28.960300 3.445500
28.982500 3.580500
29.004700 3.647400
29.026900 3.609100
29.049100 3.501700
29.071300 3.374500
29.093500 3.305100
29.115700 3.252300
29.137800 3.201400
29.160000 3.149200
29.182200 3.076200
29.204400 3.043800
29.226600 2.938000
29.248800 2.876500
29.271000 2.801600
29.293200 2.721100
29.315400 2.614700
29.337600 2.608100
29.359700 2.526900
29.381900 2.550100
29.404100 2.630700
29.426300 2.935300
29.448500 3.086300
29.470700 3.156400
29.492900 3.247600
29.515100 3.315200
29.537300 3.320400
29.559400 3.314200
29.581600 3.341000
29.603800 3.360400
29.626000 3.418200
29.648200 3.521100
29.670400 3.686300
29.692600 3.631700
29.714800 3.551800
29.737000 3.476200
29.759200 3.336500
29.781300 3.203600
29.803500 3.068500
29.825700 2.959000
29.847900 2.893400
29.870100 2.841400
29.892300 2.767100
29.914500 2.705500
29.936700 2.673400
29.958900 2.646200
29.981100 2.842900
30.003200 2.866300
30.025400 2.904900
30.047600 2.948100
30.069800 3.011800
30.092000 3.063700
30.114200 3.056600
30.136400 3.042600
30.158600 3.010500
30.180800 2.930600
30.202900 2.839000
30.225100 2.730300
30.247300 2.623100
30.269500 2.474900
30.291700 2.306400
30.313900 2.173200
30.336100 2.057700
30.358300 1.961500
30.380500 1.880300
30.402700 1.813600
30.424800 1.753200
30.447000 1.678200
30.469200 1.627000
30.491400 1.577300
30.513600 1.531200
30.535800 1.488000
30.558000 1.447800
30.580200 1.409400
30.602400 1.375600
30.624600 1.342800
30.646700 1.310300
30.668900 1.276700
30.691100 1.244100
30.713300 1.211700
30.735500 1.179500
30.757700 1.197400
30.779900 1.133700
30.802100 1.114500
30.824300 1.098300
30.846400 1.096100
30.868600 1.085200
30.890800 1.064700
30.913000 1.023800
30.935200 0.953100
30.957400 0.908100
30.979600 0.873300
31.001800 0.847000
31.024000 0.836500
31.046200 0.802900
31.068300 0.751200
31.090500 0.706000
31.112700 0.672300
31.134900 0.646200
31.157100 0.628300
31.179300 0.618400
31.201500 0.600300
31.223700 0.577800
31.245900 0.572200
31.268100 0.568200
31.290200 0.575500
31.312400 0.578500
31.334600 0.576800
31.356800 0.570200
31.379000 0.558800
31.401200 0.542600
31.423400 0.529600
31.445600 0.492800
31.467800 0.466000
31.489900 0.448100
31.512100 0.425600
31.534300 0.401500
31.556500 0.383500
31.578700 0.385100
31.600900 0.389200
31.623100 0.387000
31.645300 0.379500
31.667500 0.370600
31.689700 0.349200
31.711800 0.323800
31.734000 0.301100
31.756200 0.281500
31.778400 0.262900
31.800600 0.251400
31.822800 0.240100
31.845000 0.230900
31.867200 0.221300
31.889400 0.211200
31.911600 0.200600
31.933700 0.189900
31.955900 0.179900
31.978100 0.170700
32.000300 0.162400
32.022500 0.154900
32.044700 0.148100
32.066900 0.141500
32.089100 0.135000
32.111300 0.128600
32.133400 0.122400
32.155600 0.116200
32.177800 0.110000
32.200000 0.105100
32.222200 0.100700
32.244400 0.096600
32.266600 0.092700
32.288800 0.089200
32.311000 0.085900
32.333200 0.083000
32.355300 0.080500
32.377500 0.078100
32.399700 0.075800
32.421900 0.052600
32.444100 0.033700
32.466300 0.027300
32.488500 0.021600
32.510700 0.016500
32.532900 0.012200
32.555100 0.008500
32.577200 0.005400
32.599400 0.003100
32.621600 0.001400
32.643800 0.000400
32.666000 0.000000
32.688200 0.000000
32.710400 0.000000
32.732600 0.000000
32.754800 0.000000
32.776900 0.000000
32.799100 0.000000
32.821300 0.000000
32.843500 0.000000
32.865700 0.000000
32.887900 0.000000
32.910100 0.000000
32.932300 0.000000
32.954500 0.000000
32.976700 0.000000
32.998800 0.000000
33.021000 0.000000
33.043200 0.000000
33.065400 0.000000
33.087600 0.000000
33.109800 0.000000
33.132000 0.000000
33.154200 0.000000
33.176400 0.000000
33.198600 0.000000
33.220700 0.000000
33.242900 0.000000
33.265100 0.000000
33.287300 0.000000
33.309500 0.000000
33.331700 0.000000
33.353900 0.000000
33.376100 0.000000
33.398300 0.000000
33.420400 0.000000
33.442600 0.000000
33.464800 0.000000
33.487000 0.000000
33.509200 0.000000
33.531400 0.000000
33.553600 0.000000
33.575800 0.000000
33.598000 0.000000
33.620200 0.000000
33.642300 0.000000
33.664500 0.000000
33.686700 0.000000
33.708900 0.000000
33.731100 0.000000
33.753300 0.000000
33.775500 0.000000
33.797700 0.000000
33.819900 0.000000
33.842100 0.000000
33.864200 0.000000
33.886400 0.000000
33.908600 0.000000
33.930800 0.000000
33.953000 0.000000
33.975200 0.000000
33.997400 0.000000
34.019600 0.000000
34.041800 0.000000
34.063900 0.000000
34.086100 0.000000
34.108300 0.000000
34.130500 0.000000
34.152700 0.000000
34.174900 0.000000
34.197100 0.000000
34.219300 0.000000
34.241500 0.000000
34.263700 0.000000
34.285800 0.000000
34.308000 0.000000
34.330200 0.000000
34.352400 0.000000
34.374600 0.000000
34.396800 0.000000
34.419000 0.000000
34.441200 0.000000
34.463400 0.000000
34.485600 0.000000
34.507700 0.000000
34.529900 0.000000
34.552100 0.000000
34.574300 0.000000
34.596500 0.000000
34.618700 0.000000
34.640900 0.000000
34.663100 0.000000
34.685300 0.000000
e
