set title 'mp-995196 - Density of States'
set xlabel 'Energy (eV)'
set ylabel 'DOS (states/eV)'
set grid
set xrange [-10:10]
set yrange [0:8.070]
set xzeroaxis lt -1
set terminal png size 800,600
set output 'mp-995196_dos_gnuplot.png'
plot '-' using 1:2 with lines title 'DOS'
-22.862600 0.000000
-22.819000 0.000000
-22.775400 0.000000
-22.731900 0.000000
-22.688300 0.000000
-22.644700 0.000000
-22.601100 0.000000
-22.557500 0.000000
-22.513900 0.000000
-22.470300 0.000000
-22.426700 0.000000
-22.383100 0.000000
-22.339500 0.000000
-22.295900 0.000000
-22.252300 0.000000
-22.208700 0.000000
-22.165200 0.000000
-22.121600 0.000000
-22.078000 0.000000
-22.034400 0.000000
-21.990800 0.000000
-21.947200 0.000000
-21.903600 0.000000
-21.860000 0.000000
-21.816400 0.000000
-21.772800 0.000000
-21.729200 0.000000
-21.685600 0.000000
-21.642000 0.000000
-21.598400 0.000000
-21.554900 0.000000
-21.511300 0.000000
-21.467700 0.000000
-21.424100 0.000000
-21.380500 0.000000
-21.336900 0.000000
-21.293300 0.000000
-21.249700 0.000000
-21.206100 0.000000
-21.162500 0.000000
-21.118900 0.000000
-21.075300 0.000000
-21.031700 0.000000
-20.988200 0.000000
-20.944600 0.000000
-20.901000 0.000000
-20.857400 0.000000
-20.813800 0.000000
-20.770200 0.000000
-20.726600 0.000000
-20.683000 0.000000
-20.639400 0.000000
-20.595800 0.000000
-20.552200 0.000000
-20.508600 0.000000
-20.465000 0.000000
-20.421500 0.000000
-20.377900 0.000000
-20.334300 0.000000
-20.290700 0.000000
-20.247100 0.000000
-20.203500 0.000000
-20.159900 0.000000
-20.116300 0.000000
-20.072700 0.000000
-20.029100 0.000000
-19.985500 0.000000
-19.941900 0.000000
-19.898300 0.000000
-19.854700 0.000000
-19.811200 0.000000
-19.767600 0.000000
-19.724000 0.000000
-19.680400 0.000000
-19.636800 0.000000
-19.593200 0.000000
-19.549600 0.000000
-19.506000 0.000000
-19.462400 0.000000
-19.418800 0.000000
-19.375200 0.000000
-19.331600 0.000000
-19.288000 0.000000
-19.244500 0.000000
-19.200900 0.000000
-19.157300 0.000000
-19.113700 0.000000
-19.070100 0.000000
-19.026500 0.000000
-18.982900 0.000000
-18.939300 0.000000
-18.895700 0.062000
-18.852100 0.144400
-18.808500 0.203000
-18.764900 0.240700
-18.721300 0.281500
-18.677700 0.322600
-18.634200 0.353500
-18.590600 0.383000
-18.547000 0.415500
-18.503400 0.452100
-18.459800 0.485900
-18.416200 0.516000
-18.372600 0.548000
-18.329000 0.583600
-18.285400 0.621400
-18.241800 0.661000
-18.198200 0.705000
-18.154600 0.754500
-18.111000 0.807200
-18.067500 0.889000
-18.023900 0.982900
-17.980300 1.017300
-17.936700 1.025300
-17.893100 1.062600
-17.849500 1.098500
-17.805900 1.125600
-17.762300 1.161900
-17.718700 1.254800
-17.675100 1.251100
-17.631500 1.217800
-17.587900 1.205400
-17.544300 1.192100
-17.500800 1.173100
-17.457200 1.151200
-17.413600 1.134600
-17.370000 1.117800
-17.326400 1.100700
-17.282800 1.085800
-17.239200 1.064300
-17.195600 1.051900
-17.152000 1.035700
-17.108400 1.002000
-17.064800 0.982100
-17.021200 0.865600
-16.977600 0.771200
-16.934000 0.702000
-16.890500 0.652700
-16.846900 0.605900
-16.803300 0.558400
-16.759700 0.526500
-16.716100 0.496300
-16.672500 0.468100
-16.628900 0.441100
-16.585300 0.413900
-16.541700 0.387800
-16.498100 0.365400
-16.454500 0.343800
-16.410900 0.324300
-16.367300 0.304900
-16.323800 0.285800
-16.280200 0.266400
-16.236600 0.247600
-16.193000 0.231000
-16.149400 0.234500
-16.105800 0.196600
-16.062200 0.172900
-16.018600 0.156100
-15.975000 0.138300
-15.931400 0.123100
-15.887800 0.108100
-15.844200 0.094800
-15.800600 0.082400
-15.757100 0.071500
-15.713500 0.237500
-15.669900 0.322400
-15.626300 0.384000
-15.582700 0.464900
-15.539100 0.511400
-15.495500 0.611200
-15.451900 0.740900
-15.408300 1.036400
-15.364700 1.012800
-15.321100 1.019200
-15.277500 1.026700
-15.233900 1.052800
-15.190300 1.105100
-15.146800 1.113200
-15.103200 1.144700
-15.059600 1.180100
-15.016000 1.226600
-14.972400 1.288600
-14.928800 1.346400
-14.885200 1.430700
-14.841600 1.569400
-14.798000 1.680500
-14.754400 1.692600
-14.710800 1.711900
-14.667200 1.749200
-14.623600 1.476900
-14.580100 1.378000
-14.536500 1.318900
-14.492900 1.227400
-14.449300 1.188500
-14.405700 1.153100
-14.362100 1.126700
-14.318500 1.112800
-14.274900 1.089500
-14.231300 1.081200
-14.187700 1.063900
-14.144100 1.043700
-14.100500 1.022800
-14.056900 1.018500
-14.013400 1.032500
-13.969800 1.016500
-13.926200 0.992200
-13.882600 0.904800
-13.839000 0.847100
-13.795400 0.798900
-13.751800 0.764100
-13.708200 0.735000
-13.664600 0.709900
-13.621000 0.683600
-13.577400 0.642200
-13.533800 0.609200
-13.490200 0.584300
-13.446600 0.558400
-13.403100 0.497800
-13.359500 0.381100
-13.315900 0.388000
-13.272300 0.398900
-13.228700 0.408200
-13.185100 0.417200
-13.141500 0.426000
-13.097900 0.435000
-13.054300 0.444400
-13.010700 0.454000
-12.967100 0.464400
-12.923500 0.475200
-12.879900 0.486400
-12.836400 0.503300
-12.792800 0.520000
-12.749200 0.535600
-12.705600 0.550100
-12.662000 0.564500
-12.618400 0.579700
-12.574800 0.597600
-12.531200 0.613100
-12.487600 0.628600
-12.444000 0.644200
-12.400400 0.660200
-12.356800 0.680600
-12.313200 0.736600
-12.269700 0.789200
-12.226100 0.836400
-12.182500 0.882600
-12.138900 0.925700
-12.095300 0.967600
-12.051700 1.282200
-12.008100 1.194000
-11.964500 1.135600
-11.920900 1.097500
-11.877300 1.057100
-11.833700 1.037500
-11.790100 1.029600
-11.746500 1.008600
-11.702900 0.982700
-11.659400 0.957100
-11.615800 0.932900
-11.572200 0.902500
-11.528600 0.923300
-11.485000 0.780100
-11.441400 0.665400
-11.397800 0.591800
-11.354200 0.529700
-11.310600 0.481500
-11.267000 0.416700
-11.223400 0.363400
-11.179800 0.333000
-11.136200 0.302500
-11.092700 0.273300
-11.049100 0.248100
-11.005500 0.224000
-10.961900 0.201800
-10.918300 0.183100
-10.874700 0.164700
-10.831100 0.147500
-10.787500 0.130500
-10.743900 0.115600
-10.700300 0.103400
-10.656700 0.081600
-10.613100 0.062000
-10.569500 0.048100
-10.525900 0.000000
-10.482400 0.000000
-10.438800 0.000000
-10.395200 0.000000
-10.351600 0.000000
-10.308000 0.000000
-10.264400 0.000000
-10.220800 0.000000
-10.177200 0.000000
-10.133600 0.000000
-10.090000 0.000000
-10.046400 0.000000
-10.002800 0.000000
-9.959200 0.000000
-9.915700 0.000000
-9.872100 0.000000
-9.828500 0.000000
-9.784900 0.000000
-9.741300 0.000000
-9.697700 0.000000
-9.654100 0.000000
-9.610500 0.000000
-9.566900 0.000000
-9.523300 0.000000
-9.479700 0.000000
-9.436100 0.000000
-9.392500 0.000000
-9.349000 0.000000
-9.305400 0.000000
-9.261800 0.000000
-9.218200 0.000000
-9.174600 0.000000
-9.131000 0.000000
-9.087400 0.000000
-9.043800 0.000000
-9.000200 0.000000
-8.956600 0.000000
-8.913000 0.000000
-8.869400 0.000000
-8.825800 0.000000
-8.782200 0.000000
-8.738700 0.000000
-8.695100 0.000000
-8.651500 0.000000
-8.607900 0.000000
-8.564300 0.000000
-8.520700 0.000000
-8.477100 0.000000
-8.433500 0.000000
-8.389900 0.000000
-8.346300 0.000000
-8.302700 0.000000
-8.259100 0.000000
-8.215500 0.000000
-8.172000 0.000000
-8.128400 0.035000
-8.084800 0.055400
-8.041200 0.072300
-7.997600 0.092700
-7.954000 0.097100
-7.910400 0.106100
-7.866800 0.116400
-7.823200 0.124800
-7.779600 0.134900
-7.736000 0.145400
-7.692400 0.153800
-7.648800 0.162300
-7.605300 0.170500
-7.561700 0.179300
-7.518100 0.186600
-7.474500 0.194500
-7.430900 0.202300
-7.387300 0.211900
-7.343700 0.221600
-7.300100 0.231800
-7.256500 0.240200
-7.212900 0.249100
-7.169300 0.258200
-7.125700 0.267200
-7.082100 0.277100
-7.038500 0.287300
-6.995000 0.297800
-6.951400 0.308400
-6.907800 0.356500
-6.864200 0.402400
-6.820600 0.437700
-6.777000 0.475000
-6.733400 0.516400
-6.689800 0.553000
-6.646200 0.579400
-6.602600 0.610300
-6.559000 0.643400
-6.515400 0.678500
-6.471800 0.722100
-6.428300 0.764100
-6.384700 0.820400
-6.341100 0.872300
-6.297500 0.931100
-6.253900 0.997600
-6.210300 1.075100
-6.166700 1.160900
-6.123100 1.329400
-6.079500 1.415900
-6.035900 1.541100
-5.992300 1.721500
-5.948700 1.978700
-5.905100 2.231700
-5.861600 2.225100
-5.818000 2.350500
-5.774400 1.906700
-5.730800 1.418000
-5.687200 1.087600
-5.643600 0.917400
-5.600000 0.817100
-5.556400 0.734300
-5.512800 0.648300
-5.469200 0.589000
-5.425600 0.532000
-5.382000 0.481700
-5.338400 0.438500
-5.294800 0.406600
-5.251300 0.400700
-5.207700 0.606300
-5.164100 0.661700
-5.120500 0.775700
-5.076900 0.589700
-5.033300 0.208200
-4.989700 0.260800
-4.946100 0.614000
-4.902500 0.668100
-4.858900 0.558700
-4.815300 0.539000
-4.771700 0.568600
-4.728100 0.618700
-4.684600 0.680100
-4.641000 0.755300
-4.597400 0.921700
-4.553800 1.027400
-4.510200 1.124000
-4.466600 1.321700
-4.423000 1.281300
-4.379400 1.260700
-4.335800 1.233300
-4.292200 1.202800
-4.248600 1.208900
-4.205000 1.222500
-4.161400 1.230500
-4.117900 1.258000
-4.074300 1.020900
-4.030700 0.994300
-3.987100 0.945000
-3.943500 0.896500
-3.899900 0.872500
-3.856300 0.834300
-3.812700 0.820200
-3.769100 0.801200
-3.725500 0.781600
-3.681900 0.751100
-3.638300 0.769000
-3.594700 0.779100
-3.551100 0.772300
-3.507600 0.770600
-3.464000 0.769500
-3.420400 0.772700
-3.376800 0.777000
-3.333200 0.781100
-3.289600 0.785700
-3.246000 0.846600
-3.202400 0.882100
-3.158800 0.903900
-3.115200 0.959200
-3.071600 1.033800
-3.028000 1.123800
-2.984400 1.383900
-2.940900 1.336900
-2.897300 1.269900
-2.853700 1.210500
-2.810100 1.167100
-2.766500 1.134000
-2.722900 1.182300
-2.679300 1.227500
-2.635700 1.275900
-2.592100 1.374700
-2.548500 1.435300
-2.504900 1.464200
-2.461300 1.332200
-2.417700 1.297900
-2.374200 1.136200
-2.330600 1.022200
-2.287000 1.017500
-2.243400 1.030000
-2.199800 1.041800
-2.156200 1.058100
-2.112600 1.078200
-2.069000 1.080800
-2.025400 1.106800
-1.981800 1.055300
-1.938200 1.050900
-1.894600 1.066900
-1.851000 1.080700
-1.807400 1.136200
-1.763900 1.437600
-1.720300 1.697800
-1.676700 1.820200
-1.633100 1.906100
-1.589500 1.742500
-1.545900 1.660100
-1.502300 1.671700
-1.458700 1.705000
-1.415100 1.700200
-1.371500 1.682100
-1.327900 1.658900
-1.284300 1.637500
-1.240700 1.652900
-1.197200 1.678700
-1.153600 1.719300
-1.110000 1.774100
-1.066400 1.783400
-1.022800 1.796500
-0.979200 1.944300
-0.935600 2.044700
-0.892000 2.173800
-0.848400 2.064200
-0.804800 1.976200
-0.761200 1.884500
-0.717600 1.802800
-0.674000 1.791800
-0.630400 1.736400
-0.586900 1.789000
-0.543300 1.788500
-0.499700 1.835900
-0.456100 1.900700
-0.412500 2.125800
-0.368900 2.253800
-0.325300 2.204300
-0.281700 2.385800
-0.238100 2.311200
-0.194500 2.358400
-0.150900 2.382000
-0.107300 2.443000
-0.063700 2.424300
-0.020200 2.435800
0.023400 2.449200
0.067000 2.415600
0.110600 2.419400
0.154200 2.430200
0.197800 2.443600
0.241400 2.470700
0.285000 2.531900
0.328600 2.476500
0.372200 2.313000
0.415800 2.289400
0.459400 2.264500
0.503000 2.299800
0.546500 2.280700
0.590100 2.274600
0.633700 2.257300
0.677300 2.282700
0.720900 2.155200
0.764500 2.108600
0.808100 2.126200
0.851700 2.101800
0.895300 2.301300
0.938900 2.408300
0.982500 2.387500
1.026100 2.476200
1.069700 2.634300
1.113300 2.579400
1.156800 2.633500
1.200400 2.727100
1.244000 2.981000
1.287600 3.356100
1.331200 2.791600
1.374800 2.754500
1.418400 2.672600
1.462000 2.624700
1.505600 2.425900
1.549200 2.359900
1.592800 2.350700
1.636400 2.373500
1.680000 2.505100
1.723500 2.313200
1.767100 2.318600
1.810700 2.271200
1.854300 2.391500
1.897900 2.228900
1.941500 2.127100
1.985100 2.098400
2.028700 2.138100
2.072300 2.428300
2.115900 2.374000
2.159500 2.348400
2.203100 2.488400
2.246700 2.643600
2.290200 2.804200
2.333800 3.050700
2.377400 2.309700
2.421000 1.881200
2.464600 1.747100
2.508200 1.388200
2.551800 1.034400
2.595400 0.998700
2.639000 1.000000
2.682600 0.987000
2.726200 1.049700
2.769800 1.223100
2.813400 3.030400
2.857000 1.923200
2.900500 1.887900
2.944100 2.276000
2.987700 1.738000
3.031300 1.925700
3.074900 2.169500
3.118500 2.438500
3.162100 2.369100
3.205700 2.199000
3.249300 2.081400
3.292900 1.984700
3.336500 1.978000
3.380100 1.875800
3.423700 1.878500
3.467200 1.781800
3.510800 1.627400
3.554400 1.466400
3.598000 1.230600
3.641600 1.311400
3.685200 0.946700
3.728800 0.884800
3.772400 0.926800
3.816000 0.960400
3.859600 0.975800
3.903200 1.113800
3.946800 1.148100
3.990400 1.247400
4.033900 1.276200
4.077500 1.311100
4.121100 1.332300
4.164700 1.370300
4.208300 1.409400
4.251900 1.436300
4.295500 1.436500
4.339100 1.485000
4.382700 1.552200
4.426300 1.542900
4.469900 1.538300
4.513500 1.531600
4.557100 1.497100
4.600700 1.521200
4.644200 1.603200
4.687800 1.663100
4.731400 1.709600
4.775000 1.765300
4.818600 1.806000
4.862200 1.891200
4.905800 1.956800
4.949400 2.135000
4.993000 2.305000
5.036600 2.606300
5.080200 2.648300
5.123800 2.596500
5.167400 2.550300
5.210900 2.590400
5.254500 2.655200
5.298100 2.333900
5.341700 2.163000
5.385300 2.083600
5.428900 2.059500
5.472500 2.017600
5.516100 2.030200
5.559700 2.062300
5.603300 2.228000
5.646900 2.241600
5.690500 2.236500
5.734100 2.274500
5.777600 2.382500
5.821200 2.445300
5.864800 2.566100
5.908400 2.838300
5.952000 3.167200
5.995600 3.459900
6.039200 2.886300
6.082800 2.716700
6.126400 2.673500
6.170000 2.834400
6.213600 3.316900
6.257200 3.008300
6.300800 2.899600
6.344400 2.910100
6.387900 2.861100
6.431500 3.041800
6.475100 3.087300
6.518700 3.163800
6.562300 3.327300
6.605900 4.033400
6.649500 3.738400
6.693100 3.655500
6.736700 4.036500
6.780300 4.182600
6.823900 4.918200
6.867500 3.355700
6.911100 2.828200
6.954600 2.393900
6.998200 2.037800
7.041800 1.801800
7.085400 1.593600
7.129000 1.442400
7.172600 1.348900
7.216200 1.254800
7.259800 1.176500
7.303400 1.147000
7.347000 1.092600
7.390600 1.084700
7.434200 1.089900
7.477800 1.095200
7.521300 1.107600
7.564900 1.209000
7.608500 1.703600
7.652100 1.797600
7.695700 1.836800
7.739300 1.921000
7.782900 1.937300
7.826500 1.913900
7.870100 2.975700
7.913700 7.336200
7.957300 0.977000
8.000900 0.590100
8.044500 0.379300
8.088100 0.000000
8.131600 0.000000
8.175200 0.000000
8.218800 0.000000
8.262400 0.000000
8.306000 0.000000
8.349600 0.000000
8.393200 0.000000
8.436800 0.000000
8.480400 0.000000
8.524000 0.000000
8.567600 0.000000
8.611200 0.000000
8.654800 0.000000
8.698300 0.000000
8.741900 0.000000
8.785500 0.000000
8.829100 0.000000
8.872700 0.000000
8.916300 0.000000
8.959900 0.000000
9.003500 0.000000
9.047100 0.000000
9.090700 0.000000
9.134300 0.000000
9.177900 0.000000
9.221500 0.000000
9.265100 0.000000
9.308600 0.000000
9.352200 0.000000
9.395800 0.000000
9.439400 0.000000
9.483000 0.000000
9.526600 0.000000
9.570200 0.000000
9.613800 0.000000
9.657400 0.000000
9.701000 0.000000
9.744600 0.000000
9.788200 0.000000
9.831800 0.000000
9.875300 0.000000
9.918900 0.000000
9.962500 0.000000
10.006100 0.000000
10.049700 0.000000
10.093300 0.000000
10.136900 0.000000
10.180500 0.000000
10.224100 0.000000
10.267700 0.000000
10.311300 0.000000
10.354900 0.000000
10.398500 0.000000
10.442000 0.000000
10.485600 0.000000
10.529200 0.000000
10.572800 0.000000
10.616400 0.000000
10.660000 0.000000
10.703600 0.000000
10.747200 0.000000
10.790800 0.000000
10.834400 0.000000
10.878000 0.000000
10.921600 0.000000
10.965200 0.000000
11.008800 0.000000
11.052300 0.000000
11.095900 0.000000
11.139500 0.000000
11.183100 0.000000
11.226700 0.000000
11.270300 0.000000
11.313900 0.000000
11.357500 0.000000
11.401100 0.000000
11.444700 0.000000
11.488300 0.000000
11.531900 0.000000
11.575500 0.000000
11.619000 0.000000
11.662600 0.000000
11.706200 0.000000
11.749800 0.000000
11.793400 0.000000
11.837000 0.000000
11.880600 0.000000
11.924200 0.000000
11.967800 0.000000
12.011400 0.000000
12.055000 0.000000
12.098600 0.000000
12.142200 0.000000
12.185700 0.000000
12.229300 0.000000
12.272900 0.000000
12.316500 0.000000
12.360100 0.000000
12.403700 0.000000
12.447300 0.000000
12.490900 0.000000
12.534500 0.000000
12.578100 0.000000
12.621700 0.000000
12.665300 0.000000
12.708900 0.000000
12.752500 0.000000
12.796000 0.000000
12.839600 0.000000
12.883200 0.000000
12.926800 0.000000
12.970400 0.000000
13.014000 0.000000
13.057600 0.000000
13.101200 0.000000
13.144800 0.000000
13.188400 0.000000
13.232000 0.000000
13.275600 0.000000
13.319200 0.000000
13.362700 0.000000
13.406300 0.000000
13.449900 0.000000
13.493500 0.000000
13.537100 0.000000
13.580700 0.000000
13.624300 0.000000
13.667900 0.000000
13.711500 0.000000
13.755100 0.000000
13.798700 0.000000
13.842300 0.000000
13.885900 0.000000
13.929400 0.000000
13.973000 0.000000
14.016600 0.000000
14.060200 0.000000
14.103800 0.000000
14.147400 0.000000
14.191000 0.000000
14.234600 0.000000
14.278200 0.000000
14.321800 0.000000
14.365400 0.000000
14.409000 0.000000
14.452600 0.000000
14.496200 0.000000
14.539700 0.000000
14.583300 0.000000
14.626900 0.000000
14.670500 0.000000
14.714100 0.000000
14.757700 0.000000
14.801300 0.000000
14.844900 0.000000
14.888500 0.000000
14.932100 0.000000
14.975700 0.000000
15.019300 0.000000
15.062900 0.000000
15.106400 0.000000
15.150000 0.000000
15.193600 0.000000
15.237200 0.017200
15.280800 0.024400
15.324400 0.032400
15.368000 0.041200
15.411600 0.042800
15.455200 0.047500
15.498800 0.052300
15.542400 0.057100
15.586000 0.062900
15.629600 0.069200
15.673100 0.073300
15.716700 0.076000
15.760300 0.078800
15.803900 0.081300
15.847500 0.084000
15.891100 0.087900
15.934700 0.091500
15.978300 0.095200
16.021900 0.098900
16.065500 0.102600
16.109100 0.106300
16.152700 0.110800
16.196300 0.114000
16.239900 0.117800
16.283400 0.121500
16.327000 0.125400
16.370600 0.129300
16.414200 0.132500
16.457800 0.135800
16.501400 0.139000
16.545000 0.143200
16.588600 0.147300
16.632200 0.151500
16.675800 0.156000
16.719400 0.160600
16.763000 0.164500
16.806600 0.168500
16.850100 0.173000
16.893700 0.178000
16.937300 0.183300
16.980900 0.188600
17.024500 0.194000
17.068100 0.199400
17.111700 0.205200
17.155300 0.211400
17.198900 0.221100
17.242500 0.230000
17.286100 0.239500
17.329700 0.249700
17.373300 0.260500
17.416800 0.278400
17.460400 0.377400
17.504000 0.538700
17.547600 0.556300
17.591200 0.558800
17.634800 0.535100
17.678400 0.523600
17.722000 0.512000
17.765600 0.506100
17.809200 0.504700
17.852800 0.503900
17.896400 0.503400
17.940000 0.501900
17.983600 0.503500
18.027100 0.505500
18.070700 0.575500
18.114300 0.662400
18.157900 0.647000
18.201500 0.696300
18.245100 0.742200
18.288700 0.807900
18.332300 0.882100
18.375900 0.967400
18.419500 1.190000
18.463100 1.556300
18.506700 4.078500
18.550300 1.572300
18.593800 1.353600
18.637400 1.187300
18.681000 1.078000
18.724600 1.005600
18.768200 0.941700
18.811800 0.891100
18.855400 0.851500
18.899000 0.813600
18.942600 0.808300
18.986200 0.787500
19.029800 0.749100
19.073400 0.754900
19.117000 0.745100
19.160600 0.730200
19.204100 0.698000
19.247700 0.679100
19.291300 0.657800
19.334900 0.636700
19.378500 0.618800
19.422100 0.597300
19.465700 0.571900
19.509300 0.586200
19.552900 0.525900
19.596500 0.489500
19.640100 0.505100
19.683700 0.546500
19.727300 0.538000
19.770800 0.548300
19.814400 0.561100
19.858000 0.593900
19.901600 0.670400
19.945200 0.779500
19.988800 1.033000
20.032400 1.414000
20.076000 1.621700
20.119600 1.504900
20.163200 1.907100
20.206800 2.118400
20.250400 1.583800
20.294000 1.120000
20.337500 0.910500
20.381100 0.754800
20.424700 0.663300
20.468300 0.598100
20.511900 0.583900
20.555500 0.575400
20.599100 0.559000
20.642700 0.543400
20.686300 0.533100
20.729900 0.527400
20.773500 0.612700
20.817100 0.687900
20.860700 0.735000
20.904300 0.768000
20.947800 0.799500
20.991400 0.817500
21.035000 0.820100
21.078600 0.842100
21.122200 0.871200
21.165800 0.908300
21.209400 1.002500
21.253000 1.082200
21.296600 1.125000
21.340200 1.174600
21.383800 1.221600
21.427400 1.262900
21.471000 1.317000
21.514500 1.365600
21.558100 1.491100
21.601700 1.668500
21.645300 1.674400
21.688900 1.721800
21.732500 1.779500
21.776100 1.858700
21.819700 1.926600
21.863300 2.004700
21.906900 1.907200
21.950500 1.910800
21.994100 1.886900
22.037700 1.879200
22.081200 1.888100
22.124800 1.893600
22.168400 1.870300
22.212000 1.844800
22.255600 1.824900
22.299200 1.808400
22.342800 1.709300
22.386400 1.618600
22.430000 1.551600
22.473600 1.526500
22.517200 1.479200
22.560800 1.425700
22.604400 1.326500
22.648000 1.274500
22.691500 1.272400
22.735100 1.276300
22.778700 1.231500
22.822300 1.221200
22.865900 1.221300
22.909500 1.225300
22.953100 1.144400
22.996700 1.222600
23.040300 1.214500
23.083900 1.152600
23.127500 1.229800
23.171100 1.300000
23.214700 1.389500
23.258200 1.409200
23.301800 1.365000
23.345400 1.476400
23.389000 1.680700
23.432600 1.588600
23.476200 1.579500
23.519800 1.541200
23.563400 1.443500
23.607000 1.347800
23.650600 1.342300
23.694200 1.336000
23.737800 1.343800
23.781400 1.358700
23.824900 1.376300
23.868500 1.389100
23.912100 1.432600
23.955700 1.520600
23.999300 1.482200
24.042900 1.574400
24.086500 1.623600
24.130100 1.569300
24.173700 1.535300
24.217300 1.524700
24.260900 1.495100
24.304500 1.438700
24.348100 1.372500
24.391700 1.344200
24.435200 1.304400
24.478800 1.274500
24.522400 1.242900
24.566000 1.264500
24.609600 1.280300
24.653200 1.134500
24.696800 1.033900
24.740400 0.978900
24.784000 0.948200
24.827600 0.913500
24.871200 0.891400
24.914800 0.897200
24.958400 0.901400
25.001900 0.939800
25.045500 0.983600
25.089100 1.025500
25.132700 1.132600
25.176300 1.215500
25.219900 1.316100
25.263500 1.399900
25.307100 1.402300
25.350700 1.336600
25.394300 1.319800
25.437900 1.343100
25.481500 1.396400
25.525100 1.439300
25.568600 1.553500
25.612200 1.612300
25.655800 1.615900
25.699400 1.457800
25.743000 1.331000
25.786600 1.262900
25.830200 1.200900
25.873800 1.130200
25.917400 1.093400
25.961000 1.086400
26.004600 1.075400
26.048200 1.018900
26.091800 1.002400
26.135400 1.036100
26.178900 1.046700
26.222500 1.029100
26.266100 1.061100
26.309700 1.075500
26.353300 1.035100
26.396900 1.103700
26.440500 1.234000
26.484100 1.445900
26.527700 1.520200
26.571300 1.468200
26.614900 1.399600
26.658500 1.277100
26.702100 1.256500
26.745600 1.243000
26.789200 1.290400
26.832800 1.349400
26.876400 1.433300
26.920000 1.578100
26.963600 1.745700
27.007200 2.300400
27.050800 2.302400
27.094400 2.400000
27.138000 2.204700
27.181600 2.085300
27.225200 1.971900
27.268800 2.018000
27.312400 1.933600
27.355900 1.868800
27.399500 1.930800
27.443100 1.981500
27.486700 2.237000
27.530300 2.176200
27.573900 2.248500
27.617500 2.219100
27.661100 2.188800
27.704700 2.450000
27.748300 2.851900
27.791900 2.642100
27.835500 2.399900
27.879100 2.268300
27.922600 2.339500
27.966200 2.191900
28.009800 2.122200
28.053400 2.122100
28.097000 2.179000
28.140600 2.374100
28.184200 2.239600
28.227800 2.055500
28.271400 1.948000
28.315000 1.841400
28.358600 1.751600
28.402200 1.690200
28.445800 1.583500
28.489300 1.523700
28.532900 1.504700
28.576500 1.488700
28.620100 1.501000
28.663700 1.529300
28.707300 1.515300
28.750900 1.523700
28.794500 1.646900
28.838100 1.557800
28.881700 1.661000
28.925300 1.513400
28.968900 1.354100
29.012500 1.259000
29.056100 1.297500
29.099600 1.163900
29.143200 1.120100
29.186800 1.035600
29.230400 1.003800
29.274000 0.985800
29.317600 0.966500
29.361200 0.978300
29.404800 0.951800
29.448400 0.916800
29.492000 0.893800
29.535600 0.870400
29.579200 0.853500
29.622800 0.829700
29.666300 0.822000
29.709900 0.726000
29.753500 0.696900
29.797100 0.657100
29.840700 0.690400
29.884300 0.797200
29.927900 0.853800
29.971500 0.746000
30.015100 0.776500
30.058700 0.850600
30.102300 0.899000
30.145900 0.984900
30.189500 1.057500
30.233000 0.933000
30.276600 0.968800
30.320200 1.019900
30.363800 1.091100
30.407400 1.125700
30.451000 1.127100
30.494600 1.083000
30.538200 1.098900
30.581800 1.164100
30.625400 1.189700
30.669000 1.221100
30.712600 1.250600
30.756200 1.269000
30.799800 1.298900
30.843300 1.314800
30.886900 1.424900
30.930500 1.562100
30.974100 1.535600
31.017700 1.407500
31.061300 1.377600
31.104900 1.337500
31.148500 1.337000
31.192100 1.351600
31.235700 1.367700
31.279300 1.407400
31.322900 1.484800
31.366500 1.545600
31.410000 1.625200
31.453600 1.677600
31.497200 1.733500
31.540800 1.822700
31.584400 1.922300
31.628000 2.223000
31.671600 2.410800
31.715200 2.209000
31.758800 1.841600
31.802400 1.730200
31.846000 1.636300
31.889600 1.529300
31.933200 1.454700
31.976700 1.406200
32.020300 1.362900
32.063900 1.382500
32.107500 1.500500
32.151100 1.442600
32.194700 1.306500
32.238300 1.223300
32.281900 1.130700
32.325500 0.974200
32.369100 0.927900
32.412700 0.953600
32.456300 0.918800
32.499900 0.903900
32.543500 0.900200
32.587000 0.917400
32.630600 0.911700
32.674200 0.930700
32.717800 0.937600
32.761400 0.940800
32.805000 0.887800
32.848600 0.875900
32.892200 0.919100
32.935800 0.993900
32.979400 1.021900
33.023000 0.980000
33.066600 0.948400
33.110200 0.917600
33.153700 0.897500
33.197300 0.875800
33.240900 0.850600
33.284500 0.841300
33.328100 0.844700
33.371700 0.860400
33.415300 0.871700
33.458900 0.857600
33.502500 0.842600
33.546100 0.843300
33.589700 0.843700
33.633300 0.845100
33.676900 0.912900
33.720400 0.918700
33.764000 0.951600
33.807600 0.977700
33.851200 0.976600
33.894800 0.990600
33.938400 0.993100
33.982000 1.026600
34.025600 1.087800
34.069200 1.183300
34.112800 1.564500
34.156400 1.488200
34.200000 1.447800
34.243600 1.424000
34.287200 1.369500
34.330700 1.299100
34.374300 1.289800
34.417900 1.291400
34.461500 1.297100
34.505100 1.377100
34.548700 1.460600
34.592300 1.411500
34.635900 1.423400
34.679500 1.450200
34.723100 1.473300
34.766700 1.511900
34.810300 1.510100
34.853900 1.516200
34.897400 1.597400
34.941000 1.535400
34.984600 1.516900
35.028200 1.528700
35.071800 1.495400
35.115400 1.398900
35.159000 1.411400
35.202600 1.490300
35.246200 1.451100
35.289800 1.464000
35.333400 1.444800
35.377000 1.521700
35.420600 1.508600
35.464100 1.559900
35.507700 1.621100
35.551300 1.695900
35.594900 1.725000
35.638500 1.819500
35.682100 1.935100
35.725700 2.006000
35.769300 2.028100
35.812900 2.113500
35.856500 2.368800
35.900100 2.470700
35.943700 2.497600
35.987300 2.515700
36.030900 2.008500
36.074400 1.847300
36.118000 1.848700
36.161600 1.877200
36.205200 1.916600
36.248800 1.888800
36.292400 1.932200
36.336000 1.785500
36.379600 1.643900
36.423200 1.546400
36.466800 1.474100
36.510400 1.395700
36.554000 1.343800
36.597600 1.317700
36.641100 1.332000
36.684700 1.357300
36.728300 1.485900
36.771900 1.602100
36.815500 1.427200
36.859100 1.330800
36.902700 1.261600
36.946300 1.167200
36.989900 1.117400
37.033500 1.079700
37.077100 1.018700
37.120700 1.079000
37.164300 1.095300
37.207900 1.138600
37.251400 1.157600
37.295000 1.184400
37.338600 1.168600
37.382200 1.121000
37.425800 1.025600
37.469400 1.003400
37.513000 1.069100
37.556600 1.114800
37.600200 1.081700
37.643800 1.074700
37.687400 1.096700
37.731000 1.141600
37.774600 1.301500
37.818100 1.231400
37.861700 1.241700
37.905300 1.271200
37.948900 1.301300
37.992500 1.412900
38.036100 1.492300
38.079700 1.558100
38.123300 1.607100
38.166900 1.653300
38.210500 1.666500
38.254100 1.703600
38.297700 1.859200
38.341300 2.027800
38.384800 1.849600
38.428400 1.596800
38.472000 1.530600
38.515600 1.669500
38.559200 1.876200
38.602800 2.050700
38.646400 2.155300
38.690000 2.184600
38.733600 2.284400
38.777200 2.733500
38.820800 3.144900
38.864400 3.309600
38.908000 3.356500
38.951600 3.227500
38.995100 3.121300
39.038700 3.223300
39.082300 3.098200
39.125900 3.184700
39.169500 2.722900
39.213100 2.718900
39.256700 2.597800
39.300300 2.591200
39.343900 3.032900
39.387500 2.614200
39.431100 2.462200
39.474700 2.289500
39.518300 2.207000
39.561800 2.285700
39.605400 2.175500
39.649000 2.211500
39.692600 2.315200
39.736200 2.234400
39.779800 2.181600
39.823400 2.128900
39.867000 1.994000
39.910600 1.909700
39.954200 1.741700
39.997800 1.577000
40.041400 1.524700
40.085000 1.434300
40.128500 1.332200
40.172100 1.244400
40.215700 1.175100
40.259300 1.135100
40.302900 1.827800
40.346500 1.142900
40.390100 1.163500
40.433700 1.175100
40.477300 1.213600
40.520900 1.311000
40.564500 2.260300
40.608100 1.682200
40.651700 1.406000
40.695300 1.394100
40.738800 1.368900
40.782400 1.345700
40.826000 1.320600
40.869600 1.320900
40.913200 1.280600
40.956800 1.256300
41.000400 1.157300
41.044000 1.166900
41.087600 1.152900
41.131200 1.140900
41.174800 1.141500
41.218400 1.187300
41.262000 1.275200
41.305500 1.294400
41.349100 1.394800
41.392700 1.451800
41.436300 1.509700
41.479900 1.596900
41.523500 1.606200
41.567100 1.652300
41.610700 1.623600
41.654300 1.638200
41.697900 1.725200
41.741500 1.756200
41.785100 1.904900
41.828700 1.766100
41.872200 1.584600
41.915800 1.534700
41.959400 1.515700
42.003000 1.607900
42.046600 1.640000
42.090200 1.672500
42.133800 1.697800
42.177400 1.679300
42.221000 1.747900
42.264600 1.681200
42.308200 1.601100
42.351800 1.543200
42.395400 1.497300
42.439000 1.439300
42.482500 1.404100
42.526100 1.383600
42.569700 1.360100
42.613300 1.293400
42.656900 1.349100
42.700500 1.341400
42.744100 1.316300
42.787700 1.392100
42.831300 1.338900
42.874900 1.342500
42.918500 1.334800
42.962100 1.370900
43.005700 1.433100
43.049200 1.466200
43.092800 1.467200
43.136400 1.491400
43.180000 1.477900
43.223600 1.487200
43.267200 1.490100
43.310800 1.539700
43.354400 1.580800
43.398000 1.531200
43.441600 1.572600
43.485200 1.423600
43.528800 1.398500
43.572400 1.355700
43.615900 1.350200
43.659500 1.338700
43.703100 1.357800
43.746700 1.382000
43.790300 1.408500
43.833900 1.472800
43.877500 1.539800
43.921100 1.469500
43.964700 1.530300
44.008300 1.548700
44.051900 4.884200
44.095500 1.640600
44.139100 1.608800
44.182700 1.612100
44.226200 1.463900
44.269800 1.441100
44.313400 1.559800
44.357000 1.868100
44.400600 1.661600
44.444200 1.699000
44.487800 1.770800
44.531400 1.892500
44.575000 2.109300
44.618600 2.298000
44.662200 2.412000
44.705800 2.486800
44.749400 2.367500
44.792900 2.242600
44.836500 2.417800
44.880100 2.465500
44.923700 2.330700
44.967300 2.355800
45.010900 2.370200
45.054500 2.505600
45.098100 2.751400
45.141700 2.852700
45.185300 2.916900
45.228900 3.009400
45.272500 2.910600
45.316100 2.726000
45.359600 2.644800
45.403200 2.577800
45.446800 2.642500
45.490400 2.520200
45.534000 2.191600
45.577600 2.200900
45.621200 2.297600
45.664800 2.138300
45.708400 2.159900
45.752000 2.190800
45.795600 2.227500
45.839200 2.385600
45.882800 2.353200
45.926400 2.174700
45.969900 2.015800
46.013500 1.900400
46.057100 1.751100
46.100700 1.621200
46.144300 1.570300
46.187900 1.642300
46.231500 1.694600
46.275100 1.640000
46.318700 1.627000
46.362300 1.616200
46.405900 1.639400
46.449500 1.739700
46.493100 1.672500
46.536600 1.738900
46.580200 1.771000
46.623800 1.785300
46.667400 1.808800
46.711000 1.856500
46.754600 1.913700
46.798200 1.726000
46.841800 1.661200
46.885400 1.599900
46.929000 1.549600
46.972600 1.502900
47.016200 1.533000
47.059800 1.571700
47.103400 1.662800
47.146900 1.678600
47.190500 1.875300
47.234100 2.137300
47.277700 1.849100
47.321300 1.720100
47.364900 1.623700
47.408500 1.542400
47.452100 1.530300
47.495700 1.529200
47.539300 1.527800
47.582900 1.541700
47.626500 1.537700
47.670100 1.522400
47.713600 1.512700
47.757200 1.519700
47.800800 1.524300
47.844400 1.528000
47.888000 1.537600
47.931600 1.740100
47.975200 1.607800
48.018800 1.563300
48.062400 1.605200
48.106000 1.579300
48.149600 1.646300
48.193200 1.656300
48.236800 1.656200
48.280300 1.628800
48.323900 1.644300
48.367500 1.654800
48.411100 1.619900
48.454700 1.608800
48.498300 1.598000
48.541900 1.596500
48.585500 1.596000
48.629100 1.562800
48.672700 1.526300
48.716300 1.504700
48.759900 1.453400
48.803500 1.431500
48.847100 1.441000
48.890600 1.396600
48.934200 1.371400
48.977800 1.365700
49.021400 1.331400
49.065000 1.288400
49.108600 1.272200
49.152200 1.466500
49.195800 1.368900
49.239400 1.370000
49.283000 1.411700
49.326600 1.416400
49.370200 1.376000
49.413800 1.397000
49.457300 1.475800
49.500900 1.592300
49.544500 1.617700
49.588100 1.633500
49.631700 1.711100
49.675300 1.864000
49.718900 1.961000
49.762500 1.858000
49.806100 1.777000
49.849700 1.644700
49.893300 1.708900
49.936900 1.686100
49.980500 1.661300
50.024000 1.668700
50.067600 1.796600
50.111200 1.921500
50.154800 1.935400
50.198400 1.900100
50.242000 2.029600
50.285600 2.139100
50.329200 2.141100
50.372800 2.091500
50.416400 2.039200
50.460000 1.995400
50.503600 1.955900
50.547200 1.833700
50.590800 1.777700
50.634300 1.762300
50.677900 1.825200
50.721500 1.872000
50.765100 1.915500
50.808700 1.987500
50.852300 2.272300
50.895900 2.151500
50.939500 2.156400
50.983100 2.162700
51.026700 2.217200
51.070300 1.824700
51.113900 1.855800
51.157500 1.807300
51.201000 1.781700
51.244600 1.741500
51.288200 1.795700
51.331800 1.781300
51.375400 1.751600
51.419000 1.692700
51.462600 1.666200
51.506200 1.668800
51.549800 1.619400
51.593400 1.614900
51.637000 1.663900
51.680600 1.569400
51.724200 1.590300
51.767700 1.620800
51.811300 1.580400
51.854900 1.548700
51.898500 1.449000
51.942100 1.387000
51.985700 1.431800
52.029300 1.500200
52.072900 1.620200
52.116500 1.707200
52.160100 1.807300
52.203700 1.875700
52.247300 1.987600
52.290900 2.025300
52.334500 1.958600
52.378000 1.995700
52.421600 1.827400
52.465200 1.698100
52.508800 1.568700
52.552400 1.501700
52.596000 1.435000
52.639600 1.434300
52.683200 1.583900
52.726800 1.661100
52.770400 1.708800
52.814000 1.808400
52.857600 2.120900
52.901200 2.028500
52.944700 1.993900
52.988300 1.857300
53.031900 1.765900
53.075500 1.795200
53.119100 1.872600
53.162700 1.940800
53.206300 1.888100
53.249900 1.940700
53.293500 1.826800
53.337100 1.844100
53.380700 1.793100
53.424300 1.758200
53.467900 1.734800
53.511400 1.700600
53.555000 1.653900
53.598600 1.635400
53.642200 1.649100
53.685800 1.531600
53.729400 1.475400
53.773000 1.415700
53.816600 1.374600
53.860200 1.376800
53.903800 1.269300
53.947400 1.226800
53.991000 1.246900
54.034600 1.320000
54.078200 1.317100
54.121700 1.245300
54.165300 1.263300
54.208900 1.296700
54.252500 1.370800
54.296100 1.498300
54.339700 1.504900
54.383300 1.511400
54.426900 1.424200
54.470500 1.379800
54.514100 1.358100
54.557700 1.355200
54.601300 1.362900
54.644900 1.387000
54.688400 1.415600
54.732000 1.434900
54.775600 1.440300
54.819200 1.449300
54.862800 1.490600
54.906400 1.533400
54.950000 1.611300
54.993600 1.746000
55.037200 1.667100
55.080800 1.735000
55.124400 1.817300
55.168000 1.865800
55.211600 1.842900
55.255100 1.804400
55.298700 1.724100
55.342300 1.693300
55.385900 1.577600
55.429500 1.557600
55.473100 1.573900
55.516700 1.583700
55.560300 1.509900
55.603900 1.471200
55.647500 1.422500
55.691100 1.400500
55.734700 1.427600
55.778300 1.519900
55.821900 1.585800
55.865400 1.647200
55.909000 1.650200
55.952600 1.612400
55.996200 1.613500
56.039800 1.574900
56.083400 1.537000
56.127000 1.562200
56.170600 1.613900
56.214200 1.634800
56.257800 1.687600
56.301400 1.752700
56.345000 1.820700
56.388600 1.687600
56.432100 1.642900
56.475700 1.665600
56.519300 1.564800
56.562900 1.515600
56.606500 1.510400
56.650100 1.511200
56.693700 1.531800
56.737300 1.579900
56.780900 1.607100
56.824500 1.604500
56.868100 1.688800
56.911700 1.545500
56.955300 1.641500
56.998900 1.670800
57.042400 1.777500
57.086000 1.791000
57.129600 1.772400
57.173200 1.749600
57.216800 1.659700
57.260400 1.633600
57.304000 1.716900
57.347600 1.691700
57.391200 1.768100
57.434800 1.826200
57.478400 1.888200
57.522000 1.879500
57.565600 1.941600
57.609100 1.990800
57.652700 2.014400
57.696300 1.988300
57.739900 1.842800
57.783500 1.745600
57.827100 1.640100
57.870700 1.605700
57.914300 1.607900
57.957900 1.704100
58.001500 1.753000
58.045100 1.651000
58.088700 1.483900
58.132300 1.410500
58.175800 1.346500
58.219400 1.314800
58.263000 1.288400
58.306600 1.239000
58.350200 1.213100
58.393800 1.213800
58.437400 1.236900
58.481000 1.228300
58.524600 1.236300
58.568200 1.262600
58.611800 1.298600
58.655400 1.345000
58.699000 1.402900
58.742600 1.516400
58.786100 1.425400
58.829700 1.234300
58.873300 1.171300
58.916900 1.135500
58.960500 1.202000
59.004100 1.144900
59.047700 1.174600
59.091300 1.251000
59.134900 1.301700
59.178500 1.381100
59.222100 1.312800
59.265700 1.247600
59.309300 1.192900
59.352800 1.179900
59.396400 1.124100
59.440000 1.071400
59.483600 0.967100
59.527200 0.870100
59.570800 0.787200
59.614400 0.770300
59.658000 0.779800
59.701600 0.750300
59.745200 0.717900
59.788800 0.672100
59.832400 0.524800
59.876000 0.464200
59.919500 0.410300
59.963100 0.356100
60.006700 0.337800
60.050300 0.317800
60.093900 0.238400
60.137500 0.199100
60.181100 0.162400
60.224700 0.124400
60.268300 0.094500
60.311900 0.042400
60.355500 0.021700
60.399100 0.000000
60.442700 0.000000
60.486300 0.000000
60.529800 0.000000
60.573400 0.000000
60.617000 0.000000
60.660600 0.000000
60.704200 0.000000
60.747800 0.000000
60.791400 0.000000
60.835000 0.000000
60.878600 0.000000
60.922200 0.000000
60.965800 0.000000
61.009400 0.000000
61.053000 0.000000
61.096500 0.000000
61.140100 0.000000
61.183700 0.000000
61.227300 0.000000
61.270900 0.000000
61.314500 0.000000
61.358100 0.000000
61.401700 0.000000
61.445300 0.000000
61.488900 0.000000
61.532500 0.000000
61.576100 0.000000
61.619700 0.000000
61.663200 0.000000
61.706800 0.000000
61.750400 0.000000
61.794000 0.000000
61.837600 0.000000
61.881200 0.000000
61.924800 0.000000
61.968400 0.000000
62.012000 0.000000
62.055600 0.000000
62.099200 0.000000
62.142800 0.000000
62.186400 0.000000
62.230000 0.000000
62.273500 0.000000
62.317100 0.000000
62.360700 0.000000
62.404300 0.000000
62.447900 0.000000
62.491500 0.000000
62.535100 0.000000
62.578700 0.000000
62.622300 0.000000
62.665900 0.000000
62.709500 0.000000
62.753100 0.000000
62.796700 0.000000
62.840200 0.000000
62.883800 0.000000
62.927400 0.000000
62.971000 0.000000
63.014600 0.000000
63.058200 0.000000
63.101800 0.000000
63.145400 0.000000
63.189000 0.000000
63.232600 0.000000
63.276200 0.000000
63.319800 0.000000
63.363400 0.000000
63.406900 0.000000
63.450500 0.000000
63.494100 0.000000
63.537700 0.000000
63.581300 0.000000
63.624900 0.000000
63.668500 0.000000
63.712100 0.000000
63.755700 0.000000
63.799300 0.000000
63.842900 0.000000
63.886500 0.000000
63.930100 0.000000
63.973700 0.000000
64.017200 0.000000
64.060800 0.000000
64.104400 0.000000
64.148000 0.000000
64.191600 0.000000
64.235200 0.000000
64.278800 0.000000
64.322400 0.000000
e
