set title 'mp-571520 - Density of States'
set xlabel 'Energy (eV)'
set ylabel 'DOS (states/eV)'
set grid
set xrange [-10:10]
set yrange [0:6.946]
set xzeroaxis lt -1
set terminal png size 800,600
set output 'mp-571520_dos_gnuplot.png'
plot '-' using 1:2 with lines title 'DOS'
-6.663400 0.000000
-6.652000 0.000000
-6.640600 0.000000
-6.629100 0.000000
-6.617700 0.000000
-6.606200 0.000000
-6.594800 0.000000
-6.583400 0.000000
-6.571900 0.000000
-6.560500 0.000000
-6.549100 0.000000
-6.537600 0.000000
-6.526200 0.000000
-6.514700 0.000000
-6.503300 0.000000
-6.491900 0.000000
-6.480400 0.000000
-6.469000 0.000000
-6.457600 0.000000
-6.446100 0.000000
-6.434700 0.000000
-6.423300 0.000000
-6.411800 0.000000
-6.400400 0.000000
-6.388900 0.000000
-6.377500 0.000000
-6.366100 0.000000
-6.354600 0.000000
-6.343200 0.000000
-6.331800 0.000000
-6.320300 0.000000
-6.308900 0.000000
-6.297400 0.000000
-6.286000 0.000000
-6.274600 0.000000
-6.263100 0.000000
-6.251700 0.000000
-6.240300 0.000000
-6.228800 0.000000
-6.217400 0.000000
-6.206000 0.000000
-6.194500 0.000000
-6.183100 0.000000
-6.171600 0.000000
-6.160200 0.000000
-6.148800 0.000000
-6.137300 0.000000
-6.125900 0.000000
-6.114500 0.000000
-6.103000 0.000000
-6.091600 0.000000
-6.080100 0.000000
-6.068700 0.000000
-6.057300 0.000000
-6.045800 0.000000
-6.034400 0.000000
-6.023000 0.000000
-6.011500 0.000000
-6.000100 0.000000
-5.988700 0.000000
-5.977200 0.000000
-5.965800 0.000000
-5.954300 0.000000
-5.942900 0.000000
-5.931500 0.000000
-5.920000 0.000000
-5.908600 0.000000
-5.897200 0.000000
-5.885700 0.000000
-5.874300 0.000000
-5.862800 0.000000
-5.851400 0.000000
-5.840000 0.000000
-5.828500 0.000000
-5.817100 0.000000
-5.805700 0.000000
-5.794200 0.000000
-5.782800 0.000000
-5.771400 0.000000
-5.759900 0.000000
-5.748500 0.000000
-5.737000 0.000000
-5.725600 0.000000
-5.714200 0.000000
-5.702700 0.000000
-5.691300 0.000000
-5.679900 0.000000
-5.668400 0.000000
-5.657000 0.000000
-5.645500 0.000000
-5.634100 0.000000
-5.622700 0.000100
-5.611200 0.014400
-5.599800 0.052900
-5.588400 0.115500
-5.576900 0.405900
-5.565500 0.224800
-5.554100 0.249500
-5.542600 0.279100
-5.531200 0.313500
-5.519700 0.349900
-5.508300 0.382500
-5.496900 0.404900
-5.485400 0.428900
-5.474000 0.451100
-5.462600 0.456200
-5.451100 0.466600
-5.439700 0.480500
-5.428200 0.497300
-5.416800 0.516700
-5.405400 0.538200
-5.393900 0.557400
-5.382500 0.577500
-5.371100 0.593600
-5.359600 0.610100
-5.348200 0.623200
-5.336800 0.633000
-5.325300 0.644000
-5.313900 0.658000
-5.302400 0.673200
-5.291000 0.686300
-5.279600 0.696900
-5.268100 0.709300
-5.256700 0.723400
-5.245300 0.736800
-5.233800 0.749200
-5.222400 0.761400
-5.210900 0.773000
-5.199500 0.784700
-5.188100 0.797300
-5.176600 0.810200
-5.165200 0.820400
-5.153800 0.832500
-5.142300 0.844400
-5.130900 0.855800
-5.119500 0.867300
-5.108000 0.878900
-5.096600 0.890800
-5.085100 0.902800
-5.073700 0.911900
-5.062300 0.922300
-5.050800 0.934000
-5.039400 0.945100
-5.028000 0.956200
-5.016500 0.967600
-5.005100 0.978900
-4.993600 0.990300
-4.982200 1.000800
-4.970800 1.011400
-4.959300 1.022400
-4.947900 1.033400
-4.936500 1.042400
-4.925000 1.050900
-4.913600 1.059600
-4.902200 1.069300
-4.890700 1.080200
-4.879300 1.092700
-4.867800 1.105300
-4.856400 1.118000
-4.845000 1.130700
-4.833500 1.143400
-4.822100 1.156100
-4.810700 1.168800
-4.799200 1.181000
-4.787800 1.191800
-4.776300 1.202100
-4.764900 1.213200
-4.753500 1.224200
-4.742000 1.235800
-4.730600 1.248400
-4.719200 1.261400
-4.707700 1.275200
-4.696300 1.289700
-4.684900 1.305100
-4.673400 1.320400
-4.662000 1.334800
-4.650500 1.348900
-4.639100 1.364000
-4.627700 1.379500
-4.616200 1.395400
-4.604800 1.411800
-4.593400 1.429200
-4.581900 1.447600
-4.570500 1.470300
-4.559000 1.500600
-4.547600 1.537300
-4.536200 1.575100
-4.524700 1.613700
-4.513300 1.655000
-4.501900 1.700000
-4.490400 1.752700
-4.479000 1.789600
-4.467600 1.806300
-4.456100 1.834800
-4.444700 1.852900
-4.433200 1.861800
-4.421800 1.869600
-4.410400 1.880300
-4.398900 1.885200
-4.387500 1.889500
-4.376100 1.894500
-4.364600 1.892800
-4.353200 1.889000
-4.341700 1.868100
-4.330300 1.864900
-4.318900 1.875900
-4.307400 1.881800
-4.296000 1.884600
-4.284600 1.889900
-4.273100 1.878000
-4.261700 1.865000
-4.250300 1.855400
-4.238800 1.842900
-4.227400 1.824700
-4.215900 1.800900
-4.204500 1.775100
-4.193100 1.739400
-4.181600 1.702900
-4.170200 1.673600
-4.158800 1.651600
-4.147300 1.635700
-4.135900 1.619300
-4.124400 1.609000
-4.113000 1.530000
-4.101600 1.419500
-4.090100 1.334500
-4.078700 1.253900
-4.067300 1.176900
-4.055800 1.116000
-4.044400 1.050000
-4.033000 0.984000
-4.021500 0.947800
-4.010100 0.916000
-3.998600 0.885200
-3.987200 0.848400
-3.975800 0.815100
-3.964300 0.776800
-3.952900 0.753900
-3.941500 0.739500
-3.930000 0.719000
-3.918600 0.709400
-3.907100 0.708500
-3.895700 0.709800
-3.884300 0.711700
-3.872800 0.714900
-3.861400 0.725000
-3.850000 0.736600
-3.838500 0.730100
-3.827100 0.744800
-3.815700 0.763100
-3.804200 0.787300
-3.792800 0.818000
-3.781300 0.871800
-3.769900 0.916000
-3.758500 0.922900
-3.747000 0.938300
-3.735600 0.950800
-3.724200 0.963800
-3.712700 0.973100
-3.701300 0.984500
-3.689800 0.996800
-3.678400 1.011200
-3.667000 1.028700
-3.655500 1.105000
-3.644100 1.207700
-3.632700 1.278100
-3.621200 1.351900
-3.609800 1.436800
-3.598400 1.560900
-3.586900 1.672700
-3.575500 1.825900
-3.564000 2.021000
-3.552600 2.179900
-3.541200 2.330700
-3.529700 2.584400
-3.518300 2.665500
-3.506900 2.665400
-3.495400 2.616500
-3.484000 2.558900
-3.472500 2.533200
-3.461100 2.605000
-3.449700 2.463100
-3.438200 2.356600
-3.426800 2.293600
-3.415400 2.243600
-3.403900 2.209700
-3.392500 2.176600
-3.381000 2.144200
-3.369600 2.120300
-3.358200 2.114100
-3.346700 2.114000
-3.335300 2.107000
-3.323900 2.094200
-3.312400 2.081000
-3.301000 2.065700
-3.289600 2.057200
-3.278100 2.050600
-3.266700 2.044800
-3.255200 2.038500
-3.243800 2.043800
-3.232400 2.063800
-3.220900 2.080800
-3.209500 2.116900
-3.198100 1.951600
-3.186600 1.762300
-3.175200 1.687000
-3.163700 1.659800
-3.152300 1.637200
-3.140900 1.612500
-3.129400 1.590000
-3.118000 1.570800
-3.106600 1.556900
-3.095100 1.546000
-3.083700 1.537900
-3.072300 1.529800
-3.060800 1.525700
-3.049400 1.527200
-3.037900 1.534400
-3.026500 1.549100
-3.015100 1.570600
-3.003600 1.590900
-2.992200 1.611200
-2.980800 1.629300
-2.969300 1.696800
-2.957900 1.703400
-2.946400 1.739500
-2.935000 1.757100
-2.923600 1.759800
-2.912100 1.761500
-2.900700 1.769400
-2.889300 1.780000
-2.877800 1.794200
-2.866400 1.816400
-2.855000 1.833800
-2.843500 1.851000
-2.832100 1.887500
-2.820600 1.903900
-2.809200 1.921800
-2.797800 1.943300
-2.786300 1.968100
-2.774900 1.993400
-2.763500 2.013800
-2.752000 2.034000
-2.740600 2.053900
-2.729100 2.069900
-2.717700 2.093300
-2.706300 2.137000
-2.694800 2.161400
-2.683400 2.192000
-2.672000 2.239400
-2.660500 2.274100
-2.649100 2.308400
-2.637700 2.342400
-2.626200 2.370100
-2.614800 2.386500
-2.603300 2.399000
-2.591900 2.416300
-2.580500 2.433300
-2.569000 2.456400
-2.557600 2.470200
-2.546200 2.459200
-2.534700 2.461200
-2.523300 2.466900
-2.511800 2.479200
-2.500400 2.494400
-2.489000 2.511400
-2.477500 2.562700
-2.466100 2.573400
-2.454700 2.473700
-2.443200 2.417400
-2.431800 2.370000
-2.420400 2.342500
-2.408900 2.330600
-2.397500 2.322400
-2.386000 2.318700
-2.374600 2.320100
-2.363200 2.325200
-2.351700 2.334600
-2.340300 2.348800
-2.328900 2.382600
-2.317400 2.414400
-2.306000 2.436500
-2.294500 2.459000
-2.283100 2.474300
-2.271700 2.497200
-2.260200 2.517800
-2.248800 2.535800
-2.237400 2.544100
-2.225900 2.542300
-2.214500 2.545500
-2.203100 2.548400
-2.191600 2.557800
-2.180200 2.531800
-2.168700 2.528800
-2.157300 2.532800
-2.145900 2.536700
-2.134400 2.542600
-2.123000 2.554700
-2.111600 2.574800
-2.100100 2.602500
-2.088700 2.634400
-2.077200 2.657500
-2.065800 2.674400
-2.054400 2.707800
-2.042900 2.731200
-2.031500 2.729500
-2.020100 2.720200
-2.008600 2.717900
-1.997200 2.715900
-1.985800 2.705900
-1.974300 2.685100
-1.962900 2.663800
-1.951400 2.649600
-1.940000 2.631600
-1.928600 2.610500
-1.917100 2.575100
-1.905700 2.559300
-1.894300 2.564300
-1.882800 2.520200
-1.871400 2.527200
-1.859900 2.582600
-1.848500 2.591800
-1.837100 2.585200
-1.825600 2.583900
-1.814200 2.589700
-1.802800 2.599100
-1.791300 2.621200
-1.779900 2.659900
-1.768500 2.717000
-1.757000 2.788100
-1.745600 2.878100
-1.734100 2.980000
-1.722700 3.093600
-1.711300 3.262600
-1.699800 3.503300
-1.688400 3.809000
-1.677000 3.979800
-1.665500 4.073100
-1.654100 4.092700
-1.642600 4.030600
-1.631200 4.046100
-1.619800 4.055500
-1.608300 4.052000
-1.596900 3.983500
-1.585500 3.914800
-1.574000 3.869000
-1.562600 3.826900
-1.551200 3.785100
-1.539700 3.734500
-1.528300 3.669200
-1.516800 3.609700
-1.505400 3.570300
-1.494000 3.535100
-1.482500 3.521100
-1.471100 3.500800
-1.459700 3.457600
-1.448200 3.404500
-1.436800 3.341600
-1.425300 3.270100
-1.413900 3.184000
-1.402500 3.068400
-1.391000 2.921200
-1.379600 2.829700
-1.368200 2.611800
-1.356700 2.294100
-1.345300 2.178800
-1.333900 2.091100
-1.322400 2.008500
-1.311000 1.935600
-1.299500 1.867100
-1.288100 1.804700
-1.276700 1.744300
-1.265200 1.693900
-1.253800 1.645200
-1.242400 1.587500
-1.230900 1.538900
-1.219500 1.525600
-1.208000 1.506200
-1.196600 1.467400
-1.185200 1.466600
-1.173700 1.473800
-1.162300 1.465400
-1.150900 1.444400
-1.139400 1.428500
-1.128000 1.420800
-1.116600 1.431600
-1.105100 1.453800
-1.093700 1.465000
-1.082200 1.484500
-1.070800 1.516000
-1.059400 1.547600
-1.047900 1.569700
-1.036500 1.548900
-1.025100 1.519000
-1.013600 1.502700
-1.002200 1.490300
-0.990700 1.480100
-0.979300 1.453200
-0.967900 1.442900
-0.956400 1.462300
-0.945000 1.494500
-0.933600 1.530400
-0.922100 1.571800
-0.910700 1.559700
-0.899300 1.569000
-0.887800 1.600500
-0.876400 1.636500
-0.864900 1.665500
-0.853500 1.828100
-0.842100 1.697000
-0.830600 1.669400
-0.819200 1.681500
-0.807800 1.697400
-0.796300 1.715400
-0.784900 1.734200
-0.773400 1.748000
-0.762000 1.759700
-0.750600 1.779900
-0.739100 1.804200
-0.727700 1.831600
-0.716300 1.861100
-0.704800 1.891000
-0.693400 1.920600
-0.682000 1.949900
-0.670500 2.038600
-0.659100 2.102300
-0.647600 2.140700
-0.636200 2.110600
-0.624800 2.021300
-0.613300 1.971700
-0.601900 1.936500
-0.590500 1.894700
-0.579000 1.867100
-0.567600 1.851000
-0.556100 1.843500
-0.544700 1.826400
-0.533300 1.819600
-0.521800 1.807200
-0.510400 1.803200
-0.499000 1.802500
-0.487500 1.803300
-0.476100 1.804300
-0.464700 1.808800
-0.453200 1.826200
-0.441800 1.838500
-0.430300 1.850700
-0.418900 1.871900
-0.407500 1.897100
-0.396000 1.912900
-0.384600 1.915400
-0.373200 1.921400
-0.361700 1.934500
-0.350300 1.953800
-0.338800 1.963900
-0.327400 1.969400
-0.316000 1.945600
-0.304500 1.954700
-0.293100 1.964600
-0.281700 1.999500
-0.270200 1.992800
-0.258800 1.961800
-0.247400 1.886300
-0.235900 1.781900
-0.224500 1.703500
-0.213000 1.646200
-0.201600 1.607500
-0.190200 1.574700
-0.178700 1.545100
-0.167300 1.518400
-0.155900 1.495500
-0.144400 1.479100
-0.133000 1.470100
-0.121500 1.469300
-0.110100 1.497500
-0.098700 1.519100
-0.087200 1.542700
-0.075800 1.568600
-0.064400 1.597400
-0.052900 1.627600
-0.041500 1.660800
-0.030100 1.697900
-0.018600 1.738300
-0.007200 1.785000
0.004300 1.850000
0.015700 1.896900
0.027100 1.944700
0.038600 2.000100
0.050000 2.032300
0.061400 2.067500
0.072900 2.098400
0.084300 2.134300
0.095800 2.170000
0.107200 2.257700
0.118600 2.358200
0.130100 2.449100
0.141500 2.500900
0.152900 2.544900
0.164400 2.577500
0.175800 2.619700
0.187200 2.664100
0.198700 2.692800
0.210100 2.723400
0.221600 2.740600
0.233000 2.753600
0.244400 2.774100
0.255900 2.793500
0.267300 2.821500
0.278700 2.889400
0.290200 2.927900
0.301600 2.968500
0.313100 2.995900
0.324500 3.027100
0.335900 3.077700
0.347400 3.117900
0.358800 3.139800
0.370200 3.154200
0.381700 3.198600
0.393100 3.245000
0.404500 3.280400
0.416000 3.319200
0.427400 3.384500
0.438900 3.388700
0.450300 3.324200
0.461700 3.172000
0.473200 3.013100
0.484600 2.866900
0.496000 2.715000
0.507500 2.565800
0.518900 2.411000
0.530400 2.334700
0.541800 2.204100
0.553200 1.964700
0.564700 1.707400
0.576100 1.526800
0.587500 1.392000
0.599000 1.277300
0.610400 1.171100
0.621800 1.087800
0.633300 1.023000
0.644700 0.975500
0.656200 0.941000
0.667600 0.915300
0.679000 0.928500
0.690500 0.938300
0.701900 0.946800
0.713300 0.952100
0.724800 0.957500
0.736200 0.964300
0.747700 0.976300
0.759100 0.999100
0.770500 0.970500
0.782000 0.955600
0.793400 0.965800
0.804800 0.987000
0.816300 1.007200
0.827700 1.034900
0.839200 1.093900
0.850600 1.149800
0.862000 1.157200
0.873500 1.157000
0.884900 1.178800
0.896300 1.204300
0.907800 1.234200
0.919200 1.268700
0.930600 1.318000
0.942100 1.375800
0.953500 1.453800
0.965000 1.557400
0.976400 1.686900
0.987800 1.821000
0.999300 1.953200
1.010700 2.089300
1.022100 2.204000
1.033600 2.258800
1.045000 2.256300
1.056500 2.277000
1.067900 2.302100
1.079300 2.313100
1.090800 2.326700
1.102200 2.342500
1.113600 2.360200
1.125100 2.384900
1.136500 2.426300
1.147900 2.476300
1.159400 2.521900
1.170800 2.591400
1.182300 2.649100
1.193700 2.661400
1.205100 2.661100
1.216600 2.644700
1.228000 2.621400
1.239400 2.587700
1.250900 2.567800
1.262300 2.556800
1.273800 2.560800
1.285200 2.550800
1.296600 2.541000
1.308100 2.538400
1.319500 2.549600
1.330900 2.569200
1.342400 2.585200
1.353800 2.601000
1.365200 2.631300
1.376700 2.687500
1.388100 2.737700
1.399600 2.787000
1.411000 2.834000
1.422400 2.875200
1.433900 2.902800
1.445300 2.917400
1.456700 2.872000
1.468200 2.866600
1.479600 2.906200
1.491100 2.940200
1.502500 2.963200
1.513900 2.948100
1.525400 2.821300
1.536800 2.736800
1.548200 2.664100
1.559700 2.590100
1.571100 2.537700
1.582500 2.504800
1.594000 2.496400
1.605400 2.492200
1.616900 2.494300
1.628300 2.491800
1.639700 2.484300
1.651200 2.501700
1.662600 2.572300
1.674000 2.659800
1.685500 2.672100
1.696900 2.675200
1.708400 2.667300
1.719800 2.683000
1.731200 2.700100
1.742700 2.724700
1.754100 2.777800
1.765500 2.850500
1.777000 2.928300
1.788400 2.999600
1.799800 3.047300
1.811300 3.062800
1.822700 3.096700
1.834200 3.139900
1.845600 2.979900
1.857000 2.900800
1.868500 2.895900
1.879900 2.903100
1.891300 2.921000
1.902800 3.029200
1.914200 3.118300
1.925700 3.278700
1.937100 3.479300
1.948500 3.639100
1.960000 3.693400
1.971400 3.776800
1.982800 3.855900
1.994300 3.943300
2.005700 4.112300
2.017100 4.323900
2.028600 4.419100
2.040000 4.469200
2.051500 4.581100
2.062900 4.527100
2.074300 4.483000
2.085800 4.507400
2.097200 4.355500
2.108600 4.229100
2.120100 4.099700
2.131500 3.999400
2.143000 3.929600
2.154400 3.812600
2.165800 3.689000
2.177300 3.579800
2.188700 3.503300
2.200100 3.413200
2.211600 3.339900
2.223000 3.176800
2.234400 3.015500
2.245900 2.845700
2.257300 2.724100
2.268800 2.609400
2.280200 2.510600
2.291600 2.415100
2.303100 2.322900
2.314500 2.230100
2.325900 2.167600
2.337400 2.123800
2.348800 2.089600
2.360300 2.024900
2.371700 1.991600
2.383100 1.963000
2.394600 1.939000
2.406000 1.919100
2.417400 1.903700
2.428900 1.894000
2.440300 1.871800
2.451700 1.863500
2.463200 1.865500
2.474600 1.858300
2.486100 1.849700
2.497500 1.840600
2.508900 1.831600
2.520400 1.824500
2.531800 1.819300
2.543200 1.816700
2.554700 1.816500
2.566100 1.819400
2.577600 1.826700
2.589000 1.838000
2.600400 1.851600
2.611900 1.868900
2.623300 1.893600
2.634700 1.929700
2.646200 1.960200
2.657600 1.978000
2.669000 1.987600
2.680500 1.990000
2.691900 1.994900
2.703400 2.008300
2.714800 2.037000
2.726200 2.076400
2.737700 2.123100
2.749100 2.166700
2.760500 2.210700
2.772000 2.258700
2.783400 2.309900
2.794900 2.520700
2.806300 2.409000
2.817700 2.393900
2.829200 2.404500
2.840600 2.426100
2.852000 2.426800
2.863500 2.410500
2.874900 2.402800
2.886300 2.410100
2.897800 2.443400
2.909200 2.493400
2.920700 2.529200
2.932100 2.551800
2.943500 2.574600
2.955000 2.602700
2.966400 2.676100
2.977800 2.701500
2.989300 2.736600
3.000700 2.811900
3.012200 2.884400
3.023600 2.950300
3.035000 2.975500
3.046500 2.977700
3.057900 3.011000
3.069300 3.057100
3.080800 3.133500
3.092200 3.224000
3.103600 3.230800
3.115100 3.254100
3.126500 3.306200
3.138000 3.369900
3.149400 3.438600
3.160800 3.511800
3.172300 3.565200
3.183700 3.610000
3.195100 3.570500
3.206600 3.515600
3.218000 3.489000
3.229500 3.339200
3.240900 3.242400
3.252300 3.221900
3.263800 3.209000
3.275200 3.216600
3.286600 3.232700
3.298100 3.259500
3.309500 3.277500
3.320900 3.309800
3.332400 3.367900
3.343800 3.486100
3.355300 3.537100
3.366700 3.596000
3.378100 3.664300
3.389600 3.728100
3.401000 3.783900
3.412400 3.829900
3.423900 3.996200
3.435300 3.985800
3.446800 4.054100
3.458200 4.118600
3.469600 4.145800
3.481100 4.203100
3.492500 4.295300
3.503900 4.269300
3.515400 4.158800
3.526800 4.080600
3.538200 4.024600
3.549700 3.952000
3.561100 3.868200
3.572600 3.788900
3.584000 3.736300
3.595400 3.680500
3.606900 3.668600
3.618300 3.651200
3.629700 3.608400
3.641200 3.571100
3.652600 3.559300
3.664100 3.612000
3.675500 3.704200
3.686900 3.805300
3.698400 3.901600
3.709800 3.997000
3.721200 4.099600
3.732700 4.247800
3.744100 4.435900
3.755500 4.645000
3.767000 4.852200
3.778400 5.117000
3.789900 5.303000
3.801300 5.351800
3.812700 5.405700
3.824200 5.423000
3.835600 5.323200
3.847000 5.195300
3.858500 5.047200
3.869900 4.863800
3.881400 4.631000
3.892800 4.396600
3.904200 4.184400
3.915700 4.010100
3.927100 3.824700
3.938500 3.650600
3.950000 3.516600
3.961400 3.418500
3.972800 3.338800
3.984300 3.278400
3.995700 3.254400
4.007200 3.257000
4.018600 3.240000
4.030000 3.210200
4.041500 3.186100
4.052900 3.178600
4.064300 3.194000
4.075800 3.216400
4.087200 3.217600
4.098700 3.236800
4.110100 3.290700
4.121500 3.369300
4.133000 3.466900
4.144400 3.612000
4.155800 3.718700
4.167300 3.851700
4.178700 4.007400
4.190100 4.049100
4.201600 4.101100
4.213000 4.189500
4.224500 4.280700
4.235900 4.358600
4.247300 4.404000
4.258800 4.469400
4.270200 4.521200
4.281600 4.556900
4.293100 4.559200
4.304500 4.568500
4.316000 4.607800
4.327400 4.671400
4.338800 4.723900
4.350300 4.805600
4.361700 4.829600
4.373100 4.816100
4.384600 4.809300
4.396000 4.825200
4.407400 4.812200
4.418900 4.838200
4.430300 4.919200
4.441800 4.964200
4.453200 4.860300
4.464600 4.647300
4.476100 4.673000
4.487500 4.687000
4.498900 4.660000
4.510400 4.612500
4.521800 4.562000
4.533300 4.532800
4.544700 4.578400
4.556100 4.561300
4.567600 4.689700
4.579000 4.730900
4.590400 4.783200
4.601900 4.780400
4.613300 4.826200
4.624700 4.923700
4.636200 4.972300
4.647600 4.987600
4.659100 5.040500
4.670500 5.105000
4.681900 5.178100
4.693400 5.275200
4.704800 5.276500
4.716200 5.338000
4.727700 5.451900
4.739100 5.544400
4.750600 5.639000
4.762000 5.703100
4.773400 5.745500
4.784900 5.771400
4.796300 5.799400
4.807700 5.852000
4.819200 5.909600
4.830600 5.965900
4.842000 5.958500
4.853500 5.914800
4.864900 5.866300
4.876400 5.789100
4.887800 5.706100
4.899200 5.642400
4.910700 5.544600
4.922100 5.425100
4.933500 5.328900
4.945000 5.287400
4.956400 5.288100
4.967900 5.254800
4.979300 5.252500
4.990700 5.229400
5.002200 5.220100
5.013600 5.224500
5.025000 5.266900
5.036500 5.420000
5.047900 5.613000
5.059400 5.663200
5.070800 5.681100
5.082200 5.709900
5.093700 5.789500
5.105100 5.900400
5.116500 5.963900
5.128000 6.037200
5.139400 6.053400
5.150800 6.190500
5.162300 6.314500
5.173700 6.311200
5.185200 6.287800
5.196600 6.294500
5.208000 6.106000
5.219500 5.892300
5.230900 5.747000
5.242300 5.643100
5.253800 5.542700
5.265200 5.382800
5.276700 5.267000
5.288100 5.200000
5.299500 5.125200
5.311000 5.041900
5.322400 5.016100
5.333800 5.008700
5.345300 4.991200
5.356700 4.958100
5.368100 4.871300
5.379600 4.785100
5.391000 4.725000
5.402500 4.658900
5.413900 4.650700
5.425300 4.644100
5.436800 4.662200
5.448200 4.704900
5.459600 4.667600
5.471100 4.616500
5.482500 4.526100
5.494000 4.558700
5.505400 4.568900
5.516800 4.555900
5.528300 4.540400
5.539700 4.540000
5.551100 4.614400
5.562600 4.666000
5.574000 4.633600
5.585400 4.612800
5.596900 4.584200
5.608300 4.585400
5.619800 4.595200
5.631200 4.611000
5.642600 4.598600
5.654100 4.583600
5.665500 4.555500
5.676900 4.619200
5.688400 4.546200
5.699800 4.512800
5.711300 4.463000
5.722700 4.314000
5.734100 4.194900
5.745600 4.101300
5.757000 3.996400
5.768400 3.907900
5.779900 3.857800
5.791300 3.832400
5.802700 3.835100
5.814200 3.885900
5.825600 4.029200
5.837100 4.152400
5.848500 4.171000
5.859900 4.191300
5.871400 4.250700
5.882800 4.354600
5.894200 4.474500
5.905700 4.631100
5.917100 4.783400
5.928600 4.659200
5.940000 4.553200
5.951400 4.535200
5.962900 4.493500
5.974300 4.410900
5.985700 4.329600
5.997200 4.273800
6.008600 4.140700
6.020000 3.977100
6.031500 3.776400
6.042900 3.602900
6.054400 3.466600
6.065800 3.340400
6.077200 3.222700
6.088700 3.106800
6.100100 3.086700
6.111500 2.863300
6.123000 2.688700
6.134400 2.532500
6.145900 2.375700
6.157300 2.215300
6.168700 2.097500
6.180200 1.998100
6.191600 1.884600
6.203000 1.769000
6.214500 1.675100
6.225900 1.592600
6.237300 1.521500
6.248800 1.456400
6.260200 1.388800
6.271700 1.319800
6.283100 1.252400
6.294500 1.197600
6.306000 1.153100
6.317400 1.101000
6.328800 1.051500
6.340300 0.995000
6.351700 0.956300
6.363200 0.930400
6.374600 0.906800
6.386000 0.883500
6.397500 0.859800
6.408900 0.835600
6.420300 0.810600
6.431800 0.784900
6.443200 0.758500
6.454600 0.733000
6.466100 0.709200
6.477500 0.687800
6.489000 0.669400
6.500400 0.651500
6.511800 0.634000
6.523300 0.617100
6.534700 0.600700
6.546100 0.585100
6.557600 0.570600
6.569000 0.557700
6.580500 0.545900
6.591900 0.534600
6.603300 0.525500
6.614800 0.517900
6.626200 0.509600
6.637600 0.500400
6.649100 0.489600
6.660500 0.477600
6.671900 0.465200
6.683400 0.453500
6.694800 0.443800
6.706300 0.432900
6.717700 0.422000
6.729100 0.411600
6.740600 0.401400
6.752000 0.390300
6.763400 0.379300
6.774900 0.368800
6.786300 0.358500
6.797800 0.348500
6.809200 0.338300
6.820600 0.327600
6.832100 0.317300
6.843500 0.307500
6.854900 0.298300
6.866400 0.289800
6.877800 0.281900
6.889200 0.274600
6.900700 0.268100
6.912100 0.262200
6.923600 0.256500
6.935000 0.250800
6.946400 0.244800
6.957900 0.238000
6.969300 0.230100
6.980700 0.220900
6.992200 0.210600
7.003600 0.199900
7.015100 0.189400
7.026500 0.179200
7.037900 0.170000
7.049400 0.162800
7.060800 0.155600
7.072200 0.151300
7.083700 0.150500
7.095100 0.154100
7.106500 0.157300
7.118000 0.163200
7.129400 0.188000
7.140900 0.213000
7.152300 0.220900
7.163700 0.218300
7.175200 0.228100
7.186600 0.249400
7.198000 0.276200
7.209500 0.305400
7.220900 0.332600
7.232400 0.355800
7.243800 0.378000
7.255200 0.402700
7.266700 0.436700
7.278100 0.477700
7.289500 0.517700
7.301000 0.553100
7.312400 0.586100
7.323800 0.626200
7.335300 0.665700
7.346700 0.697800
7.358200 0.724600
7.369600 0.758000
7.381000 0.794900
7.392500 0.834500
7.403900 0.876200
7.415300 0.920100
7.426800 0.968200
7.438200 1.023600
7.449700 1.128100
7.461100 1.249400
7.472500 1.432400
7.484000 1.617600
7.495400 1.802200
7.506800 2.014100
7.518300 2.415000
7.529700 2.616900
7.541100 2.589000
7.552600 2.592400
7.564000 2.655000
7.575500 2.757300
7.586900 2.835800
7.598300 2.887000
7.609800 2.925300
7.621200 2.957800
7.632600 2.935200
7.644100 2.960100
7.655500 2.931200
7.667000 2.856700
7.678400 2.748800
7.689800 2.687000
7.701300 2.657200
7.712700 2.630300
7.724100 2.610300
7.735600 2.595600
7.747000 2.585300
7.758400 2.581700
7.769900 2.594200
7.781300 2.579600
7.792800 2.544700
7.804200 2.511900
7.815600 2.468000
7.827100 2.393000
7.838500 2.309000
7.849900 2.243000
7.861400 2.185800
7.872800 2.138300
7.884300 2.104300
7.895700 2.074600
7.907100 2.052000
7.918600 2.029400
7.930000 2.027500
7.941400 2.022300
7.952900 2.027300
7.964300 2.040600
7.975700 2.091300
7.987200 2.157000
7.998600 2.245300
8.010100 2.328200
8.021500 2.386300
8.032900 2.463900
8.044400 2.554100
8.055800 2.659000
8.067200 2.808400
8.078700 2.970900
8.090100 3.074000
8.101600 3.209000
8.113000 3.335100
8.124400 3.448800
8.135900 3.590500
8.147300 3.725400
8.158700 3.873400
8.170200 4.030300
8.181600 4.267900
8.193000 4.475400
8.204500 4.580800
8.215900 4.696300
8.227400 4.739400
8.238800 4.712900
8.250200 4.691800
8.261700 4.664900
8.273100 4.572400
8.284500 4.408100
8.296000 4.286500
8.307400 4.359500
8.318900 4.353900
8.330300 4.363600
8.341700 4.310800
8.353200 4.241100
8.364600 4.172800
8.376000 4.072100
8.387500 4.186500
8.398900 4.019200
8.410300 3.962200
8.421800 3.842500
8.433200 3.739500
8.444700 3.608600
8.456100 3.495200
8.467500 3.424100
8.479000 3.378900
8.490400 3.299600
8.501800 3.256100
8.513300 3.250600
8.524700 3.299600
8.536200 3.384300
8.547600 3.503700
8.559000 3.639700
8.570500 3.818400
8.581900 4.044900
8.593300 4.243700
8.604800 4.425700
8.616200 4.598400
8.627600 4.783700
8.639100 4.950600
8.650500 5.062300
8.662000 5.180100
8.673400 5.260500
8.684800 5.263100
8.696300 5.294400
8.707700 5.294200
8.719100 5.280700
8.730600 5.251800
8.742000 4.980500
8.753500 4.765800
8.764900 4.583400
8.776300 4.430200
8.787800 4.300600
8.799200 4.177200
8.810600 4.079500
8.822100 4.119700
8.833500 4.178700
8.844900 4.158400
8.856400 4.139300
8.867800 4.140100
8.879300 4.175400
8.890700 4.204100
8.902100 4.237200
8.913600 4.332400
8.925000 4.372600
8.936400 4.527200
8.947900 4.972600
8.959300 4.854800
8.970800 4.902700
8.982200 4.930400
8.993600 5.000300
9.005100 5.003800
9.016500 5.019700
9.027900 5.042600
9.039400 4.975500
9.050800 4.968500
9.062200 4.943600
9.073700 4.898700
9.085100 4.839600
9.096600 4.812000
9.108000 4.821300
9.119400 4.754200
9.130900 4.708900
9.142300 4.677900
9.153700 4.631300
9.165200 4.572500
9.176600 4.534200
9.188100 4.498600
9.199500 4.494900
9.210900 4.529000
9.222400 4.488700
9.233800 4.526700
9.245200 4.544500
9.256700 4.499700
9.268100 4.482100
9.279600 4.460100
9.291000 4.448400
9.302400 4.442300
9.313900 4.455200
9.325300 4.471800
9.336700 4.453200
9.348200 4.452600
9.359600 4.467300
9.371000 4.471300
9.382500 4.485900
9.393900 4.501700
9.405400 4.489300
9.416800 4.502800
9.428200 4.524500
9.439700 4.534100
9.451100 4.549600
9.462500 4.576400
9.474000 4.588800
9.485400 4.641300
9.496900 4.680200
9.508300 4.765800
9.519700 4.890300
9.531200 5.003200
9.542600 5.200400
9.554000 5.245400
9.565500 5.272900
9.576900 5.334600
9.588300 5.324200
9.599800 5.345200
9.611200 5.347400
9.622700 5.349300
9.634100 5.357900
9.645500 5.268000
9.657000 5.165300
9.668400 5.072300
9.679800 4.977100
9.691300 4.906500
9.702700 4.854200
9.714200 4.837500
9.725600 4.824000
9.737000 4.801300
9.748500 4.772500
9.759900 4.791600
9.771300 4.843000
9.782800 4.843200
9.794200 4.812200
9.805600 4.786200
9.817100 4.738800
9.828500 4.716800
9.840000 4.680100
9.851400 4.630100
9.862800 4.564400
9.874300 4.529800
9.885700 4.532600
9.897100 4.539100
9.908600 4.509600
9.920000 4.483400
9.931500 4.453900
9.942900 4.441200
9.954300 4.433000
9.965800 4.427900
9.977200 4.413100
9.988600 4.395300
10.000100 4.543700
10.011500 4.630500
10.022900 4.777400
10.034400 4.866000
10.045800 4.900200
10.057300 4.965400
10.068700 5.009500
10.080100 5.048500
10.091600 5.105800
10.103000 5.146900
10.114400 5.194200
10.125900 5.266100
10.137300 5.326200
10.148800 5.266800
10.160200 5.169900
10.171600 5.099300
10.183100 5.038700
10.194500 4.931200
10.205900 4.879400
10.217400 4.859200
10.228800 4.860500
10.240200 4.848300
10.251700 4.798700
10.263100 4.740100
10.274600 4.695400
10.286000 4.701100
10.297400 4.650200
10.308900 4.620900
10.320300 4.571700
10.331700 4.498400
10.343200 4.433700
10.354600 4.410700
10.366100 4.419400
10.377500 4.480300
10.388900 4.611700
10.400400 4.721200
10.411800 4.838200
10.423200 4.852400
10.434700 4.889500
10.446100 4.963900
10.457500 5.043800
10.469000 5.123600
10.480400 5.171000
10.491900 5.154800
10.503300 5.104100
10.514700 5.077900
10.526200 5.040600
10.537600 5.050800
10.549000 5.098600
10.560500 5.152800
10.571900 5.209500
10.583400 5.230900
10.594800 5.237700
10.606200 5.138600
10.617700 4.955700
10.629100 4.860900
10.640500 4.813600
10.652000 4.772600
10.663400 4.699700
10.674800 4.614300
10.686300 4.499400
10.697700 4.405300
10.709200 4.387300
10.720600 4.304200
10.732000 4.235700
10.743500 4.205700
10.754900 4.202900
10.766300 4.228400
10.777800 4.330000
10.789200 4.456800
10.800700 4.602400
10.812100 4.746500
10.823500 4.801300
10.835000 4.841100
10.846400 4.937400
10.857800 4.981200
10.869300 5.041500
10.880700 5.116100
10.892100 5.168000
10.903600 5.164300
10.915000 5.201600
10.926500 5.226900
10.937900 5.279400
10.949300 5.294800
10.960800 5.139700
10.972200 5.052100
10.983600 4.974100
10.995100 4.863500
11.006500 4.727600
11.018000 4.661500
11.029400 4.624800
11.040800 4.616600
11.052300 4.630400
11.063700 4.656500
11.075100 4.678800
11.086600 4.705600
11.098000 4.737300
11.109400 4.807800
11.120900 4.815900
11.132300 4.822600
11.143800 4.809700
11.155200 4.768100
11.166600 4.668400
11.178100 4.585900
11.189500 4.593300
11.200900 4.576500
11.212400 4.563200
11.223800 4.550400
11.235300 4.549700
11.246700 4.552100
11.258100 4.526300
11.269600 4.501700
11.281000 4.478800
11.292400 4.433300
11.303900 4.382100
11.315300 4.352400
11.326700 4.338900
11.338200 4.326900
11.349600 4.321100
11.361100 4.307800
11.372500 4.308000
11.383900 4.336000
11.395400 4.322800
11.406800 4.303900
11.418200 4.336600
11.429700 4.357800
11.441100 4.358300
11.452600 4.341800
11.464000 4.342800
11.475400 4.369600
11.486900 4.414500
11.498300 4.479700
11.509700 4.551200
11.521200 4.625400
11.532600 4.692800
11.544000 4.772200
11.555500 4.812100
11.566900 4.906100
11.578400 4.959000
11.589800 5.017500
11.601200 5.015500
11.612700 4.988700
11.624100 5.004700
11.635500 5.039600
11.647000 5.067600
11.658400 5.096400
11.669900 5.092400
11.681300 5.065100
11.692700 5.099100
11.704200 5.092100
11.715600 5.104600
11.727000 5.151100
11.738500 5.173200
11.749900 5.195300
11.761300 5.246900
11.772800 5.268400
11.784200 5.279500
11.795700 5.276200
11.807100 5.279600
11.818500 5.303700
11.830000 5.344500
11.841400 5.375700
11.852800 5.419400
11.864300 5.504300
11.875700 5.543000
11.887200 5.570000
11.898600 5.538600
11.910000 5.485400
11.921500 5.334500
11.932900 5.291200
11.944300 5.263100
11.955800 5.251500
11.967200 5.247000
11.978600 5.216600
11.990100 5.227000
12.001500 5.237800
12.013000 5.234700
12.024400 5.238500
12.035800 5.244400
12.047300 5.248100
12.058700 5.263300
12.070100 5.288800
12.081600 5.365000
12.093000 5.438200
12.104500 5.349600
12.115900 5.349800
12.127300 5.400600
12.138800 5.377100
12.150200 5.246700
12.161600 5.148100
12.173100 4.901500
12.184500 5.032000
12.195900 4.879000
12.207400 4.686200
12.218800 4.590400
12.230300 4.588800
12.241700 4.615400
12.253100 4.671700
12.264600 4.742800
12.276000 4.818400
12.287400 4.923500
12.298900 5.029000
12.310300 5.227500
12.321800 5.265900
12.333200 5.261500
12.344600 5.249100
12.356100 5.277500
12.367500 5.347300
12.378900 5.411400
12.390400 5.445200
12.401800 5.488400
12.413200 5.411600
12.424700 5.384600
12.436100 5.356000
12.447600 5.315800
12.459000 5.279400
12.470400 5.248300
12.481900 5.199900
12.493300 5.152500
12.504700 5.102400
12.516200 5.026200
12.527600 4.963700
12.539100 4.880800
12.550500 4.845600
12.561900 4.844900
12.573400 4.869700
12.584800 4.838800
12.596200 4.749000
12.607700 4.655100
12.619100 4.577200
12.630500 4.513300
12.642000 4.466900
12.653400 4.482300
12.664900 4.549200
12.676300 4.636500
12.687700 4.637800
12.699200 4.649700
12.710600 4.681800
12.722000 4.729800
12.733500 4.790700
12.744900 4.896200
12.756400 4.982900
12.767800 5.084700
12.779200 5.129400
12.790700 5.122400
12.802100 5.078000
12.813500 4.965200
12.825000 4.863900
12.836400 4.724800
12.847800 4.595300
12.859300 4.467300
12.870700 4.357900
12.882200 4.181300
12.893600 3.991000
12.905000 3.811600
12.916500 3.633400
12.927900 3.486300
12.939300 3.364800
12.950800 3.259100
12.962200 3.149900
12.973700 3.070500
12.985100 3.048400
12.996500 3.050700
13.008000 3.052500
13.019400 3.078300
13.030800 3.164100
13.042300 3.212700
13.053700 3.316000
13.065100 3.453200
13.076600 3.629200
13.088000 3.850700
13.099500 4.055300
13.110900 4.264100
13.122300 4.485800
13.133800 4.776500
13.145200 5.016900
13.156600 5.184700
13.168100 5.269400
13.179500 5.313500
13.191000 5.412000
13.202400 5.448600
13.213800 5.422500
13.225300 5.244700
13.236700 5.126100
13.248100 5.062000
13.259600 4.962500
13.271000 4.881100
13.282400 4.825300
13.293900 4.782200
13.305300 4.688400
13.316800 4.582800
13.328200 4.486700
13.339600 4.406700
13.351100 4.336800
13.362500 4.211100
13.373900 4.166500
13.385400 4.159200
13.396800 4.163100
13.408300 4.139000
13.419700 4.132700
13.431100 4.150400
13.442600 4.187700
13.454000 4.223500
13.465400 4.270900
13.476900 4.312600
13.488300 4.351300
13.499800 4.378900
13.511200 4.403400
13.522600 4.505400
13.534100 4.623400
13.545500 4.703400
13.556900 4.840800
13.568400 4.979100
13.579800 5.092800
13.591200 5.126600
13.602700 5.189000
13.614100 5.161600
13.625600 5.245100
13.637000 5.333700
13.648400 5.284200
13.659900 5.208900
13.671300 5.064300
13.682700 4.736900
13.694200 4.586900
13.705600 4.549800
13.717100 4.530100
13.728500 4.487100
13.739900 4.527300
13.751400 4.593800
13.762800 4.643800
13.774200 4.742000
13.785700 4.890300
13.797100 5.066500
13.808500 5.169800
13.820000 5.127800
13.831400 5.188500
13.842900 5.153000
13.854300 5.119800
13.865700 5.109400
13.877200 5.105800
13.888600 5.097600
13.900000 5.094900
13.911500 5.061900
13.922900 4.973900
13.934400 4.873200
13.945800 4.800000
13.957200 4.726200
13.968700 4.579000
13.980100 4.489600
13.991500 4.313600
14.003000 4.199400
14.014400 4.106300
14.025800 4.031300
14.037300 3.968900
14.048700 3.918700
14.060200 3.888200
14.071600 3.894600
14.083000 3.885300
14.094500 3.904700
14.105900 3.887200
14.117300 3.788500
14.128800 3.739700
14.140200 3.698300
14.151700 3.661400
14.163100 3.637200
14.174500 3.675800
14.186000 3.740500
14.197400 3.791300
14.208800 3.857600
14.220300 3.995700
14.231700 4.156100
14.243100 4.262700
14.254600 4.403600
14.266000 4.618100
14.277500 4.799300
14.288900 5.001300
14.300300 5.223300
14.311800 5.268500
14.323200 5.286900
14.334600 5.258000
14.346100 5.126200
14.357500 4.957700
14.369000 4.766200
14.380400 4.586700
14.391800 4.439700
14.403300 4.331800
14.414700 4.239500
14.426100 4.230200
14.437600 3.906500
14.449000 3.584900
14.460400 3.354500
14.471900 3.166100
14.483300 2.992900
14.494800 2.832200
14.506200 2.671400
14.517600 2.568300
14.529100 2.385800
14.540500 2.264300
14.551900 2.146300
14.563400 2.050300
14.574800 1.963500
14.586300 1.865300
14.597700 1.777100
14.609100 1.705000
14.620600 1.605000
14.632000 1.449900
14.643400 1.337600
14.654900 1.234600
14.666300 1.141500
14.677700 1.055500
14.689200 0.973700
14.700600 0.911900
14.712100 0.886500
14.723500 0.836500
14.734900 0.700000
14.746400 0.609400
14.757800 0.525600
14.769200 0.454000
14.780700 0.395500
14.792100 0.351000
14.803600 0.319500
14.815000 0.293200
14.826400 0.268800
14.837900 0.244600
14.849300 0.221400
14.860700 0.199500
14.872200 0.179400
14.883600 0.161900
14.895000 0.146100
14.906500 0.131400
14.917900 0.117600
14.929400 0.104900
14.940800 0.093100
14.952200 0.082100
14.963700 0.071100
14.975100 0.060200
14.986500 0.049200
14.998000 0.038000
15.009400 0.026700
15.020900 0.015200
15.032300 0.007100
15.043700 0.003800
15.055200 0.001900
15.066600 0.001400
15.078000 0.001100
15.089500 0.000900
15.100900 0.000600
15.112300 0.000400
15.123800 0.000300
15.135200 0.000200
15.146700 0.000100
15.158100 0.000000
15.169500 0.000000
15.181000 0.000000
15.192400 0.000000
15.203800 0.000000
15.215300 0.000000
15.226700 0.000000
15.238200 0.000000
15.249600 0.000000
15.261000 0.000000
15.272500 0.000000
15.283900 0.000000
15.295300 0.000000
15.306800 0.000000
15.318200 0.000000
15.329600 0.000000
15.341100 0.000000
15.352500 0.000000
15.364000 0.000000
15.375400 0.000000
15.386800 0.000000
15.398300 0.000000
15.409700 0.000000
15.421100 0.000000
15.432600 0.000000
15.444000 0.000000
15.455500 0.000000
15.466900 0.000000
15.478300 0.000000
15.489800 0.000000
15.501200 0.000000
15.512600 0.000000
15.524100 0.000000
15.535500 0.000000
15.546900 0.000000
15.558400 0.000000
15.569800 0.000000
15.581300 0.000000
15.592700 0.000000
15.604100 0.000000
15.615600 0.000000
15.627000 0.000000
15.638400 0.000000
15.649900 0.000000
15.661300 0.000000
15.672800 0.000000
15.684200 0.000000
15.695600 0.000000
15.707100 0.000000
15.718500 0.000000
15.729900 0.000000
15.741400 0.000000
15.752800 0.000000
15.764200 0.000000
15.775700 0.000000
15.787100 0.000000
15.798600 0.000000
15.810000 0.000000
15.821400 0.000000
15.832900 0.000000
15.844300 0.000000
15.855700 0.000000
15.867200 0.000000
15.878600 0.000000
15.890100 0.000000
15.901500 0.000000
15.912900 0.000000
15.924400 0.000000
15.935800 0.000000
15.947200 0.000000
15.958700 0.000000
15.970100 0.000000
15.981500 0.000000
15.993000 0.000000
16.004400 0.000000
16.015900 0.000000
16.027300 0.000000
16.038700 0.000000
16.050200 0.000000
16.061600 0.000000
16.073000 0.000000
16.084500 0.000000
16.095900 0.000000
16.107400 0.000000
16.118800 0.000000
16.130200 0.000000
16.141700 0.000000
16.153100 0.000000
16.164500 0.000000
16.176000 0.000000
16.187400 0.000000
16.198800 0.000000
16.210300 0.000000
e
