set title 'mp-1008802 - Density of States'
set xlabel 'Energy (eV)'
set ylabel 'DOS (states/eV)'
set grid
set xrange [-10:10]
set yrange [0:3.285]
set xzeroaxis lt -1
set terminal png size 800,600
set output 'mp-1008802_dos_gnuplot.png'
plot '-' using 1:2 with lines title 'DOS'
-40.341700 0.000000
-40.283600 0.000000
-40.225600 0.000000
-40.167500 0.000000
-40.109500 0.000000
-40.051400 0.000000
-39.993400 0.000000
-39.935300 0.000000
-39.877300 0.000000
-39.819200 0.000000
-39.761200 0.000000
-39.703100 0.000000
-39.645100 0.000000
-39.587000 0.000000
-39.529000 0.000000
-39.470900 0.000000
-39.412900 0.000000
-39.354800 0.000000
-39.296700 0.000000
-39.238700 0.000000
-39.180600 0.000000
-39.122600 0.000000
-39.064500 0.000000
-39.006500 0.000000
-38.948400 0.000000
-38.890400 0.000000
-38.832300 0.000000
-38.774300 0.000000
-38.716200 0.000000
-38.658200 0.000000
-38.600100 0.000000
-38.542100 0.000000
-38.484000 0.000000
-38.426000 0.000000
-38.367900 0.000000
-38.309900 0.000000
-38.251800 0.000000
-38.193700 0.000000
-38.135700 0.000000
-38.077600 0.000000
-38.019600 0.000000
-37.961500 0.000000
-37.903500 0.000000
-37.845400 0.000000
-37.787400 0.000000
-37.729300 0.000000
-37.671300 0.000000
-37.613200 0.000000
-37.555200 0.000000
-37.497100 0.000000
-37.439100 0.000000
-37.381000 0.000000
-37.323000 0.000000
-37.264900 0.000000
-37.206900 0.000000
-37.148800 0.000000
-37.090800 0.000000
-37.032700 0.000000
-36.974600 0.000000
-36.916600 0.000000
-36.858500 0.000000
-36.800500 0.000000
-36.742400 0.000000
-36.684400 0.000000
-36.626300 0.000000
-36.568300 0.000000
-36.510200 0.000000
-36.452200 0.000000
-36.394100 0.000000
-36.336100 0.000000
-36.278000 0.000000
-36.220000 0.000000
-36.161900 0.000000
-36.103900 0.000000
-36.045800 0.000000
-35.987800 0.000000
-35.929700 0.000000
-35.871700 0.000000
-35.813600 0.000000
-35.755500 0.000000
-35.697500 0.000000
-35.639400 0.000000
-35.581400 0.000000
-35.523300 0.000000
-35.465300 0.000000
-35.407200 0.000000
-35.349200 0.000000
-35.291100 0.000000
-35.233100 0.000000
-35.175000 0.000000
-35.117000 0.000000
-35.058900 4.281300
-35.000900 4.747200
-34.942800 9.322400
-34.884800 4.322700
-34.826700 3.735500
-34.768700 3.353600
-34.710600 3.143700
-34.652600 3.039800
-34.594500 2.939600
-34.536400 2.989200
-34.478400 3.047300
-34.420300 3.240700
-34.362300 6.829200
-34.304200 11.067200
-34.246200 20.476400
-34.188100 16.498000
-34.130100 0.000000
-34.072000 0.000000
-34.014000 0.000000
-33.955900 0.000000
-33.897900 0.000000
-33.839800 0.000000
-33.781800 0.000000
-33.723700 0.000000
-33.665700 0.000000
-33.607600 0.000000
-33.549600 0.000000
-33.491500 0.000000
-33.433500 0.000000
-33.375400 0.000000
-33.317300 0.000000
-33.259300 0.000000
-33.201200 0.000000
-33.143200 0.000000
-33.085100 0.000000
-33.027100 0.000000
-32.969000 0.000000
-32.911000 0.000000
-32.852900 0.000000
-32.794900 0.000000
-32.736800 0.000000
-32.678800 0.000000
-32.620700 0.000000
-32.562700 0.000000
-32.504600 0.000000
-32.446600 0.000000
-32.388500 0.000000
-32.330500 0.000000
-32.272400 0.000000
-32.214300 0.000000
-32.156300 0.000000
-32.098200 0.000000
-32.040200 0.000000
-31.982100 0.000000
-31.924100 0.000000
-31.866000 0.000000
-31.808000 0.000000
-31.749900 0.000000
-31.691900 0.000000
-31.633800 0.000000
-31.575800 0.000000
-31.517700 0.000000
-31.459700 0.000000
-31.401600 0.000000
-31.343600 0.000000
-31.285500 0.000000
-31.227500 0.000000
-31.169400 0.000000
-31.111400 0.000000
-31.053300 0.000000
-30.995200 0.000000
-30.937200 0.000000
-30.879100 0.000000
-30.821100 0.000000
-30.763000 0.000000
-30.705000 0.000000
-30.646900 0.000000
-30.588900 0.000000
-30.530800 0.000000
-30.472800 0.000000
-30.414700 0.000000
-30.356700 0.000000
-30.298600 0.000000
-30.240600 0.000000
-30.182500 0.000000
-30.124500 0.000000
-30.066400 0.000000
-30.008400 0.000000
-29.950300 0.000000
-29.892300 0.000000
-29.834200 0.000000
-29.776100 0.000000
-29.718100 0.000000
-29.660000 0.000000
-29.602000 0.000000
-29.543900 0.000000
-29.485900 0.000000
-29.427800 0.000000
-29.369800 0.000000
-29.311700 0.000000
-29.253700 0.000000
-29.195600 0.000000
-29.137600 0.000000
-29.079500 0.000000
-29.021500 0.000000
-28.963400 0.000000
-28.905400 0.000000
-28.847300 0.000000
-28.789300 0.000000
-28.731200 0.000000
-28.673200 0.000000
-28.615100 0.000000
-28.557000 0.000000
-28.499000 0.000000
-28.440900 0.000000
-28.382900 0.000000
-28.324800 0.000000
-28.266800 0.000000
-28.208700 0.000000
-28.150700 0.000000
-28.092600 0.000000
-28.034600 0.000000
-27.976500 0.000000
-27.918500 0.000000
-27.860400 0.000000
-27.802400 0.000000
-27.744300 0.000000
-27.686300 0.000000
-27.628200 0.000000
-27.570200 0.000000
-27.512100 0.000000
-27.454100 0.000000
-27.396000 0.000000
-27.337900 0.000000
-27.279900 0.000000
-27.221800 0.000000
-27.163800 0.000000
-27.105700 0.000000
-27.047700 0.000000
-26.989600 0.000000
-26.931600 0.000000
-26.873500 0.000000
-26.815500 0.000000
-26.757400 0.000000
-26.699400 0.000000
-26.641300 0.000000
-26.583300 0.000000
-26.525200 0.000000
-26.467200 0.000000
-26.409100 0.000000
-26.351100 0.000000
-26.293000 0.000000
-26.234900 0.000000
-26.176900 0.000000
-26.118800 0.000000
-26.060800 0.000000
-26.002700 0.000000
-25.944700 0.000000
-25.886600 0.000000
-25.828600 0.000000
-25.770500 0.000000
-25.712500 0.000000
-25.654400 0.000000
-25.596400 0.000000
-25.538300 0.000000
-25.480300 0.000000
-25.422200 0.000000
-25.364200 0.000000
-25.306100 0.000000
-25.248100 0.000000
-25.190000 0.000000
-25.132000 0.000000
-25.073900 0.000000
-25.015800 0.000000
-24.957800 0.000000
-24.899700 0.000000
-24.841700 0.000000
-24.783600 0.000000
-24.725600 0.000000
-24.667500 0.000000
-24.609500 0.000000
-24.551400 0.000000
-24.493400 0.000000
-24.435300 0.000000
-24.377300 0.000000
-24.319200 0.000000
-24.261200 0.000000
-24.203100 0.000000
-24.145100 0.000000
-24.087000 0.000000
-24.029000 0.000000
-23.970900 0.000000
-23.912900 0.000000
-23.854800 0.000000
-23.796700 0.000000
-23.738700 0.000000
-23.680600 0.000000
-23.622600 0.000000
-23.564500 0.000000
-23.506500 0.000000
-23.448400 0.000000
-23.390400 0.000000
-23.332300 0.000000
-23.274300 0.000000
-23.216200 0.000000
-23.158200 0.000000
-23.100100 0.000000
-23.042100 0.000000
-22.984000 0.000000
-22.926000 0.000000
-22.867900 0.000000
-22.809900 0.000000
-22.751800 0.000000
-22.693800 0.000000
-22.635700 0.000000
-22.577600 0.000000
-22.519600 0.000000
-22.461500 0.000000
-22.403500 0.000000
-22.345400 0.000000
-22.287400 0.000000
-22.229300 0.000000
-22.171300 0.000000
-22.113200 0.000000
-22.055200 0.000000
-21.997100 0.000000
-21.939100 0.000000
-21.881000 0.000000
-21.823000 0.000000
-21.764900 0.000000
-21.706900 0.000000
-21.648800 0.000000
-21.590800 0.000000
-21.532700 0.000000
-21.474700 0.000000
-21.416600 0.000000
-21.358500 0.000000
-21.300500 0.000000
-21.242400 0.000000
-21.184400 0.000000
-21.126300 0.000000
-21.068300 0.000000
-21.010200 0.000000
-20.952200 0.000000
-20.894100 0.000000
-20.836100 0.000000
-20.778000 0.000000
-20.720000 0.000000
-20.661900 0.000000
-20.603900 0.000000
-20.545800 0.000000
-20.487800 0.000000
-20.429700 0.000000
-20.371700 0.000000
-20.313600 0.000000
-20.255500 0.000000
-20.197500 0.000000
-20.139400 0.000000
-20.081400 0.000000
-20.023300 0.000000
-19.965300 0.000000
-19.907200 0.000000
-19.849200 0.000000
-19.791100 0.000000
-19.733100 0.000000
-19.675000 0.000000
-19.617000 0.000000
-19.558900 0.000000
-19.500900 0.000000
-19.442800 0.000000
-19.384800 0.000000
-19.326700 0.000000
-19.268700 0.000000
-19.210600 0.000000
-19.152600 0.000000
-19.094500 0.000000
-19.036400 0.000000
-18.978400 0.000000
-18.920300 0.000000
-18.862300 0.000000
-18.804200 0.000000
-18.746200 0.000000
-18.688100 0.000000
-18.630100 0.000000
-18.572000 0.000000
-18.514000 0.000000
-18.455900 0.000000
-18.397900 0.000000
-18.339800 0.000000
-18.281800 0.000000
-18.223700 0.000000
-18.165700 0.000000
-18.107600 0.000000
-18.049600 0.000000
-17.991500 0.000000
-17.933500 0.000000
-17.875400 0.000000
-17.817300 0.000000
-17.759300 0.000000
-17.701200 0.000000
-17.643200 0.000000
-17.585100 0.000000
-17.527100 0.000000
-17.469000 0.000000
-17.411000 0.000000
-17.352900 0.000000
-17.294900 0.000000
-17.236800 0.000000
-17.178800 0.000000
-17.120700 0.000000
-17.062700 0.000000
-17.004600 0.000000
-16.946600 0.000000
-16.888500 0.000000
-16.830500 0.000000
-16.772400 0.000000
-16.714400 0.000000
-16.656300 0.000000
-16.598200 0.000000
-16.540200 0.000000
-16.482100 0.000000
-16.424100 0.000000
-16.366000 0.000000
-16.308000 0.000000
-16.249900 0.000000
-16.191900 0.000000
-16.133800 0.000000
-16.075800 0.000000
-16.017700 0.000000
-15.959700 0.000000
-15.901600 0.000000
-15.843600 0.000000
-15.785500 0.000000
-15.727500 0.000000
-15.669400 0.000000
-15.611400 0.000000
-15.553300 0.000000
-15.495300 0.000000
-15.437200 0.000000
-15.379100 0.000000
-15.321100 0.000000
-15.263000 0.000000
-15.205000 0.000000
-15.146900 0.000000
-15.088900 0.000000
-15.030800 0.000000
-14.972800 0.000000
-14.914700 0.000000
-14.856700 0.000000
-14.798600 0.000000
-14.740600 0.000000
-14.682500 0.000000
-14.624500 0.000000
-14.566400 0.000000
-14.508400 0.000000
-14.450300 0.000000
-14.392300 0.000000
-14.334200 0.000000
-14.276100 0.000000
-14.218100 0.000000
-14.160000 0.000000
-14.102000 0.000000
-14.043900 0.000000
-13.985900 0.000000
-13.927800 0.000000
-13.869800 0.000000
-13.811700 0.000000
-13.753700 0.000000
-13.695600 0.000000
-13.637600 0.000000
-13.579500 0.000000
-13.521500 0.000000
-13.463400 0.000000
-13.405400 0.000000
-13.347300 0.000000
-13.289300 0.000000
-13.231200 0.000000
-13.173200 0.000000
-13.115100 0.000000
-13.057000 0.000000
-12.999000 0.000000
-12.940900 0.000000
-12.882900 0.000000
-12.824800 0.000000
-12.766800 0.000000
-12.708700 0.000000
-12.650700 0.000000
-12.592600 0.000000
-12.534600 0.000000
-12.476500 0.000000
-12.418500 0.000000
-12.360400 0.000000
-12.302400 0.000000
-12.244300 0.000000
-12.186300 0.000000
-12.128200 0.000000
-12.070200 0.000000
-12.012100 0.000000
-11.954100 0.000000
-11.896000 0.000000
-11.837900 0.000000
-11.779900 0.000000
-11.721800 0.000000
-11.663800 0.000000
-11.605700 0.000000
-11.547700 0.000000
-11.489600 0.000000
-11.431600 0.000000
-11.373500 0.000000
-11.315500 0.000000
-11.257400 0.000000
-11.199400 0.000000
-11.141300 0.000000
-11.083300 0.000000
-11.025200 0.000000
-10.967200 0.000000
-10.909100 0.000000
-10.851100 0.000000
-10.793000 0.000000
-10.735000 0.000000
-10.676900 0.000000
-10.618800 0.000000
-10.560800 0.000000
-10.502700 0.000000
-10.444700 0.000000
-10.386600 0.000000
-10.328600 0.000000
-10.270500 0.000000
-10.212500 0.000000
-10.154400 0.000000
-10.096400 0.000000
-10.038300 0.000000
-9.980300 0.000000
-9.922200 0.000000
-9.864200 0.000000
-9.806100 0.000000
-9.748100 0.000000
-9.690000 0.000000
-9.632000 0.000000
-9.573900 0.000000
-9.515900 0.000000
-9.457800 0.000000
-9.399700 0.000000
-9.341700 0.000000
-9.283600 0.000000
-9.225600 0.000000
-9.167500 0.000000
-9.109500 0.000000
-9.051400 0.000000
-8.993400 0.000000
-8.935300 0.000000
-8.877300 0.000000
-8.819200 0.000000
-8.761200 0.000000
-8.703100 0.049100
-8.645100 0.086500
-8.587000 0.098400
-8.529000 0.112100
-8.470900 0.129300
-8.412900 0.150900
-8.354800 0.161400
-8.296700 0.171700
-8.238700 0.185800
-8.180600 0.201500
-8.122600 0.217500
-8.064500 0.231300
-8.006500 0.245400
-7.948400 0.260200
-7.890400 0.275400
-7.832300 0.290700
-7.774300 0.309200
-7.716200 0.329800
-7.658200 0.348600
-7.600100 0.370000
-7.542100 0.393000
-7.484000 0.421200
-7.426000 0.452700
-7.367900 0.485100
-7.309900 0.519100
-7.251800 0.599400
-7.193800 0.625300
-7.135700 0.642200
-7.077600 0.659800
-7.019600 0.683000
-6.961500 0.707200
-6.903500 0.729500
-6.845400 0.759700
-6.787400 0.797800
-6.729300 0.840700
-6.671300 0.890500
-6.613200 0.959600
-6.555200 1.017700
-6.497100 1.188800
-6.439100 1.349900
-6.381000 1.301100
-6.323000 1.273100
-6.264900 1.253100
-6.206900 1.184900
-6.148800 1.037700
-6.090800 0.966500
-6.032700 0.910100
-5.974700 0.890700
-5.916600 0.885700
-5.858500 0.978700
-5.800500 0.764200
-5.742400 0.579000
-5.684400 0.485400
-5.626300 0.413400
-5.568300 0.355600
-5.510200 0.307900
-5.452200 0.266300
-5.394100 0.251800
-5.336100 0.229300
-5.278000 0.207700
-5.220000 0.189400
-5.161900 0.177100
-5.103900 0.165300
-5.045800 0.152300
-4.987800 0.144800
-4.929700 0.138200
-4.871700 0.128900
-4.813600 0.121800
-4.755600 0.118900
-4.697500 0.111100
-4.639400 0.105100
-4.581400 0.090200
-4.523300 0.095000
-4.465300 0.100000
-4.407200 0.105200
-4.349200 0.110500
-4.291100 0.115600
-4.233100 0.120900
-4.175000 0.126100
-4.117000 0.131100
-4.058900 0.137000
-4.000900 0.143300
-3.942800 0.150000
-3.884800 0.156200
-3.826700 0.162200
-3.768700 0.168100
-3.710600 0.174500
-3.652600 0.181200
-3.594500 0.188200
-3.536500 0.225600
-3.478400 0.256600
-3.420300 0.268200
-3.362300 0.288100
-3.304200 0.314000
-3.246200 0.336800
-3.188100 0.361500
-3.130100 0.390200
-3.072000 0.425400
-3.014000 0.462200
-2.955900 0.503700
-2.897900 0.721900
-2.839800 0.603000
-2.781800 0.614200
-2.723700 0.619100
-2.665700 0.629400
-2.607600 0.625100
-2.549600 0.633300
-2.491500 0.640700
-2.433500 0.645400
-2.375400 0.651300
-2.317300 0.653500
-2.259300 0.652700
-2.201200 0.651000
-2.143200 0.656000
-2.085100 0.664100
-2.027100 0.671100
-1.969000 0.679000
-1.911000 0.686600
-1.852900 0.692300
-1.794900 0.715800
-1.736800 0.731500
-1.678800 0.729600
-1.620700 0.714100
-1.562700 0.708000
-1.504600 0.732400
-1.446600 0.740900
-1.388500 0.797500
-1.330500 0.718700
-1.272400 0.814800
-1.214400 0.700300
-1.156300 0.657600
-1.098200 0.632000
-1.040200 0.579500
-0.982100 0.663700
-0.924100 0.677500
-0.866000 0.689300
-0.808000 0.640200
-0.749900 0.598900
-0.691900 0.559100
-0.633800 0.621700
-0.575800 0.544800
-0.517700 0.524400
-0.459700 0.533200
-0.401600 0.544900
-0.343600 0.433800
-0.285500 0.227600
-0.227500 0.241100
-0.169400 0.256100
-0.111400 0.271800
-0.053300 0.299400
0.004700 0.326800
0.062800 0.409400
0.120900 0.495200
0.178900 0.567600
0.237000 0.637400
0.295000 0.749800
0.353100 0.845700
0.411100 0.921900
0.469200 1.128400
0.527200 1.058700
0.585300 1.154500
0.643300 1.236700
0.701400 1.254700
0.759400 1.246800
0.817500 1.237600
0.875500 1.233800
0.933600 1.230900
0.991600 1.247900
1.049700 1.277600
1.107700 1.304100
1.165800 1.305500
1.223800 1.346300
1.281900 1.417600
1.340000 1.534400
1.398000 1.485900
1.456100 1.476500
1.514100 1.437900
1.572200 1.381500
1.630200 1.358400
1.688300 1.337100
1.746300 1.285100
1.804400 1.314200
1.862400 1.295100
1.920500 1.317000
1.978500 1.264300
2.036600 1.240000
2.094600 1.227800
2.152700 1.256500
2.210700 1.253000
2.268800 1.279500
2.326800 1.433300
2.384900 1.812900
2.442900 1.745600
2.501000 1.487000
2.559100 1.875900
2.617100 1.722200
2.675200 1.574000
2.733200 1.493400
2.791300 1.430700
2.849300 1.480900
2.907400 1.410500
2.965400 1.335500
3.023500 1.323600
3.081500 1.217900
3.139600 1.193600
3.197600 1.205200
3.255700 1.219700
3.313700 1.232400
3.371800 1.349300
3.429800 1.308500
3.487900 1.326200
3.545900 1.319300
3.604000 1.289200
3.662100 1.253900
3.720100 1.234000
3.778200 1.217400
3.836200 1.185600
3.894300 1.234400
3.952300 1.286200
4.010400 1.483000
4.068400 1.563900
4.126500 1.893200
4.184500 1.735500
4.242600 1.582900
4.300600 1.815400
4.358700 2.127000
4.416700 2.500500
4.474800 2.986000
4.532800 2.425000
4.590900 2.241300
4.648900 2.063500
4.707000 2.018600
4.765000 1.828800
4.823100 1.601100
4.881200 1.472700
4.939200 1.417300
4.997300 1.369300
5.055300 1.404500
5.113400 1.455000
5.171400 1.553800
5.229500 1.420000
5.287500 1.391300
5.345600 1.149300
5.403600 0.932100
5.461700 0.736200
5.519700 0.783200
5.577800 0.804600
5.635800 0.773600
5.693900 0.747800
5.751900 0.746500
5.810000 0.756200
5.868000 0.792400
5.926100 0.854300
5.984100 1.451100
6.042200 1.184700
6.100300 1.298100
6.158300 1.408100
6.216400 1.629300
6.274400 1.884300
6.332500 1.992600
6.390500 2.071600
6.448600 2.104500
6.506600 2.469800
6.564700 2.254500
6.622700 2.710700
6.680800 2.366800
6.738800 2.636800
6.796900 2.113400
6.854900 1.876000
6.913000 1.649800
6.971000 1.605700
7.029100 1.380500
7.087100 1.105400
7.145200 1.052300
7.203200 1.083700
7.261300 1.137800
7.319400 1.113600
7.377400 1.161500
7.435500 1.186900
7.493500 1.231300
7.551600 1.343400
7.609600 1.301300
7.667700 1.267600
7.725700 1.271400
7.783800 1.223100
7.841800 1.197600
7.899900 1.117500
7.957900 1.036500
8.016000 0.960500
8.074000 0.920500
8.132100 0.892500
8.190100 0.872400
8.248200 0.859500
8.306200 0.842300
8.364300 0.827400
8.422300 0.822100
8.480400 0.839000
8.538500 0.805300
8.596500 0.880100
8.654600 0.667100
8.712600 0.621300
8.770700 0.697000
8.828700 0.682400
8.886800 0.686800
8.944800 0.705700
9.002900 0.705300
9.060900 0.702400
9.119000 0.724400
9.177000 0.750100
9.235100 0.766600
9.293100 0.791000
9.351200 0.839300
9.409200 0.862800
9.467300 0.862300
9.525300 0.880100
9.583400 0.903000
9.641500 0.925000
9.699500 0.954500
9.757600 1.034700
9.815600 1.176400
9.873700 1.251500
9.931700 1.314400
9.989800 1.414000
10.047800 1.484100
10.105900 1.209700
10.163900 1.126800
10.222000 1.044600
10.280000 0.996000
10.338100 0.966100
10.396100 0.940300
10.454200 0.917300
10.512200 0.899600
10.570300 0.894500
10.628300 1.014200
10.686400 1.022000
10.744400 1.074100
10.802500 1.161500
10.860600 1.035800
10.918600 1.243000
10.976700 1.030800
11.034700 1.483200
11.092800 1.839400
11.150800 1.964500
11.208900 2.020000
11.266900 2.158800
11.325000 2.049300
11.383000 2.030300
11.441100 1.879900
11.499100 1.867600
11.557200 1.421700
11.615200 1.246200
11.673300 1.126900
11.731300 1.085500
11.789400 0.944300
11.847400 1.066000
11.905500 1.069900
11.963500 1.033000
12.021600 1.142600
12.079700 1.075800
12.137700 1.002400
12.195800 0.912800
12.253800 0.578700
12.311900 0.913400
12.369900 0.751500
12.428000 0.842900
12.486000 0.984200
12.544100 1.519400
12.602100 1.498400
12.660200 1.527000
12.718200 1.703200
12.776300 2.206100
12.834300 2.253000
12.892400 2.121700
12.950400 1.956200
13.008500 1.786700
13.066500 1.766000
13.124600 1.426600
13.182600 1.309500
13.240700 1.183200
13.298800 1.103000
13.356800 1.059500
13.414900 0.986800
13.472900 0.745700
13.531000 0.772200
13.589000 0.774800
13.647100 0.757400
13.705100 0.737400
13.763200 0.732300
13.821200 0.727700
13.879300 0.722000
13.937300 0.713300
13.995400 0.703500
14.053400 0.699600
14.111500 0.701700
14.169500 0.713100
14.227600 0.720900
14.285600 0.729600
14.343700 0.739600
14.401700 0.753200
14.459800 0.777400
14.517900 0.811800
14.575900 0.844100
14.634000 0.914100
14.692000 0.938900
14.750100 0.965600
14.808100 0.977200
14.866200 0.972000
14.924200 0.998800
14.982300 1.006300
15.040300 1.026000
15.098400 1.036500
15.156400 1.040700
15.214500 1.067500
15.272500 1.084800
15.330600 1.105000
15.388600 1.111200
15.446700 1.127400
15.504700 1.103900
15.562800 1.010800
15.620900 0.952100
15.678900 0.907100
15.737000 0.904000
15.795000 1.072200
15.853100 1.120500
15.911100 1.215200
15.969200 1.237700
16.027200 1.038200
16.085300 0.882400
16.143300 0.806400
16.201400 0.756200
16.259400 0.757500
16.317500 0.747200
16.375500 0.636300
16.433600 0.561900
16.491600 0.528600
16.549700 0.465900
16.607700 0.557500
16.665800 0.578800
16.723800 0.312200
16.781900 0.319200
16.840000 0.330900
16.898000 0.337900
16.956100 0.348400
17.014100 0.359300
17.072200 0.373000
17.130200 0.463600
17.188300 0.549100
17.246300 0.658900
17.304400 0.635100
17.362400 0.676700
17.420500 0.772500
17.478500 0.861500
17.536600 1.072600
17.594600 1.045600
17.652700 0.961600
17.710700 0.934200
17.768800 0.934400
17.826800 0.851100
17.884900 0.826500
17.942900 0.809300
18.001000 0.786300
18.059100 0.788200
18.117100 0.792200
18.175200 0.797400
18.233200 0.805200
18.291300 0.812800
18.349300 0.830800
18.407400 0.848800
18.465400 0.881700
18.523500 0.996300
18.581500 1.052200
18.639600 1.043500
18.697600 0.914400
18.755700 0.728400
18.813700 0.495300
18.871800 0.332200
18.929800 0.201200
18.987900 0.182000
19.045900 0.503100
19.104000 0.651300
19.162000 0.753400
19.220100 0.801800
19.278200 0.774500
19.336200 0.792500
19.394300 0.839100
19.452300 0.905500
19.510400 0.993200
19.568400 1.045200
19.626500 1.030100
19.684500 1.011700
19.742600 1.009700
19.800600 0.944500
19.858700 0.932600
19.916700 0.929200
19.974800 0.929100
20.032800 0.925800
20.090900 0.967600
20.148900 0.988700
20.207000 0.982400
20.265000 0.998500
20.323100 1.046100
20.381200 1.079000
20.439200 1.081000
20.497300 1.086500
20.555300 1.083400
20.613400 1.104700
20.671400 1.140100
20.729500 1.186200
20.787500 1.282100
20.845600 1.489500
20.903600 1.712200
20.961700 1.928800
21.019700 1.972600
21.077800 1.870200
21.135800 1.632500
21.193900 1.465300
21.251900 1.418100
21.310000 1.537200
21.368000 1.484800
21.426100 1.424600
21.484100 1.325400
21.542200 1.250400
21.600300 1.191900
21.658300 1.091000
21.716400 1.077100
21.774400 1.085200
21.832500 1.088300
21.890500 1.135900
21.948600 1.059900
22.006600 1.031300
22.064700 1.021300
22.122700 1.010600
22.180800 1.002300
22.238800 0.997200
22.296900 1.000700
22.354900 0.996400
22.413000 1.002500
22.471000 1.027500
22.529100 1.041400
22.587100 1.055500
22.645200 1.056500
22.703200 1.072300
22.761300 1.062700
22.819400 1.101400
22.877400 1.137100
22.935500 1.044100
22.993500 1.056600
23.051600 1.086800
23.109600 1.101200
23.167700 1.185500
23.225700 1.115900
23.283800 1.069000
23.341800 1.158600
23.399900 1.118200
23.457900 1.052100
23.516000 1.072000
23.574000 1.113300
23.632100 1.158000
23.690100 1.275900
23.748200 1.399200
23.806200 1.504600
23.864300 1.512400
23.922300 1.376900
23.980400 1.146700
24.038500 1.058200
24.096500 0.967200
24.154600 1.191600
24.212600 0.869800
24.270700 0.838100
24.328700 0.875400
24.386800 0.740600
24.444800 0.716800
24.502900 0.736200
24.560900 0.783800
24.619000 0.859100
24.677000 0.931200
24.735100 0.871600
24.793100 0.795200
24.851200 0.783200
24.909200 0.788900
24.967300 0.798800
25.025300 0.792900
25.083400 0.775100
25.141400 0.775000
25.199500 0.761600
25.257600 0.749300
25.315600 0.734400
25.373700 0.755200
25.431700 0.740000
25.489800 0.656900
25.547800 0.645300
25.605900 0.640300
25.663900 0.636900
25.722000 0.625000
25.780000 0.613700
25.838100 0.608200
25.896100 0.607800
25.954200 0.611900
26.012200 0.616200
26.070300 0.621500
26.128300 0.628600
26.186400 0.653300
26.244400 0.730200
26.302500 0.764300
26.360600 0.767000
26.418600 0.813700
26.476700 0.856600
26.534700 0.884600
26.592800 0.954900
26.650800 1.025700
26.708900 1.098100
26.766900 1.222900
26.825000 1.192400
26.883000 1.218100
26.941100 1.258600
26.999100 1.294700
27.057200 1.361600
27.115200 1.336700
27.173300 1.366000
27.231300 1.396800
27.289400 1.506200
27.347400 1.587500
27.405500 1.584700
27.463500 1.481200
27.521600 1.664100
27.579700 1.243200
27.637700 1.168200
27.695800 1.132800
27.753800 1.122700
27.811900 1.125400
27.869900 1.143000
27.928000 1.147500
27.986000 1.153800
28.044100 1.120800
28.102100 1.092100
28.160200 1.074200
28.218200 1.127200
28.276300 1.012600
28.334300 1.046800
28.392400 1.086600
28.450400 1.128800
28.508500 1.183600
28.566500 1.255900
28.624600 1.323200
28.682600 1.357500
28.740700 1.467300
28.798800 1.601000
28.856800 1.818600
28.914900 1.956900
28.972900 1.746000
29.031000 1.671200
29.089000 1.613800
29.147100 1.558700
29.205100 1.461700
29.263200 1.459100
29.321200 1.412700
29.379300 1.382200
29.437300 1.396000
29.495400 1.273000
29.553400 1.232300
29.611500 1.194600
29.669500 1.273000
29.727600 1.190100
29.785600 1.078200
29.843700 0.952900
29.901700 0.945600
29.959800 0.897100
30.017900 0.850500
30.075900 0.807200
30.134000 0.740300
30.192000 0.682800
30.250100 0.682600
30.308100 0.677100
30.366200 0.689900
30.424200 0.695300
30.482300 0.698200
30.540300 0.697800
30.598400 0.720000
30.656400 0.737900
30.714500 0.736200
30.772500 0.742800
30.830600 0.768400
30.888600 0.781400
30.946700 0.784800
31.004700 0.806400
31.062800 0.824800
31.120800 0.853200
31.178900 0.853000
31.237000 1.121100
31.295000 1.007200
31.353100 1.041800
31.411100 0.982500
31.469200 0.975000
31.527200 1.020600
31.585300 1.019600
31.643300 1.029500
31.701400 1.056700
31.759400 1.066900
31.817500 1.070500
31.875500 1.069600
31.933600 1.032800
31.991600 1.037300
32.049700 1.015700
32.107700 1.044500
32.165800 1.153900
32.223800 1.216100
32.281900 1.247700
32.340000 1.123900
32.398000 1.108400
32.456100 1.079000
32.514100 1.039900
32.572200 1.029700
32.630200 1.034000
32.688300 1.071400
32.746300 1.147700
32.804400 1.293700
32.862400 1.202100
32.920500 1.213400
32.978500 1.201700
33.036600 1.167200
33.094600 1.097600
33.152700 1.071600
33.210700 1.052000
33.268800 1.211100
33.326800 1.033600
33.384900 1.059900
33.442900 1.089700
33.501000 1.124900
33.559100 1.159000
33.617100 1.337000
33.675200 1.623100
33.733200 1.983700
33.791300 1.309400
33.849300 1.198600
33.907400 1.057000
33.965400 1.009800
34.023500 1.003600
34.081500 0.961800
34.139600 0.929800
34.197600 0.914300
34.255700 0.889400
34.313700 0.882200
34.371800 0.913700
34.429800 0.953600
34.487900 0.880400
34.545900 0.860600
34.604000 0.877300
34.662000 0.863700
34.720100 0.852800
34.778200 0.858000
34.836200 0.856400
34.894300 0.861600
34.952300 0.866100
35.010400 0.802200
35.068400 0.800800
35.126500 0.800700
35.184500 0.806700
35.242600 0.821400
35.300600 0.849300
35.358700 0.862900
35.416700 0.870300
35.474800 0.900800
35.532800 0.917000
35.590900 0.957300
35.648900 1.029400
35.707000 1.095600
35.765000 1.124200
35.823100 1.155500
35.881100 1.254600
35.939200 1.219200
35.997300 1.136200
36.055300 1.111000
36.113400 1.143600
36.171400 1.112200
36.229500 1.294600
36.287500 1.376800
36.345600 1.319600
36.403600 1.341200
36.461700 1.385100
36.519700 1.568800
36.577800 1.515000
36.635800 1.411500
36.693900 1.346900
36.751900 1.305100
36.810000 1.279800
36.868000 1.223100
36.926100 1.164800
36.984100 1.098700
37.042200 1.054500
37.100200 1.039200
37.158300 1.048800
37.216400 1.168500
37.274400 1.040500
37.332500 1.143200
37.390500 1.188000
37.448600 1.211500
37.506600 1.328300
37.564700 1.274800
37.622700 1.236200
37.680800 1.217400
37.738800 1.233900
37.796900 1.280200
37.854900 1.288900
37.913000 1.297900
37.971000 1.450900
38.029100 1.467700
38.087100 1.426200
38.145200 1.410000
38.203200 1.327200
38.261300 1.398000
38.319400 1.428400
38.377400 1.447600
38.435500 1.466700
38.493500 1.384200
38.551600 1.391700
38.609600 1.409400
38.667700 1.408500
38.725700 1.538400
38.783800 1.710700
38.841800 1.871100
38.899900 1.942400
38.957900 2.119800
39.016000 2.311700
39.074000 2.697300
39.132100 2.857900
39.190100 2.549000
39.248200 2.199600
39.306200 1.965500
39.364300 1.882400
39.422300 1.652100
39.480400 1.497500
39.538500 1.488000
39.596500 1.573600
39.654600 1.544400
39.712600 1.294000
39.770700 1.240000
39.828700 1.238900
39.886800 1.263400
39.944800 1.333100
40.002900 1.378100
40.060900 1.425500
40.119000 1.469800
40.177000 1.522800
40.235100 1.614400
40.293100 1.693100
40.351200 1.703300
40.409200 1.679700
40.467300 1.669100
40.525300 1.638200
40.583400 1.588300
40.641400 1.554100
40.699500 1.474100
40.757600 1.434300
40.815600 1.479200
40.873700 1.486600
40.931700 1.449100
40.989800 1.375500
41.047800 1.255300
41.105900 1.115300
41.163900 1.078900
41.222000 1.062300
41.280000 1.040000
41.338100 1.063700
41.396100 1.227600
41.454200 1.308400
41.512200 1.430700
41.570300 1.415500
41.628300 1.524100
41.686400 1.585900
41.744400 1.560200
41.802500 1.720300
41.860500 1.596900
41.918600 1.398000
41.976700 1.391700
42.034700 1.440000
42.092800 1.392600
42.150800 1.370800
42.208900 1.345900
42.266900 1.321800
42.325000 1.301200
42.383000 1.284700
42.441100 1.273900
42.499100 1.263700
42.557200 1.256900
42.615200 1.272600
42.673300 1.288200
42.731300 1.247400
42.789400 1.173400
42.847400 1.163700
42.905500 1.143700
42.963500 1.113500
43.021600 1.107300
43.079600 1.091400
43.137700 1.089900
43.195800 1.087500
43.253800 1.073600
43.311900 1.037200
43.369900 1.012600
43.428000 1.002100
43.486000 0.963000
43.544100 0.979100
43.602100 0.951900
43.660200 0.925200
43.718200 0.919900
43.776300 0.927200
43.834300 0.966400
43.892400 1.025400
43.950400 1.039800
44.008500 1.000300
44.066500 0.982000
44.124600 0.987500
44.182600 1.000200
44.240700 1.024600
44.298800 1.074300
44.356800 1.118800
44.414900 1.104300
44.472900 1.103500
44.531000 1.166500
44.589000 1.301900
44.647100 1.364800
44.705100 1.227300
44.763200 1.242700
44.821200 1.258700
44.879300 1.271600
44.937300 1.309600
44.995400 1.309000
45.053400 1.308200
45.111500 1.358800
45.169500 1.381000
45.227600 1.414300
45.285600 1.454800
45.343700 1.409100
45.401700 1.419100
45.459800 1.524500
45.517900 1.579400
45.575900 1.619400
45.634000 1.654800
45.692000 1.729900
45.750100 1.827900
45.808100 1.883000
45.866200 1.889000
45.924200 1.901100
45.982300 1.890000
46.040300 1.898200
46.098400 1.937700
46.156400 2.090200
46.214500 1.908200
46.272500 1.836100
46.330600 1.893500
46.388600 1.958900
46.446700 2.005200
46.504700 1.921200
46.562800 1.842400
46.620800 1.776800
46.678900 1.757800
46.737000 1.773300
46.795000 1.743100
46.853100 1.703700
46.911100 1.689600
46.969200 1.641500
47.027200 1.599400
47.085300 1.596200
47.143300 1.533600
47.201400 1.667500
47.259400 1.637800
47.317500 1.457400
47.375500 1.411200
47.433600 1.367300
47.491600 1.409100
47.549700 1.458100
47.607700 1.521000
47.665800 1.601200
47.723800 1.590000
47.781900 1.609300
47.839900 1.669900
47.898000 1.739900
47.956100 1.848800
48.014100 2.000800
48.072200 2.051700
48.130200 2.103300
48.188300 2.055300
48.246300 2.009500
48.304400 1.962400
48.362400 1.962700
48.420500 1.992300
48.478500 1.992800
48.536600 2.022400
48.594600 1.987700
48.652700 1.998300
48.710700 2.123100
48.768800 2.025600
48.826800 2.123900
48.884900 2.038100
48.942900 2.030300
49.001000 2.177000
49.059000 2.060800
49.117100 1.909500
49.175200 1.879800
49.233200 1.897000
49.291300 1.872900
49.349300 1.957800
49.407400 2.111900
49.465400 2.395800
49.523500 2.877000
49.581500 2.756200
49.639600 2.195500
49.697600 2.040200
49.755700 2.057800
49.813700 2.040000
49.871800 2.220900
49.929800 2.024600
49.987900 1.860100
50.045900 1.626000
50.104000 1.375700
50.162000 1.331900
50.220100 1.292400
50.278200 1.266100
50.336200 1.275100
50.394300 1.259800
50.452300 1.395300
50.510400 1.459200
50.568400 1.433100
50.626500 1.292800
50.684500 1.331400
50.742600 1.381800
50.800600 1.426900
50.858700 1.465600
50.916700 1.456400
50.974800 1.493400
51.032800 1.527600
51.090900 1.530700
51.148900 1.497900
51.207000 1.601000
51.265000 1.561700
51.323100 1.398700
51.381100 1.426600
51.439200 1.426300
51.497300 1.479400
51.555300 1.491700
51.613400 1.492200
51.671400 1.502000
51.729500 1.512400
51.787500 1.552400
51.845600 1.586800
51.903600 1.651200
51.961700 1.686000
52.019700 1.671200
52.077800 1.691500
52.135800 1.608000
52.193900 1.601500
52.251900 1.556100
52.310000 1.462300
52.368000 1.449100
52.426100 1.439900
52.484100 1.392900
52.542200 1.367300
52.600200 1.372000
52.658300 1.370700
52.716400 1.398800
52.774400 1.434900
52.832500 1.514200
52.890500 1.423300
52.948600 1.414800
53.006600 1.419000
53.064700 1.563100
53.122700 1.661100
53.180800 1.983300
53.238800 1.978000
53.296900 2.054300
53.354900 1.996000
53.413000 1.554600
53.471000 1.468700
53.529100 1.369200
53.587100 1.337100
53.645200 1.286100
53.703200 1.263900
53.761300 1.284300
53.819300 1.325200
53.877400 1.376000
53.935500 1.409900
53.993500 1.488300
54.051600 1.611300
54.109600 1.658500
54.167700 1.685500
54.225700 1.594900
54.283800 1.581600
54.341800 1.473000
54.399900 1.450400
54.457900 1.387200
54.516000 1.341800
54.574000 1.322100
54.632100 1.379900
54.690100 1.395900
54.748200 1.426900
54.806200 1.467900
54.864300 1.555600
54.922300 1.611600
54.980400 1.606200
55.038400 1.625600
55.096500 1.651300
55.154600 1.665400
55.212600 1.702900
55.270700 1.619200
55.328700 1.555400
55.386800 1.514700
55.444800 1.502800
55.502900 1.448800
55.560900 1.389500
55.619000 1.314200
55.677000 1.280100
55.735100 1.243900
55.793100 1.240400
55.851200 1.304500
55.909200 1.316300
55.967300 1.290300
56.025300 1.370600
56.083400 1.403100
56.141400 1.474400
56.199500 1.648700
56.257600 1.746000
56.315600 1.756500
56.373700 1.723200
56.431700 1.705300
56.489800 1.693200
56.547800 1.660200
56.605900 1.713000
56.663900 1.516400
56.722000 1.522000
56.780000 1.497100
56.838100 1.520600
56.896100 1.457500
56.954200 1.385200
57.012200 1.330600
57.070300 1.293700
57.128300 1.257100
57.186400 1.246500
57.244400 1.243900
57.302500 1.275600
57.360500 1.396400
57.418600 1.402000
57.476700 1.486000
57.534700 1.565100
57.592800 1.726500
57.650800 1.791200
57.708900 1.803200
57.766900 1.792600
57.825000 1.710100
57.883000 1.712300
57.941100 1.852600
57.999100 1.822100
58.057200 1.790500
58.115200 1.862300
58.173300 1.992000
58.231300 2.032100
58.289400 1.960800
58.347400 1.961400
58.405500 2.019200
58.463500 1.958700
58.521600 1.834600
58.579600 1.729300
58.637700 1.659800
58.695800 1.589600
58.753800 1.559900
58.811900 1.592700
58.869900 1.673500
58.928000 1.689200
58.986000 1.695500
59.044100 1.658900
59.102100 1.656200
59.160200 1.677300
59.218200 1.639300
59.276300 1.611900
59.334300 1.609600
59.392400 1.617500
59.450400 1.633800
59.508500 1.648500
59.566500 1.575600
59.624600 1.475900
59.682600 1.437300
59.740700 1.575200
59.798700 1.531700
59.856800 1.606800
59.914900 1.729000
59.972900 1.830100
60.031000 1.848900
60.089000 1.817100
60.147100 1.730800
60.205100 1.722200
60.263200 1.752400
60.321200 1.669700
60.379300 1.683000
60.437300 1.581100
60.495400 1.554800
60.553400 1.431500
60.611500 1.332700
60.669500 1.293700
60.727600 1.192300
60.785600 1.094900
60.843700 1.148500
60.901700 1.219500
60.959800 1.282900
61.017800 1.197200
61.075900 1.246900
61.134000 1.296700
61.192000 1.311100
61.250100 1.383700
61.308100 1.418500
61.366200 1.449200
61.424200 1.416700
61.482300 1.367600
61.540300 1.434500
61.598400 1.481100
61.656400 1.469300
61.714500 1.523100
61.772500 1.614800
61.830600 1.685700
61.888600 1.745300
61.946700 1.820900
62.004700 1.893500
62.062800 1.851200
62.120800 1.937700
62.178900 1.924800
62.237000 1.859400
62.295000 1.828200
62.353100 1.775700
62.411100 1.741600
62.469200 1.749900
62.527200 1.710200
62.585300 1.683100
62.643300 1.614100
62.701400 1.511000
62.759400 1.589100
62.817500 1.495800
62.875500 1.462400
62.933600 1.504800
62.991600 1.599500
63.049700 1.606100
63.107700 1.629400
63.165800 1.617700
63.223800 1.602000
63.281900 1.547900
63.339900 1.542800
63.398000 1.518600
63.456100 1.494200
63.514100 1.444700
63.572200 1.475400
63.630200 1.409200
63.688300 1.410300
63.746300 1.414900
63.804400 1.391000
63.862400 1.393700
63.920500 1.353300
63.978500 1.363300
64.036600 1.384400
64.094600 1.428900
64.152700 1.451100
64.210700 1.413200
64.268800 1.446700
64.326800 1.411200
64.384900 1.409000
64.442900 1.371800
64.501000 1.344700
64.559000 1.313300
64.617100 1.292100
64.675200 1.273300
64.733200 1.276000
64.791300 1.238500
64.849300 1.223800
64.907400 1.180900
64.965400 1.129900
65.023500 1.075000
65.081500 1.027800
65.139600 0.975500
65.197600 0.936800
65.255700 0.906300
65.313700 0.876900
65.371800 0.841000
65.429800 0.798600
65.487900 0.731300
65.545900 0.706800
65.604000 0.684700
65.662000 0.707700
65.720100 0.666400
65.778100 0.629100
65.836200 0.593900
65.894300 0.524200
65.952300 0.515300
66.010400 0.532000
66.068400 0.612600
66.126500 0.621300
66.184500 0.614100
66.242600 0.596400
66.300600 0.585500
66.358700 0.596900
66.416700 0.650300
66.474800 0.667100
66.532800 0.641900
66.590900 0.637000
66.648900 0.560800
66.707000 0.506800
66.765000 0.462900
66.823100 0.434100
66.881100 0.408300
66.939200 0.379100
66.997200 0.358100
67.055300 0.328300
67.113400 0.309700
67.171400 0.292100
67.229500 0.273000
67.287500 0.254600
67.345600 0.237500
67.403600 0.219600
67.461700 0.209000
67.519700 0.199300
67.577800 0.189800
67.635800 0.179500
67.693900 0.169600
67.751900 0.164900
67.810000 0.158400
67.868000 0.150800
67.926100 0.143800
67.984100 0.134100
68.042200 0.125100
68.100200 0.116400
68.158300 0.106800
68.216400 0.102000
68.274400 0.097300
68.332500 0.092600
68.390500 0.087900
68.448600 0.083300
68.506600 0.078300
68.564700 0.070400
68.622700 0.066300
68.680800 0.062400
68.738800 0.058500
68.796900 0.054800
68.854900 0.054800
68.913000 0.051200
68.971000 0.048100
69.029100 0.045400
69.087100 0.042900
69.145200 0.040500
69.203200 0.038600
69.261300 0.036800
69.319300 0.036800
69.377400 0.034800
69.435500 0.032900
69.493500 0.031100
69.551600 0.029400
69.609600 0.028100
69.667700 0.020600
69.725700 0.019700
69.783800 0.018700
69.841800 0.017800
69.899900 0.016900
69.957900 0.016000
70.016000 0.015100
70.074000 0.017100
70.132100 0.024100
70.190100 0.022200
70.248200 0.020300
70.306200 0.018300
70.364300 0.016400
70.422300 0.004400
70.480400 0.000000
70.538400 0.000000
70.596500 0.000000
70.654600 0.000000
70.712600 0.000000
70.770700 0.000000
70.828700 0.000000
70.886800 0.000000
70.944800 0.000000
71.002900 0.000000
71.060900 0.000000
71.119000 0.000000
71.177000 0.000000
71.235100 0.000000
71.293100 0.000000
71.351200 0.000000
71.409200 0.000000
71.467300 0.000000
71.525300 0.000000
71.583400 0.000000
71.641400 0.000000
71.699500 0.000000
71.757500 0.000000
71.815600 0.000000
71.873700 0.000000
71.931700 0.000000
71.989800 0.000000
72.047800 0.000000
72.105900 0.000000
72.163900 0.000000
72.222000 0.000000
72.280000 0.000000
72.338100 0.000000
72.396100 0.000000
72.454200 0.000000
72.512200 0.000000
72.570300 0.000000
72.628300 0.000000
72.686400 0.000000
72.744400 0.000000
72.802500 0.000000
72.860500 0.000000
72.918600 0.000000
72.976600 0.000000
73.034700 0.000000
73.092800 0.000000
73.150800 0.000000
73.208900 0.000000
73.266900 0.000000
73.325000 0.000000
73.383000 0.000000
73.441100 0.000000
73.499100 0.000000
73.557200 0.000000
73.615200 0.000000
73.673300 0.000000
73.731300 0.000000
73.789400 0.000000
73.847400 0.000000
73.905500 0.000000
73.963500 0.000000
74.021600 0.000000
74.079600 0.000000
74.137700 0.000000
74.195800 0.000000
74.253800 0.000000
74.311900 0.000000
74.369900 0.000000
74.428000 0.000000
74.486000 0.000000
74.544100 0.000000
74.602100 0.000000
74.660200 0.000000
74.718200 0.000000
74.776300 0.000000
74.834300 0.000000
74.892400 0.000000
74.950400 0.000000
75.008500 0.000000
75.066500 0.000000
75.124600 0.000000
75.182600 0.000000
75.240700 0.000000
75.298700 0.000000
75.356800 0.000000
75.414900 0.000000
75.472900 0.000000
75.531000 0.000000
75.589000 0.000000
75.647100 0.000000
75.705100 0.000000
75.763200 0.000000
e
