set title 'mp-1063678 - Density of States'
set xlabel 'Energy (eV)'
set ylabel 'DOS (states/eV)'
set grid
set xrange [-10:10]
set yrange [0:3.846]
set xzeroaxis lt -1
set terminal png size 800,600
set output 'mp-1063678_dos_gnuplot.png'
plot '-' using 1:2 with lines title 'DOS'
-17.085900 0.000000
-17.039500 0.000000
-16.993000 0.000000
-16.946600 0.000000
-16.900200 0.000000
-16.853800 0.000000
-16.807400 0.000000
-16.760900 0.000000
-16.714500 0.000000
-16.668100 0.000000
-16.621700 0.000000
-16.575300 0.000000
-16.528800 0.000000
-16.482400 0.000000
-16.436000 0.000000
-16.389600 0.000000
-16.343200 0.000000
-16.296700 0.000000
-16.250300 0.000000
-16.203900 0.000000
-16.157500 0.000000
-16.111100 0.000000
-16.064600 0.000000
-16.018200 0.000000
-15.971800 0.000000
-15.925400 0.000000
-15.879000 0.000000
-15.832600 0.000000
-15.786100 0.000000
-15.739700 0.000000
-15.693300 0.000000
-15.646900 0.000000
-15.600500 0.000000
-15.554000 0.000000
-15.507600 0.000000
-15.461200 0.000000
-15.414800 0.000000
-15.368400 0.000000
-15.321900 0.000000
-15.275500 0.000000
-15.229100 0.000000
-15.182700 0.000000
-15.136300 0.000000
-15.089800 0.000000
-15.043400 0.000000
-14.997000 0.000000
-14.950600 0.000000
-14.904200 0.000000
-14.857700 0.000000
-14.811300 0.000000
-14.764900 0.000000
-14.718500 0.000000
-14.672100 0.000000
-14.625600 0.000000
-14.579200 0.000000
-14.532800 0.000000
-14.486400 0.000000
-14.440000 0.000000
-14.393600 0.000000
-14.347100 0.000000
-14.300700 0.000000
-14.254300 0.000000
-14.207900 0.000000
-14.161500 0.000000
-14.115000 0.000000
-14.068600 0.000000
-14.022200 0.000000
-13.975800 0.000000
-13.929400 0.000000
-13.882900 0.000000
-13.836500 0.000000
-13.790100 0.000000
-13.743700 0.000000
-13.697300 0.000000
-13.650800 0.000000
-13.604400 0.000000
-13.558000 0.000000
-13.511600 0.000000
-13.465200 0.000000
-13.418700 0.000000
-13.372300 0.000000
-13.325900 0.000000
-13.279500 0.000000
-13.233100 0.000000
-13.186600 0.000000
-13.140200 0.000000
-13.093800 0.000000
-13.047400 0.000000
-13.001000 0.000000
-12.954600 0.000000
-12.908100 0.000000
-12.861700 0.000700
-12.815300 0.090900
-12.768900 0.140300
-12.722500 0.194700
-12.676000 0.217200
-12.629600 0.250100
-12.583200 0.288800
-12.536800 0.313500
-12.490400 0.344500
-12.443900 0.370400
-12.397500 0.402200
-12.351100 0.435600
-12.304700 0.462600
-12.258300 0.494700
-12.211800 0.527100
-12.165400 0.561500
-12.119000 0.599900
-12.072600 0.641100
-12.026200 0.679900
-11.979700 0.725000
-11.933300 0.774600
-11.886900 0.828100
-11.840500 0.888900
-11.794100 0.962000
-11.747600 1.041200
-11.701200 1.128200
-11.654800 1.234200
-11.608400 1.373400
-11.562000 1.558800
-11.515600 1.826500
-11.469100 2.242100
-11.422700 2.578200
-11.376300 2.952600
-11.329900 3.033500
-11.283500 3.094200
-11.237000 2.766900
-11.190600 1.967000
-11.144200 1.098300
-11.097800 0.916400
-11.051400 0.762600
-11.004900 0.650000
-10.958500 0.540900
-10.912100 0.447800
-10.865700 0.365200
-10.819300 0.271900
-10.772800 0.184700
-10.726400 0.000000
-10.680000 0.000000
-10.633600 0.000000
-10.587200 0.000000
-10.540700 0.000000
-10.494300 0.000000
-10.447900 0.000000
-10.401500 0.000000
-10.355100 0.000000
-10.308600 0.000000
-10.262200 0.000000
-10.215800 0.000000
-10.169400 0.000000
-10.123000 0.000000
-10.076600 0.000000
-10.030100 0.000000
-9.983700 0.000000
-9.937300 0.000000
-9.890900 0.000000
-9.844500 0.000000
-9.798000 0.000000
-9.751600 0.000000
-9.705200 0.000000
-9.658800 0.000000
-9.612400 0.000000
-9.565900 0.000000
-9.519500 0.000000
-9.473100 0.000000
-9.426700 0.000000
-9.380300 0.000000
-9.333800 0.000000
-9.287400 0.000000
-9.241000 0.000000
-9.194600 0.000000
-9.148200 0.000000
-9.101700 0.000000
-9.055300 0.000000
-9.008900 0.000000
-8.962500 0.000000
-8.916100 0.000000
-8.869700 0.000000
-8.823200 0.000000
-8.776800 0.000000
-8.730400 0.000000
-8.684000 0.000000
-8.637600 0.000000
-8.591100 0.000000
-8.544700 0.000000
-8.498300 0.000000
-8.451900 0.000000
-8.405500 0.000000
-8.359000 0.000000
-8.312600 0.000000
-8.266200 0.000000
-8.219800 0.000000
-8.173400 0.000000
-8.126900 0.000000
-8.080500 0.000000
-8.034100 0.000000
-7.987700 0.000000
-7.941300 0.000000
-7.894800 0.000000
-7.848400 0.000000
-7.802000 0.000000
-7.755600 0.000000
-7.709200 0.000000
-7.662700 0.000000
-7.616300 0.000000
-7.569900 0.000000
-7.523500 0.000000
-7.477100 0.000000
-7.430700 0.000000
-7.384200 0.000000
-7.337800 0.000000
-7.291400 0.000000
-7.245000 0.000000
-7.198600 0.000000
-7.152100 0.000000
-7.105700 0.000000
-7.059300 0.000000
-7.012900 0.000000
-6.966500 0.000000
-6.920000 0.000000
-6.873600 0.000000
-6.827200 0.000000
-6.780800 0.000000
-6.734400 0.000000
-6.687900 0.000000
-6.641500 0.000000
-6.595100 0.000000
-6.548700 0.000000
-6.502300 0.000000
-6.455800 0.000000
-6.409400 0.000000
-6.363000 0.000000
-6.316600 0.000000
-6.270200 0.000000
-6.223700 0.000000
-6.177300 0.000000
-6.130900 0.000000
-6.084500 0.000000
-6.038100 0.000000
-5.991700 0.000000
-5.945200 0.000000
-5.898800 0.000000
-5.852400 0.000000
-5.806000 0.000000
-5.759600 0.000000
-5.713100 0.000000
-5.666700 0.000000
-5.620300 0.000000
-5.573900 0.000000
-5.527500 0.000000
-5.481000 0.000000
-5.434600 0.000000
-5.388200 0.000000
-5.341800 0.000000
-5.295400 0.000000
-5.248900 0.000000
-5.202500 0.000000
-5.156100 0.000000
-5.109700 0.000000
-5.063300 0.142000
-5.016800 0.210500
-4.970400 0.287800
-4.924000 0.315700
-4.877600 0.357000
-4.831200 0.404000
-4.784700 0.451900
-4.738300 0.502100
-4.691900 0.552900
-4.645500 0.713700
-4.599100 0.856400
-4.552700 1.006200
-4.506200 1.176000
-4.459800 1.412200
-4.413400 1.552200
-4.367000 1.812800
-4.320600 2.004900
-4.274100 1.682200
-4.227700 1.582700
-4.181300 1.454400
-4.134900 1.374100
-4.088500 1.327100
-4.042000 1.289900
-3.995600 1.263900
-3.949200 1.224100
-3.902800 1.204400
-3.856400 1.184100
-3.809900 1.170600
-3.763500 1.199900
-3.717100 1.179100
-3.670700 1.100500
-3.624300 1.035400
-3.577800 0.875800
-3.531400 0.809700
-3.485000 0.781500
-3.438600 0.789800
-3.392200 0.826000
-3.345700 0.813200
-3.299300 0.831800
-3.252900 0.875600
-3.206500 0.967500
-3.160100 1.253100
-3.113700 1.173800
-3.067200 1.230200
-3.020800 1.249500
-2.974400 1.208000
-2.928000 1.212300
-2.881600 1.217300
-2.835100 1.205100
-2.788700 1.214900
-2.742300 1.223900
-2.695900 1.229600
-2.649500 1.220100
-2.603000 1.219400
-2.556600 1.232100
-2.510200 1.256800
-2.463800 1.288800
-2.417400 1.295600
-2.370900 1.302600
-2.324500 1.306000
-2.278100 1.312900
-2.231700 1.326100
-2.185300 1.338500
-2.138800 1.353300
-2.092400 1.386500
-2.046000 1.393100
-1.999600 1.425800
-1.953200 1.457900
-1.906700 1.421500
-1.860300 1.715700
-1.813900 1.719400
-1.767500 1.718900
-1.721100 1.814100
-1.674700 1.772500
-1.628200 1.789500
-1.581800 1.788000
-1.535400 1.821900
-1.489000 1.925000
-1.442600 2.117500
-1.396100 2.411400
-1.349700 2.883900
-1.303300 3.496500
-1.256900 2.205200
-1.210500 1.843300
-1.164000 1.618700
-1.117600 1.418700
-1.071200 1.273100
-1.024800 1.105000
-0.978400 0.963600
-0.931900 0.931800
-0.885500 0.914100
-0.839100 0.909000
-0.792700 0.916300
-0.746300 0.938200
-0.699800 0.983200
-0.653400 1.072700
-0.607000 1.257600
-0.560600 1.347100
-0.514200 1.233100
-0.467700 0.882800
-0.421300 0.656500
-0.374900 0.544800
-0.328500 0.475900
-0.282100 0.407400
-0.235700 0.366100
-0.189200 0.315800
-0.142800 0.283600
-0.096400 0.234700
-0.050000 0.209500
-0.003600 0.181900
0.042900 0.139100
0.089300 0.124900
0.135700 0.070100
0.182100 0.032200
0.228500 0.004200
0.275000 0.000000
0.321400 0.000000
0.367800 0.000000
0.414200 0.000000
0.460600 0.000000
0.507100 0.000000
0.553500 0.000000
0.599900 0.000000
0.646300 0.000000
0.692700 0.000000
0.739200 0.000000
0.785600 0.000000
0.832000 0.000000
0.878400 0.000000
0.924800 0.000000
0.971300 0.000000
1.017700 0.000000
1.064100 0.000000
1.110500 0.000000
1.156900 0.000000
1.203300 0.000000
1.249800 0.000000
1.296200 0.000000
1.342600 0.000000
1.389000 0.000000
1.435400 0.000000
1.481900 0.000000
1.528300 0.000000
1.574700 0.000000
1.621100 0.000000
1.667500 0.000000
1.714000 0.000000
1.760400 0.000000
1.806800 0.000000
1.853200 0.000000
1.899600 0.000000
1.946100 0.000000
1.992500 0.000000
2.038900 0.000000
2.085300 0.000000
2.131700 0.000000
2.178200 0.000000
2.224600 0.000000
2.271000 0.000000
2.317400 0.000000
2.363800 0.000000
2.410300 0.000000
2.456700 0.000000
2.503100 0.011900
2.549500 0.020000
2.595900 0.030000
2.642300 0.056200
2.688800 0.072800
2.735200 0.120400
2.781600 0.087600
2.828000 0.097400
2.874400 0.107400
2.920900 0.117400
2.967300 0.127600
3.013700 0.138400
3.060100 0.159200
3.106500 0.167800
3.153000 0.160000
3.199400 0.160400
3.245800 0.168700
3.292200 0.177900
3.338600 0.187300
3.385100 0.196800
3.431500 0.206300
3.477900 0.215400
3.524300 0.225100
3.570700 0.240400
3.617200 0.247500
3.663600 0.252000
3.710000 0.254100
3.756400 0.258300
3.802800 0.267700
3.849300 0.278200
3.895700 0.288800
3.942100 0.299800
3.988500 0.311100
4.034900 0.323000
4.081300 0.335400
4.127800 0.348400
4.174200 0.369500
4.220600 0.390900
4.267000 0.394000
4.313400 0.404800
4.359900 0.428800
4.406300 0.451500
4.452700 0.475100
4.499100 0.535200
4.545500 0.665000
4.592000 0.847300
4.638400 0.968900
4.684800 1.006100
4.731200 0.967500
4.777600 0.933700
4.824100 0.907500
4.870500 0.907000
4.916900 0.906300
4.963300 0.901500
5.009700 0.910000
5.056200 0.883300
5.102600 0.884800
5.149000 0.904500
5.195400 0.873000
5.241800 0.868900
5.288300 0.867700
5.334700 0.870800
5.381100 0.879400
5.427500 0.861700
5.473900 0.865900
5.520300 0.869800
5.566800 0.877900
5.613200 0.885100
5.659600 0.899700
5.706000 0.922200
5.752400 0.959200
5.798900 1.038900
5.845300 1.002700
5.891700 0.965500
5.938100 0.917300
5.984500 0.847900
6.031000 0.787800
6.077400 0.739300
6.123800 0.725500
6.170200 0.728600
6.216600 0.730500
6.263100 0.743000
6.309500 0.762200
6.355900 0.781200
6.402300 0.832700
6.448700 0.952400
6.495200 1.104400
6.541600 1.324700
6.588000 1.229000
6.634400 1.056800
6.680800 1.022300
6.727200 1.018000
6.773700 1.024100
6.820100 1.007000
6.866500 1.004700
6.912900 1.013500
6.959300 1.042400
7.005800 0.979700
7.052200 0.942100
7.098600 0.903100
7.145000 0.866300
7.191400 0.836100
7.237900 0.753600
7.284300 0.726500
7.330700 0.804700
7.377100 0.766700
7.423500 0.792100
7.470000 0.823500
7.516400 0.800200
7.562800 0.783400
7.609200 0.772900
7.655600 0.774300
7.702100 0.770200
7.748500 0.799000
7.794900 0.759900
7.841300 0.742300
7.887700 0.720100
7.934200 0.714300
7.980600 0.717900
8.027000 0.724400
8.073400 0.737800
8.119800 0.718900
8.166200 0.715500
8.212700 0.731700
8.259100 0.759600
8.305500 0.757900
8.351900 0.765100
8.398300 0.778100
8.444800 0.799000
8.491200 0.812800
8.537600 0.825200
8.584000 0.854000
8.630400 0.896900
8.676900 0.927100
8.723300 0.933300
8.769700 0.935000
8.816100 0.961300
8.862500 0.999400
8.909000 1.013400
8.955400 1.039300
9.001800 1.061500
9.048200 1.078300
9.094600 1.132900
9.141100 0.962300
9.187500 0.963000
9.233900 1.077800
9.280300 1.326400
9.326700 1.670700
9.373200 1.693700
9.419600 1.800500
9.466000 1.728200
9.512400 1.746300
9.558800 1.736600
9.605200 1.674300
9.651700 1.618900
9.698100 1.512300
9.744500 1.381600
9.790900 1.230700
9.837300 1.147400
9.883800 1.067500
9.930200 1.007000
9.976600 0.987000
10.023000 0.995600
10.069400 1.018700
10.115900 1.093300
10.162300 1.165300
10.208700 1.204300
10.255100 1.255600
10.301500 1.185400
10.348000 1.191200
10.394400 1.187300
10.440800 1.183800
10.487200 1.180100
10.533600 1.191600
10.580100 1.226800
10.626500 1.274000
10.672900 1.347900
10.719300 1.310700
10.765700 1.275700
10.812200 1.371900
10.858600 1.291600
10.905000 1.179700
10.951400 1.124100
10.997800 1.069200
11.044200 1.031700
11.090700 0.963900
11.137100 0.897900
11.183500 0.848600
11.229900 0.806200
11.276300 0.791800
11.322800 0.900200
11.369200 1.097200
11.415600 1.292500
11.462000 1.390700
11.508400 1.503300
11.554900 1.409200
11.601300 1.338600
11.647700 1.251400
11.694100 1.235400
11.740500 1.133100
11.787000 1.084900
11.833400 1.090900
11.879800 1.109900
11.926200 1.125700
11.972600 1.144200
12.019100 1.110200
12.065500 1.087300
12.111900 1.070500
12.158300 1.058400
12.204700 1.049900
12.251200 1.034600
12.297600 1.022200
12.344000 0.996100
12.390400 0.979400
12.436800 0.964500
12.483200 0.956100
12.529700 0.971200
12.576100 0.946300
12.622500 0.941800
12.668900 0.941900
12.715300 0.952200
12.761800 0.969200
12.808200 0.984000
12.854600 0.988100
12.901000 1.003700
12.947400 0.984700
12.993900 0.995200
13.040300 1.082000
13.086700 1.031500
13.133100 0.953400
13.179500 0.911000
13.226000 0.862700
13.272400 0.843800
13.318800 0.774900
13.365200 0.751500
13.411600 0.728200
13.458100 0.712100
13.504500 0.687200
13.550900 0.647700
13.597300 0.616200
13.643700 0.595100
13.690200 0.579400
13.736600 0.566700
13.783000 0.577800
13.829400 0.569200
13.875800 0.570500
13.922200 0.574400
13.968700 0.585500
14.015100 0.591800
14.061500 0.596200
14.107900 0.602800
14.154300 0.611800
14.200800 0.638800
14.247200 0.698400
14.293600 0.751200
14.340000 0.790700
14.386400 0.790900
14.432900 0.795300
14.479300 0.838400
14.525700 0.882200
14.572100 0.851100
14.618500 0.800600
14.665000 0.777100
14.711400 0.778000
14.757800 0.758600
14.804200 0.756600
14.850600 0.761900
14.897100 0.756400
14.943500 0.758900
14.989900 0.769400
15.036300 0.789900
15.082700 0.815600
15.129200 0.841700
15.175600 0.895400
15.222000 0.910100
15.268400 0.964900
15.314800 1.009000
15.361200 1.061500
15.407700 1.079300
15.454100 1.091400
15.500500 1.094100
15.546900 1.072400
15.593300 1.026700
15.639800 1.005500
15.686200 1.000200
15.732600 1.006100
15.779000 1.018400
15.825400 1.054100
15.871900 1.079700
15.918300 1.057600
15.964700 1.049900
16.011100 1.076500
16.057500 0.986400
16.104000 0.963000
16.150400 0.908300
16.196800 0.898100
16.243200 0.937800
16.289600 0.877000
16.336100 0.864600
16.382500 0.862800
16.428900 0.880700
16.475300 0.914500
16.521700 0.963900
16.568200 1.004400
16.614600 1.040100
16.661000 1.078700
16.707400 1.106200
16.753800 1.144400
16.800200 1.177200
16.846700 1.193100
16.893100 1.195800
16.939500 1.198600
16.985900 1.169800
17.032300 1.135200
17.078800 1.136900
17.125200 1.165100
17.171600 1.202100
17.218000 1.220800
17.264400 1.230400
17.310900 1.232100
17.357300 1.231900
17.403700 1.262800
17.450100 1.256900
17.496500 1.293000
17.543000 1.313100
17.589400 1.317900
17.635800 1.373000
17.682200 1.579700
17.728600 1.576100
17.775100 1.296100
17.821500 1.240800
17.867900 1.179000
17.914300 1.154300
17.960700 1.031700
18.007200 0.962500
18.053600 0.918000
18.100000 0.887200
18.146400 0.888200
18.192800 0.905400
18.239200 0.954700
18.285700 0.999300
18.332100 0.984600
18.378500 1.014100
18.424900 1.099800
18.471300 1.365900
18.517800 1.347400
18.564200 1.329900
18.610600 1.363700
18.657000 1.368500
18.703400 1.380600
18.749900 1.382800
18.796300 1.365400
18.842700 1.359000
18.889100 1.349300
18.935500 1.306700
18.982000 1.293300
19.028400 1.240300
19.074800 1.222200
19.121200 1.187600
19.167600 1.180800
19.214100 1.159300
19.260500 1.114900
19.306900 1.095700
19.353300 0.994200
19.399700 0.887900
19.446200 0.833300
19.492600 0.799300
19.539000 0.800000
19.585400 0.808200
19.631800 0.817500
19.678200 0.827400
19.724700 0.832100
19.771100 0.854400
19.817500 0.880800
19.863900 0.889900
19.910300 0.869800
19.956800 0.870700
20.003200 0.887800
20.049600 0.896800
20.096000 0.906900
20.142400 0.924700
20.188900 0.949100
20.235300 0.975100
20.281700 1.004500
20.328100 1.032300
20.374500 1.062000
20.421000 1.093700
20.467400 1.146800
20.513800 1.091500
20.560200 1.051200
20.606600 1.061300
20.653100 1.079500
20.699500 1.115500
20.745900 1.148100
20.792300 1.185600
20.838700 1.248600
20.885200 1.309600
20.931600 1.380500
20.978000 1.451100
21.024400 1.532700
21.070800 1.588300
21.117200 1.619300
21.163700 1.622500
21.210100 1.597300
21.256500 1.561800
21.302900 1.521400
21.349300 1.488900
21.395800 1.473800
21.442200 1.427000
21.488600 1.407400
21.535000 1.423400
21.581400 1.377200
21.627900 1.362500
21.674300 1.360900
21.720700 1.393000
21.767100 1.452500
21.813500 1.469400
21.860000 1.461100
21.906400 1.478800
21.952800 1.488400
21.999200 1.489700
22.045600 1.526000
22.092100 1.549100
22.138500 1.570600
22.184900 1.598300
22.231300 1.654500
22.277700 1.686600
22.324100 1.698000
22.370600 1.702700
22.417000 1.653400
22.463400 1.607000
22.509800 1.549100
22.556200 1.494700
22.602700 1.439700
22.649100 1.411300
22.695500 1.410400
22.741900 1.407000
22.788300 1.527400
22.834800 1.673200
22.881200 1.760800
22.927600 1.813400
22.974000 1.785900
23.020400 1.719400
23.066900 1.733200
23.113300 1.793000
23.159700 1.805500
23.206100 1.766100
23.252500 1.679200
23.299000 1.615000
23.345400 1.537500
23.391800 1.461500
23.438200 1.410300
23.484600 1.353700
23.531100 1.330800
23.577500 1.327200
23.623900 1.342400
23.670300 1.381900
23.716700 1.387900
23.763100 1.364300
23.809600 1.330100
23.856000 1.296800
23.902400 1.271700
23.948800 1.236400
23.995200 1.181800
24.041700 1.104800
24.088100 1.043300
24.134500 0.982900
24.180900 0.934600
24.227300 0.889600
24.273800 0.877600
24.320200 0.850500
24.366600 0.841000
24.413000 0.866700
24.459400 0.961900
24.505900 0.984900
24.552300 0.988800
24.598700 0.967700
24.645100 0.942200
24.691500 0.939000
24.738000 0.946400
24.784400 0.937700
24.830800 0.939600
24.877200 0.939700
24.923600 0.952500
24.970100 1.031000
25.016500 1.135600
25.062900 1.233900
25.109300 1.330200
25.155700 1.200100
25.202100 1.158100
25.248600 1.099600
25.295000 1.039900
25.341400 1.004600
25.387800 1.002700
25.434200 1.036600
25.480700 1.059600
25.527100 1.068800
25.573500 1.099700
25.619900 1.189400
25.666300 1.210400
25.712800 1.181300
25.759200 1.154400
25.805600 1.112600
25.852000 1.089800
25.898400 1.055300
25.944900 1.068900
25.991300 1.139300
26.037700 1.206600
26.084100 1.355800
26.130500 1.493700
26.177000 1.613700
26.223400 1.724700
26.269800 1.770400
26.316200 1.787600
26.362600 1.768800
26.409100 1.726700
26.455500 1.651200
26.501900 1.609700
26.548300 1.565300
26.594700 1.523800
26.641100 1.460300
26.687600 1.395700
26.734000 1.337800
26.780400 1.273700
26.826800 1.221900
26.873200 1.191800
26.919700 1.144000
26.966100 1.095600
27.012500 1.029900
27.058900 0.955300
27.105300 0.909100
27.151800 0.888800
27.198200 0.863800
27.244600 0.842700
27.291000 0.788900
27.337400 0.786600
27.383900 0.811900
27.430300 0.850600
27.476700 0.909000
27.523100 0.968300
27.569500 1.026500
27.616000 1.086300
27.662400 1.123200
27.708800 1.162900
27.755200 1.240700
27.801600 1.335500
27.848100 1.524200
27.894500 1.709800
27.940900 1.834000
27.987300 1.912900
28.033700 1.932800
28.080100 1.933400
28.126600 1.901200
28.173000 1.847500
28.219400 1.826500
28.265800 1.713300
28.312200 1.582900
28.358700 1.463900
28.405100 1.358600
28.451500 1.284400
28.497900 1.238300
28.544300 1.212200
28.590800 1.209700
28.637200 1.166800
28.683600 1.169000
28.730000 1.197800
28.776400 1.228800
28.822900 1.259500
28.869300 1.320800
28.915700 1.363900
28.962100 1.424100
29.008500 1.488700
29.055000 1.512200
29.101400 1.484900
29.147800 1.437300
29.194200 1.394100
29.240600 1.380400
29.287100 1.400400
29.333500 1.399000
29.379900 1.416400
29.426300 1.436900
29.472700 1.460200
29.519100 1.493200
29.565600 1.529700
29.612000 1.505200
29.658400 1.463200
29.704800 1.420700
29.751200 1.327700
29.797700 1.283900
29.844100 1.253800
29.890500 1.244600
29.936900 1.228000
29.983300 1.224400
30.029800 1.239500
30.076200 1.283400
30.122600 1.236000
30.169000 1.198100
30.215400 1.133500
30.261900 1.069700
30.308300 1.013600
30.354700 0.956700
30.401100 0.890200
30.447500 0.856700
30.494000 0.838300
30.540400 0.833000
30.586800 0.832100
30.633200 0.851100
30.679600 0.865200
30.726100 0.902000
30.772500 0.956200
30.818900 1.030300
30.865300 1.087300
30.911700 1.150400
30.958100 1.224800
31.004600 1.298300
31.051000 1.370000
31.097400 1.454100
31.143800 1.515300
31.190200 1.560600
31.236700 1.586300
31.283100 1.583500
31.329500 1.586900
31.375900 1.602200
31.422300 1.628500
31.468800 1.638600
31.515200 1.643100
31.561600 1.628500
31.608000 1.632800
31.654400 1.596200
31.700900 1.522200
31.747300 1.466800
31.793700 1.458100
31.840100 1.451600
31.886500 1.448900
31.933000 1.448300
31.979400 1.478500
32.025800 1.526700
32.072200 1.565600
32.118600 1.624700
32.165100 1.679400
32.211500 1.710200
32.257900 1.781600
32.304300 1.761500
32.350700 1.752000
32.397100 1.756800
32.443600 1.799200
32.490000 1.881000
32.536400 1.859200
32.582800 1.823300
32.629200 1.811000
32.675700 1.782400
32.722100 1.674300
32.768500 1.571600
32.814900 1.412800
32.861300 1.223400
32.907800 1.137500
32.954200 1.097400
33.000600 1.091400
33.047000 1.116000
33.093400 1.189600
33.139900 1.334600
33.186300 1.488900
33.232700 1.611700
33.279100 1.817700
33.325500 1.766700
33.372000 1.769700
33.418400 1.766100
33.464800 1.762800
33.511200 1.712900
33.557600 1.672600
33.604100 1.685700
33.650500 1.656300
33.696900 1.614800
33.743300 1.577500
33.789700 1.540700
33.836100 1.505400
33.882600 1.483100
33.929000 1.495500
33.975400 1.544100
34.021800 1.557100
34.068200 1.600100
34.114700 1.599700
34.161100 1.577000
34.207500 1.586000
34.253900 1.549000
34.300300 1.515200
34.346800 1.429000
34.393200 1.305500
34.439600 1.210800
34.486000 1.129400
34.532400 1.009500
34.578900 0.933000
34.625300 0.909200
34.671700 0.871000
34.718100 0.861200
34.764500 0.884800
34.811000 0.941700
34.857400 1.002800
34.903800 1.153600
34.950200 1.159900
34.996600 1.169800
35.043100 1.182600
35.089500 1.091600
35.135900 1.070700
35.182300 1.107800
35.228700 1.122800
35.275100 1.171700
35.321600 1.207000
35.368000 1.185600
35.414400 1.232500
35.460800 1.254200
35.507200 1.286400
35.553700 1.297600
35.600100 1.329100
35.646500 1.357800
35.692900 1.385600
35.739300 1.410100
35.785800 1.427900
35.832200 1.444500
35.878600 1.447100
35.925000 1.457400
35.971400 1.484100
36.017900 1.522500
36.064300 1.572800
36.110700 1.605600
36.157100 1.655500
36.203500 1.703300
36.250000 1.627000
36.296400 1.555400
36.342800 1.501800
36.389200 1.483100
36.435600 1.407300
36.482100 1.373600
36.528500 1.360700
36.574900 1.371800
36.621300 1.389900
36.667700 1.411600
36.714100 1.460300
36.760600 1.485800
36.807000 1.482200
36.853400 1.503400
36.899800 1.502500
36.946200 1.505000
36.992700 1.503100
37.039100 1.500900
37.085500 1.512400
37.131900 1.500300
37.178300 1.508800
37.224800 1.513600
37.271200 1.533200
37.317600 1.530900
37.364000 1.511200
37.410400 1.496000
37.456900 1.508800
37.503300 1.555700
37.549700 1.556800
37.596100 1.533200
37.642500 1.478100
37.689000 1.434400
37.735400 1.413400
37.781800 1.385600
37.828200 1.335800
37.874600 1.264300
37.921100 1.168500
37.967500 1.133200
38.013900 1.125900
38.060300 1.131100
38.106700 1.139500
38.153100 1.127600
38.199600 1.122500
38.246000 1.108000
38.292400 1.089600
38.338800 1.073400
38.385200 1.083400
38.431700 1.098000
38.478100 1.116700
38.524500 1.147900
38.570900 1.214100
38.617300 1.215900
38.663800 1.241700
38.710200 1.264800
38.756600 1.297300
38.803000 1.346700
38.849400 1.438800
38.895900 1.539700
38.942300 1.686500
38.988700 1.781400
39.035100 1.863900
39.081500 1.927600
39.128000 1.930000
39.174400 1.893900
39.220800 1.800000
39.267200 1.731100
39.313600 1.652000
39.360000 1.598500
39.406500 1.546800
39.452900 1.500900
39.499300 1.496600
39.545700 1.474200
39.592100 1.466000
39.638600 1.463200
39.685000 1.475500
39.731400 1.452000
39.777800 1.458200
39.824200 1.490000
39.870700 1.676300
39.917100 1.621900
39.963500 1.530300
40.009900 1.393100
40.056300 1.330000
40.102800 1.292800
40.149200 1.273300
40.195600 1.279400
40.242000 1.299400
40.288400 1.366000
40.334900 1.462900
40.381300 1.486400
40.427700 1.455400
40.474100 1.433900
40.520500 1.418000
40.567000 1.403700
40.613400 1.367600
40.659800 1.383700
40.706200 1.442800
40.752600 1.434000
40.799000 1.468200
40.845500 1.512300
40.891900 1.511600
40.938300 1.604100
40.984700 1.709500
41.031100 1.773200
41.077600 1.758200
41.124000 1.750900
41.170400 1.749200
41.216800 1.760500
41.263200 1.710000
41.309700 1.659500
41.356100 1.628400
41.402500 1.658800
41.448900 1.681900
41.495300 1.605700
41.541800 1.551300
41.588200 1.551700
41.634600 1.542200
41.681000 1.519000
41.727400 1.505600
41.773900 1.510200
41.820300 1.501100
41.866700 1.518400
41.913100 1.516500
41.959500 1.557700
42.006000 1.627800
42.052400 1.714400
42.098800 1.828300
42.145200 1.893000
42.191600 1.939700
42.238000 1.971700
42.284500 1.911100
42.330900 1.860800
42.377300 1.790900
42.423700 1.762000
42.470100 1.707900
42.516600 1.660700
42.563000 1.599600
42.609400 1.589700
42.655800 1.599000
42.702200 1.575800
42.748700 1.561900
42.795100 1.533900
42.841500 1.539000
42.887900 1.564000
42.934300 1.593300
42.980800 1.655000
43.027200 1.741300
43.073600 1.792300
43.120000 1.885900
43.166400 1.867200
43.212900 1.874400
43.259300 1.902600
43.305700 1.918700
43.352100 1.902000
43.398500 1.866700
43.445000 1.807500
43.491400 1.740800
43.537800 1.691500
43.584200 1.638300
43.630600 1.620200
43.677000 1.609900
43.723500 1.615200
43.769900 1.628800
43.816300 1.653800
43.862700 1.653200
43.909100 1.696300
43.955600 1.763300
44.002000 1.776700
44.048400 1.808800
44.094800 1.760500
44.141200 1.671700
44.187700 1.567700
44.234100 1.479000
44.280500 1.392800
44.326900 1.292500
44.373300 1.216900
44.419800 1.166900
44.466200 1.138700
44.512600 1.116200
44.559000 1.090100
44.605400 1.064400
44.651900 1.049500
44.698300 1.034200
44.744700 1.001800
44.791100 0.960000
44.837500 0.929300
44.884000 0.948700
44.930400 0.981500
44.976800 1.034300
45.023200 1.098000
45.069600 1.185300
45.116000 1.295700
45.162500 1.399000
45.208900 1.516600
45.255300 1.652100
45.301700 1.815200
45.348100 1.926800
45.394600 1.938600
45.441000 1.914100
45.487400 1.924200
45.533800 1.944600
45.580200 1.935400
45.626700 1.939800
45.673100 1.895900
45.719500 1.767800
45.765900 1.680200
45.812300 1.664400
45.858800 1.541000
45.905200 1.425600
45.951600 1.397900
45.998000 1.388300
46.044400 1.366300
46.090900 1.374200
46.137300 1.336400
46.183700 1.368900
46.230100 1.392400
46.276500 1.440200
46.323000 1.501900
46.369400 1.549300
46.415800 1.583700
46.462200 1.663500
46.508600 1.729100
46.555000 1.749700
46.601500 1.771100
46.647900 1.762400
46.694300 1.751300
46.740700 1.718900
46.787100 1.707400
46.833600 1.698900
46.880000 1.699200
46.926400 1.700900
46.972800 1.715000
47.019200 1.748200
47.065700 1.713200
47.112100 1.702100
47.158500 1.677500
47.204900 1.683700
47.251300 1.678600
47.297800 1.651400
47.344200 1.614700
47.390600 1.578700
47.437000 1.550000
47.483400 1.510800
47.529900 1.472300
47.576300 1.447400
47.622700 1.434300
47.669100 1.440200
47.715500 1.467200
47.762000 1.511100
47.808400 1.519300
47.854800 1.606100
47.901200 1.726500
47.947600 1.776800
47.994000 1.808600
48.040500 1.829200
48.086900 1.774300
48.133300 1.715400
48.179700 1.681600
48.226100 1.647500
48.272600 1.611300
48.319000 1.583900
48.365400 1.484400
48.411800 1.424300
48.458200 1.375800
48.504700 1.345000
48.551100 1.327200
48.597500 1.322200
48.643900 1.321600
48.690300 1.344300
48.736800 1.385100
48.783200 1.439600
48.829600 1.501300
48.876000 1.550000
48.922400 1.537600
48.968900 1.533300
49.015300 1.528000
49.061700 1.519000
49.108100 1.517900
49.154500 1.510800
49.201000 1.502200
49.247400 1.494300
49.293800 1.486900
49.340200 1.506600
49.386600 1.583300
49.433000 1.598600
49.479500 1.602100
49.525900 1.623600
49.572300 1.598000
49.618700 1.609700
49.665100 1.648300
49.711600 1.709200
49.758000 1.846700
49.804400 1.914100
49.850800 1.950700
49.897200 2.031800
49.943700 2.099800
49.990100 2.182800
50.036500 2.159600
50.082900 2.130200
50.129300 2.088400
50.175800 2.096100
50.222200 2.080400
50.268600 2.046700
50.315000 2.088500
50.361400 2.126600
50.407900 2.198800
50.454300 2.417500
50.500700 2.307900
50.547100 2.282300
50.593500 2.273900
50.640000 1.914000
50.686400 1.767200
50.732800 1.721600
50.779200 1.678700
50.825600 1.701700
50.872000 1.705300
50.918500 1.751800
50.964900 1.821600
51.011300 1.961300
51.057700 2.053800
51.104100 2.082900
51.150600 2.073400
51.197000 2.081800
51.243400 2.046600
51.289800 2.017000
51.336200 2.009800
51.382700 1.995600
51.429100 1.963200
51.475500 1.912700
51.521900 1.850100
51.568300 1.810300
51.614800 1.784700
51.661200 1.648500
51.707600 1.612400
51.754000 1.564700
51.800400 1.516500
51.846900 1.479900
51.893300 1.468200
51.939700 1.476000
51.986100 1.509700
52.032500 1.580400
52.079000 1.693600
52.125400 1.839400
52.171800 1.950400
52.218200 2.086200
52.264600 2.190600
52.311000 2.294300
52.357500 2.290800
52.403900 2.348000
52.450300 2.236400
52.496700 2.117600
52.543100 1.984100
52.589600 1.871300
52.636000 1.737200
52.682400 1.547100
52.728800 1.370700
52.775200 1.240300
52.821700 1.198000
52.868100 1.194800
52.914500 1.242400
52.960900 1.323100
53.007300 1.395900
53.053800 1.450200
53.100200 1.507100
53.146600 1.567400
53.193000 1.713900
53.239400 1.861600
53.285900 1.978600
53.332300 2.057700
53.378700 2.043600
53.425100 1.961700
53.471500 1.827300
53.518000 1.787900
53.564400 1.746900
53.610800 1.729900
53.657200 1.741400
53.703600 1.762900
53.750000 1.752800
53.796500 1.722200
53.842900 1.598100
53.889300 1.551400
53.935700 1.609800
53.982100 1.581900
54.028600 1.592400
54.075000 1.531100
54.121400 1.458800
54.167800 1.396900
54.214200 1.407400
54.260700 1.434200
54.307100 1.481800
54.353500 1.558800
54.399900 1.614400
54.446300 1.700000
54.492800 1.780000
54.539200 1.768700
54.585600 1.813800
54.632000 1.802000
54.678400 1.803400
54.724900 1.796900
54.771300 1.805000
54.817700 1.786100
54.864100 1.752300
54.910500 1.732400
54.956900 1.715500
55.003400 1.711100
55.049800 1.552200
55.096200 1.557100
55.142600 1.592800
55.189000 1.615400
55.235500 1.687000
55.281900 1.777400
55.328300 1.856200
55.374700 1.828700
55.421100 1.833300
55.467600 1.800100
55.514000 1.787100
55.560400 1.806400
55.606800 1.798000
55.653200 1.804500
55.699700 1.813000
55.746100 1.803400
55.792500 1.811400
55.838900 1.778400
55.885300 1.775700
55.931800 1.756400
55.978200 1.739300
56.024600 1.689700
56.071000 1.639400
56.117400 1.611300
56.163900 1.607200
56.210300 1.629900
56.256700 1.646700
56.303100 1.654500
56.349500 1.652500
56.395900 1.671700
56.442400 1.619500
56.488800 1.630900
56.535200 1.658600
56.581600 1.675200
56.628000 1.694000
56.674500 1.729800
56.720900 1.762500
56.767300 1.766800
56.813700 1.744700
56.860100 1.671300
56.906600 1.603400
56.953000 1.587400
56.999400 1.563100
57.045800 1.541000
57.092200 1.479600
57.138700 1.406200
57.185100 1.389000
57.231500 1.432200
57.277900 1.494300
57.324300 1.607100
57.370800 1.770100
57.417200 1.921400
57.463600 2.108200
57.510000 2.095500
57.556400 2.124000
57.602900 2.136100
57.649300 2.139000
57.695700 2.094900
57.742100 2.084500
57.788500 2.129300
57.834900 2.100700
57.881400 2.021600
57.927800 1.874600
57.974200 1.803600
58.020600 1.783600
58.067000 1.831200
58.113500 1.867300
58.159900 1.891200
58.206300 1.875500
58.252700 1.874100
58.299100 1.864700
58.345600 1.844800
58.392000 1.814800
58.438400 1.777100
58.484800 1.750500
58.531200 1.731700
58.577700 1.718600
58.624100 1.691800
58.670500 1.702200
58.716900 1.739900
58.763300 1.831200
58.809800 1.835500
58.856200 1.819900
58.902600 1.772500
58.949000 1.763500
58.995400 1.712000
59.041900 1.674400
59.088300 1.675900
59.134700 1.697500
59.181100 1.702000
59.227500 1.713100
59.273900 1.731900
59.320400 1.732400
59.366800 1.731800
59.413200 1.760800
59.459600 1.806600
59.506000 1.845200
59.552500 1.887600
59.598900 1.926800
59.645300 1.903600
59.691700 1.850200
59.738100 1.853300
59.784600 1.850100
59.831000 1.842100
59.877400 1.824200
59.923800 1.793300
59.970200 1.806300
60.016700 1.780000
60.063100 1.736800
60.109500 1.697900
60.155900 1.675900
60.202300 1.705100
60.248800 1.680500
60.295200 1.679500
60.341600 1.693000
60.388000 1.715300
60.434400 1.741500
60.480900 1.726200
60.527300 1.736800
60.573700 1.737800
60.620100 1.738600
60.666500 1.736100
60.712900 1.735400
60.759400 1.712900
60.805800 1.717500
60.852200 1.756000
60.898600 1.805400
60.945000 1.881200
60.991500 2.001500
61.037900 2.108500
61.084300 2.097100
61.130700 2.078500
61.177100 2.058000
61.223600 2.021200
61.270000 2.002600
61.316400 2.015000
61.362800 2.016100
61.409200 2.003300
61.455700 1.988600
61.502100 1.956900
61.548500 1.913200
61.594900 1.905700
61.641300 1.933800
61.687800 1.986800
61.734200 2.074800
61.780600 2.119000
61.827000 2.095300
61.873400 2.078300
61.919900 2.071500
61.966300 2.069800
62.012700 2.062200
62.059100 2.043900
62.105500 2.040700
62.151900 1.984800
62.198400 1.918900
62.244800 1.844300
62.291200 1.744000
62.337600 1.601200
62.384000 1.476400
62.430500 1.337800
62.476900 1.290500
62.523300 1.289400
62.569700 1.313200
62.616100 1.365700
62.662600 1.448100
62.709000 1.519800
62.755400 1.603400
62.801800 1.703600
62.848200 1.765100
62.894700 1.863200
62.941100 1.938300
62.987500 2.019400
63.033900 2.021800
63.080300 2.002700
63.126800 2.027200
63.173200 2.048900
63.219600 2.020200
63.266000 1.985100
63.312400 1.961000
63.358900 1.943300
63.405300 1.913000
63.451700 1.846400
63.498100 1.753600
63.544500 1.682900
63.590900 1.631700
63.637400 1.569800
63.683800 1.549000
63.730200 1.551600
63.776600 1.565900
63.823000 1.582400
63.869500 1.619100
63.915900 1.670200
63.962300 1.725600
64.008700 1.754000
64.055100 1.796500
64.101600 1.847900
64.148000 1.914600
64.194400 1.904800
64.240800 1.887000
64.287200 1.858600
64.333700 1.844600
64.380100 1.716400
64.426500 1.640300
64.472900 1.594500
64.519300 1.567200
64.565800 1.554500
64.612200 1.579100
64.658600 1.631000
64.705000 1.672400
64.751400 1.709400
64.797900 1.727100
64.844300 1.717800
64.890700 1.713400
64.937100 1.729900
64.983500 1.736400
65.029900 1.728000
65.076400 1.693400
65.122800 1.629000
65.169200 1.545500
65.215600 1.511500
65.262000 1.464700
65.308500 1.414300
65.354900 1.403200
65.401300 1.369600
65.447700 1.335500
65.494100 1.319900
65.540600 1.321800
65.587000 1.315000
65.633400 1.301400
65.679800 1.238500
65.726200 1.164400
65.772700 1.113000
65.819100 0.998700
65.865500 0.808400
65.911900 0.725900
65.958300 0.650600
66.004800 0.607600
66.051200 0.569300
66.097600 0.533100
66.144000 0.502500
66.190400 0.474300
66.236900 0.450800
66.283300 0.430900
66.329700 0.413400
66.376100 0.390800
66.422500 0.377600
66.468900 0.369100
66.515400 0.361200
66.561800 0.353400
66.608200 0.346600
66.654600 0.344700
66.701000 0.336800
66.747500 0.332000
66.793900 0.327300
66.840300 0.321400
66.886700 0.315300
66.933100 0.309900
66.979600 0.306900
67.026000 0.305900
67.072400 0.303100
67.118800 0.298800
67.165200 0.294300
67.211700 0.289700
67.258100 0.281700
67.304500 0.278600
67.350900 0.275300
67.397300 0.271400
67.443800 0.268000
67.490200 0.266400
67.536600 0.267000
67.583000 0.265000
67.629400 0.257200
67.675900 0.251900
67.722300 0.250000
67.768700 0.248100
67.815100 0.247600
67.861500 0.243600
67.907900 0.244400
67.954400 0.241600
68.000800 0.239600
68.047200 0.237100
68.093600 0.233300
68.140000 0.229800
68.186500 0.225300
68.232900 0.218500
68.279300 0.216600
68.325700 0.206700
68.372100 0.201800
68.418600 0.196300
68.465000 0.190800
68.511400 0.186000
68.557800 0.182700
68.604200 0.176300
68.650700 0.170100
68.697100 0.165200
68.743500 0.161000
68.789900 0.157400
68.836300 0.154200
68.882800 0.152100
68.929200 0.163700
68.975600 0.182200
69.022000 0.183000
69.068400 0.166600
69.114900 0.147800
69.161300 0.112100
69.207700 0.108000
69.254100 0.103400
69.300500 0.108400
69.346900 0.102600
69.393400 0.097900
69.439800 0.093200
69.486200 0.088000
69.532600 0.084100
69.579000 0.081100
69.625500 0.078100
69.671900 0.075200
69.718300 0.072400
69.764700 0.069500
69.811100 0.066600
69.857600 0.063700
69.904000 0.060700
69.950400 0.057700
69.996800 0.054800
70.043200 0.051900
70.089700 0.049000
70.136100 0.046000
70.182500 0.042900
70.228900 0.040100
70.275300 0.036900
70.321800 0.032000
70.368200 0.025800
70.414600 0.021800
70.461000 0.021200
70.507400 0.020500
70.553800 0.019900
70.600300 0.019400
70.646700 0.019200
70.693100 0.019100
70.739500 0.019400
70.785900 0.018800
70.832400 0.017800
70.878800 0.017500
70.925200 0.017300
70.971600 0.017000
71.018000 0.016700
71.064500 0.016400
71.110900 0.016100
71.157300 0.015700
71.203700 0.015300
71.250100 0.014900
71.296600 0.014500
71.343000 0.014000
71.389400 0.013500
71.435800 0.034200
71.482200 0.012200
71.528700 0.000700
71.575100 0.000000
71.621500 0.000000
71.667900 0.000000
71.714300 0.000000
71.760800 0.000000
71.807200 0.000000
71.853600 0.000000
71.900000 0.000000
71.946400 0.000000
71.992800 0.000000
72.039300 0.000000
72.085700 0.000000
72.132100 0.000000
72.178500 0.000000
72.224900 0.000000
72.271400 0.000000
72.317800 0.000000
72.364200 0.000000
72.410600 0.000000
72.457000 0.000000
72.503500 0.000000
72.549900 0.000000
72.596300 0.000000
72.642700 0.000000
72.689100 0.000000
72.735600 0.000000
72.782000 0.000000
72.828400 0.000000
72.874800 0.000000
72.921200 0.000000
72.967700 0.000000
73.014100 0.000000
73.060500 0.000000
73.106900 0.000000
73.153300 0.000000
73.199800 0.000000
73.246200 0.000000
73.292600 0.000000
73.339000 0.000000
73.385400 0.000000
73.431800 0.000000
73.478300 0.000000
73.524700 0.000000
73.571100 0.000000
73.617500 0.000000
73.663900 0.000000
73.710400 0.000000
73.756800 0.000000
73.803200 0.000000
73.849600 0.000000
73.896000 0.000000
73.942500 0.000000
73.988900 0.000000
74.035300 0.000000
74.081700 0.000000
74.128100 0.000000
74.174600 0.000000
74.221000 0.000000
74.267400 0.000000
74.313800 0.000000
74.360200 0.000000
74.406700 0.000000
74.453100 0.000000
74.499500 0.000000
74.545900 0.000000
74.592300 0.000000
74.638800 0.000000
74.685200 0.000000
74.731600 0.000000
74.778000 0.000000
74.824400 0.000000
74.870800 0.000000
74.917300 0.000000
74.963700 0.000000
75.010100 0.000000
75.056500 0.000000
75.102900 0.000000
75.149400 0.000000
75.195800 0.000000
75.242200 0.000000
75.288600 0.000000
75.335000 0.000000
75.381500 0.000000
75.427900 0.000000
75.474300 0.000000
75.520700 0.000000
75.567100 0.000000
75.613600 0.000000
75.660000 0.000000
75.706400 0.000000
75.752800 0.000000
e
