set title 'mp-104 - Density of States'
set xlabel 'Energy (eV)'
set ylabel 'DOS (states/eV)'
set grid
set xrange [-10:10]
set yrange [0:2.517]
set xzeroaxis lt -1
set terminal png size 800,600
set output 'mp-104_dos_gnuplot.png'
plot '-' using 1:2 with lines title 'DOS'
-7.176800 0.000000
-7.160800 0.000000
-7.144800 0.000000
-7.128800 0.000000
-7.112900 0.000000
-7.096900 0.000000
-7.080900 0.000000
-7.064900 0.000000
-7.048900 0.000000
-7.032900 0.000000
-7.016900 0.000000
-7.001000 0.000000
-6.985000 0.000000
-6.969000 0.000000
-6.953000 0.000000
-6.937000 0.000000
-6.921000 0.000000
-6.905100 0.000000
-6.889100 0.000000
-6.873100 0.000000
-6.857100 0.000000
-6.841100 0.000000
-6.825100 0.000000
-6.809100 0.000000
-6.793200 0.000000
-6.777200 0.000000
-6.761200 0.000000
-6.745200 0.000000
-6.729200 0.000000
-6.713200 0.000000
-6.697300 0.000000
-6.681300 0.000000
-6.665300 0.000000
-6.649300 0.000000
-6.633300 0.000000
-6.617300 0.000000
-6.601300 0.000000
-6.585400 0.000000
-6.569400 0.000000
-6.553400 0.000000
-6.537400 0.000000
-6.521400 0.000000
-6.505400 0.000000
-6.489500 0.000000
-6.473500 0.000000
-6.457500 0.000000
-6.441500 0.000000
-6.425500 0.000000
-6.409500 0.000000
-6.393500 0.000000
-6.377600 0.000000
-6.361600 0.000000
-6.345600 0.000000
-6.329600 0.000000
-6.313600 0.000000
-6.297600 0.000000
-6.281700 0.000000
-6.265700 0.000000
-6.249700 0.000000
-6.233700 0.000000
-6.217700 0.000000
-6.201700 0.000000
-6.185800 0.000000
-6.169800 0.000000
-6.153800 0.000000
-6.137800 0.000000
-6.121800 0.000000
-6.105800 0.000000
-6.089800 0.000000
-6.073900 0.000000
-6.057900 0.000000
-6.041900 0.000000
-6.025900 0.000000
-6.009900 0.000000
-5.993900 0.000000
-5.978000 0.000000
-5.962000 0.000000
-5.946000 0.000000
-5.930000 0.000000
-5.914000 0.000000
-5.898000 0.000000
-5.882000 0.000000
-5.866100 0.000000
-5.850100 0.000000
-5.834100 0.000000
-5.818100 0.000000
-5.802100 0.000000
-5.786100 0.000000
-5.770200 0.000000
-5.754200 0.000000
-5.738200 0.000000
-5.722200 0.000100
-5.706200 0.019800
-5.690200 0.072600
-5.674200 0.111600
-5.658300 0.114900
-5.642300 0.133100
-5.626300 0.152400
-5.610300 0.172500
-5.594300 0.189400
-5.578300 0.199700
-5.562400 0.207800
-5.546400 0.215300
-5.530400 0.226200
-5.514400 0.237800
-5.498400 0.249600
-5.482400 0.261500
-5.466400 0.271900
-5.450500 0.280700
-5.434500 0.290900
-5.418500 0.297900
-5.402500 0.305400
-5.386500 0.313200
-5.370500 0.320900
-5.354600 0.328500
-5.338600 0.336400
-5.322600 0.344900
-5.306600 0.353900
-5.290600 0.362000
-5.274600 0.369500
-5.258700 0.377300
-5.242700 0.385200
-5.226700 0.393000
-5.210700 0.400700
-5.194700 0.407300
-5.178700 0.413200
-5.162700 0.419900
-5.146800 0.426900
-5.130800 0.434100
-5.114800 0.441200
-5.098800 0.448400
-5.082800 0.455600
-5.066800 0.462500
-5.050900 0.469000
-5.034900 0.475700
-5.018900 0.482900
-5.002900 0.490100
-4.986900 0.497500
-4.970900 0.505000
-4.954900 0.512500
-4.939000 0.520000
-4.923000 0.526400
-4.907000 0.533200
-4.891000 0.540000
-4.875000 0.546700
-4.859000 0.553400
-4.843100 0.560300
-4.827100 0.567400
-4.811100 0.574600
-4.795100 0.581900
-4.779100 0.589300
-4.763100 0.596800
-4.747100 0.604400
-4.731200 0.612200
-4.715200 0.620100
-4.699200 0.628200
-4.683200 0.636500
-4.667200 0.644900
-4.651200 0.653500
-4.635300 0.662300
-4.619300 0.671200
-4.603300 0.680200
-4.587300 0.688700
-4.571300 0.697100
-4.555300 0.705900
-4.539300 0.716000
-4.523400 0.727100
-4.507400 0.738700
-4.491400 0.751500
-4.475400 0.765600
-4.459400 0.780700
-4.443400 0.797000
-4.427500 0.823100
-4.411500 0.851900
-4.395500 0.865800
-4.379500 0.864600
-4.363500 0.864000
-4.347500 0.876700
-4.331500 0.886700
-4.315600 0.886500
-4.299600 0.884700
-4.283600 0.886400
-4.267600 0.890300
-4.251600 0.896500
-4.235600 0.901800
-4.219700 0.905900
-4.203700 0.909000
-4.187700 0.911400
-4.171700 0.913200
-4.155700 0.914600
-4.139700 0.918800
-4.123800 0.922400
-4.107800 0.926100
-4.091800 0.932300
-4.075800 0.938200
-4.059800 0.944100
-4.043800 0.950000
-4.027800 0.955800
-4.011900 0.961700
-3.995900 0.964600
-3.979900 0.968600
-3.963900 0.974300
-3.947900 0.981700
-3.931900 0.989300
-3.916000 0.997500
-3.900000 1.006100
-3.884000 1.015400
-3.868000 1.025300
-3.852000 1.035400
-3.836000 1.045700
-3.820000 1.056300
-3.804100 1.067500
-3.788100 1.079100
-3.772100 1.091500
-3.756100 1.105500
-3.740100 1.121600
-3.724100 1.140400
-3.708200 1.162000
-3.692200 1.186600
-3.676200 1.214800
-3.660200 1.246800
-3.644200 1.291200
-3.628200 1.335500
-3.612200 1.384400
-3.596300 1.458600
-3.580300 1.540100
-3.564300 1.639200
-3.548300 1.708300
-3.532300 1.701200
-3.516300 1.644800
-3.500400 1.596600
-3.484400 1.563600
-3.468400 1.540100
-3.452400 1.499400
-3.436400 1.424700
-3.420400 1.318900
-3.404400 1.194400
-3.388500 1.115300
-3.372500 1.132900
-3.356500 1.092100
-3.340500 1.009700
-3.324500 0.929000
-3.308500 0.867300
-3.292600 0.826500
-3.276600 0.786600
-3.260600 0.745400
-3.244600 0.702700
-3.228600 0.657700
-3.212600 0.616100
-3.196600 0.578600
-3.180700 0.545400
-3.164700 0.517500
-3.148700 0.496600
-3.132700 0.478500
-3.116700 0.459600
-3.100700 0.440000
-3.084800 0.418200
-3.068800 0.397300
-3.052800 0.377800
-3.036800 0.358700
-3.020800 0.339000
-3.004800 0.317500
-2.988900 0.276300
-2.972900 0.228400
-2.956900 0.192700
-2.940900 0.156600
-2.924900 0.119900
-2.908900 0.082800
-2.892900 0.045200
-2.877000 0.013500
-2.861000 0.000000
-2.845000 0.000000
-2.829000 0.000000
-2.813000 0.000000
-2.797000 0.000000
-2.781100 0.000000
-2.765100 0.006900
-2.749100 0.026300
-2.733100 0.079800
-2.717100 0.151800
-2.701100 0.255100
-2.685100 0.370800
-2.669200 0.481900
-2.653200 0.580800
-2.637200 0.698700
-2.621200 0.729600
-2.605200 0.747400
-2.589200 0.745700
-2.573300 0.744400
-2.557300 0.746000
-2.541300 0.742600
-2.525300 0.755100
-2.509300 0.770200
-2.493300 0.840400
-2.477300 0.829100
-2.461400 0.825300
-2.445400 0.829800
-2.429400 0.826300
-2.413400 0.825800
-2.397400 0.831000
-2.381400 0.836400
-2.365500 0.841400
-2.349500 0.843900
-2.333500 0.845400
-2.317500 0.851000
-2.301500 0.856700
-2.285500 0.863500
-2.269500 0.873000
-2.253600 0.882000
-2.237600 0.890400
-2.221600 0.898400
-2.205600 0.904600
-2.189600 0.908300
-2.173600 0.911800
-2.157700 0.914600
-2.141700 0.919200
-2.125700 0.927600
-2.109700 0.936400
-2.093700 0.948000
-2.077700 0.960200
-2.061800 0.973400
-2.045800 0.985200
-2.029800 0.995100
-2.013800 1.041800
-1.997800 1.080300
-1.981800 1.121600
-1.965800 1.175300
-1.949900 1.255000
-1.933900 1.327200
-1.917900 1.376300
-1.901900 1.442200
-1.885900 1.568000
-1.869900 1.867100
-1.854000 1.769400
-1.838000 1.488400
-1.822000 1.374600
-1.806000 1.310600
-1.790000 1.255600
-1.774000 1.211200
-1.758000 1.183700
-1.742100 1.161100
-1.726100 1.138000
-1.710100 1.120800
-1.694100 1.106000
-1.678100 1.094200
-1.662100 1.094000
-1.646200 1.085000
-1.630200 1.068100
-1.614200 1.049200
-1.598200 1.030500
-1.582200 1.011100
-1.566200 0.994000
-1.550200 0.978400
-1.534300 0.963300
-1.518300 0.949100
-1.502300 0.941400
-1.486300 0.940300
-1.470300 0.946700
-1.454300 0.927200
-1.438400 0.918600
-1.422400 0.904200
-1.406400 0.883600
-1.390400 0.856800
-1.374400 0.824600
-1.358400 0.792600
-1.342400 0.770400
-1.326500 0.755200
-1.310500 0.740300
-1.294500 0.724900
-1.278500 0.708500
-1.262500 0.692600
-1.246500 0.676700
-1.230600 0.661900
-1.214600 0.647800
-1.198600 0.634200
-1.182600 0.621300
-1.166600 0.611400
-1.150600 0.603000
-1.134600 0.594500
-1.118700 0.585900
-1.102700 0.577000
-1.086700 0.567900
-1.070700 0.558400
-1.054700 0.547700
-1.038700 0.536600
-1.022800 0.526200
-1.006800 0.516100
-0.990800 0.508100
-0.974800 0.500900
-0.958800 0.493600
-0.942800 0.485700
-0.926900 0.477500
-0.910900 0.469300
-0.894900 0.460200
-0.878900 0.449300
-0.862900 0.438500
-0.846900 0.429300
-0.830900 0.423500
-0.815000 0.418800
-0.799000 0.414100
-0.783000 0.409400
-0.767000 0.404700
-0.751000 0.399900
-0.735000 0.395100
-0.719100 0.390100
-0.703100 0.385100
-0.687100 0.379900
-0.671100 0.374800
-0.655100 0.369400
-0.639100 0.363900
-0.623100 0.358200
-0.607200 0.352500
-0.591200 0.346700
-0.575200 0.340700
-0.559200 0.334400
-0.543200 0.327400
-0.527200 0.320500
-0.511300 0.314400
-0.495300 0.309100
-0.479300 0.304200
-0.463300 0.298900
-0.447300 0.291600
-0.431300 0.285700
-0.415300 0.280900
-0.399400 0.277300
-0.383400 0.274100
-0.367400 0.271000
-0.351400 0.267900
-0.335400 0.264700
-0.319400 0.261600
-0.303500 0.258500
-0.287500 0.255300
-0.271500 0.252100
-0.255500 0.248900
-0.239500 0.245600
-0.223500 0.242300
-0.207500 0.238900
-0.191600 0.235500
-0.175600 0.232000
-0.159600 0.228300
-0.143600 0.224600
-0.127600 0.220800
-0.111600 0.217100
-0.095700 0.213400
-0.079700 0.209700
-0.063700 0.206000
-0.047700 0.202400
-0.031700 0.198700
-0.015700 0.194300
0.000200 0.190200
0.016200 0.186400
0.032200 0.181300
0.048200 0.178000
0.064200 0.175200
0.080200 0.172600
0.096200 0.170300
0.112100 0.168100
0.128100 0.165800
0.144100 0.163600
0.160100 0.161400
0.176100 0.159200
0.192100 0.156900
0.208000 0.154700
0.224000 0.152500
0.240000 0.150300
0.256000 0.148000
0.272000 0.145800
0.288000 0.143500
0.304000 0.141200
0.319900 0.138900
0.335900 0.136600
0.351900 0.134200
0.367900 0.131600
0.383900 0.129000
0.399900 0.126400
0.415800 0.123800
0.431800 0.121300
0.447800 0.118900
0.463800 0.116400
0.479800 0.114100
0.495800 0.111700
0.511800 0.109400
0.527700 0.106700
0.543700 0.103400
0.559700 0.101600
0.575700 0.099900
0.591700 0.098100
0.607700 0.096300
0.623600 0.094600
0.639600 0.092800
0.655600 0.091100
0.671600 0.089400
0.687600 0.087700
0.703600 0.086000
0.719600 0.084300
0.735500 0.082600
0.751500 0.080900
0.767500 0.079200
0.783500 0.077600
0.799500 0.075900
0.815500 0.074200
0.831400 0.072500
0.847400 0.070800
0.863400 0.069100
0.879400 0.067400
0.895400 0.065700
0.911400 0.064000
0.927400 0.062200
0.943300 0.060500
0.959300 0.058800
0.975300 0.057100
0.991300 0.055400
1.007300 0.053800
1.023300 0.052100
1.039200 0.050400
1.055200 0.048700
1.071200 0.047100
1.087200 0.045400
1.103200 0.043800
1.119200 0.042200
1.135100 0.040600
1.151100 0.039000
1.167100 0.037400
1.183100 0.035900
1.199100 0.034300
1.215100 0.032800
1.231100 0.031300
1.247000 0.029900
1.263000 0.028400
1.279000 0.027300
1.295000 0.027700
1.311000 0.028600
1.327000 0.026200
1.342900 0.021800
1.358900 0.017700
1.374900 0.014100
1.390900 0.010900
1.406900 0.008100
1.422900 0.005700
1.438900 0.003800
1.454800 0.002200
1.470800 0.001100
1.486800 0.000300
1.502800 0.292400
1.518800 0.647200
1.534800 0.690600
1.550700 0.602800
1.566700 0.607100
1.582700 0.640000
1.598700 0.682500
1.614700 0.739000
1.630700 0.708400
1.646700 0.670600
1.662600 0.658800
1.678600 0.667900
1.694600 0.683900
1.710600 0.702400
1.726600 0.720100
1.742600 0.740300
1.758500 0.763600
1.774500 0.790800
1.790500 0.822200
1.806500 0.861700
1.822500 0.913900
1.838500 0.974400
1.854500 1.045000
1.870400 1.061300
1.886400 0.963200
1.902400 0.930200
1.918400 0.925700
1.934400 0.911800
1.950400 0.906400
1.966300 0.906200
1.982300 0.904300
1.998300 0.900600
2.014300 0.895100
2.030300 0.882000
2.046300 0.868800
2.062300 0.855600
2.078200 0.842500
2.094200 0.828000
2.110200 0.819600
2.126200 0.817700
2.142200 0.818200
2.158200 0.820800
2.174100 0.863900
2.190100 0.915500
2.206100 0.940000
2.222100 0.953400
2.238100 0.955800
2.254100 0.947900
2.270000 0.935500
2.286000 0.926400
2.302000 0.922400
2.318000 0.922000
2.334000 0.923100
2.350000 0.925500
2.366000 0.929400
2.381900 0.934700
2.397900 0.941600
2.413900 0.950200
2.429900 0.961200
2.445900 0.972900
2.461900 0.985000
2.477800 0.997500
2.493800 1.009700
2.509800 1.021500
2.525800 1.032400
2.541800 1.037800
2.557800 1.046700
2.573800 1.056700
2.589700 1.065400
2.605700 1.071500
2.621700 1.077100
2.637700 1.084400
2.653700 1.093200
2.669700 1.101000
2.685600 1.108700
2.701600 1.116600
2.717600 1.125300
2.733600 1.135600
2.749600 1.147400
2.765600 1.159700
2.781600 1.171000
2.797500 1.182200
2.813500 1.193900
2.829500 1.206900
2.845500 1.221700
2.861500 1.237000
2.877500 1.252100
2.893400 1.267400
2.909400 1.281800
2.925400 1.297600
2.941400 1.318800
2.957400 1.339900
2.973400 1.359300
2.989400 1.376800
3.005300 1.400300
3.021300 1.427800
3.037300 1.453800
3.053300 1.481600
3.069300 1.513000
3.085300 1.547800
3.101200 1.586800
3.117200 1.655600
3.133200 1.664700
3.149200 1.629300
3.165200 1.661200
3.181200 1.691200
3.197100 1.708800
3.213100 1.715400
3.229100 1.705100
3.245100 1.693600
3.261100 1.689400
3.277100 1.684000
3.293100 1.675600
3.309000 1.665700
3.325000 1.658000
3.341000 1.654400
3.357000 1.651600
3.373000 1.652000
3.389000 1.655100
3.404900 1.653200
3.420900 1.645900
3.436900 1.641300
3.452900 1.640400
3.468900 1.641800
3.484900 1.642800
3.500900 1.642500
3.516800 1.641900
3.532800 1.640300
3.548800 1.639400
3.564800 1.639400
3.580800 1.639800
3.596800 1.639800
3.612700 1.640300
3.628700 1.641500
3.644700 1.642200
3.660700 1.642700
3.676700 1.642800
3.692700 1.643100
3.708700 1.644000
3.724600 1.645200
3.740600 1.645200
3.756600 1.644500
3.772600 1.641800
3.788600 1.635700
3.804600 1.627200
3.820500 1.621700
3.836500 1.619300
3.852500 1.617300
3.868500 1.616300
3.884500 1.615500
3.900500 1.614400
3.916500 1.612100
3.932400 1.608200
3.948400 1.607600
3.964400 1.609800
3.980400 1.614400
3.996400 1.620100
4.012400 1.623800
4.028300 1.626000
4.044300 1.628300
4.060300 1.631600
4.076300 1.635000
4.092300 1.637300
4.108300 1.639900
4.124300 1.642900
4.140200 1.646100
4.156200 1.649900
4.172200 1.653500
4.188200 1.657800
4.204200 1.663800
4.220200 1.669200
4.236100 1.671700
4.252100 1.670400
4.268100 1.666500
4.284100 1.658500
4.300100 1.649100
4.316100 1.645700
4.332000 1.644100
4.348000 1.643400
4.364000 1.643300
4.380000 1.642000
4.396000 1.640700
4.412000 1.640500
4.428000 1.640600
4.443900 1.641000
4.459900 1.643800
4.475900 1.651900
4.491900 1.665200
4.507900 1.681400
4.523900 1.689200
4.539800 1.690500
4.555800 1.698400
4.571800 1.706900
4.587800 1.715300
4.603800 1.725100
4.619800 1.733500
4.635800 1.746600
4.651700 1.747800
4.667700 1.736200
4.683700 1.757100
4.699700 1.766000
4.715700 1.761900
4.731700 1.751900
4.747600 1.751100
4.763600 1.768400
4.779600 1.783400
4.795600 1.795400
4.811600 1.796700
4.827600 1.772500
4.843600 1.656900
4.859500 1.611800
4.875500 1.594000
4.891500 1.571100
4.907500 1.544200
4.923500 1.521900
4.939500 1.509900
4.955400 1.499200
4.971400 1.481900
4.987400 1.413500
5.003400 1.408700
5.019400 1.406600
5.035400 1.391100
5.051400 1.372700
5.067300 1.352100
5.083300 1.329600
5.099300 1.310100
5.115300 1.295900
5.131300 1.286500
5.147300 1.277200
5.163200 1.267100
5.179200 1.256000
5.195200 1.242700
5.211200 1.221000
5.227200 1.209100
5.243200 1.206300
5.259100 1.199300
5.275100 1.203700
5.291100 1.218800
5.307100 1.238100
5.323100 1.249600
5.339100 1.262300
5.355100 1.274600
5.371000 1.273100
5.387000 1.271100
5.403000 1.279900
5.419000 1.284400
5.435000 1.283600
5.451000 1.279300
5.466900 1.261800
5.482900 1.215600
5.498900 1.172800
5.514900 1.157500
5.530900 1.158700
5.546900 1.156100
5.562900 1.126500
5.578800 1.077400
5.594800 1.034200
5.610800 0.997400
5.626800 0.969300
5.642800 0.948900
5.658800 0.937300
5.674700 0.930200
5.690700 0.923500
5.706700 0.915300
5.722700 0.931300
5.738700 0.929100
5.754700 0.910100
5.770700 0.890500
5.786600 0.875200
5.802600 0.883400
5.818600 0.937800
5.834600 0.842700
5.850600 0.824800
5.866600 0.805600
5.882500 0.787000
5.898500 0.772500
5.914500 0.764800
5.930500 0.753200
5.946500 0.741400
5.962500 0.742300
5.978500 0.728700
5.994400 0.686900
6.010400 0.673200
6.026400 0.647800
6.042400 0.617500
6.058400 0.590600
6.074400 0.567500
6.090300 0.546500
6.106300 0.524200
6.122300 0.500500
6.138300 0.476700
6.154300 0.457800
6.170300 0.445200
6.186300 0.442400
6.202200 0.466700
6.218200 0.552000
6.234200 0.564500
6.250200 0.556100
6.266200 0.513200
6.282200 0.446900
6.298100 0.363000
6.314100 0.255400
6.330100 0.190800
6.346100 0.167100
6.362100 0.148100
6.378100 0.130300
6.394000 0.113900
6.410000 0.098700
6.426000 0.084900
6.442000 0.072300
6.458000 0.058300
6.474000 0.019700
6.490000 0.010000
6.505900 0.006800
6.521900 0.009200
6.537900 0.012500
6.553900 0.016300
6.569900 0.020500
6.585900 0.025100
6.601800 0.034500
6.617800 0.044300
6.633800 0.054400
6.649800 0.065300
6.665800 0.080000
6.681800 0.096100
6.697800 0.113600
6.713700 0.132400
6.729700 0.152700
6.745700 0.176900
6.761700 0.223000
6.777700 0.295900
6.793700 0.384300
6.809600 0.438100
6.825600 0.472200
6.841600 0.446500
6.857600 0.398500
6.873600 0.425700
6.889600 0.473400
6.905600 0.529000
6.921500 0.592400
6.937500 0.658700
6.953500 0.730800
6.969500 0.809800
6.985500 0.901700
7.001500 1.038300
7.017400 1.177900
7.033400 1.272400
7.049400 1.386100
7.065400 1.463500
7.081400 1.454500
7.097400 1.419200
7.113400 1.554200
7.129300 1.599700
7.145300 1.547500
7.161300 1.574000
7.177300 1.611900
7.193300 1.656300
7.209300 1.693500
7.225200 1.775800
7.241200 1.738000
7.257200 1.756400
7.273200 1.785400
7.289200 1.808200
7.305200 1.962600
7.321200 1.835100
7.337100 1.825000
7.353100 1.839500
7.369100 1.851600
7.385100 1.829900
7.401100 1.806500
7.417100 1.783300
7.433000 1.756100
7.449000 1.725600
7.465000 1.694100
7.481000 1.660200
7.497000 1.626600
7.513000 1.597900
7.528900 1.571400
7.544900 1.544700
7.560900 1.522400
7.576900 1.504700
7.592900 1.490400
7.608900 1.477700
7.624900 1.465900
7.640800 1.454800
7.656800 1.444000
7.672800 1.433700
7.688800 1.423600
7.704800 1.414200
7.720800 1.405100
7.736700 1.396400
7.752700 1.388700
7.768700 1.381900
7.784700 1.375500
7.800700 1.369300
7.816700 1.363500
7.832700 1.357800
7.848600 1.352100
7.864600 1.347100
7.880600 1.342800
7.896600 1.339300
7.912600 1.336500
7.928600 1.333800
7.944500 1.331700
7.960500 1.330000
7.976500 1.328800
7.992500 1.327700
8.008500 1.327300
8.024500 1.327500
8.040500 1.328300
8.056400 1.329800
8.072400 1.331600
8.088400 1.333800
8.104400 1.336200
8.120400 1.338900
8.136400 1.342100
8.152300 1.345700
8.168300 1.349800
8.184300 1.358400
8.200300 1.378200
8.216300 1.402500
8.232300 1.431100
8.248300 1.463500
8.264200 1.497300
8.280200 1.530100
8.296200 1.563600
8.312200 1.598200
8.328200 1.632900
8.344200 1.664600
8.360100 1.695700
8.376100 1.730900
8.392100 1.772100
8.408100 1.815600
8.424100 1.836700
8.440100 1.840600
8.456000 1.921200
8.472000 1.993800
8.488000 2.076200
8.504000 2.153900
8.520000 2.155300
8.536000 2.080200
8.552000 2.015500
8.567900 2.034200
8.583900 2.064500
8.599900 2.097200
8.615900 2.121300
8.631900 2.172800
8.647900 2.288100
8.663800 2.227700
8.679800 2.191500
8.695800 2.148700
8.711800 2.064200
8.727800 1.969800
8.743800 1.884700
8.759800 1.995300
8.775700 1.944400
8.791700 1.618000
8.807700 1.469300
8.823700 1.380400
8.839700 1.316900
8.855700 1.252000
8.871600 1.197900
8.887600 1.158800
8.903600 1.136000
8.919600 1.121800
8.935600 1.114600
8.951600 1.112700
8.967600 1.114700
8.983500 1.115000
8.999500 1.119900
9.015500 1.136700
9.031500 1.155600
9.047500 1.171800
9.063500 1.200300
9.079400 1.224800
9.095400 1.240200
9.111400 1.251700
9.127400 1.259100
9.143400 1.251300
9.159400 1.227000
9.175400 1.195700
9.191300 1.156600
9.207300 1.137100
9.223300 1.123800
9.239300 1.147800
9.255300 1.180800
9.271300 1.188200
9.287200 1.195500
9.303200 1.202500
9.319200 1.209100
9.335200 1.215300
9.351200 1.220700
9.367200 1.225800
9.383200 1.232500
9.399100 1.242700
9.415100 1.255400
9.431100 1.263600
9.447100 1.270600
9.463100 1.279500
9.479100 1.289500
9.495000 1.303000
9.511000 1.329900
9.527000 1.359300
9.543000 1.369500
9.559000 1.370800
9.575000 1.391600
9.590900 1.415900
9.606900 1.442700
9.622900 1.459600
9.638900 1.474300
9.654900 1.486500
9.670900 1.491200
9.686900 1.489700
9.702800 1.487200
9.718800 1.491500
9.734800 1.502500
9.750800 1.563900
9.766800 1.573000
9.782800 1.577200
9.798700 1.574900
9.814700 1.626800
9.830700 1.609000
9.846700 1.589400
9.862700 1.587200
9.878700 1.608800
9.894700 1.591800
9.910600 1.539400
9.926600 1.516500
9.942600 1.488500
9.958600 1.455900
9.974600 1.421700
9.990600 1.386200
10.006500 1.352300
10.022500 1.318800
10.038500 1.284900
10.054500 1.255500
10.070500 1.229900
10.086500 1.205500
10.102500 1.182000
10.118400 1.159200
10.134400 1.138600
10.150400 1.119500
10.166400 1.094900
10.182400 1.080900
10.198400 1.067600
10.214300 1.054200
10.230300 1.041100
10.246300 1.025500
10.262300 1.010200
10.278300 0.993600
10.294300 0.977400
10.310300 0.963300
10.326200 0.951100
10.342200 0.940300
10.358200 0.929800
10.374200 0.920500
10.390200 0.912100
10.406200 0.904000
10.422100 0.895900
10.438100 0.887500
10.454100 0.879000
10.470100 0.870700
10.486100 0.862700
10.502100 0.855000
10.518000 0.847700
10.534000 0.840000
10.550000 0.833200
10.566000 0.832500
10.582000 0.839100
10.598000 0.852600
10.614000 0.873100
10.629900 0.901200
10.645900 0.937100
10.661900 0.970600
10.677900 1.001200
10.693900 1.042000
10.709900 1.088400
10.725800 1.139500
10.741800 1.189800
10.757800 1.253900
10.773800 1.389000
10.789800 1.502800
10.805800 1.579100
10.821800 1.626700
10.837700 1.638100
10.853700 1.641800
10.869700 1.648900
10.885700 1.667900
10.901700 1.686000
10.917700 1.711000
10.933600 1.724400
10.949600 1.722400
10.965600 1.721800
10.981600 1.776200
10.997600 1.789500
11.013600 1.782000
11.029600 1.760100
11.045500 1.731900
11.061500 1.721400
11.077500 1.723200
11.093500 1.726600
11.109500 1.728900
11.125500 1.732200
11.141400 1.730400
11.157400 1.737200
11.173400 1.744600
11.189400 1.770200
11.205400 1.794400
11.221400 1.801900
11.237400 1.801500
11.253300 1.817200
11.269300 1.811900
11.285300 1.798000
11.301300 1.773700
11.317300 1.748000
11.333300 1.729700
11.349200 1.717700
11.365200 1.710600
11.381200 1.707700
11.397200 1.704000
11.413200 1.693300
11.429200 1.680200
11.445200 1.662200
11.461100 1.641000
11.477100 1.611300
11.493100 1.574000
11.509100 1.541300
11.525100 1.522500
11.541100 1.522900
11.557000 1.520700
11.573000 1.515000
11.589000 1.507600
11.605000 1.497900
11.621000 1.489100
11.637000 1.480200
11.652900 1.527800
11.668900 1.587400
11.684900 1.641500
11.700900 1.694600
11.716900 1.729000
11.732900 1.761500
11.748900 1.738800
11.764800 1.687800
11.780800 1.661800
11.796800 1.664000
11.812800 1.651400
11.828800 1.637300
11.844800 1.630600
11.860700 1.628700
11.876700 1.625400
11.892700 1.624100
11.908700 1.624400
11.924700 1.637600
11.940700 1.672500
11.956700 1.702100
11.972600 1.704500
11.988600 1.683300
12.004600 1.654100
12.020600 1.639600
12.036600 1.612300
12.052600 1.580100
12.068500 1.550500
12.084500 1.529200
12.100500 1.518300
12.116500 1.497200
12.132500 1.418700
12.148500 1.383100
12.164500 1.350800
12.180400 1.314500
12.196400 1.278000
12.212400 1.243700
12.228400 1.211400
12.244400 1.181500
12.260400 1.153700
12.276300 1.128000
12.292300 1.104600
12.308300 1.085600
12.324300 1.071300
12.340300 1.074200
12.356300 1.062900
12.372300 0.996300
12.388200 1.041800
12.404200 0.971600
12.420200 0.953700
12.436200 0.909500
12.452200 0.882900
12.468200 0.871100
12.484100 0.866800
12.500100 0.879300
12.516100 0.898500
12.532100 0.921000
12.548100 0.942500
12.564100 0.961300
12.580100 0.981000
12.596000 1.001200
12.612000 1.023800
12.628000 1.105000
12.644000 1.123800
12.660000 1.136500
12.676000 1.090900
12.691900 1.078700
12.707900 1.069700
12.723900 1.060400
12.739900 1.051400
12.755900 1.044200
12.771900 1.038500
12.787800 1.035300
12.803800 1.037700
12.819800 1.047000
12.835800 1.052900
12.851800 1.055400
12.867800 1.053900
12.883800 1.048300
12.899700 1.038900
12.915700 1.052100
12.931700 1.101700
12.947700 1.166600
12.963700 1.066000
12.979700 1.062700
12.995600 1.060700
13.011600 1.060400
13.027600 1.062900
13.043600 1.066800
13.059600 1.070900
13.075600 1.075000
13.091600 1.079600
13.107500 1.088600
13.123500 1.101400
13.139500 1.115100
13.155500 1.127400
13.171500 1.138100
13.187500 1.144200
13.203400 1.145800
13.219400 1.143300
13.235400 1.139900
13.251400 1.135700
13.267400 1.131300
13.283400 1.129400
13.299400 1.128600
13.315300 1.127900
13.331300 1.127300
13.347300 1.126600
13.363300 1.125200
13.379300 1.125400
13.395300 1.132700
13.411200 1.140100
13.427200 1.147200
13.443200 1.151800
13.459200 1.164700
13.475200 1.169800
13.491200 1.168700
13.507200 1.171100
13.523100 1.173700
13.539100 1.176000
13.555100 1.178200
13.571100 1.180200
13.587100 1.182300
13.603100 1.169700
13.619000 1.169600
13.635000 1.170500
13.651000 1.168100
13.667000 1.163300
13.683000 1.157500
13.699000 1.162400
13.714900 1.178100
13.730900 1.191200
13.746900 1.202100
13.762900 1.210900
13.778900 1.217400
13.794900 1.222800
13.810900 1.226500
13.826800 1.228400
13.842800 1.235900
13.858800 1.245700
13.874800 1.257700
13.890800 1.272400
13.906800 1.288400
13.922700 1.304300
13.938700 1.320000
13.954700 1.335500
13.970700 1.351700
13.986700 1.369300
14.002700 1.385900
14.018700 1.401500
14.034600 1.415000
14.050600 1.427000
14.066600 1.446800
14.082600 1.468600
14.098600 1.491900
14.114600 1.511800
14.130500 1.529700
14.146500 1.551100
14.162500 1.577100
14.178500 1.594000
14.194500 1.602000
14.210500 1.614200
14.226500 1.621700
14.242400 1.630300
14.258400 1.642500
14.274400 1.653800
14.290400 1.662700
14.306400 1.673200
14.322400 1.683700
14.338300 1.692800
14.354300 1.699100
14.370300 1.702400
14.386300 1.677800
14.402300 1.681400
14.418300 1.681300
14.434300 1.676600
14.450200 1.666500
14.466200 1.676900
14.482200 1.680300
14.498200 1.663300
14.514200 1.665600
14.530200 1.669900
14.546100 1.674300
14.562100 1.679600
14.578100 1.685900
14.594100 1.693300
14.610100 1.702100
14.626100 1.712900
14.642100 1.728600
14.658000 1.749700
14.674000 1.777000
14.690000 1.801200
14.706000 1.803000
14.722000 1.803200
14.738000 1.807000
14.753900 1.821700
14.769900 1.863500
14.785900 1.875700
14.801900 1.873700
14.817900 1.880000
14.833900 1.880200
14.849800 1.883700
14.865800 1.886800
14.881800 1.904400
14.897800 1.911700
14.913800 1.907300
14.929800 1.896000
14.945800 1.915700
14.961700 1.911500
14.977700 1.897900
14.993700 1.898400
15.009700 1.902300
15.025700 1.905200
15.041700 1.907900
15.057600 1.910000
15.073600 1.911400
15.089600 1.911700
15.105600 1.911800
15.121600 1.916500
15.137600 1.926600
15.153600 1.944500
15.169500 1.967400
15.185500 2.013900
15.201500 2.000500
15.217500 1.986300
15.233500 1.975100
15.249500 1.967300
15.265400 1.966100
15.281400 1.955800
15.297400 1.895900
15.313400 1.852800
15.329400 1.837400
15.345400 1.838400
15.361400 1.852100
15.377300 1.813500
15.393300 1.820300
15.409300 1.827700
15.425300 1.856200
15.441300 1.886500
15.457300 1.924500
15.473200 1.991000
15.489200 2.044800
15.505200 2.067000
15.521200 2.081000
15.537200 2.100600
15.553200 2.137100
15.569200 2.191400
15.585100 2.245700
15.601100 2.282000
15.617100 2.336100
15.633100 2.332900
15.649100 2.368900
15.665100 2.344800
15.681000 2.315500
15.697000 2.270100
15.713000 2.228400
15.729000 2.248500
15.745000 2.299600
15.761000 2.350900
15.776900 2.406400
15.792900 2.426100
15.808900 2.420000
15.824900 2.400200
15.840900 2.331400
15.856900 2.273100
15.872900 2.224200
15.888800 2.181400
15.904800 2.136700
15.920800 2.101500
15.936800 2.060600
15.952800 2.039900
15.968800 2.022300
15.984700 1.992700
16.000700 1.946200
16.016700 1.899600
16.032700 1.863300
16.048700 1.844500
16.064700 1.832300
16.080700 1.826300
16.096600 1.827400
16.112600 1.834500
16.128600 1.829900
16.144600 1.822400
16.160600 1.820500
16.176600 1.824000
16.192500 1.831600
16.208500 1.843900
16.224500 1.861500
16.240500 1.884800
16.256500 1.917600
16.272500 1.947400
16.288500 1.982600
16.304400 2.029400
16.320400 2.080000
16.336400 2.110000
16.352400 2.125200
16.368400 2.150200
16.384400 2.180400
16.400300 2.214100
16.416300 2.255000
16.432300 2.304600
16.448300 2.369800
16.464300 2.447600
16.480300 2.527200
16.496300 2.615800
16.512200 2.734800
16.528200 2.850800
16.544200 2.895700
16.560200 2.928000
16.576200 2.818300
16.592200 2.734700
16.608100 2.659500
16.624100 2.583300
16.640100 2.494100
16.656100 2.404200
16.672100 2.321300
16.688100 2.237900
16.704100 2.168400
16.720000 2.113600
16.736000 2.044100
16.752000 1.975200
16.768000 1.910500
16.784000 1.857900
16.800000 1.795400
16.815900 1.737300
16.831900 1.753400
16.847900 1.811700
16.863900 1.818900
16.879900 1.811900
16.895900 1.795600
16.911800 1.795300
16.927800 1.791600
16.943800 1.792600
16.959800 1.800900
16.975800 1.810500
16.991800 1.822200
17.007800 1.843100
17.023700 1.864200
17.039700 1.884100
17.055700 1.906300
17.071700 1.929300
17.087700 2.001500
17.103700 2.012600
17.119600 1.997700
17.135600 1.986200
17.151600 1.981900
17.167600 1.977700
17.183600 1.929800
17.199600 1.912400
17.215600 1.912900
17.231500 1.926800
17.247500 1.950300
17.263500 1.976800
17.279500 2.004500
17.295500 2.039600
17.311500 2.040900
17.327400 2.048500
17.343400 2.037100
17.359400 2.026000
17.375400 2.030000
17.391400 2.033100
17.407400 2.036300
17.423400 2.039600
17.439300 2.056300
17.455300 2.100500
17.471300 2.147000
17.487300 2.141600
17.503300 2.109000
17.519300 2.168600
17.535200 2.234000
17.551200 2.265600
17.567200 2.265800
17.583200 2.257800
17.599200 2.232000
17.615200 2.205500
17.631200 2.146500
17.647100 2.133000
17.663100 2.114100
17.679100 2.106900
17.695100 2.120500
17.711100 2.149800
17.727100 2.159600
17.743000 2.136400
17.759000 2.116200
17.775000 2.109800
17.791000 2.099600
17.807000 2.075200
17.823000 2.041500
17.839000 2.004600
17.854900 1.994200
17.870900 1.999200
17.886900 2.007700
17.902900 2.003800
17.918900 2.025000
17.934900 2.049700
17.950800 2.073700
17.966800 2.100500
17.982800 2.126900
17.998800 2.155200
18.014800 2.185600
18.030800 2.211800
18.046700 2.230600
18.062700 2.241300
18.078700 2.251400
18.094700 2.261300
18.110700 2.268100
18.126700 2.274000
18.142700 2.286600
18.158600 2.267500
18.174600 2.249900
18.190600 2.229000
18.206600 2.221500
18.222600 2.182500
18.238600 2.165800
18.254500 2.137000
18.270500 2.078300
18.286500 2.019100
18.302500 2.041300
18.318500 1.999600
18.334500 2.000500
18.350500 2.002700
18.366400 1.999200
18.382400 1.989100
18.398400 1.974700
18.414400 1.958600
18.430400 1.952900
18.446400 1.956900
18.462300 1.964200
18.478300 1.979000
18.494300 2.007900
18.510300 2.045700
18.526300 2.088800
18.542300 2.091700
18.558300 2.066800
18.574200 2.088100
18.590200 2.105700
18.606200 2.116000
18.622200 2.132600
18.638200 2.156000
18.654200 2.186100
18.670100 2.222000
18.686100 2.264100
18.702100 2.294300
18.718100 2.313800
18.734100 2.326000
18.750100 2.336500
18.766100 2.376500
18.782000 2.394000
18.798000 2.416500
18.814000 2.434500
18.830000 2.439600
18.846000 2.471300
18.862000 2.491300
18.877900 2.482500
18.893900 2.477200
18.909900 2.491000
18.925900 2.476100
18.941900 2.448400
18.957900 2.440300
18.973800 2.435300
18.989800 2.430500
19.005800 2.418100
19.021800 2.404400
19.037800 2.388400
19.053800 2.374400
19.069800 2.354000
19.085700 2.326700
19.101700 2.293600
19.117700 2.257600
19.133700 2.232400
19.149700 2.197600
19.165700 2.153200
19.181600 2.113500
19.197600 2.074200
19.213600 2.037900
19.229600 2.001800
19.245600 1.971700
19.261600 1.943500
19.277600 1.913400
19.293500 1.879900
19.309500 1.846000
19.325500 1.809600
19.341500 1.771000
19.357500 1.736800
19.373500 1.710900
19.389400 1.698100
19.405400 1.700900
19.421400 1.700000
19.437400 1.704100
19.453400 1.783500
19.469400 1.804800
19.485400 1.800600
19.501300 1.772800
19.517300 1.704700
19.533300 1.676000
19.549300 1.653400
19.565300 1.636400
19.581300 1.607900
19.597200 1.571400
19.613200 1.534700
19.629200 1.499200
19.645200 1.463800
19.661200 1.437700
19.677200 1.418700
19.693200 1.403100
19.709100 1.388700
19.725100 1.374300
19.741100 1.359200
19.757100 1.348700
19.773100 1.370700
19.789100 1.387000
19.805000 1.375700
19.821000 1.348200
19.837000 1.318100
19.853000 1.289000
19.869000 1.262500
19.885000 1.237900
19.901000 1.205800
19.916900 1.162000
19.932900 1.114100
19.948900 1.067300
19.964900 1.022000
19.980900 0.978900
19.996900 0.941100
20.012800 0.908000
20.028800 0.876300
20.044800 0.845800
20.060800 0.816600
20.076800 0.786300
20.092800 0.759100
20.108700 0.736700
20.124700 0.715200
20.140700 0.695500
20.156700 0.675500
20.172700 0.647300
20.188700 0.616600
20.204700 0.586900
20.220600 0.557700
20.236600 0.528800
20.252600 0.503600
20.268600 0.480700
20.284600 0.458400
20.300600 0.436500
20.316500 0.415300
20.332500 0.395000
20.348500 0.375700
20.364500 0.357600
20.380500 0.356400
20.396500 0.331900
20.412500 0.308500
20.428400 0.285900
20.444400 0.264100
20.460400 0.242900
20.476400 0.227200
20.492400 0.212200
20.508400 0.197500
20.524300 0.183100
20.540300 0.169000
20.556300 0.157700
20.572300 0.149600
20.588300 0.142200
20.604300 0.135600
20.620300 0.129600
20.636200 0.124200
20.652200 0.119300
20.668200 0.114400
20.684200 0.109600
20.700200 0.104900
20.716200 0.100200
20.732100 0.095500
20.748100 0.090900
20.764100 0.086300
20.780100 0.081800
20.796100 0.077300
20.812100 0.072900
20.828100 0.068700
20.844000 0.064600
20.860000 0.060800
20.876000 0.057200
20.892000 0.053900
20.908000 0.050800
20.924000 0.048100
20.939900 0.046100
20.955900 0.044700
20.971900 0.044100
20.987900 0.043700
21.003900 0.043200
21.019900 0.042800
21.035800 0.042400
21.051800 0.041900
21.067800 0.041500
21.083800 0.041100
21.099800 0.040600
21.115800 0.040200
21.131800 0.039800
21.147700 0.039400
21.163700 0.039000
21.179700 0.038600
21.195700 0.038200
21.211700 0.037800
21.227700 0.037400
21.243600 0.037100
21.259600 0.036800
21.275600 0.036500
21.291600 0.036200
21.307600 0.036000
21.323600 0.035700
21.339600 0.036400
21.355500 0.036800
21.371500 0.037100
21.387500 0.037100
21.403500 0.036700
21.419500 0.036300
21.435500 0.035800
21.451400 0.035300
21.467400 0.034800
21.483400 0.034300
21.499400 0.033900
21.515400 0.033400
21.531400 0.032900
21.547400 0.032500
21.563300 0.032000
21.579300 0.031600
21.595300 0.031100
21.611300 0.030700
21.627300 0.030200
21.643300 0.029800
21.659200 0.029300
21.675200 0.028900
21.691200 0.028500
21.707200 0.028000
21.723200 0.027600
21.739200 0.027200
21.755200 0.026800
21.771100 0.026400
21.787100 0.026000
21.803100 0.025600
21.819100 0.025200
21.835100 0.024800
21.851100 0.024400
21.867000 0.024000
21.883000 0.023600
21.899000 0.023200
21.915000 0.022800
21.931000 0.022500
21.947000 0.022100
21.963000 0.021700
21.978900 0.021400
21.994900 0.021000
22.010900 0.020600
22.026900 0.020300
22.042900 0.019900
22.058900 0.019600
22.074800 0.019300
22.090800 0.018900
22.106800 0.018600
22.122800 0.018300
22.138800 0.017900
22.154800 0.017600
22.170700 0.017300
22.186700 0.017000
22.202700 0.016700
22.218700 0.016300
22.234700 0.016000
22.250700 0.015700
22.266700 0.015400
22.282600 0.015200
22.298600 0.014900
22.314600 0.014600
22.330600 0.014500
22.346600 0.014400
22.362600 0.014300
22.378500 0.014400
22.394500 0.014500
22.410500 0.014700
22.426500 0.015000
22.442500 0.015300
22.458500 0.015800
22.474500 0.016300
22.490400 0.016800
22.506400 0.017500
22.522400 0.019200
22.538400 0.023100
22.554400 0.029200
22.570400 0.034900
22.586300 0.029300
22.602300 0.011000
22.618300 0.008100
22.634300 0.007700
22.650300 0.007400
22.666300 0.007000
22.682300 0.006700
22.698200 0.006400
22.714200 0.006100
22.730200 0.005700
22.746200 0.005400
22.762200 0.005200
22.778200 0.004900
22.794100 0.004600
22.810100 0.004300
22.826100 0.004100
22.842100 0.003800
22.858100 0.003600
22.874100 0.003400
22.890100 0.003100
22.906000 0.002900
22.922000 0.002700
22.938000 0.002500
22.954000 0.002300
22.970000 0.002100
22.986000 0.001900
23.001900 0.001800
23.017900 0.001600
23.033900 0.001400
23.049900 0.001300
23.065900 0.001200
23.081900 0.001000
23.097900 0.000900
23.113800 0.000800
23.129800 0.000700
23.145800 0.000600
23.161800 0.000500
23.177800 0.000400
23.193800 0.000300
23.209700 0.000300
23.225700 0.000200
23.241700 0.000100
23.257700 0.000100
23.273700 0.000100
23.289700 0.000000
23.305600 0.000000
23.321600 0.000000
23.337600 0.000000
23.353600 0.000000
23.369600 0.000000
23.385600 0.000000
23.401600 0.000000
23.417500 0.000000
23.433500 0.000000
23.449500 0.000000
23.465500 0.000000
23.481500 0.000000
23.497500 0.000000
23.513400 0.000000
23.529400 0.000000
23.545400 0.000000
23.561400 0.000000
23.577400 0.000000
23.593400 0.000000
23.609400 0.000000
23.625300 0.000000
23.641300 0.000000
23.657300 0.000000
23.673300 0.000000
23.689300 0.000000
23.705300 0.000000
23.721200 0.000000
23.737200 0.000000
23.753200 0.000000
23.769200 0.000000
23.785200 0.000000
23.801200 0.000000
23.817200 0.000000
23.833100 0.000000
23.849100 0.000000
23.865100 0.000000
23.881100 0.000000
23.897100 0.000000
23.913100 0.000000
23.929000 0.000000
23.945000 0.000000
23.961000 0.000000
23.977000 0.000000
23.993000 0.000000
24.009000 0.000000
24.025000 0.000000
24.040900 0.000000
24.056900 0.000000
24.072900 0.000000
24.088900 0.000000
24.104900 0.000000
24.120900 0.000000
24.136800 0.000000
24.152800 0.000000
24.168800 0.000000
24.184800 0.000000
24.200800 0.000000
24.216800 0.000000
24.232700 0.000000
24.248700 0.000000
24.264700 0.000000
24.280700 0.000000
24.296700 0.000000
24.312700 0.000000
24.328700 0.000000
24.344600 0.000000
24.360600 0.000000
24.376600 0.000000
24.392600 0.000000
24.408600 0.000000
24.424600 0.000000
24.440500 0.000000
24.456500 0.000000
24.472500 0.000000
24.488500 0.000000
24.504500 0.000000
24.520500 0.000000
24.536500 0.000000
24.552400 0.000000
24.568400 0.000000
24.584400 0.000000
24.600400 0.000000
24.616400 0.000000
24.632400 0.000000
24.648300 0.000000
24.664300 0.000000
24.680300 0.000000
24.696300 0.000000
24.712300 0.000000
24.728300 0.000000
24.744300 0.000000
24.760200 0.000000
24.776200 0.000000
24.792200 0.000000
e
