set title 'mp-1216519 - Density of States'
set xlabel 'Energy (eV)'
set ylabel 'DOS (states/eV)'
set grid
set xrange [-10:10]
set yrange [0:75.036]
set xzeroaxis lt -1
set terminal png size 800,600
set output 'mp-1216519_dos_gnuplot.png'
plot '-' using 1:2 with lines title 'DOS'
-10.550600 0.000000
-10.522500 0.000000
-10.494500 0.000000
-10.466400 0.000000
-10.438400 0.000000
-10.410300 0.000000
-10.382300 0.000000
-10.354300 0.000000
-10.326200 0.000000
-10.298200 0.000000
-10.270100 0.000000
-10.242100 0.000000
-10.214000 0.000000
-10.186000 0.000000
-10.157900 0.000000
-10.129900 0.000000
-10.101800 0.000000
-10.073800 0.000000
-10.045700 0.000000
-10.017700 0.000000
-9.989700 0.000000
-9.961600 0.000000
-9.933600 0.000000
-9.905500 0.000000
-9.877500 0.000000
-9.849400 0.000000
-9.821400 0.000000
-9.793300 0.000000
-9.765300 0.000000
-9.737200 0.000000
-9.709200 0.000000
-9.681200 0.000000
-9.653100 0.000000
-9.625100 0.000000
-9.597000 0.000000
-9.569000 0.000000
-9.540900 0.000000
-9.512900 0.000000
-9.484800 0.000000
-9.456800 0.000000
-9.428700 0.000000
-9.400700 0.000000
-9.372700 0.000000
-9.344600 0.000000
-9.316600 0.000000
-9.288500 0.000000
-9.260500 0.000000
-9.232400 0.000000
-9.204400 0.000000
-9.176300 0.000000
-9.148300 0.000000
-9.120200 0.000000
-9.092200 0.000000
-9.064100 0.000000
-9.036100 0.000000
-9.008100 0.000000
-8.980000 0.000000
-8.952000 0.000000
-8.923900 0.000000
-8.895900 0.000000
-8.867800 0.000000
-8.839800 0.000000
-8.811700 0.000000
-8.783700 0.000000
-8.755600 0.000000
-8.727600 0.000000
-8.699600 0.000000
-8.671500 0.000000
-8.643500 0.000000
-8.615400 0.000000
-8.587400 0.000000
-8.559300 0.000000
-8.531300 0.000000
-8.503200 0.000000
-8.475200 0.000000
-8.447100 0.000000
-8.419100 0.000000
-8.391000 0.000000
-8.363000 0.000000
-8.335000 0.000000
-8.306900 0.000000
-8.278900 0.000000
-8.250800 0.000000
-8.222800 0.000000
-8.194700 0.000000
-8.166700 0.000000
-8.138600 0.000000
-8.110600 0.000000
-8.082500 0.000000
-8.054500 0.000000
-8.026500 0.000000
-7.998400 0.318700
-7.970400 6.715000
-7.942300 6.706600
-7.914300 7.306400
-7.886200 11.906200
-7.858200 16.715300
-7.830100 11.877900
-7.802100 9.789600
-7.774000 26.893100
-7.746000 33.499100
-7.717900 13.741400
-7.689900 4.968700
-7.661900 24.387600
-7.633800 16.200200
-7.605800 15.040800
-7.577700 68.214800
-7.549700 21.566600
-7.521600 27.645300
-7.493600 6.267000
-7.465500 8.124700
-7.437500 9.374000
-7.409400 10.242500
-7.381400 6.450400
-7.353400 5.156500
-7.325300 2.521200
-7.297300 0.000000
-7.269200 0.000000
-7.241200 0.000000
-7.213100 0.000000
-7.185100 0.000000
-7.157000 0.000000
-7.129000 0.000000
-7.100900 0.000000
-7.072900 0.000000
-7.044900 0.000000
-7.016800 0.000000
-6.988800 0.000000
-6.960700 0.000000
-6.932700 0.000000
-6.904600 0.000000
-6.876600 0.000000
-6.848500 0.000000
-6.820500 0.000000
-6.792400 0.000000
-6.764400 0.000000
-6.736300 0.000000
-6.708300 0.000000
-6.680300 0.000000
-6.652200 0.000000
-6.624200 0.000000
-6.596100 0.000000
-6.568100 0.000000
-6.540000 0.000000
-6.512000 0.000000
-6.483900 0.000000
-6.455900 0.000000
-6.427800 0.000000
-6.399800 0.000000
-6.371800 0.000000
-6.343700 0.000000
-6.315700 0.000000
-6.287600 0.000000
-6.259600 0.000000
-6.231500 0.000000
-6.203500 0.000000
-6.175400 0.000000
-6.147400 0.000000
-6.119300 0.000000
-6.091300 0.000000
-6.063200 0.000000
-6.035200 0.000000
-6.007200 0.000000
-5.979100 0.000000
-5.951100 0.000000
-5.923000 0.000000
-5.895000 0.000000
-5.866900 0.000000
-5.838900 0.000000
-5.810800 0.000000
-5.782800 0.000000
-5.754700 0.000000
-5.726700 0.000000
-5.698700 0.000000
-5.670600 0.000000
-5.642600 0.000000
-5.614500 0.000000
-5.586500 0.000000
-5.558400 0.000000
-5.530400 0.000000
-5.502300 0.000000
-5.474300 0.000000
-5.446200 0.000000
-5.418200 0.000000
-5.390100 0.000000
-5.362100 0.000000
-5.334100 0.000000
-5.306000 0.000000
-5.278000 0.000000
-5.249900 0.000000
-5.221900 0.000000
-5.193800 0.000000
-5.165800 0.000000
-5.137700 0.000000
-5.109700 0.011200
-5.081600 0.039500
-5.053600 0.079200
-5.025600 0.124000
-4.997500 0.137000
-4.969500 0.142400
-4.941400 0.157800
-4.913400 0.171200
-4.885300 0.183700
-4.857300 0.198600
-4.829200 0.214000
-4.801200 0.230000
-4.773100 0.246000
-4.745100 0.259700
-4.717100 0.271200
-4.689000 0.281300
-4.661000 0.290600
-4.632900 0.300000
-4.604900 0.311300
-4.576800 0.326400
-4.548800 0.342300
-4.520700 0.358900
-4.492700 0.376100
-4.464600 0.394800
-4.436600 0.435900
-4.408500 0.467900
-4.380500 0.477300
-4.352500 0.456200
-4.324400 0.464700
-4.296400 0.472900
-4.268300 0.476400
-4.240300 0.480700
-4.212200 0.484200
-4.184200 0.487200
-4.156100 0.487500
-4.128100 0.487300
-4.100000 0.488300
-4.072000 0.492700
-4.044000 0.499200
-4.015900 0.506300
-3.987900 0.513800
-3.959800 0.521700
-3.931800 0.530200
-3.903700 0.539200
-3.875700 0.548700
-3.847600 0.558800
-3.819600 0.570500
-3.791500 0.582500
-3.763500 0.594700
-3.735400 0.607200
-3.707400 0.621000
-3.679400 0.638300
-3.651300 0.659700
-3.623300 0.686700
-3.595200 0.724400
-3.567200 0.771500
-3.539100 0.832100
-3.511100 0.910600
-3.483000 1.026200
-3.455000 1.157800
-3.426900 1.362900
-3.398900 1.653800
-3.370900 3.352400
-3.342800 6.163200
-3.314800 5.510200
-3.286700 4.581900
-3.258700 4.048200
-3.230600 4.633800
-3.202600 7.723200
-3.174500 13.579200
-3.146500 12.464700
-3.118400 11.305100
-3.090400 10.371100
-3.062300 9.271800
-3.034300 7.095000
-3.006300 4.163500
-2.978200 2.487000
-2.950200 3.917900
-2.922100 21.765600
-2.894100 5.593000
-2.866000 6.188900
-2.838000 6.535400
-2.809900 9.479300
-2.781900 11.203300
-2.753800 13.606100
-2.725800 12.912300
-2.697800 14.689200
-2.669700 17.093300
-2.641700 20.742300
-2.613600 17.809400
-2.585600 14.223800
-2.557500 15.170700
-2.529500 13.781000
-2.501400 6.027100
-2.473400 6.013300
-2.445300 5.008700
-2.417300 4.492800
-2.389300 4.417100
-2.361200 4.170200
-2.333200 3.687200
-2.305100 3.346600
-2.277100 3.675100
-2.249000 3.354300
-2.221000 1.501800
-2.192900 0.854900
-2.164900 0.843900
-2.136800 0.841900
-2.108800 0.842600
-2.080700 0.844200
-2.052700 0.846500
-2.024700 0.849500
-1.996600 0.853200
-1.968600 0.832900
-1.940500 0.803000
-1.912500 0.778000
-1.884400 0.766100
-1.856400 0.759100
-1.828300 0.754300
-1.800300 0.752200
-1.772200 0.751800
-1.744200 0.752000
-1.716200 0.751500
-1.688100 0.750600
-1.660100 0.750000
-1.632000 0.748800
-1.604000 0.751500
-1.575900 0.755000
-1.547900 0.759100
-1.519800 0.763900
-1.491800 0.769200
-1.463700 0.774600
-1.435700 0.781200
-1.407600 0.788400
-1.379600 0.795700
-1.351600 0.803300
-1.323500 0.810600
-1.295500 0.816100
-1.267400 0.821600
-1.239400 0.830300
-1.211300 0.841200
-1.183300 0.853800
-1.155200 0.867700
-1.127200 0.883000
-1.099100 0.963700
-1.071100 1.040600
-1.043100 1.045800
-1.015000 1.029200
-0.987000 1.010500
-0.958900 1.002700
-0.930900 0.994300
-0.902800 0.993300
-0.874800 0.994500
-0.846700 0.995200
-0.818700 0.995100
-0.790600 0.994900
-0.762600 0.995300
-0.734600 0.994200
-0.706500 0.991200
-0.678500 0.987600
-0.650400 0.995400
-0.622400 1.018000
-0.594300 1.044500
-0.566300 1.016500
-0.538200 0.978000
-0.510200 0.947800
-0.482100 0.890000
-0.454100 0.844500
-0.426000 0.823800
-0.398000 0.809500
-0.370000 0.799200
-0.341900 0.797000
-0.313900 0.809100
-0.285800 0.862000
-0.257800 0.854300
-0.229700 0.731700
-0.201700 0.709500
-0.173600 0.643500
-0.145600 0.577000
-0.117500 0.510900
-0.089500 0.446000
-0.061500 0.425200
-0.033400 0.438200
-0.005400 0.445800
0.022700 0.448200
0.050700 0.445300
0.078800 0.445300
0.106800 0.460200
0.134900 0.469100
0.162900 0.462700
0.191000 0.457000
0.219000 0.453600
0.247100 0.452600
0.275100 0.453800
0.303100 0.456700
0.331200 0.459400
0.359200 0.461400
0.387300 0.462800
0.415300 0.464000
0.443400 0.465100
0.471400 0.466200
0.499500 0.467100
0.527500 0.468000
0.555600 0.469400
0.583600 0.472500
0.611600 0.475600
0.639700 0.478300
0.667700 0.481200
0.695800 0.485700
0.723800 0.491000
0.751900 0.497200
0.779900 0.504400
0.808000 0.512600
0.836000 0.521800
0.864100 0.532100
0.892100 0.544800
0.920200 0.563400
0.948200 0.605500
0.976200 0.666800
1.004300 0.736400
1.032300 0.794700
1.060400 0.824900
1.088400 0.822900
1.116500 0.869000
1.144500 0.920700
1.172600 0.953900
1.200600 0.958500
1.228700 0.967500
1.256700 0.951600
1.284700 0.929800
1.312800 0.918800
1.340800 0.913000
1.368900 0.912700
1.396900 0.916000
1.425000 0.921100
1.453000 0.929200
1.481100 0.940400
1.509100 0.954800
1.537200 0.972300
1.565200 1.004200
1.593200 1.039800
1.621300 1.078400
1.649300 1.111200
1.677400 1.097800
1.705400 1.052500
1.733500 1.015400
1.761500 0.998200
1.789600 1.022300
1.817600 1.076200
1.845700 1.074600
1.873700 1.055900
1.901800 0.913500
1.929800 0.628200
1.957800 0.495500
1.985900 0.371400
2.013900 0.257600
2.042000 0.180300
2.070000 0.118500
2.098100 0.070400
2.126100 0.046100
2.154200 0.091600
2.182200 0.138300
2.210300 0.174000
2.238300 0.198400
2.266300 0.216600
2.294400 0.230800
2.322400 0.238400
2.350500 0.243000
2.378500 0.246300
2.406600 0.250900
2.434600 0.258300
2.462700 0.267500
2.490700 0.277200
2.518800 0.287200
2.546800 0.296700
2.574900 0.302000
2.602900 0.296300
2.630900 0.307500
2.659000 0.318600
2.687000 0.329600
2.715100 0.340800
2.743100 0.352100
2.771200 0.363500
2.799200 0.375800
2.827300 0.389300
2.855300 0.404100
2.883400 0.420200
2.911400 0.436900
2.939400 0.454600
2.967500 0.473100
2.995500 0.501700
3.023600 0.512200
3.051600 0.516800
3.079700 0.531900
3.107700 0.553000
3.135800 0.569900
3.163800 0.586700
3.191900 0.603300
3.219900 0.619100
3.248000 0.634800
3.276000 0.649600
3.304000 0.663400
3.332100 0.676200
3.360100 0.688200
3.388200 0.699900
3.416200 0.713800
3.444300 0.728700
3.472300 0.744800
3.500400 0.762400
3.528400 0.780500
3.556500 0.798900
3.584500 0.817900
3.612500 0.846900
3.640600 0.875500
3.668600 0.898900
3.696700 0.921100
3.724700 0.945800
3.752800 0.973400
3.780800 1.038500
3.808900 1.026000
3.836900 1.038900
3.865000 1.018600
3.893000 1.035400
3.921000 1.067000
3.949100 1.123300
3.977100 1.137200
4.005200 1.136300
4.033200 1.121200
4.061300 1.106700
4.089300 1.100000
4.117400 1.098300
4.145400 1.094600
4.173500 1.088900
4.201500 1.082100
4.229600 1.070800
4.257600 1.086300
4.285600 1.137400
4.313700 1.160500
4.341700 1.184900
4.369800 1.212400
4.397800 1.231700
4.425900 1.239600
4.453900 1.244000
4.482000 1.249500
4.510000 1.248100
4.538100 1.236700
4.566100 1.214400
4.594100 1.193400
4.622200 1.168000
4.650200 1.145700
4.678300 1.121800
4.706300 1.091500
4.734400 1.057600
4.762400 1.027500
4.790500 1.005000
4.818500 0.982100
4.846600 0.966600
4.874600 0.952900
4.902700 0.938000
4.930700 0.921700
4.958700 0.912200
4.986800 0.915200
5.014800 0.913300
5.042900 0.908700
5.070900 0.900300
5.099000 0.888200
5.127000 0.906900
5.155100 0.900200
5.183100 0.908300
5.211200 0.917500
5.239200 0.931100
5.267200 0.953400
5.295300 1.010700
5.323300 0.981900
5.351400 0.853900
5.379400 0.808800
5.407500 0.818000
5.435500 0.829000
5.463600 0.840000
5.491600 0.850700
5.519700 0.861400
5.547700 0.872500
5.575700 0.884400
5.603800 0.896500
5.631800 0.913400
5.659900 0.933300
5.687900 0.940100
5.716000 0.943400
5.744000 0.951800
5.772100 0.949100
5.800100 0.929100
5.828200 0.905500
5.856200 0.891700
5.884300 0.878800
5.912300 0.866600
5.940300 0.861300
5.968400 0.862400
5.996400 0.866700
6.024500 0.874200
6.052500 0.879200
6.080600 0.883000
6.108600 0.889900
6.136700 0.899500
6.164700 0.910700
6.192800 0.921300
6.220800 0.930500
6.248800 0.938500
6.276900 0.945000
6.304900 0.948200
6.333000 0.948600
6.361000 0.948000
6.389100 0.947400
6.417100 0.949200
6.445200 0.958100
6.473200 0.968800
6.501300 0.979600
6.529300 0.997600
6.557400 1.012900
6.585400 1.025800
6.613400 1.034300
6.641500 1.042100
6.669500 1.051200
6.697600 1.058500
6.725600 1.065200
6.753700 1.098400
6.781700 1.094500
6.809800 1.068200
6.837800 1.067800
6.865900 1.067500
6.893900 1.068500
6.921900 1.071300
6.950000 1.074200
6.978000 1.077100
7.006100 1.080000
7.034100 1.082300
7.062200 1.084400
7.090200 1.088200
7.118300 1.095100
7.146300 1.102300
7.174400 1.114400
7.202400 1.112000
7.230500 1.123500
7.258500 1.125300
7.286500 1.116100
7.314600 1.093100
7.342600 1.074400
7.370700 1.055800
7.398700 1.049700
7.426800 1.044800
7.454800 1.041300
7.482900 1.039100
7.510900 1.038200
7.539000 1.038500
7.567000 1.040500
7.595000 1.039700
7.623100 1.037400
7.651100 1.033700
7.679200 1.028800
7.707200 1.022900
7.735300 1.028800
7.763300 1.047900
7.791400 1.055100
7.819400 1.054800
7.847500 1.060300
7.875500 1.067300
7.903500 1.079600
7.931600 1.097300
7.959600 1.117800
7.987700 1.138900
8.015700 1.150700
8.043800 1.155300
8.071800 1.158500
8.099900 1.166300
8.127900 1.183400
8.156000 1.199800
8.184000 1.215600
8.212100 1.233600
8.240100 1.250600
8.268100 1.265500
8.296200 1.279500
8.324200 1.291700
8.352300 1.300800
8.380300 1.444300
8.408400 1.378300
8.436400 1.383100
8.464500 1.358100
8.492500 1.357900
8.520600 1.361000
8.548600 1.368200
8.576600 1.391300
8.604700 1.422000
8.632700 1.454900
8.660800 1.484100
8.688800 1.510900
8.716900 1.557300
8.744900 1.595500
8.773000 1.623700
8.801000 1.624400
8.829100 1.607300
8.857100 1.592700
8.885200 1.576800
8.913200 1.562300
8.941200 1.547800
8.969300 1.533500
8.997300 1.523300
9.025400 1.512700
9.053400 1.508600
9.081500 1.501500
9.109500 1.484300
9.137600 1.458800
9.165600 1.426300
9.193700 1.389400
9.221700 1.362900
9.249700 1.345700
9.277800 1.332900
9.305800 1.317600
9.333900 1.300300
9.361900 1.320300
9.390000 1.287200
9.418000 1.281600
9.446100 1.283800
9.474100 1.295400
9.502200 1.315800
9.530200 1.330800
9.558300 1.337700
9.586300 1.327300
9.614300 1.302200
9.642400 1.301700
9.670400 1.314200
9.698500 1.327900
9.726500 1.298000
9.754600 1.266700
9.782600 1.245700
9.810700 1.218800
9.838700 1.205000
9.866800 1.206600
9.894800 1.210700
9.922800 1.217300
9.950900 1.212500
9.978900 1.201000
10.007000 1.198100
10.035000 1.205100
10.063100 1.212300
10.091100 1.204700
10.119200 1.184600
10.147200 1.185600
10.175300 1.187800
10.203300 1.192100
10.231300 1.199100
10.259400 1.209700
10.287400 1.224900
10.315500 1.241200
10.343500 1.256800
10.371600 1.269700
10.399600 1.280600
10.427700 1.289100
10.455700 1.298200
10.483800 1.266000
10.511800 1.254900
10.539900 1.250400
10.567900 1.245100
10.595900 1.239000
10.624000 1.227000
10.652000 1.211300
10.680100 1.195400
10.708100 1.179200
10.736200 1.162600
10.764200 1.146900
10.792300 1.142300
10.820300 1.139500
10.848400 1.137300
10.876400 1.135400
10.904400 1.133900
10.932500 1.132800
10.960500 1.133500
10.988600 1.134900
11.016600 1.137000
11.044700 1.139900
11.072700 1.143000
11.100800 1.145700
11.128800 1.147900
11.156900 1.149900
11.184900 1.150800
11.213000 1.149300
11.241000 1.146200
11.269000 1.142300
11.297100 1.139500
11.325100 1.137400
11.353200 1.135500
11.381200 1.134500
11.409300 1.130200
11.437300 1.125200
11.465400 1.119400
11.493400 1.114400
11.521500 1.110800
11.549500 1.107700
11.577500 1.105400
11.605600 1.099800
11.633600 1.093800
11.661700 1.088400
11.689700 1.083700
11.717800 1.079700
11.745800 1.075800
11.773900 1.069400
11.801900 1.062900
11.830000 1.057200
11.858000 1.052700
11.886100 1.049900
11.914100 1.047700
11.942100 1.045400
11.970200 1.043000
11.998200 1.040800
12.026300 1.038900
12.054300 1.038200
12.082400 1.039600
12.110400 1.043200
12.138500 1.059600
12.166500 1.089900
12.194600 1.039300
12.222600 1.032600
12.250600 1.024900
12.278700 1.149800
12.306700 1.097100
12.334800 1.087400
12.362800 1.070200
12.390900 1.057400
12.418900 1.052300
12.447000 1.047500
12.475000 1.044600
12.503100 1.042600
12.531100 1.038600
12.559100 1.030600
12.587200 1.025500
12.615200 1.003000
12.643300 0.999700
12.671300 1.000000
12.699400 1.002000
12.727400 1.002500
12.755500 1.009100
12.783500 1.018500
12.811600 1.034700
12.839600 1.069100
12.867700 1.123800
12.895700 1.152400
12.923700 1.148900
12.951800 1.130000
12.979800 1.126300
13.007900 1.136600
13.035900 1.157100
13.064000 1.177500
13.092000 1.189600
13.120100 1.191400
13.148100 1.192200
13.176200 1.202400
13.204200 1.215900
13.232200 1.232500
13.260300 1.251600
13.288300 1.415700
13.316400 1.297000
13.344400 1.299700
13.372500 1.292800
13.400500 1.292200
13.428600 1.267200
13.456600 1.254600
13.484700 1.248600
13.512700 1.248600
13.540800 1.249100
13.568800 1.262100
13.596800 1.283200
13.624900 1.310200
13.652900 1.337500
13.681000 1.365900
13.709000 1.395800
13.737100 1.424800
13.765100 1.458500
13.793200 1.488800
13.821200 1.510200
13.849300 1.528100
13.877300 1.546400
13.905300 1.573600
13.933400 1.602000
13.961400 1.647800
13.989500 1.690400
14.017500 1.720900
14.045600 1.746600
14.073600 1.766500
14.101700 1.788800
14.129700 1.823100
14.157800 1.872200
14.185800 1.909900
14.213800 1.947000
14.241900 2.014000
14.269900 2.071800
14.298000 2.099700
14.326000 2.102300
14.354100 2.082400
14.382100 2.084300
14.410200 2.078700
14.438200 2.085300
14.466300 2.095200
14.494300 2.166800
14.522400 2.218800
14.550400 2.258300
14.578400 2.284600
14.606500 2.244000
14.634500 2.258000
14.662600 2.225100
14.690600 2.349500
14.718700 2.370800
14.746700 2.343300
14.774800 2.338500
14.802800 2.305500
14.830900 2.239000
14.858900 2.135400
14.886900 2.048300
14.915000 1.981600
14.943000 1.944700
14.971100 1.921200
14.999100 1.898500
15.027200 1.859100
15.055200 1.818300
15.083300 1.788400
15.111300 1.766500
15.139400 1.734300
15.167400 1.701400
15.195500 1.714500
15.223500 1.724500
15.251500 1.731000
15.279600 1.734000
15.307600 1.734100
15.335700 1.731400
15.363700 1.725700
15.391800 1.714900
15.419800 1.696300
15.447900 1.655500
15.475900 1.601300
15.504000 1.573900
15.532000 1.555300
15.560000 1.539100
15.588100 1.532300
15.616100 1.540900
15.644200 1.528400
15.672200 1.506100
15.700300 1.496800
15.728300 1.501000
15.756400 1.512600
15.784400 1.478400
15.812500 1.461500
15.840500 1.474600
15.868600 1.491700
15.896600 1.510800
15.924600 1.512300
15.952700 1.475000
15.980700 1.425400
16.008800 1.388600
16.036800 1.371900
16.064900 1.371300
16.092900 1.387800
16.121000 1.411600
16.149000 1.392300
16.177100 1.357900
16.205100 1.283800
16.233100 1.137500
16.261200 1.046000
16.289200 0.991600
16.317300 0.949500
16.345300 0.915700
16.373400 0.903400
16.401400 0.944200
16.429500 0.949300
16.457500 0.838700
16.485600 0.783700
16.513600 0.733800
16.541600 0.696500
16.569700 0.671700
16.597700 0.656500
16.625800 0.650500
16.653800 0.648300
16.681900 0.646900
16.709900 0.646200
16.738000 0.645900
16.766000 0.645900
16.794100 0.646500
16.822100 0.648100
16.850200 0.650700
16.878200 0.653700
16.906200 0.657200
16.934300 0.661300
16.962300 0.665800
16.990400 0.670900
17.018400 0.676400
17.046500 0.683100
17.074500 0.700000
17.102600 0.729400
17.130600 0.771300
17.158700 0.817300
17.186700 0.887700
17.214700 0.955400
17.242800 1.013500
17.270800 1.059900
17.298900 1.098300
17.326900 1.163300
17.355000 1.217300
17.383000 1.256200
17.411100 1.286800
17.439100 1.317800
17.467200 1.348600
17.495200 1.374100
17.523300 1.420500
17.551300 1.438900
17.579300 1.447700
17.607400 1.421900
17.635400 1.382200
17.663500 1.364000
17.691500 1.341000
17.719600 1.327700
17.747600 1.318400
17.775700 1.383600
17.803700 1.434300
17.831800 1.291700
17.859800 1.245500
17.887800 1.238300
17.915900 1.242900
17.943900 1.253500
17.972000 1.261400
18.000000 1.269800
18.028100 1.297400
18.056100 1.351300
18.084200 1.427900
18.112200 1.509100
18.140300 1.545300
18.168300 1.562300
18.196400 1.572700
18.224400 1.582300
18.252400 1.609700
18.280500 1.650200
18.308500 1.718400
18.336600 1.812000
18.364600 1.968700
18.392700 2.256200
18.420700 2.390700
18.448800 2.390600
18.476800 2.350600
18.504900 2.286100
18.532900 2.140400
18.560900 2.069500
18.589000 2.047600
18.617000 2.042900
18.645100 2.033700
18.673100 2.007800
18.701200 1.993600
18.729200 1.959600
18.757300 1.911200
18.785300 1.862100
18.813400 1.777300
18.841400 1.700800
18.869400 1.633700
18.897500 1.603600
18.925500 1.599700
18.953600 1.622200
18.981600 1.683300
19.009700 1.781800
19.037700 1.892600
19.065800 1.962100
19.093800 2.052300
19.121900 2.154400
19.149900 2.198800
19.178000 1.949600
19.206000 1.898500
19.234000 1.887600
19.262100 1.902600
19.290100 1.967700
19.318200 2.039000
19.346200 2.052700
19.374300 2.028400
19.402300 1.952500
19.430400 1.889200
19.458400 1.858700
19.486500 1.879600
19.514500 1.911700
19.542500 1.975600
19.570600 2.065900
19.598600 2.130700
19.626700 2.191800
19.654700 2.254300
19.682800 2.253500
19.710800 2.234700
19.738900 2.210300
19.766900 2.185000
19.795000 2.150200
19.823000 2.160500
19.851100 2.219700
19.879100 2.289800
19.907100 2.285000
19.935200 2.191200
19.963200 2.125000
19.991300 2.074600
20.019300 2.039000
20.047400 2.026400
20.075400 2.028600
20.103500 2.032900
20.131500 2.032600
20.159600 2.032900
20.187600 2.038000
20.215600 2.046900
20.243700 2.069100
20.271700 2.112800
20.299800 2.128500
20.327800 2.152600
20.355900 2.203500
20.383900 2.236200
20.412000 2.250800
20.440000 2.271700
20.468100 2.309800
20.496100 2.359300
20.524200 2.412200
20.552200 2.476000
20.580200 2.520000
20.608300 2.600800
20.636300 2.621700
20.664400 2.605200
20.692400 2.581600
20.720500 2.559600
20.748500 2.571800
20.776600 2.645900
20.804600 2.689700
20.832700 2.676500
20.860700 2.664600
20.888700 2.674100
20.916800 2.701700
20.944800 2.719100
20.972900 2.704400
21.000900 2.711800
21.029000 2.666600
21.057000 2.583600
21.085100 2.498100
21.113100 2.461900
21.141200 2.463300
21.169200 2.472900
21.197200 2.482600
21.225300 2.504600
21.253300 2.519000
21.281400 2.544200
21.309400 2.535600
21.337500 2.528700
21.365500 2.527100
21.393600 2.520100
21.421600 2.522100
21.449700 2.567700
21.477700 2.607100
21.505800 2.538600
21.533800 2.518400
21.561800 2.505000
21.589900 2.535100
21.617900 2.524000
21.646000 2.522200
21.674000 2.518800
21.702100 2.515100
21.730100 2.486100
21.758200 2.485100
21.786200 2.501000
21.814300 2.511500
21.842300 2.502400
21.870300 2.481000
21.898400 2.452600
21.926400 2.417600
21.954500 2.382400
21.982500 2.349900
22.010600 2.321500
22.038600 2.323300
22.066700 2.347200
22.094700 2.359600
22.122800 2.353900
22.150800 2.346700
22.178900 2.354000
22.206900 2.367100
22.234900 2.379900
22.263000 2.386600
22.291000 2.373700
22.319100 2.358300
22.347100 2.345000
22.375200 2.337600
22.403200 2.338400
22.431300 2.351500
22.459300 2.330000
22.487400 2.319800
22.515400 2.298300
22.543400 2.272800
22.571500 2.251100
22.599500 2.239200
22.627600 2.232600
22.655600 2.241100
22.683700 2.259400
22.711700 2.314700
22.739800 2.331500
22.767800 2.323100
22.795900 2.314400
22.823900 2.311700
22.851900 2.336700
22.880000 2.367000
22.908000 2.362200
22.936100 2.361600
22.964100 2.384700
22.992200 2.389000
23.020200 2.358200
23.048300 2.299400
23.076300 2.230600
23.104400 2.236100
23.132400 2.224800
23.160500 2.193200
23.188500 2.160800
23.216500 2.155800
23.244600 2.206100
23.272600 2.209200
23.300700 2.203200
23.328700 2.201100
23.356800 2.210800
23.384800 2.228800
23.412900 2.250000
23.440900 2.272200
23.469000 2.292100
23.497000 2.306000
23.525000 2.311700
23.553100 2.310000
23.581100 2.287200
23.609200 2.277700
23.637200 2.291900
23.665300 2.306900
23.693300 2.327800
23.721400 2.400000
23.749400 2.567100
23.777500 2.557500
23.805500 2.615800
23.833600 2.566800
23.861600 2.534900
23.889600 2.444200
23.917700 2.340300
23.945700 2.319400
23.973800 2.348200
24.001800 2.376000
24.029900 2.269300
24.057900 2.293600
24.086000 2.331700
24.114000 2.347500
24.142100 2.328300
24.170100 2.323600
24.198100 2.310200
24.226200 2.301000
24.254200 2.303500
24.282300 2.297400
24.310300 2.277600
24.338400 2.237800
24.366400 2.232300
24.394500 2.190900
24.422500 2.157600
24.450600 2.126700
24.478600 2.095400
24.506700 2.067800
24.534700 2.049100
24.562700 2.074800
24.590800 2.056600
24.618800 2.034400
24.646900 2.009300
24.674900 1.990600
24.703000 1.999700
24.731000 2.018800
24.759100 2.017100
24.787100 2.003600
24.815200 1.976900
24.843200 1.952200
24.871200 1.947900
24.899300 1.957700
24.927300 1.975800
24.955400 1.986700
24.983400 1.999700
25.011500 2.019200
25.039500 2.030400
25.067600 2.043900
25.095600 2.059400
25.123700 2.074400
25.151700 2.087200
25.179700 2.099600
25.207800 2.115100
25.235800 2.134000
25.263900 2.154800
25.291900 2.174400
25.320000 2.199700
25.348000 2.226200
25.376100 2.272600
25.404100 2.316000
25.432200 2.348700
25.460200 2.369900
25.488300 2.396400
25.516300 2.465700
25.544300 2.517200
25.572400 2.534200
25.600400 2.567800
25.628500 2.613000
25.656500 2.703800
25.684600 2.619700
25.712600 2.580200
25.740700 2.632600
25.768700 2.589200
25.796800 2.543700
25.824800 2.487500
25.852800 2.482300
25.880900 2.607400
25.908900 2.668800
25.937000 2.647000
25.965000 2.714000
25.993100 2.800900
26.021100 2.933700
26.049200 2.960500
26.077200 2.910100
26.105300 2.964100
26.133300 2.908400
26.161400 2.879700
26.189400 2.878000
26.217400 2.863500
26.245500 2.833600
26.273500 2.786900
26.301600 2.755700
26.329600 2.767600
26.357700 2.795400
26.385700 2.832200
26.413800 2.965200
26.441800 2.948200
26.469900 2.900900
26.497900 2.860100
26.525900 2.827100
26.554000 2.819900
26.582000 2.823600
26.610100 2.830900
26.638100 2.810900
26.666200 2.757700
26.694200 2.689100
26.722300 2.583600
26.750300 2.548900
26.778400 2.507900
26.806400 2.450500
26.834500 2.383600
26.862500 2.321000
26.890500 2.268900
26.918600 2.234200
26.946600 2.222900
26.974700 2.213600
27.002700 2.200900
27.030800 2.191300
27.058800 2.186400
27.086900 2.189900
27.114900 2.206900
27.143000 2.207100
27.171000 2.212300
27.199000 2.222300
27.227100 2.236300
27.255100 2.251700
27.283200 2.275500
27.311200 2.307600
27.339300 2.334200
27.367300 2.396100
27.395400 2.509500
27.423400 2.561000
27.451500 2.433900
27.479500 2.309200
27.507500 2.284000
27.535600 2.316400
27.563600 2.488500
27.591700 2.535600
27.619700 2.478800
27.647800 2.430000
27.675800 2.342400
27.703900 2.276000
27.731900 2.217600
27.760000 2.201500
27.788000 2.206100
27.816100 2.216500
27.844100 2.238800
27.872100 2.384100
27.900200 2.290100
27.928200 2.314800
27.956300 2.351800
27.984300 2.373400
28.012400 2.373500
28.040400 2.353500
28.068500 2.301200
28.096500 2.294200
28.124600 2.208800
28.152600 2.120300
28.180600 2.086300
28.208700 2.076200
28.236700 2.091800
28.264800 2.114900
28.292800 2.097400
28.320900 2.066000
28.348900 2.034700
28.377000 2.007200
28.405000 1.983000
28.433100 1.971000
28.461100 1.984800
28.489200 1.985200
28.517200 1.976700
28.545200 1.969100
28.573300 1.992800
28.601300 1.987100
28.629400 1.964100
28.657400 1.935800
28.685500 1.909600
28.713500 1.891200
28.741600 1.897400
28.769600 1.852200
28.797700 1.835200
28.825700 1.903800
28.853700 1.901400
28.881800 1.898900
28.909800 1.908600
28.937900 1.945800
28.965900 1.950000
28.994000 1.931100
29.022000 1.891900
29.050100 1.882700
29.078100 1.874500
29.106200 1.872000
29.134200 1.880100
29.162200 1.924900
29.190300 1.991900
29.218300 2.084100
29.246400 2.152700
29.274400 2.215600
29.302500 2.186200
29.330500 2.228200
29.358600 2.262900
29.386600 2.326100
29.414700 2.312000
29.442700 2.292500
29.470800 2.302200
29.498800 2.336200
29.526800 2.370800
29.554900 2.385400
29.582900 2.375000
29.611000 2.288800
29.639000 2.198200
29.667100 2.162100
29.695100 2.148200
29.723200 2.183600
29.751200 2.187200
29.779300 2.180300
29.807300 2.178200
29.835300 2.177700
29.863400 2.172100
29.891400 2.167300
29.919500 2.155700
29.947500 2.144700
29.975600 2.137700
30.003600 2.123800
30.031700 2.108900
30.059700 2.094300
30.087800 2.073000
30.115800 2.052900
30.143900 2.066900
30.171900 2.219700
30.199900 2.278200
30.228000 2.180400
30.256000 2.162700
30.284100 2.183300
30.312100 2.333800
30.340200 2.230000
30.368200 2.208900
30.396300 2.234000
30.424300 2.282300
30.452400 2.453900
30.480400 2.266700
30.508400 2.082000
30.536500 1.977800
30.564500 1.971200
30.592600 2.014800
30.620600 2.090600
30.648700 2.162200
30.676700 2.220700
30.704800 2.265000
30.732800 2.293100
30.760900 2.324100
30.788900 2.352500
30.817000 2.369500
30.845000 2.405800
30.873000 2.450300
30.901100 2.496000
30.929100 2.488600
30.957200 2.438600
30.985200 2.420900
31.013300 2.323400
31.041300 2.219300
31.069400 1.992900
31.097400 1.896600
31.125500 1.837300
31.153500 1.780600
31.181500 1.768700
31.209600 1.804400
31.237600 1.842300
31.265700 1.860900
31.293700 1.941400
31.321800 1.989400
31.349800 2.009500
31.377900 2.086300
31.405900 2.230100
31.434000 2.407000
31.462000 2.645700
31.490000 2.854900
31.518100 2.763800
31.546100 2.712000
31.574200 2.670600
31.602200 2.704500
31.630300 2.714400
31.658300 2.706900
31.686400 2.579400
31.714400 2.491700
31.742500 2.439400
31.770500 2.393700
31.798600 2.313200
31.826600 2.176500
31.854600 2.064700
31.882700 1.977100
31.910700 1.937100
31.938800 1.944200
31.966800 1.959900
31.994900 1.991400
32.022900 2.163000
32.051000 2.261800
32.079000 2.372000
32.107100 2.531100
32.135100 2.687300
32.163100 2.862900
32.191200 2.992500
32.219200 3.014600
32.247300 3.004100
32.275300 2.949500
32.303400 2.822800
32.331400 2.710200
32.359500 2.622600
32.387500 2.560300
32.415600 2.645900
32.443600 2.672600
32.471700 2.619800
32.499700 2.568700
32.527700 2.645400
32.555800 2.681500
32.583800 2.646900
32.611900 2.727500
32.639900 2.801700
32.668000 2.897400
32.696000 2.965000
32.724100 2.963300
32.752100 2.889200
32.780200 2.518300
32.808200 2.418500
32.836200 2.419600
32.864300 2.534300
32.892300 2.522800
32.920400 2.568800
32.948400 2.620600
32.976500 2.695100
33.004500 2.794800
33.032600 2.945700
33.060600 3.228000
33.088700 3.320800
33.116700 3.339100
33.144800 3.353300
33.172800 3.512000
33.200800 3.439600
33.228900 3.425400
33.256900 3.418800
33.285000 3.398200
33.313000 3.332800
33.341100 3.185000
33.369100 3.019500
33.397200 2.908400
33.425200 2.828700
33.453300 2.893400
33.481300 2.982400
33.509300 3.013000
33.537400 2.924900
33.565400 2.894000
33.593500 2.931500
33.621500 3.040400
33.649600 3.214200
33.677600 3.374200
33.705700 3.413200
33.733700 3.352500
33.761800 3.239800
33.789800 3.188600
33.817800 3.258000
33.845900 3.087500
33.873900 2.986700
33.902000 3.090400
33.930000 2.964900
33.958100 2.917700
33.986100 2.943700
34.014200 3.058000
34.042200 3.010700
34.070300 3.050900
34.098300 3.112700
34.126400 3.206200
34.154400 3.302300
34.182400 3.316200
34.210500 3.270400
34.238500 3.301300
34.266600 3.342400
34.294600 3.312500
34.322700 3.271700
34.350700 3.289900
34.378800 3.323900
34.406800 3.323100
34.434900 3.303200
34.462900 3.218300
34.490900 3.312400
34.519000 3.291700
34.547000 3.150700
34.575100 3.052400
34.603100 2.945100
34.631200 2.903800
34.659200 2.887700
34.687300 2.784600
34.715300 2.765500
34.743400 2.790100
34.771400 2.816000
34.799500 2.828600
34.827500 2.799200
34.855500 2.775100
34.883600 2.759800
34.911600 2.742300
34.939700 2.708800
34.967700 2.687400
34.995800 2.690300
35.023800 2.726600
35.051900 2.845900
35.079900 2.908500
35.108000 2.951200
35.136000 2.927900
35.164000 2.802600
35.192100 2.738800
35.220100 2.742700
35.248200 2.762200
35.276200 2.802600
35.304300 2.818900
35.332300 2.726100
35.360400 2.672600
35.388400 2.634000
35.416500 2.601300
35.444500 2.567900
35.472600 2.528900
35.500600 2.485100
35.528600 2.459800
35.556700 2.438100
35.584700 2.373200
35.612800 2.333000
35.640800 2.288000
35.668900 2.376500
35.696900 2.232300
35.725000 2.186100
35.753000 2.148700
35.781100 2.122700
35.809100 2.104500
35.837100 2.073500
35.865200 2.065900
35.893200 2.083500
35.921300 2.113700
35.949300 2.143300
35.977400 2.171600
36.005400 2.205900
36.033500 2.248600
36.061500 2.303400
36.089600 2.384200
36.117600 2.424500
36.145600 2.421600
36.173700 2.404600
36.201700 2.387300
36.229800 2.361900
36.257800 2.364900
36.285900 2.523400
36.313900 2.481700
36.342000 2.497100
36.370000 2.581500
36.398100 2.603800
36.426100 2.554900
36.454200 2.487400
36.482200 2.424600
36.510200 2.362800
36.538300 2.292500
36.566300 2.218300
36.594400 2.206000
36.622400 2.235800
36.650500 2.066800
36.678500 1.900000
36.706600 1.943400
36.734600 1.996500
36.762700 2.086500
36.790700 2.194000
36.818700 2.335100
36.846800 2.529800
36.874800 2.835500
36.902900 3.117300
36.930900 3.355400
36.959000 3.409600
36.987000 3.409600
37.015100 3.334800
37.043100 3.214700
37.071200 3.110700
37.099200 3.010200
37.127300 2.949500
37.155300 2.868100
37.183300 2.735700
37.211400 2.594900
37.239400 2.697900
37.267500 2.676000
37.295500 2.744100
37.323600 2.836200
37.351600 2.928900
37.379700 3.004100
37.407700 3.088700
37.435800 3.247300
37.463800 3.349300
37.491800 3.316800
37.519900 3.203000
37.547900 3.002400
37.576000 2.794000
37.604000 2.659600
37.632100 2.585000
37.660100 2.557000
37.688200 2.527300
37.716200 2.374700
37.744300 2.490800
37.772300 2.696300
37.800300 2.687100
37.828400 2.804400
37.856400 2.856300
37.884500 2.910100
37.912500 3.008700
37.940600 3.135600
37.968600 3.148800
37.996700 3.161900
38.024700 3.136000
38.052800 2.966300
38.080800 2.862700
38.108900 2.858200
38.136900 2.861900
38.164900 2.920200
38.193000 2.956200
38.221000 2.983200
38.249100 2.942500
38.277100 3.065600
38.305200 3.336000
38.333200 3.322700
38.361300 3.426200
38.389300 3.545800
38.417400 3.673500
38.445400 3.472700
38.473400 3.149400
38.501500 3.104100
38.529500 3.115600
38.557600 2.912200
38.585600 2.839500
38.613700 2.795400
38.641700 2.756400
38.669800 2.750400
38.697800 2.811700
38.725900 2.928600
38.753900 2.928700
38.782000 3.039700
38.810000 3.156600
38.838000 3.249000
38.866100 3.320300
38.894100 3.397300
38.922200 3.494400
38.950200 3.715800
38.978300 3.906400
39.006300 4.040400
39.034400 3.761200
39.062400 3.599700
39.090500 3.132400
39.118500 2.854000
39.146500 2.848200
39.174600 2.627000
39.202600 2.461900
39.230700 2.272500
39.258700 2.121100
39.286800 1.956100
39.314800 1.861700
39.342900 1.758700
39.370900 1.646600
39.399000 1.555400
39.427000 1.496500
39.455100 1.468800
39.483100 1.392700
39.511100 1.302400
39.539200 1.216200
39.567200 1.147200
39.595300 1.078300
39.623300 1.035100
39.651400 1.011600
39.679400 0.985800
39.707500 0.942100
39.735500 0.923600
39.763600 0.920800
39.791600 0.836400
39.819600 0.791900
39.847700 0.773900
39.875700 0.744900
39.903800 0.707100
39.931800 0.679700
39.959900 0.656200
39.987900 0.624800
40.016000 0.584300
40.044000 0.558600
40.072100 0.533600
40.100100 0.509200
40.128100 0.497700
40.156200 0.490100
40.184200 0.485100
40.212300 0.485000
40.240300 0.492300
40.268400 0.505600
40.296400 0.498900
40.324500 0.470000
40.352500 0.454200
40.380600 0.444800
40.408600 0.438700
40.436700 0.432900
40.464700 0.504500
40.492700 0.449600
40.520800 0.396200
40.548800 0.371100
40.576900 0.356000
40.604900 0.351900
40.633000 0.358800
40.661000 0.361800
40.689100 0.355400
40.717100 0.339800
40.745200 0.314800
40.773200 0.301100
40.801200 0.293900
40.829300 0.290000
40.857300 0.288000
40.885400 0.286400
40.913400 0.284700
40.941500 0.282700
40.969500 0.280300
40.997600 0.277500
41.025600 0.274300
41.053700 0.270100
41.081700 0.271300
41.109800 0.262300
41.137800 0.253200
41.165800 0.243900
41.193900 0.234600
41.221900 0.225100
41.250000 0.216300
41.278000 0.209500
41.306100 0.204000
41.334100 0.202600
41.362200 0.201200
41.390200 0.198800
41.418300 0.195400
41.446300 0.191100
41.474300 0.186500
41.502400 0.181900
41.530400 0.177500
41.558500 0.173100
41.586500 0.172400
41.614600 0.184200
41.642600 0.211600
41.670700 0.222100
41.698700 0.205500
41.726800 0.172500
41.754800 0.156800
41.782900 0.141700
41.810900 0.127300
41.838900 0.113400
41.867000 0.100900
41.895000 0.090200
41.923100 0.080300
41.951100 0.071400
41.979200 0.063700
42.007200 0.057100
42.035300 0.051600
42.063300 0.046900
42.091400 0.042400
42.119400 0.038100
42.147400 0.034100
42.175500 0.031600
42.203500 0.029400
42.231600 0.027200
42.259600 0.025200
42.287700 0.023300
42.315700 0.021400
42.343800 0.019600
42.371800 0.018000
42.399900 0.016400
42.427900 0.014900
42.455900 0.013600
42.484000 0.012300
42.512000 0.011100
42.540100 0.010000
42.568100 0.009000
42.596200 0.008100
42.624200 0.007200
42.652300 0.006500
42.680300 0.005800
42.708400 0.005100
42.736400 0.004400
42.764500 0.003800
42.792500 0.003200
42.820500 0.002600
42.848600 0.002100
42.876600 0.001600
42.904700 0.001100
42.932700 0.000600
42.960800 0.000300
42.988800 0.000000
43.016900 0.000000
43.044900 0.000000
43.073000 0.000000
43.101000 0.000000
43.129000 0.000000
43.157100 0.000000
43.185100 0.000000
43.213200 0.000000
43.241200 0.000000
43.269300 0.000000
43.297300 0.000000
43.325400 0.000000
43.353400 0.000000
43.381500 0.000000
43.409500 0.000000
43.437600 0.000000
43.465600 0.000000
43.493600 0.000000
43.521700 0.000000
43.549700 0.000000
43.577800 0.000000
43.605800 0.000000
43.633900 0.000000
43.661900 0.000000
43.690000 0.000000
43.718000 0.000000
43.746100 0.000000
43.774100 0.000000
43.802100 0.000000
43.830200 0.000000
43.858200 0.000000
43.886300 0.000000
43.914300 0.000000
43.942400 0.000000
43.970400 0.000000
43.998500 0.000000
44.026500 0.000000
44.054600 0.000000
44.082600 0.000000
44.110600 0.000000
44.138700 0.000000
44.166700 0.000000
44.194800 0.000000
44.222800 0.000000
44.250900 0.000000
44.278900 0.000000
44.307000 0.000000
44.335000 0.000000
44.363100 0.000000
44.391100 0.000000
44.419200 0.000000
44.447200 0.000000
44.475200 0.000000
44.503300 0.000000
44.531300 0.000000
44.559400 0.000000
44.587400 0.000000
44.615500 0.000000
44.643500 0.000000
44.671600 0.000000
44.699600 0.000000
44.727700 0.000000
44.755700 0.000000
44.783700 0.000000
44.811800 0.000000
44.839800 0.000000
44.867900 0.000000
44.895900 0.000000
44.924000 0.000000
44.952000 0.000000
44.980100 0.000000
45.008100 0.000000
45.036200 0.000000
45.064200 0.000000
45.092300 0.000000
45.120300 0.000000
45.148300 0.000000
45.176400 0.000000
45.204400 0.000000
45.232500 0.000000
45.260500 0.000000
45.288600 0.000000
45.316600 0.000000
45.344700 0.000000
45.372700 0.000000
45.400800 0.000000
45.428800 0.000000
45.456800 0.000000
45.484900 0.000000
45.512900 0.000000
45.541000 0.000000
e
