set title 'mp-1219474 - Density of States'
set xlabel 'Energy (eV)'
set ylabel 'DOS (states/eV)'
set grid
set xrange [-10:10]
set yrange [0:9.656]
set xzeroaxis lt -1
set terminal png size 800,600
set output 'mp-1219474_dos_gnuplot.png'
plot '-' using 1:2 with lines title 'DOS'
-7.561700 0.000000
-7.542900 0.000000
-7.524100 0.000000
-7.505200 0.000000
-7.486400 0.000000
-7.467500 0.000000
-7.448700 0.000000
-7.429800 0.000000
-7.411000 0.000000
-7.392200 0.000000
-7.373300 0.000000
-7.354500 0.000000
-7.335600 0.000000
-7.316800 0.000000
-7.298000 0.000000
-7.279100 0.000000
-7.260300 0.000000
-7.241400 0.000000
-7.222600 0.000000
-7.203700 0.000000
-7.184900 0.000000
-7.166100 0.000000
-7.147200 0.000000
-7.128400 0.000000
-7.109500 0.000000
-7.090700 0.000000
-7.071900 0.000000
-7.053000 0.000000
-7.034200 0.000000
-7.015300 0.000000
-6.996500 0.000000
-6.977600 0.000000
-6.958800 0.000000
-6.940000 0.000000
-6.921100 0.000000
-6.902300 0.000000
-6.883400 0.000000
-6.864600 0.000000
-6.845800 0.000000
-6.826900 0.000000
-6.808100 0.000000
-6.789200 0.000000
-6.770400 0.000000
-6.751500 0.000000
-6.732700 0.000000
-6.713900 0.000000
-6.695000 0.000000
-6.676200 0.000000
-6.657300 0.000000
-6.638500 0.000000
-6.619700 0.000000
-6.600800 0.000000
-6.582000 0.000000
-6.563100 0.000000
-6.544300 0.000000
-6.525400 0.000000
-6.506600 0.000000
-6.487800 0.000000
-6.468900 0.000000
-6.450100 0.000000
-6.431200 0.000000
-6.412400 0.000000
-6.393600 0.000000
-6.374700 0.000000
-6.355900 0.000000
-6.337000 0.000000
-6.318200 0.000000
-6.299300 0.000000
-6.280500 0.000000
-6.261700 0.000000
-6.242800 0.000000
-6.224000 0.000000
-6.205100 0.000000
-6.186300 0.000000
-6.167400 0.000000
-6.148600 0.000000
-6.129800 0.000000
-6.110900 0.000000
-6.092100 0.000000
-6.073200 0.000000
-6.054400 0.000000
-6.035600 0.000000
-6.016700 0.000000
-5.997900 0.000000
-5.979000 0.000000
-5.960200 0.000000
-5.941300 0.000000
-5.922500 0.000000
-5.903700 0.000000
-5.884800 0.000000
-5.866000 0.000000
-5.847100 0.150500
-5.828300 0.216200
-5.809500 0.290000
-5.790600 0.341400
-5.771800 0.384000
-5.752900 0.426600
-5.734100 0.469100
-5.715200 0.445500
-5.696400 0.442000
-5.677600 0.400700
-5.658700 0.401200
-5.639900 0.401600
-5.621000 0.402000
-5.602200 0.404400
-5.583400 0.409700
-5.564500 0.416900
-5.545700 0.427600
-5.526800 0.438400
-5.508000 0.449300
-5.489100 0.443100
-5.470300 0.439900
-5.451500 0.434300
-5.432600 0.419900
-5.413800 0.417000
-5.394900 0.414100
-5.376100 0.411800
-5.357300 0.411600
-5.338400 0.412600
-5.319600 0.415700
-5.300700 0.530000
-5.281900 0.565100
-5.263000 0.603100
-5.244200 0.643900
-5.225400 0.687500
-5.206500 0.733900
-5.187700 0.742200
-5.168800 0.772100
-5.150000 0.828100
-5.131200 0.842100
-5.112300 0.852300
-5.093500 0.855300
-5.074600 0.862200
-5.055800 0.868800
-5.036900 0.839800
-5.018100 0.844400
-4.999300 0.850300
-4.980400 0.857700
-4.961600 0.854500
-4.942700 0.857100
-4.923900 0.860500
-4.905100 0.864600
-4.886200 0.867900
-4.867400 0.870300
-4.848500 0.871900
-4.829700 0.874500
-4.810800 0.865700
-4.792000 0.867700
-4.773200 0.870300
-4.754300 0.873500
-4.735500 0.877400
-4.716600 0.879100
-4.697800 0.881400
-4.679000 0.884900
-4.660100 0.885700
-4.641300 0.889400
-4.622400 0.887400
-4.603600 0.888200
-4.584700 0.889200
-4.565900 0.890200
-4.547100 0.891100
-4.528200 0.892100
-4.509400 0.892900
-4.490500 0.995800
-4.471700 1.023800
-4.452900 1.060000
-4.434000 1.099600
-4.415200 1.142400
-4.396300 1.188600
-4.377500 1.238100
-4.358600 1.271600
-4.339800 1.293300
-4.321000 1.312000
-4.302100 1.327900
-4.283300 1.340800
-4.264400 1.351000
-4.245600 1.360400
-4.226800 1.335700
-4.207900 1.344700
-4.189100 1.351700
-4.170200 1.360900
-4.151400 1.370600
-4.132500 1.365800
-4.113700 1.371100
-4.094900 1.376000
-4.076000 1.379900
-4.057200 1.383100
-4.038300 1.385200
-4.019500 1.384400
-4.000600 1.375700
-3.981800 1.378100
-3.963000 1.381000
-3.944100 1.384600
-3.925300 1.388800
-3.906400 1.393800
-3.887600 1.399900
-3.868800 1.407400
-3.849900 1.414900
-3.831100 1.422500
-3.812200 1.430100
-3.793400 1.431200
-3.774500 1.435900
-3.755700 1.440200
-3.736900 1.444300
-3.718000 1.447900
-3.699200 1.463300
-3.680300 1.474000
-3.661500 1.481100
-3.642700 1.500900
-3.623800 1.513600
-3.605000 1.526500
-3.586100 1.539000
-3.567300 1.550600
-3.548400 1.561900
-3.529600 1.573600
-3.510800 1.583900
-3.491900 1.594100
-3.473100 1.604400
-3.454200 1.614600
-3.435400 1.625200
-3.416600 1.635800
-3.397700 1.646500
-3.378900 1.657300
-3.360000 1.811100
-3.341200 1.831500
-3.322300 1.848200
-3.303500 1.861500
-3.284700 1.815500
-3.265800 1.794900
-3.247000 1.774200
-3.228100 1.710400
-3.209300 1.685200
-3.190500 1.660900
-3.171600 1.638800
-3.152800 1.599300
-3.133900 1.598200
-3.115100 1.597700
-3.096200 1.597900
-3.077400 1.597700
-3.058600 1.597600
-3.039700 1.597800
-3.020900 1.598100
-3.002000 1.592100
-2.983200 1.589600
-2.964400 1.587400
-2.945500 1.585500
-2.926700 1.573900
-2.907800 1.578000
-2.889000 1.581700
-2.870100 1.584600
-2.851300 1.666700
-2.832500 1.667800
-2.813600 1.667700
-2.794800 1.666400
-2.775900 1.663800
-2.757100 1.660100
-2.738300 1.620000
-2.719400 1.612500
-2.700600 1.604300
-2.681700 1.595100
-2.662900 1.580100
-2.644000 1.577300
-2.625200 1.551500
-2.606400 1.526500
-2.587500 1.502400
-2.568700 1.475400
-2.549800 1.455100
-2.531000 1.435400
-2.512200 1.378200
-2.493300 1.367100
-2.474500 1.356400
-2.455600 1.345900
-2.436800 1.335400
-2.417900 1.325200
-2.399100 1.315000
-2.380300 1.305000
-2.361400 1.295100
-2.342600 1.293400
-2.323700 1.287700
-2.304900 1.282300
-2.286100 1.267900
-2.267200 1.266300
-2.248400 1.265200
-2.229500 1.264200
-2.210700 1.259900
-2.191800 1.258100
-2.173000 1.251500
-2.154200 1.256000
-2.135300 1.255100
-2.116500 1.252200
-2.097600 1.252200
-2.078800 1.252000
-2.060000 1.251500
-2.041100 1.250600
-2.022300 1.249100
-2.003400 1.247600
-1.984600 1.328400
-1.965700 1.326700
-1.946900 1.318900
-1.928100 1.316300
-1.909200 1.312300
-1.890400 1.307200
-1.871500 1.266700
-1.852700 1.257000
-1.833800 1.246800
-1.815000 1.235800
-1.796200 1.224000
-1.777300 1.219400
-1.758500 1.190500
-1.739600 1.164700
-1.720800 1.139400
-1.702000 1.114600
-1.683100 1.090500
-1.664300 1.067000
-1.645400 1.006200
-1.626600 0.991300
-1.607700 0.976500
-1.588900 0.961700
-1.570100 0.947400
-1.551200 0.933100
-1.532400 0.919200
-1.513500 0.905600
-1.494700 0.889600
-1.475900 0.876800
-1.457000 0.864200
-1.438200 0.851700
-1.419300 0.829400
-1.400500 0.820100
-1.381600 0.810900
-1.362800 0.801600
-1.344000 0.792300
-1.325100 0.783100
-1.306300 0.768800
-1.287400 0.759600
-1.268600 0.750400
-1.249800 0.741200
-1.230900 0.732200
-1.212100 0.723200
-1.193200 0.714200
-1.174400 0.712400
-1.155500 0.704500
-1.136700 0.696500
-1.117900 0.688300
-1.099000 0.680200
-1.080200 0.671900
-1.061300 0.659000
-1.042500 0.655500
-1.023700 0.645700
-1.004800 0.635700
-0.986000 0.626000
-0.967100 0.615700
-0.948300 0.605900
-0.929400 0.596100
-0.910600 0.586400
-0.891800 0.576800
-0.872900 0.567100
-0.854100 0.555000
-0.835200 0.545400
-0.816400 0.540800
-0.797600 0.527300
-0.778700 0.514100
-0.759900 0.506200
-0.741000 0.493600
-0.722200 0.481200
-0.703300 0.469100
-0.684500 0.457200
-0.665700 0.402400
-0.646800 0.397300
-0.628000 0.392000
-0.609100 0.384200
-0.590300 0.379300
-0.571500 0.374500
-0.552600 0.369500
-0.533800 0.364600
-0.514900 0.359500
-0.496100 0.354400
-0.477200 0.349300
-0.458400 0.344000
-0.439600 0.338800
-0.420700 0.337600
-0.401900 0.329300
-0.383000 0.311100
-0.364200 0.304400
-0.345400 0.297400
-0.326500 0.290900
-0.307700 0.284500
-0.288800 0.278100
-0.270000 0.271900
-0.251100 0.265700
-0.232300 0.259600
-0.213500 0.253600
-0.194600 0.247700
-0.175800 0.242000
-0.156900 0.236400
-0.138100 0.230900
-0.119300 0.225400
-0.100400 0.220100
-0.081600 0.214900
-0.062700 0.208800
-0.043900 0.203700
-0.025000 0.198700
-0.006200 0.165400
0.012600 0.163300
0.031500 0.161300
0.050300 0.159300
0.069200 0.157300
0.088000 0.155300
0.106800 0.153500
0.125700 0.151700
0.144500 0.149800
0.163400 0.152300
0.182200 0.228300
0.201100 0.243600
0.219900 0.259800
0.238700 0.276900
0.257600 0.294900
0.276400 0.313700
0.295300 0.333500
0.314100 0.313100
0.333000 0.320900
0.351800 0.328800
0.370600 0.336600
0.389500 0.344400
0.408300 0.352300
0.427200 0.361800
0.446000 0.372300
0.464800 0.383100
0.483700 0.394100
0.502500 0.405300
0.521400 0.409300
0.540200 0.414900
0.559100 0.410000
0.577900 0.417000
0.596700 0.474800
0.615600 0.484800
0.634400 0.495600
0.653300 0.505900
0.672100 0.515600
0.690900 0.524800
0.709800 0.533500
0.728600 0.514400
0.747500 0.517300
0.766300 0.520500
0.785200 0.718700
0.804000 0.764800
0.822800 0.814600
0.841700 0.867600
0.860500 0.923900
0.879400 0.934200
0.898200 0.991400
0.917000 1.005900
0.935900 1.019200
0.954700 1.031600
0.973600 1.036200
0.992400 0.993200
1.011300 1.017200
1.030100 1.041400
1.048900 1.051500
1.067800 1.070200
1.086600 1.092300
1.105500 1.245900
1.124300 1.288700
1.143100 1.324900
1.162000 1.374800
1.180800 1.426200
1.199700 1.437000
1.218500 1.482100
1.237400 1.529400
1.256200 1.576200
1.275000 1.725900
1.293900 1.843000
1.312700 2.205200
1.331600 2.489300
1.350400 2.717500
1.369200 2.715000
1.388100 2.786900
1.406900 2.924500
1.425800 2.920800
1.444600 2.988000
1.463500 3.064600
1.482300 3.138400
1.501100 3.160900
1.520000 3.240800
1.538800 3.342600
1.557700 3.422300
1.576500 3.509700
1.595300 3.598800
1.614200 3.721900
1.633000 3.871500
1.651900 3.972500
1.670700 4.069800
1.689600 4.205400
1.708400 4.347000
1.727200 4.835800
1.746100 5.589400
1.764900 5.084700
1.783800 5.279600
1.802600 6.324700
1.821400 6.117000
1.840300 6.069700
1.859100 6.501400
1.878000 6.513700
1.896800 6.615800
1.915700 6.535200
1.934500 6.533400
1.953300 6.651600
1.972200 6.733400
1.991000 6.627300
2.009900 6.964100
2.028700 6.970000
2.047500 7.106900
2.066400 7.402900
2.085200 7.228000
2.104100 6.741700
2.122900 6.115100
2.141800 6.413300
2.160600 6.350300
2.179400 6.601200
2.198300 6.148600
2.217100 5.423000
2.236000 5.478800
2.254800 5.653800
2.273700 5.713200
2.292500 5.948700
2.311300 5.922600
2.330200 5.885700
2.349000 6.130500
2.367900 6.006700
2.386700 5.113700
2.405500 4.944800
2.424400 5.056400
2.443200 5.161900
2.462100 6.394900
2.480900 7.112900
2.499800 6.921800
2.518600 6.010000
2.537400 4.971800
2.556300 4.342100
2.575100 4.138400
2.594000 4.166200
2.612800 4.484100
2.631600 4.446300
2.650500 4.463800
2.669300 4.348900
2.688200 4.317000
2.707000 4.248800
2.725900 4.246700
2.744700 4.460200
2.763500 4.863100
2.782400 4.804800
2.801200 6.353000
2.820100 6.264700
2.838900 5.674500
2.857700 5.102700
2.876600 5.571800
2.895400 5.610200
2.914300 5.384600
2.933100 6.483500
2.952000 5.175500
2.970800 5.008100
2.989600 5.310200
3.008500 5.265300
3.027300 5.305300
3.046200 5.447900
3.065000 5.764600
3.083800 5.861600
3.102700 6.329600
3.121500 6.545300
3.140400 6.671600
3.159200 6.996000
3.178100 8.321800
3.196900 7.580600
3.215700 7.350800
3.234600 7.106100
3.253400 7.419900
3.272300 7.883000
3.291100 8.778300
3.309900 5.636000
3.328800 5.151000
3.347600 5.071000
3.366500 5.047000
3.385300 5.160800
3.404200 5.109600
3.423000 5.072400
3.441800 4.534700
3.460700 4.171100
3.479500 3.932800
3.498400 3.675100
3.517200 3.818200
3.536000 3.994500
3.554900 3.934700
3.573700 3.949400
3.592600 3.810400
3.611400 3.406200
3.630300 3.149800
3.649100 3.105400
3.667900 3.100300
3.686800 3.080000
3.705600 3.305900
3.724500 3.594700
3.743300 3.805000
3.762100 4.225400
3.781000 4.261100
3.799800 4.679100
3.818700 4.120500
3.837500 3.817300
3.856400 4.013500
3.875200 4.370200
3.894000 4.217600
3.912900 4.289600
3.931700 4.510600
3.950600 4.006800
3.969400 3.505500
3.988200 3.212300
4.007100 2.646700
4.025900 2.543000
4.044800 2.493600
4.063600 2.475400
4.082500 2.467900
4.101300 2.475000
4.120100 2.465900
4.139000 2.723400
4.157800 2.656200
4.176700 2.691100
4.195500 2.398600
4.214300 2.332500
4.233200 2.271600
4.252000 2.284600
4.270900 2.244800
4.289700 2.189000
4.308600 2.152000
4.327400 2.112300
4.346200 2.067800
4.365100 2.218200
4.383900 2.434500
4.402800 2.674800
4.421600 2.647900
4.440500 2.549400
4.459300 2.559100
4.478100 2.600700
4.497000 2.629300
4.515800 2.658100
4.534700 2.693000
4.553500 2.726300
4.572300 2.699600
4.591200 2.895500
4.610000 2.933900
4.628900 2.969700
4.647700 3.609100
4.666600 2.963700
4.685400 3.092200
4.704200 3.193300
4.723100 3.223300
4.741900 3.220600
4.760800 3.093900
4.779600 2.981300
4.798400 2.939200
4.817300 2.890900
4.836100 2.835000
4.855000 2.849300
4.873800 2.776100
4.892700 2.749800
4.911500 2.723900
4.930300 2.694500
4.949200 2.552100
4.968000 2.511700
4.986900 2.478000
5.005700 2.428400
5.024500 2.416100
5.043400 2.355200
5.062200 2.322500
5.081100 2.290500
5.099900 2.264200
5.118800 2.257000
5.137600 2.260700
5.156400 2.305700
5.175300 2.237100
5.194100 2.222600
5.213000 2.209700
5.231800 2.191100
5.250600 2.166000
5.269500 2.084500
5.288300 2.068600
5.307200 2.053500
5.326000 1.984600
5.344900 2.030100
5.363700 2.030800
5.382500 2.030100
5.401400 2.029700
5.420200 2.036700
5.439100 2.039400
5.457900 2.045300
5.476700 2.050000
5.495600 2.053300
5.514400 2.006000
5.533300 2.023300
5.552100 2.015100
5.571000 2.025500
5.589800 2.038700
5.608600 2.053600
5.627500 2.067200
5.646300 2.079400
5.665200 2.105600
5.684000 2.282100
5.702800 2.298500
5.721700 2.287500
5.740500 2.270400
5.759400 2.302400
5.778200 2.287900
5.797100 2.220300
5.815900 2.122300
5.834700 2.191400
5.853600 2.192700
5.872400 2.195000
5.891300 2.233300
5.910100 2.221600
5.928900 2.189900
5.947800 2.181900
5.966600 2.141100
5.985500 2.124600
6.004300 2.112300
6.023200 2.120000
6.042000 2.117800
6.060800 2.125000
6.079700 2.135000
6.098500 2.181800
6.117400 2.180200
6.136200 2.176400
6.155000 2.033000
6.173900 1.999900
6.192700 2.035800
6.211600 1.969800
6.230400 2.053000
6.249300 2.110500
6.268100 2.090200
6.286900 1.994100
6.305800 1.942000
6.324600 1.790200
6.343500 1.767100
6.362300 1.744100
6.381100 1.666600
6.400000 1.614600
6.418800 1.602100
6.437700 1.602400
6.456500 1.568200
6.475400 1.576500
6.494200 1.518700
6.513000 1.533700
6.531900 1.552100
6.550700 1.497600
6.569600 1.498600
6.588400 1.496300
6.607300 1.503000
6.626100 1.518800
6.644900 1.525600
6.663800 1.532500
6.682600 1.539500
6.701500 1.544400
6.720300 1.551200
6.739100 1.558800
6.758000 1.566100
6.776800 1.573700
6.795700 1.581700
6.814500 1.590700
6.833400 1.624000
6.852200 1.634900
6.871000 1.647200
6.889900 1.660500
6.908700 1.810500
6.927600 1.866600
6.946400 1.927200
6.965200 1.992100
6.984100 2.061500
7.002900 2.135200
7.021800 2.022200
7.040600 2.029800
7.059500 2.002500
7.078300 2.008800
7.097100 2.001900
7.116000 1.982100
7.134800 1.930400
7.153700 1.937700
7.172500 2.040200
7.191300 2.078100
7.210200 2.067200
7.229000 2.004300
7.247900 1.998200
7.266700 1.903100
7.285600 1.851200
7.304400 1.823500
7.323200 1.800900
7.342100 1.801600
7.360900 1.803900
7.379800 1.806800
7.398600 1.808900
7.417400 1.811900
7.436300 1.813200
7.455100 1.775600
7.474000 1.768300
7.492800 1.815700
7.511700 1.810100
7.530500 1.803900
7.549300 1.757400
7.568200 1.752800
7.587000 1.823200
7.605900 1.822600
7.624700 1.822400
7.643500 1.822500
7.662400 1.822900
7.681200 1.807100
7.700100 1.812000
7.718900 1.817700
7.737800 1.794100
7.756600 1.797400
7.775400 1.826900
7.794300 1.776700
7.813100 1.764300
7.832000 1.753500
7.850800 1.766200
7.869600 1.751000
7.888500 1.754300
7.907300 1.866800
7.926200 1.887900
7.945000 1.894400
7.963900 1.922000
7.982700 1.736900
8.001500 1.630200
8.020400 1.540500
8.039200 1.518100
8.058100 1.508100
8.076900 1.523300
8.095700 1.544500
8.114600 1.575800
8.133400 1.603600
8.152300 1.616600
8.171100 1.614000
8.190000 1.596600
8.208800 1.528000
8.227600 1.533200
8.246500 1.543900
8.265300 1.674900
8.284200 1.679200
8.303000 1.712100
8.321800 1.719000
8.340700 1.724800
8.359500 1.730700
8.378400 1.702700
8.397200 1.708600
8.416100 1.715500
8.434900 1.723400
8.453700 1.732200
8.472600 1.743400
8.491400 1.997200
8.510300 2.209600
8.529100 2.190000
8.547900 2.255300
8.566800 2.179300
8.585600 2.017900
8.604500 1.910300
8.623300 1.875200
8.642200 1.883500
8.661000 1.898600
8.679800 1.953700
8.698700 1.946000
8.717500 1.968800
8.736400 1.976800
8.755200 1.981700
8.774100 1.983200
8.792900 1.980700
8.811700 1.969000
8.830600 1.957200
8.849400 1.945600
8.868300 1.914500
8.887100 1.905500
8.905900 1.930800
8.924800 1.924600
8.943600 2.221100
8.962500 2.037000
8.981300 2.085700
9.000200 2.175800
9.019000 2.267900
9.037800 2.241200
9.056700 2.203800
9.075500 2.183900
9.094400 2.151400
9.113200 2.029300
9.132000 1.996800
9.150900 1.966400
9.169700 1.913300
9.188600 1.850500
9.207400 1.938600
9.226300 1.962400
9.245100 1.980200
9.263900 1.997700
9.282800 1.884400
9.301600 1.843400
9.320500 1.930200
9.339300 1.980900
9.358100 1.988000
9.377000 1.993900
9.395800 2.001000
9.414700 2.165500
9.433500 2.202400
9.452400 2.217500
9.471200 2.238900
9.490000 2.258100
9.508900 2.172600
9.527700 2.053700
9.546600 2.059600
9.565400 2.066100
9.584200 2.072800
9.603100 2.080400
9.621900 2.487800
9.640800 2.159200
9.659600 2.236300
9.678500 2.243400
9.697300 2.320500
9.716100 2.354100
9.735000 2.388500
9.753800 2.423300
9.772700 2.357000
9.791500 2.354800
9.810300 2.420300
9.829200 2.411400
9.848000 2.408300
9.866900 2.407400
9.885700 2.384000
9.904600 2.505000
9.923400 2.628500
9.942200 2.606900
9.961100 2.582700
9.979900 2.553100
9.998800 2.380500
10.017600 2.386100
10.036400 2.313100
10.055300 2.341400
10.074100 2.530800
10.093000 2.587600
10.111800 2.635200
10.130700 2.700200
10.149500 3.796600
10.168300 2.942200
10.187200 2.944500
10.206000 2.944700
10.224900 2.942800
10.243700 2.874000
10.262500 2.758400
10.281400 2.709100
10.300200 2.817100
10.319100 2.758900
10.337900 2.796500
10.356800 2.813400
10.375600 2.851800
10.394400 2.817800
10.413300 2.816500
10.432100 2.822800
10.451000 2.827800
10.469800 2.991400
10.488600 2.879400
10.507500 2.628900
10.526300 2.699800
10.545200 2.730300
10.564000 2.744400
10.582900 2.756600
10.601700 2.725000
10.620500 2.720300
10.639400 2.717600
10.658200 2.738900
10.677100 2.785900
10.695900 2.748100
10.714700 2.631100
10.733600 2.561400
10.752400 2.562700
10.771300 2.565900
10.790100 2.539500
10.809000 2.621000
10.827800 2.926600
10.846600 2.916700
10.865500 2.643400
10.884300 2.635900
10.903200 2.645900
10.922000 2.667900
10.940900 2.668400
10.959700 2.716000
10.978500 2.740600
10.997400 2.754700
11.016200 2.774200
11.035100 2.810200
11.053900 2.679000
11.072700 2.609400
11.091600 2.638100
11.110400 2.665500
11.129300 2.685600
11.148100 2.852100
11.167000 2.887000
11.185800 2.909800
11.204600 2.755200
11.223500 2.759700
11.242300 2.922700
11.261200 2.916200
11.280000 2.975200
11.298800 2.999200
11.317700 2.841500
11.336500 2.777600
11.355400 2.780100
11.374200 2.768800
11.393100 2.758700
11.411900 2.714700
11.430700 2.567500
11.449600 2.581500
11.468400 2.620100
11.487300 3.015900
11.506100 2.451500
11.524900 2.443700
11.543800 2.413300
11.562600 2.400100
11.581500 2.385100
11.600300 2.368100
11.619200 2.394700
11.638000 2.377400
11.656800 2.362300
11.675700 2.345100
11.694500 2.317600
11.713400 2.245600
11.732200 2.226800
11.751000 2.222700
11.769900 2.204800
11.788700 2.355100
11.807600 2.371900
11.826400 2.392300
11.845300 2.332200
11.864100 2.415400
11.882900 2.384900
11.901800 2.660100
11.920600 2.579200
11.939500 2.298100
11.958300 2.281000
11.977100 2.263800
11.996000 2.170400
12.014800 2.146300
12.033700 2.151900
12.052500 2.345100
12.071400 2.369400
12.090200 2.369000
12.109000 2.139800
12.127900 2.163000
12.146700 2.187100
12.165600 2.228600
12.184400 2.236500
12.203200 2.513300
12.222100 2.201000
12.240900 2.175300
12.259800 2.127500
12.278600 2.201400
12.297500 2.206500
12.316300 2.283700
12.335100 2.547000
12.354000 2.615000
12.372800 2.427700
12.391700 2.472400
12.410500 2.475200
12.429300 2.447500
12.448200 2.457300
12.467000 2.403400
12.485900 2.477100
12.504700 2.515800
12.523600 2.634400
12.542400 2.473600
12.561200 2.477900
12.580100 2.441800
12.598900 2.531500
12.617800 2.506800
12.636600 2.479200
12.655400 2.450900
12.674300 2.431700
12.693100 2.347800
12.712000 2.311300
12.730800 2.221300
12.749700 2.169600
12.768500 2.153200
12.787300 2.080700
12.806200 2.072100
12.825000 2.088800
12.843900 2.100700
12.862700 2.080700
12.881500 2.058400
12.900400 2.084400
12.919200 2.129500
12.938100 2.124600
12.956900 2.119900
12.975800 2.063500
12.994600 2.073600
13.013400 2.085800
13.032300 2.099000
13.051100 2.048900
13.070000 1.974500
13.088800 1.972600
13.107700 2.021000
13.126500 2.038500
13.145300 2.029800
13.164200 2.041500
13.183000 2.048500
13.201900 2.083400
13.220700 2.171700
13.239500 2.370200
13.258400 2.420100
13.277200 2.548200
13.296100 2.522800
13.314900 2.447800
13.333800 2.232500
13.352600 2.289800
13.371400 2.401800
13.390300 2.405200
13.409100 2.413000
13.428000 2.415100
13.446800 2.299300
13.465600 2.221100
13.484500 2.065300
13.503300 2.020400
13.522200 2.031800
13.541000 2.024000
13.559900 1.955900
13.578700 1.977900
13.597500 1.998100
13.616400 2.018700
13.635200 2.040200
13.654100 2.070300
13.672900 2.085200
13.691700 2.122200
13.710600 2.157500
13.729400 2.192800
13.748300 2.243600
13.767100 2.326400
13.786000 2.404200
13.804800 2.453600
13.823600 2.430200
13.842500 2.409800
13.861300 2.230000
13.880200 2.154500
13.899000 2.097700
13.917800 2.058500
13.936700 2.047600
13.955500 2.243800
13.974400 2.012500
13.993200 1.994600
14.012100 2.016600
14.030900 2.008500
14.049700 2.006600
14.068600 2.006100
14.087400 2.037800
14.106300 1.995500
14.125100 2.059000
14.143900 2.006700
14.162800 1.976300
14.181600 1.977600
14.200500 1.990800
14.219300 2.013200
14.238200 2.025800
14.257000 2.051300
14.275800 2.040000
14.294700 2.063000
14.313500 2.220700
14.332400 2.342200
14.351200 2.416100
14.370000 2.349800
14.388900 2.421400
14.407700 2.487000
14.426600 2.231900
14.445400 2.151000
14.464300 2.186500
14.483100 2.266300
14.501900 2.431700
14.520800 2.475500
14.539600 2.573300
14.558500 2.558900
14.577300 2.608900
14.596100 2.663300
14.615000 2.761100
14.633800 2.836600
14.652700 2.955900
14.671500 3.070400
14.690400 3.021000
14.709200 2.940600
14.728000 2.971100
14.746900 2.892300
14.765700 2.893100
14.784600 3.306100
14.803400 3.009500
14.822200 2.959600
14.841100 2.938700
14.859900 2.917700
14.878800 2.896800
14.897600 2.875800
14.916500 2.800100
14.935300 2.783200
14.954100 2.766300
14.973000 2.887900
14.991800 3.056800
15.010700 3.012400
15.029500 2.900400
15.048300 2.818700
15.067200 2.838000
15.086000 2.804500
15.104900 2.773300
15.123700 2.760400
15.142600 2.703600
15.161400 2.666700
15.180200 2.707400
15.199100 2.734900
15.217900 2.775000
15.236800 2.722600
15.255600 2.720800
15.274500 2.720100
15.293300 2.713500
15.312100 2.718000
15.331000 2.598900
15.349800 2.601000
15.368700 2.654100
15.387500 2.671500
15.406300 2.749200
15.425200 2.768900
15.444000 3.234500
15.462900 2.965700
15.481700 2.925200
15.500600 2.944700
15.519400 2.942600
15.538200 3.020000
15.557100 2.990900
15.575900 2.949800
15.594800 2.940100
15.613600 3.009800
15.632400 3.105100
15.651300 3.132400
15.670100 3.207200
15.689000 3.474400
15.707800 3.250700
15.726700 3.235200
15.745500 3.284700
15.764300 3.381600
15.783200 3.404300
15.802000 3.460100
15.820900 3.520300
15.839700 3.586300
15.858500 3.635100
15.877400 3.658100
15.896200 3.570000
15.915100 3.585700
15.933900 3.601500
15.952800 3.658000
15.971600 3.637100
15.990400 3.582200
16.009300 3.502300
16.028100 3.436300
16.047000 3.389700
16.065800 3.383700
16.084600 3.375800
16.103500 3.500700
16.122300 3.542600
16.141200 3.960200
16.160000 3.578700
16.178900 3.447400
16.197700 3.507300
16.216500 3.517500
16.235400 3.492500
16.254200 3.461900
16.273100 3.416200
16.291900 3.194800
16.310700 3.180800
16.329600 3.168500
16.348400 3.161800
16.367300 3.166100
16.386100 3.182400
16.405000 3.196100
16.423800 3.210800
16.442600 3.212600
16.461500 3.287000
16.480300 3.397100
16.499200 3.455200
16.518000 3.450100
16.536800 3.445100
16.555700 3.672900
16.574500 3.692800
16.593400 3.725400
16.612200 3.610700
16.631100 3.765900
16.649900 3.708500
16.668700 3.684900
16.687600 3.522100
16.706400 3.507700
16.725300 3.528600
16.744100 3.628700
16.762900 3.696800
16.781800 3.691100
16.800600 3.798600
16.819500 3.800100
16.838300 3.710300
16.857200 3.518400
16.876000 3.519400
16.894800 3.524100
16.913700 3.601000
16.932500 3.657100
16.951400 3.729400
16.970200 3.968200
16.989000 4.014900
17.007900 3.750300
17.026700 3.657100
17.045600 3.505900
17.064400 3.633300
17.083300 3.676200
17.102100 3.699600
17.120900 3.816200
17.139800 3.919000
17.158600 3.864600
17.177500 3.816700
17.196300 3.606600
17.215200 3.695600
17.234000 3.617500
17.252800 3.583600
17.271700 3.548400
17.290500 3.437800
17.309400 3.425000
17.328200 3.557900
17.347000 3.538800
17.365900 4.015400
17.384700 3.929400
17.403600 3.715600
17.422400 3.818700
17.441300 3.858500
17.460100 3.853100
17.478900 3.450000
17.497800 3.502600
17.516600 3.550700
17.535500 3.494200
17.554300 3.441200
17.573100 3.427100
17.592000 4.262300
17.610800 3.621800
17.629700 3.617900
17.648500 4.387000
17.667400 3.748300
17.686200 3.698500
17.705000 3.668200
17.723900 3.521300
17.742700 3.407800
17.761600 3.379300
17.780400 3.329300
17.799200 3.487000
17.818100 3.280600
17.836900 3.158500
17.855800 3.132100
17.874600 3.163600
17.893500 3.259300
17.912300 3.352300
17.931100 3.439600
17.950000 3.678600
17.968800 3.811600
17.987700 3.883400
18.006500 4.059900
18.025300 4.105100
18.044200 4.317200
18.063000 4.455000
18.081900 4.570300
18.100700 4.249800
18.119600 4.086700
18.138400 3.920400
18.157200 3.576400
18.176100 3.681700
18.194900 3.673200
18.213800 3.608400
18.232600 3.652400
18.251400 3.569300
18.270300 3.314500
18.289100 3.300300
18.308000 3.398700
18.326800 3.451000
18.345700 3.390500
18.364500 3.440800
18.383300 3.346000
18.402200 3.312200
18.421000 3.285200
18.439900 3.356700
18.458700 3.476500
18.477500 3.500200
18.496400 3.487500
18.515200 3.610700
18.534100 3.674500
18.552900 3.767400
18.571800 3.925300
18.590600 3.821500
18.609400 3.874100
18.628300 3.995000
18.647100 4.022700
18.666000 3.821400
18.684800 3.776900
18.703600 3.729900
18.722500 3.649100
18.741300 3.746500
18.760200 3.945900
18.779000 3.781800
18.797900 3.629200
18.816700 3.929300
18.835500 4.143600
18.854400 3.587000
18.873200 3.633400
18.892100 3.717400
18.910900 3.790600
18.929700 4.064300
18.948600 4.595700
18.967400 4.270100
18.986300 4.150700
19.005100 4.061500
19.024000 3.860400
19.042800 3.804100
19.061600 3.762300
19.080500 3.767900
19.099300 3.922200
19.118200 3.897300
19.137000 3.982800
19.155800 4.082200
19.174700 4.279000
19.193500 4.291500
19.212400 4.318700
19.231200 4.268700
19.250100 4.264400
19.268900 4.263700
19.287700 4.282200
19.306600 4.253000
19.325400 4.110100
19.344300 4.270700
19.363100 4.242700
19.382000 3.946200
19.400800 3.571000
19.419600 3.552800
19.438500 3.469900
19.457300 3.357400
19.476200 3.330900
19.495000 3.295400
19.513800 3.601800
19.532700 3.796900
19.551500 3.963400
19.570400 4.207800
19.589200 4.009800
19.608100 4.020300
19.626900 4.050200
19.645700 4.165200
19.664600 4.271200
19.683400 4.429500
19.702300 4.358000
19.721100 4.660100
19.739900 4.732900
19.758800 4.477900
19.777600 4.454500
19.796500 4.394700
19.815300 4.414000
19.834200 4.581300
19.853000 4.328200
19.871800 4.253600
19.890700 4.183900
19.909500 4.119200
19.928400 4.136000
19.947200 4.588300
19.966000 3.824900
19.984900 3.726000
20.003700 3.788100
20.022600 3.971600
20.041400 3.946700
20.060300 3.985500
20.079100 3.888100
20.097900 3.883400
20.116800 3.914900
20.135600 3.939500
20.154500 3.967400
20.173300 4.029100
20.192100 3.937900
20.211000 3.897100
20.229800 3.757000
20.248700 3.731100
20.267500 3.707100
20.286400 3.840700
20.305200 3.810500
20.324000 3.752100
20.342900 3.822800
20.361700 3.791600
20.380600 3.803700
20.399400 3.769700
20.418200 3.801100
20.437100 3.826500
20.455900 5.389100
20.474800 3.813900
20.493600 3.674700
20.512500 3.494300
20.531300 3.480400
20.550100 3.462200
20.569000 3.462500
20.587800 3.487100
20.606700 3.429600
20.625500 3.457000
20.644300 3.576900
20.663200 3.659900
20.682000 3.643700
20.700900 3.737100
20.719700 4.024900
20.738600 3.902300
20.757400 3.917600
20.776200 3.949000
20.795100 3.773300
20.813900 3.775800
20.832800 3.853000
20.851600 3.851400
20.870400 4.377300
20.889300 4.369100
20.908100 4.531400
20.927000 6.118500
20.945800 5.530400
20.964700 5.399700
20.983500 5.364300
21.002300 5.250100
21.021200 4.971100
21.040000 4.773400
21.058900 4.682400
21.077700 4.385000
21.096500 4.711600
21.115400 3.711000
21.134200 3.612600
21.153100 3.677700
21.171900 4.051400
21.190800 3.830700
21.209600 3.808000
21.228400 3.883700
21.247300 3.912400
21.266100 3.956500
21.285000 4.588900
21.303800 4.093500
21.322600 4.733500
21.341500 4.039000
21.360300 4.281200
21.379200 4.554100
21.398000 4.613800
21.416900 4.323700
21.435700 4.897400
21.454500 4.625000
21.473400 4.923800
21.492200 5.230100
21.511100 5.225200
21.529900 4.823500
21.548800 4.741700
21.567600 4.735500
21.586400 4.750900
21.605300 4.702400
21.624100 4.715600
21.643000 4.734700
21.661800 4.676800
21.680600 4.498300
21.699500 4.397000
21.718300 4.460100
21.737200 4.962700
21.756000 4.323700
21.774900 4.278400
21.793700 4.169300
21.812500 4.165300
21.831400 4.086800
21.850200 4.005200
21.869100 3.994900
21.887900 4.185800
21.906700 4.091700
21.925600 4.023800
21.944400 3.921100
21.963300 4.153900
21.982100 4.192600
22.001000 4.250600
22.019800 4.831400
22.038600 4.205800
22.057500 4.209300
22.076300 4.450300
22.095200 4.379800
22.114000 4.406800
22.132800 4.203100
22.151700 4.263300
22.170500 4.339400
22.189400 4.454800
22.208200 5.717700
22.227100 4.320500
22.245900 4.348400
22.264700 4.445500
22.283600 4.405700
22.302400 4.350300
22.321300 4.335400
22.340100 4.294200
22.358900 4.334900
22.377800 4.205300
22.396600 4.266500
22.415500 4.153100
22.434300 4.041100
22.453200 3.990100
22.472000 4.155000
22.490800 4.159600
22.509700 4.202400
22.528500 4.222400
22.547400 4.365900
22.566200 4.639200
22.585000 4.883600
22.603900 4.815100
22.622700 4.425900
22.641600 4.415900
22.660400 4.570500
22.679300 4.644700
22.698100 4.718400
22.716900 5.426700
22.735800 5.287500
22.754600 5.023700
22.773500 5.239700
22.792300 5.205900
22.811100 5.317700
22.830000 5.432300
22.848800 5.192800
22.867700 5.094000
22.886500 5.015000
22.905400 5.060500
22.924200 5.170600
22.943000 5.382100
22.961900 5.381600
22.980700 5.247300
22.999600 5.259300
23.018400 5.222800
23.037200 5.048800
23.056100 5.055400
23.074900 4.923300
23.093800 4.971600
23.112600 5.136300
23.131500 5.009600
23.150300 5.001300
23.169100 4.794700
23.188000 4.864700
23.206800 4.460100
23.225700 4.477000
23.244500 4.840000
23.263300 4.778600
23.282200 5.515000
23.301000 5.660900
23.319900 5.159400
23.338700 4.671100
23.357600 4.683300
23.376400 4.620400
23.395200 4.555300
23.414100 4.566500
23.432900 4.707500
23.451800 4.739400
23.470600 4.659200
23.489400 4.630700
23.508300 4.852100
23.527100 5.061400
23.546000 5.118300
23.564800 5.192400
23.583700 5.195800
23.602500 5.545900
23.621300 5.576600
23.640200 5.558900
23.659000 5.461000
23.677900 5.939700
23.696700 5.485500
23.715600 4.699900
23.734400 4.843500
23.753200 4.744400
23.772100 4.612800
23.790900 4.403100
23.809800 4.205800
23.828600 4.131700
23.847400 4.058200
23.866300 3.951500
23.885100 3.876200
23.904000 3.944600
23.922800 4.839100
23.941700 4.942900
23.960500 4.732800
23.979300 4.915900
23.998200 4.571100
24.017000 4.460300
24.035900 4.873700
24.054700 4.991100
24.073500 4.897000
24.092400 4.728900
24.111200 4.667800
24.130100 4.650800
24.148900 4.679500
24.167800 5.805100
24.186600 4.372300
24.205400 4.248200
24.224300 4.394100
24.243100 4.690400
24.262000 4.816600
24.280800 4.966300
24.299600 5.052800
24.318500 5.017600
24.337300 5.040400
24.356200 5.043100
24.375000 5.098000
24.393900 5.051100
24.412700 5.053900
24.431500 5.051700
24.450400 5.049100
24.469200 5.410100
24.488100 6.424400
24.506900 5.612900
24.525700 4.753200
24.544600 4.629100
24.563400 4.753100
24.582300 4.678400
24.601100 5.613200
24.620000 5.070300
24.638800 5.246700
24.657600 4.773300
24.676500 4.731800
24.695300 4.880100
24.714200 4.740800
24.733000 4.648900
24.751800 4.717800
24.770700 4.637500
24.789500 4.746100
24.808400 4.931100
24.827200 5.101200
24.846100 4.935800
24.864900 4.964600
24.883700 5.214300
24.902600 5.432900
24.921400 5.478700
24.940300 5.656200
24.959100 5.910600
24.977900 6.025800
24.996800 6.258000
25.015600 7.400500
25.034500 6.652000
25.053300 5.971200
25.072200 5.321600
25.091000 5.208400
25.109800 5.041100
25.128700 4.908600
25.147500 4.828500
25.166400 5.137800
25.185200 5.039500
25.204000 5.258100
25.222900 5.290500
25.241700 5.316000
25.260600 5.704400
25.279400 5.216500
25.298300 5.588900
25.317100 5.731200
25.335900 5.528600
25.354800 6.080700
25.373600 5.440900
25.392500 5.170700
25.411300 5.225900
25.430100 5.262900
25.449000 5.497500
25.467800 5.604700
25.486700 5.370600
25.505500 5.303500
25.524400 5.194900
25.543200 5.015900
25.562000 4.996200
25.580900 4.786400
25.599700 5.035600
25.618600 4.855400
25.637400 4.930200
25.656200 5.010100
25.675100 4.889600
25.693900 4.755800
25.712800 4.726300
25.731600 4.754300
25.750500 4.816900
25.769300 4.841900
25.788100 5.473900
25.807000 5.532400
25.825800 5.598700
25.844700 5.471700
25.863500 5.153500
25.882400 5.083400
25.901200 5.131100
25.920000 5.211400
25.938900 5.232000
25.957700 4.700100
25.976600 4.466600
25.995400 4.412800
26.014200 4.360000
26.033100 4.343500
26.051900 4.366900
26.070800 4.839000
26.089600 5.293000
26.108500 5.370300
26.127300 4.580800
26.146100 4.392700
26.165000 4.260200
26.183800 4.153500
26.202700 4.338400
26.221500 3.838400
26.240300 3.735400
26.259200 3.628600
26.278000 3.487100
26.296900 3.322800
26.315700 4.127900
26.334600 3.014800
26.353400 2.913800
26.372200 2.805900
26.391100 3.217800
26.409900 3.486200
26.428800 3.284800
26.447600 3.248000
26.466400 3.188700
26.485300 2.814000
26.504100 2.629200
26.523000 2.558200
26.541800 2.504800
26.560700 2.400000
26.579500 2.358500
26.598300 2.280200
26.617200 2.212300
26.636000 2.052300
26.654900 2.014900
26.673700 2.003300
26.692500 1.946700
26.711400 1.930900
26.730200 1.879700
26.749100 1.840500
26.767900 1.800300
26.786800 1.780500
26.805600 1.872000
26.824400 1.557300
26.843300 1.254400
26.862100 1.063600
26.881000 1.056600
26.899800 1.041300
26.918600 1.027200
26.937500 1.561900
26.956300 2.274300
26.975200 1.784000
26.994000 1.681800
27.012900 1.573200
27.031700 1.425100
27.050500 1.352000
27.069400 1.411100
27.088200 1.332300
27.107100 1.272200
27.125900 1.217600
27.144700 1.168500
27.163600 1.117000
27.182400 1.058000
27.201300 0.935700
27.220100 0.876300
27.239000 0.843200
27.257800 0.811400
27.276600 0.781100
27.295500 0.752200
27.314300 0.724800
27.333200 0.638200
27.352000 0.606900
27.370800 0.575800
27.389700 0.557100
27.408500 0.540200
27.427400 0.531100
27.446200 0.523100
27.465100 0.425700
27.483900 0.421800
27.502700 0.418100
27.521600 0.414400
27.540400 0.410800
27.559300 0.407400
27.578100 0.404000
27.596900 0.400700
27.615800 0.397400
27.634600 0.541900
27.653500 0.468600
27.672300 0.494100
27.691200 0.517200
27.710000 0.567700
27.728800 0.605000
27.747700 0.642600
27.766500 0.839400
27.785400 0.907100
27.804200 0.979100
27.823000 0.931600
27.841900 0.898900
27.860700 0.863300
27.879600 0.675200
27.898400 0.625200
27.917300 0.577600
27.936100 0.532500
27.954900 0.564300
27.973800 0.533700
27.992600 0.502600
28.011500 0.474300
28.030300 0.448700
28.049200 0.466100
28.068000 0.629300
28.086800 0.612600
28.105700 0.588700
28.124500 0.614000
28.143400 0.689300
28.162200 0.761200
28.181000 0.813100
28.199900 0.812900
28.218700 0.813300
28.237600 0.816400
28.256400 0.794100
28.275300 0.767700
28.294100 0.678400
28.312900 0.583600
28.331800 0.483100
28.350600 0.377100
28.369500 0.265500
28.388300 0.036500
28.407100 0.001600
28.426000 0.000000
28.444800 0.000000
28.463700 0.000000
28.482500 0.000000
28.501400 0.000000
28.520200 0.000000
28.539000 0.000000
28.557900 0.000000
28.576700 0.000000
28.595600 0.000000
28.614400 0.000000
28.633200 0.000000
28.652100 0.000000
28.670900 0.000000
28.689800 0.000000
28.708600 0.000000
28.727500 0.000000
28.746300 0.000000
28.765100 0.000000
28.784000 0.000000
28.802800 0.000000
28.821700 0.000000
28.840500 0.000000
28.859300 0.000000
28.878200 0.000000
28.897000 0.000000
28.915900 0.000000
28.934700 0.000000
28.953600 0.000000
28.972400 0.000000
28.991200 0.000000
29.010100 0.000000
29.028900 0.000000
29.047800 0.000000
29.066600 0.000000
29.085400 0.000000
29.104300 0.000000
29.123100 0.000000
29.142000 0.000000
29.160800 0.000000
29.179700 0.000000
29.198500 0.000000
29.217300 0.000000
29.236200 0.000000
29.255000 0.000000
29.273900 0.000000
29.292700 0.000000
29.311500 0.000000
29.330400 0.000000
29.349200 0.000000
29.368100 0.000000
29.386900 0.000000
29.405800 0.000000
29.424600 0.000000
29.443400 0.000000
29.462300 0.000000
29.481100 0.000000
29.500000 0.000000
29.518800 0.000000
29.537600 0.000000
29.556500 0.000000
29.575300 0.000000
29.594200 0.000000
29.613000 0.000000
29.631900 0.000000
29.650700 0.000000
29.669500 0.000000
29.688400 0.000000
29.707200 0.000000
29.726100 0.000000
29.744900 0.000000
29.763700 0.000000
29.782600 0.000000
29.801400 0.000000
29.820300 0.000000
29.839100 0.000000
29.858000 0.000000
29.876800 0.000000
29.895600 0.000000
29.914500 0.000000
29.933300 0.000000
29.952200 0.000000
29.971000 0.000000
29.989800 0.000000
30.008700 0.000000
30.027500 0.000000
30.046400 0.000000
30.065200 0.000000
30.084100 0.000000
30.102900 0.000000
30.121700 0.000000
e
