set title 'mp-1226736 - Density of States'
set xlabel 'Energy (eV)'
set ylabel 'DOS (states/eV)'
set grid
set xrange [-10:10]
set yrange [0:28.335]
set xzeroaxis lt -1
set terminal png size 800,600
set output 'mp-1226736_dos_gnuplot.png'
plot '-' using 1:2 with lines title 'DOS'
-8.689200 0.000000
-8.668600 0.000000
-8.647900 0.000000
-8.627300 0.000000
-8.606600 0.000000
-8.586000 0.000000
-8.565300 0.000000
-8.544700 0.000000
-8.524000 0.000000
-8.503400 0.000000
-8.482700 0.000000
-8.462100 0.000000
-8.441400 0.000000
-8.420800 0.000000
-8.400100 0.000000
-8.379500 0.000000
-8.358800 0.000000
-8.338200 0.000000
-8.317500 0.000000
-8.296900 0.000000
-8.276200 0.000000
-8.255600 0.000000
-8.234900 0.000000
-8.214300 0.000000
-8.193600 0.000000
-8.172900 0.000000
-8.152300 0.000000
-8.131600 0.000000
-8.111000 0.000000
-8.090300 0.000000
-8.069700 0.000000
-8.049000 0.000000
-8.028400 0.000000
-8.007700 0.000000
-7.987100 0.000000
-7.966400 0.000000
-7.945800 0.000000
-7.925100 0.000000
-7.904500 0.000000
-7.883800 0.000000
-7.863200 0.000000
-7.842500 0.000000
-7.821900 0.000000
-7.801200 0.000000
-7.780600 0.000000
-7.759900 0.000000
-7.739300 0.000000
-7.718600 0.000000
-7.698000 0.000000
-7.677300 0.000000
-7.656700 0.000000
-7.636000 0.000000
-7.615400 0.000000
-7.594700 0.000000
-7.574100 0.000000
-7.553400 0.000000
-7.532800 0.000000
-7.512100 0.000000
-7.491500 0.000000
-7.470800 0.000000
-7.450200 0.000000
-7.429500 0.000000
-7.408900 0.000000
-7.388200 0.000000
-7.367600 0.000000
-7.346900 0.000000
-7.326300 0.000000
-7.305600 0.000000
-7.285000 0.000000
-7.264300 0.000000
-7.243700 0.000000
-7.223000 0.000000
-7.202400 0.000000
-7.181700 0.000000
-7.161100 0.000000
-7.140400 0.000000
-7.119800 0.000000
-7.099100 0.000000
-7.078500 0.000000
-7.057800 0.000000
-7.037200 0.000000
-7.016500 0.000000
-6.995900 0.000000
-6.975200 0.000000
-6.954600 0.000000
-6.933900 0.000000
-6.913300 0.000000
-6.892600 0.000000
-6.872000 0.000000
-6.851300 0.000000
-6.830600 0.000000
-6.810000 1.422600
-6.789300 1.928000
-6.768700 2.433400
-6.748000 2.938800
-6.727400 3.161000
-6.706700 2.781600
-6.686100 2.624700
-6.665400 2.755500
-6.644800 2.886300
-6.624100 3.017100
-6.603500 3.474100
-6.582800 3.935200
-6.562200 4.452200
-6.541500 4.590700
-6.520900 5.131500
-6.500200 5.664200
-6.479600 6.282300
-6.458900 7.098600
-6.438300 9.966700
-6.417600 5.459200
-6.397000 6.921700
-6.376300 5.887300
-6.355700 6.345200
-6.335000 6.587100
-6.314400 6.167900
-6.293700 6.653400
-6.273100 7.620800
-6.252400 9.032400
-6.231800 8.230700
-6.211100 10.379400
-6.190500 13.625100
-6.169800 14.539700
-6.149200 3.884800
-6.128500 2.785200
-6.107900 1.979200
-6.087200 1.939300
-6.066600 2.444900
-6.045900 4.331900
-6.025300 4.884800
-6.004600 8.069700
-5.984000 11.639500
-5.963300 13.057200
-5.942700 8.378000
-5.922000 6.048300
-5.901400 5.379200
-5.880700 6.329600
-5.860100 7.714700
-5.839400 9.530100
-5.818800 11.362800
-5.798100 14.255600
-5.777500 17.877800
-5.756800 19.424400
-5.736200 24.134100
-5.715500 8.964000
-5.694900 5.297900
-5.674200 1.677100
-5.653600 7.650200
-5.632900 11.952700
-5.612300 10.392900
-5.591600 9.540800
-5.571000 7.521800
-5.550300 7.496500
-5.529700 3.515400
-5.509000 3.341500
-5.488400 3.178700
-5.467700 3.015800
-5.447000 2.852900
-5.426400 2.690000
-5.405700 2.527100
-5.385100 2.364300
-5.364400 2.216900
-5.343800 2.152400
-5.323100 2.102300
-5.302500 2.052200
-5.281800 1.923800
-5.261200 1.727500
-5.240500 1.531200
-5.219900 1.334900
-5.199200 0.000000
-5.178600 0.000000
-5.157900 0.000000
-5.137300 0.000000
-5.116600 0.000000
-5.096000 0.000000
-5.075300 0.000500
-5.054700 0.014900
-5.034000 0.039800
-5.013400 0.072200
-4.992700 0.111700
-4.972100 0.158100
-4.951400 0.212500
-4.930800 0.279600
-4.910100 0.353700
-4.889500 0.343700
-4.868800 0.357500
-4.848200 0.369900
-4.827500 0.377100
-4.806900 0.373300
-4.786200 0.347800
-4.765600 0.310000
-4.744900 0.315900
-4.724300 0.321800
-4.703600 0.327800
-4.683000 0.333700
-4.662300 0.339600
-4.641700 0.345600
-4.621000 0.351500
-4.600400 0.357400
-4.579700 0.363400
-4.559100 0.369300
-4.538400 0.374200
-4.517800 0.375900
-4.497100 0.375400
-4.476500 0.373000
-4.455800 0.368400
-4.435200 0.360400
-4.414500 0.352000
-4.393900 0.343500
-4.373200 0.335100
-4.352600 0.329100
-4.331900 0.325000
-4.311300 0.322600
-4.290600 0.322200
-4.270000 0.324500
-4.249300 0.327000
-4.228700 0.329500
-4.208000 0.332000
-4.187400 0.334500
-4.166700 0.337000
-4.146100 0.339600
-4.125400 0.342100
-4.104700 0.344600
-4.084100 0.347100
-4.063400 0.349600
-4.042800 0.352100
-4.022100 0.354600
-4.001500 0.357100
-3.980800 0.359600
-3.960200 0.362100
-3.939500 0.364600
-3.918900 0.367100
-3.898200 0.369600
-3.877600 0.372100
-3.856900 0.374600
-3.836300 0.377100
-3.815600 0.374000
-3.795000 0.370800
-3.774300 0.367800
-3.753700 0.375600
-3.733000 0.385700
-3.712400 0.397800
-3.691700 0.411600
-3.671100 0.426600
-3.650400 0.442500
-3.629800 0.459500
-3.609100 0.477500
-3.588500 0.496400
-3.567800 0.515300
-3.547200 0.512100
-3.526500 0.517100
-3.505900 0.526000
-3.485200 0.536000
-3.464600 0.546800
-3.443900 0.558000
-3.423300 0.569600
-3.402600 0.581700
-3.382000 0.594100
-3.361300 0.606600
-3.340700 0.619400
-3.320000 0.632300
-3.299400 0.645300
-3.278700 0.658600
-3.258100 0.672200
-3.237400 0.686000
-3.216800 0.700000
-3.196100 0.714100
-3.175500 0.728500
-3.154800 0.743400
-3.134200 0.759000
-3.113500 0.775400
-3.092900 0.792400
-3.072200 0.810000
-3.051600 0.828200
-3.030900 0.846900
-3.010300 0.866300
-2.989600 0.910800
-2.969000 1.008700
-2.948300 1.100400
-2.927700 1.191100
-2.907000 1.278000
-2.886400 1.363100
-2.865700 1.471600
-2.845100 1.613000
-2.824400 1.840900
-2.803800 2.173700
-2.783100 2.856500
-2.762500 3.357600
-2.741800 4.277100
-2.721100 5.711400
-2.700500 6.184100
-2.679800 6.636800
-2.659200 6.622500
-2.638500 6.385100
-2.617900 6.728000
-2.597200 8.182000
-2.576600 9.695500
-2.555900 10.983200
-2.535300 11.658200
-2.514600 11.839200
-2.494000 12.756600
-2.473300 13.553300
-2.452700 13.334600
-2.432000 14.342300
-2.411400 14.470800
-2.390700 13.878700
-2.370100 14.374900
-2.349400 12.010100
-2.328800 9.532800
-2.308100 8.281200
-2.287500 8.950200
-2.266800 9.147100
-2.246200 9.211100
-2.225500 8.159500
-2.204900 9.252000
-2.184200 9.372500
-2.163600 10.328600
-2.142900 9.852200
-2.122300 10.747900
-2.101600 14.083100
-2.081000 18.280400
-2.060300 13.273000
-2.039700 10.369800
-2.019000 8.849500
-1.998400 8.429400
-1.977700 8.856600
-1.957100 4.795700
-1.936400 3.514700
-1.915800 3.553600
-1.895100 3.968300
-1.874500 4.425800
-1.853800 5.684900
-1.833200 7.545600
-1.812500 7.294000
-1.791900 8.406600
-1.771200 10.691000
-1.750600 10.158200
-1.729900 8.955500
-1.709300 9.431100
-1.688600 9.348200
-1.668000 10.582500
-1.647300 10.470400
-1.626700 11.447500
-1.606000 11.276700
-1.585400 18.127900
-1.564700 14.195600
-1.544100 25.759100
-1.523400 16.086700
-1.502800 16.102400
-1.482100 16.466900
-1.461500 14.967500
-1.440800 12.473000
-1.420200 13.762600
-1.399500 15.569000
-1.378800 16.596300
-1.358200 23.708100
-1.337500 16.441500
-1.316900 11.926300
-1.296200 10.576100
-1.275600 10.411400
-1.254900 11.239100
-1.234300 11.987500
-1.213600 10.403000
-1.193000 11.490700
-1.172300 13.480600
-1.151700 12.709000
-1.131000 11.941600
-1.110400 10.920100
-1.089700 11.839500
-1.069100 12.854200
-1.048400 12.690300
-1.027800 12.206600
-1.007100 10.618000
-0.986500 9.618800
-0.965800 9.517200
-0.945200 8.128200
-0.924500 8.868500
-0.903900 9.803700
-0.883200 10.607700
-0.862600 11.231700
-0.841900 13.501700
-0.821300 12.268200
-0.800600 8.684000
-0.780000 8.719400
-0.759300 9.127400
-0.738700 7.403000
-0.718000 7.144200
-0.697400 8.379400
-0.676700 9.142000
-0.656100 11.037900
-0.635400 10.323900
-0.614800 10.462000
-0.594100 11.124900
-0.573500 11.558100
-0.552800 13.855100
-0.532200 10.465400
-0.511500 10.326900
-0.490900 10.237700
-0.470200 10.602600
-0.449600 11.304400
-0.428900 11.377400
-0.408300 12.009900
-0.387600 11.585700
-0.367000 12.618200
-0.346300 12.540500
-0.325700 12.557800
-0.305000 12.794900
-0.284400 12.872900
-0.263700 11.358300
-0.243100 8.980900
-0.222400 7.493300
-0.201800 7.188000
-0.181100 8.226900
-0.160500 10.633200
-0.139800 12.289400
-0.119200 9.881200
-0.098500 8.013000
-0.077900 5.881100
-0.057200 6.592500
-0.036600 7.686100
-0.015900 18.418900
0.004800 13.821600
0.025400 4.859900
0.046100 3.504700
0.066700 3.238300
0.087400 2.970500
0.108000 2.722900
0.128700 2.492700
0.149300 1.449500
0.170000 1.438200
0.190600 1.430500
0.211300 1.425700
0.231900 1.423900
0.252600 1.426100
0.273200 1.428100
0.293900 1.429300
0.314500 1.429800
0.335200 1.411900
0.355800 1.365300
0.376500 1.344600
0.397100 1.329200
0.417800 1.317400
0.438400 1.307400
0.459100 1.298400
0.479700 1.290700
0.500400 1.282800
0.521000 1.275500
0.541700 1.262000
0.562300 1.241100
0.583000 1.219900
0.603600 1.196200
0.624300 1.175300
0.644900 1.157800
0.665600 1.140200
0.686200 1.120600
0.706900 1.092900
0.727500 1.080900
0.748200 1.071300
0.768800 1.063500
0.789500 1.057100
0.810100 1.051900
0.830800 1.048000
0.851400 1.045600
0.872100 1.045400
0.892700 1.045900
0.913400 1.046500
0.934000 1.047200
0.954700 1.047900
0.975300 1.048800
0.996000 1.050800
1.016600 1.053300
1.037300 1.055900
1.057900 1.058600
1.078600 1.061500
1.099200 1.066400
1.119900 1.072800
1.140500 1.080900
1.161200 1.091300
1.181800 1.104300
1.202500 1.115300
1.223100 1.125600
1.243800 1.136300
1.264400 1.147500
1.285100 1.156900
1.305700 1.162200
1.326400 1.166000
1.347100 1.168300
1.367700 1.168900
1.388400 1.166900
1.409000 1.164400
1.429700 1.162100
1.450300 1.159800
1.471000 1.157600
1.491600 1.155300
1.512300 1.153100
1.532900 1.150900
1.553600 1.148800
1.574200 1.146600
1.594900 1.144500
1.615500 1.142000
1.636200 1.136800
1.656800 1.133500
1.677500 1.130300
1.698100 1.127100
1.718800 1.123800
1.739400 1.120600
1.760100 1.117600
1.780700 1.115600
1.801400 1.114100
1.822000 1.113100
1.842700 1.112500
1.863300 1.111100
1.884000 1.106000
1.904600 1.098700
1.925300 1.091800
1.945900 1.144800
1.966600 1.309200
1.987200 1.549300
2.007900 1.714600
2.028500 1.489900
2.049200 1.283400
2.069800 1.190700
2.090500 1.136000
2.111100 1.099900
2.131800 1.075500
2.152400 1.060100
2.173100 1.050400
2.193700 1.046400
2.214400 1.047300
2.235000 1.059800
2.255700 1.094400
2.276300 1.119800
2.297000 1.140300
2.317600 1.161000
2.338300 1.182000
2.358900 1.203700
2.379600 1.226800
2.400200 1.248600
2.420900 1.269300
2.441500 1.290500
2.462200 1.311100
2.482800 1.328600
2.503500 1.344100
2.524100 1.376400
2.544800 1.440600
2.565400 1.185300
2.586100 1.154300
2.606700 1.127300
2.627400 1.104000
2.648000 1.083000
2.668700 1.063100
2.689300 1.045100
2.710000 1.029100
2.730700 1.012600
2.751300 0.995500
2.772000 0.978300
2.792600 0.965600
2.813300 0.965200
2.833900 0.965800
2.854600 0.964400
2.875200 0.961400
2.895900 0.962900
2.916500 0.964600
2.937200 0.966500
2.957800 0.968600
2.978500 0.970700
2.999100 0.973400
3.019800 0.980100
3.040400 0.986900
3.061100 0.992100
3.081700 0.997200
3.102400 1.002100
3.123000 1.007200
3.143700 1.012800
3.164300 1.019200
3.185000 1.026900
3.205600 1.034900
3.226300 1.042900
3.246900 1.051000
3.267600 1.059100
3.288200 1.067300
3.308900 1.109200
3.329500 1.147600
3.350200 1.181100
3.370800 1.217300
3.391500 1.259800
3.412100 1.309900
3.432800 1.362600
3.453400 1.459400
3.474100 1.724000
3.494700 1.719900
3.515400 1.401700
3.536000 1.373200
3.556700 1.360700
3.577300 1.354800
3.598000 1.350100
3.618600 1.347600
3.639300 1.295700
3.659900 1.309500
3.680600 1.331700
3.701200 1.363000
3.721900 1.401700
3.742500 1.447100
3.763200 1.493600
3.783800 1.741100
3.804500 1.934200
3.825100 1.051700
3.845800 0.991700
3.866400 0.971400
3.887100 0.971000
3.907700 0.992500
3.928400 0.989800
3.949000 0.925000
3.969700 0.865300
3.990300 0.812100
4.011000 0.777800
4.031600 0.761600
4.052300 0.758200
4.073000 0.766400
4.093600 0.787500
4.114300 0.817600
4.134900 0.826500
4.155600 0.811500
4.176200 0.809300
4.196900 0.837100
4.217500 0.862200
4.238200 0.877200
4.258800 0.884100
4.279500 0.883300
4.300100 0.876700
4.320800 0.872600
4.341400 0.871600
4.362100 0.873500
4.382700 0.877600
4.403400 0.883600
4.424000 0.892100
4.444700 0.903400
4.465300 0.917700
4.486000 0.935000
4.506600 0.955000
4.527300 0.978300
4.547900 1.006400
4.568600 1.032800
4.589200 1.057000
4.609900 1.080200
4.630500 1.099700
4.651200 1.116500
4.671800 1.121100
4.692500 1.104900
4.713100 1.083400
4.733800 1.057300
4.754400 1.030500
4.775100 1.008800
4.795700 0.992400
4.816400 0.981400
4.837000 0.978200
4.857700 0.987000
4.878300 0.990700
4.899000 0.988700
4.919600 0.980900
4.940300 0.970500
4.960900 0.959800
4.981600 0.948900
5.002200 0.939700
5.022900 0.932300
5.043500 0.927200
5.064200 0.923600
5.084800 0.922900
5.105500 0.904000
5.126100 0.897700
5.146800 0.925000
5.167400 0.979800
5.188100 1.026300
5.208700 1.093600
5.229400 1.139300
5.250000 1.186600
5.270700 1.282500
5.291300 1.429400
5.312000 1.552100
5.332600 1.647800
5.353300 1.642300
5.373900 1.544900
5.394600 1.392600
5.415200 1.299500
5.435900 1.246700
5.456600 1.226700
5.477200 1.207400
5.497900 1.211000
5.518500 1.210800
5.539200 1.191100
5.559800 1.192200
5.580500 1.190300
5.601100 1.197100
5.621800 1.205100
5.642400 1.214200
5.663100 1.225800
5.683700 1.239900
5.704400 1.255500
5.725000 1.272600
5.745700 1.291100
5.766300 1.432400
5.787000 1.913300
5.807600 2.034200
5.828300 1.764600
5.848900 1.658400
5.869600 1.548700
5.890200 1.449400
5.910900 1.371700
5.931500 1.337500
5.952200 1.418900
5.972800 1.701200
5.993500 2.093300
6.014100 2.166300
6.034800 2.088600
6.055400 2.020600
6.076100 1.935500
6.096700 1.851400
6.117400 1.723400
6.138000 1.544600
6.158700 1.300900
6.179300 1.044500
6.200000 0.985700
6.220600 0.941800
6.241300 0.919100
6.261900 0.909600
6.282600 0.897700
6.303200 0.887200
6.323900 0.877500
6.344500 0.867700
6.365200 0.858000
6.385800 0.848700
6.406500 0.841000
6.427100 0.839500
6.447800 0.844300
6.468400 0.855600
6.489100 0.873400
6.509700 0.891500
6.530400 0.902200
6.551000 0.950600
6.571700 1.001300
6.592300 1.014800
6.613000 1.016300
6.633600 1.008800
6.654300 1.009200
6.674900 1.010900
6.695600 1.013200
6.716200 1.020600
6.736900 1.037900
6.757500 1.025100
6.778200 1.026500
6.798900 1.031300
6.819500 1.040000
6.840200 1.040600
6.860800 1.035400
6.881500 1.030900
6.902100 1.029100
6.922800 1.029600
6.943400 1.032300
6.964100 1.036300
6.984700 1.042700
7.005400 1.049200
7.026000 1.057600
7.046700 1.069100
7.067300 1.084100
7.088000 1.103800
7.108600 1.131700
7.129300 1.163100
7.149900 1.187600
7.170600 1.202000
7.191200 1.210400
7.211900 1.216700
7.232500 1.223600
7.253200 1.230700
7.273800 1.231200
7.294500 1.221500
7.315100 1.208100
7.335800 1.192200
7.356400 1.177200
7.377100 1.164000
7.397700 1.152800
7.418400 1.144900
7.439000 1.140000
7.459700 1.139000
7.480300 1.137600
7.501000 1.135600
7.521600 1.149100
7.542300 1.165000
7.562900 1.181400
7.583600 1.197700
7.604200 1.215600
7.624900 1.233700
7.645500 1.251300
7.666200 1.266000
7.686800 1.278000
7.707500 1.287000
7.728100 1.288900
7.748800 1.275900
7.769400 1.280900
7.790100 1.287800
7.810700 1.301600
7.831400 1.347000
7.852000 1.381600
7.872700 1.401900
7.893300 1.406700
7.914000 1.415800
7.934600 1.453300
7.955300 1.500300
7.975900 1.551000
7.996600 1.700100
8.017200 1.769300
8.037900 1.808600
8.058500 1.852200
8.079200 1.912700
8.099800 2.000000
8.120500 1.982800
8.141100 1.775500
8.161800 1.709900
8.182500 1.665600
8.203100 1.630500
8.223800 1.617500
8.244400 1.623300
8.265100 1.631100
8.285700 1.638900
8.306400 1.648600
8.327000 1.655500
8.347700 1.662100
8.368300 1.666200
8.389000 1.659300
8.409600 1.644700
8.430300 1.637700
8.450900 1.636500
8.471600 1.634100
8.492200 1.630300
8.512900 1.624700
8.533500 1.620500
8.554200 1.618500
8.574800 1.618600
8.595500 1.621000
8.616100 1.624000
8.636800 1.627900
8.657400 1.629500
8.678100 1.639300
8.698700 1.674600
8.719400 1.731100
8.740000 1.755400
8.760700 1.734500
8.781300 1.696900
8.802000 1.597800
8.822600 1.507400
8.843300 1.476600
8.863900 1.456200
8.884600 1.437400
8.905200 1.419800
8.925900 1.402300
8.946500 1.384700
8.967200 1.370900
8.987800 1.365200
9.008500 1.365200
9.029100 1.372200
9.049800 1.386500
9.070400 1.405000
9.091100 1.423700
9.111700 1.476200
9.132400 1.509300
9.153000 1.549500
9.173700 1.605600
9.194300 1.678200
9.215000 1.765700
9.235600 1.846600
9.256300 1.869400
9.276900 1.794400
9.297600 1.728700
9.318200 1.674200
9.338900 1.624100
9.359500 1.576000
9.380200 1.532200
9.400800 1.498400
9.421500 1.491200
9.442100 1.490500
9.462800 1.488200
9.483400 1.490400
9.504100 1.507200
9.524800 1.522200
9.545400 1.531500
9.566100 1.541800
9.586700 1.553400
9.607400 1.565600
9.628000 1.577300
9.648700 1.587600
9.669300 1.596800
9.690000 1.608500
9.710600 1.625600
9.731300 1.647600
9.751900 1.675000
9.772600 1.733600
9.793200 1.828600
9.813900 1.746400
9.834500 1.747000
9.855200 1.764500
9.875800 1.776100
9.896500 1.762100
9.917100 1.733500
9.937800 1.696600
9.958400 1.669200
9.979100 1.650100
9.999700 1.635400
10.020400 1.623800
10.041000 1.615000
10.061700 1.607900
10.082300 1.603400
10.103000 1.604000
10.123600 1.608600
10.144300 1.612400
10.164900 1.604600
10.185600 1.593900
10.206200 1.589100
10.226900 1.589500
10.247500 1.587900
10.268200 1.586400
10.288800 1.588200
10.309500 1.593300
10.330100 1.603000
10.350800 1.617000
10.371400 1.635600
10.392100 1.657400
10.412700 1.680200
10.433400 1.703600
10.454000 1.727600
10.474700 1.753000
10.495300 1.781500
10.516000 1.813800
10.536600 1.851400
10.557300 1.913100
10.577900 1.982100
10.598600 2.076500
10.619200 2.149600
10.639900 2.158000
10.660500 2.101500
10.681200 2.036300
10.701800 2.044600
10.722500 2.047500
10.743100 2.132900
10.763800 2.087200
10.784400 2.086100
10.805100 2.095700
10.825700 2.106200
10.846400 2.102600
10.867000 2.080200
10.887700 2.068600
10.908400 2.081000
10.929000 2.031000
10.949700 1.978500
10.970300 1.937100
10.991000 1.899700
11.011600 1.868500
11.032300 1.845600
11.052900 1.825200
11.073600 1.807400
11.094200 1.793700
11.114900 1.781900
11.135500 1.774300
11.156200 1.770200
11.176800 1.765200
11.197500 1.759400
11.218100 1.754400
11.238800 1.751400
11.259400 1.751800
11.280100 1.756000
11.300700 1.761500
11.321400 1.768400
11.342000 1.776900
11.362700 1.786000
11.383300 1.793600
11.404000 1.799300
11.424600 1.803000
11.445300 1.805700
11.465900 1.806200
11.486600 1.806500
11.507200 1.807300
11.527900 1.808700
11.548500 1.812000
11.569200 1.815800
11.589800 1.819900
11.610500 1.824600
11.631100 1.831200
11.651800 1.840000
11.672400 1.850200
11.693100 1.862800
11.713700 1.877400
11.734400 1.893200
11.755000 1.914500
11.775700 1.936200
11.796300 1.951900
11.817000 1.957500
11.837600 1.962500
11.858300 1.968500
11.878900 1.975100
11.899600 1.980800
11.920200 1.986200
11.940900 1.998900
11.961500 2.013100
11.982200 2.029300
12.002800 2.041200
12.023500 2.050200
12.044100 2.060700
12.064800 2.073300
12.085400 2.084900
12.106100 2.094400
12.126700 2.102300
12.147400 2.101900
12.168000 2.103400
12.188700 2.109400
12.209300 2.118600
12.230000 2.132800
12.250700 2.148400
12.271300 2.156200
12.292000 2.153800
12.312600 2.125900
12.333300 2.114300
12.353900 2.113500
12.374600 2.125700
12.395200 2.151600
12.415900 2.183200
12.436500 2.181400
12.457200 2.181500
12.477800 2.183100
12.498500 2.186000
12.519100 2.202900
12.539800 2.217500
12.560400 2.230900
12.581100 2.266100
12.601700 2.278200
12.622400 2.265200
12.643000 2.244300
12.663700 2.283500
12.684300 2.332300
12.705000 2.253600
12.725600 2.233500
12.746300 2.226900
12.766900 2.218000
12.787600 2.208300
12.808200 2.198900
12.828900 2.188800
12.849500 2.178100
12.870200 2.171000
12.890800 2.164900
12.911500 2.163100
12.932100 2.173500
12.952800 2.184000
12.973400 2.192000
12.994100 2.193600
13.014700 2.188300
13.035400 2.193200
13.056000 2.205100
13.076700 2.207100
13.097300 2.202800
13.118000 2.197000
13.138600 2.200600
13.159300 2.214300
13.179900 2.035700
13.200600 1.991400
13.221200 1.987300
13.241900 2.000100
13.262500 2.014200
13.283200 2.022300
13.303800 2.021400
13.324500 2.011700
13.345100 1.991400
13.365800 1.972800
13.386400 1.961600
13.407100 1.952600
13.427700 1.945800
13.448400 1.940700
13.469000 1.938400
13.489700 1.940300
13.510300 1.946900
13.531000 1.961600
13.551600 1.982300
13.572300 1.999900
13.592900 2.008000
13.613600 2.014000
13.634300 2.024900
13.654900 2.054100
13.675600 2.065100
13.696200 2.061900
13.716900 2.059900
13.737500 2.058700
13.758200 2.058400
13.778800 2.059000
13.799500 2.060600
13.820100 2.062200
13.840800 2.064200
13.861400 2.066500
13.882100 2.068900
13.902700 2.073300
13.923400 2.078800
13.944000 2.075300
13.964700 2.073800
13.985300 2.083300
14.006000 2.098900
14.026600 2.117900
14.047300 2.143300
14.067900 2.181400
14.088600 2.243000
14.109200 2.260300
14.129900 2.222100
14.150500 2.167100
14.171200 2.128000
14.191800 2.095300
14.212500 2.068100
14.233100 2.041900
14.253800 2.023600
14.274400 2.006600
14.295100 1.996300
14.315700 1.987000
14.336400 1.977500
14.357000 1.973000
14.377700 1.970900
14.398300 1.969300
14.419000 1.968400
14.439600 1.968200
14.460300 1.968400
14.480900 1.968400
14.501600 1.967500
14.522200 1.965600
14.542900 1.964600
14.563500 1.972600
14.584200 1.984400
14.604800 1.994800
14.625500 2.004900
14.646100 2.018700
14.666800 2.036600
14.687400 2.060000
14.708100 2.105100
14.728700 2.131100
14.749400 2.136000
14.770000 2.129400
14.790700 2.107900
14.811300 2.079300
14.832000 2.059500
14.852600 2.036700
14.873300 2.021000
14.893900 2.015900
14.914600 2.017200
14.935200 2.027300
14.955900 2.040000
14.976600 2.039800
14.997200 2.025500
15.017900 1.998700
15.038500 1.979800
15.059200 1.961800
15.079800 1.944600
15.100500 1.928300
15.121100 1.913000
15.141800 1.898500
15.162400 1.885500
15.183100 1.877000
15.203700 1.871500
15.224400 1.868300
15.245000 1.867400
15.265700 1.869000
15.286300 1.873000
15.307000 1.884600
15.327600 1.897800
15.348300 1.888500
15.368900 1.862400
15.389600 1.865300
15.410200 1.870500
15.430900 1.878200
15.451500 1.886700
15.472200 1.894700
15.492800 1.901400
15.513500 1.906700
15.534100 1.909500
15.554800 1.911600
15.575400 1.914400
15.596100 1.917700
15.616700 1.921500
15.637400 1.926000
15.658000 1.931200
15.678700 1.936300
15.699300 1.943000
15.720000 1.993900
15.740600 1.988600
15.761300 1.981400
15.781900 1.971000
15.802600 1.961500
15.823200 1.949900
15.843900 1.937800
15.864500 1.927000
15.885200 1.917900
15.905800 1.910400
15.926500 1.906500
15.947100 1.905100
15.967800 1.904600
15.988400 1.904800
16.009100 1.904700
16.029700 1.905300
16.050400 1.906600
16.071000 1.908300
16.091700 1.910500
16.112300 1.913100
16.133000 1.916900
16.153600 1.923300
16.174300 1.931200
16.194900 1.938800
16.215600 1.946600
16.236200 1.954500
16.256900 1.962600
16.277500 1.970800
16.298200 1.978900
16.318800 1.986900
16.339500 2.251600
16.360200 1.991600
16.380800 1.996000
16.401500 1.989300
16.422100 1.971800
16.442800 1.974300
16.463400 1.981000
16.484100 1.988400
16.504700 2.005200
16.525400 2.025800
16.546000 2.082700
16.566700 2.232400
16.587300 2.241600
16.608000 2.233300
16.628600 2.213600
16.649300 2.188700
16.669900 2.154100
16.690600 2.113200
16.711200 2.072000
16.731900 2.034400
16.752500 2.001300
16.773200 1.973300
16.793800 1.950400
16.814500 1.932300
16.835100 1.918200
16.855800 1.907300
16.876400 1.896900
16.897100 1.885800
16.917700 1.873500
16.938400 1.862300
16.959000 1.854200
16.979700 1.846200
17.000300 1.837000
17.021000 1.826100
17.041600 1.813800
17.062300 1.801500
17.082900 1.789300
17.103600 1.775700
17.124200 1.784900
17.144900 1.769500
17.165500 1.755600
17.186200 1.745600
17.206800 1.742600
17.227500 1.728500
17.248100 1.714000
17.268800 1.699000
17.289400 1.684800
17.310100 1.671100
17.330700 1.658200
17.351400 1.646000
17.372000 1.635200
17.392700 1.627900
17.413300 1.630300
17.434000 1.632200
17.454600 1.632900
17.475300 1.632800
17.495900 1.633400
17.516600 1.631000
17.537200 1.627700
17.557900 1.628100
17.578500 1.632700
17.599200 1.638600
17.619800 1.650300
17.640500 1.668300
17.661100 1.685900
17.681800 1.704900
17.702500 1.840000
17.723100 1.865700
17.743800 1.885600
17.764400 1.900100
17.785100 1.910200
17.805700 1.917800
17.826400 1.926200
17.847000 1.936100
17.867700 1.947300
17.888300 1.962500
17.909000 1.976200
17.929600 1.990900
17.950300 2.008000
17.970900 2.028900
17.991600 2.052200
18.012200 2.072500
18.032900 2.091400
18.053500 2.107600
18.074200 2.117800
18.094800 2.119000
18.115500 2.109500
18.136100 2.118800
18.156800 2.166200
18.177400 2.222900
18.198100 2.223000
18.218700 2.203300
18.239400 2.187800
18.260000 2.177300
18.280700 2.191500
18.301300 2.246100
18.322000 2.330500
18.342600 2.425000
18.363300 2.530400
18.383900 2.621800
18.404600 2.642200
18.425200 2.625500
18.445900 2.631500
18.466500 2.695500
18.487200 2.785300
18.507800 2.882500
18.528500 3.014600
18.549100 3.123100
18.569800 3.214900
18.590400 3.315500
18.611100 3.450700
18.631700 3.567700
18.652400 3.662500
18.673000 3.705000
18.693700 3.700300
18.714300 3.624300
18.735000 3.584600
18.755600 3.557200
18.776300 3.532600
18.796900 3.521800
18.817600 3.585200
18.838200 3.614800
18.858900 3.625100
18.879500 3.612900
18.900200 3.549100
18.920800 3.527100
18.941500 3.490100
18.962100 3.449300
18.982800 3.413000
19.003400 3.478000
19.024100 3.438600
19.044700 3.372200
19.065400 3.315900
19.086100 3.272800
19.106700 3.243800
19.127400 3.227100
19.148000 3.214300
19.168700 3.197400
19.189300 3.166100
19.210000 3.141800
19.230600 3.125500
19.251300 3.113600
19.271900 3.104200
19.292600 3.102100
19.313200 3.108000
19.333900 3.122300
19.354500 3.142800
19.375200 3.162200
19.395800 3.183400
19.416500 3.186700
19.437100 3.172100
19.457800 3.144700
19.478400 3.108800
19.499100 3.063400
19.519700 2.991700
19.540400 2.919800
19.561000 2.876100
19.581700 2.850500
19.602300 2.828600
19.623000 2.820800
19.643600 2.802400
19.664300 2.785800
19.684900 2.773800
19.705600 2.766000
19.726200 2.761900
19.746900 2.762400
19.767500 2.771600
19.788200 2.790500
19.808800 2.817900
19.829500 2.846600
19.850100 2.878100
19.870800 2.910200
19.891400 2.938500
19.912100 2.969600
19.932700 2.991000
19.953400 3.000100
19.974000 3.006300
19.994700 3.019200
20.015300 3.046800
20.036000 3.070700
20.056600 3.086900
20.077300 3.097400
20.097900 3.098600
20.118600 3.100400
20.139200 3.093100
20.159900 3.085800
20.180500 3.082800
20.201200 3.081500
20.221800 3.083900
20.242500 3.092500
20.263100 3.104600
20.283800 3.109100
20.304400 3.107700
20.325100 3.101600
20.345700 3.091200
20.366400 3.097600
20.387000 3.096800
20.407700 3.082900
20.428400 3.054600
20.449000 3.002500
20.469700 2.967900
20.490300 3.039100
20.511000 3.009100
20.531600 2.854700
20.552300 2.830300
20.572900 2.897700
20.593600 3.035400
20.614200 2.920200
20.634900 2.893900
20.655500 2.904200
20.676200 2.949300
20.696800 3.028300
20.717500 3.145100
20.738100 3.268000
20.758800 3.386800
20.779400 3.334600
20.800100 3.248700
20.820700 3.280300
20.841400 3.222100
20.862000 3.127200
20.882700 3.042600
20.903300 2.963800
20.924000 2.875300
20.944600 2.771700
20.965300 2.663800
20.985900 2.589200
21.006600 2.400200
21.027200 2.366700
21.047900 2.338000
21.068500 2.318100
21.089200 2.329900
21.109800 2.320800
21.130500 2.284600
21.151100 2.249400
21.171800 2.207800
21.192400 2.213400
21.213100 2.219700
21.233700 2.275900
21.254400 2.469500
21.275000 2.323800
21.295700 2.109800
21.316300 1.978200
21.337000 1.925000
21.357600 1.864200
21.378300 1.805900
21.398900 1.757600
21.419600 1.718000
21.440200 1.681900
21.460900 1.642900
21.481500 1.600100
21.502200 1.556300
21.522800 1.545100
21.543500 1.539100
21.564100 1.537300
21.584800 1.504600
21.605400 1.437600
21.626100 1.394700
21.646700 1.403000
21.667400 1.440700
21.688000 1.542700
21.708700 1.831000
21.729300 1.779200
21.750000 1.622400
21.770600 1.622700
21.791300 1.623300
21.812000 1.626000
21.832600 1.631200
21.853300 1.638800
21.873900 1.648500
21.894600 1.659600
21.915200 1.673500
21.935900 1.687700
21.956500 1.707000
21.977200 1.729200
21.997800 1.747400
22.018500 1.761800
22.039100 1.772100
22.059800 1.777900
22.080400 1.780100
22.101100 1.778800
22.121700 1.772500
22.142400 1.760500
22.163000 1.746600
22.183700 1.733000
22.204300 1.714000
22.225000 1.691300
22.245600 1.643000
22.266300 1.607500
22.286900 1.589300
22.307600 1.571700
22.328200 1.556700
22.348900 1.543600
22.369500 1.534800
22.390200 1.542200
22.410800 1.581900
22.431500 1.474400
22.452100 1.474200
22.472800 1.478000
22.493400 1.473900
22.514100 1.461500
22.534700 1.439800
22.555400 1.405300
22.576000 1.362900
22.596700 1.308800
22.617300 1.240000
22.638000 1.185800
22.658600 1.171300
22.679300 1.197100
22.699900 1.372900
22.720600 1.290100
22.741200 1.302300
22.761900 1.311900
22.782500 1.324000
22.803200 1.350900
22.823800 1.374900
22.844500 1.383000
22.865100 1.406200
22.885800 1.389400
22.906400 1.359100
22.927100 1.330000
22.947700 1.304200
22.968400 1.281500
22.989000 1.287200
23.009700 1.369100
23.030300 1.383400
23.051000 1.460800
23.071600 1.509500
23.092300 1.632600
23.112900 1.788700
23.133600 1.951400
23.154300 2.077000
23.174900 2.085100
23.195600 2.208500
23.216200 2.298200
23.236900 2.362200
23.257500 2.406200
23.278200 2.436600
23.298800 2.436600
23.319500 2.104700
23.340100 2.015200
23.360800 1.983100
23.381400 1.947800
23.402100 1.925700
23.422700 1.951400
23.443400 2.050600
23.464000 2.072800
23.484700 2.086700
23.505300 2.095900
23.526000 2.082000
23.546600 2.031500
23.567300 2.001300
23.587900 2.003200
23.608600 2.021000
23.629200 2.080100
23.649900 2.120600
23.670500 2.139900
23.691200 2.157400
23.711800 2.186600
23.732500 2.212800
23.753100 2.240300
23.773800 2.279900
23.794400 2.334700
23.815100 2.367700
23.835700 2.379000
23.856400 2.413100
23.877000 2.430700
23.897700 2.456000
23.918300 2.517000
23.939000 2.611500
23.959600 2.702700
23.980300 2.795400
24.000900 2.909900
24.021600 2.957200
24.042200 2.992800
24.062900 3.013400
24.083500 3.028200
24.104200 3.059700
24.124800 3.144900
24.145500 3.331300
24.166100 3.283400
24.186800 3.276100
24.207400 3.355800
24.228100 3.045100
24.248700 3.040000
24.269400 3.125000
24.290000 3.231100
24.310700 3.416400
24.331300 3.568400
24.352000 3.660900
24.372600 3.758500
24.393300 3.856500
24.413900 3.964700
24.434600 4.216300
24.455200 4.332600
24.475900 4.164600
24.496500 4.021500
24.517200 3.960300
24.537900 3.960300
24.558500 3.831400
24.579200 3.656700
24.599800 3.462400
24.620500 3.339200
24.641100 3.431600
24.661800 3.037900
24.682400 2.887600
24.703100 2.759500
24.723700 2.625000
24.744400 2.500900
24.765000 2.374900
24.785700 2.264400
24.806300 2.162200
24.827000 2.097700
24.847600 2.064400
24.868300 2.038800
24.888900 2.021400
24.909600 2.012200
24.930200 2.001700
24.950900 1.990500
24.971500 1.981300
24.992200 1.983700
25.012800 1.996100
25.033500 2.013400
25.054100 2.041300
25.074800 2.063700
25.095400 2.088000
25.116100 2.120300
25.136700 2.179900
25.157400 2.247300
25.178000 2.392400
25.198700 2.385200
25.219300 2.331200
25.240000 2.294800
25.260600 2.276700
25.281300 2.273800
25.301900 2.280000
25.322600 2.264400
25.343200 2.244600
25.363900 2.237500
25.384500 2.305600
25.405200 2.339200
25.425800 2.352600
25.446500 2.388400
25.467100 2.446600
25.487800 2.555600
25.508400 2.622200
25.529100 2.518100
25.549700 2.485700
25.570400 2.463800
25.591000 2.442900
25.611700 2.422200
25.632300 2.393400
25.653000 2.364800
25.673600 2.332800
25.694300 2.299000
25.714900 2.264600
25.735600 2.244500
25.756200 2.236700
25.776900 2.247100
25.797500 2.256100
25.818200 2.258100
25.838800 2.257200
25.859500 2.423900
25.880200 2.420600
25.900800 2.153100
25.921500 2.135200
25.942100 2.143600
25.962800 2.153200
25.983400 2.165000
26.004100 2.176600
26.024700 2.268700
26.045400 2.437500
26.066000 2.489800
26.086700 2.510200
26.107300 2.503200
26.128000 2.498800
26.148600 2.557700
26.169300 2.618800
26.189900 2.676500
26.210600 2.707500
26.231200 2.744300
26.251900 2.772900
26.272500 2.786000
26.293200 2.797200
26.313800 2.808200
26.334500 2.820500
26.355100 2.831200
26.375800 2.838400
26.396400 2.853900
26.417100 2.869000
26.437700 2.778000
26.458400 2.736000
26.479000 2.691300
26.499700 2.642200
26.520300 2.585700
26.541000 2.558300
26.561600 2.577600
26.582300 2.628300
26.602900 2.656700
26.623600 2.618200
26.644200 2.513100
26.664900 2.418700
26.685500 2.384100
26.706200 2.371300
26.726800 2.385300
26.747500 2.423000
26.768100 2.474700
26.788800 2.537300
26.809400 2.611700
26.830100 2.684600
26.850700 2.745600
26.871400 2.771900
26.892000 2.813400
26.912700 2.843700
26.933300 2.850800
26.954000 2.823700
26.974600 2.769600
26.995300 2.755600
27.015900 2.797600
27.036600 2.834300
27.057200 2.820400
27.077900 2.783200
27.098500 2.764200
27.119200 2.762600
27.139800 2.764400
27.160500 2.763700
27.181100 2.792100
27.201800 2.785200
27.222400 2.754500
27.243100 2.664100
27.263800 2.592300
27.284400 2.539600
27.305100 2.504200
27.325700 2.458600
27.346400 2.396700
27.367000 2.361100
27.387700 2.366000
27.408300 2.362000
27.429000 2.357400
27.449600 2.356600
27.470300 2.359700
27.490900 2.349500
27.511600 2.304000
27.532200 2.259000
27.552900 2.218700
27.573500 2.185200
27.594200 2.156800
27.614800 2.137300
27.635500 2.119100
27.656100 2.098100
27.676800 2.083200
27.697400 2.070900
27.718100 2.051000
27.738700 2.039500
27.759400 2.040900
27.780000 2.036900
27.800700 1.996700
27.821300 1.921800
27.842000 1.830400
27.862600 1.764700
27.883300 1.723900
27.903900 1.694200
27.924600 1.662500
27.945200 1.625100
27.965900 1.592100
27.986500 1.563300
28.007200 1.538600
28.027800 1.516400
28.048500 1.496200
28.069100 1.477600
28.089800 1.460300
28.110400 1.444500
28.131100 1.430500
28.151700 1.417500
28.172400 1.405200
28.193000 1.397000
28.213700 1.390600
28.234300 1.380300
28.255000 1.369500
28.275600 1.363300
28.296300 1.360100
28.316900 1.359100
28.337600 1.359900
28.358200 1.359900
28.378900 1.355000
28.399500 1.348500
28.420200 1.352800
28.440800 1.365800
28.461500 1.349100
28.482100 1.337600
28.502800 1.339600
28.523400 1.349700
28.544100 1.350500
28.564700 1.345600
28.585400 1.339400
28.606100 1.331800
28.626700 1.322800
28.647400 1.312500
28.668000 1.304100
28.688700 1.291000
28.709300 1.269500
28.730000 1.256400
28.750600 1.228100
28.771300 1.149900
28.791900 1.114300
28.812600 1.087600
28.833200 1.060500
28.853900 1.033300
28.874500 1.005300
28.895200 0.974600
28.915800 0.941200
28.936500 0.905200
28.957100 0.850100
28.977800 0.810100
28.998400 0.774600
29.019100 0.742600
29.039700 0.716600
29.060400 0.696300
29.081000 0.680600
29.101700 0.668800
29.122300 0.658900
29.143000 0.648700
29.163600 0.638400
29.184300 0.628800
29.204900 0.622000
29.225600 0.619800
29.246200 0.622400
29.266900 0.628700
29.287500 0.620500
29.308200 0.604100
29.328800 0.592000
29.349500 0.579900
29.370100 0.560600
29.390800 0.535500
29.411400 0.508600
29.432100 0.480100
29.452700 0.450000
29.473400 0.415200
29.494000 0.354100
29.514700 0.315500
29.535300 0.296000
29.556000 0.277900
29.576600 0.260700
29.597300 0.244500
29.617900 0.229200
29.638600 0.209300
29.659200 0.189900
29.679900 0.172000
29.700500 0.157400
29.721200 0.147200
29.741800 0.141100
29.762500 0.144900
29.783100 0.150000
29.803800 0.148800
29.824400 0.141700
29.845100 0.128600
29.865700 0.109500
29.886400 0.102700
29.907000 0.098200
29.927700 0.093700
29.948300 0.089500
29.969000 0.085400
29.989700 0.081400
30.010300 0.077700
30.031000 0.074100
30.051600 0.070600
30.072300 0.067200
30.092900 0.063800
30.113600 0.060500
30.134200 0.057300
30.154900 0.054100
30.175500 0.051000
30.196200 0.047900
30.216800 0.044900
30.237500 0.042000
30.258100 0.039100
30.278800 0.036300
30.299400 0.033600
30.320100 0.030900
30.340700 0.028400
30.361400 0.025900
30.382000 0.023500
30.402700 0.021100
30.423300 0.018900
30.444000 0.016700
30.464600 0.014600
30.485300 0.012600
30.505900 0.010700
30.526600 0.008900
30.547200 0.007200
30.567900 0.005700
30.588500 0.004400
30.609200 0.003300
30.629800 0.002300
30.650500 0.001500
30.671100 0.000800
30.691800 0.000400
30.712400 0.000100
30.733100 0.000000
30.753700 0.000000
30.774400 0.000000
30.795000 0.000000
30.815700 0.000000
30.836300 0.000000
30.857000 0.000000
30.877600 0.000000
30.898300 0.000000
30.918900 0.000000
30.939600 0.000000
30.960200 0.000000
30.980900 0.000000
31.001500 0.000000
31.022200 0.000000
31.042800 0.000000
31.063500 0.000000
31.084100 0.000000
31.104800 0.000000
31.125400 0.000000
31.146100 0.000000
31.166700 0.000000
31.187400 0.000000
31.208000 0.000000
31.228700 0.000000
31.249300 0.000000
31.270000 0.000000
31.290600 0.000000
31.311300 0.000000
31.332000 0.000000
31.352600 0.000000
31.373300 0.000000
31.393900 0.000000
31.414600 0.000000
31.435200 0.000000
31.455900 0.000000
31.476500 0.000000
31.497200 0.000000
31.517800 0.000000
31.538500 0.000000
31.559100 0.000000
31.579800 0.000000
31.600400 0.000000
31.621100 0.000000
31.641700 0.000000
31.662400 0.000000
31.683000 0.000000
31.703700 0.000000
31.724300 0.000000
31.745000 0.000000
31.765600 0.000000
31.786300 0.000000
31.806900 0.000000
31.827600 0.000000
31.848200 0.000000
31.868900 0.000000
31.889500 0.000000
31.910200 0.000000
31.930800 0.000000
31.951500 0.000000
31.972100 0.000000
31.992800 0.000000
32.013400 0.000000
32.034100 0.000000
32.054700 0.000000
32.075400 0.000000
32.096000 0.000000
32.116700 0.000000
32.137300 0.000000
32.158000 0.000000
32.178600 0.000000
32.199300 0.000000
32.219900 0.000000
32.240600 0.000000
32.261200 0.000000
32.281900 0.000000
32.302500 0.000000
32.323200 0.000000
32.343800 0.000000
32.364500 0.000000
32.385100 0.000000
32.405800 0.000000
32.426400 0.000000
32.447100 0.000000
32.467700 0.000000
32.488400 0.000000
32.509000 0.000000
32.529700 0.000000
32.550300 0.000000
32.571000 0.000000
32.591600 0.000000
32.612300 0.000000
e
