set title 'mp-998860 - Density of States'
set xlabel 'Energy (eV)'
set ylabel 'DOS (states/eV)'
set grid
set xrange [-10:10]
set yrange [0:0.563]
set xzeroaxis lt -1
set terminal png size 800,600
set output 'mp-998860_dos_gnuplot.png'
plot '-' using 1:2 with lines title 'DOS'
-5.506700 0.000000
-5.480800 0.000000
-5.454900 0.000000
-5.428900 0.000000
-5.403000 0.000000
-5.377000 0.000000
-5.351100 0.000000
-5.325100 0.000000
-5.299200 0.000000
-5.273200 0.000000
-5.247300 0.000000
-5.221300 0.000000
-5.195400 0.000000
-5.169400 0.000000
-5.143500 0.000000
-5.117500 0.000000
-5.091600 0.000000
-5.065600 0.000000
-5.039700 0.000000
-5.013700 0.000000
-4.987800 0.000000
-4.961800 0.000000
-4.935900 0.000000
-4.909900 0.000000
-4.884000 0.000000
-4.858000 0.000000
-4.832100 0.000000
-4.806100 0.000000
-4.780200 0.000000
-4.754200 0.000000
-4.728300 0.000000
-4.702300 0.000000
-4.676400 0.000000
-4.650400 0.000000
-4.624500 0.000000
-4.598500 0.000000
-4.572600 0.000000
-4.546600 0.000000
-4.520700 0.000000
-4.494700 0.000000
-4.468800 0.000000
-4.442800 0.000000
-4.416900 0.000000
-4.390900 0.000000
-4.365000 0.000000
-4.339000 0.000000
-4.313100 0.000000
-4.287100 0.000000
-4.261200 0.000000
-4.235200 0.000000
-4.209300 0.000000
-4.183300 0.000000
-4.157400 0.000000
-4.131500 0.000000
-4.105500 0.000000
-4.079600 0.000000
-4.053600 0.000000
-4.027700 0.000000
-4.001700 0.000000
-3.975800 0.000000
-3.949800 0.000000
-3.923900 0.000000
-3.897900 0.000000
-3.872000 0.000000
-3.846000 0.000000
-3.820100 0.000000
-3.794100 0.000000
-3.768200 0.000000
-3.742200 0.000000
-3.716300 0.000000
-3.690300 0.000000
-3.664400 0.000000
-3.638400 0.000000
-3.612500 0.000000
-3.586500 0.000000
-3.560600 0.000000
-3.534600 0.000000
-3.508700 0.000000
-3.482700 0.000000
-3.456800 0.000000
-3.430800 0.000000
-3.404900 0.000000
-3.378900 0.000000
-3.353000 0.000000
-3.327000 0.000000
-3.301100 0.000000
-3.275100 0.000000
-3.249200 0.000000
-3.223200 0.000000
-3.197300 0.000000
-3.171300 0.000000
-3.145400 0.009900
-3.119400 0.019800
-3.093500 0.027400
-3.067500 0.036500
-3.041600 0.036700
-3.015600 0.041400
-2.989700 0.046400
-2.963700 0.051700
-2.937800 0.055100
-2.911800 0.058200
-2.885900 0.059700
-2.859900 0.061400
-2.834000 0.064500
-2.808100 0.068100
-2.782100 0.071900
-2.756200 0.076100
-2.730200 0.076700
-2.704300 0.078000
-2.678300 0.079900
-2.652400 0.081800
-2.626400 0.084000
-2.600500 0.086200
-2.574500 0.088600
-2.548600 0.091100
-2.522600 0.093700
-2.496700 0.095900
-2.470700 0.097400
-2.444800 0.098600
-2.418800 0.100200
-2.392900 0.101700
-2.366900 0.103100
-2.341000 0.104700
-2.315000 0.106700
-2.289100 0.108900
-2.263100 0.111000
-2.237200 0.112500
-2.211200 0.114300
-2.185300 0.116000
-2.159300 0.117400
-2.133400 0.118700
-2.107400 0.120000
-2.081500 0.121300
-2.055500 0.122900
-2.029600 0.124400
-2.003600 0.125900
-1.977700 0.127300
-1.951700 0.128700
-1.925800 0.130000
-1.899800 0.131300
-1.873900 0.132900
-1.847900 0.134500
-1.822000 0.136100
-1.796000 0.137600
-1.770100 0.139200
-1.744100 0.140200
-1.718200 0.141300
-1.692200 0.142400
-1.666300 0.143500
-1.640300 0.144800
-1.614400 0.146100
-1.588400 0.147600
-1.562500 0.148800
-1.536500 0.150000
-1.510600 0.151100
-1.484700 0.152300
-1.458700 0.153400
-1.432800 0.154600
-1.406800 0.155900
-1.380900 0.157200
-1.354900 0.158600
-1.329000 0.160100
-1.303000 0.161400
-1.277100 0.162400
-1.251100 0.163500
-1.225200 0.164600
-1.199200 0.165700
-1.173300 0.166800
-1.147300 0.167800
-1.121400 0.168700
-1.095400 0.169700
-1.069500 0.170700
-1.043500 0.171700
-1.017600 0.172800
-0.991600 0.173900
-0.965700 0.175100
-0.939700 0.176200
-0.913800 0.177400
-0.887800 0.178600
-0.861900 0.179800
-0.835900 0.181100
-0.810000 0.182300
-0.784000 0.183400
-0.758100 0.184300
-0.732100 0.185200
-0.706200 0.186300
-0.680200 0.187200
-0.654300 0.188100
-0.628300 0.189000
-0.602400 0.189900
-0.576400 0.190800
-0.550500 0.191800
-0.524500 0.192700
-0.498600 0.193700
-0.472600 0.194700
-0.446700 0.195600
-0.420700 0.196600
-0.394800 0.197500
-0.368800 0.198600
-0.342900 0.199700
-0.316900 0.200800
-0.291000 0.202000
-0.265000 0.203200
-0.239100 0.204300
-0.213100 0.205500
-0.187200 0.206500
-0.161300 0.207200
-0.135300 0.208000
-0.109400 0.208700
-0.083400 0.209500
-0.057500 0.210300
-0.031500 0.211100
-0.005600 0.211800
0.020400 0.212700
0.046300 0.213700
0.072300 0.214600
0.098200 0.215500
0.124200 0.216500
0.150100 0.217400
0.176100 0.218400
0.202000 0.219300
0.228000 0.220300
0.253900 0.221200
0.279900 0.222200
0.305800 0.223200
0.331800 0.224100
0.357700 0.225100
0.383700 0.226100
0.409600 0.227000
0.435600 0.228000
0.461500 0.228800
0.487500 0.229600
0.513400 0.230400
0.539400 0.231100
0.565300 0.231900
0.591300 0.232700
0.617200 0.233400
0.643200 0.234200
0.669100 0.235000
0.695100 0.235900
0.721000 0.236700
0.747000 0.237500
0.772900 0.238300
0.798900 0.239100
0.824800 0.240000
0.850800 0.241000
0.876700 0.241900
0.902700 0.242800
0.928600 0.243700
0.954600 0.244700
0.980500 0.245600
1.006500 0.246500
1.032400 0.247300
1.058400 0.248100
1.084300 0.249000
1.110300 0.249900
1.136200 0.250800
1.162100 0.251500
1.188100 0.252200
1.214000 0.252900
1.240000 0.253600
1.265900 0.254300
1.291900 0.255100
1.317800 0.255900
1.343800 0.256700
1.369700 0.257500
1.395700 0.258300
1.421600 0.259100
1.447600 0.259900
1.473500 0.260700
1.499500 0.261500
1.525400 0.262400
1.551400 0.263200
1.577300 0.264000
1.603300 0.264900
1.629200 0.265700
1.655200 0.266500
1.681100 0.267200
1.707100 0.268000
1.733000 0.268700
1.759000 0.269600
1.784900 0.270400
1.810900 0.271300
1.836800 0.272100
1.862800 0.273000
1.888700 0.273800
1.914700 0.274700
1.940600 0.275400
1.966600 0.276200
1.992500 0.276900
2.018500 0.277600
2.044400 0.278400
2.070400 0.279100
2.096300 0.279800
2.122300 0.280600
2.148200 0.281300
2.174200 0.282000
2.200100 0.282800
2.226100 0.283600
2.252000 0.284400
2.278000 0.285300
2.303900 0.286100
2.329900 0.287000
2.355800 0.287700
2.381800 0.288500
2.407700 0.289300
2.433700 0.290100
2.459600 0.290900
2.485500 0.291700
2.511500 0.292600
2.537400 0.293400
2.563400 0.294200
2.589300 0.295100
2.615300 0.295900
2.641200 0.296800
2.667200 0.297700
2.693100 0.298600
2.719100 0.299500
2.745000 0.300400
2.771000 0.301400
2.796900 0.302300
2.822900 0.303300
2.848800 0.304400
2.874800 0.305500
2.900700 0.306600
2.926700 0.307900
2.952600 0.309200
2.978600 0.310500
3.004500 0.312000
3.030500 0.313600
3.056400 0.315200
3.082400 0.316900
3.108300 0.318700
3.134300 0.320700
3.160200 0.322700
3.186200 0.324900
3.212100 0.327200
3.238100 0.331600
3.264000 0.335300
3.290000 0.338900
3.315900 0.342500
3.341900 0.349200
3.367800 0.352000
3.393800 0.354500
3.419700 0.356400
3.445700 0.356000
3.471600 0.355500
3.497600 0.354900
3.523500 0.354600
3.549500 0.354400
3.575400 0.354100
3.601400 0.353600
3.627300 0.355400
3.653300 0.352100
3.679200 0.349000
3.705200 0.345600
3.731100 0.340600
3.757100 0.335700
3.783000 0.331100
3.808900 0.327000
3.834900 0.323900
3.860800 0.321800
3.886800 0.319800
3.912700 0.314300
3.938700 0.309700
3.964600 0.306000
3.990600 0.303200
4.016500 0.301100
4.042500 0.299400
4.068400 0.299100
4.094400 0.306300
4.120300 0.306200
4.146300 0.306200
4.172200 0.304500
4.198200 0.298500
4.224100 0.297400
4.250100 0.298700
4.276000 0.299000
4.302000 0.299600
4.327900 0.301400
4.353900 0.303700
4.379800 0.305400
4.405800 0.309800
4.431700 0.314800
4.457700 0.317400
4.483600 0.321000
4.509600 0.325300
4.535500 0.330400
4.561500 0.326300
4.587400 0.327000
4.613400 0.327300
4.639300 0.328200
4.665300 0.332100
4.691200 0.337700
4.717200 0.344700
4.743100 0.355000
4.769100 0.351600
4.795000 0.351400
4.821000 0.352100
4.846900 0.347400
4.872900 0.347100
4.898800 0.346600
4.924800 0.345900
4.950700 0.345300
4.976700 0.343900
5.002600 0.345200
5.028600 0.345100
5.054500 0.344600
5.080500 0.344400
5.106400 0.344500
5.132300 0.344300
5.158300 0.344300
5.184200 0.344500
5.210200 0.346000
5.236100 0.350200
5.262100 0.358200
5.288000 0.367600
5.314000 0.359300
5.339900 0.359000
5.365900 0.358900
5.391800 0.359800
5.417800 0.358500
5.443700 0.357200
5.469700 0.354100
5.495600 0.354800
5.521600 0.357700
5.547500 0.373300
5.573500 0.361500
5.599400 0.360400
5.625400 0.359300
5.651300 0.344000
5.677300 0.343800
5.703200 0.344000
5.729200 0.344700
5.755100 0.345900
5.781100 0.349000
5.807000 0.352700
5.833000 0.357400
5.858900 0.369900
5.884900 0.374700
5.910800 0.377200
5.936800 0.392300
5.962700 0.401000
5.988700 0.404400
6.014600 0.407900
6.040600 0.418600
6.066500 0.419700
6.092500 0.420100
6.118400 0.419700
6.144400 0.418400
6.170300 0.416700
6.196300 0.414200
6.222200 0.404200
6.248200 0.406400
6.274100 0.405200
6.300100 0.403500
6.326000 0.401300
6.352000 0.398600
6.377900 0.396900
6.403900 0.395200
6.429800 0.390600
6.455700 0.389300
6.481700 0.388600
6.507600 0.388900
6.533600 0.390800
6.559500 0.394800
6.585500 0.397400
6.611400 0.397000
6.637400 0.395800
6.663300 0.397600
6.689300 0.396600
6.715200 0.507200
6.741200 0.381300
6.767100 0.375200
6.793100 0.373500
6.819000 0.372300
6.845000 0.371600
6.870900 0.371300
6.896900 0.372900
6.922800 0.374000
6.948800 0.375100
6.974700 0.376200
7.000700 0.377600
7.026600 0.377600
7.052600 0.383800
7.078500 0.386200
7.104500 0.387200
7.130400 0.428300
7.156400 0.387100
7.182300 0.387000
7.208300 0.418300
7.234200 0.398900
7.260200 0.399600
7.286100 0.400600
7.312100 0.402000
7.338000 0.403600
7.364000 0.411500
7.389900 0.411500
7.415900 0.412600
7.441800 0.410800
7.467800 0.409100
7.493700 0.408600
7.519700 0.410200
7.545600 0.409700
7.571600 0.411100
7.597500 0.412200
7.623500 0.413200
7.649400 0.414100
7.675400 0.415200
7.701300 0.417100
7.727300 0.418700
7.753200 0.420000
7.779100 0.431200
7.805100 0.425700
7.831000 0.424600
7.857000 0.424400
7.882900 0.424100
7.908900 0.422900
7.934800 0.422600
7.960800 0.422300
7.986700 0.420500
8.012700 0.421400
8.038600 0.422500
8.064600 0.423700
8.090500 0.424500
8.116500 0.424800
8.142400 0.422200
8.168400 0.423100
8.194300 0.423800
8.220300 0.428700
8.246200 0.428800
8.272200 0.427200
8.298100 0.428300
8.324100 0.428800
8.350000 0.429200
8.376000 0.428700
8.401900 0.430800
8.427900 0.431900
8.453800 0.435500
8.479800 0.437100
8.505700 0.438900
8.531700 0.444400
8.557600 0.437900
8.583600 0.438100
8.609500 0.438400
8.635500 0.438700
8.661400 0.438200
8.687400 0.439200
8.713300 0.440600
8.739300 0.440900
8.765200 0.441300
8.791200 0.441600
8.817100 0.441800
8.843100 0.442800
8.869000 0.444000
8.895000 0.449300
8.920900 0.450900
8.946900 0.452400
8.972800 0.450000
8.998800 0.451500
9.024700 0.452900
9.050700 0.454200
9.076600 0.455600
9.102500 0.456800
9.128500 0.462200
9.154400 0.466000
9.180400 0.461400
9.206300 0.464000
9.232300 0.467000
9.258200 0.468600
9.284200 0.469900
9.310100 0.468400
9.336100 0.469800
9.362000 0.470900
9.388000 0.470100
9.413900 0.470000
9.439900 0.470800
9.465800 0.480800
9.491800 0.483200
9.517700 0.485600
9.543700 0.488400
9.569600 0.493500
9.595600 0.496100
9.621500 0.498800
9.647500 0.501500
9.673400 0.505500
9.699400 0.507300
9.725300 0.509300
9.751300 0.511800
9.777200 0.512000
9.803200 0.511900
9.829100 0.511900
9.855100 0.504100
9.881000 0.502400
9.907000 0.500800
9.932900 0.499700
9.958900 0.499800
9.984800 0.500200
10.010800 0.503400
10.036700 0.502900
10.062700 0.501700
10.088600 0.499700
10.114600 0.495700
10.140500 0.494000
10.166500 0.492600
10.192400 0.491000
10.218400 0.489600
10.244300 0.488300
10.270300 0.486800
10.296200 0.485700
10.322200 0.484800
10.348100 0.484000
10.374100 0.484400
10.400000 0.485000
10.425900 0.484000
10.451900 0.483000
10.477800 0.485300
10.503800 0.486600
10.529700 0.481900
10.555700 0.481700
10.581600 0.480300
10.607600 0.479400
10.633500 0.480800
10.659500 0.479500
10.685400 0.478100
10.711400 0.476700
10.737300 0.475500
10.763300 0.474400
10.789200 0.473200
10.815200 0.471900
10.841100 0.470600
10.867100 0.471900
10.893000 0.472400
10.919000 0.472500
10.944900 0.471500
10.970900 0.470400
10.996800 0.469000
11.022800 0.467900
11.048700 0.466500
11.074700 0.465300
11.100600 0.464300
11.126600 0.463500
11.152500 0.469600
11.178500 0.464100
11.204400 0.463900
11.230400 0.464200
11.256300 0.464800
11.282300 0.465300
11.308200 0.464800
11.334200 0.464900
11.360100 0.464900
11.386100 0.466500
11.412000 0.466600
11.438000 0.472000
11.463900 0.470900
11.489900 0.469900
11.515800 0.469400
11.541800 0.469000
11.567700 0.469200
11.593700 0.470000
11.619600 0.468700
11.645600 0.468300
11.671500 0.468200
11.697500 0.468300
11.723400 0.468200
11.749300 0.468400
11.775300 0.468400
11.801200 0.468400
11.827200 0.468000
11.853100 0.468100
11.879100 0.468500
11.905000 0.468700
11.931000 0.471200
11.956900 0.471300
11.982900 0.471200
12.008800 0.471000
12.034800 0.470600
12.060700 0.470600
12.086700 0.471300
12.112600 0.479300
12.138600 0.481500
12.164500 0.480600
12.190500 0.479600
12.216400 0.479000
12.242400 0.479100
12.268300 0.478700
12.294300 0.478500
12.320200 0.478600
12.346200 0.478500
12.372100 0.479200
12.398100 0.482100
12.424000 0.478100
12.450000 0.476600
12.475900 0.476700
12.501900 0.477200
12.527800 0.477900
12.553800 0.478500
12.579700 0.479100
12.605700 0.479800
12.631600 0.480500
12.657600 0.481300
12.683500 0.482200
12.709500 0.483200
12.735400 0.484300
12.761400 0.485600
12.787300 0.492100
12.813300 0.492600
12.839200 0.492800
12.865200 0.499700
12.891100 0.493500
12.917100 0.488900
12.943000 0.488300
12.969000 0.491400
12.994900 0.487700
13.020900 0.487700
13.046800 0.488000
13.072700 0.488300
13.098700 0.488700
13.124600 0.489100
13.150600 0.489800
13.176500 0.490600
13.202500 0.491500
13.228400 0.492400
13.254400 0.493400
13.280300 0.494700
13.306300 0.495800
13.332200 0.497200
13.358200 0.497100
13.384100 0.496400
13.410100 0.496900
13.436000 0.498000
13.462000 0.500900
13.487900 0.502300
13.513900 0.503500
13.539800 0.504300
13.565800 0.512900
13.591700 0.503700
13.617700 0.504000
13.643600 0.504900
13.669600 0.504600
13.695500 0.511500
13.721500 0.510600
13.747400 0.510500
13.773400 0.512000
13.799300 0.513900
13.825300 0.515600
13.851200 0.517300
13.877200 0.518900
13.903100 0.519100
13.929100 0.518200
13.955000 0.518900
13.981000 0.519600
14.006900 0.519900
14.032900 0.520500
14.058800 0.521200
14.084800 0.521900
14.110700 0.522800
14.136700 0.523600
14.162600 0.524200
14.188600 0.525000
14.214500 0.525800
14.240500 0.527000
14.266400 0.527500
14.292400 0.527900
14.318300 0.528100
14.344300 0.527500
14.370200 0.527300
14.396100 0.527600
14.422100 0.528700
14.448000 0.530600
14.474000 0.533400
14.499900 0.535900
14.525900 0.533900
14.551800 0.532600
14.577800 0.534600
14.603700 0.537100
14.629700 0.537500
14.655600 0.535400
14.681600 0.535200
14.707500 0.535300
14.733500 0.535500
14.759400 0.535200
14.785400 0.535600
14.811300 0.535900
14.837300 0.536700
14.863200 0.537200
14.889200 0.536900
14.915100 0.537500
14.941100 0.538200
14.967000 0.538900
14.993000 0.539500
15.018900 0.540200
15.044900 0.540900
15.070800 0.541600
15.096800 0.542200
15.122700 0.542800
15.148700 0.543100
15.174600 0.545700
15.200600 0.548800
15.226500 0.550600
15.252500 0.549700
15.278400 0.549400
15.304400 0.550300
15.330300 0.551600
15.356300 0.552500
15.382200 0.553500
15.408200 0.554400
15.434100 0.557800
15.460100 0.559200
15.486000 0.560900
15.512000 0.562100
15.537900 0.574800
15.563900 0.575800
15.589800 0.575300
15.615800 0.570000
15.641700 0.562900
15.667700 0.563100
15.693600 0.563100
15.719500 0.563400
15.745500 0.563500
15.771400 0.563500
15.797400 0.560900
15.823300 0.562200
15.849300 0.563400
15.875200 0.564700
15.901200 0.565900
15.927100 0.566900
15.953100 0.567700
15.979000 0.573600
16.005000 0.576000
16.030900 0.572300
16.056900 0.572800
16.082800 0.574500
16.108800 0.575700
16.134700 0.577500
16.160700 0.578800
16.186600 0.580600
16.212600 0.582700
16.238500 0.585000
16.264500 0.587300
16.290400 0.589300
16.316400 0.592500
16.342300 0.594600
16.368300 0.595600
16.394200 0.599100
16.420200 0.603000
16.446100 0.606800
16.472100 0.610900
16.498000 0.615300
16.524000 0.620600
16.549900 0.626600
16.575900 0.633200
16.601800 0.643200
16.627800 0.653500
16.653700 0.665700
16.679700 0.680300
16.705600 0.691600
16.731600 0.700900
16.757500 0.707700
16.783500 0.712800
16.809400 0.715900
16.835400 0.698900
16.861300 0.681400
16.887300 0.674300
16.913200 0.667500
16.939200 0.660700
16.965100 0.653600
16.991100 0.649300
17.017000 0.645200
17.042900 0.641600
17.068900 0.638900
17.094800 0.636200
17.120800 0.632000
17.146700 0.627400
17.172700 0.624200
17.198600 0.625800
17.224600 0.630100
17.250500 0.634000
17.276500 0.636600
17.302400 0.628800
17.328400 0.618100
17.354300 0.607100
17.380300 0.597600
17.406200 0.589300
17.432200 0.581200
17.458100 0.573100
17.484100 0.566500
17.510000 0.561100
17.536000 0.556100
17.561900 0.550300
17.587900 0.543800
17.613800 0.537400
17.639800 0.538400
17.665700 0.539300
17.691700 0.542400
17.717600 0.547100
17.743600 0.553300
17.769500 0.559100
17.795500 0.564200
17.821400 0.567600
17.847400 0.565400
17.873300 0.562800
17.899300 0.559400
17.925200 0.556500
17.951200 0.553600
17.977100 0.550400
18.003100 0.546400
18.029000 0.544300
18.055000 0.547000
18.080900 0.548700
18.106900 0.549100
18.132800 0.547700
18.158800 0.545800
18.184700 0.544300
18.210700 0.544600
18.236600 0.545000
18.262600 0.548500
18.288500 0.553600
18.314500 0.565900
18.340400 0.566200
18.366300 0.531900
18.392300 0.512800
18.418200 0.513700
18.444200 0.516800
18.470100 0.520200
18.496100 0.524600
18.522000 0.530800
18.548000 0.534500
18.573900 0.539400
18.599900 0.545300
18.625800 0.551500
18.651800 0.558000
18.677700 0.564900
18.703700 0.572600
18.729600 0.581000
18.755600 0.590200
18.781500 0.601100
18.807500 0.614300
18.833400 0.626900
18.859400 0.639500
18.885300 0.651000
18.911300 0.663800
18.937200 0.688300
18.963200 0.721300
18.989100 0.745200
19.015100 0.739800
19.041000 0.738300
19.067000 0.730600
19.092900 0.726000
19.118900 0.721500
19.144800 0.716900
19.170800 0.712700
19.196700 0.707800
19.222700 0.705600
19.248600 0.696300
19.274600 0.680800
19.300500 0.667300
19.326500 0.655100
19.352400 0.645000
19.378400 0.642800
19.404300 0.637900
19.430300 0.631900
19.456200 0.627300
19.482200 0.622000
19.508100 0.613200
19.534100 0.601700
19.560000 0.591800
19.586000 0.583900
19.611900 0.574800
19.637900 0.566600
19.663800 0.558100
19.689700 0.549700
19.715700 0.543000
19.741600 0.536100
19.767600 0.527300
19.793500 0.514500
19.819500 0.504800
19.845400 0.498000
19.871400 0.496900
19.897300 0.490000
19.923300 0.490800
19.949200 0.485100
19.975200 0.480500
20.001100 0.478800
20.027100 0.480700
20.053000 0.487900
20.079000 0.493200
20.104900 0.497700
20.130900 0.506100
20.156800 0.513400
20.182800 0.518800
20.208700 0.527000
20.234700 0.534100
20.260600 0.543100
20.286600 0.554500
20.312500 0.567400
20.338500 0.579100
20.364400 0.591300
20.390400 0.605700
20.416300 0.619300
20.442300 0.624000
20.468200 0.633500
20.494200 0.643900
20.520100 0.656600
20.546100 0.666200
20.572000 0.677500
20.598000 0.687700
20.623900 0.700700
20.649900 0.711800
20.675800 0.726400
20.701800 0.740400
20.727700 0.759000
20.753700 0.777200
20.779600 0.792600
20.805600 0.805300
20.831500 0.816600
20.857500 0.828800
20.883400 0.839400
20.909400 0.850200
20.935300 0.865300
20.961300 0.879100
20.987200 0.883900
21.013100 0.875700
21.039100 0.873600
21.065000 0.888900
21.091000 0.880200
21.116900 0.869200
21.142900 0.851300
21.168800 0.835900
21.194800 0.821300
21.220700 0.810300
21.246700 0.804100
21.272600 0.800200
21.298600 0.796300
21.324500 0.792700
21.350500 0.787600
21.376400 0.782600
21.402400 0.781300
21.428300 0.775100
21.454300 0.770700
21.480200 0.765800
21.506200 0.759700
21.532100 0.752700
21.558100 0.743200
21.584000 0.743900
21.610000 0.725600
21.635900 0.712900
21.661900 0.701500
21.687800 0.691300
21.713800 0.681700
21.739700 0.673500
21.765700 0.665200
21.791600 0.662200
21.817600 0.659300
21.843500 0.654300
21.869500 0.652300
21.895400 0.643200
21.921400 0.641100
21.947300 0.639200
21.973300 0.638000
21.999200 0.638100
22.025200 0.637000
22.051100 0.635800
22.077100 0.634700
22.103000 0.636200
22.129000 0.638500
22.154900 0.640800
22.180900 0.643300
22.206800 0.645700
22.232800 0.645100
22.258700 0.647400
22.284700 0.641000
22.310600 0.629400
22.336500 0.618400
22.362500 0.610000
22.388400 0.600700
22.414400 0.591000
22.440300 0.584600
22.466300 0.581400
22.492200 0.578600
22.518200 0.575700
22.544100 0.575100
22.570100 0.573900
22.596000 0.571700
22.622000 0.570100
22.647900 0.570900
22.673900 0.570000
22.699800 0.569300
22.725800 0.566800
22.751700 0.564500
22.777700 0.562400
22.803600 0.560800
22.829600 0.558700
22.855500 0.552100
22.881500 0.548000
22.907400 0.543300
22.933400 0.539000
22.959300 0.534500
22.985300 0.529600
23.011200 0.525700
23.037200 0.520200
23.063100 0.512300
23.089100 0.520100
23.115000 0.530200
23.141000 0.537700
23.166900 0.522900
23.192900 0.515200
23.218800 0.515700
23.244800 0.519900
23.270700 0.527300
23.296700 0.541100
23.322600 0.561700
23.348600 0.588300
23.374500 0.612300
23.400500 0.637500
23.426400 0.663200
23.452400 0.685000
23.478300 0.709300
23.504300 0.759700
23.530200 0.767500
23.556200 0.794100
23.582100 0.799400
23.608100 0.788700
23.634000 0.778400
23.659900 0.769700
23.685900 0.760700
23.711800 0.755800
23.737800 0.758000
23.763700 0.745700
23.789700 0.747100
23.815600 0.748800
23.841600 0.749600
23.867500 0.751000
23.893500 0.752300
23.919400 0.754800
23.945400 0.757300
23.971300 0.760700
23.997300 0.765500
24.023200 0.773200
24.049200 0.787200
24.075100 0.781200
24.101100 0.781900
24.127000 0.776700
24.153000 0.784200
24.178900 0.772600
24.204900 0.749600
24.230800 0.744900
24.256800 0.742100
24.282700 0.741400
24.308700 0.738900
24.334600 0.736700
24.360600 0.735100
24.386500 0.737400
24.412500 0.743300
24.438400 0.740900
24.464400 0.742200
24.490300 0.743800
24.516300 0.748700
24.542200 0.752300
24.568200 0.759900
24.594100 0.760000
24.620100 0.744000
24.646000 0.741200
24.672000 0.738300
24.697900 0.735500
24.723900 0.731800
24.749800 0.734400
24.775800 0.733200
24.801700 0.712800
24.827700 0.710900
24.853600 0.709200
24.879600 0.706900
24.905500 0.704500
24.931500 0.703300
24.957400 0.700600
24.983400 0.698500
25.009300 0.696600
25.035200 0.694900
25.061200 0.693400
25.087100 0.692200
25.113100 0.691200
25.139000 0.690400
25.165000 0.690800
25.190900 0.692300
25.216900 0.711200
25.242800 0.699400
25.268800 0.699500
25.294700 0.697900
25.320700 0.695200
25.346600 0.691800
25.372600 0.688300
25.398500 0.691600
25.424500 0.699700
25.450400 0.709600
25.476400 0.695700
25.502300 0.697300
25.528300 0.692300
25.554200 0.686600
25.580200 0.681800
25.606100 0.678300
25.632100 0.675700
25.658000 0.671800
25.684000 0.668300
25.709900 0.666000
25.735900 0.663900
25.761800 0.662500
25.787800 0.661200
25.813700 0.660600
25.839700 0.659900
25.865600 0.658400
25.891600 0.656800
25.917500 0.655700
25.943500 0.655200
25.969400 0.654300
25.995400 0.653200
26.021300 0.651700
26.047300 0.650300
26.073200 0.650700
26.099200 0.651800
26.125100 0.652700
26.151100 0.652800
26.177000 0.653000
26.203000 0.653900
26.228900 0.671300
26.254900 0.661800
26.280800 0.664000
26.306800 0.666200
26.332700 0.667900
26.358600 0.675100
26.384600 0.680400
26.410500 0.679400
26.436500 0.683300
26.462400 0.684800
26.488400 0.687400
26.514300 0.688800
26.540300 0.690100
26.566200 0.693400
26.592200 0.697600
26.618100 0.707700
26.644100 0.726200
26.670000 0.723200
26.696000 0.724900
26.721900 0.729600
26.747900 0.734700
26.773800 0.746800
26.799800 0.758300
26.825700 0.771700
26.851700 0.788500
26.877600 0.812100
26.903600 0.817000
26.929500 0.824000
26.955500 0.826600
26.981400 0.830900
27.007400 0.834300
27.033300 0.840200
27.059300 0.843300
27.085200 0.847800
27.111200 0.855500
27.137100 0.852900
27.163100 0.853400
27.189000 0.854900
27.215000 0.855100
27.240900 0.853000
27.266900 0.857300
27.292800 0.857000
27.318800 0.858800
27.344700 0.859800
27.370700 0.860700
27.396600 0.860600
27.422600 0.861500
27.448500 0.863400
27.474500 0.865000
27.500400 0.867500
27.526400 0.871200
27.552300 0.873200
27.578300 0.870100
27.604200 0.867100
27.630200 0.862300
27.656100 0.861200
27.682000 0.856800
27.708000 0.854800
27.733900 0.854300
27.759900 0.855000
27.785800 0.855000
27.811800 0.855500
27.837700 0.857200
27.863700 0.859900
27.889600 0.864000
27.915600 0.863800
27.941500 0.862300
27.967500 0.854200
27.993400 0.851900
28.019400 0.851700
28.045300 0.851900
28.071300 0.855100
28.097200 0.856300
28.123200 0.858700
28.149100 0.864200
28.175100 0.856600
28.201000 0.851200
28.227000 0.848100
28.252900 0.846200
28.278900 0.845600
28.304800 0.845000
28.330800 0.847000
28.356700 0.846000
28.382700 0.843000
28.408600 0.841200
28.434600 0.843100
28.460500 0.842400
28.486500 0.840600
28.512400 0.840000
28.538400 0.839500
28.564300 0.840700
28.590300 0.849700
28.616200 0.854500
28.642200 0.858400
28.668100 0.862000
28.694100 0.869100
28.720000 0.861000
28.746000 0.866800
28.771900 0.869600
28.797900 0.867900
28.823800 0.865600
28.849800 0.863000
28.875700 0.864800
28.901700 0.862400
28.927600 0.858700
28.953600 0.847500
28.979500 0.836100
29.005400 0.822600
29.031400 0.798100
29.057300 0.771100
29.083300 0.744200
29.109200 0.727200
29.135200 0.712800
29.161100 0.700300
29.187100 0.684100
29.213000 0.671000
29.239000 0.660500
29.264900 0.651500
29.290900 0.649800
29.316800 0.630000
29.342800 0.623600
29.368700 0.595400
29.394700 0.579900
29.420600 0.569700
29.446600 0.562000
29.472500 0.556000
29.498500 0.550200
29.524400 0.544700
29.550400 0.540900
29.576300 0.531700
29.602300 0.522900
29.628200 0.518200
29.654200 0.513400
29.680100 0.509600
29.706100 0.506100
29.732000 0.503600
29.758000 0.501900
29.783900 0.500500
29.809900 0.499500
29.835800 0.498800
29.861800 0.490500
29.887700 0.485100
29.913700 0.481600
29.939600 0.478600
29.965600 0.474100
29.991500 0.473500
30.017500 0.472400
30.043400 0.471300
30.069400 0.470100
30.095300 0.469100
30.121300 0.469500
30.147200 0.468800
30.173200 0.467800
30.199100 0.469300
30.225100 0.464900
30.251000 0.464000
30.277000 0.462100
30.302900 0.461600
30.328800 0.460500
30.354800 0.459600
30.380700 0.460300
30.406700 0.460700
30.432600 0.461200
30.458600 0.462300
30.484500 0.470500
30.510500 0.461100
30.536400 0.458200
30.562400 0.457400
30.588300 0.457300
30.614300 0.454300
30.640200 0.452300
30.666200 0.446900
30.692100 0.441900
30.718100 0.444400
30.744000 0.443800
30.770000 0.441700
30.795900 0.445000
30.821900 0.439200
30.847800 0.429600
30.873800 0.430900
30.899700 0.432200
30.925700 0.432500
30.951600 0.435200
30.977600 0.435800
31.003500 0.436900
31.029500 0.438000
31.055400 0.439300
31.081400 0.441300
31.107300 0.443400
31.133300 0.446300
31.159200 0.448900
31.185200 0.451100
31.211100 0.452800
31.237100 0.454900
31.263000 0.456600
31.289000 0.459600
31.314900 0.464200
31.340900 0.474000
31.366800 0.478500
31.392800 0.475100
31.418700 0.482200
31.444700 0.490000
31.470600 0.503000
31.496600 0.516800
31.522500 0.534700
31.548500 0.544400
31.574400 0.557000
31.600400 0.570200
31.626300 0.584900
31.652200 0.593500
31.678200 0.610200
31.704100 0.626200
31.730100 0.641700
31.756000 0.658300
31.782000 0.679600
31.807900 0.700900
31.833900 0.722600
31.859800 0.766200
31.885800 0.774000
31.911700 0.793900
31.937700 0.815900
31.963600 0.838500
31.989600 0.851400
32.015500 0.867000
32.041500 0.872300
32.067400 0.887000
32.093400 0.900600
32.119300 0.922200
32.145300 0.941300
32.171200 0.961100
32.197200 0.979000
32.223100 0.998400
32.249100 1.014600
32.275000 1.022100
32.301000 1.017200
32.326900 1.018900
32.352900 0.980600
32.378800 0.980900
32.404800 0.981700
32.430700 0.984200
32.456700 0.988700
32.482600 1.016600
32.508600 0.973500
32.534500 0.965200
32.560500 0.960500
32.586400 0.959800
32.612400 0.968200
32.638300 0.986000
32.664300 1.004700
32.690200 1.009000
32.716200 1.012600
32.742100 1.020700
32.768100 1.036100
32.794000 1.036100
32.820000 0.950100
32.845900 0.917700
32.871900 0.866700
32.897800 0.834400
32.923800 0.792400
32.949700 0.758700
32.975600 0.743600
33.001600 0.737200
33.027500 0.731100
33.053500 0.741300
33.079400 0.740000
33.105400 0.738300
33.131300 0.736900
33.157300 0.728100
33.183200 0.723000
33.209200 0.721800
33.235100 0.721800
33.261100 0.758900
33.287000 0.763300
33.313000 0.764800
33.338900 0.772100
33.364900 0.777400
33.390800 0.797100
33.416800 0.821200
33.442700 0.836400
33.468700 0.837500
33.494600 0.831800
33.520600 0.821700
33.546500 0.805700
33.572500 0.760800
33.598400 0.731000
33.624400 0.709100
33.650300 0.698800
33.676300 0.691100
33.702200 0.684400
33.728200 0.685000
33.754100 0.684200
33.780100 0.682400
33.806000 0.666500
33.832000 0.654900
33.857900 0.649600
33.883900 0.647100
33.909800 0.645800
33.935800 0.647600
33.961700 0.652300
33.987700 0.652300
34.013600 0.654400
34.039600 0.658300
34.065500 0.663300
34.091500 0.665600
34.117400 0.667500
34.143400 0.669400
34.169300 0.671700
34.195300 0.675300
34.221200 0.684000
34.247200 0.694200
34.273100 0.708100
34.299000 0.715500
34.325000 0.723500
34.350900 0.737100
34.376900 0.748700
34.402800 0.756000
34.428800 0.764000
34.454700 0.770300
34.480700 0.777300
34.506600 0.783000
34.532600 0.787400
34.558500 0.790800
34.584500 0.794400
34.610400 0.798500
34.636400 0.803900
34.662300 0.818300
34.688300 0.818900
34.714200 0.819500
34.740200 0.824100
34.766100 0.825800
34.792100 0.823500
34.818000 0.819700
34.844000 0.810000
34.869900 0.803800
34.895900 0.798400
34.921800 0.792900
34.947800 0.787500
34.973700 0.782800
34.999700 0.779200
35.025600 0.772900
35.051600 0.766100
35.077500 0.760000
35.103500 0.756000
35.129400 0.758800
35.155400 0.749900
35.181300 0.742500
35.207300 0.721700
35.233200 0.712800
35.259200 0.705500
35.285100 0.699800
35.311100 0.696200
35.337000 0.693100
35.363000 0.690600
35.388900 0.688700
35.414900 0.686800
35.440800 0.685800
35.466800 0.685300
35.492700 0.684800
35.518700 0.688000
35.544600 0.691400
35.570600 0.692300
35.596500 0.690300
35.622400 0.691400
35.648400 0.693000
35.674300 0.701100
35.700300 0.707800
35.726200 0.709900
35.752200 0.711400
35.778100 0.712500
35.804100 0.718100
35.830000 0.720500
35.856000 0.706000
35.881900 0.701000
35.907900 0.694700
35.933800 0.691100
35.959800 0.686600
35.985700 0.681500
36.011700 0.675500
36.037600 0.672600
36.063600 0.668200
36.089500 0.666500
36.115500 0.652700
36.141400 0.638400
36.167400 0.632700
36.193300 0.629400
36.219300 0.629700
36.245200 0.631000
36.271200 0.623100
36.297100 0.623500
36.323100 0.626500
36.349000 0.627500
36.375000 0.629900
36.400900 0.635500
36.426900 0.645000
36.452800 0.654000
36.478800 0.659200
36.504700 0.647500
36.530700 0.645400
36.556600 0.645900
36.582600 0.647900
36.608500 0.648800
36.634500 0.649000
36.660400 0.649500
36.686400 0.650300
36.712300 0.649900
36.738300 0.649300
36.764200 0.648900
36.790200 0.649400
36.816100 0.650000
36.842100 0.654100
36.868000 0.654400
36.894000 0.650600
36.919900 0.642600
36.945800 0.642800
36.971800 0.640500
36.997700 0.638500
37.023700 0.636300
37.049600 0.633700
37.075600 0.630200
37.101500 0.630200
37.127500 0.630400
37.153400 0.630300
37.179400 0.626400
37.205300 0.624000
37.231300 0.622300
37.257200 0.620300
37.283200 0.618600
37.309100 0.617300
37.335100 0.616500
37.361000 0.606600
37.387000 0.604500
37.412900 0.602100
37.438900 0.601100
37.464800 0.601000
37.490800 0.601000
37.516700 0.601000
37.542700 0.601300
37.568600 0.602900
37.594600 0.605700
37.620500 0.609200
37.646500 0.613300
37.672400 0.618600
37.698400 0.623700
37.724300 0.630400
37.750300 0.637200
37.776200 0.642800
37.802200 0.653000
37.828100 0.630400
37.854100 0.601400
37.880000 0.591800
37.906000 0.586900
37.931900 0.587700
37.957900 0.585000
37.983800 0.573100
38.009800 0.567100
38.035700 0.562100
38.061700 0.557700
38.087600 0.553300
38.113600 0.549400
38.139500 0.545900
38.165500 0.542700
38.191400 0.539700
38.217400 0.541100
38.243300 0.534700
38.269200 0.527800
38.295200 0.524500
38.321100 0.520900
38.347100 0.516900
38.373000 0.512500
38.399000 0.508100
38.424900 0.503300
38.450900 0.498600
38.476800 0.494300
38.502800 0.489900
38.528700 0.482500
38.554700 0.469400
38.580600 0.465500
38.606600 0.462100
38.632500 0.460400
38.658500 0.457900
38.684400 0.449300
38.710400 0.440400
38.736300 0.432300
38.762300 0.426200
38.788200 0.421400
38.814200 0.417600
38.840100 0.415400
38.866100 0.409800
38.892000 0.407000
38.918000 0.404000
38.943900 0.412800
38.969900 0.394900
38.995800 0.396900
39.021800 0.398400
39.047700 0.399500
39.073700 0.400300
39.099600 0.401000
39.125600 0.402100
39.151500 0.402100
39.177500 0.402500
39.203400 0.403000
39.229400 0.403600
39.255300 0.404500
39.281300 0.406300
39.307200 0.408200
39.333200 0.409900
39.359100 0.412000
39.385100 0.414400
39.411000 0.417000
39.437000 0.423900
39.462900 0.428400
39.488900 0.432200
39.514800 0.435200
39.540800 0.439400
39.566700 0.443700
39.592600 0.447700
39.618600 0.452500
39.644500 0.459000
39.670500 0.465600
39.696400 0.475100
39.722400 0.480500
39.748300 0.485300
39.774300 0.482100
39.800200 0.484500
39.826200 0.486700
39.852100 0.491700
39.878100 0.496900
39.904000 0.502500
39.930000 0.508700
39.955900 0.515700
39.981900 0.527200
40.007800 0.566900
40.033800 0.586800
40.059700 0.585200
40.085700 0.586500
40.111600 0.596000
40.137600 0.613500
40.163500 0.630900
40.189500 0.630500
40.215400 0.619000
40.241400 0.609500
40.267300 0.610300
40.293300 0.578400
40.319200 0.564100
40.345200 0.551700
40.371100 0.543300
40.397100 0.536100
40.423000 0.524200
40.449000 0.515300
40.474900 0.517300
40.500900 0.516800
40.526800 0.511400
40.552800 0.500700
40.578700 0.495000
40.604700 0.487100
40.630600 0.480900
40.656600 0.476100
40.682500 0.471400
40.708500 0.467500
40.734400 0.465600
40.760400 0.464800
40.786300 0.465100
40.812300 0.466400
40.838200 0.466200
40.864200 0.463900
40.890100 0.461500
40.916000 0.459500
40.942000 0.457600
40.967900 0.456100
40.993900 0.454800
41.019800 0.458000
41.045800 0.454900
41.071700 0.451400
41.097700 0.447500
41.123600 0.445200
41.149600 0.440500
41.175500 0.435700
41.201500 0.432600
41.227400 0.426200
41.253400 0.421500
41.279300 0.418000
41.305300 0.413800
41.331200 0.411100
41.357200 0.408200
41.383100 0.405300
41.409100 0.402300
41.435000 0.399000
41.461000 0.395900
41.486900 0.394100
41.512900 0.393800
41.538800 0.398100
41.564800 0.389700
41.590700 0.384700
41.616700 0.380500
41.642600 0.377200
41.668600 0.373500
41.694500 0.367900
41.720500 0.362200
41.746400 0.356500
41.772400 0.357600
41.798300 0.338800
41.824300 0.331700
41.850200 0.326400
41.876200 0.321500
41.902100 0.316700
41.928100 0.312300
41.954000 0.309700
41.980000 0.311100
42.005900 0.324500
42.031900 0.322000
42.057800 0.317300
42.083800 0.313000
42.109700 0.311600
42.135700 0.277500
42.161600 0.266700
42.187600 0.254900
42.213500 0.248400
42.239400 0.241800
42.265400 0.235300
42.291300 0.227900
42.317300 0.221400
42.343200 0.215900
42.369200 0.210800
42.395100 0.206800
42.421100 0.202800
42.447000 0.197900
42.473000 0.192900
42.498900 0.188700
42.524900 0.183900
42.550800 0.177600
42.576800 0.172000
42.602700 0.167300
42.628700 0.162800
42.654600 0.158400
42.680600 0.154300
42.706500 0.150800
42.732500 0.148300
42.758400 0.145900
42.784400 0.143700
42.810300 0.140800
42.836300 0.137800
42.862200 0.133100
42.888200 0.127500
42.914100 0.122300
42.940100 0.117700
42.966000 0.113600
42.992000 0.109900
43.017900 0.106700
43.043900 0.101400
43.069800 0.096500
43.095800 0.092500
43.121700 0.088900
43.147700 0.085400
43.173600 0.082000
43.199600 0.078700
43.225500 0.075700
43.251500 0.073500
43.277400 0.072700
43.303400 0.070700
43.329300 0.068500
43.355300 0.066300
43.381200 0.064100
43.407200 0.061800
43.433100 0.059500
43.459100 0.057200
43.485000 0.054400
43.511000 0.050600
43.536900 0.046700
43.562800 0.043300
43.588800 0.040200
43.614700 0.037200
43.640700 0.034600
43.666600 0.032700
43.692600 0.031300
43.718500 0.028100
43.744500 0.026900
43.770400 0.016300
43.796400 0.013200
43.822300 0.004600
43.848300 0.004400
43.874200 0.004200
43.900200 0.003900
43.926100 0.003700
43.952100 0.007700
43.978000 0.005000
44.004000 0.002500
44.029900 0.000200
44.055900 0.000000
44.081800 0.000000
44.107800 0.000000
44.133700 0.000000
44.159700 0.000000
44.185600 0.000000
44.211600 0.000000
44.237500 0.000000
44.263500 0.000000
44.289400 0.000000
44.315400 0.000000
44.341300 0.000000
44.367300 0.000000
44.393200 0.000000
44.419200 0.000000
44.445100 0.000000
44.471100 0.000000
44.497000 0.000000
44.523000 0.000000
44.548900 0.000000
44.574900 0.000000
44.600800 0.000000
44.626800 0.000000
44.652700 0.000000
44.678700 0.000000
44.704600 0.000000
44.730600 0.000000
44.756500 0.000000
44.782500 0.000000
44.808400 0.000000
44.834400 0.000000
44.860300 0.000000
44.886200 0.000000
44.912200 0.000000
44.938100 0.000000
44.964100 0.000000
44.990000 0.000000
45.016000 0.000000
45.041900 0.000000
45.067900 0.000000
45.093800 0.000000
45.119800 0.000000
45.145700 0.000000
45.171700 0.000000
45.197600 0.000000
45.223600 0.000000
45.249500 0.000000
45.275500 0.000000
45.301400 0.000000
45.327400 0.000000
45.353300 0.000000
45.379300 0.000000
45.405200 0.000000
45.431200 0.000000
45.457100 0.000000
45.483100 0.000000
45.509000 0.000000
45.535000 0.000000
45.560900 0.000000
45.586900 0.000000
45.612800 0.000000
45.638800 0.000000
45.664700 0.000000
45.690700 0.000000
45.716600 0.000000
45.742600 0.000000
45.768500 0.000000
45.794500 0.000000
45.820400 0.000000
45.846400 0.000000
45.872300 0.000000
45.898300 0.000000
45.924200 0.000000
45.950200 0.000000
45.976100 0.000000
46.002100 0.000000
46.028000 0.000000
46.054000 0.000000
46.079900 0.000000
46.105900 0.000000
46.131800 0.000000
46.157800 0.000000
46.183700 0.000000
46.209600 0.000000
46.235600 0.000000
46.261500 0.000000
46.287500 0.000000
46.313400 0.000000
46.339400 0.000000
46.365300 0.000000
46.391300 0.000000
e
