set title 'mp-755 - Density of States'
set xlabel 'Energy (eV)'
set ylabel 'DOS (states/eV)'
set grid
set xrange [-10:10]
set yrange [0:43.258]
set xzeroaxis lt -1
set terminal png size 800,600
set output 'mp-755_dos_gnuplot.png'
plot '-' using 1:2 with lines title 'DOS'
-5.356000 0.000000
-5.344600 0.000000
-5.333200 0.000000
-5.321800 0.000000
-5.310400 0.000000
-5.299000 0.000000
-5.287600 0.000000
-5.276200 0.000000
-5.264800 0.000000
-5.253400 0.000000
-5.242000 0.000000
-5.230600 0.000000
-5.219200 0.000000
-5.207800 0.000000
-5.196400 0.000000
-5.185000 0.000000
-5.173600 0.000000
-5.162200 0.000000
-5.150900 0.000000
-5.139500 0.000000
-5.128100 0.000000
-5.116700 0.000000
-5.105300 0.000000
-5.093900 0.000000
-5.082500 0.000000
-5.071100 0.000000
-5.059700 0.000000
-5.048300 0.000000
-5.036900 0.000000
-5.025500 0.000000
-5.014100 0.000000
-5.002700 0.000000
-4.991300 0.000000
-4.979900 0.000000
-4.968500 0.000000
-4.957100 0.000000
-4.945700 0.000000
-4.934300 0.000000
-4.922900 0.000000
-4.911500 0.000000
-4.900100 0.000000
-4.888700 0.000000
-4.877300 0.000000
-4.865900 0.000000
-4.854500 0.000000
-4.843100 0.000000
-4.831700 0.000000
-4.820300 0.000000
-4.808900 0.000000
-4.797500 0.000000
-4.786100 0.000000
-4.774700 0.000000
-4.763300 0.000000
-4.751900 0.000000
-4.740500 0.000000
-4.729100 0.000000
-4.717700 0.000000
-4.706300 0.000000
-4.694900 0.000000
-4.683500 0.000000
-4.672100 0.000000
-4.660700 0.000000
-4.649300 0.000000
-4.637900 0.000000
-4.626500 0.000000
-4.615100 0.000000
-4.603700 0.000000
-4.592300 0.000000
-4.580900 0.000000
-4.569500 0.000000
-4.558100 0.000000
-4.546700 0.000000
-4.535300 0.000000
-4.523900 0.000000
-4.512500 0.000000
-4.501100 0.000000
-4.489700 0.000000
-4.478300 0.000000
-4.466900 0.000000
-4.455500 0.000000
-4.444100 0.000000
-4.432700 0.000000
-4.421300 0.000000
-4.409900 0.000000
-4.398500 0.000000
-4.387100 0.000000
-4.375700 0.000000
-4.364300 0.000000
-4.352900 0.000000
-4.341500 0.000000
-4.330100 0.000000
-4.318700 0.000100
-4.307300 0.021400
-4.295900 0.078600
-4.284500 0.171800
-4.273100 0.289800
-4.261800 0.394700
-4.250400 0.425100
-4.239000 0.434200
-4.227600 0.433100
-4.216200 0.471300
-4.204800 0.511600
-4.193400 0.553000
-4.182000 0.595300
-4.170600 0.637700
-4.159200 0.676100
-4.147800 0.709000
-4.136400 0.732800
-4.125000 0.746000
-4.113600 0.761300
-4.102200 0.775400
-4.090800 0.791000
-4.079400 0.809000
-4.068000 0.829800
-4.056600 0.852000
-4.045200 0.874800
-4.033800 0.897700
-4.022400 0.920500
-4.011000 0.943500
-3.999600 0.966900
-3.988200 0.989900
-3.976800 1.011800
-3.965400 1.032500
-3.954000 1.049900
-3.942600 1.066700
-3.931200 1.085300
-3.919800 1.101800
-3.908400 1.115600
-3.897000 1.128300
-3.885600 1.141800
-3.874200 1.156600
-3.862800 1.171100
-3.851400 1.185300
-3.840000 1.199200
-3.828600 1.213400
-3.817200 1.228500
-3.805800 1.244400
-3.794400 1.260800
-3.783000 1.277800
-3.771600 1.295500
-3.760200 1.313600
-3.748800 1.331400
-3.737400 1.348400
-3.726000 1.364300
-3.714600 1.379300
-3.703200 1.393400
-3.691800 1.408800
-3.680400 1.423700
-3.669000 1.438200
-3.657600 1.452400
-3.646200 1.466500
-3.634800 1.480100
-3.623400 1.492400
-3.612000 1.504000
-3.600600 1.515800
-3.589200 1.528400
-3.577800 1.541700
-3.566400 1.555400
-3.555000 1.569600
-3.543600 1.584300
-3.532200 1.599300
-3.520800 1.614500
-3.509400 1.629800
-3.498000 1.645300
-3.486600 1.669300
-3.475200 1.703700
-3.463800 1.744400
-3.452400 1.776400
-3.441000 1.798500
-3.429600 1.812700
-3.418200 1.825100
-3.406800 1.835800
-3.395400 1.845400
-3.384000 1.866700
-3.372600 1.886300
-3.361300 1.903700
-3.349900 1.917200
-3.338500 1.936700
-3.327100 1.962400
-3.315700 1.991600
-3.304300 2.022900
-3.292900 2.056200
-3.281500 2.086200
-3.270100 2.096300
-3.258700 2.058600
-3.247300 2.010700
-3.235900 1.995500
-3.224500 2.006000
-3.213100 2.010700
-3.201700 1.998300
-3.190300 1.985200
-3.178900 1.971000
-3.167500 1.957100
-3.156100 1.944300
-3.144700 1.934600
-3.133300 1.928000
-3.121900 1.927400
-3.110500 1.929300
-3.099100 1.937900
-3.087700 1.954300
-3.076300 1.975500
-3.064900 1.999200
-3.053500 2.025300
-3.042100 2.042100
-3.030700 2.049300
-3.019300 2.052300
-3.007900 2.046100
-2.996500 2.042800
-2.985100 2.042700
-2.973700 2.054000
-2.962300 2.070000
-2.950900 2.087700
-2.939500 2.106100
-2.928100 2.126800
-2.916700 2.155900
-2.905300 2.200400
-2.893900 2.256300
-2.882500 2.310300
-2.871100 2.370800
-2.859700 2.442000
-2.848300 2.525700
-2.836900 2.621300
-2.825500 2.685200
-2.814100 2.704600
-2.802700 2.687800
-2.791300 2.686600
-2.779900 2.708200
-2.768500 2.748400
-2.757100 2.779700
-2.745700 2.780300
-2.734300 2.775700
-2.722900 2.790300
-2.711500 2.826200
-2.700100 2.880300
-2.688700 2.954600
-2.677300 3.006800
-2.665900 3.061400
-2.654500 3.145500
-2.643100 3.203700
-2.631700 3.264300
-2.620300 3.312000
-2.608900 3.346100
-2.597500 3.367100
-2.586100 3.374700
-2.574700 3.370100
-2.563300 3.339700
-2.551900 3.303300
-2.540500 3.253000
-2.529100 3.258200
-2.517700 3.307900
-2.506300 3.385800
-2.494900 3.285400
-2.483500 3.186300
-2.472200 3.096700
-2.460800 3.000400
-2.449400 2.901700
-2.438000 2.808500
-2.426600 2.721200
-2.415200 2.507800
-2.403800 2.407800
-2.392400 2.306800
-2.381000 2.204100
-2.369600 2.100900
-2.358200 2.023000
-2.346800 1.984300
-2.335400 1.978800
-2.324000 1.981200
-2.312600 1.989900
-2.301200 2.005800
-2.289800 2.033600
-2.278400 2.086500
-2.267000 2.152100
-2.255600 2.226300
-2.244200 2.322600
-2.232800 2.455200
-2.221400 2.577900
-2.210000 2.684800
-2.198600 2.803900
-2.187200 2.911800
-2.175800 3.006900
-2.164400 3.072600
-2.153000 3.161800
-2.141600 3.253700
-2.130200 3.294100
-2.118800 3.199700
-2.107400 3.128600
-2.096000 3.120400
-2.084600 3.126500
-2.073200 3.101500
-2.061800 3.065600
-2.050400 3.043300
-2.039000 3.031300
-2.027600 3.020200
-2.016200 3.012200
-2.004800 3.010100
-1.993400 3.039300
-1.982000 3.117700
-1.970600 3.188600
-1.959200 3.237500
-1.947800 3.264600
-1.936400 3.278600
-1.925000 3.307400
-1.913600 3.336700
-1.902200 3.363600
-1.890800 3.393300
-1.879400 3.438200
-1.868000 3.444600
-1.856600 3.445800
-1.845200 3.485300
-1.833800 3.624900
-1.822400 3.590300
-1.811000 3.496000
-1.799600 3.471500
-1.788200 3.465000
-1.776800 3.482200
-1.765400 3.499700
-1.754000 3.493300
-1.742600 3.482900
-1.731200 3.460900
-1.719800 3.427900
-1.708400 3.375300
-1.697000 3.396800
-1.685600 3.404300
-1.674200 3.417800
-1.662800 3.457200
-1.651400 3.528000
-1.640000 3.622200
-1.628600 3.715200
-1.617200 3.753900
-1.605800 3.793300
-1.594400 3.828600
-1.583000 3.837800
-1.571700 3.836300
-1.560300 3.829600
-1.548900 3.836500
-1.537500 3.860700
-1.526100 3.901200
-1.514700 3.959200
-1.503300 4.083700
-1.491900 4.234300
-1.480500 4.386500
-1.469100 4.489000
-1.457700 4.492600
-1.446300 4.473100
-1.434900 4.471100
-1.423500 4.482400
-1.412100 4.508700
-1.400700 4.546800
-1.389300 4.614500
-1.377900 4.691700
-1.366500 4.762500
-1.355100 4.843700
-1.343700 4.965600
-1.332300 5.105900
-1.320900 5.255600
-1.309500 5.415900
-1.298100 5.576100
-1.286700 5.994600
-1.275300 5.887000
-1.263900 5.924400
-1.252500 5.998100
-1.241100 6.004800
-1.229700 6.090200
-1.218300 6.329200
-1.206900 6.650400
-1.195500 6.520300
-1.184100 6.535400
-1.172700 6.550500
-1.161300 6.556300
-1.149900 6.526000
-1.138500 6.402400
-1.127100 6.198800
-1.115700 6.020800
-1.104300 5.890000
-1.092900 5.798700
-1.081500 5.674400
-1.070100 5.544300
-1.058700 5.313400
-1.047300 4.948700
-1.035900 4.750500
-1.024500 4.555400
-1.013100 4.427900
-1.001700 4.353200
-0.990300 4.239500
-0.978900 4.194500
-0.967500 4.175300
-0.956100 4.172200
-0.944700 4.168000
-0.933300 4.123400
-0.921900 4.129700
-0.910500 4.125200
-0.899100 4.102200
-0.887700 4.100300
-0.876300 4.125700
-0.864900 4.202000
-0.853500 4.337400
-0.842100 4.393800
-0.830700 4.304100
-0.819300 4.203200
-0.807900 4.147700
-0.796500 4.124700
-0.785100 4.116300
-0.773700 4.107300
-0.762300 4.114800
-0.750900 4.139300
-0.739500 4.154600
-0.728100 4.149000
-0.716700 4.156800
-0.705300 4.151100
-0.693900 4.169000
-0.682600 4.224000
-0.671200 4.274200
-0.659800 4.350500
-0.648400 4.440600
-0.637000 4.495800
-0.625600 4.517000
-0.614200 4.532100
-0.602800 4.545300
-0.591400 4.575700
-0.580000 4.632100
-0.568600 4.708200
-0.557200 4.727600
-0.545800 4.733000
-0.534400 4.721800
-0.523000 4.688800
-0.511600 4.697000
-0.500200 4.760300
-0.488800 5.135100
-0.477400 4.920100
-0.466000 4.449700
-0.454600 4.252600
-0.443200 4.109100
-0.431800 3.942500
-0.420400 3.830900
-0.409000 3.737500
-0.397600 3.653800
-0.386200 3.494000
-0.374800 3.282800
-0.363400 3.082600
-0.352000 2.914200
-0.340600 2.791600
-0.329200 2.732200
-0.317800 2.753100
-0.306400 2.317200
-0.295000 1.998900
-0.283600 1.589000
-0.272200 1.346700
-0.260800 1.387700
-0.249400 1.535100
-0.238000 1.672600
-0.226600 1.878600
-0.215200 2.117800
-0.203800 2.204700
-0.192400 2.454600
-0.181000 2.689900
-0.169600 2.841200
-0.158200 3.123800
-0.146800 3.380900
-0.135400 3.629600
-0.124000 3.796600
-0.112600 3.870800
-0.101200 4.000800
-0.089800 4.860700
-0.078400 6.832100
-0.067000 6.108800
-0.055600 5.654300
-0.044200 5.319900
-0.032800 5.350000
-0.021400 5.760900
-0.010000 6.279400
0.001400 6.802800
0.012800 7.283500
0.024200 7.717100
0.035600 7.769500
0.047000 8.120300
0.058400 8.342200
0.069800 8.098800
0.081200 7.712100
0.092600 7.478600
0.104000 7.283600
0.115400 7.368200
0.126800 7.509600
0.138200 7.795500
0.149600 7.586100
0.161000 7.386100
0.172400 7.953600
0.183800 8.477000
0.195200 8.492700
0.206600 8.302100
0.217900 7.862300
0.229300 7.354700
0.240700 6.740500
0.252100 6.238100
0.263500 5.846200
0.274900 5.507800
0.286300 5.218400
0.297700 4.976900
0.309100 4.751000
0.320500 4.552700
0.331900 4.385200
0.343300 4.230300
0.354700 4.057200
0.366100 3.879300
0.377500 3.644400
0.388900 3.426500
0.400300 3.216500
0.411700 3.024000
0.423100 2.818500
0.434500 2.622300
0.445900 2.440500
0.457300 2.287500
0.468700 2.119600
0.480100 1.966600
0.491500 1.829700
0.502900 1.715700
0.514300 1.658500
0.525700 1.528300
0.537100 1.397700
0.548500 1.283000
0.559900 1.229400
0.571300 1.163300
0.582700 1.089000
0.594100 1.007900
0.605500 0.910300
0.616900 0.810000
0.628300 0.689800
0.639700 0.584600
0.651100 0.491800
0.662500 0.403800
0.673900 0.283900
0.685300 0.106000
0.696700 0.011400
0.708100 0.000000
0.719500 0.000000
0.730900 0.000000
0.742300 0.000000
0.753700 0.000000
0.765100 0.000000
0.776500 0.000000
0.787900 0.000000
0.799300 0.000000
0.810700 0.000000
0.822100 0.000000
0.833500 0.000000
0.844900 0.000000
0.856300 0.000000
0.867700 0.000000
0.879100 0.000000
0.890500 0.000000
0.901900 0.000000
0.913300 0.000000
0.924700 0.000000
0.936100 0.000000
0.947500 0.000000
0.958900 0.000000
0.970300 0.000000
0.981700 0.000000
0.993100 0.000000
1.004500 0.000000
1.015900 0.000000
1.027300 0.000000
1.038700 0.000000
1.050100 0.000000
1.061500 0.000000
1.072900 0.000000
1.084300 0.000000
1.095700 0.000000
1.107000 0.000000
1.118400 0.000000
1.129800 0.000000
1.141200 0.000000
1.152600 0.000000
1.164000 0.000000
1.175400 0.000000
1.186800 0.000000
1.198200 0.000000
1.209600 0.000000
1.221000 0.000000
1.232400 0.000000
1.243800 0.000000
1.255200 0.000000
1.266600 0.000000
1.278000 0.000000
1.289400 0.000000
1.300800 0.000000
1.312200 0.000000
1.323600 0.000000
1.335000 0.000000
1.346400 0.000000
1.357800 0.000000
1.369200 0.000000
1.380600 0.000000
1.392000 0.000000
1.403400 0.000000
1.414800 0.000000
1.426200 0.000000
1.437600 0.000000
1.449000 0.000000
1.460400 0.000000
1.471800 0.000000
1.483200 0.000000
1.494600 0.000000
1.506000 0.000000
1.517400 0.000000
1.528800 0.000000
1.540200 0.000000
1.551600 0.000000
1.563000 0.000000
1.574400 0.000000
1.585800 0.000000
1.597200 0.000000
1.608600 0.000000
1.620000 0.000000
1.631400 0.000000
1.642800 0.000000
1.654200 0.000000
1.665600 0.000000
1.677000 0.000000
1.688400 0.000000
1.699800 0.000000
1.711200 0.000000
1.722600 0.000000
1.734000 0.000000
1.745400 0.000000
1.756800 0.000000
1.768200 0.000000
1.779600 0.000000
1.791000 0.000000
1.802400 0.000000
1.813800 0.000000
1.825200 0.000000
1.836600 0.000000
1.848000 0.000000
1.859400 0.000000
1.870800 0.000000
1.882200 0.000000
1.893600 0.000000
1.905000 0.000000
1.916400 0.000000
1.927800 0.000000
1.939200 0.000000
1.950600 0.000000
1.962000 0.000000
1.973400 0.000000
1.984800 0.000000
1.996200 0.000000
2.007500 0.000000
2.018900 0.000000
2.030300 0.000000
2.041700 0.000000
2.053100 0.000000
2.064500 0.000000
2.075900 0.000000
2.087300 0.000000
2.098700 0.000000
2.110100 0.000000
2.121500 0.000000
2.132900 0.000000
2.144300 0.000000
2.155700 0.000000
2.167100 0.000000
2.178500 0.000000
2.189900 0.000000
2.201300 0.000000
2.212700 0.000000
2.224100 0.000000
2.235500 0.000000
2.246900 0.000000
2.258300 0.000000
2.269700 0.000000
2.281100 0.000000
2.292500 0.000000
2.303900 0.000000
2.315300 0.000000
2.326700 0.001200
2.338100 0.005100
2.349500 0.011700
2.360900 0.021100
2.372300 0.032300
2.383700 0.044700
2.395100 0.058300
2.406500 0.073000
2.417900 0.089000
2.429300 0.106000
2.440700 0.124300
2.452100 0.143700
2.463500 0.209600
2.474900 0.262200
2.486300 0.285600
2.497700 0.293400
2.509100 0.268900
2.520500 0.280200
2.531900 0.319900
2.543300 0.365100
2.554700 0.414600
2.566100 0.468400
2.577500 0.527300
2.588900 0.593700
2.600300 0.667800
2.611700 0.761900
2.623100 0.855300
2.634500 0.929000
2.645900 0.983400
2.657300 0.994100
2.668700 1.013100
2.680100 1.089900
2.691500 1.225300
2.702900 1.419400
2.714300 1.667700
2.725700 1.889400
2.737100 2.060200
2.748500 2.214700
2.759900 2.373100
2.771300 2.533000
2.782700 2.693600
2.794100 2.846200
2.805500 2.923700
2.816900 2.901400
2.828300 2.960700
2.839700 3.062000
2.851100 3.237200
2.862500 3.406000
2.873900 3.566700
2.885300 3.718300
2.896600 3.855900
2.908000 4.024500
2.919400 4.268800
2.930800 4.305700
2.942200 4.096200
2.953600 4.041400
2.965000 4.061100
2.976400 4.126600
2.987800 4.266800
2.999200 4.514700
3.010600 4.801800
3.022000 4.954800
3.033400 5.029700
3.044800 5.057500
3.056200 5.018800
3.067600 4.999400
3.079000 4.940800
3.090400 4.915700
3.101800 4.952700
3.113200 4.987800
3.124600 5.030800
3.136000 5.101900
3.147400 5.192900
3.158800 5.259600
3.170200 5.492500
3.181600 5.828600
3.193000 5.554200
3.204400 5.486300
3.215800 5.541100
3.227200 5.696100
3.238600 5.831900
3.250000 5.834500
3.261400 5.819700
3.272800 5.907600
3.284200 6.017500
3.295600 6.110200
3.307000 6.190400
3.318400 6.262100
3.329800 6.330800
3.341200 6.392200
3.352600 6.454200
3.364000 6.561000
3.375400 6.737200
3.386800 6.877500
3.398200 6.959500
3.409600 7.045300
3.421000 7.096900
3.432400 7.147800
3.443800 7.214900
3.455200 7.326800
3.466600 7.491700
3.478000 7.722300
3.489400 7.821000
3.500800 7.795000
3.512200 7.789200
3.523600 7.734100
3.535000 7.578900
3.546400 7.471900
3.557800 7.397100
3.569200 7.335700
3.580600 7.323900
3.592000 7.362200
3.603400 7.445100
3.614800 7.473200
3.626200 7.420300
3.637600 7.344000
3.649000 7.323000
3.660400 7.205300
3.671800 7.118100
3.683200 7.029400
3.694600 7.085900
3.706000 6.779400
3.717400 6.722700
3.728800 6.770500
3.740200 6.725800
3.751600 6.506500
3.763000 6.013300
3.774400 5.839500
3.785800 5.868400
3.797100 5.893600
3.808500 5.922700
3.819900 5.931800
3.831300 5.980800
3.842700 6.084200
3.854100 6.232800
3.865500 6.360200
3.876900 6.748800
3.888300 6.940000
3.899700 7.188600
3.911100 7.043300
3.922500 6.972800
3.933900 6.709200
3.945300 6.640800
3.956700 6.618100
3.968100 6.648800
3.979500 6.612600
3.990900 6.491000
4.002300 6.309300
4.013700 6.210300
4.025100 6.139000
4.036500 6.064600
4.047900 5.863500
4.059300 5.831400
4.070700 5.763700
4.082100 5.646900
4.093500 5.534500
4.104900 5.417300
4.116300 5.393500
4.127700 5.439900
4.139100 5.442900
4.150500 5.428500
4.161900 5.477400
4.173300 5.573100
4.184700 5.679000
4.196100 5.788900
4.207500 5.859600
4.218900 5.885100
4.230300 5.910500
4.241700 5.943200
4.253100 6.019900
4.264500 6.082600
4.275900 6.150900
4.287300 6.164100
4.298700 6.173400
4.310100 6.126700
4.321500 6.100200
4.332900 6.116800
4.344300 6.093600
4.355700 6.043200
4.367100 6.039500
4.378500 6.007300
4.389900 5.985900
4.401300 5.958700
4.412700 5.900100
4.424100 5.893200
4.435500 5.863800
4.446900 5.849100
4.458300 5.937600
4.469700 6.101400
4.481100 6.188900
4.492500 6.225700
4.503900 6.261200
4.515300 6.296400
4.526700 6.285900
4.538100 6.259400
4.549500 6.206100
4.560900 6.164300
4.572300 6.102500
4.583700 6.015900
4.595100 5.958200
4.606500 5.898600
4.617900 5.861200
4.629300 5.900800
4.640700 5.970300
4.652100 6.201000
4.663500 6.334600
4.674900 6.402200
4.686200 6.470100
4.697600 6.575200
4.709000 6.686200
4.720400 6.700900
4.731800 6.642000
4.743200 6.562800
4.754600 6.478700
4.766000 6.426800
4.777400 6.344200
4.788800 6.325400
4.800200 6.301800
4.811600 6.144000
4.823000 6.005900
4.834400 5.764600
4.845800 5.484200
4.857200 5.365500
4.868600 5.304900
4.880000 5.253500
4.891400 5.280300
4.902800 5.347000
4.914200 5.399100
4.925600 5.477800
4.937000 5.612900
4.948400 5.744800
4.959800 5.719300
4.971200 5.915800
4.982600 6.132400
4.994000 6.017700
5.005400 5.946300
5.016800 5.962300
5.028200 6.046100
5.039600 6.210900
5.051000 6.285600
5.062400 6.340600
5.073800 6.482400
5.085200 6.678700
5.096600 6.821200
5.108000 6.934100
5.119400 6.994000
5.130800 7.168000
5.142200 7.445600
5.153600 7.747800
5.165000 7.894300
5.176400 7.883000
5.187800 7.868800
5.199200 7.918100
5.210600 7.967000
5.222000 8.001700
5.233400 8.154800
5.244800 8.029300
5.256200 7.580600
5.267600 7.345000
5.279000 7.047900
5.290400 6.772500
5.301800 6.637700
5.313200 6.596700
5.324600 6.539800
5.336000 6.589900
5.347400 6.950400
5.358800 6.555000
5.370200 6.764300
5.381600 7.099100
5.393000 7.598800
5.404400 8.071100
5.415800 8.456500
5.427200 8.475600
5.438600 8.717000
5.450000 8.493000
5.461400 8.318400
5.472800 7.964200
5.484200 7.827800
5.495600 7.976900
5.507000 8.656500
5.518400 10.455100
5.529800 12.379500
5.541200 13.102800
5.552600 13.889900
5.564000 14.556800
5.575400 14.977100
5.586700 14.566000
5.598100 13.680200
5.609500 13.196000
5.620900 13.071900
5.632300 12.862400
5.643700 12.934400
5.655100 13.672900
5.666500 15.759200
5.677900 16.168900
5.689300 16.139100
5.700700 15.216100
5.712100 14.023100
5.723500 13.100700
5.734900 12.305200
5.746300 12.174900
5.757700 12.686300
5.769100 13.559900
5.780500 13.844600
5.791900 14.660500
5.803300 15.541500
5.814700 17.314300
5.826100 17.392200
5.837500 15.821500
5.848900 16.145700
5.860300 15.873500
5.871700 15.937900
5.883100 17.299000
5.894500 18.186400
5.905900 19.057300
5.917300 18.009400
5.928700 17.602000
5.940100 16.512900
5.951500 15.504700
5.962900 15.711000
5.974300 15.553000
5.985700 15.396300
5.997100 15.863400
6.008500 15.666500
6.019900 13.838700
6.031300 12.572100
6.042700 12.343400
6.054100 12.728200
6.065500 13.778100
6.076900 15.226400
6.088300 13.728100
6.099700 14.336300
6.111100 15.338700
6.122500 15.532900
6.133900 15.647500
6.145300 14.947500
6.156700 15.914400
6.168100 16.697900
6.179500 16.618400
6.190900 14.509800
6.202300 13.833600
6.213700 14.837700
6.225100 17.780500
6.236500 18.647800
6.247900 18.117200
6.259300 17.246800
6.270700 16.260300
6.282100 15.286300
6.293500 14.265600
6.304900 12.904600
6.316300 13.617600
6.327700 12.302000
6.339100 13.299100
6.350500 14.474700
6.361900 14.730700
6.373300 16.201000
6.384700 17.211200
6.396100 18.158700
6.407500 21.172900
6.418900 21.580300
6.430300 22.714300
6.441700 23.530500
6.453100 24.119500
6.464500 26.220300
6.475800 28.698800
6.487200 27.586700
6.498600 25.048000
6.510000 20.845600
6.521400 20.714500
6.532800 19.536900
6.544200 19.673300
6.555600 20.173800
6.567000 21.814700
6.578400 22.389900
6.589800 23.292900
6.601200 19.947100
6.612600 16.940400
6.624000 14.978500
6.635400 13.631000
6.646800 15.222500
6.658200 19.416300
6.669600 28.136100
6.681000 35.114000
6.692400 36.934100
6.703800 29.283400
6.715200 25.912400
6.726600 22.431900
6.738000 19.198700
6.749400 16.194400
6.760800 18.363000
6.772200 23.038400
6.783600 28.762700
6.795000 34.831800
6.806400 33.981000
6.817800 32.372400
6.829200 31.241300
6.840600 39.325900
6.852000 36.827900
6.863400 28.723300
6.874800 26.239500
6.886200 28.377100
6.897600 26.420800
6.909000 24.886400
6.920400 18.990100
6.931800 16.319600
6.943200 18.586600
6.954600 18.740000
6.966000 14.669400
6.977400 15.680400
6.988800 18.006200
7.000200 19.895400
7.011600 24.977600
7.023000 26.566000
7.034400 28.922100
7.045800 32.449400
7.057200 31.518100
7.068600 27.187000
7.080000 26.029700
7.091400 20.405300
7.102800 16.477800
7.114200 13.055300
7.125600 11.289400
7.137000 10.074300
7.148400 9.030300
7.159800 8.571500
7.171200 9.158400
7.182600 10.024000
7.194000 10.938600
7.205400 10.670300
7.216800 11.856200
7.228200 14.339000
7.239600 15.862900
7.251000 16.305600
7.262400 16.446000
7.273800 17.384600
7.285200 18.593900
7.296600 19.436900
7.308000 19.835300
7.319400 19.043800
7.330800 19.713300
7.342200 19.422700
7.353600 24.349900
7.365000 25.228100
7.376300 28.021000
7.387700 26.280400
7.399100 21.878000
7.410500 20.818600
7.421900 20.410000
7.433300 19.957700
7.444700 19.258800
7.456100 19.187000
7.467500 18.530100
7.478900 19.424100
7.490300 21.970800
7.501700 22.490900
7.513100 18.155100
7.524500 16.793100
7.535900 16.508000
7.547300 15.589400
7.558700 14.824600
7.570100 14.847100
7.581500 15.458300
7.592900 17.247800
7.604300 16.864400
7.615700 15.118800
7.627100 12.713000
7.638500 11.518500
7.649900 11.272800
7.661300 11.521200
7.672700 11.698200
7.684100 12.424100
7.695500 12.303300
7.706900 12.083700
7.718300 11.877000
7.729700 11.539100
7.741100 10.678400
7.752500 10.013400
7.763900 9.499200
7.775300 9.163900
7.786700 8.855600
7.798100 8.852300
7.809500 8.044800
7.820900 7.830100
7.832300 7.591000
7.843700 7.204800
7.855100 6.981700
7.866500 6.650400
7.877900 6.328600
7.889300 6.065100
7.900700 5.968400
7.912100 5.750200
7.923500 5.514600
7.934900 5.422300
7.946300 4.185300
7.957700 3.610700
7.969100 3.266100
7.980500 3.068100
7.991900 2.913600
8.003300 2.787800
8.014700 2.701000
8.026100 2.591700
8.037500 2.466100
8.048900 2.349000
8.060300 2.219000
8.071700 2.066400
8.083100 1.907100
8.094500 1.752500
8.105900 1.631300
8.117300 1.543900
8.128700 1.480500
8.140100 1.427200
8.151500 1.380700
8.162900 1.324000
8.174300 1.261400
8.185700 1.207200
8.197100 1.153600
8.208500 1.098500
8.219900 1.042100
8.231300 0.984900
8.242700 0.920400
8.254100 0.886500
8.265400 0.879800
8.276800 0.873200
8.288200 0.859800
8.299600 0.850500
8.311000 0.839700
8.322400 0.836200
8.333800 0.886700
8.345200 1.018200
8.356600 1.218900
8.368000 1.513200
8.379400 2.216200
8.390800 2.829100
8.402200 3.222000
8.413600 3.653600
8.425000 4.090800
8.436400 4.284000
8.447800 4.245600
8.459200 4.259700
8.470600 4.122200
8.482000 4.187000
8.493400 4.590400
8.504800 4.280700
8.516200 4.361600
8.527600 4.833900
8.539000 4.600100
8.550400 4.447900
8.561800 4.516800
8.573200 4.521800
8.584600 4.452200
8.596000 4.427300
8.607400 4.462200
8.618800 4.561000
8.630200 4.660000
8.641600 4.734200
8.653000 4.808200
8.664400 4.830900
8.675800 4.855900
8.687200 4.875400
8.698600 4.887000
8.710000 4.906900
8.721400 4.903800
8.732800 4.911600
8.744200 4.938100
8.755600 5.028400
8.767000 5.242100
8.778400 5.518800
8.789800 5.794000
8.801200 5.950800
8.812600 6.135600
8.824000 6.392400
8.835400 6.646400
8.846800 7.034100
8.858200 7.616000
8.869600 7.771200
8.881000 7.926700
8.892400 8.115600
8.903800 8.239800
8.915200 7.999400
8.926600 7.699400
8.938000 7.596100
8.949400 7.414300
8.960800 7.269000
8.972200 7.152300
8.983600 7.121600
8.995000 7.158900
9.006400 7.310300
9.017800 7.317600
9.029200 7.212400
9.040600 7.176400
9.052000 6.921700
9.063400 6.877700
9.074800 6.980100
9.086200 7.158700
9.097600 7.316000
9.109000 7.405100
9.120400 7.367100
9.131800 7.314000
9.143200 7.235800
9.154600 7.189800
9.165900 7.233800
9.177300 7.280800
9.188700 7.336700
9.200100 7.350200
9.211500 7.400400
9.222900 7.242400
9.234300 7.210600
9.245700 7.126900
9.257100 7.290300
9.268500 7.496800
9.279900 7.732000
9.291300 7.869100
9.302700 8.000200
9.314100 8.093100
9.325500 8.109900
9.336900 8.050300
9.348300 7.929800
9.359700 7.789200
9.371100 7.738700
9.382500 7.602000
9.393900 7.337600
9.405300 7.149500
9.416700 7.101000
9.428100 7.075100
9.439500 7.114200
9.450900 7.019500
9.462300 6.993300
9.473700 7.036000
9.485100 7.072600
9.496500 7.019900
9.507900 6.990000
9.519300 7.001200
9.530700 7.061600
9.542100 7.106700
9.553500 7.145900
9.564900 7.239300
9.576300 7.416400
9.587700 7.589100
9.599100 7.770800
9.610500 7.997600
9.621900 8.043400
9.633300 8.309800
9.644700 8.813800
9.656100 9.109900
9.667500 8.788800
9.678900 8.427600
9.690300 7.756500
9.701700 7.379300
9.713100 7.160400
9.724500 6.831800
9.735900 6.662000
9.747300 6.515800
9.758700 6.413900
9.770100 6.344600
9.781500 6.302000
9.792900 6.292200
9.804300 6.277500
9.815700 6.324400
9.827100 6.444100
9.838500 6.657400
9.849900 6.597000
9.861300 6.519200
9.872700 6.645700
9.884100 6.609800
9.895500 6.603300
9.906900 6.566900
9.918300 6.558700
9.929700 6.533500
9.941100 6.604800
9.952500 6.640300
9.963900 6.628800
9.975300 6.747000
9.986700 6.814700
9.998100 6.849800
10.009500 6.918200
10.020900 6.956400
10.032300 6.828100
10.043700 6.745700
10.055000 6.773700
10.066400 6.928400
10.077800 7.140900
10.089200 7.260900
10.100600 7.275700
10.112000 7.367400
10.123400 7.404300
10.134800 7.397600
10.146200 7.208900
10.157600 7.061300
10.169000 6.922800
10.180400 6.822400
10.191800 6.775200
10.203200 6.564200
10.214600 6.373600
10.226000 6.207100
10.237400 6.103900
10.248800 6.043700
10.260200 5.981500
10.271600 5.892300
10.283000 5.795400
10.294400 5.723700
10.305800 5.717200
10.317200 5.742800
10.328600 5.778700
10.340000 5.816600
10.351400 5.848300
10.362800 5.838100
10.374200 5.836100
10.385600 5.797300
10.397000 5.779000
10.408400 5.842100
10.419800 5.872800
10.431200 5.882200
10.442600 5.907500
10.454000 5.942200
10.465400 5.993000
10.476800 6.063100
10.488200 6.112200
10.499600 6.195700
10.511000 6.323400
10.522400 6.444500
10.533800 6.589300
10.545200 6.732800
10.556600 6.819700
10.568000 6.925900
10.579400 7.105900
10.590800 7.067800
10.602200 6.983800
10.613600 6.932100
10.625000 6.861000
10.636400 6.624400
10.647800 6.372000
10.659200 6.210100
10.670600 6.135500
10.682000 6.092800
10.693400 6.060000
10.704800 5.984100
10.716200 5.926700
10.727600 5.892400
10.739000 5.958400
10.750400 6.105900
10.761800 6.149400
10.773200 6.168600
10.784600 6.174300
10.796000 6.128400
10.807400 6.060700
10.818800 5.992600
10.830200 5.923200
10.841600 5.917100
10.853000 5.986400
10.864400 6.072600
10.875800 5.951200
10.887200 5.784400
10.898600 5.788000
10.910000 5.780300
10.921400 5.781200
10.932800 5.802200
10.944200 5.829600
10.955500 5.791900
10.966900 5.781100
10.978300 5.830800
10.989700 5.853200
11.001100 5.867700
11.012500 5.846500
11.023900 5.730600
11.035300 5.684400
11.046700 5.674500
11.058100 5.701900
11.069500 5.823700
11.080900 5.744800
11.092300 5.654000
11.103700 5.626300
11.115100 5.602300
11.126500 5.607600
11.137900 5.640400
11.149300 5.712000
11.160700 5.802700
11.172100 5.880000
11.183500 5.892900
11.194900 5.836900
11.206300 5.802400
11.217700 5.818500
11.229100 5.840400
11.240500 5.810700
11.251900 5.719700
11.263300 5.539400
11.274700 5.408900
11.286100 5.134100
11.297500 5.029700
11.308900 4.956600
11.320300 4.964100
11.331700 4.951300
11.343100 5.009000
11.354500 5.248400
11.365900 5.508900
11.377300 5.725200
11.388700 5.953500
11.400100 6.176500
11.411500 6.562800
11.422900 6.919300
11.434300 7.192800
11.445700 7.556900
11.457100 7.907000
11.468500 8.205000
11.479900 8.506000
11.491300 8.671200
11.502700 8.785100
11.514100 8.967100
11.525500 9.018200
11.536900 9.074000
11.548300 9.016100
11.559700 8.945600
11.571100 8.966000
11.582500 8.803500
11.593900 8.607100
11.605300 8.407700
11.616700 8.151800
11.628100 7.973600
11.639500 7.809000
11.650900 7.631800
11.662300 7.626700
11.673700 7.728200
11.685100 7.726200
11.696500 7.680500
11.707900 7.652500
11.719300 7.645500
11.730700 7.677900
11.742100 7.747000
11.753500 7.831200
11.764900 7.864000
11.776300 7.878900
11.787700 7.800800
11.799100 7.779300
11.810500 7.762100
11.821900 7.635900
11.833300 7.517600
11.844600 7.428500
11.856000 7.455000
11.867400 7.322100
11.878800 7.225200
11.890200 7.192800
11.901600 7.198700
11.913000 7.187600
11.924400 7.192700
11.935800 7.230400
11.947200 7.334600
11.958600 7.438700
11.970000 7.581800
11.981400 7.632000
11.992800 7.740400
12.004200 7.921300
12.015600 7.908200
12.027000 7.957500
12.038400 8.018000
12.049800 8.009100
12.061200 7.966400
12.072600 7.987800
12.084000 8.029500
12.095400 8.191700
12.106800 8.280300
12.118200 8.223600
12.129600 7.832500
12.141000 7.447700
12.152400 6.929000
12.163800 6.502100
12.175200 6.227300
12.186600 5.887500
12.198000 5.690900
12.209400 5.502600
12.220800 5.333400
12.232200 5.222000
12.243600 5.155300
12.255000 5.130700
12.266400 4.971400
12.277800 4.823400
12.289200 4.723100
12.300600 4.690500
12.312000 4.644200
12.323400 4.600900
12.334800 4.520700
12.346200 4.417700
12.357600 4.348600
12.369000 4.308300
12.380400 4.305800
12.391800 4.338100
12.403200 4.373700
12.414600 4.320600
12.426000 4.252600
12.437400 4.237300
12.448800 4.252500
12.460200 4.280400
12.471600 4.289500
12.483000 4.268900
12.494400 4.270700
12.505800 4.284500
12.517200 4.315200
12.528600 4.306200
12.540000 4.291200
12.551400 4.292400
12.562800 4.265000
12.574200 4.188800
12.585600 4.101700
12.597000 4.041000
12.608400 3.931100
12.619800 3.864700
12.631200 3.804500
12.642600 3.748100
12.654000 3.700900
12.665400 3.655600
12.676800 3.600600
12.688200 3.564000
12.699600 3.821200
12.711000 3.756000
12.722400 3.703900
12.733800 3.603200
12.745100 4.163800
12.756500 3.509700
12.767900 3.382500
12.779300 3.233200
12.790700 3.113600
12.802100 3.054100
12.813500 3.029100
12.824900 3.024400
12.836300 3.062100
12.847700 3.120400
12.859100 3.186200
12.870500 3.280500
12.881900 3.405300
12.893300 3.605700
12.904700 3.794900
12.916100 3.954800
12.927500 3.951200
12.938900 3.756000
12.950300 3.707800
12.961700 3.578900
12.973100 3.488700
12.984500 3.382600
12.995900 3.279600
13.007300 3.207600
13.018700 3.160300
13.030100 3.126400
13.041500 3.096100
13.052900 3.058000
13.064300 3.026600
13.075700 2.999100
13.087100 2.991600
13.098500 2.995700
13.109900 2.994700
13.121300 2.985500
13.132700 2.956900
13.144100 2.903700
13.155500 2.863500
13.166900 2.849900
13.178300 2.749300
13.189700 2.683800
13.201100 2.639600
13.212500 2.625000
13.223900 2.637500
13.235300 2.669800
13.246700 2.710400
13.258100 2.755800
13.269500 2.804000
13.280900 2.852100
13.292300 2.899100
13.303700 2.969200
13.315100 3.125100
13.326500 3.115600
13.337900 3.067000
13.349300 3.050300
13.360700 3.044500
13.372100 3.025200
13.383500 3.004000
13.394900 2.973900
13.406300 2.942200
13.417700 2.914800
13.429100 2.891000
13.440500 2.871100
13.451900 2.856500
13.463300 2.849400
13.474700 2.851500
13.486100 2.869200
13.497500 2.905500
13.508900 2.953500
13.520300 2.990300
13.531700 3.000900
13.543100 3.013900
13.554500 3.040400
13.565900 3.078200
13.577300 3.121300
13.588700 3.171500
13.600100 3.236200
13.611500 3.311300
13.622900 3.397700
13.634200 3.499200
13.645600 3.586000
13.657000 3.700900
13.668400 3.865800
13.679800 4.071500
13.691200 4.250300
13.702600 4.399800
13.714000 4.706900
13.725400 5.139600
13.736800 5.388500
13.748200 5.423000
13.759600 5.315900
13.771000 5.080400
13.782400 4.902400
13.793800 4.715300
13.805200 4.556300
13.816600 4.491000
13.828000 4.399700
13.839400 4.178400
13.850800 4.112500
13.862200 4.105100
13.873600 4.099200
13.885000 4.079400
13.896400 4.084800
13.907800 4.120000
13.919200 4.189300
13.930600 4.286800
13.942000 4.404900
13.953400 4.576800
13.964800 4.753900
13.976200 4.977200
13.987600 5.089300
13.999000 5.316700
14.010400 5.485400
14.021800 5.602700
14.033200 5.724500
14.044600 5.847200
14.056000 5.915200
14.067400 5.979900
14.078800 6.037100
14.090200 6.087700
14.101600 6.138200
14.113000 6.188800
14.124400 6.186700
14.135800 6.201500
14.147200 6.301600
14.158600 6.276000
14.170000 6.168000
14.181400 6.090000
14.192800 6.037700
14.204200 6.049300
14.215600 6.049700
14.227000 6.019600
14.238400 5.927400
14.249800 5.823900
14.261200 5.797400
14.272600 5.834500
14.284000 5.960900
14.295400 6.131700
14.306800 6.105100
14.318200 6.218500
14.329600 6.340300
14.341000 6.490700
14.352400 6.686600
14.363800 6.877000
14.375200 7.063200
14.386600 7.283200
14.398000 7.430600
14.409400 7.522000
14.420800 7.686300
14.432200 7.756000
14.443600 7.690100
14.455000 7.504900
14.466400 7.282800
14.477800 6.991000
14.489200 6.774100
14.500600 6.679900
14.512000 6.539800
14.523400 6.347000
14.534700 6.159300
14.546100 6.100800
14.557500 5.941000
14.568900 5.625700
14.580300 5.446300
14.591700 5.377200
14.603100 5.423300
14.614500 5.499700
14.625900 5.580100
14.637300 5.618200
14.648700 5.595100
14.660100 5.432800
14.671500 5.245200
14.682900 5.106300
14.694300 5.034300
14.705700 5.028700
14.717100 5.080500
14.728500 5.186700
14.739900 5.350800
14.751300 5.539500
14.762700 5.758100
14.774100 5.962900
14.785500 6.162500
14.796900 6.298300
14.808300 6.535100
14.819700 6.704800
14.831100 6.761400
14.842500 6.772900
14.853900 6.784800
14.865300 6.762200
14.876700 6.758500
14.888100 6.855200
14.899500 6.919500
14.910900 6.910900
14.922300 6.814500
14.933700 6.842100
14.945100 6.763700
14.956500 6.657300
14.967900 6.671600
14.979300 6.698700
14.990700 6.730100
15.002100 6.761300
15.013500 6.732500
15.024900 6.874700
15.036300 7.004800
15.047700 7.150600
15.059100 7.349800
15.070500 7.507400
15.081900 7.606700
15.093300 7.822500
15.104700 8.276200
15.116100 8.187200
15.127500 7.953100
15.138900 7.890100
15.150300 7.885200
15.161700 7.839300
15.173100 7.777700
15.184500 7.731900
15.195900 7.698300
15.207300 7.567400
15.218700 7.288700
15.230100 6.840300
15.241500 6.533000
15.252900 6.248000
15.264300 6.054100
15.275700 5.975400
15.287100 5.914500
15.298500 5.911700
15.309900 5.992700
15.321300 6.203100
15.332700 6.373800
15.344100 6.520500
15.355500 6.602300
15.366900 6.690300
15.378300 6.790000
15.389700 6.843900
15.401100 6.932800
15.412500 6.831700
15.423800 6.767900
15.435200 6.696300
15.446600 6.589700
15.458000 6.597200
15.469400 6.734000
15.480800 6.825500
15.492200 6.828200
15.503600 6.761800
15.515000 6.730400
15.526400 6.654200
15.537800 6.423200
15.549200 6.119500
15.560600 5.779300
15.572000 5.495000
15.583400 5.290900
15.594800 5.078100
15.606200 4.938400
15.617600 4.700300
15.629000 4.469600
15.640400 4.239400
15.651800 4.055600
15.663200 3.901100
15.674600 3.793300
15.686000 3.715200
15.697400 3.680700
15.708800 3.679500
15.720200 3.693500
15.731600 3.725500
15.743000 3.758600
15.754400 3.767200
15.765800 3.802600
15.777200 3.889800
15.788600 4.072300
15.800000 4.056700
15.811400 3.918700
15.822800 3.791500
15.834200 3.665600
15.845600 3.544000
15.857000 3.401700
15.868400 3.303800
15.879800 3.200500
15.891200 3.067400
15.902600 2.958500
15.914000 2.858400
15.925400 2.789300
15.936800 2.697600
15.948200 2.453800
15.959600 2.249900
15.971000 2.078200
15.982400 1.923800
15.993800 1.772800
16.005200 1.629200
16.016600 1.478900
16.028000 1.328100
16.039400 1.186000
16.050800 1.059200
16.062200 0.950800
16.073600 0.856500
16.085000 0.748400
16.096400 0.647400
16.107800 0.556600
16.119200 0.476200
16.130600 0.401400
16.142000 0.321300
16.153400 0.248800
16.164800 0.191100
16.176200 0.150300
16.187600 0.125100
16.199000 0.105100
16.210400 0.087400
16.221800 0.071900
16.233200 0.058700
16.244600 0.047600
16.256000 0.038600
16.267400 0.031400
16.278800 0.025000
16.290200 0.019500
16.301600 0.015000
16.313000 0.011300
16.324300 0.008600
16.335700 0.006500
16.347100 0.004700
16.358500 0.003100
16.369900 0.001800
16.381300 0.000800
16.392700 0.000200
16.404100 0.000000
16.415500 0.000000
16.426900 0.000000
16.438300 0.000000
16.449700 0.000000
16.461100 0.000000
16.472500 0.000000
16.483900 0.000000
16.495300 0.000000
16.506700 0.000000
16.518100 0.000000
16.529500 0.000000
16.540900 0.000000
16.552300 0.000000
16.563700 0.000000
16.575100 0.000000
16.586500 0.000000
16.597900 0.000000
16.609300 0.000000
16.620700 0.000000
16.632100 0.000000
16.643500 0.000000
16.654900 0.000000
16.666300 0.000000
16.677700 0.000000
16.689100 0.000000
16.700500 0.000000
16.711900 0.000000
16.723300 0.000000
16.734700 0.000000
16.746100 0.000000
16.757500 0.000000
16.768900 0.000000
16.780300 0.000000
16.791700 0.000000
16.803100 0.000000
16.814500 0.000000
16.825900 0.000000
16.837300 0.000000
16.848700 0.000000
16.860100 0.000000
16.871500 0.000000
16.882900 0.000000
16.894300 0.000000
16.905700 0.000000
16.917100 0.000000
16.928500 0.000000
16.939900 0.000000
16.951300 0.000000
16.962700 0.000000
16.974100 0.000000
16.985500 0.000000
16.996900 0.000000
17.008300 0.000000
17.019700 0.000000
17.031100 0.000000
17.042500 0.000000
17.053900 0.000000
17.065300 0.000000
17.076700 0.000000
17.088100 0.000000
17.099500 0.000000
17.110900 0.000000
17.122300 0.000000
17.133700 0.000000
17.145100 0.000000
17.156500 0.000000
17.167900 0.000000
17.179300 0.000000
17.190700 0.000000
17.202100 0.000000
17.213400 0.000000
17.224800 0.000000
17.236200 0.000000
17.247600 0.000000
17.259000 0.000000
17.270400 0.000000
17.281800 0.000000
17.293200 0.000000
17.304600 0.000000
17.316000 0.000000
17.327400 0.000000
17.338800 0.000000
17.350200 0.000000
17.361600 0.000000
17.373000 0.000000
17.384400 0.000000
17.395800 0.000000
17.407200 0.000000
17.418600 0.000000
17.430000 0.000000
17.441400 0.000000
e
