set title 'mp-1863 - Density of States'
set xlabel 'Energy (eV)'
set ylabel 'DOS (states/eV)'
set grid
set xrange [-10:10]
set yrange [0:35.748]
set xzeroaxis lt -1
set terminal png size 800,600
set output 'mp-1863_dos_gnuplot.png'
plot '-' using 1:2 with lines title 'DOS'
-11.018900 0.000000
-11.005600 0.000000
-10.992200 0.000000
-10.978800 0.000000
-10.965400 0.000000
-10.952100 0.000000
-10.938700 0.000000
-10.925300 0.000000
-10.912000 0.000000
-10.898600 0.000000
-10.885200 0.000000
-10.871800 0.000000
-10.858500 0.000000
-10.845100 0.000000
-10.831700 0.000000
-10.818400 0.000000
-10.805000 0.000000
-10.791600 0.000000
-10.778200 0.000000
-10.764900 0.000000
-10.751500 0.000000
-10.738100 0.000000
-10.724800 0.000000
-10.711400 0.000000
-10.698000 0.000000
-10.684600 0.000000
-10.671300 0.000000
-10.657900 0.000000
-10.644500 0.000000
-10.631200 0.000000
-10.617800 0.000000
-10.604400 0.000000
-10.591000 0.000000
-10.577700 0.000000
-10.564300 0.000000
-10.550900 0.000000
-10.537600 0.000000
-10.524200 0.000000
-10.510800 0.000000
-10.497400 0.000000
-10.484100 0.000000
-10.470700 0.000000
-10.457300 0.000000
-10.444000 0.000000
-10.430600 0.000000
-10.417200 0.000000
-10.403800 0.000000
-10.390500 0.000000
-10.377100 0.000000
-10.363700 0.000000
-10.350400 0.000000
-10.337000 0.000000
-10.323600 0.000000
-10.310200 0.000000
-10.296900 0.000000
-10.283500 0.000000
-10.270100 0.000000
-10.256800 0.000000
-10.243400 0.000000
-10.230000 0.000000
-10.216600 0.000000
-10.203300 0.000000
-10.189900 0.000000
-10.176500 0.000000
-10.163200 0.000000
-10.149800 0.000000
-10.136400 0.000000
-10.123000 0.000000
-10.109700 0.000000
-10.096300 0.000000
-10.082900 0.000000
-10.069600 0.000000
-10.056200 0.000000
-10.042800 0.000000
-10.029400 0.000000
-10.016100 0.000000
-10.002700 0.000000
-9.989300 0.000000
-9.976000 0.000000
-9.962600 0.000000
-9.949200 0.000000
-9.935800 0.000000
-9.922500 0.000000
-9.909100 0.000000
-9.895700 0.000000
-9.882400 0.000000
-9.869000 0.000000
-9.855600 0.000000
-9.842200 0.000000
-9.828900 0.000000
-9.815500 0.000000
-9.802100 0.000300
-9.788800 0.036900
-9.775400 0.135500
-9.762000 0.317200
-9.748600 0.602800
-9.735300 0.816600
-9.721900 0.961800
-9.708500 1.105700
-9.695200 1.296000
-9.681800 1.462000
-9.668400 1.597600
-9.655000 1.702900
-9.641700 1.771100
-9.628300 1.780000
-9.614900 1.780200
-9.601600 1.780400
-9.588200 1.780600
-9.574800 1.780800
-9.561400 1.781000
-9.548100 1.781100
-9.534700 1.781300
-9.521300 1.781400
-9.508000 1.781600
-9.494600 1.781700
-9.481200 1.781800
-9.467800 1.781900
-9.454500 1.782100
-9.441100 1.782700
-9.427700 1.818200
-9.414400 1.878400
-9.401000 1.956700
-9.387600 2.053000
-9.374200 2.167400
-9.360900 2.298700
-9.347500 2.377800
-9.334100 2.454600
-9.320800 2.529200
-9.307400 2.601600
-9.294000 2.671800
-9.280600 2.739800
-9.267300 2.805600
-9.253900 2.873600
-9.240500 2.947000
-9.227200 3.025800
-9.213800 3.032800
-9.200400 3.028400
-9.187000 3.029900
-9.173700 3.020400
-9.160300 2.989000
-9.146900 2.937900
-9.133600 2.863500
-9.120200 2.680500
-9.106800 2.595200
-9.093400 2.555600
-9.080100 2.556100
-9.066700 2.556600
-9.053300 2.557100
-9.039900 2.557500
-9.026600 2.557800
-9.013200 2.558100
-8.999800 2.558300
-8.986500 2.558500
-8.973100 2.558700
-8.959700 2.558700
-8.946300 2.558700
-8.933000 2.558700
-8.919600 2.558600
-8.906200 2.574600
-8.892900 2.874600
-8.879500 3.361200
-8.866100 3.940200
-8.852700 4.477300
-8.839400 4.457700
-8.826000 4.390700
-8.812600 4.333800
-8.799300 4.288800
-8.785900 4.254000
-8.772500 4.220500
-8.759100 4.186600
-8.745800 4.152300
-8.732400 4.117700
-8.719000 4.082700
-8.705700 4.046400
-8.692300 4.005200
-8.678900 3.958800
-8.665500 3.907100
-8.652200 3.850300
-8.638800 3.788200
-8.625400 3.737900
-8.612100 3.714600
-8.598700 3.711700
-8.585300 3.711900
-8.571900 3.712000
-8.558600 3.712100
-8.545200 3.712200
-8.531800 3.712300
-8.518500 3.712400
-8.505100 3.712500
-8.491700 3.713700
-8.478300 3.747100
-8.465000 3.816800
-8.451600 3.916400
-8.438200 4.045700
-8.424900 4.204900
-8.411500 4.328700
-8.398100 4.421800
-8.384700 4.269600
-8.371400 4.168100
-8.358000 3.950900
-8.344600 4.032000
-8.331300 4.110100
-8.317900 4.186700
-8.304500 4.268000
-8.291100 4.354900
-8.277800 4.447300
-8.264400 4.545200
-8.251000 4.686500
-8.237700 4.847900
-8.224300 4.973400
-8.210900 5.062900
-8.197500 5.117200
-8.184200 5.140300
-8.170800 5.142800
-8.157400 5.144600
-8.144100 5.146200
-8.130700 5.147800
-8.117300 5.149300
-8.103900 5.150800
-8.090600 5.293300
-8.077200 5.727600
-8.063800 6.355000
-8.050500 6.760700
-8.037100 7.266600
-8.023700 7.582200
-8.010300 7.591400
-7.997000 7.599200
-7.983600 7.608400
-7.970200 7.619000
-7.956900 7.632700
-7.943500 7.648000
-7.930100 7.663700
-7.916700 7.679900
-7.903400 7.696600
-7.890000 7.714900
-7.876600 7.734800
-7.863300 7.756500
-7.849900 7.779800
-7.836500 7.805600
-7.823100 7.837400
-7.809800 7.875300
-7.796400 7.916400
-7.783000 7.783100
-7.769700 7.391600
-7.756300 7.279600
-7.742900 7.160700
-7.729500 6.649400
-7.716200 6.300000
-7.702800 6.305900
-7.689400 6.460700
-7.676100 8.017600
-7.662700 9.012500
-7.649300 10.014800
-7.635900 10.877800
-7.622600 11.308300
-7.609200 11.412100
-7.595800 11.036300
-7.582500 10.353700
-7.569100 10.152300
-7.555700 10.159100
-7.542300 10.167300
-7.529000 10.176900
-7.515600 10.167700
-7.502200 9.431900
-7.488900 8.374400
-7.475500 7.771800
-7.462100 7.528600
-7.448700 6.345400
-7.435400 3.603200
-7.422000 2.738800
-7.408600 2.647300
-7.395300 2.647400
-7.381900 2.647500
-7.368500 2.647500
-7.355100 13.196000
-7.341800 20.602900
-7.328400 20.109100
-7.315000 16.839100
-7.301700 12.058400
-7.288300 4.450700
-7.274900 0.000000
-7.261500 0.000000
-7.248200 0.000000
-7.234800 0.000000
-7.221400 0.000000
-7.208100 0.000000
-7.194700 0.000000
-7.181300 0.000000
-7.167900 0.000000
-7.154600 0.000000
-7.141200 0.000000
-7.127800 0.000000
-7.114500 0.000000
-7.101100 0.000000
-7.087700 0.000000
-7.074300 0.000000
-7.061000 0.000000
-7.047600 0.000000
-7.034200 0.000000
-7.020900 0.000000
-7.007500 0.000000
-6.994100 0.000000
-6.980700 0.000000
-6.967400 0.000000
-6.954000 0.000000
-6.940600 0.000000
-6.927300 0.000000
-6.913900 0.000000
-6.900500 0.000000
-6.887100 0.000000
-6.873800 0.000000
-6.860400 0.000000
-6.847000 0.000000
-6.833600 0.000000
-6.820300 0.000000
-6.806900 0.000000
-6.793500 0.000000
-6.780200 0.000000
-6.766800 0.000000
-6.753400 0.000000
-6.740000 0.000000
-6.726700 0.000000
-6.713300 0.000000
-6.699900 0.000000
-6.686600 0.000000
-6.673200 0.000000
-6.659800 0.000000
-6.646400 0.000000
-6.633100 0.000000
-6.619700 0.000000
-6.606300 0.000000
-6.593000 0.000000
-6.579600 0.000000
-6.566200 0.000000
-6.552800 0.000000
-6.539500 0.000000
-6.526100 0.000000
-6.512700 0.000000
-6.499400 0.000000
-6.486000 0.000000
-6.472600 0.000000
-6.459200 0.000000
-6.445900 0.000000
-6.432500 0.000000
-6.419100 0.000000
-6.405800 0.000000
-6.392400 0.000000
-6.379000 0.000000
-6.365600 0.000000
-6.352300 0.000000
-6.338900 0.000000
-6.325500 0.000000
-6.312200 0.000000
-6.298800 0.000000
-6.285400 0.000000
-6.272000 0.000000
-6.258700 0.000000
-6.245300 0.000000
-6.231900 0.000000
-6.218600 0.000000
-6.205200 0.000000
-6.191800 0.000000
-6.178400 0.000000
-6.165100 0.000000
-6.151700 0.000000
-6.138300 0.000000
-6.125000 0.000000
-6.111600 0.000000
-6.098200 0.000000
-6.084800 0.000000
-6.071500 0.000000
-6.058100 0.000000
-6.044700 0.000000
-6.031400 0.000000
-6.018000 0.000000
-6.004600 0.000000
-5.991200 0.000000
-5.977900 0.000000
-5.964500 0.000000
-5.951100 0.000000
-5.937800 0.000000
-5.924400 0.000000
-5.911000 0.000000
-5.897600 0.000000
-5.884300 0.000000
-5.870900 0.000000
-5.857500 0.000000
-5.844200 0.000000
-5.830800 0.000000
-5.817400 0.000000
-5.804000 0.000000
-5.790700 0.000000
-5.777300 0.000000
-5.763900 0.000000
-5.750600 0.000000
-5.737200 0.000000
-5.723800 0.000000
-5.710400 0.000000
-5.697100 0.000000
-5.683700 0.000000
-5.670300 0.000000
-5.657000 0.000000
-5.643600 0.000000
-5.630200 0.000000
-5.616800 0.000000
-5.603500 0.000000
-5.590100 0.000000
-5.576700 0.000000
-5.563400 0.000000
-5.550000 0.000000
-5.536600 0.000000
-5.523200 0.000000
-5.509900 0.000000
-5.496500 0.000000
-5.483100 0.000000
-5.469800 0.000000
-5.456400 0.000000
-5.443000 0.000000
-5.429600 0.000000
-5.416300 0.000000
-5.402900 0.000000
-5.389500 0.000000
-5.376200 0.000000
-5.362800 0.000000
-5.349400 0.000000
-5.336000 0.000000
-5.322700 0.000000
-5.309300 0.000000
-5.295900 0.000000
-5.282600 0.086300
-5.269200 0.358700
-5.255800 0.763500
-5.242400 1.450900
-5.229100 2.368800
-5.215700 3.203400
-5.202300 3.955000
-5.189000 4.623400
-5.175600 5.208700
-5.162200 5.709300
-5.148800 6.101400
-5.135500 6.411700
-5.122100 6.930300
-5.108700 7.452000
-5.095400 7.946100
-5.082000 9.137700
-5.068600 7.789000
-5.055200 5.351300
-5.041900 4.980300
-5.028500 4.627700
-5.015100 4.293400
-5.001800 3.977500
-4.988400 3.680000
-4.975000 3.400800
-4.961600 3.140000
-4.948300 3.164100
-4.934900 3.728800
-4.921500 4.263600
-4.908200 4.141600
-4.894800 4.021300
-4.881400 3.902900
-4.868000 3.786200
-4.854700 3.900300
-4.841300 4.329800
-4.827900 4.218400
-4.814600 4.108800
-4.801200 7.652900
-4.787800 4.046600
-4.774400 3.796400
-4.761100 3.567400
-4.747700 3.359600
-4.734300 3.172900
-4.720900 3.007600
-4.707600 2.863400
-4.694200 2.740400
-4.680800 2.638600
-4.667500 2.558100
-4.654100 2.498700
-4.640700 2.452800
-4.627300 2.413600
-4.614000 2.381100
-4.600600 2.355300
-4.587200 2.342800
-4.573900 2.342400
-4.560500 2.351500
-4.547100 2.365800
-4.533700 2.383300
-4.520400 2.403900
-4.507000 2.427600
-4.493600 2.454500
-4.480300 2.484400
-4.466900 2.517500
-4.453500 2.580100
-4.440100 2.758200
-4.426800 2.911200
-4.413400 3.038900
-4.400000 3.141400
-4.386700 3.218600
-4.373300 3.270700
-4.359900 3.297600
-4.346500 3.299900
-4.333200 3.277600
-4.319800 3.231800
-4.306400 3.188000
-4.293100 3.156900
-4.279700 3.138400
-4.266300 3.132500
-4.252900 3.135200
-4.239600 3.134100
-4.226200 3.128200
-4.212800 3.117600
-4.199500 3.108000
-4.186100 3.105000
-4.172700 3.108600
-4.159300 3.118900
-4.146000 3.135900
-4.132600 3.159400
-4.119200 3.189700
-4.105900 3.226500
-4.092500 3.206500
-4.079100 3.207800
-4.065700 3.199000
-4.052400 3.213000
-4.039000 3.233700
-4.025600 3.235600
-4.012300 3.218600
-3.998900 3.182900
-3.985500 3.078900
-3.972100 2.802200
-3.958800 2.219100
-3.945400 1.747500
-3.932000 1.387300
-3.918700 1.138500
-3.905300 0.989100
-3.891900 0.882500
-3.878500 0.811400
-3.865200 0.775800
-3.851800 0.771200
-3.838400 0.771200
-3.825100 0.771200
-3.811700 0.771200
-3.798300 0.771200
-3.784900 0.771200
-3.771600 0.771200
-3.758200 0.771200
-3.744800 0.771200
-3.731500 0.771200
-3.718100 0.771200
-3.704700 0.771200
-3.691300 1.620200
-3.678000 2.313300
-3.664600 2.313300
-3.651200 2.313200
-3.637900 2.313200
-3.624500 2.358200
-3.611100 3.052200
-3.597700 3.418900
-3.584400 5.587000
-3.571000 5.548300
-3.557600 5.768900
-3.544300 6.122000
-3.530900 6.489700
-3.517500 6.872100
-3.504100 7.484300
-3.490800 7.988100
-3.477400 7.691500
-3.464000 7.462300
-3.450700 7.268700
-3.437300 7.020200
-3.423900 6.717000
-3.410500 6.359000
-3.397200 5.954500
-3.383800 5.559300
-3.370400 5.183800
-3.357100 4.827900
-3.343700 4.516700
-3.330300 4.349200
-3.316900 4.172100
-3.303600 4.005500
-3.290200 3.849500
-3.276800 3.704100
-3.263500 3.569200
-3.250100 3.445000
-3.236700 3.331300
-3.223300 3.228200
-3.210000 3.135600
-3.196600 3.053900
-3.183200 2.991900
-3.169900 2.954300
-3.156500 2.941200
-3.143100 2.941200
-3.129700 2.941200
-3.116400 2.941200
-3.103000 2.941200
-3.089600 2.941200
-3.076300 4.428900
-3.062900 12.691400
-3.049500 13.816400
-3.036100 7.752800
-3.022800 8.249800
-3.009400 7.866700
-2.996000 7.152700
-2.982700 6.491300
-2.969300 5.882500
-2.955900 5.326200
-2.942500 4.822400
-2.929200 4.355600
-2.915800 3.895300
-2.902400 3.335700
-2.889100 2.718000
-2.875700 2.245100
-2.862300 1.917100
-2.848900 1.723100
-2.835600 1.584100
-2.822200 1.483800
-2.808800 1.422400
-2.795500 1.399900
-2.782100 1.399800
-2.768700 1.399800
-2.755300 1.399800
-2.742000 1.399800
-2.728600 1.399800
-2.715200 1.399800
-2.701900 1.399800
-2.688500 1.399800
-2.675100 1.399800
-2.661700 1.399800
-2.648400 1.399800
-2.635000 1.399800
-2.621600 1.399800
-2.608300 1.399800
-2.594900 1.399800
-2.581500 1.399800
-2.568100 1.399700
-2.554800 1.399700
-2.541400 1.399700
-2.528000 1.399700
-2.514600 1.399700
-2.501300 1.399700
-2.487900 1.399700
-2.474500 1.399700
-2.461200 1.399700
-2.447800 1.399700
-2.434400 1.399700
-2.421000 1.399700
-2.407700 1.399700
-2.394300 1.399700
-2.380900 1.496300
-2.367600 1.880900
-2.354200 3.483500
-2.340800 5.941300
-2.327400 7.107200
-2.314100 7.680500
-2.300700 5.761700
-2.287300 5.417400
-2.274000 5.050100
-2.260600 4.707500
-2.247200 4.389400
-2.233800 4.096000
-2.220500 3.827200
-2.207100 3.582600
-2.193700 3.352100
-2.180400 3.131600
-2.167000 2.920900
-2.153600 2.720100
-2.140200 2.529200
-2.126900 2.348200
-2.113500 2.176900
-2.100100 2.008000
-2.086800 1.836300
-2.073400 1.661700
-2.060000 1.484400
-2.046600 1.304200
-2.033300 1.121200
-2.019900 0.740600
-2.006500 0.645900
-1.993200 0.614100
-1.979800 0.613100
-1.966400 0.613100
-1.953000 0.613100
-1.939700 0.613100
-1.926300 0.625300
-1.912900 0.681600
-1.899600 0.794700
-1.886200 0.899700
-1.872800 0.977800
-1.859400 1.056600
-1.846100 1.145500
-1.832700 1.249400
-1.819300 1.368300
-1.806000 1.431600
-1.792600 1.431200
-1.779200 1.430900
-1.765800 1.430600
-1.752500 1.430300
-1.739100 1.429900
-1.725700 1.429600
-1.712400 1.429400
-1.699000 1.429100
-1.685600 1.428800
-1.672200 1.428500
-1.658900 1.428300
-1.645500 1.428000
-1.632100 1.427800
-1.618800 1.427600
-1.605400 1.427400
-1.592000 1.427200
-1.578600 1.427000
-1.565300 1.426800
-1.551900 1.426600
-1.538500 1.426400
-1.525200 1.426300
-1.511800 1.426100
-1.498400 1.426000
-1.485000 1.425800
-1.471700 1.425700
-1.458300 1.425600
-1.444900 1.425500
-1.431600 1.425400
-1.418200 1.425300
-1.404800 1.425300
-1.391400 1.425200
-1.378100 1.425100
-1.364700 1.425100
-1.351300 1.425000
-1.338000 1.425000
-1.324600 1.425000
-1.311200 1.425000
-1.297800 1.425000
-1.284500 1.425000
-1.271100 1.425000
-1.257700 1.425000
-1.244400 1.425100
-1.231000 1.451600
-1.217600 1.307500
-1.204200 1.358200
-1.190900 1.512800
-1.177500 1.782100
-1.164100 2.323900
-1.150800 2.677700
-1.137400 2.886400
-1.124000 3.081300
-1.110600 3.301900
-1.097300 3.560700
-1.083900 3.860800
-1.070500 4.230200
-1.057200 4.686400
-1.043800 5.191200
-1.030400 5.736300
-1.017000 6.321900
-1.003700 6.631100
-0.990300 6.953200
-0.976900 7.311700
-0.963600 7.780000
-0.950200 8.392500
-0.936800 6.491200
-0.923400 3.466100
-0.910100 2.138300
-0.896700 2.412400
-0.883300 2.720600
-0.870000 3.445100
-0.856600 5.648800
-0.843200 6.441900
-0.829800 6.884000
-0.816500 7.251000
-0.803100 7.542900
-0.789700 7.663700
-0.776400 7.607100
-0.763000 7.588100
-0.749600 7.604900
-0.736200 9.227900
-0.722900 10.019600
-0.709500 10.271100
-0.696100 9.985500
-0.682800 9.550600
-0.669400 8.878500
-0.656000 7.979700
-0.642600 7.461300
-0.629300 7.134500
-0.615900 6.938700
-0.602500 6.873800
-0.589200 6.866000
-0.575800 6.858500
-0.562400 6.849800
-0.549000 6.839800
-0.535700 6.828500
-0.522300 6.816000
-0.508900 6.787200
-0.495600 6.635900
-0.482200 6.341600
-0.468800 5.825300
-0.455400 5.034500
-0.442100 4.221700
-0.428700 3.387000
-0.415300 2.931600
-0.402000 4.591500
-0.388600 8.068800
-0.375200 13.651800
-0.361800 14.687400
-0.348500 12.190000
-0.335100 9.120900
-0.321700 7.653600
-0.308300 6.909700
-0.295000 6.323700
-0.281600 5.895300
-0.268200 5.567500
-0.254900 5.250400
-0.241500 4.930700
-0.228100 4.607700
-0.214700 4.281500
-0.201400 3.952100
-0.188000 4.879500
-0.174600 7.201600
-0.161300 8.569100
-0.147900 10.620500
-0.134500 14.011500
-0.121100 13.862600
-0.107800 11.980400
-0.094400 11.638900
-0.081000 12.114400
-0.067700 9.895800
-0.054300 7.946800
-0.040900 6.573800
-0.027500 5.936600
-0.014200 5.853400
-0.000800 5.844900
0.012600 5.816500
0.025900 5.755800
0.039300 5.833000
0.052700 6.222500
0.066100 6.749400
0.079400 6.961900
0.092800 7.018300
0.106200 6.956400
0.119500 6.887800
0.132900 6.820100
0.146300 6.753500
0.159700 6.694700
0.173000 6.645400
0.186400 6.605800
0.199800 6.574600
0.213100 6.545600
0.226500 6.518000
0.239900 6.491700
0.253300 6.460700
0.266600 6.422700
0.280000 6.358400
0.293400 6.266600
0.306700 6.171300
0.320100 6.078600
0.333500 5.988300
0.346900 5.900400
0.360200 5.815100
0.373600 5.732300
0.387000 5.656600
0.400300 5.586000
0.413700 5.510600
0.427100 5.429200
0.440500 5.341700
0.453800 5.447700
0.467200 5.685900
0.480600 6.101200
0.493900 6.567100
0.507300 7.051200
0.520700 7.537000
0.534100 7.893000
0.547400 8.023900
0.560800 7.996200
0.574200 7.955000
0.587500 7.913400
0.600900 7.871400
0.614300 7.829000
0.627700 7.774600
0.641000 7.731800
0.654400 7.706400
0.667800 7.684400
0.681100 7.713600
0.694500 7.717900
0.707900 7.511600
0.721300 7.375300
0.734600 7.245400
0.748000 7.498300
0.761400 7.752000
0.774700 8.007700
0.788100 8.094200
0.801500 8.098600
0.814900 8.044200
0.828200 8.007600
0.841600 8.033000
0.855000 8.160700
0.868300 8.446800
0.881700 8.730500
0.895100 9.004800
0.908500 9.272900
0.921800 9.457700
0.935200 9.547100
0.948600 9.616900
0.961900 9.656000
0.975300 9.677400
0.988700 9.681000
1.002100 9.666800
1.015400 9.617900
1.028800 9.545000
1.042200 9.454400
1.055500 9.335800
1.068900 9.183600
1.082300 9.020600
1.095700 8.873400
1.109000 8.730400
1.122400 8.596800
1.135800 8.434700
1.149100 8.142300
1.162500 7.940400
1.175900 7.744900
1.189300 7.592500
1.202600 7.447300
1.216000 7.302700
1.229400 7.107800
1.242700 7.109300
1.256100 7.166200
1.269500 7.206200
1.282900 7.240300
1.296200 7.571700
1.309600 7.967800
1.323000 8.394500
1.336300 8.877800
1.349700 9.164100
1.363100 9.023200
1.376500 8.856000
1.389800 8.672700
1.403200 8.893800
1.416600 9.979500
1.429900 10.871500
1.443300 11.290200
1.456700 11.133500
1.470100 11.001000
1.483400 11.105300
1.496800 12.654600
1.510200 13.194300
1.523500 13.058200
1.536900 12.733200
1.550300 12.126100
1.563700 11.644800
1.577000 11.406000
1.590400 11.232400
1.603800 11.074400
1.617100 10.932200
1.630500 10.753000
1.643900 10.561200
1.657300 10.370500
1.670600 10.201800
1.684000 10.030100
1.697400 9.872000
1.710700 9.698900
1.724100 9.558100
1.737500 9.426600
1.750900 9.280900
1.764200 9.109200
1.777600 8.937600
1.791000 8.863200
1.804400 8.845900
1.817700 8.813900
1.831100 8.862200
1.844500 8.781700
1.857800 8.739700
1.871200 8.717900
1.884600 8.723200
1.898000 8.749000
1.911300 8.784300
1.924700 8.901400
1.938100 9.082400
1.951400 9.289400
1.964800 9.540100
1.978200 9.802400
1.991600 10.064000
2.004900 10.323600
2.018300 10.599200
2.031700 10.889600
2.045000 11.194800
2.058400 11.514900
2.071800 13.435300
2.085200 16.637800
2.098500 32.498100
2.111900 9.534900
2.125300 9.632700
2.138600 9.935000
2.152000 9.802500
2.165400 9.690500
2.178800 9.592400
2.192100 9.490700
2.205500 9.382900
2.218900 9.260000
2.232200 9.070700
2.245600 8.754000
2.259000 8.511400
2.272400 8.188800
2.285700 7.602900
2.299100 7.037600
2.312500 6.672700
2.325800 6.477900
2.339200 6.391400
2.352600 6.318700
2.366000 6.236900
2.379300 6.146200
2.392700 6.046400
2.406100 5.937600
2.419400 5.795400
2.432800 5.585100
2.446200 5.517000
2.459600 5.311000
2.472900 5.103900
2.486300 4.910500
2.499700 4.727500
2.513000 4.540000
2.526400 4.347800
2.539800 4.149200
2.553200 3.940100
2.566500 3.719600
2.579900 3.470100
2.593300 3.255700
2.606600 3.063000
2.620000 2.891800
2.633400 2.742300
2.646800 2.610400
2.660100 2.484000
2.673500 2.301900
2.686900 2.101400
2.700200 1.905700
2.713600 1.722400
2.727000 1.551500
2.740400 1.393100
2.753700 1.247100
2.767100 1.113500
2.780500 0.994400
2.793800 0.921000
2.807200 0.850800
2.820600 0.783000
2.834000 0.717600
2.847300 0.654600
2.860700 0.594000
2.874100 0.534200
2.887400 0.474400
2.900800 0.414500
2.914200 0.354500
2.927600 0.294400
2.940900 0.234200
2.954300 0.173900
2.967700 0.113600
2.981000 0.053200
2.994400 0.011400
3.007800 0.000000
3.021200 0.000000
3.034500 0.000000
3.047900 0.000000
3.061300 0.000000
3.074600 0.000000
3.088000 0.000000
3.101400 0.000000
3.114800 0.000000
3.128100 0.000000
3.141500 0.000000
3.154900 0.000000
3.168200 0.000000
3.181600 0.000000
3.195000 0.000000
3.208400 0.000000
3.221700 0.000000
3.235100 0.000000
3.248500 0.000000
3.261800 0.000000
3.275200 0.000000
3.288600 0.000000
3.302000 0.000000
3.315300 0.000000
3.328700 0.000000
3.342100 0.000000
3.355400 0.000000
3.368800 0.000000
3.382200 0.000000
3.395600 0.000000
3.408900 0.000000
3.422300 0.000000
3.435700 0.000000
3.449000 0.000000
3.462400 0.000000
3.475800 0.000000
3.489200 0.000000
3.502500 0.000000
3.515900 0.000000
3.529300 0.000000
3.542600 0.000000
3.556000 0.000000
3.569400 0.000000
3.582800 0.000000
3.596100 0.000000
3.609500 0.000000
3.622900 0.000000
3.636200 0.000000
3.649600 0.000000
3.663000 0.000000
3.676400 0.000000
3.689700 0.000000
3.703100 0.000000
3.716500 0.000000
3.729800 0.000000
3.743200 0.000000
3.756600 0.000000
3.770000 0.000000
3.783300 0.000000
3.796700 0.000000
3.810100 0.000000
3.823400 0.000000
3.836800 0.000000
3.850200 0.000000
3.863600 0.000000
3.876900 0.000000
3.890300 0.000000
3.903700 0.000000
3.917000 0.000000
3.930400 0.000000
3.943800 0.000000
3.957200 0.000000
3.970500 0.000000
3.983900 0.000000
3.997300 0.000000
4.010700 0.000000
4.024000 0.000000
4.037400 0.000000
4.050800 0.000000
4.064100 0.000000
4.077500 0.000000
4.090900 0.000000
4.104300 0.000000
4.117600 0.000000
4.131000 0.000000
4.144400 0.000000
4.157700 0.000000
4.171100 0.000000
4.184500 0.000000
4.197900 0.000000
4.211200 0.000000
4.224600 0.000000
4.238000 0.000000
4.251300 0.000000
4.264700 0.000000
4.278100 0.000000
4.291500 0.000000
4.304800 0.000000
4.318200 0.000000
4.331600 0.000000
4.344900 0.000000
4.358300 0.000000
4.371700 0.000000
4.385100 0.000000
4.398400 0.000000
4.411800 0.000000
4.425200 0.000000
4.438500 0.000000
4.451900 0.000000
4.465300 0.000000
4.478700 0.000000
4.492000 0.000100
4.505400 0.013300
4.518800 0.049200
4.532100 0.107800
4.545500 0.189000
4.558900 0.293000
4.572300 0.474200
4.585600 0.787300
4.599000 1.239700
4.612400 1.799100
4.625700 3.258500
4.639100 3.594200
4.652500 3.176800
4.665900 2.789600
4.679200 2.621800
4.692600 2.688500
4.706000 2.891500
4.719300 3.068800
4.732700 3.259700
4.746100 3.464400
4.759500 3.682800
4.772800 3.915000
4.786200 4.160900
4.799600 4.420500
4.812900 5.250800
4.826300 6.864200
4.839700 7.614200
4.853100 7.952100
4.866400 8.799100
4.879800 9.670900
4.893200 9.908800
4.906500 9.546300
4.919900 9.384800
4.933300 9.700800
4.946700 10.315100
4.960000 10.936000
4.973400 11.004600
4.986800 11.102500
5.000100 11.322900
5.013500 10.923800
5.026900 9.966800
5.040300 9.742900
5.053600 10.165300
5.067000 9.318200
5.080400 7.294400
5.093700 6.501300
5.107100 6.311300
5.120500 6.182200
5.133900 6.238900
5.147200 6.395800
5.160600 6.412700
5.174000 6.320900
5.187300 6.258800
5.200700 6.260300
5.214100 6.298800
5.227500 6.325900
5.240800 6.415700
5.254200 6.452000
5.267600 6.518000
5.280900 6.599100
5.294300 6.721200
5.307700 6.881500
5.321100 7.043600
5.334400 7.222300
5.347800 7.392800
5.361200 7.545400
5.374500 7.668700
5.387900 7.776600
5.401300 7.877700
5.414700 7.971800
5.428000 8.059000
5.441400 8.139400
5.454800 8.194900
5.468100 8.353600
5.481500 8.611500
5.494900 8.925000
5.508300 9.157000
5.521600 9.292000
5.535000 9.406900
5.548400 8.651100
5.561700 8.288100
5.575100 7.828800
5.588500 7.604000
5.601900 7.462900
5.615200 7.448700
5.628600 7.648700
5.642000 7.966700
5.655300 8.408700
5.668700 8.963500
5.682100 9.524500
5.695500 9.975800
5.708800 9.910100
5.722200 9.888400
5.735600 9.842700
5.748900 9.770600
5.762300 9.799800
5.775700 9.803200
5.789100 9.921200
5.802400 10.029800
5.815800 10.066200
5.829200 10.078900
5.842500 10.023700
5.855900 9.969000
5.869300 9.929400
5.882700 9.865300
5.896000 9.483600
5.909400 9.186300
5.922800 8.998200
5.936100 8.719700
5.949500 8.855100
5.962900 8.897000
5.976300 8.818100
5.989600 8.706600
6.003000 8.773800
6.016400 8.747000
6.029700 8.705400
6.043100 8.648800
6.056500 8.563200
6.069900 8.454200
6.083200 8.331500
6.096600 8.211800
6.110000 8.096200
6.123400 8.016400
6.136700 7.930800
6.150100 7.881300
6.163500 7.958900
6.176800 8.552300
6.190200 9.060900
6.203600 9.525100
6.217000 9.893600
6.230300 10.149400
6.243700 10.308100
6.257100 10.392800
6.270400 10.327600
6.283800 10.271900
6.297200 10.244300
6.310600 10.194000
6.323900 9.944300
6.337300 9.973000
6.350700 9.999300
6.364000 10.039800
6.377400 10.116400
6.390800 10.267600
6.404200 10.319400
6.417500 10.100400
6.430900 10.299300
6.444300 10.448700
6.457600 10.548700
6.471000 10.544000
6.484400 10.347400
6.497800 10.122700
6.511100 9.923900
6.524500 9.703300
6.537900 9.474100
6.551200 9.245000
6.564600 9.035800
6.578000 8.620400
6.591400 8.682700
6.604700 8.768200
6.618100 8.858400
6.631500 8.596600
6.644800 7.994700
6.658200 7.833300
6.671600 7.859500
6.685000 7.960300
6.698300 8.005400
6.711700 8.065100
6.725100 8.113400
6.738400 8.152200
6.751800 8.196300
6.765200 8.250100
6.778600 8.322500
6.791900 8.414500
6.805300 8.359900
6.818700 8.005200
6.832000 6.872300
6.845400 6.689500
6.858800 6.720600
6.872200 7.020800
6.885500 7.461500
6.898900 7.991400
6.912300 8.607900
6.925600 9.261100
6.939000 9.902000
6.952400 10.407600
6.965800 10.899900
6.979100 11.074300
6.992500 12.507200
7.005900 10.143500
7.019200 9.825200
7.032600 10.163600
7.046000 10.424400
7.059400 10.607800
7.072700 10.713600
7.086100 10.746200
7.099500 10.753800
7.112800 10.721000
7.126200 10.465800
7.139600 10.082600
7.153000 9.572900
7.166300 8.937300
7.179700 8.256900
7.193100 7.522100
7.206400 7.150900
7.219800 6.985300
7.233200 6.840300
7.246600 6.722300
7.259900 6.761100
7.273300 6.808900
7.286700 6.867000
7.300000 6.966500
7.313400 7.098400
7.326800 7.310100
7.340200 7.645700
7.353500 7.944000
7.366900 8.185000
7.380300 8.350500
7.393600 8.932800
7.407000 9.376600
7.420400 9.593400
7.433800 9.316500
7.447100 8.991000
7.460500 8.637000
7.473900 8.287200
7.487200 8.235600
7.500600 8.029400
7.514000 7.758800
7.527400 7.359800
7.540700 7.002500
7.554100 6.722300
7.567500 6.806100
7.580800 6.914400
7.594200 6.998600
7.607600 7.083500
7.621000 7.189900
7.634300 7.195500
7.647700 7.265200
7.661100 7.335300
7.674400 7.375900
7.687800 7.487500
7.701200 7.437100
7.714600 7.165600
7.727900 6.794000
7.741300 6.331900
7.754700 5.794000
7.768000 4.526600
7.781400 3.118000
7.794800 2.876400
7.808200 2.732900
7.821500 2.597900
7.834900 2.471600
7.848300 2.354000
7.861600 2.250400
7.875000 2.174700
7.888400 2.127600
7.901800 2.114200
7.915100 2.138600
7.928500 2.200600
7.941900 2.300400
7.955200 2.400500
7.968600 2.482500
7.982000 2.916500
7.995400 3.953200
8.008700 5.136100
8.022100 6.017800
8.035500 7.029600
8.048800 8.171500
8.062200 9.422600
8.075600 10.749000
8.089000 9.762300
8.102300 9.559700
8.115700 9.350000
8.129100 9.125300
8.142400 8.856900
8.155800 8.549400
8.169200 8.162200
8.182600 7.769600
8.195900 8.002400
8.209300 8.470900
8.222700 8.786400
8.236000 8.696000
8.249400 8.691100
8.262800 8.652700
8.276200 8.428400
8.289500 8.189100
8.302900 8.022100
8.316300 7.853400
8.329700 7.679500
8.343000 7.810500
8.356400 8.017700
8.369800 8.262700
8.383100 8.568000
8.396500 8.850500
8.409900 8.950300
8.423300 8.830700
8.436600 8.467100
8.450000 8.091800
8.463400 8.110500
8.476700 8.296600
8.490100 8.457200
8.503500 8.563400
8.516900 8.616900
8.530200 8.680700
8.543600 8.755000
8.557000 8.677300
8.570300 8.513500
8.583700 8.518900
8.597100 8.224800
8.610500 7.974400
8.623800 7.767900
8.637200 7.603300
8.650600 7.457800
8.663900 7.318700
8.677300 6.803100
8.690700 6.476900
8.704100 6.518700
8.717400 6.753700
8.730800 7.954500
8.744200 10.195300
8.757500 12.670400
8.770900 14.346500
8.784300 15.038200
8.797700 12.363300
8.811000 11.586800
8.824400 10.865300
8.837800 10.217300
8.851100 9.642700
8.864500 9.143100
8.877900 8.931400
8.891300 9.136400
8.904600 9.684300
8.918000 10.180300
8.931400 10.522300
8.944700 10.944300
8.958100 11.351000
8.971500 11.660400
8.984900 11.997800
8.998200 12.499600
9.011600 13.031000
9.025000 12.018800
9.038300 9.914400
9.051700 7.878600
9.065100 6.472200
9.078500 5.674600
9.091800 5.469300
9.105200 5.155900
9.118600 4.858600
9.131900 4.632300
9.145300 4.506800
9.158700 4.591400
9.172100 4.991300
9.185400 5.392900
9.198800 5.798200
9.212200 6.207100
9.225500 6.619600
9.238900 7.035700
9.252300 7.427000
9.265700 7.821400
9.279000 8.244100
9.292400 8.693700
9.305800 9.484400
9.319100 9.639900
9.332500 10.036700
9.345900 10.307100
9.359300 10.340200
9.372600 10.258600
9.386000 9.798900
9.399400 9.132800
9.412700 8.281300
9.426100 7.244400
9.439500 6.173200
9.452900 5.978000
9.466200 5.992100
9.479600 6.473000
9.493000 8.197800
9.506300 8.876900
9.519700 8.508300
9.533100 8.529600
9.546500 8.727300
9.559800 8.825600
9.573200 8.699600
9.586600 8.231700
9.599900 7.649900
9.613300 7.142400
9.626700 6.709100
9.640100 6.998100
9.653400 7.331800
9.666800 7.165100
9.680200 7.186500
9.693500 7.216300
9.706900 7.247200
9.720300 7.279400
9.733700 7.307400
9.747000 7.309100
9.760400 7.281500
9.773800 7.222000
9.787100 7.130200
9.800500 7.006000
9.813900 6.913400
9.827300 6.952600
9.840600 7.124900
9.854000 7.430300
9.867400 8.877600
9.880700 6.581600
9.894100 6.405900
9.907500 6.311000
9.920900 6.430900
9.934200 7.526100
9.947600 7.662500
9.961000 7.162000
9.974300 7.364600
9.987700 7.577400
10.001100 7.801300
10.014500 7.895400
10.027800 7.739800
10.041200 7.850400
10.054600 7.987300
10.067900 8.069400
10.081300 8.095900
10.094700 7.701200
10.108100 7.362900
10.121400 7.039700
10.134800 6.713000
10.148200 6.382800
10.161500 6.286600
10.174900 6.155300
10.188300 6.011100
10.201700 5.912300
10.215000 5.832500
10.228400 5.718600
10.241800 5.663400
10.255100 5.658000
10.268500 5.702300
10.281900 5.754000
10.295300 5.809300
10.308600 5.648600
10.322000 5.825100
10.335400 6.050500
10.348700 6.466500
10.362100 7.067300
10.375500 7.852800
10.388900 8.845300
10.402200 8.513600
10.415600 8.068000
10.429000 7.976200
10.442400 7.820500
10.455700 7.613200
10.469100 7.426900
10.482500 7.273400
10.495800 7.296000
10.509200 7.473400
10.522600 7.702600
10.536000 7.908300
10.549300 8.242300
10.562700 8.511000
10.576100 8.578300
10.589400 8.543000
10.602800 8.443600
10.616200 8.291600
10.629600 8.235400
10.642900 8.186300
10.656300 8.125600
10.669700 8.053300
10.683000 7.969400
10.696400 7.873900
10.709800 7.766800
10.723200 7.646900
10.736500 7.501000
10.749900 7.264600
10.763300 7.050400
10.776600 6.909100
10.790000 6.880000
10.803400 6.966200
10.816800 7.082700
10.830100 7.186300
10.843500 7.246700
10.856900 7.280600
10.870200 7.293400
10.883600 7.291700
10.897000 7.233900
10.910400 7.342400
10.923700 7.538600
10.937100 7.558200
10.950500 7.338100
10.963800 7.040000
10.977200 7.046900
10.990600 6.990500
11.004000 6.848500
11.017300 6.647800
11.030700 6.678200
11.044100 6.713700
11.057400 6.849600
11.070800 6.991300
11.084200 7.186500
11.097600 7.424000
11.110900 7.762000
11.124300 8.194200
11.137700 8.675300
11.151000 9.160500
11.164400 9.448100
11.177800 9.671600
11.191200 9.791000
11.204500 9.807400
11.217900 9.721300
11.231300 9.577300
11.244600 9.539700
11.258000 9.552400
11.271400 9.652100
11.284800 9.899100
11.298100 10.153500
11.311500 10.425800
11.324900 10.583300
11.338200 10.591700
11.351600 10.585700
11.365000 10.895000
11.378400 11.388300
11.391700 11.249500
11.405100 9.836700
11.418500 8.969300
11.431800 8.456300
11.445200 8.105500
11.458600 7.797200
11.472000 7.584800
11.485300 7.434900
11.498700 7.311700
11.512100 7.215400
11.525400 7.145900
11.538800 7.102400
11.552200 7.159400
11.565600 7.516000
11.578900 8.191300
11.592300 9.159100
11.605700 9.113800
11.619000 8.812600
11.632400 8.624900
11.645800 8.450200
11.659200 8.325200
11.672500 8.225900
11.685900 8.152400
11.699300 8.107800
11.712600 8.105600
11.726000 8.144600
11.739400 8.210400
11.752800 8.306900
11.766100 8.434100
11.779500 8.505900
11.792900 8.577600
11.806200 8.649700
11.819600 8.722900
11.833000 8.801900
11.846400 8.887300
11.859700 8.969700
11.873100 9.030900
11.886500 9.090200
11.899800 9.118700
11.913200 9.122900
11.926600 9.092700
11.940000 9.029700
11.953300 8.976300
11.966700 8.962800
11.980100 9.030100
11.993400 9.220100
12.006800 9.399800
12.020200 9.596700
12.033600 11.443400
12.046900 11.549700
12.060300 11.417200
12.073700 11.338800
12.087000 11.232800
12.100400 10.879600
12.113800 10.075900
12.127200 9.363300
12.140500 8.757500
12.153900 8.645700
12.167300 10.674500
12.180600 10.678100
12.194000 10.636100
12.207400 10.402500
12.220800 10.135700
12.234100 9.952400
12.247500 10.009500
12.260900 10.411600
12.274200 7.918000
12.287600 7.099700
12.301000 6.475400
12.314400 6.040400
12.327700 5.834800
12.341100 6.312100
12.354500 8.283100
12.367800 8.351100
12.381200 10.251600
12.394600 11.203100
12.408000 11.199100
12.421300 10.885600
12.434700 10.493900
12.448100 9.919900
12.461400 9.144100
12.474800 8.265000
12.488200 7.487600
12.501600 6.524500
12.514900 6.927200
12.528300 7.563200
12.541700 8.158500
12.555000 8.697200
12.568400 8.660200
12.581800 8.571400
12.595200 8.502900
12.608500 8.427200
12.621900 8.265900
12.635300 8.118000
12.648700 7.966200
12.662000 7.784700
12.675400 7.559300
12.688800 7.297000
12.702100 6.997800
12.715500 6.669900
12.728900 6.311200
12.742300 5.907800
12.755600 5.466200
12.769000 4.904200
12.782400 4.381700
12.795700 4.031000
12.809100 3.924900
12.822500 4.274400
12.835900 4.928900
12.849200 5.527800
12.862600 6.070900
12.876000 6.558400
12.889300 7.039900
12.902700 7.485000
12.916100 7.896400
12.929500 8.249900
12.942800 8.464600
12.956200 8.727900
12.969600 8.888800
12.982900 8.923500
12.996300 8.832100
13.009700 8.642900
13.023100 8.397100
13.036400 8.053200
13.049800 7.716400
13.063200 7.329700
13.076500 6.893000
13.089900 6.394000
13.103300 5.825000
13.116700 5.225600
13.130000 5.057000
13.143400 5.246100
13.156800 5.480400
13.170100 5.753900
13.183500 6.136900
13.196900 6.674200
13.210300 7.304300
13.223600 7.850500
13.237000 8.369500
13.250400 8.629500
13.263700 8.715900
13.277100 8.808400
13.290500 8.880300
13.303900 8.938500
13.317200 8.982900
13.330600 9.013700
13.344000 9.047600
13.357300 9.103600
13.370700 9.153700
13.384100 9.327200
13.397500 9.774700
13.410800 9.770800
13.424200 9.200900
13.437600 7.429100
13.450900 7.125900
13.464300 6.926100
13.477700 6.834900
13.491100 6.986100
13.504400 7.411800
13.517800 8.086900
13.531200 8.986000
13.544500 9.278100
13.557900 8.795100
13.571300 7.797900
13.584700 6.641600
13.598000 5.788800
13.611400 5.558600
13.624800 5.350700
13.638100 5.165100
13.651500 5.001800
13.664900 4.860700
13.678300 4.640200
13.691600 4.352500
13.705000 4.010500
13.718400 3.627900
13.731700 3.541200
13.745100 3.519300
13.758500 3.498700
13.771900 3.476300
13.785200 3.403100
13.798600 3.299100
13.812000 3.193000
13.825300 3.088400
13.838700 2.985500
13.852100 2.884100
13.865500 2.784300
13.878800 2.686200
13.892200 2.589600
13.905600 2.494600
13.918900 2.402300
13.932300 2.349000
13.945700 2.313900
13.959100 2.295600
13.972400 2.292800
13.985800 2.294200
13.999200 2.295800
14.012500 2.297300
14.025900 2.298900
14.039300 2.291800
14.052700 1.948700
14.066000 1.766900
14.079400 1.689400
14.092800 1.620100
14.106100 1.559000
14.119500 1.506100
14.132900 1.460600
14.146300 1.418700
14.159600 1.379700
14.173000 1.343700
14.186400 1.310600
14.199700 1.280500
14.213100 1.253300
14.226500 1.229000
14.239900 1.207700
14.253200 1.160500
14.266600 1.079000
14.280000 0.991000
14.293300 0.896600
14.306700 0.795800
14.320100 0.688600
14.333500 0.574900
14.346800 0.469500
14.360200 0.398400
14.373600 0.329100
14.386900 0.261600
14.400300 0.200000
14.413700 0.146800
14.427100 0.102000
14.440400 0.065700
14.453800 0.037700
14.467200 0.018300
14.480500 0.007200
14.493900 0.002000
14.507300 0.000000
14.520700 0.000000
14.534000 0.000000
14.547400 0.000000
14.560800 0.000000
14.574100 0.000000
14.587500 0.000000
14.600900 0.000000
14.614300 0.000000
14.627600 0.000000
14.641000 0.000000
14.654400 0.000000
14.667700 0.000000
14.681100 0.000000
14.694500 0.000000
14.707900 0.000000
14.721200 0.000000
14.734600 0.000000
14.748000 0.000000
14.761400 0.000000
14.774700 0.000000
14.788100 0.000000
14.801500 0.000000
14.814800 0.000000
14.828200 0.000000
14.841600 0.000000
14.855000 0.000000
14.868300 0.000000
14.881700 0.000000
14.895100 0.000000
14.908400 0.000000
14.921800 0.000000
14.935200 0.000000
14.948600 0.000000
14.961900 0.000000
14.975300 0.000000
14.988700 0.000000
15.002000 0.000000
15.015400 0.000000
15.028800 0.000000
15.042200 0.000000
15.055500 0.000000
15.068900 0.000000
15.082300 0.000000
15.095600 0.000000
15.109000 0.000000
15.122400 0.000000
15.135800 0.000000
15.149100 0.000000
15.162500 0.000000
15.175900 0.000000
15.189200 0.000000
15.202600 0.000000
15.216000 0.000000
15.229400 0.000000
15.242700 0.000000
15.256100 0.000000
15.269500 0.000000
15.282800 0.000000
15.296200 0.000000
15.309600 0.000000
15.323000 0.000000
15.336300 0.000000
15.349700 0.000000
15.363100 0.000000
15.376400 0.000000
15.389800 0.000000
15.403200 0.000000
15.416600 0.000000
15.429900 0.000000
15.443300 0.000000
15.456700 0.000000
15.470000 0.000000
15.483400 0.000000
15.496800 0.000000
15.510200 0.000000
15.523500 0.000000
15.536900 0.000000
15.550300 0.000000
15.563600 0.000000
15.577000 0.000000
15.590400 0.000000
15.603800 0.000000
15.617100 0.000000
15.630500 0.000000
15.643900 0.000000
15.657200 0.000000
15.670600 0.000000
15.684000 0.000000
15.697400 0.000000
15.710700 0.000000
15.724100 0.000000
e
