set title 'mp-1299 - Density of States'
set xlabel 'Energy (eV)'
set ylabel 'DOS (states/eV)'
set grid
set xrange [-10:10]
set yrange [0:7.872]
set xzeroaxis lt -1
set terminal png size 800,600
set output 'mp-1299_dos_gnuplot.png'
plot '-' using 1:2 with lines title 'DOS'
-5.336200 0.000000
-5.322400 0.000000
-5.308600 0.000000
-5.294800 0.000000
-5.281100 0.000000
-5.267300 0.000000
-5.253500 0.000000
-5.239700 0.000000
-5.225900 0.000000
-5.212100 0.000000
-5.198300 0.000000
-5.184600 0.000000
-5.170800 0.000000
-5.157000 0.000000
-5.143200 0.000000
-5.129400 0.000000
-5.115600 0.000000
-5.101800 0.000000
-5.088100 0.000000
-5.074300 0.000000
-5.060500 0.000000
-5.046700 0.000000
-5.032900 0.000000
-5.019100 0.000000
-5.005300 0.000000
-4.991600 0.000000
-4.977800 0.000000
-4.964000 0.000000
-4.950200 0.000000
-4.936400 0.000000
-4.922600 0.000000
-4.908800 0.000000
-4.895100 0.000000
-4.881300 0.000000
-4.867500 0.000000
-4.853700 0.000000
-4.839900 0.000000
-4.826100 0.000000
-4.812300 0.000000
-4.798600 0.000000
-4.784800 0.000000
-4.771000 0.000000
-4.757200 0.000000
-4.743400 0.000000
-4.729600 0.000000
-4.715800 0.000000
-4.702100 0.000000
-4.688300 0.000000
-4.674500 0.000000
-4.660700 0.000000
-4.646900 0.000000
-4.633100 0.000000
-4.619400 0.000000
-4.605600 0.000000
-4.591800 0.000000
-4.578000 0.000000
-4.564200 0.000000
-4.550400 0.000000
-4.536600 0.000000
-4.522900 0.000000
-4.509100 0.000000
-4.495300 0.000000
-4.481500 0.000000
-4.467700 0.000000
-4.453900 0.000000
-4.440100 0.000000
-4.426400 0.000000
-4.412600 0.000000
-4.398800 0.000000
-4.385000 0.000000
-4.371200 0.000000
-4.357400 0.000000
-4.343600 0.000000
-4.329900 0.000000
-4.316100 0.000000
-4.302300 0.000000
-4.288500 0.000000
-4.274700 0.000000
-4.260900 0.000000
-4.247100 0.000000
-4.233400 0.000000
-4.219600 0.000000
-4.205800 0.000000
-4.192000 0.000000
-4.178200 0.000000
-4.164400 0.000000
-4.150600 0.000000
-4.136900 0.000000
-4.123100 0.000000
-4.109300 0.000000
-4.095500 0.000000
-4.081700 0.000000
-4.067900 0.005800
-4.054100 0.021400
-4.040400 0.046700
-4.026600 0.075700
-4.012800 0.068600
-3.999000 0.076200
-3.985200 0.084900
-3.971400 0.095000
-3.957600 0.106200
-3.943900 0.118000
-3.930100 0.126000
-3.916300 0.129600
-3.902500 0.130800
-3.888700 0.135100
-3.874900 0.140300
-3.861200 0.146000
-3.847400 0.151900
-3.833600 0.158000
-3.819800 0.164100
-3.806000 0.170700
-3.792200 0.177700
-3.778400 0.185300
-3.764700 0.188300
-3.750900 0.192000
-3.737100 0.196300
-3.723300 0.200300
-3.709500 0.204200
-3.695700 0.207700
-3.681900 0.211300
-3.668200 0.215200
-3.654400 0.219300
-3.640600 0.225400
-3.626800 0.230700
-3.613000 0.236200
-3.599200 0.241700
-3.585400 0.247300
-3.571700 0.253000
-3.557900 0.258100
-3.544100 0.262000
-3.530300 0.264800
-3.516500 0.267900
-3.502700 0.271400
-3.488900 0.275400
-3.475200 0.279700
-3.461400 0.284100
-3.447600 0.288700
-3.433800 0.293200
-3.420000 0.297700
-3.406200 0.302200
-3.392400 0.306800
-3.378700 0.311500
-3.364900 0.316300
-3.351100 0.321100
-3.337300 0.326000
-3.323500 0.331000
-3.309700 0.336000
-3.295900 0.341600
-3.282200 0.345800
-3.268400 0.350100
-3.254600 0.354400
-3.240800 0.358800
-3.227000 0.363200
-3.213200 0.367700
-3.199500 0.372400
-3.185700 0.377200
-3.171900 0.382100
-3.158100 0.386900
-3.144300 0.391800
-3.130500 0.396700
-3.116700 0.401600
-3.103000 0.406600
-3.089200 0.411800
-3.075400 0.417400
-3.061600 0.423100
-3.047800 0.429000
-3.034000 0.434800
-3.020200 0.440700
-3.006500 0.446600
-2.992700 0.452300
-2.978900 0.457600
-2.965100 0.463000
-2.951300 0.468500
-2.937500 0.474000
-2.923700 0.479800
-2.910000 0.485900
-2.896200 0.492000
-2.882400 0.497900
-2.868600 0.504800
-2.854800 0.511400
-2.841000 0.518100
-2.827200 0.525000
-2.813500 0.532000
-2.799700 0.539200
-2.785900 0.546400
-2.772100 0.553700
-2.758300 0.560900
-2.744500 0.568200
-2.730700 0.575600
-2.717000 0.583100
-2.703200 0.590600
-2.689400 0.598300
-2.675600 0.606300
-2.661800 0.614600
-2.648000 0.623300
-2.634200 0.632400
-2.620500 0.641800
-2.606700 0.651600
-2.592900 0.662000
-2.579100 0.672300
-2.565300 0.682800
-2.551500 0.693600
-2.537700 0.704500
-2.524000 0.715600
-2.510200 0.726900
-2.496400 0.738500
-2.482600 0.750400
-2.468800 0.762600
-2.455000 0.774900
-2.441300 0.787500
-2.427500 0.800200
-2.413700 0.814300
-2.399900 0.828200
-2.386100 0.842700
-2.372300 0.858100
-2.358500 0.876200
-2.344800 0.895000
-2.331000 0.914200
-2.317200 0.934000
-2.303400 0.955000
-2.289600 0.977400
-2.275800 1.002000
-2.262000 1.027300
-2.248300 1.053500
-2.234500 1.081400
-2.220700 1.112600
-2.206900 1.146200
-2.193100 1.183200
-2.179300 1.224300
-2.165500 1.269400
-2.151800 1.321500
-2.138000 1.400800
-2.124200 1.481700
-2.110400 1.578600
-2.096600 1.605700
-2.082800 1.616600
-2.069000 1.691200
-2.055300 1.670100
-2.041500 1.661300
-2.027700 1.661400
-2.013900 1.665500
-2.000100 1.678400
-1.986300 1.689500
-1.972500 1.687400
-1.958800 1.686800
-1.945000 1.681200
-1.931200 1.694300
-1.917400 1.695100
-1.903600 1.702800
-1.889800 1.721000
-1.876000 1.742600
-1.862300 1.751300
-1.848500 1.756000
-1.834700 1.768700
-1.820900 1.786700
-1.807100 1.796000
-1.793300 1.816600
-1.779600 1.833600
-1.765800 1.849500
-1.752000 1.874500
-1.738200 1.913400
-1.724400 1.944400
-1.710600 1.974700
-1.696800 2.009100
-1.683100 2.050000
-1.669300 2.159000
-1.655500 2.260700
-1.641700 2.429100
-1.627900 2.391900
-1.614100 2.276800
-1.600300 2.083200
-1.586600 2.263900
-1.572800 2.422800
-1.559000 1.363100
-1.545200 0.612900
-1.531400 0.250300
-1.517600 0.000000
-1.503800 0.000000
-1.490100 0.000000
-1.476300 0.000000
-1.462500 0.000000
-1.448700 0.000000
-1.434900 0.000000
-1.421100 0.000000
-1.407300 0.000000
-1.393600 0.000000
-1.379800 0.000000
-1.366000 0.000000
-1.352200 0.000000
-1.338400 0.000000
-1.324600 0.000000
-1.310800 0.000000
-1.297100 0.000000
-1.283300 0.000000
-1.269500 0.000000
-1.255700 0.000000
-1.241900 0.000000
-1.228100 0.000000
-1.214300 0.000000
-1.200600 0.000000
-1.186800 0.000000
-1.173000 0.000000
-1.159200 0.000000
-1.145400 0.000000
-1.131600 0.000000
-1.117800 0.000000
-1.104100 0.000000
-1.090300 0.000000
-1.076500 0.000000
-1.062700 0.000000
-1.048900 0.000000
-1.035100 0.000000
-1.021400 0.000000
-1.007600 0.000000
-0.993800 0.000000
-0.980000 0.000000
-0.966200 0.000000
-0.952400 0.000000
-0.938600 0.000000
-0.924900 0.000000
-0.911100 0.000000
-0.897300 0.000000
-0.883500 0.000000
-0.869700 0.000000
-0.855900 0.000000
-0.842100 0.000000
-0.828400 0.000000
-0.814600 0.000000
-0.800800 0.000000
-0.787000 0.000000
-0.773200 0.000000
-0.759400 0.000000
-0.745600 0.000000
-0.731900 0.000000
-0.718100 0.000000
-0.704300 0.000000
-0.690500 0.000000
-0.676700 0.000000
-0.662900 0.000000
-0.649100 0.000000
-0.635400 0.000000
-0.621600 0.000000
-0.607800 0.000000
-0.594000 0.000000
-0.580200 0.000000
-0.566400 0.000000
-0.552600 0.000000
-0.538900 0.000000
-0.525100 0.000000
-0.511300 0.000000
-0.497500 0.000000
-0.483700 0.000000
-0.469900 0.000000
-0.456100 0.000000
-0.442400 0.000000
-0.428600 0.000000
-0.414800 0.000000
-0.401000 0.000000
-0.387200 0.000000
-0.373400 0.000000
-0.359700 0.000000
-0.345900 0.000000
-0.332100 0.000000
-0.318300 0.001100
-0.304500 0.005900
-0.290700 0.014400
-0.276900 0.026600
-0.263200 0.042600
-0.249400 0.054200
-0.235600 0.053300
-0.221800 0.058200
-0.208000 0.063700
-0.194200 0.069800
-0.180400 0.076500
-0.166700 0.083800
-0.152900 0.091700
-0.139100 0.098700
-0.125300 0.104000
-0.111500 0.107600
-0.097700 0.109600
-0.083900 0.115200
-0.070200 0.120000
-0.056400 0.124900
-0.042600 0.130000
-0.028800 0.135200
-0.015000 0.140400
-0.001200 0.145800
0.012600 0.151300
0.026300 0.157100
0.040100 0.163200
0.053900 0.169100
0.067700 0.175500
0.081500 0.181300
0.095300 0.188100
0.109100 0.287700
0.122800 0.282100
0.136600 0.309200
0.150400 0.343400
0.164200 0.414100
0.178000 0.403500
0.191800 0.424200
0.205600 0.441300
0.219300 0.463100
0.233100 0.487500
0.246900 0.513500
0.260700 0.538600
0.274500 0.556800
0.288300 0.581000
0.302100 0.598500
0.315800 0.617900
0.329600 0.639500
0.343400 0.663100
0.357200 0.687700
0.371000 0.710100
0.384800 0.733300
0.398500 0.756700
0.412300 0.775700
0.426100 0.793100
0.439900 0.810000
0.453700 0.831900
0.467500 0.853200
0.481300 0.875500
0.495000 0.898600
0.508800 0.922700
0.522600 0.947600
0.536400 0.973500
0.550200 1.001100
0.564000 1.029000
0.577800 1.053900
0.591500 1.079900
0.605300 1.104200
0.619100 1.127700
0.632900 1.151100
0.646700 1.176300
0.660500 1.205600
0.674300 1.235100
0.688000 1.266300
0.701800 1.299500
0.715600 1.333400
0.729400 1.367300
0.743200 1.401600
0.757000 1.436400
0.770800 1.472100
0.784500 1.510000
0.798300 1.550300
0.812100 1.591700
0.825900 1.633800
0.839700 1.676800
0.853500 1.722000
0.867300 1.773400
0.881000 1.832800
0.894800 1.903000
0.908600 1.975600
0.922400 2.057700
0.936200 2.144500
0.950000 2.241600
0.963800 2.349300
0.977500 2.468800
0.991300 2.601100
1.005100 2.752500
1.018900 2.981200
1.032700 3.464300
1.046500 3.512900
1.060200 3.638100
1.074000 3.845000
1.087800 3.951500
1.101600 3.970700
1.115400 4.318500
1.129200 4.557300
1.143000 5.349900
1.156700 6.615900
1.170500 6.051000
1.184300 4.452900
1.198100 2.899700
1.211900 2.004300
1.225700 1.468800
1.239500 1.101100
1.253200 0.831700
1.267000 0.659100
1.280800 0.351200
1.294600 0.279100
1.308400 0.408900
1.322200 0.476900
1.336000 0.542500
1.349700 0.636100
1.363500 0.676700
1.377300 0.718100
1.391100 0.776300
1.404900 1.011400
1.418700 0.859100
1.432500 0.929500
1.446200 0.975500
1.460000 1.030500
1.473800 1.098900
1.487600 1.181200
1.501400 1.249100
1.515200 1.314100
1.529000 1.362900
1.542700 1.411500
1.556500 1.479100
1.570300 1.544100
1.584100 1.595900
1.597900 1.644900
1.611700 1.698600
1.625500 1.753200
1.639200 1.803200
1.653000 1.841000
1.666800 1.883100
1.680600 1.922100
1.694400 1.960800
1.708200 2.003900
1.722000 2.042900
1.735700 2.085300
1.749500 2.126700
1.763300 2.162700
1.777100 2.199100
1.790900 2.238000
1.804700 2.279100
1.818400 2.325600
1.832200 2.368800
1.846000 2.411600
1.859800 2.463200
1.873600 2.521100
1.887400 2.591600
1.901200 2.699900
1.914900 2.824200
1.928700 2.944700
1.942500 3.045800
1.956300 3.148200
1.970100 3.254100
1.983900 3.352500
1.997700 3.468100
2.011400 3.595600
2.025200 3.918700
2.039000 4.361500
2.052800 4.495800
2.066600 4.488300
2.080400 4.573500
2.094200 4.698400
2.107900 4.791400
2.121700 4.752000
2.135500 4.540700
2.149300 4.260700
2.163100 3.988700
2.176900 3.821800
2.190700 3.712900
2.204400 3.629300
2.218200 3.607500
2.232000 3.576800
2.245800 3.445800
2.259600 3.800900
2.273400 4.255300
2.287200 4.496500
2.300900 4.551700
2.314700 4.599000
2.328500 4.492800
2.342300 4.477600
2.356100 4.553700
2.369900 4.552800
2.383700 4.565300
2.397400 4.580300
2.411200 4.660700
2.425000 4.807000
2.438800 5.576600
2.452600 5.308700
2.466400 4.548000
2.480100 4.228300
2.493900 3.968100
2.507700 3.819500
2.521500 3.789800
2.535300 3.792500
2.549100 3.819700
2.562900 3.953700
2.576600 4.133500
2.590400 4.093000
2.604200 3.954800
2.618000 3.935500
2.631800 3.885800
2.645600 3.856100
2.659400 3.833500
2.673100 3.814700
2.686900 3.813500
2.700700 3.813700
2.714500 3.915000
2.728300 4.242500
2.742100 4.224600
2.755900 4.056200
2.769600 3.964300
2.783400 3.922400
2.797200 3.381200
2.811000 3.104000
2.824800 2.967600
2.838600 2.845100
2.852400 2.721500
2.866100 2.709400
2.879900 2.723000
2.893700 2.748900
2.907500 2.826600
2.921300 2.928500
2.935100 2.976800
2.948900 2.979800
2.962600 3.115400
2.976400 3.413800
2.990200 3.620000
3.004000 3.737700
3.017800 3.834700
3.031600 3.920500
3.045400 4.123800
3.059100 4.379300
3.072900 4.546500
3.086700 4.548200
3.100500 4.485700
3.114300 4.419200
3.128100 4.469800
3.141900 4.443100
3.155600 4.418100
3.169400 4.295100
3.183200 4.145400
3.197000 4.113000
3.210800 4.155200
3.224600 4.206700
3.238300 4.548100
3.252100 4.702400
3.265900 4.997300
3.279700 4.915200
3.293500 4.943900
3.307300 4.949900
3.321100 5.062300
3.334800 5.098100
3.348600 4.797900
3.362400 4.464400
3.376200 4.255400
3.390000 4.191200
3.403800 4.052100
3.417600 4.079000
3.431300 4.143100
3.445100 4.222700
3.458900 4.319700
3.472700 4.317400
3.486500 4.176800
3.500300 3.949300
3.514100 3.801700
3.527800 3.732900
3.541600 3.656000
3.555400 3.497600
3.569200 3.385400
3.583000 3.283600
3.596800 3.187400
3.610600 3.109400
3.624300 3.083100
3.638100 2.972800
3.651900 2.957200
3.665700 2.956500
3.679500 2.937300
3.693300 2.903600
3.707100 2.871000
3.720800 2.767400
3.734600 2.747500
3.748400 2.710500
3.762200 2.544400
3.776000 2.375700
3.789800 2.382000
3.803600 2.501400
3.817300 2.648400
3.831100 2.725100
3.844900 2.807000
3.858700 2.947000
3.872500 3.038000
3.886300 3.302900
3.900000 3.226400
3.913800 3.118100
3.927600 3.025300
3.941400 2.948100
3.955200 2.849800
3.969000 2.756000
3.982800 2.689000
3.996500 2.618300
4.010300 2.556700
4.024100 2.523200
4.037900 2.529400
4.051700 2.528600
4.065500 2.529000
4.079300 2.536800
4.093000 2.577900
4.106800 2.634000
4.120600 2.711700
4.134400 2.904200
4.148200 3.008200
4.162000 3.038700
4.175800 3.099200
4.189500 3.161400
4.203300 3.250200
4.217100 3.341100
4.230900 3.388500
4.244700 3.441800
4.258500 3.490800
4.272300 3.542800
4.286000 3.670700
4.299800 3.796900
4.313600 3.908700
4.327400 4.224700
4.341200 4.682400
4.355000 4.854700
4.368800 4.860400
4.382500 5.027900
4.396300 5.160000
4.410100 5.077800
4.423900 4.871300
4.437700 4.715300
4.451500 4.669700
4.465300 4.573000
4.479000 4.434300
4.492800 4.393700
4.506600 4.252900
4.520400 4.045600
4.534200 3.842800
4.548000 3.686100
4.561800 3.660000
4.575500 3.701900
4.589300 3.923100
4.603100 4.264100
4.616900 4.464500
4.630700 4.525800
4.644500 4.442900
4.658200 4.640000
4.672000 4.951900
4.685800 5.270400
4.699600 5.575400
4.713400 5.728900
4.727200 5.923200
4.741000 6.078700
4.754700 6.502200
4.768500 7.156200
4.782300 6.817900
4.796100 6.238800
4.809900 5.862200
4.823700 5.691200
4.837500 5.422300
4.851200 5.288500
4.865000 5.290400
4.878800 5.357700
4.892600 5.432300
4.906400 5.706800
4.920200 5.871000
4.934000 5.967700
4.947700 6.078500
4.961500 5.854600
4.975300 5.610600
4.989100 5.464900
5.002900 4.883700
5.016700 4.393200
5.030500 4.343000
5.044200 4.371100
5.058000 4.474500
5.071800 4.612200
5.085600 4.808100
5.099400 5.117700
5.113200 5.408800
5.127000 5.635700
5.140700 5.520700
5.154500 5.232100
5.168300 5.037700
5.182100 4.913500
5.195900 4.831200
5.209700 4.797900
5.223500 4.842200
5.237200 4.898000
5.251000 4.914900
5.264800 4.774200
5.278600 4.601000
5.292400 4.533200
5.306200 4.332400
5.319900 4.141800
5.333700 4.104600
5.347500 4.066200
5.361300 4.035200
5.375100 4.033400
5.388900 4.031300
5.402700 4.022900
5.416400 4.019400
5.430200 4.018800
5.444000 4.031100
5.457800 4.045400
5.471600 4.058600
5.485400 4.069000
5.499200 4.134700
5.512900 4.045000
5.526700 3.944700
5.540500 3.897900
5.554300 3.860200
5.568100 3.825000
5.581900 3.790700
5.595700 3.756500
5.609400 3.728400
5.623200 3.703200
5.637000 3.686000
5.650800 3.671400
5.664600 3.671400
5.678400 3.688900
5.692200 3.644200
5.705900 3.637300
5.719700 3.622900
5.733500 3.558100
5.747300 3.526200
5.761100 3.492400
5.774900 3.463000
5.788700 3.453300
5.802400 3.449500
5.816200 3.397800
5.830000 3.259400
5.843800 3.206900
5.857600 3.245100
5.871400 3.280700
5.885200 3.311900
5.898900 3.338100
5.912700 3.345600
5.926500 3.351700
5.940300 3.366800
5.954100 3.363200
5.967900 3.378300
5.981700 3.392600
5.995400 3.420200
6.009200 3.442700
6.023000 3.362500
6.036800 3.303200
6.050600 3.238800
6.064400 3.172600
6.078100 3.136500
6.091900 3.105300
6.105700 3.015600
6.119500 3.067500
6.133300 2.835500
6.147100 2.554700
6.160900 2.438100
6.174600 2.373000
6.188400 2.320900
6.202200 2.288700
6.216000 2.250500
6.229800 2.221600
6.243600 2.191000
6.257400 2.158100
6.271100 2.050000
6.284900 1.966100
6.298700 1.913600
6.312500 1.845300
6.326300 1.744200
6.340100 1.631800
6.353900 1.548800
6.367600 1.518800
6.381400 1.499200
6.395200 1.481200
6.409000 1.465000
6.422800 1.450500
6.436600 1.436100
6.450400 1.421000
6.464100 1.406100
6.477900 1.395900
6.491700 1.403100
6.505500 1.373700
6.519300 1.361900
6.533100 1.347100
6.546900 1.333200
6.560600 1.319800
6.574400 1.306900
6.588200 1.294900
6.602000 1.283800
6.615800 1.269600
6.629600 1.263300
6.643400 1.251200
6.657100 1.237400
6.670900 1.224600
6.684700 1.212800
6.698500 1.201700
6.712300 1.191300
6.726100 1.181200
6.739800 1.171700
6.753600 1.162700
6.767400 1.153200
6.781200 1.143800
6.795000 1.134200
6.808800 1.124500
6.822600 1.115600
6.836300 1.109000
6.850100 1.100600
6.863900 1.096500
6.877700 1.106500
6.891500 1.059200
6.905300 1.050200
6.919100 1.042400
6.932800 1.035500
6.946600 1.024900
6.960400 1.014000
6.974200 1.003000
6.988000 0.992200
7.001800 0.981700
7.015600 0.971200
7.029300 0.961000
7.043100 0.951400
7.056900 0.979800
7.070700 0.949300
7.084500 0.932400
7.098300 0.916600
7.112100 0.902000
7.125800 0.889300
7.139600 0.881700
7.153400 0.867200
7.167200 0.879900
7.181000 0.834100
7.194800 0.815500
7.208600 0.786800
7.222300 0.761100
7.236100 0.749000
7.249900 0.719900
7.263700 0.696100
7.277500 0.676100
7.291300 0.658600
7.305100 0.642400
7.318800 0.634500
7.332600 0.627300
7.346400 0.608600
7.360200 0.599700
7.374000 0.598300
7.387800 0.596900
7.401600 0.592800
7.415300 0.585000
7.429100 0.580300
7.442900 0.617700
7.456700 0.739400
7.470500 0.734000
7.484300 0.820600
7.498000 0.810400
7.511800 0.812600
7.525600 0.854200
7.539400 0.906000
7.553200 0.886900
7.567000 0.890800
7.580800 0.916600
7.594500 0.951100
7.608300 0.971900
7.622100 0.955400
7.635900 0.957100
7.649700 0.965300
7.663500 0.971200
7.677300 0.972100
7.691000 0.957500
7.704800 0.945400
7.718600 0.941500
7.732400 0.933800
7.746200 0.911600
7.760000 0.899000
7.773800 0.890200
7.787500 0.882500
7.801300 0.874900
7.815100 0.866400
7.828900 0.858000
7.842700 0.850200
7.856500 0.843500
7.870300 0.837800
7.884000 0.833300
7.897800 0.830000
7.911600 0.828000
7.925400 0.826400
7.939200 0.828100
7.953000 0.830700
7.966800 0.840600
7.980500 0.840300
7.994300 0.836600
8.008100 0.830300
8.021900 0.823500
8.035700 0.817200
8.049500 0.811700
8.063300 0.807100
8.077000 0.803000
8.090800 0.799300
8.104600 0.796000
8.118400 0.791900
8.132200 0.789100
8.146000 0.786000
8.159700 0.784000
8.173500 0.784000
8.187300 0.784200
8.201100 0.784600
8.214900 0.785200
8.228700 0.786100
8.242500 0.787300
8.256200 0.788600
8.270000 0.790400
8.283800 0.792500
8.297600 0.795100
8.311400 0.798000
8.325200 0.801300
8.339000 0.805000
8.352700 0.830300
8.366500 0.826000
8.380300 0.831100
8.394100 0.837700
8.407900 0.846100
8.421700 0.855700
8.435500 0.866700
8.449200 0.878900
8.463000 0.892200
8.476800 0.906000
8.490600 0.936400
8.504400 0.958800
8.518200 0.983500
8.532000 1.013200
8.545700 1.039900
8.559500 1.076400
8.573300 1.133200
8.587100 1.210000
8.600900 1.860000
8.614700 2.395200
8.628500 2.277900
8.642200 2.253100
8.656000 2.246000
8.669800 2.136600
8.683600 2.075800
8.697400 2.044900
8.711200 2.012200
8.725000 1.953200
8.738700 1.883400
8.752500 1.857100
8.766300 1.832700
8.780100 1.807200
8.793900 1.774900
8.807700 1.747400
8.821500 1.723000
8.835200 1.699500
8.849000 1.676800
8.862800 1.657100
8.876600 1.644300
8.890400 1.633000
8.904200 1.621600
8.917900 1.608500
8.931700 1.591200
8.945500 1.570800
8.959300 1.547300
8.973100 1.528200
8.986900 1.517400
9.000700 1.507200
9.014400 1.497100
9.028200 1.487100
9.042000 1.477100
9.055800 1.467400
9.069600 1.457900
9.083400 1.448600
9.097200 1.439100
9.110900 1.429100
9.124700 1.418900
9.138500 1.408300
9.152300 1.398100
9.166100 1.388700
9.179900 1.379400
9.193700 1.369900
9.207400 1.360300
9.221200 1.350900
9.235000 1.341900
9.248800 1.333300
9.262600 1.325800
9.276400 1.319300
9.290200 1.312900
9.303900 1.306600
9.317700 1.300300
9.331500 1.294600
9.345300 1.290200
9.359100 1.287900
9.372900 1.285400
9.386700 1.281300
9.400400 1.277400
9.414200 1.273500
9.428000 1.269500
9.441800 1.264500
9.455600 1.256500
9.469400 1.245600
9.483200 1.240600
9.496900 1.237100
9.510700 1.236000
9.524500 1.236600
9.538300 1.214200
9.552100 1.210200
9.565900 1.206500
9.579600 1.201000
9.593400 1.195700
9.607200 1.190500
9.621000 1.185400
9.634800 1.180100
9.648600 1.174900
9.662400 1.170000
9.676100 1.165100
9.689900 1.159300
9.703700 1.154000
9.717500 1.149200
9.731300 1.144700
9.745100 1.140300
9.758900 1.136000
9.772600 1.131900
9.786400 1.127600
9.800200 1.123200
9.814000 1.118800
9.827800 1.114500
9.841600 1.110200
9.855400 1.105900
9.869100 1.101900
9.882900 1.098100
9.896700 1.094700
9.910500 1.091600
9.924300 1.088600
9.938100 1.085700
9.951900 1.082800
9.965600 1.080100
9.979400 1.077900
9.993200 1.076500
10.007000 1.074700
10.020800 1.073000
10.034600 1.071700
10.048400 1.072200
10.062100 1.075200
10.075900 1.077100
10.089700 1.076500
10.103500 1.072400
10.117300 1.065800
10.131100 1.061100
10.144900 1.058100
10.158600 1.054100
10.172400 1.050900
10.186200 1.048600
10.200000 1.047400
10.213800 1.044700
10.227600 1.038900
10.241400 1.032500
10.255100 1.026900
10.268900 1.021700
10.282700 1.017200
10.296500 1.013800
10.310300 1.010400
10.324100 1.007200
10.337800 1.003700
10.351600 1.000400
10.365400 0.997200
10.379200 0.994100
10.393000 0.991000
10.406800 0.988100
10.420600 0.985100
10.434300 0.982200
10.448100 0.980000
10.461900 0.978800
10.475700 0.976400
10.489500 0.973500
10.503300 0.970800
10.517100 0.969000
10.530800 0.968100
10.544600 0.968300
10.558400 0.970600
10.572200 0.972300
10.586000 0.972900
10.599800 0.973800
10.613600 0.980000
10.627300 0.985000
10.641100 0.995100
10.654900 0.996700
10.668700 0.997900
10.682500 1.001200
10.696300 1.085400
10.710100 1.073600
10.723800 0.995800
10.737600 0.932200
10.751400 0.917000
10.765200 0.915600
10.779000 0.914500
10.792800 0.913700
10.806600 0.914700
10.820300 0.922400
10.834100 0.936000
10.847900 0.924800
10.861700 0.917400
10.875500 0.913800
10.889300 0.913800
10.903100 0.916600
10.916800 0.921200
10.930600 0.926700
10.944400 0.931000
10.958200 0.931800
10.972000 0.928900
10.985800 0.924400
10.999500 0.918200
11.013300 0.910400
11.027100 0.904000
11.040900 0.889300
11.054700 0.876900
11.068500 0.844700
11.082300 0.822300
11.096000 0.803900
11.109800 0.789700
11.123600 0.778600
11.137400 0.769000
11.151200 0.761000
11.165000 0.754900
11.178800 0.782400
11.192500 0.785500
11.206300 0.781800
11.220100 0.781800
11.233900 0.784900
11.247700 0.783300
11.261500 0.784200
11.275300 0.775600
11.289000 0.773700
11.302800 0.774500
11.316600 0.775900
11.330400 0.777500
11.344200 0.779400
11.358000 0.770600
11.371800 0.767700
11.385500 0.767300
11.399300 0.768300
11.413100 0.753300
11.426900 0.726100
11.440700 0.730700
11.454500 0.739300
11.468300 0.750800
11.482000 0.765700
11.495800 0.772700
11.509600 0.782400
11.523400 0.795800
11.537200 0.807900
11.551000 0.821600
11.564800 0.840300
11.578500 0.868200
11.592300 0.898900
11.606100 0.913200
11.619900 0.904200
11.633700 0.882200
11.647500 0.844900
11.661300 0.796600
11.675000 0.762300
11.688800 0.737500
11.702600 0.720300
11.716400 0.707500
11.730200 0.693000
11.744000 0.680400
11.757700 0.671400
11.771500 0.667500
11.785300 0.668700
11.799100 0.669400
11.812900 0.661800
11.826700 0.645000
11.840500 0.621200
11.854200 0.591600
11.868000 0.553300
11.881800 0.530300
11.895600 0.508300
11.909400 0.486500
11.923200 0.464500
11.937000 0.440600
11.950700 0.422900
11.964500 0.410000
11.978300 0.400400
11.992100 0.393900
12.005900 0.385700
12.019700 0.374600
12.033500 0.364100
12.047200 0.354100
12.061000 0.353800
12.074800 0.361800
12.088600 0.382400
12.102400 0.420800
12.116200 0.491700
12.130000 0.584900
12.143700 0.636300
12.157500 0.694000
12.171300 0.762600
12.185100 0.868500
12.198900 0.981700
12.212700 1.085100
12.226500 1.188600
12.240200 1.285700
12.254000 1.393500
12.267800 1.511200
12.281600 1.607800
12.295400 1.683200
12.309200 1.818400
12.323000 1.879100
12.336700 1.898200
12.350500 1.906200
12.364300 1.913900
12.378100 1.926900
12.391900 1.918300
12.405700 1.924700
12.419400 1.896200
12.433200 1.870300
12.447000 1.870600
12.460800 1.871900
12.474600 1.859100
12.488400 1.851100
12.502200 1.846800
12.515900 1.844000
12.529700 1.843700
12.543500 1.829600
12.557300 1.824000
12.571100 1.839600
12.584900 1.868500
12.598700 1.822500
12.612400 1.806800
12.626200 1.769900
12.640000 1.732000
12.653800 1.697900
12.667600 1.664500
12.681400 1.614300
12.695200 1.576100
12.708900 1.554900
12.722700 1.537000
12.736500 1.517600
12.750300 1.508500
12.764100 1.510400
12.777900 1.523500
12.791700 1.533400
12.805400 1.528800
12.819200 1.540900
12.833000 1.565800
12.846800 1.594000
12.860600 1.629000
12.874400 1.619400
12.888200 1.627500
12.901900 1.621900
12.915700 1.594400
12.929500 1.553500
12.943300 1.509900
12.957100 1.462300
12.970900 1.417100
12.984700 1.373400
12.998400 1.334800
13.012200 1.298700
13.026000 1.265600
13.039800 1.232300
13.053600 1.194200
13.067400 1.156300
13.081200 1.107500
13.094900 1.065600
13.108700 1.028300
13.122500 0.997200
13.136300 0.969400
13.150100 0.948000
13.163900 0.930100
13.177600 0.913600
13.191400 0.898500
13.205200 0.885200
13.219000 0.874000
13.232800 0.865600
13.246600 0.859900
13.260400 0.856400
13.274100 0.854800
13.287900 0.854100
13.301700 0.859100
13.315500 0.860500
13.329300 0.861700
13.343100 0.861400
13.356900 0.852600
13.370600 0.841800
13.384400 0.830900
13.398200 0.821800
13.412000 0.815800
13.425800 0.804200
13.439600 0.795200
13.453400 0.794700
13.467100 0.795300
13.480900 0.795900
13.494700 0.797400
13.508500 0.799000
13.522300 0.799500
13.536100 0.800400
13.549900 0.802800
13.563600 0.805900
13.577400 0.808400
13.591200 0.809200
13.605000 0.811300
13.618800 0.814200
13.632600 0.815500
13.646400 0.819200
13.660100 0.816000
13.673900 0.811500
13.687700 0.809000
13.701500 0.809200
13.715300 0.809800
13.729100 0.810800
13.742900 0.813700
13.756600 0.820900
13.770400 0.824300
13.784200 0.831600
13.798000 0.838600
13.811800 0.845400
13.825600 0.852000
13.839300 0.866200
13.853100 0.879800
13.866900 0.894100
13.880700 0.915800
13.894500 0.939000
13.908300 0.965100
13.922100 1.043300
13.935800 1.031700
13.949600 1.034800
13.963400 1.045100
13.977200 1.055100
13.991000 1.066100
14.004800 1.076200
14.018600 1.087800
14.032300 1.099800
14.046100 1.113400
14.059900 1.126400
14.073700 1.135200
14.087500 1.150300
14.101300 1.168900
14.115100 1.191000
14.128800 1.216100
14.142600 1.242700
14.156400 1.270500
14.170200 1.300100
14.184000 1.328100
14.197800 1.353200
14.211600 1.382500
14.225300 1.399800
14.239100 1.420700
14.252900 1.450800
14.266700 1.489100
14.280500 1.501000
14.294300 1.497300
14.308100 1.508400
14.321800 1.518900
14.335600 1.527500
14.349400 1.535100
14.363200 1.547600
14.377000 1.563100
14.390800 1.577200
14.404600 1.593100
14.418300 1.613500
14.432100 1.627800
14.445900 1.637700
14.459700 1.666300
14.473500 1.684900
14.487300 1.716300
14.501100 1.751400
14.514800 1.789800
14.528600 1.821700
14.542400 1.843900
14.556200 1.892800
14.570000 1.959200
14.583800 2.061100
14.597500 2.209900
14.611300 2.347600
14.625100 2.369200
14.638900 2.339100
14.652700 2.273400
14.666500 2.215200
14.680300 2.154400
14.694000 2.127900
14.707800 1.971900
14.721600 1.844000
14.735400 1.748800
14.749200 1.697600
14.763000 1.672300
14.776800 1.651400
14.790500 1.635300
14.804300 1.619300
14.818100 1.604300
14.831900 1.592600
14.845700 1.582000
14.859500 1.573300
14.873300 1.568800
14.887000 1.574600
14.900800 1.585400
14.914600 1.592400
14.928400 1.582500
14.942200 1.570600
14.956000 1.564300
14.969800 1.557500
14.983500 1.542700
14.997300 1.543700
15.011100 1.546200
15.024900 1.535100
15.038700 1.520300
15.052500 1.511500
15.066300 1.503100
15.080000 1.496600
15.093800 1.491300
15.107600 1.486900
15.121400 1.483700
15.135200 1.476800
15.149000 1.469100
15.162800 1.469100
15.176500 1.477200
15.190300 1.457600
15.204100 1.451200
15.217900 1.448000
15.231700 1.448700
15.245500 1.447800
15.259200 1.439300
15.273000 1.430600
15.286800 1.422300
15.300600 1.414900
15.314400 1.430000
15.328200 1.423800
15.342000 1.418200
15.355700 1.414300
15.369500 1.410700
15.383300 1.408700
15.397100 1.407200
15.410900 1.409800
15.424700 1.416900
15.438500 1.421100
15.452200 1.422300
15.466000 1.423500
15.479800 1.421400
15.493600 1.416400
15.507400 1.408800
15.521200 1.402200
15.535000 1.399600
15.548700 1.403100
15.562500 1.409500
15.576300 1.391500
15.590100 1.394000
15.603900 1.403400
15.617700 1.413300
15.631500 1.414100
15.645200 1.408600
15.659000 1.401500
15.672800 1.391800
15.686600 1.383400
15.700400 1.377400
15.714200 1.372000
15.728000 1.367300
15.741700 1.362600
15.755500 1.359200
15.769300 1.358500
15.783100 1.360400
15.796900 1.364800
15.810700 1.371300
15.824500 1.380300
15.838200 1.386800
15.852000 1.394300
15.865800 1.395600
15.879600 1.391400
15.893400 1.395000
15.907200 1.402200
15.921000 1.419500
15.934700 1.436000
15.948500 1.437300
15.962300 1.433800
15.976100 1.435600
15.989900 1.436300
16.003700 1.438600
16.017400 1.440800
16.031200 1.451500
16.045000 1.468200
16.058800 1.486100
16.072600 1.460900
16.086400 1.453700
16.100200 1.448100
16.113900 1.443700
16.127700 1.441700
16.141500 1.442400
16.155300 1.446000
16.169100 1.451300
16.182900 1.453700
16.196700 1.453100
16.210400 1.452500
16.224200 1.453000
16.238000 1.456000
16.251800 1.458400
16.265600 1.459200
16.279400 1.466000
16.293200 1.471500
16.306900 1.473100
16.320700 1.477000
16.334500 1.484600
16.348300 1.502100
16.362100 1.512700
16.375900 1.517100
16.389700 1.521000
16.403400 1.524500
16.417200 1.528900
16.431000 1.535700
16.444800 1.544100
16.458600 1.603700
16.472400 1.632600
16.486200 1.617400
16.499900 1.621400
16.513700 1.627100
16.527500 1.630100
16.541300 1.644500
16.555100 1.708200
16.568900 1.747000
16.582700 1.711600
16.596400 1.693900
16.610200 1.679100
16.624000 1.681100
16.637800 1.677700
16.651600 1.660400
16.665400 1.616500
16.679100 1.573700
16.692900 1.546700
16.706700 1.519800
16.720500 1.497800
16.734300 1.481300
16.748100 1.468400
16.761900 1.458300
16.775600 1.452400
16.789400 1.455300
16.803200 1.462400
16.817000 1.473200
16.830800 1.490600
16.844600 1.523400
16.858400 1.559700
16.872100 1.592700
16.885900 1.629100
16.899700 1.665700
16.913500 1.700300
16.927300 1.735900
16.941100 1.780900
16.954900 1.831500
16.968600 1.876900
16.982400 1.923800
16.996200 2.054800
17.010000 2.051700
17.023800 2.113500
17.037600 2.261100
17.051400 2.336600
17.065100 2.228900
17.078900 2.078700
17.092700 2.076400
17.106500 2.131600
17.120300 2.093100
17.134100 2.043400
17.147900 2.040400
17.161600 2.031500
17.175400 2.122400
17.189200 1.868600
17.203000 1.782300
17.216800 1.732000
17.230600 1.669500
17.244400 1.603700
17.258100 1.532900
17.271900 1.488100
17.285700 1.437100
17.299500 1.389600
17.313300 1.347200
17.327100 1.316300
17.340900 1.295600
17.354600 1.274500
17.368400 1.278300
17.382200 1.134500
17.396000 1.093800
17.409800 1.056100
17.423600 1.016400
17.437300 0.975600
17.451100 0.933900
17.464900 0.919900
17.478700 0.869100
17.492500 0.806700
17.506300 0.754100
17.520100 0.700500
17.533800 0.654400
17.547600 0.650700
17.561400 0.597100
17.575200 0.535800
17.589000 0.487800
17.602800 0.454800
17.616600 0.425500
17.630300 0.394400
17.644100 0.375000
17.657900 0.356400
17.671700 0.330500
17.685500 0.313700
17.699300 0.300000
17.713100 0.288600
17.726800 0.280600
17.740600 0.279000
17.754400 0.283100
17.768200 0.290900
17.782000 0.304400
17.795800 0.324900
17.809600 0.359900
17.823300 0.384500
17.837100 0.412300
17.850900 0.446600
17.864700 0.480600
17.878500 0.565600
17.892300 0.578300
17.906100 0.624800
17.919800 0.692300
17.933600 0.769600
17.947400 0.849300
17.961200 0.931200
17.975000 1.037100
17.988800 1.103000
18.002600 1.187300
18.016300 1.260900
18.030100 1.336300
18.043900 1.408900
18.057700 1.489700
18.071500 1.574900
18.085300 1.710800
18.099000 1.833300
18.112800 1.928500
18.126600 2.016000
18.140400 2.091600
18.154200 2.100900
18.168000 2.084500
18.181800 2.089300
18.195500 2.107100
18.209300 2.123400
18.223100 2.146500
18.236900 2.164800
18.250700 2.188200
18.264500 2.219500
18.278300 2.257300
18.292000 2.310100
18.305800 2.356200
18.319600 2.391000
18.333400 2.410100
18.347200 2.415700
18.361000 2.419200
18.374800 2.401000
18.388500 2.350700
18.402300 2.283100
18.416100 2.220200
18.429900 2.154600
18.443700 2.085600
18.457500 2.032900
18.471300 1.999900
18.485000 1.959700
18.498800 1.896100
18.512600 1.818900
18.526400 1.749800
18.540200 1.673100
18.554000 1.609600
18.567800 1.555100
18.581500 1.504400
18.595300 1.455600
18.609100 1.418100
18.622900 1.391800
18.636700 1.379700
18.650500 1.374700
18.664300 1.381100
18.678000 1.398400
18.691800 1.427000
18.705600 1.468500
18.719400 1.528500
18.733200 1.608500
18.747000 1.679300
18.760800 1.751200
18.774500 1.827600
18.788300 1.905000
18.802100 1.976600
18.815900 2.038000
18.829700 2.120100
18.843500 2.144400
18.857200 2.191700
18.871000 2.259100
18.884800 2.294500
18.898600 2.334300
18.912400 2.385600
18.926200 2.434000
18.940000 2.474700
18.953700 2.526000
18.967500 2.567100
18.981300 2.590100
18.995100 2.616500
19.008900 2.616700
19.022700 2.622100
19.036500 2.638700
19.050200 2.661200
19.064000 2.680600
19.077800 2.678800
19.091600 2.664500
19.105400 2.641900
19.119200 2.606100
19.133000 2.586400
19.146700 2.581800
19.160500 2.583000
19.174300 2.587600
19.188100 2.594200
19.201900 2.606700
19.215700 2.641100
19.229500 2.637400
19.243200 2.592700
19.257000 2.514900
19.270800 2.425300
19.284600 2.350200
19.298400 2.276300
19.312200 2.212500
19.326000 2.150400
19.339700 2.086700
19.353500 2.021800
19.367300 1.955900
19.381100 1.896900
19.394900 1.842500
19.408700 1.779400
19.422500 1.710300
19.436200 1.630900
19.450000 1.569300
19.463800 1.531300
19.477600 1.497400
19.491400 1.467500
19.505200 1.439900
19.518900 1.414600
19.532700 1.393200
19.546500 1.369200
19.560300 1.338600
19.574100 1.305800
19.587900 1.271200
19.601700 1.236000
19.615400 1.211100
19.629200 1.191500
19.643000 1.174800
19.656800 1.154500
19.670600 1.133700
19.684400 1.109500
19.698200 1.086300
19.711900 1.065400
19.725700 1.046400
19.739500 1.027900
19.753300 1.009900
19.767100 0.994000
19.780900 0.975900
19.794700 0.960000
19.808400 0.945700
19.822200 0.933500
19.836000 0.923200
19.849800 0.906100
19.863600 0.886900
19.877400 0.868500
19.891200 0.851400
19.904900 0.837400
19.918700 0.826200
19.932500 0.809200
19.946300 0.800900
19.960100 0.796000
19.973900 0.789500
19.987700 0.783900
20.001400 0.776300
20.015200 0.766000
20.029000 0.754000
20.042800 0.738800
20.056600 0.728300
20.070400 0.719300
20.084200 0.690400
20.097900 0.668600
20.111700 0.651300
20.125500 0.632200
20.139300 0.613000
20.153100 0.593600
20.166900 0.573500
20.180700 0.553500
20.194400 0.534000
20.208200 0.514100
20.222000 0.481600
20.235800 0.460100
20.249600 0.442900
20.263400 0.423000
20.277100 0.401800
20.290900 0.379500
20.304700 0.356800
20.318500 0.334400
20.332300 0.315100
20.346100 0.299800
20.359900 0.307300
20.373600 0.280600
20.387400 0.271100
20.401200 0.264600
20.415000 0.256900
20.428800 0.248600
20.442600 0.241200
20.456400 0.227800
20.470100 0.215900
20.483900 0.207400
20.497700 0.202800
20.511500 0.193100
20.525300 0.205700
20.539100 0.164000
20.552900 0.165000
20.566600 0.156200
20.580400 0.116100
20.594200 0.096600
20.608000 0.086800
20.621800 0.079200
20.635600 0.073900
20.649400 0.069700
20.663100 0.066600
20.676900 0.062900
20.690700 0.058900
20.704500 0.055300
20.718300 0.052200
20.732100 0.049500
20.745900 0.048100
20.759600 0.045900
20.773400 0.043600
20.787200 0.041400
20.801000 0.039100
20.814800 0.036800
20.828600 0.034600
20.842400 0.032400
20.856100 0.030300
20.869900 0.028200
20.883700 0.028700
20.897500 0.030900
20.911300 0.030800
20.925100 0.028500
20.938800 0.023900
20.952600 0.012100
20.966400 0.003200
20.980200 0.000000
20.994000 0.000000
21.007800 0.000000
21.021600 0.000000
21.035300 0.000000
21.049100 0.000000
21.062900 0.000000
21.076700 0.000000
21.090500 0.000000
21.104300 0.000000
21.118100 0.000000
21.131800 0.000000
21.145600 0.000000
21.159400 0.000000
21.173200 0.000000
21.187000 0.000000
21.200800 0.000000
21.214600 0.000000
21.228300 0.000000
21.242100 0.000000
21.255900 0.000000
21.269700 0.000000
21.283500 0.000000
21.297300 0.000000
21.311100 0.000000
21.324800 0.000000
21.338600 0.000000
21.352400 0.000000
21.366200 0.000000
21.380000 0.000000
21.393800 0.000000
21.407600 0.000000
21.421300 0.000000
21.435100 0.000000
21.448900 0.000000
21.462700 0.000000
21.476500 0.000000
21.490300 0.000000
21.504100 0.000000
21.517800 0.000000
21.531600 0.000000
21.545400 0.000000
21.559200 0.000000
21.573000 0.000000
21.586800 0.000000
21.600600 0.000000
21.614300 0.000000
21.628100 0.000000
21.641900 0.000000
21.655700 0.000000
21.669500 0.000000
21.683300 0.000000
21.697000 0.000000
21.710800 0.000000
21.724600 0.000000
21.738400 0.000000
21.752200 0.000000
21.766000 0.000000
21.779800 0.000000
21.793500 0.000000
21.807300 0.000000
21.821100 0.000000
21.834900 0.000000
21.848700 0.000000
21.862500 0.000000
21.876300 0.000000
21.890000 0.000000
21.903800 0.000000
21.917600 0.000000
21.931400 0.000000
21.945200 0.000000
21.959000 0.000000
21.972800 0.000000
21.986500 0.000000
22.000300 0.000000
22.014100 0.000000
22.027900 0.000000
22.041700 0.000000
22.055500 0.000000
22.069300 0.000000
22.083000 0.000000
22.096800 0.000000
22.110600 0.000000
22.124400 0.000000
22.138200 0.000000
22.152000 0.000000
22.165800 0.000000
22.179500 0.000000
22.193300 0.000000
22.207100 0.000000
22.220900 0.000000
22.234700 0.000000
e
