set title 'mp-102 - Density of States'
set xlabel 'Energy (eV)'
set ylabel 'DOS (states/eV)'
set grid
set xrange [-10:10]
set yrange [0:2.306]
set xzeroaxis lt -1
set terminal png size 800,600
set output 'mp-102_dos_gnuplot.png'
plot '-' using 1:2 with lines title 'DOS'
-14.564400 0.000000
-14.442300 0.000000
-14.320300 0.000000
-14.198200 0.000000
-14.076100 0.000000
-13.954100 0.000000
-13.832000 0.000000
-13.710000 0.000000
-13.587900 0.000000
-13.465800 0.000000
-13.343800 0.000000
-13.221700 0.000000
-13.099700 0.000000
-12.977600 0.000000
-12.855600 0.000000
-12.733500 0.000000
-12.611400 0.000000
-12.489400 0.000000
-12.367300 0.000000
-12.245300 0.000000
-12.123200 0.000000
-12.001100 0.000000
-11.879100 0.000000
-11.757000 0.000000
-11.635000 0.000000
-11.512900 0.000000
-11.390800 0.000000
-11.268800 0.000000
-11.146700 0.000000
-11.024700 0.000000
-10.902600 0.000000
-10.780500 0.000000
-10.658500 0.000000
-10.536400 0.000000
-10.414400 0.000000
-10.292300 0.000000
-10.170300 0.000000
-10.048200 0.000000
-9.926100 0.000000
-9.804100 0.000000
-9.682000 0.000000
-9.560000 0.000000
-9.437900 0.000000
-9.315800 0.000000
-9.193800 0.000000
-9.071700 0.000000
-8.949700 0.000000
-8.827600 0.000000
-8.705500 0.000000
-8.583500 0.000000
-8.461400 0.000000
-8.339400 0.000000
-8.217300 0.000000
-8.095200 0.000000
-7.973200 0.000000
-7.851100 0.000000
-7.729100 0.000000
-7.607000 0.000000
-7.485000 0.000000
-7.362900 0.000000
-7.240800 0.000000
-7.118800 0.000000
-6.996700 0.000000
-6.874700 0.000000
-6.752600 0.000000
-6.630500 0.000000
-6.508500 0.000000
-6.386400 0.000000
-6.264400 0.000000
-6.142300 0.000000
-6.020200 0.000000
-5.898200 0.000000
-5.776100 0.000000
-5.654100 0.000000
-5.532000 0.000000
-5.409900 0.000000
-5.287900 0.000000
-5.165800 0.000000
-5.043800 0.000000
-4.921700 0.000000
-4.799700 0.000000
-4.677600 0.000000
-4.555500 0.000000
-4.433500 0.000000
-4.311400 0.000000
-4.189400 0.000000
-4.067300 0.000000
-3.945200 0.000000
-3.823200 0.000000
-3.701100 0.000000
-3.579100 0.000000
-3.457000 0.003700
-3.334900 0.012300
-3.212900 0.016800
-3.090800 0.020800
-2.968800 0.024300
-2.846700 0.027300
-2.724600 0.030300
-2.602600 0.033000
-2.480500 0.035700
-2.358500 0.038700
-2.236400 0.041200
-2.114300 0.043900
-1.992300 0.046800
-1.870200 0.049500
-1.748200 0.052500
-1.626100 0.055600
-1.504100 0.058800
-1.382000 0.062200
-1.259900 0.065900
-1.137900 0.070000
-1.015800 0.074300
-0.893800 0.079200
-0.771700 0.084700
-0.649600 0.091200
-0.527600 0.098400
-0.405500 0.107500
-0.283500 0.118800
-0.161400 0.132300
-0.039300 0.153200
0.082700 0.181600
0.204800 0.238000
0.326800 0.554600
0.448900 0.563700
0.571000 0.584200
0.693000 0.608200
0.815100 0.634000
0.937100 0.828400
1.059200 0.911400
1.181200 1.021600
1.303300 0.969000
1.425400 0.900800
1.547400 0.743500
1.669500 0.955900
1.791500 0.836900
1.913600 0.742500
2.035700 0.741400
2.157700 0.945300
2.279800 1.067200
2.401800 1.214300
2.523900 1.168700
2.646000 1.404700
2.768000 1.604900
2.890100 1.643800
3.012100 1.230800
3.134200 1.238300
3.256300 0.999600
3.378300 0.969000
3.500400 1.046100
3.622400 1.295800
3.744500 1.380100
3.866500 1.290500
3.988600 1.138600
4.110700 1.083200
4.232700 1.093200
4.354800 1.172400
4.476800 1.361400
4.598900 2.096400
4.721000 1.599300
4.843000 0.829800
4.965100 0.162900
5.087100 0.157500
5.209200 0.154700
5.331300 0.152000
5.453300 0.150600
5.575400 0.147400
5.697400 0.145600
5.819500 0.143400
5.941600 0.142000
6.063600 0.140500
6.185700 0.138600
6.307700 0.137200
6.429800 0.136100
6.551800 0.134600
6.673900 0.133200
6.796000 0.132200
6.918000 0.130700
7.040100 0.129500
7.162100 0.128600
7.284200 0.127600
7.406300 0.126400
7.528300 0.125500
7.650400 0.124700
7.772400 0.124400
7.894500 0.124400
8.016600 0.125500
8.138600 0.124600
8.260700 0.122400
8.382700 0.120600
8.504800 0.118400
8.626900 0.115900
8.748900 0.113800
8.871000 0.111400
8.993000 0.108900
9.115100 0.106600
9.237100 0.104000
9.359200 0.101300
9.481300 0.098500
9.603300 0.095800
9.725400 0.092900
9.847400 0.090500
9.969500 0.087300
10.091600 0.084200
10.213600 0.080900
10.335700 0.077900
10.457700 0.075100
10.579800 0.072000
10.701900 0.068000
10.823900 0.064700
10.946000 0.061500
11.068000 0.058000
11.190100 0.054800
11.312200 0.050700
11.434200 0.047100
11.556300 0.043100
11.678300 0.117100
11.800400 0.128500
11.922400 0.135700
12.044500 0.138400
12.166600 0.142000
12.288600 0.148500
12.410700 0.166900
12.532700 0.163100
12.654800 0.159000
12.776900 0.150000
12.898900 0.146800
13.021000 0.138200
13.143000 0.135100
13.265100 0.133400
13.387200 0.129200
13.509200 0.126700
13.631300 0.124400
13.753300 0.120800
13.875400 0.118800
13.997500 0.117100
14.119500 0.115500
14.241600 0.114100
14.363600 0.112800
14.485700 0.112000
14.607700 0.111400
14.729800 0.111000
14.851900 0.110700
14.973900 0.113900
15.096000 0.170900
15.218000 0.155100
15.340100 0.138600
15.462200 0.132800
15.584200 0.118100
15.706300 0.125700
15.828300 0.182500
15.950400 0.180200
16.072500 0.183200
16.194500 0.184000
16.316600 0.177900
16.438600 0.177400
16.560700 0.176100
16.682800 0.177000
16.804800 0.178100
16.926900 0.174000
17.048900 0.172000
17.171000 0.174300
17.293000 0.177400
17.415100 0.180800
17.537200 0.183300
17.659200 0.183800
17.781300 0.183500
17.903300 0.185600
18.025400 0.186500
18.147500 0.186700
18.269500 0.187100
18.391600 0.188800
18.513600 0.191300
18.635700 0.191500
18.757800 0.191300
18.879800 0.192000
19.001900 0.193700
19.123900 0.195100
19.246000 0.195900
19.368100 0.197900
19.490100 0.199600
19.612200 0.200400
19.734200 0.201900
19.856300 0.203500
19.978300 0.206200
20.100400 0.209100
20.222500 0.213300
20.344500 0.216800
20.466600 0.228400
20.588600 0.225500
20.710700 0.222600
20.832800 0.220900
20.954800 0.219500
21.076900 0.218300
21.198900 0.216800
21.321000 0.214400
21.443100 0.212600
21.565100 0.212100
21.687200 0.209800
21.809200 0.207600
21.931300 0.205800
22.053400 0.203700
22.175400 0.203100
22.297500 0.201200
22.419500 0.199400
22.541600 0.197600
22.663600 0.195200
22.785700 0.193000
22.907800 0.192000
23.029800 0.190700
23.151900 0.188900
23.273900 0.187000
23.396000 0.184700
23.518100 0.182500
23.640100 0.180400
23.762200 0.179600
23.884200 0.178800
24.006300 0.176700
24.128400 0.174700
24.250400 0.172600
24.372500 0.170400
24.494500 0.168400
24.616600 0.166500
24.738700 0.165900
24.860700 0.164200
24.982800 0.161700
25.104800 0.159700
25.226900 0.157900
25.349000 0.156400
25.471000 0.163900
25.593100 0.165900
25.715100 0.169100
25.837200 0.171700
25.959200 0.170900
26.081300 0.172900
26.203400 0.175700
26.325400 0.178400
26.447500 0.181400
26.569500 0.184400
26.691600 0.188800
26.813700 0.199200
26.935700 0.205200
27.057800 0.216300
27.179800 0.223700
27.301900 0.230200
27.424000 0.230600
27.546000 0.231400
27.668100 0.234100
27.790100 0.236500
27.912200 0.236000
28.034300 0.242700
28.156300 0.240500
28.278400 0.239900
28.400400 0.243100
28.522500 0.250500
28.644500 0.242900
28.766600 0.242300
28.888700 0.242400
29.010700 0.255500
29.132800 0.246300
29.254800 0.244500
29.376900 0.254400
29.499000 0.259600
29.621000 0.273100
29.743100 0.285900
29.865100 0.281500
29.987200 0.282700
30.109300 0.267300
30.231300 0.263300
30.353400 0.253900
30.475400 0.248700
30.597500 0.248800
30.719600 0.246300
30.841600 0.238100
30.963700 0.236300
31.085700 0.228500
31.207800 0.230500
31.329800 0.222000
31.451900 0.219300
31.574000 0.215400
31.696000 0.209900
31.818100 0.202700
31.940100 0.191100
32.062200 0.183200
32.184300 0.178600
32.306300 0.173800
32.428400 0.168400
32.550400 0.162800
32.672500 0.160200
32.794600 0.161200
32.916600 0.165100
33.038700 0.175500
33.160700 0.171500
33.282800 0.160800
33.404900 0.158300
33.526900 0.145500
33.649000 0.142000
33.771000 0.134600
33.893100 0.131200
34.015100 0.135200
34.137200 0.152800
34.259300 0.181100
34.381300 0.193200
34.503400 0.225500
34.625400 0.251400
34.747500 0.266700
34.869600 0.289600
34.991600 0.295800
35.113700 0.303000
35.235700 0.299900
35.357800 0.303100
35.479900 0.324300
35.601900 0.331900
35.724000 0.320300
35.846000 0.306800
35.968100 0.299400
36.090200 0.304600
36.212200 0.271000
36.334300 0.260600
36.456300 0.257700
36.578400 0.248600
36.700400 0.238400
36.822500 0.230300
36.944600 0.225800
37.066600 0.213600
37.188700 0.207300
37.310700 0.204100
37.432800 0.201100
37.554900 0.196200
37.676900 0.201600
37.799000 0.203100
37.921000 0.205200
38.043100 0.199300
38.165200 0.201100
38.287200 0.197500
38.409300 0.198500
38.531300 0.198500
38.653400 0.203900
38.775500 0.209800
38.897500 0.220900
39.019600 0.236500
39.141600 0.262600
39.263700 0.297500
39.385700 0.293200
39.507800 0.287200
39.629900 0.289000
39.751900 0.287100
39.874000 0.283500
39.996000 0.284500
40.118100 0.284400
40.240200 0.284700
40.362200 0.281100
40.484300 0.277600
40.606300 0.278800
40.728400 0.275700
40.850500 0.274500
40.972500 0.269200
41.094600 0.261400
41.216600 0.256200
41.338700 0.254300
41.460800 0.249900
41.582800 0.246300
41.704900 0.243300
41.826900 0.238400
41.949000 0.233800
42.071000 0.233700
42.193100 0.234600
42.315200 0.234900
42.437200 0.235700
42.559300 0.232200
42.681300 0.232600
42.803400 0.229400
42.925500 0.227500
43.047500 0.227300
43.169600 0.226100
43.291600 0.225400
43.413700 0.225600
43.535800 0.233400
43.657800 0.238100
43.779900 0.246100
43.901900 0.254700
44.024000 0.262900
44.146100 0.266700
44.268100 0.268200
44.390200 0.270100
44.512200 0.270700
44.634300 0.272200
44.756300 0.270100
44.878400 0.271600
45.000500 0.272100
45.122500 0.263600
45.244600 0.254100
45.366600 0.249400
45.488700 0.248500
45.610800 0.245900
45.732800 0.255500
45.854900 0.268100
45.976900 0.273200
46.099000 0.280000
46.221100 0.286600
46.343100 0.294100
46.465200 0.295900
46.587200 0.297500
46.709300 0.302200
46.831400 0.298500
46.953400 0.294000
47.075500 0.286200
47.197500 0.277500
47.319600 0.270600
47.441600 0.264800
47.563700 0.260400
47.685800 0.257600
47.807800 0.254300
47.929900 0.256900
48.051900 0.264900
48.174000 0.274100
48.296100 0.281000
48.418100 0.290300
48.540200 0.292900
48.662200 0.294000
48.784300 0.297800
48.906400 0.299500
49.028400 0.300100
49.150500 0.299500
49.272500 0.296700
49.394600 0.295500
49.516700 0.295900
49.638700 0.293700
49.760800 0.291800
49.882800 0.289700
50.004900 0.286800
50.127000 0.289600
50.249000 0.293200
50.371100 0.297100
50.493100 0.299100
50.615200 0.299500
50.737200 0.300700
50.859300 0.301100
50.981400 0.305000
51.103400 0.310100
51.225500 0.308900
51.347500 0.308700
51.469600 0.309900
51.591700 0.311900
51.713700 0.315300
51.835800 0.322500
51.957800 0.323200
52.079900 0.325300
52.202000 0.319400
52.324000 0.321200
52.446100 0.324100
52.568100 0.329400
52.690200 0.345700
52.812300 0.338100
52.934300 0.339100
53.056400 0.340600
53.178400 0.348900
53.300500 0.353500
53.422500 0.354700
53.544600 0.360000
53.666700 0.349300
53.788700 0.335900
53.910800 0.330100
54.032800 0.323100
54.154900 0.326500
54.277000 0.324200
54.399000 0.320800
54.521100 0.311200
54.643100 0.305700
54.765200 0.303900
54.887300 0.295200
55.009300 0.286600
55.131400 0.278700
55.253400 0.276100
55.375500 0.275500
55.497600 0.273700
55.619600 0.278900
55.741700 0.277900
55.863700 0.270000
55.985800 0.270300
56.107800 0.268300
56.229900 0.263200
56.352000 0.248800
56.474000 0.250300
56.596100 0.263700
56.718100 0.275400
56.840200 0.283000
56.962300 0.286300
57.084300 0.300300
57.206400 0.298600
57.328400 0.289400
57.450500 0.297300
57.572600 0.313600
57.694600 0.324500
57.816700 0.332500
57.938700 0.346000
58.060800 0.362500
58.182900 0.353000
58.304900 0.340700
58.427000 0.311700
58.549000 0.293800
58.671100 0.286400
58.793100 0.275100
58.915200 0.274400
59.037300 0.274200
59.159300 0.269000
59.281400 0.270100
59.403400 0.281100
59.525500 0.274000
59.647600 0.271100
59.769600 0.268100
59.891700 0.265700
60.013700 0.276500
60.135800 0.274500
60.257900 0.279800
60.379900 0.281600
60.502000 0.286500
60.624000 0.298800
60.746100 0.330800
60.868200 0.342300
60.990200 0.343400
61.112300 0.336700
61.234300 0.325800
61.356400 0.329400
61.478400 0.320500
61.600500 0.312900
61.722600 0.300400
61.844600 0.287600
61.966700 0.284000
62.088700 0.280000
62.210800 0.287400
62.332900 0.301000
62.454900 0.285000
62.577000 0.288200
62.699000 0.287300
62.821100 0.283400
62.943200 0.294800
63.065200 0.324000
63.187300 0.348600
63.309300 0.360900
63.431400 0.349900
63.553500 0.356100
63.675500 0.346000
63.797600 0.343500
63.919600 0.350300
64.041700 0.382000
64.163700 0.364500
64.285800 0.371900
64.407900 0.378800
64.529900 0.375700
64.652000 0.376900
64.774000 0.397000
64.896100 0.402900
65.018200 0.398700
65.140200 0.402300
65.262300 0.399000
65.384300 0.394500
65.506400 0.392200
65.628500 0.391200
65.750500 0.389600
65.872600 0.392700
65.994600 0.392000
66.116700 0.394100
66.238800 0.393800
66.360800 0.389900
66.482900 0.389300
66.604900 0.378500
66.727000 0.372100
66.849000 0.375100
66.971100 0.369900
67.093200 0.356800
67.215200 0.355000
67.337300 0.350900
67.459300 0.343400
67.581400 0.345000
67.703500 0.346600
67.825500 0.355000
67.947600 0.361700
68.069600 0.355900
68.191700 0.351700
68.313800 0.344000
68.435800 0.337100
68.557900 0.350300
68.679900 0.349400
68.802000 0.330900
68.924100 0.333300
69.046100 0.333400
69.168200 0.333100
69.290200 0.334300
69.412300 0.335900
69.534300 0.340200
69.656400 0.350600
69.778500 0.355200
69.900500 0.367000
70.022600 0.379500
70.144600 0.388800
70.266700 0.410500
70.388800 0.424000
70.510800 0.422300
70.632900 0.404100
70.754900 0.381200
70.877000 0.363900
70.999100 0.363500
71.121100 0.339600
71.243200 0.325000
71.365200 0.314000
71.487300 0.318200
71.609400 0.317300
71.731400 0.316900
71.853500 0.311300
71.975500 0.321300
72.097600 0.327100
72.219600 0.334900
72.341700 0.335000
72.463800 0.336400
72.585800 0.345300
72.707900 0.358000
72.829900 0.379000
72.952000 0.400400
73.074100 0.394500
73.196100 0.389400
73.318200 0.398900
73.440200 0.394500
73.562300 0.381400
73.684400 0.380900
73.806400 0.375900
73.928500 0.401400
74.050500 0.429700
74.172600 0.427300
74.294700 0.432300
74.416700 0.458100
74.538800 0.487500
74.660800 0.523600
74.782900 0.537400
74.905000 0.498700
75.027000 0.481400
75.149100 0.474400
75.271100 0.428600
75.393200 0.409600
75.515200 0.401800
75.637300 0.415300
75.759400 0.421900
75.881400 0.432600
76.003500 0.431800
76.125500 0.417000
76.247600 0.378600
76.369700 0.370700
76.491700 0.364500
76.613800 0.362300
76.735800 0.415100
76.857900 0.424300
76.980000 0.431600
77.102000 0.429900
77.224100 0.411100
77.346100 0.402700
77.468200 0.403000
77.590300 0.405700
77.712300 0.384700
77.834400 0.389300
77.956400 0.388600
78.078500 0.381600
78.200500 0.377000
78.322600 0.379200
78.444700 0.375800
78.566700 0.376100
78.688800 0.379100
78.810800 0.380400
78.932900 0.368900
79.055000 0.389100
79.177000 0.395700
79.299100 0.406300
79.421100 0.414100
79.543200 0.456300
79.665300 0.476600
79.787300 0.498000
79.909400 0.486000
80.031400 0.487300
80.153500 0.472400
80.275600 0.473500
80.397600 0.456500
80.519700 0.448400
80.641700 0.440000
80.763800 0.416600
80.885800 0.396500
81.007900 0.385600
81.130000 0.377800
81.252000 0.375700
81.374100 0.372900
81.496100 0.385400
81.618200 0.390100
81.740300 0.393300
81.862300 0.390700
81.984400 0.389800
82.106400 0.392900
82.228500 0.408100
82.350600 0.433600
82.472600 0.455600
82.594700 0.460500
82.716700 0.452200
82.838800 0.445000
82.960900 0.448700
83.082900 0.444800
83.205000 0.437300
83.327000 0.435100
83.449100 0.439800
83.571100 0.439400
83.693200 0.455500
83.815300 0.445900
83.937300 0.509600
84.059400 0.601000
84.181400 0.597200
84.303500 0.572200
84.425600 0.549500
84.547600 0.628400
84.669700 0.676700
84.791700 0.678100
84.913800 0.642200
85.035900 0.598000
85.157900 0.551200
85.280000 0.523200
85.402000 0.511600
85.524100 0.508200
85.646200 0.546800
85.768200 0.555900
85.890300 0.561100
86.012300 0.556500
86.134400 0.526600
86.256400 0.524400
86.378500 0.517200
86.500600 0.510900
86.622600 0.511700
86.744700 0.526900
86.866700 0.567000
86.988800 0.630200
87.110900 0.689900
87.232900 0.675200
87.355000 0.590900
87.477000 0.593500
87.599100 0.601100
87.721200 0.626700
87.843200 0.608800
87.965300 0.618600
88.087300 0.641200
88.209400 0.668900
88.331500 0.652600
88.453500 0.612900
88.575600 0.536000
88.697600 0.502400
88.819700 0.513000
88.941700 0.469600
89.063800 0.395500
89.185900 0.352000
89.307900 0.342700
89.430000 0.338300
89.552000 0.335100
89.674100 0.332400
89.796200 0.329800
89.918200 0.328900
90.040300 0.340100
90.162300 0.348700
90.284400 0.354300
90.406500 0.357500
90.528500 0.362800
90.650600 0.371600
90.772600 0.381900
90.894700 0.382800
91.016800 0.393000
91.138800 0.399500
91.260900 0.401700
91.382900 0.397400
91.505000 0.403700
91.627000 0.405800
91.749100 0.404900
91.871200 0.409100
91.993200 0.413100
92.115300 0.429600
92.237300 0.435200
92.359400 0.448700
92.481500 0.464800
92.603500 0.476500
92.725600 0.489500
92.847600 0.522600
92.969700 0.591700
93.091800 0.607000
93.213800 0.578100
93.335900 0.553700
93.457900 0.549500
93.580000 0.533900
93.702100 0.570700
93.824100 0.514500
93.946200 0.499800
94.068200 0.486400
94.190300 0.478600
94.312300 0.462500
94.434400 0.445700
94.556500 0.432300
94.678500 0.426000
94.800600 0.418100
94.922600 0.415500
95.044700 0.420500
95.166800 0.418600
95.288800 0.425400
95.410900 0.437400
95.532900 0.451500
95.655000 0.484400
95.777100 0.470300
95.899100 0.495100
96.021200 0.478100
96.143200 0.439200
96.265300 0.387700
96.387400 0.346900
96.509400 0.338500
96.631500 0.343200
96.753500 0.343000
96.875600 0.340400
96.997600 0.330400
97.119700 0.324700
97.241800 0.314900
97.363800 0.312800
97.485900 0.307700
97.607900 0.300400
97.730000 0.297400
97.852100 0.296400
97.974100 0.298600
98.096200 0.291600
98.218200 0.286500
98.340300 0.285100
98.462400 0.288000
98.584400 0.292600
98.706500 0.289000
98.828500 0.286700
98.950600 0.282100
99.072700 0.268800
99.194700 0.273600
99.316800 0.277900
99.438800 0.280900
99.560900 0.288500
99.683000 0.293200
99.805000 0.281700
99.927100 0.270500
100.049100 0.263600
100.171200 0.258900
100.293200 0.258600
100.415300 0.265800
100.537400 0.277600
100.659400 0.287700
100.781500 0.305900
100.903500 0.327900
101.025600 0.365200
101.147700 0.367600
101.269700 0.353500
101.391800 0.340300
101.513800 0.335000
101.635900 0.369500
101.758000 0.414300
101.880000 0.555300
102.002100 0.540000
102.124100 0.438600
102.246200 0.369600
102.368300 0.335000
102.490300 0.329400
102.612400 0.375300
102.734400 0.402900
102.856500 0.413700
102.978500 0.396300
103.100600 0.415100
103.222700 0.405500
103.344700 0.426500
103.466800 0.416600
103.588800 0.407000
103.710900 0.392800
103.833000 0.444100
103.955000 0.440800
104.077100 0.390300
104.199100 0.372200
104.321200 0.348000
104.443300 0.334100
104.565300 0.321100
104.687400 0.303500
104.809400 0.292200
104.931500 0.293200
105.053600 0.302100
105.175600 0.297200
105.297700 0.300000
105.419700 0.304500
105.541800 0.316500
105.663800 0.334900
105.785900 0.339300
105.908000 0.356600
106.030000 0.371700
106.152100 0.379600
106.274100 0.382000
106.396200 0.391900
106.518300 0.383700
106.640300 0.383900
106.762400 0.384600
106.884400 0.390900
107.006500 0.401900
107.128600 0.422900
107.250600 0.412300
107.372700 0.415800
107.494700 0.423800
107.616800 0.427400
107.738900 0.425000
107.860900 0.413800
107.983000 0.406700
108.105000 0.398100
108.227100 0.400200
108.349100 0.412100
108.471200 0.415600
108.593300 0.415100
108.715300 0.422300
108.837400 0.436300
108.959400 0.430200
109.081500 0.413000
109.203600 0.391600
109.325600 0.389600
109.447700 0.397400
109.569700 0.418400
109.691800 0.366500
109.813900 0.359000
109.935900 0.366700
110.058000 0.375600
110.180000 0.378700
110.302100 0.386000
110.424200 0.394700
110.546200 0.387800
110.668300 0.362100
110.790300 0.353500
110.912400 0.345500
111.034400 0.331500
111.156500 0.333400
111.278600 0.335000
111.400600 0.341600
111.522700 0.370100
111.644700 0.388700
111.766800 0.401100
111.888900 0.384700
112.010900 0.371300
112.133000 0.355700
112.255000 0.332600
112.377100 0.318500
112.499200 0.309400
112.621200 0.304700
112.743300 0.307200
112.865300 0.317900
112.987400 0.355400
113.109500 0.388900
113.231500 0.447100
113.353600 0.477900
113.475600 0.499300
113.597700 0.480900
113.719700 0.475100
113.841800 0.465600
113.963900 0.463200
114.085900 0.469900
114.208000 0.462300
114.330000 0.429300
114.452100 0.409400
114.574200 0.395200
114.696200 0.391500
114.818300 0.397900
114.940300 0.377500
115.062400 0.380700
115.184500 0.370100
115.306500 0.351800
115.428600 0.354200
115.550600 0.354900
115.672700 0.432300
115.794800 0.512200
115.916800 0.487400
116.038900 0.456300
116.160900 0.464000
116.283000 0.439500
116.405000 0.413500
116.527100 0.406800
116.649200 0.409700
116.771200 0.405800
116.893300 0.395800
117.015300 0.394800
117.137400 0.408800
117.259500 0.407700
117.381500 0.421600
117.503600 0.436200
117.625600 0.454200
117.747700 0.468300
117.869800 0.512300
117.991800 0.538000
118.113900 0.520800
118.235900 0.472800
118.358000 0.464000
118.480100 0.466600
118.602100 0.459600
118.724200 0.445500
118.846200 0.431700
118.968300 0.418700
119.090300 0.420600
119.212400 0.424900
119.334500 0.424600
119.456500 0.416200
119.578600 0.387700
119.700600 0.372800
119.822700 0.367100
119.944800 0.367200
120.066800 0.367500
120.188900 0.371000
120.310900 0.383400
120.433000 0.394400
120.555100 0.395200
120.677100 0.396900
120.799200 0.414900
120.921200 0.416200
121.043300 0.429800
121.165400 0.429500
121.287400 0.432400
121.409500 0.444100
121.531500 0.424100
121.653600 0.449500
121.775600 0.433700
121.897700 0.441600
122.019800 0.433100
122.141800 0.411600
122.263900 0.400500
122.385900 0.391500
122.508000 0.378900
122.630100 0.376600
122.752100 0.387900
122.874200 0.391500
122.996200 0.389100
123.118300 0.390100
123.240400 0.393000
123.362400 0.400500
123.484500 0.404700
123.606500 0.391700
123.728600 0.390100
123.850700 0.390100
123.972700 0.392600
124.094800 0.395200
124.216800 0.379700
124.338900 0.375600
124.461000 0.368600
124.583000 0.365600
124.705100 0.367400
124.827100 0.366800
124.949200 0.366400
125.071200 0.366000
125.193300 0.365700
125.315400 0.367500
125.437400 0.370700
125.559500 0.379300
125.681500 0.363200
125.803600 0.364500
125.925700 0.369600
126.047700 0.374600
126.169800 0.376100
126.291800 0.367800
126.413900 0.366800
126.536000 0.363900
126.658000 0.356700
126.780100 0.357000
126.902100 0.361700
127.024200 0.367400
127.146300 0.372700
127.268300 0.375800
127.390400 0.388200
127.512400 0.388500
127.634500 0.391700
127.756500 0.395600
127.878600 0.406000
128.000700 0.409100
128.122700 0.413200
128.244800 0.422900
128.366800 0.432600
128.488900 0.446900
128.611000 0.469300
128.733000 0.516500
128.855100 0.574600
128.977100 0.560300
129.099200 0.515400
129.221300 0.545800
129.343300 0.543000
129.465400 0.558300
129.587400 0.518700
129.709500 0.590200
129.831600 0.596900
129.953600 0.568100
130.075700 0.512600
130.197700 0.498300
130.319800 0.478400
130.441800 0.457000
130.563900 0.429500
130.686000 0.414800
130.808000 0.423400
130.930100 0.427700
131.052100 0.416400
131.174200 0.416000
131.296300 0.441100
131.418300 0.419300
131.540400 0.418000
131.662400 0.402800
131.784500 0.395400
131.906600 0.392500
132.028600 0.398200
132.150700 0.402500
132.272700 0.416000
132.394800 0.446500
132.516900 0.481100
132.638900 0.571100
132.761000 0.640600
132.883000 0.606200
133.005100 0.519200
133.127100 0.465500
133.249200 0.447000
133.371300 0.473500
133.493300 0.464500
133.615400 0.463100
133.737400 0.442800
133.859500 0.435200
133.981600 0.431600
134.103600 0.425800
134.225700 0.426100
134.347700 0.427500
134.469800 0.425600
134.591900 0.425200
134.713900 0.419800
134.836000 0.419200
134.958000 0.424300
135.080100 0.438500
135.202200 0.450600
135.324200 0.459600
135.446300 0.472100
135.568300 0.458400
135.690400 0.435700
135.812400 0.434400
135.934500 0.432800
136.056600 0.441400
136.178600 0.440000
136.300700 0.433000
136.422700 0.432400
136.544800 0.432000
136.666900 0.448200
136.788900 0.452400
136.911000 0.460300
137.033000 0.464000
137.155100 0.480900
137.277200 0.509200
137.399200 0.508700
137.521300 0.505500
137.643300 0.512700
137.765400 0.506000
137.887500 0.497600
138.009500 0.494200
138.131600 0.475200
138.253600 0.464200
138.375700 0.467600
138.497700 0.484300
138.619800 0.529500
138.741900 0.493300
138.863900 0.496700
138.986000 0.508200
139.108000 0.454300
139.230100 0.440700
139.352200 0.430900
139.474200 0.447000
139.596300 0.475500
139.718300 0.493700
139.840400 0.510100
139.962500 0.524400
140.084500 0.544600
140.206600 0.564500
140.328600 0.597100
140.450700 0.602900
140.572800 0.605300
140.694800 0.609800
140.816900 0.653800
140.938900 0.596900
141.061000 0.521400
141.183000 0.517400
141.305100 0.568400
141.427200 0.649300
141.549200 0.552700
141.671300 0.470000
141.793300 0.426100
141.915400 0.409800
142.037500 0.396700
142.159500 0.390000
142.281600 0.385300
142.403600 0.383500
142.525700 0.391700
142.647800 0.413800
142.769800 0.443000
142.891900 0.467200
143.013900 0.438400
143.136000 0.390200
143.258100 0.394900
143.380100 0.409300
143.502200 0.434500
143.624200 0.408100
143.746300 0.400900
143.868300 0.398700
143.990400 0.394500
144.112500 0.380400
144.234500 0.380400
144.356600 0.384200
144.478600 0.386800
144.600700 0.396000
144.722800 0.413400
144.844800 0.443200
144.966900 0.450400
145.088900 0.424200
145.211000 0.412200
145.333100 0.402800
145.455100 0.396600
145.577200 0.396100
145.699200 0.396800
145.821300 0.404900
145.943400 0.420600
146.065400 0.411600
146.187500 0.408800
146.309500 0.416100
146.431600 0.429300
146.553600 0.443100
146.675700 0.471100
146.797800 0.497800
146.919800 0.483300
147.041900 0.441800
147.163900 0.426200
147.286000 0.411100
147.408100 0.399700
147.530100 0.394500
147.652200 0.395900
147.774200 0.401500
147.896300 0.382600
148.018400 0.371700
148.140400 0.372300
148.262500 0.378400
148.384500 0.391900
148.506600 0.410300
148.628700 0.390700
148.750700 0.383000
148.872800 0.382300
148.994800 0.379400
149.116900 0.374900
149.239000 0.369500
149.361000 0.374700
149.483100 0.371700
149.605100 0.374900
149.727200 0.378100
149.849200 0.379400
149.971300 0.388300
150.093400 0.397300
150.215400 0.403600
150.337500 0.414400
150.459500 0.417200
150.581600 0.418400
150.703700 0.416000
150.825700 0.421700
150.947800 0.427300
151.069800 0.424400
151.191900 0.421000
151.314000 0.430200
151.436000 0.435700
151.558100 0.437200
151.680100 0.434500
151.802200 0.430900
151.924300 0.438500
152.046300 0.447200
152.168400 0.461400
152.290400 0.447700
152.412500 0.441100
152.534500 0.420800
152.656600 0.409600
152.778700 0.403000
152.900700 0.403700
153.022800 0.433000
153.144800 0.418500
153.266900 0.441500
153.389000 0.439800
153.511000 0.431600
153.633100 0.430600
153.755100 0.440600
153.877200 0.449700
153.999300 0.456200
154.121300 0.451800
154.243400 0.456200
154.365400 0.460700
154.487500 0.464900
154.609600 0.451300
154.731600 0.441600
154.853700 0.434500
154.975700 0.450600
155.097800 0.450100
155.219800 0.455600
155.341900 0.466400
155.464000 0.450500
155.586000 0.450200
155.708100 0.447900
155.830100 0.455200
155.952200 0.475800
156.074300 0.470900
156.196300 0.467300
156.318400 0.469400
156.440400 0.494800
156.562500 0.516500
156.684600 0.502700
156.806600 0.490800
156.928700 0.491000
157.050700 0.487800
157.172800 0.486600
157.294900 0.501300
157.416900 0.495400
157.539000 0.512300
157.661000 0.523400
157.783100 0.537800
157.905100 0.545900
158.027200 0.530600
158.149300 0.517600
158.271300 0.526900
158.393400 0.522500
158.515400 0.522500
158.637500 0.513500
158.759600 0.497900
158.881600 0.485500
159.003700 0.464200
159.125700 0.434900
159.247800 0.424600
159.369900 0.427000
159.491900 0.425000
159.614000 0.435200
159.736000 0.452900
159.858100 0.475000
159.980200 0.484200
160.102200 0.500100
160.224300 0.525400
160.346300 0.540900
160.468400 0.556000
160.590400 0.560300
160.712500 0.555600
160.834600 0.561300
160.956600 0.571500
161.078700 0.576200
161.200700 0.580900
161.322800 0.570200
161.444900 0.562900
161.566900 0.561000
161.689000 0.565300
161.811000 0.544400
161.933100 0.536800
162.055200 0.556400
162.177200 0.587500
162.299300 0.600200
162.421300 0.584400
162.543400 0.551200
162.665500 0.514600
162.787500 0.516700
162.909600 0.500000
163.031600 0.497500
163.153700 0.470700
163.275700 0.451800
163.397800 0.442800
163.519900 0.438800
163.641900 0.457900
163.764000 0.491900
163.886000 0.500400
164.008100 0.516400
164.130200 0.520100
164.252200 0.507400
164.374300 0.514300
164.496300 0.519900
164.618400 0.496600
164.740500 0.459500
164.862500 0.444900
164.984600 0.466500
165.106600 0.525700
165.228700 0.548000
165.350800 0.539100
165.472800 0.551800
165.594900 0.574500
165.716900 0.570100
165.839000 0.583200
165.961000 0.578600
166.083100 0.574800
166.205200 0.564900
166.327200 0.545400
166.449300 0.554200
166.571300 0.554200
166.693400 0.545100
166.815500 0.538900
166.937500 0.515100
167.059600 0.498900
167.181600 0.487100
167.303700 0.489100
167.425800 0.476400
167.547800 0.480300
167.669900 0.468900
167.791900 0.463500
167.914000 0.457200
168.036100 0.469000
168.158100 0.471800
168.280200 0.455600
168.402200 0.451400
168.524300 0.445300
168.646300 0.443400
168.768400 0.441200
168.890500 0.436400
169.012500 0.446500
169.134600 0.460800
169.256600 0.478300
169.378700 0.489300
169.500800 0.492900
169.622800 0.497000
169.744900 0.479400
169.866900 0.466500
169.989000 0.466800
170.111100 0.474700
170.233100 0.467000
170.355200 0.468400
170.477200 0.456800
170.599300 0.439800
170.721400 0.419900
170.843400 0.419600
170.965500 0.415300
171.087500 0.427700
171.209600 0.427100
171.331600 0.430700
171.453700 0.425700
171.575800 0.418600
171.697800 0.424800
171.819900 0.437400
171.941900 0.443600
172.064000 0.454300
172.186100 0.474500
172.308100 0.477600
172.430200 0.472000
172.552200 0.474900
172.674300 0.475000
172.796400 0.477800
172.918400 0.484000
173.040500 0.465200
173.162500 0.465000
173.284600 0.475900
173.406700 0.494500
173.528700 0.515100
173.650800 0.524700
173.772800 0.526900
173.894900 0.505000
174.016900 0.486400
174.139000 0.461900
174.261100 0.456600
174.383100 0.434200
174.505200 0.458900
174.627200 0.479800
174.749300 0.481100
174.871400 0.496000
174.993400 0.503500
175.115500 0.505500
175.237500 0.516200
175.359600 0.527200
175.481700 0.534700
175.603700 0.526600
175.725800 0.512400
175.847800 0.509800
175.969900 0.492300
176.092000 0.470000
176.214000 0.448200
176.336100 0.445300
176.458100 0.473900
176.580200 0.454300
176.702300 0.472700
176.824300 0.481100
176.946400 0.472600
177.068400 0.467400
177.190500 0.462400
177.312500 0.463200
177.434600 0.473200
177.556700 0.469100
177.678700 0.454600
177.800800 0.454600
177.922800 0.451800
178.044900 0.450700
178.167000 0.454800
178.289000 0.458200
178.411100 0.460300
178.533100 0.470100
178.655200 0.483500
178.777300 0.492800
178.899300 0.483600
179.021400 0.469600
179.143400 0.468800
179.265500 0.476900
179.387600 0.486900
179.509600 0.487800
179.631700 0.483600
179.753700 0.482600
179.875800 0.491000
179.997800 0.486200
180.119900 0.489500
180.242000 0.487000
180.364000 0.470400
180.486100 0.467200
180.608100 0.469400
180.730200 0.481200
180.852300 0.507800
180.974300 0.543500
181.096400 0.548600
181.218400 0.548000
181.340500 0.522900
181.462600 0.502000
181.584600 0.497400
181.706700 0.497000
181.828700 0.492400
181.950800 0.480500
182.072900 0.481600
182.194900 0.468900
182.317000 0.473800
182.439000 0.490300
182.561100 0.501600
182.683100 0.509800
182.805200 0.500800
182.927300 0.499900
183.049300 0.458700
183.171400 0.430100
183.293400 0.430600
183.415500 0.446000
183.537600 0.465100
183.659600 0.483600
183.781700 0.503900
183.903700 0.514800
184.025800 0.524300
184.147900 0.519300
184.269900 0.525700
184.392000 0.527000
184.514000 0.526900
184.636100 0.514500
184.758200 0.505200
184.880200 0.497000
185.002300 0.488200
185.124300 0.482300
185.246400 0.475700
185.368400 0.471500
185.490500 0.464900
185.612600 0.464500
185.734600 0.461800
185.856700 0.457300
185.978700 0.451700
186.100800 0.461500
186.222900 0.484200
186.344900 0.492400
186.467000 0.491900
186.589000 0.480600
186.711100 0.472600
186.833200 0.467800
186.955200 0.462200
187.077300 0.464300
187.199300 0.466100
187.321400 0.474500
187.443500 0.471700
187.565500 0.466800
187.687600 0.467800
187.809600 0.464000
187.931700 0.461300
188.053700 0.464700
188.175800 0.468900
188.297900 0.473300
188.419900 0.482000
188.542000 0.503600
188.664000 0.502600
188.786100 0.512800
188.908200 0.531700
189.030200 0.538100
189.152300 0.521500
189.274300 0.506900
189.396400 0.497700
189.518500 0.482200
189.640500 0.473300
189.762600 0.486300
189.884600 0.507900
190.006700 0.491700
190.128800 0.485300
190.250800 0.487800
190.372900 0.479200
190.494900 0.466000
190.617000 0.462000
190.739000 0.453200
190.861100 0.437100
190.983200 0.425900
191.105200 0.421900
191.227300 0.428000
191.349300 0.453100
191.471400 0.469100
191.593500 0.478400
191.715500 0.473900
191.837600 0.467500
191.959600 0.460300
192.081700 0.472100
192.203800 0.474000
192.325800 0.483600
192.447900 0.490400
192.569900 0.496000
192.692000 0.501000
192.814100 0.518900
192.936100 0.512100
193.058200 0.518100
193.180200 0.535300
193.302300 0.527000
193.424300 0.516300
193.546400 0.513600
193.668500 0.521800
193.790500 0.524000
193.912600 0.522200
194.034600 0.521400
194.156700 0.513600
194.278800 0.505300
194.400800 0.495200
194.522900 0.493700
194.644900 0.497300
194.767000 0.512700
194.889100 0.512600
195.011100 0.512000
195.133200 0.504800
195.255200 0.529300
195.377300 0.542900
195.499400 0.557200
195.621400 0.548000
195.743500 0.541900
195.865500 0.521100
195.987600 0.505800
196.109600 0.493000
196.231700 0.490300
196.353800 0.501100
196.475800 0.509500
196.597900 0.512700
196.719900 0.530500
196.842000 0.538600
196.964100 0.542000
197.086100 0.538800
197.208200 0.524900
197.330200 0.513600
197.452300 0.513200
197.574400 0.515800
197.696400 0.509800
197.818500 0.488400
197.940500 0.487500
198.062600 0.503700
198.184700 0.525100
198.306700 0.530900
198.428800 0.526100
198.550800 0.507600
198.672900 0.493100
198.794900 0.476100
198.917000 0.467500
199.039100 0.426500
199.161100 0.376300
199.283200 0.336800
199.405200 0.310100
199.527300 0.291000
199.649400 0.291000
199.771400 0.260600
199.893500 0.249500
200.015500 0.243300
200.137600 0.234600
200.259700 0.229800
200.381700 0.225600
200.503800 0.220600
200.625800 0.216000
200.747900 0.211500
200.870000 0.206800
200.992000 0.201300
201.114100 0.196500
201.236100 0.190800
201.358200 0.185300
201.480300 0.180800
201.602300 0.178600
201.724400 0.177700
201.846400 0.174900
201.968500 0.173900
202.090500 0.175400
202.212600 0.175000
202.334700 0.173800
202.456700 0.165900
202.578800 0.162500
202.700800 0.159200
202.822900 0.155400
202.945000 0.151700
203.067000 0.147500
203.189100 0.141900
203.311100 0.138000
203.433200 0.134500
203.555300 0.133400
203.677300 0.131000
203.799400 0.128600
203.921400 0.128800
204.043500 0.128600
204.165600 0.127300
204.287600 0.125900
204.409700 0.124400
204.531700 0.123600
204.653800 0.123300
204.775800 0.125200
204.897900 0.123900
205.020000 0.122100
205.142000 0.114800
205.264100 0.112300
205.386100 0.107900
205.508200 0.104400
205.630300 0.102100
205.752300 0.100200
205.874400 0.098000
205.996400 0.097500
206.118500 0.096300
206.240600 0.094600
206.362600 0.094000
206.484700 0.092800
206.606700 0.088500
206.728800 0.089500
206.850900 0.083600
206.972900 0.081100
207.095000 0.079700
207.217000 0.078500
207.339100 0.077400
207.461100 0.076600
207.583200 0.076200
207.705300 0.076100
207.827300 0.077100
207.949400 0.075200
208.071400 0.075300
208.193500 0.069200
208.315600 0.065300
208.437600 0.060000
208.559700 0.057700
208.681700 0.056600
208.803800 0.051300
208.925900 0.043900
209.047900 0.040900
209.170000 0.041000
209.292000 0.039300
209.414100 0.037600
209.536200 0.035900
209.658200 0.034900
209.780300 0.033500
209.902300 0.033000
210.024400 0.033200
210.146400 0.033100
210.268500 0.033400
210.390600 0.034400
210.512600 0.035500
210.634700 0.034100
210.756700 0.037500
210.878800 0.033300
211.000900 0.028900
211.122900 0.030800
211.245000 0.037900
211.367000 0.018400
211.489100 0.017200
211.611200 0.019200
211.733200 0.018800
211.855300 0.013500
211.977300 0.010500
212.099400 0.009500
212.221500 0.008800
212.343500 0.007300
212.465600 0.007100
212.587600 0.006800
212.709700 0.006500
212.831700 0.006200
212.953800 0.006000
213.075900 0.005800
213.197900 0.004700
213.320000 0.004000
213.442000 0.003600
213.564100 0.003300
213.686200 0.003100
213.808200 0.003000
213.930300 0.002900
214.052300 0.002700
214.174400 0.002800
214.296500 0.002500
214.418500 0.002400
214.540600 0.002300
214.662600 0.002100
214.784700 0.002000
214.906800 0.001900
215.028800 0.001800
215.150900 0.001600
215.272900 0.001500
215.395000 0.001300
215.517000 0.001800
215.639100 0.001500
215.761200 0.001300
215.883200 0.003700
216.005300 0.000500
216.127300 0.000400
216.249400 0.000400
216.371500 0.000300
216.493500 0.000300
216.615600 0.000200
216.737600 0.000200
216.859700 0.000200
216.981800 0.000100
217.103800 0.000100
217.225900 0.000100
217.347900 0.000100
217.470000 0.000000
217.592100 0.000000
217.714100 0.000000
217.836200 0.000000
217.958200 0.000000
218.080300 0.000000
218.202300 0.000000
218.324400 0.000000
218.446500 0.000000
218.568500 0.000000
218.690600 0.000000
218.812600 0.000000
218.934700 0.000000
219.056800 0.000000
219.178800 0.000000
219.300900 0.000000
219.422900 0.000000
219.545000 0.000000
219.667100 0.000000
219.789100 0.000000
219.911200 0.000000
220.033200 0.000000
220.155300 0.000000
220.277400 0.000000
220.399400 0.000000
220.521500 0.000000
220.643500 0.000000
220.765600 0.000000
220.887600 0.000000
221.009700 0.000000
221.131800 0.000000
221.253800 0.000000
221.375900 0.000000
221.497900 0.000000
221.620000 0.000000
221.742100 0.000000
221.864100 0.000000
221.986200 0.000000
222.108200 0.000000
222.230300 0.000000
222.352400 0.000000
222.474400 0.000000
222.596500 0.000000
222.718500 0.000000
222.840600 0.000000
222.962700 0.000000
223.084700 0.000000
223.206800 0.000000
223.328800 0.000000
223.450900 0.000000
223.572900 0.000000
223.695000 0.000000
223.817100 0.000000
223.939100 0.000000
224.061200 0.000000
224.183200 0.000000
224.305300 0.000000
224.427400 0.000000
224.549400 0.000000
224.671500 0.000000
224.793500 0.000000
224.915600 0.000000
225.037700 0.000000
225.159700 0.000000
225.281800 0.000000
225.403800 0.000000
225.525900 0.000000
225.648000 0.000000
225.770000 0.000000
225.892100 0.000000
226.014100 0.000000
226.136200 0.000000
226.258300 0.000000
226.380300 0.000000
226.502400 0.000000
226.624400 0.000000
226.746500 0.000000
226.868500 0.000000
226.990600 0.000000
227.112700 0.000000
227.234700 0.000000
227.356800 0.000000
227.478800 0.000000
227.600900 0.000000
227.723000 0.000000
227.845000 0.000000
227.967100 0.000000
228.089100 0.000000
228.211200 0.000000
228.333300 0.000000
228.455300 0.000000
228.577400 0.000000
228.699400 0.000000
228.821500 0.000000
228.943600 0.000000
229.065600 0.000000
229.187700 0.000000
229.309700 0.000000
229.431800 0.000000
229.553800 0.000000
e
