set title 'mp-556395 - Density of States'
set xlabel 'Energy (eV)'
set ylabel 'DOS (states/eV)'
set grid
set xrange [-10:10]
set yrange [0:167.176]
set xzeroaxis lt -1
set terminal png size 800,600
set output 'mp-556395_dos_gnuplot.png'
plot '-' using 1:2 with lines title 'DOS'
-12.602400 0.000000
-12.586500 0.000000
-12.570600 0.000000
-12.554700 0.000000
-12.538900 0.000000
-12.523000 0.000000
-12.507100 0.000000
-12.491200 0.000000
-12.475300 0.000000
-12.459400 0.000000
-12.443500 0.000000
-12.427700 0.000000
-12.411800 0.000000
-12.395900 0.000000
-12.380000 0.000000
-12.364100 0.000000
-12.348200 0.000000
-12.332300 0.000000
-12.316500 0.000000
-12.300600 0.000000
-12.284700 0.000000
-12.268800 0.000000
-12.252900 0.000000
-12.237000 0.000000
-12.221100 0.000000
-12.205300 0.000000
-12.189400 0.000000
-12.173500 0.000000
-12.157600 0.000000
-12.141700 0.000000
-12.125800 0.000000
-12.109900 0.000000
-12.094100 0.000000
-12.078200 0.000000
-12.062300 0.000000
-12.046400 0.000000
-12.030500 0.000000
-12.014600 0.000000
-11.998700 0.000000
-11.982900 0.000000
-11.967000 0.000000
-11.951100 0.000000
-11.935200 0.000000
-11.919300 0.000000
-11.903400 0.000000
-11.887500 0.000000
-11.871700 0.000000
-11.855800 0.000000
-11.839900 0.000000
-11.824000 0.000000
-11.808100 0.000000
-11.792200 0.000000
-11.776300 0.000000
-11.760500 0.000000
-11.744600 0.000000
-11.728700 0.000000
-11.712800 0.000000
-11.696900 0.000000
-11.681000 0.000000
-11.665100 0.000000
-11.649300 0.000000
-11.633400 0.000000
-11.617500 0.000000
-11.601600 0.000000
-11.585700 0.000000
-11.569800 0.000000
-11.553900 0.000000
-11.538100 0.000000
-11.522200 0.000000
-11.506300 0.000000
-11.490400 0.000000
-11.474500 0.000000
-11.458600 0.000000
-11.442700 0.000000
-11.426900 0.000000
-11.411000 0.000000
-11.395100 0.000000
-11.379200 0.000000
-11.363300 0.000000
-11.347400 0.000000
-11.331500 0.000000
-11.315700 0.000000
-11.299800 0.000000
-11.283900 0.000000
-11.268000 0.000000
-11.252100 0.000000
-11.236200 0.000000
-11.220300 0.000000
-11.204500 0.000000
-11.188600 0.000000
-11.172700 0.000000
-11.156800 0.021900
-11.140900 0.262800
-11.125000 0.503600
-11.109100 0.744500
-11.093300 0.985300
-11.077400 1.226200
-11.061500 1.467000
-11.045600 1.707900
-11.029700 1.081800
-11.013800 1.112000
-10.997900 1.326400
-10.982100 1.619000
-10.966200 1.911500
-10.950300 2.204100
-10.934400 2.496700
-10.918500 2.891700
-10.902600 3.442200
-10.886700 3.110000
-10.870900 3.432200
-10.855000 3.754400
-10.839100 4.076700
-10.823200 4.398900
-10.807300 4.721100
-10.791400 4.020200
-10.775500 4.109100
-10.759700 4.197900
-10.743800 4.286800
-10.727900 4.375600
-10.712000 4.464500
-10.696100 4.562600
-10.680200 4.893200
-10.664300 5.686100
-10.648500 6.487800
-10.632600 7.289500
-10.616700 8.091200
-10.600800 8.892900
-10.584900 8.700000
-10.569000 8.163200
-10.553100 8.377800
-10.537300 8.592400
-10.521400 8.806900
-10.505500 9.021500
-10.489600 9.237300
-10.473700 9.461300
-10.457800 10.011100
-10.441900 10.456500
-10.426100 10.901900
-10.410200 11.347300
-10.394300 11.926500
-10.378400 13.045800
-10.362500 15.788300
-10.346600 16.943500
-10.330700 18.138200
-10.314900 18.094500
-10.299000 18.791500
-10.283100 19.489400
-10.267200 21.247800
-10.251300 21.585600
-10.235400 22.505500
-10.219500 23.425300
-10.203700 19.197900
-10.187800 22.631300
-10.171900 23.892200
-10.156000 25.602100
-10.140100 20.900600
-10.124200 25.322700
-10.108300 28.472200
-10.092500 34.049300
-10.076600 25.725900
-10.060700 30.725700
-10.044800 26.131400
-10.028900 25.339500
-10.013000 18.827900
-9.997100 17.077500
-9.981300 15.327100
-9.965400 15.793700
-9.949500 20.290200
-9.933600 30.604500
-9.917700 16.037600
-9.901800 14.755300
-9.885900 5.240900
-9.870100 5.668700
-9.854200 6.096500
-9.838300 6.524300
-9.822400 20.146200
-9.806500 30.126100
-9.790600 0.000000
-9.774700 0.000000
-9.758900 0.000000
-9.743000 0.000000
-9.727100 0.000000
-9.711200 0.000000
-9.695300 0.000000
-9.679400 0.000000
-9.663500 0.000000
-9.647700 0.000000
-9.631800 0.000000
-9.615900 0.000000
-9.600000 0.000000
-9.584100 0.000000
-9.568200 0.000000
-9.552300 0.000000
-9.536500 0.000000
-9.520600 0.000000
-9.504700 0.000000
-9.488800 0.000000
-9.472900 0.000000
-9.457000 0.000000
-9.441100 0.000000
-9.425300 0.000000
-9.409400 0.000000
-9.393500 0.000000
-9.377600 0.000000
-9.361700 0.000000
-9.345800 0.000000
-9.329900 0.000000
-9.314100 0.000000
-9.298200 0.000000
-9.282300 0.000000
-9.266400 0.000000
-9.250500 0.000000
-9.234600 0.000000
-9.218700 0.000000
-9.202900 0.000000
-9.187000 0.000000
-9.171100 0.000000
-9.155200 0.000000
-9.139300 0.000000
-9.123400 0.000000
-9.107500 0.000000
-9.091700 0.000000
-9.075800 0.000000
-9.059900 0.000000
-9.044000 0.000000
-9.028100 0.000000
-9.012200 0.000000
-8.996300 0.000000
-8.980500 0.000000
-8.964600 0.000000
-8.948700 0.000000
-8.932800 0.000000
-8.916900 0.000000
-8.901000 0.000000
-8.885100 0.000000
-8.869300 0.000000
-8.853400 0.000000
-8.837500 0.000000
-8.821600 0.000000
-8.805700 0.000000
-8.789800 0.000000
-8.773900 0.000000
-8.758100 0.000000
-8.742200 0.000000
-8.726300 0.000000
-8.710400 0.000000
-8.694500 0.000000
-8.678600 0.000000
-8.662800 0.000000
-8.646900 0.000000
-8.631000 0.000000
-8.615100 0.000000
-8.599200 0.000000
-8.583300 0.000000
-8.567400 0.000000
-8.551600 0.000000
-8.535700 0.000000
-8.519800 0.000000
-8.503900 0.000000
-8.488000 0.000000
-8.472100 0.000000
-8.456200 0.000000
-8.440400 0.000000
-8.424500 0.000000
-8.408600 0.000000
-8.392700 0.000000
-8.376800 0.000000
-8.360900 0.000000
-8.345000 0.000000
-8.329200 0.000000
-8.313300 0.000000
-8.297400 0.000000
-8.281500 0.000000
-8.265600 0.000000
-8.249700 0.000000
-8.233800 0.000000
-8.218000 0.000000
-8.202100 0.000000
-8.186200 0.000000
-8.170300 0.000000
-8.154400 0.000000
-8.138500 0.000000
-8.122600 0.000000
-8.106800 0.000000
-8.090900 0.000000
-8.075000 0.000000
-8.059100 0.000000
-8.043200 0.000000
-8.027300 0.000000
-8.011400 0.000000
-7.995600 0.000000
-7.979700 0.000000
-7.963800 0.000000
-7.947900 0.000000
-7.932000 0.000000
-7.916100 0.000000
-7.900200 0.000000
-7.884400 0.000000
-7.868500 0.000000
-7.852600 0.000000
-7.836700 0.000000
-7.820800 0.000000
-7.804900 0.000000
-7.789000 0.000000
-7.773200 0.000000
-7.757300 0.000000
-7.741400 0.000000
-7.725500 0.000000
-7.709600 0.000000
-7.693700 0.000000
-7.677800 0.000000
-7.662000 0.000000
-7.646100 0.000000
-7.630200 0.000000
-7.614300 0.000000
-7.598400 0.000000
-7.582500 0.000000
-7.566600 0.000000
-7.550800 0.000000
-7.534900 0.000000
-7.519000 0.000000
-7.503100 0.000000
-7.487200 0.000000
-7.471300 0.000000
-7.455400 0.000000
-7.439600 0.000000
-7.423700 0.000000
-7.407800 0.000000
-7.391900 0.000000
-7.376000 0.000000
-7.360100 0.000000
-7.344200 0.000000
-7.328400 0.000000
-7.312500 0.000000
-7.296600 0.000000
-7.280700 0.000000
-7.264800 0.000000
-7.248900 0.000000
-7.233000 0.000000
-7.217200 0.000000
-7.201300 0.000000
-7.185400 0.000000
-7.169500 0.000000
-7.153600 0.000000
-7.137700 0.000000
-7.121800 0.000000
-7.106000 0.000000
-7.090100 0.000000
-7.074200 0.000000
-7.058300 0.000000
-7.042400 0.000000
-7.026500 0.000000
-7.010600 0.000000
-6.994800 0.000000
-6.978900 0.000000
-6.963000 0.000000
-6.947100 0.000000
-6.931200 0.000000
-6.915300 0.000000
-6.899400 0.000000
-6.883600 0.000000
-6.867700 0.000000
-6.851800 0.000000
-6.835900 0.000000
-6.820000 0.000000
-6.804100 0.000000
-6.788200 0.000000
-6.772400 0.000000
-6.756500 0.000000
-6.740600 0.000000
-6.724700 0.000000
-6.708800 0.000000
-6.692900 0.000000
-6.677000 0.000000
-6.661200 0.000000
-6.645300 0.000000
-6.629400 0.000000
-6.613500 0.000000
-6.597600 0.000000
-6.581700 0.000000
-6.565800 0.000000
-6.550000 0.000000
-6.534100 0.000000
-6.518200 0.000000
-6.502300 0.000000
-6.486400 0.000000
-6.470500 0.000000
-6.454600 0.000000
-6.438800 0.000000
-6.422900 0.000000
-6.407000 0.000000
-6.391100 0.000000
-6.375200 0.000000
-6.359300 0.000000
-6.343400 0.000000
-6.327600 0.000000
-6.311700 0.000000
-6.295800 0.000000
-6.279900 0.000000
-6.264000 0.000000
-6.248100 0.000000
-6.232200 0.000000
-6.216400 0.000000
-6.200500 0.000000
-6.184600 0.000000
-6.168700 0.000000
-6.152800 0.000000
-6.136900 0.000000
-6.121000 0.000000
-6.105200 0.000000
-6.089300 0.000000
-6.073400 0.000000
-6.057500 0.000000
-6.041600 0.000000
-6.025700 0.000000
-6.009800 0.000000
-5.994000 0.000000
-5.978100 0.000000
-5.962200 0.000000
-5.946300 0.000000
-5.930400 0.000000
-5.914500 0.000000
-5.898600 0.000000
-5.882800 0.000000
-5.866900 0.000000
-5.851000 0.000000
-5.835100 0.000000
-5.819200 0.000000
-5.803300 0.000000
-5.787400 0.000000
-5.771600 0.000000
-5.755700 0.000000
-5.739800 0.000000
-5.723900 0.000000
-5.708000 0.000000
-5.692100 0.000000
-5.676200 0.000000
-5.660400 0.000000
-5.644500 0.000000
-5.628600 0.000000
-5.612700 0.000000
-5.596800 0.000000
-5.580900 0.000000
-5.565000 0.000000
-5.549200 0.000000
-5.533300 0.000000
-5.517400 0.000000
-5.501500 0.000000
-5.485600 0.000000
-5.469700 0.000000
-5.453800 0.000000
-5.438000 0.000000
-5.422100 0.000000
-5.406200 0.000000
-5.390300 0.000000
-5.374400 0.000000
-5.358500 0.000000
-5.342600 0.000000
-5.326800 0.000000
-5.310900 0.000000
-5.295000 0.000000
-5.279100 0.000000
-5.263200 0.000000
-5.247300 0.000000
-5.231400 0.000000
-5.215600 0.000000
-5.199700 0.000000
-5.183800 0.000000
-5.167900 0.000000
-5.152000 0.000000
-5.136100 0.000000
-5.120200 0.000000
-5.104400 0.000000
-5.088500 0.000000
-5.072600 0.000000
-5.056700 0.000000
-5.040800 0.000000
-5.024900 0.000000
-5.009000 0.000000
-4.993200 0.000000
-4.977300 0.000000
-4.961400 0.000000
-4.945500 0.000000
-4.929600 0.000000
-4.913700 0.000000
-4.897800 0.000000
-4.882000 0.000000
-4.866100 0.000000
-4.850200 0.000000
-4.834300 0.000000
-4.818400 0.000000
-4.802500 0.000000
-4.786600 0.000000
-4.770800 0.000000
-4.754900 0.000000
-4.739000 0.000000
-4.723100 0.000000
-4.707200 0.000000
-4.691300 0.000000
-4.675400 0.000000
-4.659600 0.000000
-4.643700 0.000000
-4.627800 0.000000
-4.611900 0.000000
-4.596000 0.000000
-4.580100 0.000000
-4.564200 0.000000
-4.548400 0.000000
-4.532500 0.000000
-4.516600 29.543800
-4.500700 51.513100
-4.484800 48.333000
-4.468900 54.145800
-4.453000 63.972800
-4.437200 64.285600
-4.421300 113.029400
-4.405400 69.367500
-4.389500 89.404200
-4.373600 79.731400
-4.357700 100.847600
-4.341800 79.488000
-4.326000 91.899800
-4.310100 82.411500
-4.294200 84.688600
-4.278300 73.492000
-4.262400 67.260600
-4.246500 67.363300
-4.230600 92.871400
-4.214800 106.929200
-4.198900 120.874500
-4.183000 144.947800
-4.167100 103.325100
-4.151200 78.815900
-4.135300 70.246200
-4.119400 86.509400
-4.103600 132.800100
-4.087700 116.105800
-4.071800 108.650700
-4.055900 123.466600
-4.040000 133.264700
-4.024100 151.978600
-4.008200 72.056800
-3.992400 86.060800
-3.976500 67.288700
-3.960600 76.187400
-3.944700 70.441600
-3.928800 99.712800
-3.912900 127.527800
-3.897100 117.649400
-3.881200 61.302800
-3.865300 65.420300
-3.849400 44.950600
-3.833500 129.946200
-3.817600 74.752700
-3.801700 57.662700
-3.785900 113.286500
-3.770000 46.400700
-3.754100 45.496000
-3.738200 145.403100
-3.722300 93.017900
-3.706400 56.596100
-3.690500 32.537500
-3.674700 23.210600
-3.658800 21.505600
-3.642900 21.597100
-3.627000 23.271500
-3.611100 19.552300
-3.595200 11.007800
-3.579300 10.228300
-3.563500 11.282900
-3.547600 12.337500
-3.531700 17.601600
-3.515800 20.056300
-3.499900 10.274000
-3.484000 8.053200
-3.468100 5.832500
-3.452300 3.611700
-3.436400 0.000000
-3.420500 0.000000
-3.404600 0.000000
-3.388700 0.000000
-3.372800 0.000000
-3.356900 0.000000
-3.341100 0.000000
-3.325200 0.000000
-3.309300 0.000000
-3.293400 0.000000
-3.277500 0.000000
-3.261600 0.000000
-3.245700 0.068500
-3.229900 0.183100
-3.214000 0.297700
-3.198100 0.412400
-3.182200 0.527000
-3.166300 0.641700
-3.150400 0.756300
-3.134500 0.870900
-3.118700 0.985600
-3.102800 1.100200
-3.086900 1.214900
-3.071000 0.875600
-3.055100 0.903900
-3.039200 1.796600
-3.023300 4.589800
-3.007500 7.383000
-2.991600 2.882100
-2.975700 3.050500
-2.959800 4.989000
-2.943900 13.346600
-2.928000 5.061800
-2.912100 5.361300
-2.896300 5.660800
-2.880400 5.960300
-2.864500 6.259800
-2.848600 6.559400
-2.832700 7.260700
-2.816800 8.284100
-2.800900 9.307400
-2.785100 10.864200
-2.769200 13.240900
-2.753300 14.896800
-2.737400 18.164100
-2.721500 18.317900
-2.705600 14.435100
-2.689700 6.133600
-2.673900 4.549600
-2.658000 8.465100
-2.642100 7.626200
-2.626200 6.787300
-2.610300 8.866400
-2.594400 14.221400
-2.578500 8.195300
-2.562700 8.010100
-2.546800 8.924600
-2.530900 12.638500
-2.515000 16.352500
-2.499100 13.079800
-2.483200 8.511200
-2.467300 25.108000
-2.451500 9.567000
-2.435600 9.731500
-2.419700 9.877100
-2.403800 15.903200
-2.387900 12.871500
-2.372000 11.509900
-2.356100 12.130000
-2.340300 13.556500
-2.324400 13.089000
-2.308500 14.135400
-2.292600 21.945300
-2.276700 22.817500
-2.260800 24.793700
-2.244900 19.532900
-2.229100 13.971900
-2.213200 9.899600
-2.197300 6.227200
-2.181400 6.155800
-2.165500 6.084300
-2.149600 6.012800
-2.133700 5.941400
-2.117900 5.869900
-2.102000 5.798400
-2.086100 5.482100
-2.070200 5.446700
-2.054300 5.411300
-2.038400 5.030400
-2.022500 5.049700
-2.006700 5.069000
-1.990800 5.088300
-1.974900 5.107600
-1.959000 5.126900
-1.943100 4.426100
-1.927200 4.375000
-1.911300 4.323800
-1.895500 4.272700
-1.879600 4.221500
-1.863700 4.170400
-1.847800 4.124200
-1.831900 4.079400
-1.816000 4.034600
-1.800100 3.989800
-1.784300 3.945000
-1.768400 3.900300
-1.752500 3.855500
-1.736600 3.810700
-1.720700 3.765900
-1.704800 3.623800
-1.688900 3.595300
-1.673100 3.566900
-1.657200 3.538500
-1.641300 3.510100
-1.625400 3.481600
-1.609500 3.453200
-1.593600 3.424800
-1.577700 3.313500
-1.561900 3.298700
-1.546000 3.284600
-1.530100 3.279800
-1.514200 3.275100
-1.498300 3.270400
-1.482400 3.265600
-1.466500 3.260900
-1.450700 3.256200
-1.434800 3.251400
-1.418900 3.927200
-1.403000 4.001100
-1.387100 4.077500
-1.371200 4.145600
-1.355300 4.208400
-1.339500 4.271200
-1.323600 4.334000
-1.307700 4.396800
-1.291800 4.459600
-1.275900 4.522400
-1.260000 4.585200
-1.244100 4.648000
-1.228300 4.710800
-1.212400 4.773600
-1.196500 4.836400
-1.180600 4.899200
-1.164700 4.962000
-1.148800 5.024800
-1.132900 5.087600
-1.117100 6.149500
-1.101200 10.891700
-1.085300 12.955300
-1.069400 11.189500
-1.053500 8.766000
-1.037600 6.342600
-1.021700 5.593900
-1.005900 5.603200
-0.990000 7.324000
-0.974100 6.858900
-0.958200 8.820200
-0.942300 7.409600
-0.926400 6.743200
-0.910500 5.392800
-0.894700 5.317000
-0.878800 5.379200
-0.862900 6.309100
-0.847000 6.424600
-0.831100 7.249700
-0.815200 7.389600
-0.799300 7.561300
-0.783500 9.372200
-0.767600 11.852200
-0.751700 11.962200
-0.735800 12.072300
-0.719900 11.994000
-0.704000 11.664600
-0.688100 11.341800
-0.672300 11.019000
-0.656400 11.680100
-0.640500 11.370100
-0.624600 11.060000
-0.608700 8.702000
-0.592800 8.762500
-0.576900 11.847200
-0.561100 13.902100
-0.545200 15.439900
-0.529300 16.101500
-0.513400 16.763100
-0.497500 17.083000
-0.481600 14.202300
-0.465700 11.483400
-0.449900 11.093100
-0.434000 10.702900
-0.418100 10.312600
-0.402200 9.970800
-0.386300 9.664600
-0.370400 9.576600
-0.354500 9.759100
-0.338700 9.941500
-0.322800 10.124000
-0.306900 10.303000
-0.291000 11.453300
-0.275100 11.637600
-0.259200 11.873400
-0.243300 11.342100
-0.227500 11.555800
-0.211600 11.769400
-0.195700 11.983100
-0.179800 12.196800
-0.163900 12.410400
-0.148000 12.710400
-0.132100 12.989300
-0.116300 12.565800
-0.100400 12.809200
-0.084500 13.052500
-0.068600 13.295900
-0.052700 12.840500
-0.036800 13.049300
-0.020900 17.180900
-0.005100 16.834700
0.010800 16.488500
0.026700 16.504700
0.042600 16.469900
0.058500 16.497000
0.074400 16.475600
0.090300 16.454300
0.106100 16.432900
0.122000 15.448100
0.137900 15.555200
0.153800 15.331500
0.169700 15.384300
0.185600 15.307700
0.201500 15.283300
0.217300 14.608700
0.233200 14.611300
0.249100 19.736200
0.265000 17.887700
0.280900 16.801500
0.296800 16.313900
0.312700 16.126600
0.328500 15.378700
0.344400 15.135700
0.360300 14.892600
0.376200 17.586900
0.392100 16.753800
0.408000 18.134500
0.423900 16.064400
0.439700 15.924100
0.455600 15.783900
0.471500 15.643600
0.487400 15.609800
0.503300 15.466700
0.519200 15.364600
0.535100 15.329200
0.550900 15.812900
0.566800 15.889000
0.582700 15.775400
0.598600 15.661800
0.614500 14.829700
0.630400 14.759900
0.646300 14.423300
0.662100 14.405300
0.678000 14.424700
0.693900 14.228000
0.709800 14.206200
0.725700 14.184500
0.741600 15.729700
0.757500 15.693700
0.773300 15.751200
0.789200 15.675500
0.805100 15.593500
0.821000 15.641200
0.836900 15.092000
0.852800 15.125800
0.868600 15.159500
0.884500 14.470500
0.900400 14.730300
0.916300 14.610800
0.932200 14.499900
0.948100 14.374600
0.964000 14.226000
0.979800 14.091100
0.995700 13.957600
1.011600 13.900600
1.027500 12.639700
1.043400 12.751500
1.059300 12.829700
1.075200 12.747300
1.091000 12.591400
1.106900 12.400100
1.122800 12.219000
1.138700 10.940700
1.154600 10.635300
1.170500 10.292900
1.186400 9.949900
1.202200 9.680700
1.218100 9.319400
1.234000 8.961300
1.249900 8.603100
1.265800 8.245000
1.281700 7.950200
1.297600 7.583900
1.313400 7.271300
1.329300 6.973900
1.345200 6.695300
1.361100 6.267000
1.377000 5.970000
1.392900 5.672900
1.408800 5.416900
1.424600 5.173400
1.440500 4.974000
1.456400 4.801800
1.472300 4.629700
1.488200 4.457500
1.504100 4.285300
1.520000 4.113200
1.535800 3.941000
1.551700 3.768800
1.567600 3.596700
1.583500 3.424500
1.599400 3.265400
1.615300 3.630500
1.631200 3.431700
1.647000 3.232900
1.662900 3.034200
1.678800 2.835400
1.694700 2.643500
1.710600 3.078000
1.726500 2.882300
1.742400 2.689600
1.758200 2.553200
1.774100 2.474800
1.790000 2.203200
1.805900 1.931700
1.821800 1.660100
1.837700 1.388500
1.853600 1.116900
1.869400 0.891300
1.885300 0.684100
1.901200 0.476900
1.917100 0.269600
1.933000 0.062400
1.948900 0.000000
1.964800 0.000000
1.980600 0.000000
1.996500 0.000000
2.012400 0.000000
2.028300 0.000000
2.044200 0.000000
2.060100 0.000000
2.076000 0.000000
2.091800 0.000000
2.107700 0.000000
2.123600 0.000000
2.139500 0.000000
2.155400 0.000000
2.171300 0.000000
2.187200 0.000000
2.203000 0.000000
2.218900 0.000000
2.234800 0.000000
2.250700 0.000000
2.266600 0.000000
2.282500 0.000000
2.298400 0.000000
2.314200 0.000000
2.330100 0.000000
2.346000 0.000000
2.361900 0.000000
2.377800 0.000000
2.393700 0.000000
2.409600 0.000000
2.425400 0.000000
2.441300 0.000000
2.457200 0.000000
2.473100 0.000000
2.489000 0.000000
2.504900 0.000000
2.520800 0.000000
2.536600 0.000000
2.552500 0.000000
2.568400 0.000000
2.584300 0.000000
2.600200 0.000000
2.616100 0.000000
2.632000 0.000000
2.647800 0.000000
2.663700 0.000000
2.679600 0.000000
2.695500 0.000000
2.711400 0.000000
2.727300 0.000000
2.743200 0.000000
2.759000 0.000000
2.774900 0.000000
2.790800 0.000000
2.806700 0.000000
2.822600 0.000000
2.838500 0.000000
2.854400 0.000000
2.870200 0.000000
2.886100 0.000000
2.902000 0.000000
2.917900 0.000000
2.933800 0.000000
2.949700 0.000000
2.965600 0.000000
2.981400 0.000000
2.997300 0.000000
3.013200 0.000000
3.029100 0.000000
3.045000 0.000000
3.060900 0.000000
3.076800 0.000000
3.092600 0.000000
3.108500 0.000000
3.124400 0.000000
3.140300 0.000000
3.156200 0.000000
3.172100 0.000000
3.188000 0.000000
3.203800 0.000000
3.219700 0.000000
3.235600 0.000000
3.251500 0.000000
3.267400 0.000000
3.283300 0.000000
3.299200 0.000000
3.315000 0.000000
3.330900 0.000000
3.346800 0.000000
3.362700 0.000000
3.378600 0.000000
3.394500 0.000000
3.410400 0.000000
3.426200 0.000000
3.442100 0.000000
3.458000 0.000000
3.473900 0.000000
3.489800 0.000000
3.505700 0.000000
3.521600 0.000000
3.537400 0.000000
3.553300 0.000000
3.569200 0.000000
3.585100 0.000000
3.601000 0.000000
3.616900 0.000000
3.632800 0.000000
3.648600 0.000000
3.664500 0.000000
3.680400 0.000000
3.696300 0.000000
3.712200 0.000000
3.728100 0.000000
3.744000 0.000000
3.759800 0.000000
3.775700 0.000000
3.791600 0.000000
3.807500 0.000000
3.823400 0.000000
3.839300 0.000000
3.855200 0.000000
3.871000 0.000000
3.886900 0.000000
3.902800 0.002400
3.918700 0.006800
3.934600 0.011200
3.950500 0.015600
3.966400 0.020000
3.982200 0.024400
3.998100 0.028800
4.014000 0.033300
4.029900 0.037700
4.045800 0.042100
4.061700 0.046500
4.077600 0.050900
4.093400 0.055300
4.109300 0.059700
4.125200 0.064100
4.141100 0.068500
4.157000 0.072900
4.172900 0.077300
4.188800 0.081700
4.204600 0.086100
4.220500 0.090500
4.236400 0.094900
4.252300 0.099400
4.268200 0.103800
4.284100 0.108200
4.300000 0.112600
4.315800 0.117000
4.331700 0.121400
4.347600 0.125800
4.363500 0.130200
4.379400 0.134600
4.395300 0.139000
4.411200 0.143400
4.427000 0.147800
4.442900 0.152200
4.458800 0.156600
4.474700 0.161000
4.490600 0.165400
4.506500 0.169900
4.522400 0.174300
4.538200 0.178700
4.554100 0.183100
4.570000 0.187500
4.585900 0.191900
4.601800 0.196300
4.617700 0.200700
4.633600 0.205100
4.649400 0.209500
4.665300 0.213900
4.681200 0.218300
4.697100 0.222700
4.713000 0.230900
4.728900 0.246500
4.744800 0.262200
4.760600 0.277900
4.776500 0.296700
4.792400 0.320000
4.808300 0.343400
4.824200 0.366700
4.840100 0.408500
4.856000 0.438700
4.871800 0.468800
4.887700 0.499000
4.903600 0.529200
4.919500 0.559400
4.935400 0.589600
4.951300 0.622400
4.967200 0.658700
4.983000 0.695100
4.998900 0.731400
5.014800 0.767700
5.030700 0.804000
5.046600 0.840400
5.062500 0.876700
5.078400 0.913000
5.094200 0.949400
5.110100 0.985700
5.126000 1.022000
5.141900 1.058300
5.157800 1.098100
5.173700 1.140600
5.189600 1.183000
5.205400 1.225500
5.221300 1.267900
5.237200 1.828400
5.253100 1.960100
5.269000 2.095200
5.284900 2.230300
5.300800 2.359400
5.316600 2.514300
5.332500 2.669300
5.348400 3.380900
5.364300 3.595800
5.380200 3.787000
5.396100 3.913900
5.412000 4.040700
5.427800 4.167600
5.443700 4.294500
5.459600 4.421400
5.475500 4.548200
5.491400 4.843900
5.507300 4.994100
5.523200 5.144200
5.539000 5.294300
5.554900 5.998100
5.570800 6.199200
5.586700 6.400400
5.602600 6.601600
5.618500 7.283500
5.634400 7.417100
5.650200 7.550700
5.666100 7.684400
5.682000 7.818000
5.697900 7.951600
5.713800 8.085300
5.729700 8.240300
5.745500 8.433900
5.761400 8.624200
5.777300 9.187400
5.793200 9.467900
5.809100 9.748300
5.825000 10.030600
5.840900 10.254800
5.856700 10.478900
5.872600 10.703000
5.888500 10.138700
5.904400 10.439000
5.920300 11.696400
5.936200 12.953800
5.952100 9.798900
5.967900 10.213500
5.983800 10.258800
5.999700 10.301500
6.015600 10.437600
6.031500 10.560800
6.047400 10.652900
6.063300 10.732100
6.079100 10.814400
6.095000 10.896800
6.110900 10.979100
6.126800 11.087000
6.142700 11.676200
6.158600 11.782000
6.174500 11.870200
6.190300 11.990300
6.206200 12.110300
6.222100 12.963100
6.238000 12.371100
6.253900 12.362000
6.269800 12.352900
6.285700 11.805100
6.301500 12.188600
6.317400 12.162700
6.333300 12.036800
6.349200 11.910800
6.365100 11.784800
6.381000 14.805400
6.396900 13.534600
6.412700 13.012700
6.428600 12.490800
6.444500 11.968900
6.460400 11.446900
6.476300 11.165700
6.492200 11.072300
6.508100 11.465700
6.523900 14.603700
6.539800 13.494600
6.555700 12.358800
6.571600 11.223000
6.587500 10.932600
6.603400 10.766400
6.619300 10.600200
6.635100 11.511200
6.651000 15.912900
6.666900 14.396200
6.682800 12.879400
6.698700 11.429100
6.714600 11.355000
6.730500 13.440800
6.746300 12.772700
6.762200 11.288100
6.778100 10.742400
6.794000 10.238400
6.809900 9.780600
6.825800 9.322800
6.841700 7.899000
6.857500 7.662000
6.873400 7.425000
6.889300 7.442400
6.905200 7.480700
6.921100 7.524200
6.937000 10.406600
6.952900 9.620000
6.968700 8.128200
6.984600 7.456900
7.000500 6.785600
7.016400 7.431000
7.032300 8.789800
7.048200 8.509500
7.064100 8.229200
7.079900 9.317300
7.095800 8.883200
7.111700 8.449100
7.127600 8.015000
7.143500 7.580900
7.159400 7.146800
7.175300 6.186600
7.191100 5.934200
7.207000 5.681700
7.222900 5.429200
7.238800 5.176800
7.254700 4.924300
7.270600 4.941900
7.286500 4.972100
7.302300 5.117200
7.318200 5.307200
7.334100 5.497200
7.350000 5.687300
7.365900 5.877300
7.381800 4.286800
7.397700 4.281400
7.413500 4.276000
7.429400 10.338300
7.445300 24.317300
7.461200 9.833000
7.477100 9.998600
7.493000 10.164100
7.508900 10.329700
7.524700 9.682700
7.540600 8.269700
7.556500 7.493300
7.572400 10.979000
7.588300 9.896900
7.604200 9.191700
7.620100 8.486600
7.635900 7.781500
7.651800 7.076300
7.667700 6.371200
7.683600 5.233600
7.699500 4.593700
7.715400 4.570900
7.731300 4.742200
7.747100 4.913500
7.763000 5.084700
7.778900 5.256000
7.794800 5.427300
7.810700 5.667900
7.826600 6.042300
7.842500 6.416800
7.858300 7.101100
7.874200 18.199300
7.890100 22.619000
7.906000 11.138300
7.921900 10.903900
7.937800 10.669600
7.953700 10.435200
7.969500 9.911100
7.985400 9.721000
8.001300 9.575600
8.017200 9.959500
8.033100 11.113600
8.049000 11.573900
8.064900 12.034200
8.080700 12.469700
8.096600 12.811800
8.112500 12.785100
8.128400 12.054100
8.144300 12.043900
8.160200 12.526800
8.176100 9.605700
8.191900 10.843800
8.207800 12.479300
8.223700 13.598600
8.239600 14.717800
8.255500 13.879300
8.271400 12.628300
8.287300 13.734200
8.303100 8.003100
8.319000 7.796800
8.334900 7.752700
8.350800 7.791300
8.366700 10.031800
8.382600 9.565100
8.398500 9.098500
8.414300 7.341800
8.430200 6.681500
8.446100 6.115800
8.462000 5.686100
8.477900 5.646700
8.493800 5.607300
8.509700 11.313900
8.525500 5.296500
8.541400 5.138300
8.557300 5.320600
8.573200 5.507400
8.589100 5.694100
8.605000 5.880800
8.620900 5.609500
8.636700 5.466800
8.652600 5.324100
8.668500 5.577100
8.684400 6.122100
8.700300 14.766500
8.716200 11.738300
8.732100 10.834700
8.747900 11.642800
8.763800 13.598700
8.779700 16.144200
8.795600 17.960300
8.811500 18.373800
8.827400 15.725300
8.843300 14.018200
8.859100 11.390400
8.875000 9.348500
8.890900 7.363400
8.906800 7.083800
8.922700 7.249400
8.938600 7.454000
8.954500 7.753700
8.970300 8.053300
8.986200 8.353000
9.002100 8.652600
9.018000 8.303700
9.033900 8.816500
9.049800 10.390700
9.065700 10.718600
9.081500 13.346400
9.097400 14.374100
9.113300 15.401700
9.129200 16.429300
9.145100 17.457000
9.161000 49.894900
9.176900 13.563300
9.192700 13.557300
9.208600 13.444300
9.224500 13.331400
9.240400 13.227500
9.256300 13.144500
9.272200 13.061600
9.288100 10.976300
9.303900 11.152200
9.319800 11.307600
9.335700 12.145900
9.351600 12.268100
9.367500 12.440400
9.383400 13.044500
9.399300 13.540500
9.415100 17.856700
9.431000 13.415100
9.446900 13.725300
9.462800 14.054700
9.478700 14.096900
9.494600 14.329400
9.510500 14.665900
9.526300 14.663100
9.542200 14.646400
9.558100 14.695700
9.574000 14.821900
9.589900 13.305600
9.605800 13.415400
9.621700 11.182700
9.637500 11.324000
9.653400 15.000500
9.669300 8.952600
9.685200 8.869500
9.701100 11.506300
9.717000 10.794300
9.732900 9.095200
9.748700 8.534700
9.764600 7.954400
9.780500 8.181600
9.796400 8.135300
9.812300 8.088900
9.828200 9.555700
9.844100 9.402800
9.859900 9.536700
9.875800 9.391300
9.891700 9.245800
9.907600 10.553900
9.923500 10.309900
9.939400 10.140500
9.955300 9.923200
9.971100 9.705900
9.987000 9.488600
10.002900 9.271300
10.018800 9.137400
10.034700 9.082800
10.050600 9.028200
10.066500 8.398200
10.082300 8.373700
10.098200 8.349300
10.114100 8.425500
10.130000 8.503100
10.145900 8.580600
10.161800 8.906000
10.177700 8.978800
10.193500 10.021400
10.209400 9.988000
10.225300 9.983400
10.241200 9.978900
10.257100 9.974300
10.273000 9.969800
10.288900 9.965200
10.304700 9.960700
10.320600 15.722100
10.336500 9.180500
10.352400 10.372200
10.368300 10.398700
10.384200 10.425300
10.400100 10.142200
10.415900 9.987000
10.431800 9.986600
10.447700 11.409400
10.463600 11.521400
10.479500 11.607800
10.495400 11.609500
10.511200 11.611100
10.527100 11.612800
10.543000 12.839700
10.558900 10.613500
10.574800 14.373400
10.590700 13.190600
10.606600 12.007900
10.622400 10.811100
10.638300 11.925400
10.654200 10.918500
10.670100 11.985200
10.686000 10.655000
10.701900 9.324800
10.717800 11.977400
10.733600 9.528600
10.749500 7.438500
10.765400 5.856500
10.781300 5.123200
10.797200 5.078600
10.813100 5.034000
10.829000 4.989400
10.844800 4.944900
10.860700 4.900300
10.876600 5.652400
10.892500 6.014300
10.908400 6.105000
10.924300 6.036700
10.940200 5.968500
10.956000 5.900300
10.971900 5.832100
10.987800 9.978700
11.003700 9.112100
11.019600 8.245500
11.035500 7.378900
11.051400 6.861300
11.067200 6.734000
11.083100 6.599800
11.099000 7.880400
11.114900 7.893300
11.130800 7.906200
11.146700 7.919100
11.162600 7.932100
11.178400 7.945000
11.194300 8.211000
11.210200 8.431800
11.226100 8.652500
11.242000 6.134500
11.257900 7.903400
11.273800 8.010800
11.289600 8.118200
11.305500 8.232500
11.321400 8.502900
11.337300 8.773300
11.353200 9.043700
11.369100 7.096900
11.385000 7.193000
11.400800 6.846700
11.416700 4.856300
11.432600 4.793300
11.448500 4.730300
11.464400 4.755200
11.480300 4.795400
11.496200 4.835600
11.512000 4.875700
11.527900 4.915900
11.543800 4.956100
11.559700 4.996200
11.575600 5.036400
11.591500 5.076600
11.607400 5.116700
11.623200 5.156900
11.639100 3.710300
11.655000 4.402800
11.670900 5.478200
11.686800 6.544300
11.702700 6.423400
11.718600 6.302500
11.734400 6.181700
11.750300 6.060800
11.766200 5.946700
11.782100 5.844300
11.798000 6.292600
11.813900 6.587600
11.829800 6.882700
11.845600 7.177700
11.861500 6.625300
11.877400 7.736500
11.893300 8.937000
11.909200 7.399900
11.925100 8.188200
11.941000 8.976400
11.956800 9.764600
11.972700 8.428300
11.988600 7.499400
12.004500 6.570600
12.020400 5.842200
12.036300 6.204600
12.052200 6.740800
12.068000 7.276900
12.083900 7.813100
12.099800 9.355000
12.115700 12.081600
12.131600 12.445500
12.147500 8.391600
12.163400 8.229100
12.179200 11.526300
12.195100 11.663600
12.211000 12.725100
12.226900 7.642500
12.242800 7.455400
12.258700 7.268400
12.274600 7.114400
12.290400 7.017400
12.306300 6.920400
12.322200 6.313400
12.338100 6.224300
12.354000 6.864600
12.369900 7.103100
12.385800 7.341600
12.401600 7.580100
12.417500 7.818600
12.433400 8.057000
12.449300 8.295500
12.465200 8.534000
12.481100 8.772500
12.497000 7.015400
12.512800 6.972700
12.528700 6.943600
12.544600 6.978800
12.560500 7.014100
12.576400 7.049300
12.592300 7.084600
12.608200 7.119800
12.624000 7.155000
12.639900 7.206200
12.655800 7.346600
12.671700 7.487000
12.687600 11.729400
12.703500 10.623200
12.719400 9.517100
12.735200 10.113700
12.751100 9.069800
12.767000 9.133200
12.782900 11.720200
12.798800 17.467600
12.814700 10.218100
12.830600 10.161300
12.846400 10.144900
12.862300 10.128400
12.878200 10.133200
12.894100 10.151200
12.910000 11.941400
12.925900 13.033300
12.941800 14.134400
12.957600 15.236500
12.973500 11.096900
12.989400 11.020600
13.005300 10.944300
13.021200 10.879100
13.037100 11.321700
13.053000 11.411800
13.068800 11.919000
13.084700 16.670000
13.100600 15.176500
13.116500 12.658200
13.132400 12.030800
13.148300 10.092800
13.164200 10.171200
13.180000 8.764800
13.195900 9.404800
13.211800 10.120300
13.227700 11.108700
13.243600 8.470200
13.259500 8.935300
13.275400 9.400400
13.291200 9.865400
13.307100 6.390200
13.323000 6.592900
13.338900 6.860300
13.354800 7.127700
13.370700 7.395200
13.386600 7.662600
13.402400 7.930000
13.418300 6.719100
13.434200 8.445700
13.450100 7.619700
13.466000 6.826800
13.481900 8.571800
13.497800 11.363800
13.513600 5.596300
13.529500 5.676200
13.545400 5.756000
13.561300 5.847200
13.577200 5.938900
13.593100 6.030600
13.609000 6.122400
13.624800 276.669100
13.640700 5.312100
13.656600 5.427700
13.672500 5.543300
13.688400 5.658900
13.704300 5.778000
13.720200 6.400200
13.736000 7.022500
13.751900 7.965900
13.767800 8.610000
13.783700 4.658400
13.799600 4.889300
13.815500 5.120300
13.831400 5.351300
13.847200 5.582300
13.863100 16.209300
13.879000 5.124500
13.894900 5.002100
13.910800 4.890300
13.926700 4.779700
13.942600 4.669100
13.958400 4.561100
13.974300 4.464800
13.990200 4.370700
14.006100 4.280300
14.022000 4.189800
14.037900 4.099400
14.053800 4.036900
14.069600 4.036100
14.085500 4.153200
14.101400 4.542000
14.117300 5.603100
14.133200 6.022200
14.149100 6.083900
14.165000 6.145600
14.180800 6.207300
14.196700 6.269000
14.212600 6.330700
14.228500 6.392400
14.244400 6.454100
14.260300 5.261800
14.276200 6.997900
14.292000 8.002200
14.307900 8.645500
14.323800 8.663400
14.339700 8.681300
14.355600 9.247800
14.371500 9.290900
14.387400 9.342100
14.403200 9.399600
14.419100 9.457100
14.435000 10.918500
14.450900 10.981500
14.466800 11.044600
14.482700 11.152100
14.498600 11.328900
14.514400 11.506800
14.530300 11.384800
14.546200 11.012000
14.562100 11.607800
14.578000 11.230700
14.593900 10.549600
14.609800 11.702700
14.625600 11.352900
14.641500 11.041200
14.657400 11.057800
14.673300 10.997700
14.689200 12.225300
14.705100 11.905400
14.721000 10.938700
14.736800 11.038800
14.752700 11.819500
14.768600 12.187900
14.784500 12.606000
14.800400 12.927900
14.816300 12.881700
14.832200 12.698300
14.848000 13.227700
14.863900 12.877700
14.879800 12.499000
14.895700 11.352000
14.911600 11.336500
14.927500 11.321000
14.943400 11.305500
14.959200 11.290000
14.975100 11.275600
14.991000 11.272000
15.006900 11.270700
15.022800 11.269500
15.038700 11.274600
15.054600 12.100300
15.070400 12.578000
15.086300 13.055700
15.102200 14.197500
15.118100 14.655900
15.134000 10.987100
15.149900 11.382200
15.165800 11.777400
15.181600 12.358400
15.197500 13.839400
15.213400 14.445800
15.229300 11.653500
15.245200 11.412100
15.261100 12.190900
15.277000 11.956200
15.292800 11.763100
15.308700 11.654400
15.324600 11.772400
15.340500 11.903300
15.356400 12.546600
15.372300 13.189900
15.388100 13.833200
15.404000 9.897300
15.419900 9.102300
15.435800 8.307200
15.451700 14.506900
15.467600 28.627900
15.483500 19.202000
15.499300 6.358600
15.515200 6.635700
15.531100 7.181000
15.547000 11.617800
15.562900 11.052700
15.578800 10.487700
15.594700 9.922700
15.610500 10.238700
15.626400 9.784700
15.642300 9.339800
15.658200 9.329000
15.674100 9.400500
15.690000 9.472000
15.705900 9.541000
15.721700 9.455800
15.737600 9.370600
15.753500 9.285400
15.769400 9.200200
15.785300 13.077500
15.801200 7.831300
15.817100 8.264500
15.832900 8.697600
15.848800 4.930000
15.864700 4.929500
15.880600 4.919900
15.896500 4.909700
15.912400 4.890100
15.928300 4.860200
15.944100 4.816500
15.960000 4.766300
15.975900 4.716100
15.991800 4.666000
16.007700 4.615800
16.023600 4.565600
16.039500 4.515400
16.055300 5.779300
16.071200 5.934300
16.087100 6.170300
16.103000 6.406300
16.118900 6.642300
16.134800 6.878300
16.150700 7.114300
16.166500 7.350300
16.182400 7.586300
16.198300 7.890800
16.214200 7.716000
16.230100 8.043500
16.246000 8.098500
16.261900 7.732400
16.277700 7.366400
16.293600 7.000400
16.309500 6.654900
16.325400 6.311200
16.341300 5.967500
16.357200 5.623900
16.373100 4.873200
16.388900 4.955200
16.404800 5.037200
16.420700 5.119100
16.436600 5.201100
16.452500 5.283100
16.468400 5.365000
16.484300 27.970200
16.500100 7.354100
16.516000 7.208200
16.531900 7.062400
16.547800 7.088500
16.563700 7.680000
16.579600 8.647500
16.595500 9.758600
16.611300 11.061600
16.627200 12.398900
16.643100 14.163000
16.659000 13.228500
16.674900 11.306400
16.690800 11.976200
16.706700 10.711500
16.722500 9.731800
16.738400 10.103500
16.754300 10.608500
16.770200 11.113500
16.786100 11.942400
16.802000 10.313600
16.817900 9.901100
16.833700 8.961900
16.849600 8.744800
16.865500 8.581200
16.881400 8.396600
16.897300 8.148800
16.913200 7.900900
16.929100 7.653100
16.944900 7.394400
16.960800 7.114900
16.976700 6.834300
16.992600 6.527700
17.008500 6.230300
17.024400 5.939800
17.040300 5.649200
17.056100 5.377100
17.072000 7.897100
17.087900 4.676000
17.103800 12.540500
17.119700 3.917700
17.135600 3.744600
17.151500 5.486500
17.167300 3.029700
17.183200 2.889000
17.199100 2.748300
17.215000 2.607600
17.230900 2.466900
17.246800 2.326200
17.262700 2.185500
17.278500 2.044800
17.294400 1.904100
17.310300 2.589200
17.326200 3.351500
17.342100 1.190200
17.358000 1.084700
17.373900 0.979300
17.389700 0.896400
17.405600 1.386300
17.421500 2.258000
17.437400 0.405500
17.453300 0.377900
17.469200 0.350400
17.485100 0.322800
17.500900 0.295200
17.516800 0.267600
17.532700 0.240100
17.548600 0.212500
17.564500 0.184900
17.580400 0.157300
17.596300 0.132400
17.612100 0.116000
17.628000 0.099600
17.643900 0.083200
17.659800 0.066800
17.675700 0.050400
17.691600 0.034000
17.707500 0.017600
17.723300 0.001200
17.739200 0.000000
17.755100 0.000000
17.771000 0.000000
17.786900 0.000000
17.802800 0.000000
17.818700 0.000000
17.834500 0.000000
17.850400 0.000000
17.866300 0.000000
17.882200 0.000000
17.898100 0.000000
17.914000 0.000000
17.929900 0.000000
17.945700 0.000000
17.961600 0.000000
17.977500 0.000000
17.993400 0.000000
18.009300 0.000000
18.025200 0.000000
18.041100 0.000000
18.056900 0.000000
18.072800 0.000000
18.088700 0.000000
18.104600 0.000000
18.120500 0.000000
18.136400 0.000000
18.152300 0.000000
18.168100 0.000000
18.184000 0.000000
18.199900 0.000000
18.215800 0.000000
18.231700 0.000000
18.247600 0.000000
18.263500 0.000000
18.279300 0.000000
18.295200 0.000000
18.311100 0.000000
18.327000 0.000000
18.342900 0.000000
18.358800 0.000000
18.374700 0.000000
18.390500 0.000000
18.406400 0.000000
18.422300 0.000000
18.438200 0.000000
18.454100 0.000000
18.470000 0.000000
18.485900 0.000000
18.501700 0.000000
18.517600 0.000000
18.533500 0.000000
18.549400 0.000000
18.565300 0.000000
18.581200 0.000000
18.597100 0.000000
18.612900 0.000000
18.628800 0.000000
18.644700 0.000000
18.660600 0.000000
18.676500 0.000000
18.692400 0.000000
18.708300 0.000000
18.724100 0.000000
18.740000 0.000000
18.755900 0.000000
18.771800 0.000000
18.787700 0.000000
18.803600 0.000000
18.819500 0.000000
18.835300 0.000000
18.851200 0.000000
18.867100 0.000000
18.883000 0.000000
18.898900 0.000000
18.914800 0.000000
18.930700 0.000000
18.946500 0.000000
18.962400 0.000000
18.978300 0.000000
18.994200 0.000000
19.010100 0.000000
19.026000 0.000000
19.041900 0.000000
19.057700 0.000000
19.073600 0.000000
19.089500 0.000000
19.105400 0.000000
19.121300 0.000000
19.137200 0.000000
19.153100 0.000000
19.168900 0.000000
e
