set title 'mp-541844 - Density of States'
set xlabel 'Energy (eV)'
set ylabel 'DOS (states/eV)'
set grid
set xrange [-10:10]
set yrange [0:54.190]
set xzeroaxis lt -1
set terminal png size 800,600
set output 'mp-541844_dos_gnuplot.png'
plot '-' using 1:2 with lines title 'DOS'
-18.287000 0.000000
-18.265500 0.000000
-18.244000 0.000000
-18.222500 0.000000
-18.201000 0.000000
-18.179600 0.000000
-18.158100 0.000000
-18.136600 0.000000
-18.115100 0.000000
-18.093600 0.000000
-18.072200 0.000000
-18.050700 0.000000
-18.029200 0.000000
-18.007700 0.000000
-17.986200 0.000000
-17.964800 0.000000
-17.943300 0.000000
-17.921800 0.000000
-17.900300 0.000000
-17.878800 0.000000
-17.857400 0.000000
-17.835900 0.000000
-17.814400 0.000000
-17.792900 0.000000
-17.771400 0.000000
-17.750000 0.000000
-17.728500 0.000000
-17.707000 0.000000
-17.685500 0.000000
-17.664000 0.000000
-17.642500 0.000000
-17.621100 0.000000
-17.599600 0.000000
-17.578100 0.000000
-17.556600 0.000000
-17.535100 0.000000
-17.513700 0.000000
-17.492200 0.000000
-17.470700 0.000000
-17.449200 0.000000
-17.427700 0.000000
-17.406300 0.000000
-17.384800 0.000000
-17.363300 0.000000
-17.341800 0.000000
-17.320300 0.000000
-17.298900 0.000000
-17.277400 0.000000
-17.255900 0.000000
-17.234400 0.000000
-17.212900 0.000000
-17.191400 0.000000
-17.170000 0.000000
-17.148500 0.000000
-17.127000 0.000000
-17.105500 0.000000
-17.084000 0.000000
-17.062600 0.000000
-17.041100 0.000000
-17.019600 0.000000
-16.998100 0.000000
-16.976600 0.000000
-16.955200 0.000000
-16.933700 0.000000
-16.912200 0.000000
-16.890700 0.000000
-16.869200 0.000000
-16.847800 0.000000
-16.826300 0.000000
-16.804800 0.000000
-16.783300 0.000000
-16.761800 0.000000
-16.740400 0.000000
-16.718900 0.000000
-16.697400 0.000000
-16.675900 0.000000
-16.654400 0.000000
-16.632900 0.000000
-16.611500 0.000000
-16.590000 0.000000
-16.568500 0.000000
-16.547000 0.000000
-16.525500 0.000000
-16.504100 0.000500
-16.482600 0.008700
-16.461100 0.111500
-16.439600 0.999200
-16.418100 6.292400
-16.396700 27.923400
-16.375200 87.756700
-16.353700 197.289900
-16.332200 325.102400
-16.310700 418.223900
-16.289300 481.477200
-16.267800 581.201500
-16.246300 738.215600
-16.224800 884.189800
-16.203300 955.346300
-16.181900 962.812700
-16.160400 934.065100
-16.138900 851.850400
-16.117400 700.562600
-16.095900 512.919600
-16.074400 333.659700
-16.053000 186.844300
-16.031500 84.895700
-16.010000 29.606700
-15.988500 7.638500
-15.967000 1.427900
-15.945600 0.191200
-15.924100 0.018200
-15.902600 0.001200
-15.881100 0.000100
-15.859600 0.000000
-15.838200 0.000000
-15.816700 0.000000
-15.795200 0.000000
-15.773700 0.000000
-15.752200 0.000000
-15.730800 0.000000
-15.709300 0.000000
-15.687800 0.000000
-15.666300 0.000000
-15.644800 0.000000
-15.623300 0.000000
-15.601900 0.000000
-15.580400 0.000000
-15.558900 0.000000
-15.537400 0.000000
-15.515900 0.000000
-15.494500 0.000000
-15.473000 0.000000
-15.451500 0.000000
-15.430000 0.000000
-15.408500 0.000000
-15.387100 0.000000
-15.365600 0.000000
-15.344100 0.000000
-15.322600 0.000000
-15.301100 0.000000
-15.279700 0.000000
-15.258200 0.000000
-15.236700 0.000000
-15.215200 0.000000
-15.193700 0.000000
-15.172300 0.000000
-15.150800 0.000000
-15.129300 0.000000
-15.107800 0.000000
-15.086300 0.000000
-15.064800 0.000000
-15.043400 0.000000
-15.021900 0.000000
-15.000400 0.000000
-14.978900 0.000000
-14.957400 0.000000
-14.936000 0.000000
-14.914500 0.000000
-14.893000 0.000000
-14.871500 0.000000
-14.850000 0.000000
-14.828600 0.000000
-14.807100 0.000000
-14.785600 0.000000
-14.764100 0.000000
-14.742600 0.000000
-14.721200 0.000000
-14.699700 0.000000
-14.678200 0.000000
-14.656700 0.000000
-14.635200 0.000000
-14.613800 0.000000
-14.592300 0.000000
-14.570800 0.000000
-14.549300 0.000000
-14.527800 0.000000
-14.506300 0.000000
-14.484900 0.000000
-14.463400 0.000000
-14.441900 0.000000
-14.420400 0.000000
-14.398900 0.000000
-14.377500 0.000000
-14.356000 0.000000
-14.334500 0.000000
-14.313000 0.000000
-14.291500 0.000000
-14.270100 0.000000
-14.248600 0.000000
-14.227100 0.000000
-14.205600 0.000000
-14.184100 0.000000
-14.162700 0.000000
-14.141200 0.000000
-14.119700 0.000000
-14.098200 0.000000
-14.076700 0.000000
-14.055200 0.000000
-14.033800 0.000000
-14.012300 0.000000
-13.990800 0.000000
-13.969300 0.000000
-13.947800 0.000000
-13.926400 0.000000
-13.904900 0.000000
-13.883400 0.000000
-13.861900 0.000000
-13.840400 0.000000
-13.819000 0.000000
-13.797500 0.000000
-13.776000 0.000000
-13.754500 0.000000
-13.733000 0.000000
-13.711600 0.000000
-13.690100 0.000000
-13.668600 0.000000
-13.647100 0.000000
-13.625600 0.000000
-13.604200 0.000000
-13.582700 0.000000
-13.561200 0.000000
-13.539700 0.000000
-13.518200 0.000000
-13.496700 0.000000
-13.475300 0.000000
-13.453800 0.000000
-13.432300 0.000000
-13.410800 0.000000
-13.389300 0.000000
-13.367900 0.000000
-13.346400 0.000000
-13.324900 0.000000
-13.303400 0.000000
-13.281900 0.000000
-13.260500 0.000000
-13.239000 0.000000
-13.217500 0.000000
-13.196000 0.000000
-13.174500 0.000000
-13.153100 0.000000
-13.131600 0.000000
-13.110100 0.000000
-13.088600 0.000000
-13.067100 0.000000
-13.045700 0.000000
-13.024200 0.000000
-13.002700 0.000000
-12.981200 0.000000
-12.959700 0.000000
-12.938200 0.000000
-12.916800 0.000000
-12.895300 0.000000
-12.873800 0.000000
-12.852300 0.000000
-12.830800 0.000000
-12.809400 0.000000
-12.787900 0.000000
-12.766400 0.000000
-12.744900 0.000000
-12.723400 0.000000
-12.702000 0.000000
-12.680500 0.000000
-12.659000 0.000000
-12.637500 0.000000
-12.616000 0.000000
-12.594600 0.000000
-12.573100 0.000000
-12.551600 0.000000
-12.530100 0.000000
-12.508600 0.000000
-12.487200 0.000000
-12.465700 0.000000
-12.444200 0.000000
-12.422700 0.000000
-12.401200 0.000000
-12.379700 0.000000
-12.358300 0.000000
-12.336800 0.000000
-12.315300 0.000000
-12.293800 0.000000
-12.272300 0.000000
-12.250900 0.000000
-12.229400 0.000000
-12.207900 0.000000
-12.186400 0.000000
-12.164900 0.000000
-12.143500 0.000000
-12.122000 0.000000
-12.100500 0.000000
-12.079000 0.000000
-12.057500 0.000000
-12.036100 0.000000
-12.014600 0.000000
-11.993100 0.000000
-11.971600 0.000000
-11.950100 0.000000
-11.928600 0.000000
-11.907200 0.000000
-11.885700 0.000000
-11.864200 0.000000
-11.842700 0.000000
-11.821200 0.000000
-11.799800 0.000000
-11.778300 0.000000
-11.756800 0.000000
-11.735300 0.000000
-11.713800 0.000000
-11.692400 0.000000
-11.670900 0.000000
-11.649400 0.000000
-11.627900 0.000000
-11.606400 0.000000
-11.585000 0.000000
-11.563500 0.000000
-11.542000 0.000000
-11.520500 0.000000
-11.499000 0.000000
-11.477600 0.000000
-11.456100 0.000000
-11.434600 0.000000
-11.413100 0.000000
-11.391600 0.000000
-11.370100 0.000000
-11.348700 0.000000
-11.327200 0.000000
-11.305700 0.000000
-11.284200 0.000000
-11.262700 0.000000
-11.241300 0.000000
-11.219800 0.000000
-11.198300 0.000000
-11.176800 0.000000
-11.155300 0.000000
-11.133900 0.000000
-11.112400 0.000000
-11.090900 0.000000
-11.069400 0.000000
-11.047900 0.000000
-11.026500 0.000000
-11.005000 0.000000
-10.983500 0.000000
-10.962000 0.000000
-10.940500 0.000000
-10.919100 0.000000
-10.897600 0.000000
-10.876100 0.000000
-10.854600 0.000000
-10.833100 0.000000
-10.811600 0.000000
-10.790200 0.000000
-10.768700 0.000000
-10.747200 0.000000
-10.725700 0.000000
-10.704200 0.000000
-10.682800 0.000000
-10.661300 0.000000
-10.639800 0.000000
-10.618300 0.000000
-10.596800 0.000000
-10.575400 0.000000
-10.553900 0.000000
-10.532400 0.000000
-10.510900 0.000000
-10.489400 0.000000
-10.468000 0.000000
-10.446500 0.000000
-10.425000 0.000000
-10.403500 0.000000
-10.382000 0.000000
-10.360500 0.000000
-10.339100 0.000000
-10.317600 0.000000
-10.296100 0.000000
-10.274600 0.000000
-10.253100 0.000000
-10.231700 0.000000
-10.210200 0.000000
-10.188700 0.000000
-10.167200 0.000000
-10.145700 0.000000
-10.124300 0.000000
-10.102800 0.000000
-10.081300 0.000000
-10.059800 0.000000
-10.038300 0.000000
-10.016900 0.000000
-9.995400 0.000000
-9.973900 0.000000
-9.952400 0.000000
-9.930900 0.000000
-9.909500 0.000000
-9.888000 0.000000
-9.866500 0.000000
-9.845000 0.000000
-9.823500 0.000000
-9.802000 0.000000
-9.780600 0.000000
-9.759100 0.000000
-9.737600 0.000000
-9.716100 0.000000
-9.694600 0.000000
-9.673200 0.000000
-9.651700 0.000000
-9.630200 0.000000
-9.608700 0.000000
-9.587200 0.000000
-9.565800 0.000000
-9.544300 0.000000
-9.522800 0.000000
-9.501300 0.000000
-9.479800 0.000000
-9.458400 0.000000
-9.436900 0.000000
-9.415400 0.000000
-9.393900 0.000000
-9.372400 0.000000
-9.351000 0.000000
-9.329500 0.000000
-9.308000 0.000000
-9.286500 0.000000
-9.265000 0.000000
-9.243500 0.000000
-9.222100 0.000000
-9.200600 0.000000
-9.179100 0.000000
-9.157600 0.000000
-9.136100 0.000000
-9.114700 0.000000
-9.093200 0.000000
-9.071700 0.000000
-9.050200 0.000000
-9.028700 0.000000
-9.007300 0.000000
-8.985800 0.000000
-8.964300 0.000000
-8.942800 0.000000
-8.921300 0.000000
-8.899900 0.000000
-8.878400 0.000000
-8.856900 0.000000
-8.835400 0.000000
-8.813900 0.000000
-8.792400 0.000000
-8.771000 0.000000
-8.749500 0.000000
-8.728000 0.000000
-8.706500 0.000000
-8.685000 0.000000
-8.663600 0.000000
-8.642100 0.000000
-8.620600 0.000000
-8.599100 0.000000
-8.577600 0.000000
-8.556200 0.000000
-8.534700 0.000000
-8.513200 0.000000
-8.491700 0.000000
-8.470200 0.000000
-8.448800 0.000000
-8.427300 0.000000
-8.405800 0.000000
-8.384300 0.000000
-8.362800 0.000000
-8.341400 0.000000
-8.319900 0.000000
-8.298400 0.000000
-8.276900 0.000000
-8.255400 0.000000
-8.233900 0.000000
-8.212500 0.000000
-8.191000 0.000000
-8.169500 0.000000
-8.148000 0.000000
-8.126500 0.000000
-8.105100 0.000000
-8.083600 0.000000
-8.062100 0.000000
-8.040600 0.000000
-8.019100 0.000000
-7.997700 0.000000
-7.976200 0.000000
-7.954700 0.000000
-7.933200 0.000000
-7.911700 0.000000
-7.890300 0.000000
-7.868800 0.000000
-7.847300 0.000000
-7.825800 0.000000
-7.804300 0.000000
-7.782900 0.000000
-7.761400 0.000000
-7.739900 0.000000
-7.718400 0.000000
-7.696900 0.000000
-7.675400 0.000000
-7.654000 0.000000
-7.632500 0.000000
-7.611000 0.000000
-7.589500 0.000000
-7.568000 0.000000
-7.546600 0.000000
-7.525100 0.000000
-7.503600 0.000000
-7.482100 0.000000
-7.460600 0.000000
-7.439200 0.000000
-7.417700 0.000000
-7.396200 0.000000
-7.374700 0.000000
-7.353200 0.000000
-7.331800 0.000000
-7.310300 0.000000
-7.288800 0.000000
-7.267300 0.000000
-7.245800 0.000000
-7.224300 0.000000
-7.202900 0.000000
-7.181400 0.000000
-7.159900 0.000000
-7.138400 0.000000
-7.116900 0.000000
-7.095500 0.000000
-7.074000 0.000000
-7.052500 0.000000
-7.031000 0.000000
-7.009500 0.000000
-6.988100 0.000000
-6.966600 0.000000
-6.945100 0.000000
-6.923600 0.000000
-6.902100 0.000000
-6.880700 0.000000
-6.859200 0.000000
-6.837700 0.000000
-6.816200 0.000000
-6.794700 0.000000
-6.773300 0.000000
-6.751800 0.000000
-6.730300 0.000000
-6.708800 0.000000
-6.687300 0.000000
-6.665800 0.000000
-6.644400 0.000000
-6.622900 0.000000
-6.601400 0.000000
-6.579900 0.000000
-6.558400 0.000000
-6.537000 0.000000
-6.515500 0.000000
-6.494000 0.000000
-6.472500 0.000000
-6.451000 0.000000
-6.429600 0.000000
-6.408100 0.000000
-6.386600 0.000000
-6.365100 0.000000
-6.343600 0.000000
-6.322200 0.000000
-6.300700 0.000000
-6.279200 0.000000
-6.257700 0.000000
-6.236200 0.000000
-6.214800 0.000000
-6.193300 0.000000
-6.171800 0.000000
-6.150300 0.000000
-6.128800 0.000000
-6.107300 0.000000
-6.085900 0.000000
-6.064400 0.000000
-6.042900 0.000000
-6.021400 0.000000
-5.999900 0.000000
-5.978500 0.000000
-5.957000 0.000000
-5.935500 0.000000
-5.914000 0.000000
-5.892500 0.000000
-5.871100 0.000000
-5.849600 0.000000
-5.828100 0.000000
-5.806600 0.000000
-5.785100 0.000000
-5.763700 0.000000
-5.742200 0.000000
-5.720700 0.000000
-5.699200 0.000000
-5.677700 0.000000
-5.656300 0.000000
-5.634800 0.000000
-5.613300 0.000000
-5.591800 0.000000
-5.570300 0.000000
-5.548800 0.000000
-5.527400 0.000000
-5.505900 0.000000
-5.484400 0.000000
-5.462900 0.000000
-5.441400 0.000000
-5.420000 0.000000
-5.398500 0.000000
-5.377000 0.000000
-5.355500 0.000000
-5.334000 0.000000
-5.312600 0.000000
-5.291100 0.000000
-5.269600 0.000000
-5.248100 0.000000
-5.226600 0.000000
-5.205200 0.000000
-5.183700 0.000000
-5.162200 0.000000
-5.140700 0.000000
-5.119200 0.000000
-5.097700 0.000000
-5.076300 0.000000
-5.054800 0.000000
-5.033300 0.000000
-5.011800 0.000000
-4.990300 0.000000
-4.968900 0.000000
-4.947400 0.000000
-4.925900 0.000000
-4.904400 0.000000
-4.882900 0.000200
-4.861500 0.002000
-4.840000 0.014600
-4.818500 0.074500
-4.797000 0.264900
-4.775500 0.658300
-4.754100 1.143600
-4.732600 1.388900
-4.711100 1.181600
-4.689600 0.720700
-4.668100 0.404900
-4.646700 0.519400
-4.625200 1.174800
-4.603700 2.174400
-4.582200 2.929200
-4.560700 2.986200
-4.539200 2.560600
-4.517800 2.096500
-4.496300 1.718900
-4.474800 1.482100
-4.453300 1.535800
-4.431800 1.849500
-4.410400 2.282200
-4.388900 2.790300
-4.367400 3.174300
-4.345900 3.140700
-4.324400 2.907700
-4.303000 2.970300
-4.281500 3.213300
-4.260000 3.127600
-4.238500 2.684700
-4.217000 2.233000
-4.195600 1.996900
-4.174100 2.156300
-4.152600 2.774500
-4.131100 3.533000
-4.109600 4.139700
-4.088200 4.619200
-4.066700 4.720300
-4.045200 3.946600
-4.023700 2.527500
-4.002200 1.441600
-3.980700 1.504200
-3.959300 2.858200
-3.937800 4.796400
-3.916300 6.069600
-3.894800 6.155600
-3.873300 5.735400
-3.851900 5.305300
-3.830400 4.554400
-3.808900 3.482800
-3.787400 2.682000
-3.765900 2.498100
-3.744500 2.896400
-3.723000 3.773100
-3.701500 5.010400
-3.680000 6.444500
-3.658500 7.476500
-3.637100 7.089200
-3.615600 5.159900
-3.594100 3.067200
-3.572600 2.350700
-3.551100 3.386100
-3.529600 5.269500
-3.508200 6.605400
-3.486700 6.730300
-3.465200 6.011500
-3.443700 4.906100
-3.422200 3.620400
-3.400800 2.685600
-3.379300 2.841300
-3.357800 4.243500
-3.336300 6.311200
-3.314800 8.233800
-3.293400 9.307600
-3.271900 9.145100
-3.250400 8.049600
-3.228900 6.979300
-3.207400 6.706700
-3.186000 7.023400
-3.164500 7.097400
-3.143000 6.494400
-3.121500 5.421800
-3.100000 4.255900
-3.078600 3.315000
-3.057100 2.912500
-3.035600 3.359200
-3.014100 4.779800
-2.992600 6.881400
-2.971100 8.899500
-2.949700 9.766600
-2.928200 8.839100
-2.906700 6.742600
-2.885200 4.905200
-2.863700 4.031300
-2.842300 3.641800
-2.820800 3.131000
-2.799300 2.437700
-2.777800 1.774300
-2.756300 1.500100
-2.734900 2.148000
-2.713400 4.106400
-2.691900 7.076100
-2.670400 9.756400
-2.648900 10.725900
-2.627500 10.281400
-2.606000 10.280600
-2.584500 11.314500
-2.563000 11.830700
-2.541500 10.995500
-2.520100 10.205700
-2.498600 10.730200
-2.477100 11.914800
-2.455600 12.533000
-2.434100 12.206300
-2.412600 11.149200
-2.391200 9.807100
-2.369700 8.657400
-2.348200 7.719000
-2.326700 6.672700
-2.305200 5.520500
-2.283800 4.757900
-2.262300 5.153100
-2.240800 7.213100
-2.219300 10.300600
-2.197800 12.767000
-2.176400 13.565200
-2.154900 13.007400
-2.133400 11.693200
-2.111900 9.703500
-2.090400 7.148900
-2.069000 4.805400
-2.047500 3.658900
-2.026000 4.146000
-2.004500 6.137800
-1.983000 9.021200
-1.961500 11.651200
-1.940100 12.975000
-1.918600 12.806300
-1.897100 11.588500
-1.875600 9.874200
-1.854100 8.608100
-1.832700 8.901300
-1.811200 10.772800
-1.789700 12.948900
-1.768200 14.121000
-1.746700 13.882500
-1.725300 12.611600
-1.703800 10.870700
-1.682300 9.118600
-1.660800 7.776600
-1.639300 7.210400
-1.617900 7.882300
-1.596400 10.228700
-1.574900 13.738900
-1.553400 17.143800
-1.531900 19.995300
-1.510500 22.344300
-1.489000 23.216200
-1.467500 21.829700
-1.446000 19.538100
-1.424500 18.406500
-1.403000 18.434500
-1.381600 17.746000
-1.360100 15.652300
-1.338600 13.970100
-1.317100 14.359900
-1.295600 15.975500
-1.274200 17.057000
-1.252700 17.550500
-1.231200 18.773100
-1.209700 21.096600
-1.188200 23.498200
-1.166800 25.206400
-1.145300 26.198900
-1.123800 26.409900
-1.102300 25.504000
-1.080800 23.123400
-1.059400 19.602200
-1.037900 16.712600
-1.016400 16.732100
-0.994900 20.213700
-0.973400 24.911900
-0.952000 27.361700
-0.930500 25.848400
-0.909000 21.795400
-0.887500 18.481500
-0.866000 18.420100
-0.844500 21.490800
-0.823100 25.161200
-0.801600 26.461700
-0.780100 24.270300
-0.758600 20.014700
-0.737100 16.452800
-0.715700 15.658700
-0.694200 17.460300
-0.672700 19.725800
-0.651200 20.216600
-0.629700 18.176500
-0.608300 14.537900
-0.586800 10.906900
-0.565300 8.318500
-0.543800 6.697400
-0.522300 5.344900
-0.500900 3.802400
-0.479400 2.211400
-0.457900 0.991300
-0.436400 0.329700
-0.414900 0.079500
-0.393400 0.013700
-0.372000 0.001700
-0.350500 0.000100
-0.329000 0.000000
-0.307500 0.000000
-0.286000 0.000000
-0.264600 0.000000
-0.243100 0.000000
-0.221600 0.000000
-0.200100 0.000000
-0.178600 0.000000
-0.157200 0.000000
-0.135700 0.000000
-0.114200 0.000000
-0.092700 0.000000
-0.071200 0.000000
-0.049800 0.000000
-0.028300 0.000000
-0.006800 0.000000
0.014700 0.000000
0.036200 0.000000
0.057600 0.000000
0.079100 0.000000
0.100600 0.000000
0.122100 0.000000
0.143600 0.000000
0.165100 0.000000
0.186500 0.000000
0.208000 0.000000
0.229500 0.000000
0.251000 0.000000
0.272500 0.000000
0.293900 0.000000
0.315400 0.000000
0.336900 0.000000
0.358400 0.000000
0.379900 0.000000
0.401300 0.000000
0.422800 0.000000
0.444300 0.000000
0.465800 0.000000
0.487300 0.000000
0.508700 0.000000
0.530200 0.000000
0.551700 0.000000
0.573200 0.000000
0.594700 0.000000
0.616100 0.000000
0.637600 0.000000
0.659100 0.000000
0.680600 0.000000
0.702100 0.000000
0.723600 0.000000
0.745000 0.000000
0.766500 0.000000
0.788000 0.000200
0.809500 0.002000
0.831000 0.014700
0.852400 0.074700
0.873900 0.265400
0.895400 0.659200
0.916900 1.144300
0.938400 1.388700
0.959800 1.178100
0.981300 0.698900
1.002800 0.292200
1.024300 0.105300
1.045800 0.142300
1.067200 0.517300
1.088700 1.489400
1.110200 3.064900
1.131700 4.600600
1.153200 5.322800
1.174600 5.267200
1.196100 5.076700
1.217600 5.164800
1.239100 5.751800
1.260600 7.160300
1.282100 9.291000
1.303500 11.243300
1.325000 12.183800
1.346500 12.253300
1.368000 12.301200
1.389500 13.086400
1.410900 14.638100
1.432400 16.214100
1.453900 16.852700
1.475400 16.048800
1.496900 14.326700
1.518300 12.936800
1.539800 12.666700
1.561300 13.229900
1.582800 13.791700
1.604300 13.878500
1.625700 13.482000
1.647200 12.687100
1.668700 12.237500
1.690200 13.611300
1.711700 16.984500
1.733200 20.028800
1.754600 20.408300
1.776100 18.821500
1.797600 17.923900
1.819100 18.789200
1.840600 20.022500
1.862000 19.989300
1.883500 18.497400
1.905000 16.397500
1.926500 14.864100
1.948000 14.838900
1.969400 16.249100
1.990900 18.293200
2.012400 20.095300
2.033900 20.522100
2.055400 19.039400
2.076800 17.119400
2.098300 17.060900
2.119800 19.338800
2.141300 22.296700
2.162800 24.279100
2.184200 25.012000
2.205700 25.201800
2.227200 25.877000
2.248700 27.425300
2.270200 28.670700
2.291700 28.092600
2.313100 25.720700
2.334600 22.871800
2.356100 20.856700
2.377600 20.297000
2.399100 21.043400
2.420500 22.722900
2.442000 25.110900
2.463500 27.674300
2.485000 29.636600
2.506500 30.631200
2.527900 30.536300
2.549400 29.253100
2.570900 26.952700
2.592400 24.046300
2.613900 21.380300
2.635300 20.157800
2.656800 20.730500
2.678300 22.563700
2.699800 25.526700
2.721300 28.992000
2.742700 30.486400
2.764200 28.517600
2.785700 25.602600
2.807200 25.189900
2.828700 27.166100
2.850200 29.107800
2.871600 30.000500
2.893100 30.242800
2.914600 29.471600
2.936100 26.842100
2.957600 23.026300
2.979000 20.257200
3.000500 20.163400
3.022000 22.420500
3.043500 25.593100
3.065000 28.418800
3.086400 30.289800
3.107900 31.132100
3.129400 31.130100
3.150900 30.705700
3.172400 30.404700
3.193800 30.552200
3.215300 31.144500
3.236800 32.141700
3.258300 33.884400
3.279800 36.516800
3.301300 38.762100
3.322700 38.689700
3.344200 36.215700
3.365700 33.634800
3.387200 33.199600
3.408700 34.856300
3.430100 36.905800
3.451600 37.760000
3.473100 36.555500
3.494600 34.445900
3.516100 34.416900
3.537500 37.021500
3.559000 39.353800
3.580500 40.028900
3.602000 40.888700
3.623500 43.069200
3.644900 45.200000
3.666400 45.620300
3.687900 43.988400
3.709400 41.158300
3.730900 38.623300
3.752300 37.571300
3.773800 38.152600
3.795300 39.299100
3.816800 39.202600
3.838300 36.882900
3.859800 33.397400
3.881200 31.263400
3.902700 31.891300
3.924200 33.140900
3.945700 31.457100
3.967200 26.670100
3.988600 22.076900
4.010100 20.295900
4.031600 21.386900
4.053100 23.936600
4.074600 26.220600
4.096000 27.070800
4.117500 26.636300
4.139000 26.194300
4.160500 26.810900
4.182000 28.626200
4.203400 31.450600
4.224900 34.646600
4.246400 36.795800
4.267900 37.202800
4.289400 37.310700
4.310800 39.349500
4.332300 43.552200
4.353800 47.355900
4.375300 47.958200
4.396800 45.452300
4.418300 42.318400
4.439700 40.285400
4.461200 39.309500
4.482700 38.949500
4.504200 39.061200
4.525700 39.577000
4.547100 40.406400
4.568600 41.094600
4.590100 40.856000
4.611600 39.616200
4.633100 38.511000
4.654500 38.742700
4.676000 39.957800
4.697500 40.196900
4.719000 38.289500
4.740500 36.021300
4.761900 36.275500
4.783400 38.831900
4.804900 40.200100
4.826400 38.628900
4.847900 36.618300
4.869400 37.074800
4.890800 40.038200
4.912300 44.097400
4.933800 47.779700
4.955300 49.263200
4.976800 47.829400
4.998200 45.596300
5.019700 45.157000
5.041200 45.819300
5.062700 44.531200
5.084200 40.154200
5.105600 34.904400
5.127100 31.865300
5.148600 32.455600
5.170100 35.881700
5.191600 39.919200
5.213000 42.600100
5.234500 43.730100
5.256000 44.506800
5.277500 45.695100
5.299000 46.600500
5.320400 46.109100
5.341900 44.400700
5.363400 42.924100
5.384900 42.862500
5.406400 44.062700
5.427900 45.156100
5.449300 44.560200
5.470800 41.802800
5.492300 37.998100
5.513800 34.801800
5.535300 33.273400
5.556700 33.886100
5.578200 36.225200
5.599700 38.232300
5.621200 38.070900
5.642700 37.134000
5.664100 38.340000
5.685600 41.475500
5.707100 43.180100
5.728600 41.311400
5.750100 37.217700
5.771500 34.199900
5.793000 34.713000
5.814500 38.373900
5.836000 42.070900
5.857500 42.501700
5.878900 39.304600
5.900400 35.222100
5.921900 32.761300
5.943400 32.031400
5.964900 32.288200
5.986400 33.573200
6.007800 35.994300
6.029300 38.685900
6.050800 40.024300
6.072300 38.754500
6.093800 35.259800
6.115200 31.804100
6.136700 30.896500
6.158200 32.771600
6.179700 34.921100
6.201200 35.390400
6.222600 35.473800
6.244100 37.148500
6.265600 39.693200
6.287100 40.594900
6.308600 38.369000
6.330000 34.093700
6.351500 30.622100
6.373000 29.737400
6.394500 30.458600
6.416000 30.745600
6.437500 29.821000
6.458900 28.354300
6.480400 27.493200
6.501900 27.972800
6.523400 29.547300
6.544900 31.223500
6.566300 31.751000
6.587800 30.094700
6.609300 26.637600
6.630800 23.601600
6.652300 23.002500
6.673700 24.389800
6.695200 25.612200
6.716700 25.538300
6.738200 24.715600
6.759700 23.769400
6.781100 22.727600
6.802600 21.748400
6.824100 21.465200
6.845600 22.380800
6.867100 23.981700
6.888500 24.736900
6.910000 23.555600
6.931500 21.185100
6.953000 19.669000
6.974500 20.332000
6.996000 22.355900
7.017400 23.372300
7.038900 21.592700
7.060400 17.567500
7.081900 13.788800
7.103400 12.269700
7.124800 12.731300
7.146300 13.539100
7.167800 13.809400
7.189300 13.645100
7.210800 13.051200
7.232200 12.007100
7.253700 11.073400
7.275200 10.782900
7.296700 10.735400
7.318200 10.167900
7.339600 8.981200
7.361100 7.401100
7.382600 5.434500
7.404100 3.374500
7.425600 2.011300
7.447000 1.840400
7.468500 2.438100
7.490000 2.799900
7.511500 2.342800
7.533000 1.449000
7.554500 0.878000
7.575900 0.982300
7.597400 1.600300
7.618900 2.377600
7.640400 3.094800
7.661900 3.677900
7.683300 3.899000
7.704800 3.417200
7.726300 2.306200
7.747800 1.145500
7.769300 0.408500
7.790700 0.103200
7.812200 0.018300
7.833700 0.002300
7.855200 0.000200
7.876700 0.000000
7.898100 0.000000
7.919600 0.000000
7.941100 0.000000
7.962600 0.000600
7.984100 0.005900
8.005500 0.041700
8.027000 0.206500
8.048500 0.722900
8.070000 1.794500
8.091500 3.179400
8.113000 4.083800
8.134400 4.010100
8.155900 3.584400
8.177400 3.920100
8.198900 5.314100
8.220400 7.176700
8.241800 9.175500
8.263300 11.806300
8.284800 15.449600
8.306300 19.239800
8.327800 21.414700
8.349200 21.011700
8.370700 19.252900
8.392200 18.457200
8.413700 19.371000
8.435200 20.777000
8.456600 21.392300
8.478100 20.862600
8.499600 19.563000
8.521100 18.444500
8.542600 18.197000
8.564100 18.064200
8.585500 16.665300
8.607000 14.118100
8.628500 12.399400
8.650000 13.329200
8.671500 16.471000
8.692900 19.609400
8.714400 21.390100
8.735900 22.446300
8.757400 23.610200
8.778900 24.496100
8.800300 24.347300
8.821800 23.098000
8.843300 21.315700
8.864800 19.592000
8.886300 18.056700
8.907700 16.457700
8.929200 14.962300
8.950700 14.642200
8.972200 16.371200
8.993700 19.133100
9.015100 20.484100
9.036600 19.518100
9.058100 18.103400
9.079600 17.991400
9.101100 18.475900
9.122600 18.231600
9.144000 17.511900
9.165500 17.276700
9.187000 17.642800
9.208500 18.372800
9.230000 19.812500
9.251400 21.909900
9.272900 23.216500
9.294400 22.498700
9.315900 20.506700
9.337400 18.786500
9.358800 17.601900
9.380300 16.131800
9.401800 14.079500
9.423300 12.211700
9.444800 11.501300
9.466200 12.033000
9.487700 12.758900
9.509200 12.505000
9.530700 11.319300
9.552200 10.755000
9.573600 12.598700
9.595100 16.759700
9.616600 20.614500
9.638100 21.527400
9.659600 19.769400
9.681100 17.876500
9.702500 17.684300
9.724000 18.698300
9.745500 18.819600
9.767000 16.754900
9.788500 13.754000
9.809900 12.024000
9.831400 12.116100
9.852900 13.207000
9.874400 14.779500
9.895900 16.654500
9.917300 18.316100
9.938800 18.951600
9.960300 17.859700
9.981800 15.295300
10.003300 12.952200
10.024700 12.688900
10.046200 14.649700
10.067700 17.192800
10.089200 18.729500
10.110700 19.099900
10.132200 18.888000
10.153600 18.264900
10.175100 17.537000
10.196600 17.637000
10.218100 18.603400
10.239600 19.324000
10.261000 19.647500
10.282500 20.170100
10.304000 20.176700
10.325500 18.716700
10.347000 16.668400
10.368400 15.184100
10.389900 13.783200
10.411400 12.002800
10.432900 10.838400
10.454400 11.184600
10.475800 12.551900
10.497300 13.988900
10.518800 15.284800
10.540300 16.653400
10.561800 17.838000
10.583200 18.547000
10.604700 19.133000
10.626200 19.555600
10.647700 18.732200
10.669200 16.473700
10.690700 14.727100
10.712100 15.363300
10.733600 17.610000
10.755100 18.678900
10.776600 16.851300
10.798100 13.167100
10.819500 9.858500
10.841000 8.488600
10.862500 9.778700
10.884000 13.114300
10.905500 16.074700
10.926900 16.640500
10.948400 15.373700
10.969900 14.052800
10.991400 14.069100
11.012900 16.532500
11.034300 21.282400
11.055800 25.851200
11.077300 27.451400
11.098800 25.942100
11.120300 23.599200
11.141700 22.297100
11.163200 22.438200
11.184700 23.795300
11.206200 24.975400
11.227700 23.346400
11.249200 18.336500
11.270600 13.140100
11.292100 11.270800
11.313600 13.222800
11.335100 16.951600
11.356600 20.051100
11.378000 21.408400
11.399500 21.687300
11.421000 22.239300
11.442500 23.363600
11.464000 23.988100
11.485400 23.126200
11.506900 21.205600
11.528400 19.530300
11.549900 18.906500
11.571400 19.193400
11.592800 19.493600
11.614300 18.855300
11.635800 17.496600
11.657300 16.749500
11.678800 17.262000
11.700300 18.116500
11.721700 17.943900
11.743200 16.257700
11.764700 13.806700
11.786200 12.055900
11.807700 12.160300
11.829100 14.043600
11.850600 16.456000
11.872100 17.899600
11.893600 17.625400
11.915100 16.156800
11.936500 14.865200
11.958000 14.824000
11.979500 15.870100
12.001000 16.872500
12.022500 17.152900
12.043900 17.453100
12.065400 19.415600
12.086900 23.538500
12.108400 27.282100
12.129900 27.329500
12.151300 24.095200
12.172800 20.853200
12.194300 19.129000
12.215800 18.297300
12.237300 17.967400
12.258800 17.853900
12.280200 17.264600
12.301700 16.460700
12.323200 16.808800
12.344700 18.918700
12.366200 21.494000
12.387600 22.583300
12.409100 22.239200
12.430600 22.444900
12.452100 23.493900
12.473600 23.099200
12.495000 20.239200
12.516500 17.002400
12.538000 15.602100
12.559500 16.160500
12.581000 18.095500
12.602400 20.954700
12.623900 23.223600
12.645400 22.978000
12.666900 20.489900
12.688400 17.943900
12.709800 16.370400
12.731300 15.153000
12.752800 14.096500
12.774300 13.936800
12.795800 15.074300
12.817300 17.009000
12.838700 19.137600
12.860200 20.947400
12.881700 21.384100
12.903200 19.787400
12.924700 17.444700
12.946100 16.545100
12.967600 17.401100
12.989100 17.863500
13.010600 16.106700
13.032100 12.911200
13.053500 10.283100
13.075000 9.506400
13.096500 11.221400
13.118000 15.155100
13.139500 19.366300
13.160900 21.510400
13.182400 21.052100
13.203900 19.232200
13.225400 17.052300
13.246900 14.522300
13.268400 11.847700
13.289800 10.019600
13.311300 9.751600
13.332800 10.546100
13.354300 11.336000
13.375800 11.875800
13.397200 12.926500
13.418700 14.853700
13.440200 16.746700
13.461700 17.287300
13.483200 16.059500
13.504600 13.958200
13.526100 12.510100
13.547600 12.502900
13.569100 13.249700
13.590600 13.573000
13.612000 13.039200
13.633500 11.882300
13.655000 10.496000
13.676500 9.406900
13.698000 9.211200
13.719400 9.862000
13.740900 10.525400
13.762400 10.625600
13.783900 10.065000
13.805400 8.851200
13.826900 7.681400
13.848300 7.688200
13.869800 8.836500
13.891300 10.116500
13.912800 11.380900
13.934300 13.180900
13.955700 15.144400
13.977200 16.056000
13.998700 15.246200
14.020200 13.227700
14.041700 11.181800
14.063100 9.950200
14.084600 9.484800
14.106100 9.549300
14.127600 10.490000
14.149100 12.412000
14.170500 14.244600
14.192000 14.857100
14.213500 14.483000
14.235000 13.951700
14.256500 13.471100
14.277900 12.972600
14.299400 12.534500
14.320900 12.082900
14.342400 11.638500
14.363900 11.654000
14.385400 12.151400
14.406800 12.322000
14.428300 11.831300
14.449800 11.393500
14.471300 11.748900
14.492800 12.770000
14.514200 13.515400
14.535700 13.418800
14.557200 12.913800
14.578700 12.192000
14.600200 10.948800
14.621600 9.768600
14.643100 9.859800
14.664600 11.406600
14.686100 13.375900
14.707600 14.667700
14.729000 14.891900
14.750500 14.570900
14.772000 14.744400
14.793500 15.602300
14.815000 15.913200
14.836400 14.784600
14.857900 13.143700
14.879400 12.477900
14.900900 13.005200
14.922400 13.587200
14.943900 12.806400
14.965300 10.295200
14.986800 7.304300
15.008300 5.554700
15.029800 5.685300
15.051300 7.341500
15.072700 10.040000
15.094200 12.818800
15.115700 14.181900
15.137200 14.073100
15.158700 14.356300
15.180100 15.857000
15.201600 17.081500
15.223100 16.806300
15.244600 15.616400
15.266100 14.505900
15.287500 13.787700
15.309000 13.349000
15.330500 12.969400
15.352000 12.548900
15.373500 12.383100
15.395000 12.993600
15.416400 14.336200
15.437900 15.421700
15.459400 15.363500
15.480900 14.516200
15.502400 13.876400
15.523800 13.892600
15.545300 14.458800
15.566800 15.315400
15.588300 15.958900
15.609800 15.807600
15.631200 14.857400
15.652700 13.853400
15.674200 13.448400
15.695700 13.358400
15.717200 13.070500
15.738600 13.072500
15.760100 14.105300
15.781600 15.710200
15.803100 16.875600
15.824600 17.484400
15.846000 18.001400
15.867500 18.220800
15.889000 17.521700
15.910500 16.453100
15.932000 16.382400
15.953500 17.108300
15.974900 17.210500
15.996400 16.947600
16.017900 17.728300
16.039400 18.986300
16.060900 18.754800
16.082300 16.878800
16.103800 15.251100
16.125300 15.357900
16.146800 17.036500
16.168300 18.936300
16.189700 19.372300
16.211200 17.639000
16.232700 14.762600
16.254200 12.314400
16.275700 10.886900
16.297100 10.216700
16.318600 10.540700
16.340100 13.013400
16.361600 17.728200
16.383100 22.231600
16.404500 23.846700
16.426000 22.573600
16.447500 20.313200
16.469000 18.436000
16.490500 17.032500
16.512000 15.745500
16.533400 14.734000
16.554900 14.673500
16.576400 15.766400
16.597900 17.190500
16.619400 17.924700
16.640800 17.823200
16.662300 17.619700
16.683800 18.062700
16.705300 19.107700
16.726800 19.943000
16.748200 19.963500
16.769700 19.495600
16.791200 19.225100
16.812700 19.356100
16.834200 19.553500
16.855600 19.393200
16.877100 18.918300
16.898600 18.662100
16.920100 18.982800
16.941600 19.574700
16.963100 19.746200
16.984500 19.095800
17.006000 17.796100
17.027500 16.347800
17.049000 15.177600
17.070500 14.475700
17.091900 14.430300
17.113400 15.113200
17.134900 15.969400
17.156400 16.287700
17.177900 16.101900
17.199300 15.829500
17.220800 15.722200
17.242300 16.018900
17.263800 16.887100
17.285300 18.572900
17.306700 21.072400
17.328200 22.734100
17.349700 21.456100
17.371200 18.000900
17.392700 15.229600
17.414100 14.264100
17.435600 13.960400
17.457100 13.606600
17.478600 14.096400
17.500100 16.296900
17.521600 19.387000
17.543000 21.570200
17.564500 22.283900
17.586000 22.711800
17.607500 23.528700
17.629000 23.210900
17.650400 19.994400
17.671900 14.889000
17.693400 11.071600
17.714900 10.349000
17.736400 11.587700
17.757800 12.758500
17.779300 13.445600
17.800800 15.007500
17.822300 18.310200
17.843800 21.745500
17.865200 23.058000
17.886700 22.536500
17.908200 21.908800
17.929700 21.257600
17.951200 19.795100
17.972600 18.028200
17.994100 16.890200
18.015600 16.696400
18.037100 17.849000
18.058600 20.287300
18.080100 22.341000
18.101500 22.271300
18.123000 20.693000
18.144500 19.742400
18.166000 20.355200
18.187500 21.834200
18.208900 23.005400
18.230400 23.012300
18.251900 22.398000
18.273400 22.533200
18.294900 22.915700
18.316300 21.646500
18.337800 18.648300
18.359300 15.592800
18.380800 13.777800
18.402300 13.681900
18.423700 14.832200
18.445200 15.700100
18.466700 15.341000
18.488200 14.930600
18.509700 16.218800
18.531200 18.853000
18.552600 20.888700
18.574100 21.469300
18.595600 21.259200
18.617100 20.777100
18.638600 20.030400
18.660000 19.451900
18.681500 19.549500
18.703000 19.852200
18.724500 19.692900
18.746000 19.755200
18.767400 21.168700
18.788900 23.076400
18.810400 23.136000
18.831900 20.903000
18.853400 18.599000
18.874800 17.989900
18.896300 18.533100
18.917800 19.108500
18.939300 19.641600
18.960800 20.330400
18.982200 20.662100
19.003700 19.927600
19.025200 18.354100
19.046700 16.952500
19.068200 16.118400
19.089700 15.522700
19.111100 15.099700
19.132600 14.895500
19.154100 14.845700
19.175600 15.418000
19.197100 17.218200
19.218500 19.648800
19.240000 21.035900
19.261500 20.543900
19.283000 19.335800
19.304500 19.083200
19.325900 19.889400
19.347400 20.810400
19.368900 21.442000
19.390400 21.700800
19.411900 21.136100
19.433300 19.422800
19.454800 17.118500
19.476300 15.652800
19.497800 16.354100
19.519300 18.933100
19.540700 21.140300
19.562200 21.008300
19.583700 19.207600
19.605200 17.911600
19.626700 17.853700
19.648200 18.030200
19.669600 17.902600
19.691100 18.271700
19.712600 19.771500
19.734100 21.795300
19.755600 23.285600
19.777000 23.611700
19.798500 22.704400
19.820000 21.046300
19.841500 19.434100
19.863000 18.463600
19.884400 18.145700
19.905900 18.151800
19.927400 18.426100
19.948900 18.974300
19.970400 19.436900
19.991800 19.703300
20.013300 20.119600
20.034800 20.563200
20.056300 20.252400
20.077800 18.973700
20.099300 17.793300
20.120700 17.809400
20.142200 18.611100
20.163700 18.806400
20.185200 17.968500
20.206700 17.087900
20.228100 16.907600
20.249600 16.805600
20.271100 15.901300
20.292600 14.712500
20.314100 14.810400
20.335500 16.777300
20.357000 19.413800
20.378500 21.412300
20.400000 22.654300
20.421500 23.177200
20.442900 22.312100
20.464400 19.805200
20.485900 17.003100
20.507400 16.114800
20.528900 18.146400
20.550300 21.882800
20.571800 25.112700
20.593300 26.250100
20.614800 24.866100
20.636300 21.910100
20.657800 19.190200
20.679200 17.580700
20.700700 16.594900
20.722200 15.961600
20.743700 16.044500
20.765200 16.954000
20.786600 18.567900
20.808100 20.825600
20.829600 23.000700
20.851100 23.493700
20.872600 21.620800
20.894000 19.076300
20.915500 18.393900
20.937000 20.392000
20.958500 23.815200
20.980000 26.725200
21.001400 27.806900
21.022900 26.911700
21.044400 24.782300
21.065900 22.280200
21.087400 19.741200
21.108800 17.310100
21.130300 15.725400
21.151800 15.584500
21.173300 16.295100
21.194800 17.143900
21.216300 18.275300
21.237700 19.810700
21.259200 21.405500
21.280700 22.709500
21.302200 23.352800
21.323700 22.904100
21.345100 21.354200
21.366600 19.231800
21.388100 16.947700
21.409600 14.565800
21.431100 12.446500
21.452500 11.363400
21.474000 11.655200
21.495500 13.028000
21.517000 15.330900
21.538500 18.403600
21.559900 21.191500
21.581400 22.679800
21.602900 23.744700
21.624400 25.928500
21.645900 28.324000
21.667300 28.295400
21.688800 25.424500
21.710300 22.315900
21.731800 21.233600
21.753300 21.798400
21.774800 22.392100
21.796200 22.124700
21.817700 20.701300
21.839200 18.017800
21.860700 14.960300
21.882200 13.373000
21.903600 14.099500
21.925100 15.771100
21.946600 16.570600
21.968100 16.505100
21.989600 16.734400
22.011000 17.250400
22.032500 16.675600
22.054000 14.532600
22.075500 12.577000
22.097000 13.070100
22.118400 16.150100
22.139900 19.536300
22.161400 20.775500
22.182900 19.526600
22.204400 17.612600
22.225900 17.028000
22.247300 18.010900
22.268800 18.911300
22.290300 18.135300
22.311800 16.116100
22.333300 14.554700
22.354700 14.329000
22.376200 15.080000
22.397700 15.830100
22.419200 15.613900
22.440700 14.358100
22.462100 12.828600
22.483600 11.422700
22.505100 9.984300
22.526600 8.649400
22.548100 7.618400
22.569500 6.596600
22.591000 5.435200
22.612500 4.576500
22.634000 4.396000
22.655500 4.729300
22.676900 5.112100
22.698400 5.156400
22.719900 4.670400
22.741400 3.617900
22.762900 2.243900
22.784400 1.050900
22.805800 0.357800
22.827300 0.086700
22.848800 0.014800
22.870300 0.001800
22.891800 0.000100
22.913200 0.000000
22.934700 0.000000
22.956200 0.000000
22.977700 0.000000
22.999200 0.000000
23.020600 0.000000
23.042100 0.000000
23.063600 0.000000
23.085100 0.000000
23.106600 0.000000
23.128000 0.000000
23.149500 0.000000
23.171000 0.000000
23.192500 0.000000
23.214000 0.000000
23.235400 0.000000
23.256900 0.000000
23.278400 0.000000
23.299900 0.000000
23.321400 0.000000
23.342900 0.000000
23.364300 0.000000
23.385800 0.000000
23.407300 0.000000
23.428800 0.000000
23.450300 0.000000
23.471700 0.000000
23.493200 0.000000
23.514700 0.000000
23.536200 0.000000
23.557700 0.000000
23.579100 0.000000
23.600600 0.000000
23.622100 0.000000
23.643600 0.000000
23.665100 0.000000
23.686500 0.000000
23.708000 0.000000
23.729500 0.000000
23.751000 0.000000
23.772500 0.000000
23.794000 0.000000
23.815400 0.000000
23.836900 0.000000
23.858400 0.000000
23.879900 0.000000
23.901400 0.000000
23.922800 0.000000
23.944300 0.000000
23.965800 0.000000
23.987300 0.000000
24.008800 0.000000
24.030200 0.000000
24.051700 0.000000
24.073200 0.000000
24.094700 0.000000
24.116200 0.000000
24.137600 0.000000
24.159100 0.000000
24.180600 0.000000
24.202100 0.000000
24.223600 0.000000
24.245000 0.000000
24.266500 0.000000
24.288000 0.000000
24.309500 0.000000
24.331000 0.000000
24.352500 0.000000
24.373900 0.000000
24.395400 0.000000
24.416900 0.000000
24.438400 0.000000
24.459900 0.000000
24.481300 0.000000
24.502800 0.000000
24.524300 0.000000
24.545800 0.000000
24.567300 0.000000
24.588700 0.000000
24.610200 0.000000
24.631700 0.000000
24.653200 0.000000
24.674700 0.000000
e
