set title 'mp-1183657 - Density of States'
set xlabel 'Energy (eV)'
set ylabel 'DOS (states/eV)'
set grid
set xrange [-10:10]
set yrange [0:68.845]
set xzeroaxis lt -1
set terminal png size 800,600
set output 'mp-1183657_dos_gnuplot.png'
plot '-' using 1:2 with lines title 'DOS'
-9.157100 0.000000
-9.139100 0.000000
-9.121000 0.000000
-9.102900 0.000000
-9.084900 0.000000
-9.066800 0.000000
-9.048800 0.000000
-9.030700 0.000000
-9.012600 0.000000
-8.994600 0.000000
-8.976500 0.000000
-8.958500 0.000000
-8.940400 0.000000
-8.922300 0.000000
-8.904300 0.000000
-8.886200 0.000000
-8.868200 0.000000
-8.850100 0.000000
-8.832000 0.000000
-8.814000 0.000000
-8.795900 0.000000
-8.777900 0.000000
-8.759800 0.000000
-8.741700 0.000000
-8.723700 0.000000
-8.705600 0.000000
-8.687600 0.000000
-8.669500 0.000000
-8.651400 0.000000
-8.633400 0.000000
-8.615300 0.000000
-8.597300 0.000000
-8.579200 0.000000
-8.561100 0.000000
-8.543100 0.000000
-8.525000 0.000000
-8.507000 0.000000
-8.488900 0.000000
-8.470800 0.000000
-8.452800 0.000000
-8.434700 0.000000
-8.416700 0.000000
-8.398600 0.000000
-8.380500 0.000000
-8.362500 0.000000
-8.344400 0.000000
-8.326400 0.000000
-8.308300 0.000000
-8.290300 0.000000
-8.272200 0.000000
-8.254100 0.000000
-8.236100 0.000000
-8.218000 0.000000
-8.200000 0.000000
-8.181900 0.000000
-8.163800 0.000000
-8.145800 0.000000
-8.127700 0.000000
-8.109700 0.000000
-8.091600 0.000000
-8.073500 0.000000
-8.055500 0.000000
-8.037400 0.000000
-8.019400 0.000000
-8.001300 0.000000
-7.983200 0.000000
-7.965200 0.000000
-7.947100 0.000000
-7.929100 0.000000
-7.911000 0.000000
-7.892900 0.000000
-7.874900 0.000000
-7.856800 0.000000
-7.838800 0.000000
-7.820700 0.000000
-7.802600 0.000000
-7.784600 0.000000
-7.766500 0.000000
-7.748500 0.000000
-7.730400 0.000000
-7.712300 0.000000
-7.694300 0.000000
-7.676200 0.000000
-7.658200 0.000000
-7.640100 0.000000
-7.622000 0.000200
-7.604000 0.001200
-7.585900 0.004300
-7.567900 0.012500
-7.549800 0.029400
-7.531700 0.057200
-7.513700 0.093900
-7.495600 0.136200
-7.477600 0.186500
-7.459500 0.253900
-7.441400 0.337500
-7.423400 0.406700
-7.405300 0.417300
-7.387300 0.362000
-7.369200 0.293000
-7.351100 0.281700
-7.333100 0.356500
-7.315000 0.483800
-7.297000 0.604900
-7.278900 0.688700
-7.260800 0.742700
-7.242800 0.774400
-7.224700 0.761100
-7.206700 0.676000
-7.188600 0.535900
-7.170500 0.403500
-7.152500 0.341300
-7.134400 0.374700
-7.116400 0.495600
-7.098300 0.682000
-7.080200 0.899500
-7.062200 1.093800
-7.044100 1.202400
-7.026100 1.189900
-7.008000 1.073900
-6.989900 0.915600
-6.971900 0.785100
-6.953800 0.726200
-6.935800 0.738300
-6.917700 0.783800
-6.899600 0.822500
-6.881600 0.840800
-6.863500 0.847000
-6.845500 0.856900
-6.827400 0.886100
-6.809300 0.937400
-6.791300 1.001400
-6.773200 1.080300
-6.755200 1.197000
-6.737100 1.361000
-6.719000 1.532700
-6.701000 1.634100
-6.682900 1.600900
-6.664900 1.435500
-6.646800 1.215600
-6.628700 1.044900
-6.610700 0.982300
-6.592600 1.009900
-6.574600 1.066100
-6.556500 1.116500
-6.538500 1.184500
-6.520400 1.303100
-6.502300 1.453000
-6.484300 1.571400
-6.466200 1.610900
-6.448200 1.586900
-6.430100 1.583200
-6.412000 1.706400
-6.394000 2.000200
-6.375900 2.377200
-6.357900 2.639500
-6.339800 2.605400
-6.321700 2.256000
-6.303700 1.762200
-6.285600 1.363300
-6.267600 1.213000
-6.249500 1.302100
-6.231400 1.499500
-6.213400 1.673400
-6.195300 1.783900
-6.177300 1.859600
-6.159200 1.912800
-6.141100 1.908100
-6.123100 1.815700
-6.105000 1.673300
-6.087000 1.569600
-6.068900 1.556200
-6.050800 1.588200
-6.032800 1.562200
-6.014700 1.412000
-5.996700 1.168600
-5.978600 0.938800
-5.960500 0.816400
-5.942500 0.802800
-5.924400 0.822800
-5.906400 0.817100
-5.888300 0.791100
-5.870200 0.769900
-5.852200 0.760700
-5.834100 0.786500
-5.816100 0.906200
-5.798000 1.144700
-5.779900 1.421500
-5.761900 1.592700
-5.743800 1.578400
-5.725800 1.446600
-5.707700 1.367500
-5.689600 1.473500
-5.671600 1.744300
-5.653500 2.015700
-5.635500 2.114200
-5.617400 2.007400
-5.599300 1.837100
-5.581300 1.793500
-5.563200 1.944300
-5.545200 2.186500
-5.527100 2.371800
-5.509000 2.466400
-5.491000 2.566900
-5.472900 2.762100
-5.454900 3.009400
-5.436800 3.185100
-5.418700 3.237600
-5.400700 3.241000
-5.382600 3.285700
-5.364600 3.341700
-5.346500 3.257400
-5.328400 2.915800
-5.310400 2.388100
-5.292300 1.903300
-5.274300 1.668800
-5.256200 1.735500
-5.238100 2.007400
-5.220100 2.347000
-5.202000 2.676100
-5.184000 2.986200
-5.165900 3.260600
-5.147800 3.418900
-5.129800 3.366700
-5.111700 3.085900
-5.093700 2.652900
-5.075600 2.168700
-5.057500 1.704200
-5.039500 1.331100
-5.021400 1.156600
-5.003400 1.265400
-4.985300 1.622800
-4.967200 2.069100
-4.949200 2.424300
-4.931100 2.608600
-4.913100 2.666800
-4.895000 2.676100
-4.877000 2.642400
-4.858900 2.522900
-4.840800 2.354300
-4.822800 2.284400
-4.804700 2.421500
-4.786700 2.689700
-4.768600 2.891700
-4.750500 2.912900
-4.732500 2.829300
-4.714400 2.812700
-4.696400 2.949900
-4.678300 3.165000
-4.660200 3.303500
-4.642200 3.272900
-4.624100 3.091000
-4.606100 2.840300
-4.588000 2.632900
-4.569900 2.584000
-4.551900 2.743100
-4.533800 3.047600
-4.515800 3.363600
-4.497700 3.552300
-4.479600 3.520000
-4.461600 3.270400
-4.443500 2.932400
-4.425500 2.695900
-4.407400 2.674900
-4.389300 2.813200
-4.371300 2.925700
-4.353200 2.856400
-4.335200 2.612700
-4.317100 2.328800
-4.299000 2.098400
-4.281000 1.895300
-4.262900 1.669900
-4.244900 1.453400
-4.226800 1.332700
-4.208700 1.349700
-4.190700 1.442800
-4.172600 1.482700
-4.154600 1.372400
-4.136500 1.124800
-4.118400 0.849800
-4.100400 0.663700
-4.082300 0.605700
-4.064300 0.628200
-4.046200 0.648900
-4.028100 0.611700
-4.010100 0.514900
-3.992000 0.393200
-3.974000 0.279400
-3.955900 0.185200
-3.937800 0.110800
-3.919800 0.057000
-3.901700 0.024200
-3.883700 0.008300
-3.865600 0.002200
-3.847500 0.000500
-3.829500 0.000100
-3.811400 0.000000
-3.793400 0.000000
-3.775300 0.000000
-3.757200 0.000000
-3.739200 0.000000
-3.721100 0.000000
-3.703100 0.000000
-3.685000 0.000000
-3.666900 0.000000
-3.648900 0.000000
-3.630800 0.000000
-3.612800 0.000000
-3.594700 0.000000
-3.576600 0.000000
-3.558600 0.000000
-3.540500 0.000000
-3.522500 0.000000
-3.504400 0.000000
-3.486300 0.000000
-3.468300 0.000000
-3.450200 0.000000
-3.432200 0.000000
-3.414100 0.000000
-3.396000 0.000000
-3.378000 0.000000
-3.359900 0.000000
-3.341900 0.000400
-3.323800 0.003300
-3.305700 0.024800
-3.287700 0.144100
-3.269600 0.662300
-3.251600 2.412600
-3.233500 6.998900
-3.215400 16.264300
-3.197400 30.500000
-3.179300 46.602500
-3.161300 58.810100
-3.143200 62.586400
-3.125200 58.125800
-3.107100 49.779200
-3.089000 42.267100
-3.071000 37.582300
-3.052900 34.722100
-3.034900 31.445700
-3.016800 26.323300
-2.998700 19.702500
-2.980700 13.091700
-2.962600 7.806900
-2.944600 4.244600
-2.926500 2.114400
-2.908400 0.951300
-2.890400 0.376300
-2.872300 0.127200
-2.854300 0.036000
-2.836200 0.008400
-2.818100 0.001600
-2.800100 0.000200
-2.782000 0.000000
-2.764000 0.000000
-2.745900 0.000000
-2.727800 0.000000
-2.709800 0.000000
-2.691700 0.000000
-2.673700 0.000000
-2.655600 0.000000
-2.637500 0.000000
-2.619500 0.000000
-2.601400 0.000000
-2.583400 0.000000
-2.565300 0.000000
-2.547200 0.000000
-2.529200 0.000000
-2.511100 0.000000
-2.493100 0.000000
-2.475000 0.000000
-2.456900 0.000000
-2.438900 0.000000
-2.420800 0.000000
-2.402800 0.000000
-2.384700 0.000000
-2.366600 0.000000
-2.348600 0.000000
-2.330500 0.000000
-2.312500 0.000000
-2.294400 0.000000
-2.276300 0.000000
-2.258300 0.000000
-2.240200 0.000000
-2.222200 0.000000
-2.204100 0.000000
-2.186000 0.000000
-2.168000 0.000000
-2.149900 0.000000
-2.131900 0.000000
-2.113800 0.000000
-2.095700 0.000000
-2.077700 0.000000
-2.059600 0.000000
-2.041600 0.000000
-2.023500 0.000000
-2.005400 0.000000
-1.987400 0.000000
-1.969300 0.000000
-1.951300 0.000000
-1.933200 0.000000
-1.915100 0.000000
-1.897100 0.000000
-1.879000 0.000000
-1.861000 0.000000
-1.842900 0.000000
-1.824800 0.000000
-1.806800 0.000000
-1.788700 0.000000
-1.770700 0.000000
-1.752600 0.000000
-1.734500 0.000000
-1.716500 0.000000
-1.698400 0.000000
-1.680400 0.000000
-1.662300 0.000000
-1.644200 0.000000
-1.626200 0.000000
-1.608100 0.000000
-1.590100 0.000000
-1.572000 0.000000
-1.553900 0.000000
-1.535900 0.000000
-1.517800 0.000000
-1.499800 0.000000
-1.481700 0.000000
-1.463600 0.000000
-1.445600 0.000000
-1.427500 0.000000
-1.409500 0.000000
-1.391400 0.000000
-1.373400 0.000000
-1.355300 0.000000
-1.337200 0.000000
-1.319200 0.000000
-1.301100 0.000000
-1.283100 0.000000
-1.265000 0.000000
-1.246900 0.000000
-1.228900 0.000000
-1.210800 0.000000
-1.192800 0.000000
-1.174700 0.000000
-1.156600 0.000000
-1.138600 0.000000
-1.120500 0.000000
-1.102500 0.000000
-1.084400 0.000000
-1.066300 0.000000
-1.048300 0.000000
-1.030200 0.000000
-1.012200 0.000000
-0.994100 0.000000
-0.976000 0.000000
-0.958000 0.000000
-0.939900 0.000000
-0.921900 0.000000
-0.903800 0.000000
-0.885700 0.000000
-0.867700 0.000000
-0.849600 0.000000
-0.831600 0.000000
-0.813500 0.000000
-0.795400 0.000000
-0.777400 0.000000
-0.759300 0.000000
-0.741300 0.000000
-0.723200 0.000000
-0.705100 0.000000
-0.687100 0.000000
-0.669000 0.000000
-0.651000 0.000000
-0.632900 0.000000
-0.614800 0.000000
-0.596800 0.000000
-0.578700 0.000000
-0.560700 0.000000
-0.542600 0.000000
-0.524500 0.000000
-0.506500 0.000000
-0.488400 0.000000
-0.470400 0.000000
-0.452300 0.000000
-0.434200 0.000000
-0.416200 0.000000
-0.398100 0.000000
-0.380100 0.000000
-0.362000 0.000000
-0.343900 0.000000
-0.325900 0.000000
-0.307800 0.000000
-0.289800 0.000000
-0.271700 0.000000
-0.253600 0.000000
-0.235600 0.000000
-0.217500 0.000000
-0.199500 0.000000
-0.181400 0.000000
-0.163300 0.000000
-0.145300 0.000000
-0.127200 0.000000
-0.109200 0.000000
-0.091100 0.000000
-0.073000 0.000000
-0.055000 0.000100
-0.036900 0.000700
-0.018900 0.003300
-0.000800 0.012200
0.017300 0.035400
0.035300 0.080700
0.053400 0.147100
0.071400 0.220000
0.089500 0.280500
0.107600 0.319000
0.125600 0.338300
0.143700 0.353600
0.161700 0.393400
0.179800 0.483300
0.197900 0.622600
0.215900 0.785400
0.234000 0.948700
0.252000 1.109400
0.270100 1.269900
0.288100 1.408200
0.306200 1.469200
0.324300 1.403900
0.342300 1.228400
0.360400 1.038000
0.378400 0.952700
0.396500 1.028400
0.414600 1.193100
0.432600 1.287000
0.450700 1.216100
0.468700 1.070000
0.486800 1.051300
0.504900 1.276600
0.522900 1.663200
0.541000 2.019300
0.559000 2.225300
0.577100 2.298200
0.595200 2.299200
0.613200 2.247700
0.631300 2.149900
0.649300 2.041700
0.667400 1.945600
0.685500 1.822500
0.703500 1.620000
0.721600 1.349300
0.739600 1.088400
0.757700 0.935700
0.775800 0.977800
0.793800 1.249700
0.811900 1.674700
0.829900 2.060300
0.848000 2.221400
0.866100 2.135900
0.884100 1.956100
0.902200 1.859500
0.920200 1.897600
0.938300 1.980100
0.956400 1.991500
0.974400 1.918300
0.992500 1.845700
1.010500 1.834600
1.028600 1.846300
1.046700 1.813600
1.064700 1.750300
1.082800 1.744600
1.100800 1.845300
1.118900 1.983900
1.137000 2.028500
1.155000 1.913700
1.173100 1.714600
1.191100 1.585900
1.209200 1.612200
1.227300 1.728000
1.245300 1.796600
1.263400 1.745400
1.281400 1.594200
1.299500 1.383000
1.317600 1.131700
1.335600 0.881500
1.353700 0.735000
1.371700 0.808000
1.389800 1.112200
1.407900 1.495400
1.425900 1.736600
1.444000 1.731600
1.462000 1.567200
1.480100 1.407900
1.498200 1.347500
1.516200 1.384000
1.534300 1.476800
1.552300 1.581200
1.570400 1.661400
1.588500 1.720000
1.606500 1.797400
1.624600 1.909000
1.642600 2.009200
1.660700 2.045700
1.678800 2.025400
1.696800 2.014700
1.714900 2.089900
1.732900 2.267200
1.751000 2.448400
1.769100 2.458300
1.787100 2.190200
1.805200 1.723400
1.823200 1.286500
1.841300 1.108700
1.859400 1.289200
1.877400 1.749300
1.895500 2.272800
1.913500 2.620500
1.931600 2.660000
1.949700 2.429100
1.967700 2.092600
1.985800 1.831500
2.003800 1.741100
2.021900 1.807800
2.039900 1.959000
2.058000 2.113600
2.076100 2.204500
2.094100 2.218800
2.112200 2.239500
2.130200 2.392200
2.148300 2.703500
2.166400 3.032400
2.184400 3.177200
2.202500 3.071100
2.220500 2.872500
2.238600 2.830600
2.256700 3.032700
2.274700 3.302500
2.292800 3.363800
2.310800 3.093800
2.328900 2.636000
2.347000 2.310700
2.365000 2.395600
2.383100 2.908300
2.401100 3.545300
2.419200 3.877500
2.437300 3.685000
2.455300 3.126200
2.473400 2.581200
2.491400 2.354300
2.509500 2.485300
2.527600 2.755100
2.545600 2.863100
2.563700 2.661700
2.581700 2.241300
2.599800 1.810100
2.617900 1.532200
2.635900 1.477200
2.654000 1.657000
2.672000 2.053600
2.690100 2.621800
2.708200 3.295700
2.726200 3.983600
2.744300 4.536500
2.762300 4.758500
2.780400 4.519200
2.798500 3.882400
2.816500 3.088100
2.834600 2.387100
2.852600 1.910700
2.870700 1.677500
2.888800 1.647700
2.906800 1.741300
2.924900 1.858900
2.942900 1.938000
2.961000 1.987800
2.979100 2.056800
2.997100 2.176900
3.015200 2.344100
3.033200 2.527600
3.051300 2.674900
3.069400 2.727500
3.087400 2.653400
3.105500 2.470600
3.123500 2.241900
3.141600 2.044200
3.159700 1.937000
3.177700 1.942200
3.195800 2.025400
3.213800 2.091200
3.231900 2.046200
3.250000 1.889600
3.268000 1.704000
3.286100 1.543500
3.304100 1.384700
3.322200 1.208900
3.340300 1.072100
3.358300 1.044500
3.376400 1.115000
3.394400 1.204000
3.412500 1.258400
3.430600 1.300900
3.448600 1.393800
3.466700 1.562100
3.484700 1.741800
3.502800 1.817700
3.520900 1.733800
3.538900 1.558500
3.557000 1.423600
3.575000 1.410700
3.593100 1.505900
3.611200 1.643000
3.629200 1.749600
3.647300 1.750200
3.665300 1.599000
3.683400 1.356300
3.701400 1.178700
3.719500 1.193600
3.737600 1.412100
3.755600 1.759700
3.773700 2.124800
3.791700 2.376400
3.809800 2.414600
3.827900 2.251600
3.845900 2.014700
3.864000 1.852500
3.882000 1.852300
3.900100 2.026000
3.918200 2.316600
3.936200 2.592300
3.954300 2.692700
3.972300 2.568800
3.990400 2.371200
4.008500 2.337400
4.026500 2.587200
4.044600 3.040400
4.062600 3.500200
4.080700 3.794100
4.098800 3.857000
4.116800 3.717300
4.134900 3.440000
4.152900 3.104100
4.171000 2.805000
4.189100 2.629500
4.207100 2.603900
4.225200 2.668900
4.243200 2.715900
4.261300 2.654000
4.279400 2.464300
4.297400 2.225500
4.315500 2.087400
4.333500 2.172500
4.351600 2.467300
4.369700 2.815900
4.387700 3.018200
4.405800 2.946300
4.423800 2.620200
4.441900 2.202500
4.460000 1.883200
4.478000 1.736500
4.496100 1.686000
4.514100 1.610600
4.532200 1.490100
4.550300 1.451300
4.568300 1.639400
4.586400 2.028600
4.604400 2.407100
4.622500 2.594400
4.640600 2.625700
4.658600 2.654000
4.676700 2.708000
4.694700 2.652100
4.712800 2.393500
4.730900 2.038300
4.748900 1.801200
4.767000 1.802200
4.785000 1.978500
4.803100 2.165400
4.821200 2.247500
4.839200 2.248100
4.857300 2.276800
4.875300 2.379300
4.893400 2.453700
4.911500 2.353300
4.929500 2.076800
4.947600 1.813000
4.965600 1.763500
4.983700 1.941500
5.001800 2.171100
5.019800 2.276200
5.037900 2.252800
5.055900 2.238700
5.074000 2.327400
5.092100 2.464800
5.110100 2.539800
5.128200 2.499800
5.146200 2.346400
5.164300 2.092800
5.182400 1.785500
5.200400 1.515500
5.218500 1.358000
5.236500 1.327600
5.254600 1.404900
5.272700 1.558300
5.290700 1.722500
5.308800 1.802600
5.326800 1.746500
5.344900 1.617400
5.363000 1.561700
5.381000 1.667200
5.399100 1.865000
5.417100 1.995400
5.435200 1.962600
5.453200 1.818500
5.471300 1.703700
5.489400 1.704400
5.507400 1.771300
5.525500 1.789900
5.543500 1.703100
5.561600 1.539500
5.579700 1.354700
5.597700 1.203300
5.615800 1.151400
5.633800 1.262200
5.651900 1.556800
5.670000 1.989300
5.688000 2.434500
5.706100 2.713800
5.724100 2.703200
5.742200 2.447100
5.760300 2.134900
5.778300 1.955800
5.796400 1.990800
5.814400 2.206900
5.832500 2.505900
5.850600 2.785500
5.868600 2.978200
5.886700 3.046400
5.904700 2.980600
5.922800 2.827600
5.940900 2.677500
5.958900 2.597400
5.977000 2.605100
5.995000 2.688900
6.013100 2.801300
6.031200 2.849100
6.049200 2.754300
6.067300 2.540300
6.085300 2.333600
6.103400 2.262700
6.121500 2.348400
6.139500 2.486000
6.157600 2.528200
6.175600 2.389500
6.193700 2.097100
6.211800 1.776000
6.229800 1.604400
6.247900 1.748500
6.265900 2.258000
6.284000 2.977300
6.302100 3.600300
6.320100 3.879900
6.338200 3.794800
6.356200 3.517000
6.374300 3.258900
6.392400 3.155300
6.410400 3.222200
6.428500 3.379600
6.446500 3.528600
6.464600 3.615400
6.482700 3.623900
6.500700 3.561600
6.518800 3.488700
6.536800 3.498500
6.554900 3.614000
6.573000 3.727200
6.591000 3.696800
6.609100 3.524000
6.627100 3.400800
6.645200 3.511800
6.663300 3.790800
6.681300 3.962200
6.699400 3.844300
6.717400 3.527400
6.735500 3.253500
6.753600 3.201700
6.771600 3.388500
6.789700 3.687200
6.807700 3.916700
6.825800 3.952900
6.843900 3.786700
6.861900 3.487300
6.880000 3.140100
6.898000 2.817500
6.916100 2.563500
6.934200 2.375700
6.952200 2.219800
6.970300 2.072200
6.988300 1.937500
7.006400 1.836500
7.024500 1.800000
7.042500 1.870500
7.060600 2.081900
7.078600 2.421700
7.096700 2.816100
7.114700 3.161000
7.132800 3.378200
7.150900 3.444800
7.168900 3.376400
7.187000 3.224300
7.205000 3.096700
7.223100 3.128700
7.241200 3.399200
7.259200 3.880400
7.277300 4.435400
7.295300 4.849500
7.313400 4.944300
7.331500 4.733600
7.349500 4.433600
7.367600 4.268300
7.385600 4.272400
7.403700 4.295000
7.421800 4.171100
7.439800 3.872200
7.457900 3.499700
7.475900 3.164200
7.494000 2.909600
7.512100 2.739400
7.530100 2.663800
7.548200 2.697300
7.566200 2.820000
7.584300 2.973000
7.602400 3.126200
7.620400 3.324600
7.638500 3.601000
7.656500 3.852700
7.674600 3.905600
7.692700 3.722100
7.710700 3.459200
7.728800 3.296500
7.746800 3.272200
7.764900 3.295200
7.783000 3.255600
7.801000 3.108100
7.819100 2.884100
7.837100 2.644200
7.855200 2.419700
7.873300 2.209700
7.891300 2.033900
7.909400 1.961500
7.927400 2.049900
7.945500 2.249800
7.963600 2.413300
7.981600 2.441400
7.999700 2.387700
8.017700 2.366500
8.035800 2.408000
8.053900 2.467600
8.071900 2.522800
8.090000 2.576800
8.108000 2.604700
8.126100 2.579400
8.144200 2.528800
8.162200 2.507500
8.180300 2.526700
8.198300 2.553700
8.216400 2.558500
8.234500 2.535700
8.252500 2.512900
8.270600 2.560800
8.288600 2.740100
8.306700 2.993400
8.324800 3.139700
8.342800 3.025300
8.360900 2.652400
8.378900 2.156600
8.397000 1.692800
8.415100 1.347400
8.433100 1.130100
8.451200 1.018800
8.469200 0.987200
8.487300 0.996200
8.505400 1.003800
8.523400 1.007800
8.541500 1.057200
8.559500 1.194500
8.577600 1.386700
8.595700 1.532200
8.613700 1.555800
8.631800 1.494900
8.649800 1.469800
8.667900 1.562700
8.686000 1.738900
8.704000 1.877000
8.722100 1.861400
8.740100 1.662500
8.758200 1.358000
8.776300 1.084000
8.794300 0.941100
8.812400 0.928400
8.830400 0.957600
8.848500 0.932300
8.866500 0.827400
8.884600 0.701100
8.902700 0.628500
8.920700 0.628200
8.938800 0.662700
8.956800 0.694700
8.974900 0.720300
8.993000 0.748700
9.011000 0.764500
9.029100 0.726600
9.047100 0.612800
9.065200 0.449500
9.083300 0.293900
9.101300 0.203800
9.119400 0.224400
9.137400 0.373500
9.155500 0.610200
9.173600 0.829400
9.191600 0.931800
9.209700 0.912200
9.227700 0.849700
9.245800 0.811000
9.263900 0.809500
9.281900 0.860200
9.300000 1.013700
9.318000 1.296900
9.336100 1.645100
9.354200 1.943400
9.372200 2.137900
9.390300 2.258200
9.408300 2.326600
9.426400 2.307600
9.444500 2.172400
9.462500 1.971600
9.480600 1.811800
9.498600 1.755200
9.516700 1.766200
9.534800 1.776500
9.552800 1.786900
9.570900 1.875800
9.588900 2.098500
9.607000 2.390000
9.625100 2.597400
9.643100 2.631600
9.661200 2.570300
9.679200 2.576600
9.697300 2.724000
9.715400 2.933200
9.733400 3.084300
9.751500 3.137500
9.769500 3.111700
9.787600 3.002800
9.805700 2.794000
9.823700 2.511200
9.841800 2.200500
9.859800 1.886300
9.877900 1.604200
9.896000 1.426800
9.914000 1.391700
9.932100 1.438500
9.950100 1.472100
9.968200 1.467800
9.986300 1.475000
10.004300 1.533700
10.022400 1.610700
10.040400 1.630700
10.058500 1.576800
10.076600 1.540100
10.094600 1.640100
10.112700 1.891800
10.130700 2.169100
10.148800 2.308100
10.166900 2.250000
10.184900 2.085500
10.203000 1.969800
10.221000 1.992900
10.239100 2.128500
10.257200 2.287600
10.275200 2.392400
10.293300 2.409000
10.311300 2.357600
10.329400 2.302600
10.347500 2.295900
10.365500 2.312900
10.383600 2.269000
10.401600 2.105900
10.419700 1.856900
10.437800 1.652600
10.455800 1.662000
10.473900 1.965500
10.491900 2.440800
10.510000 2.828400
10.528100 2.957200
10.546100 2.870300
10.564200 2.713300
10.582200 2.570900
10.600300 2.432500
10.618300 2.252500
10.636400 2.014600
10.654500 1.770800
10.672500 1.645300
10.690600 1.781300
10.708600 2.243100
10.726700 2.937700
10.744800 3.643100
10.762800 4.139600
10.780900 4.334100
10.798900 4.275800
10.817000 4.065200
10.835100 3.764800
10.853100 3.398900
10.871200 3.011600
10.889200 2.678100
10.907300 2.450900
10.925400 2.339100
10.943400 2.353400
10.961500 2.502800
10.979500 2.712400
10.997600 2.822200
11.015700 2.732400
11.033700 2.510000
11.051800 2.312000
11.069800 2.239700
11.087900 2.289000
11.106000 2.398800
11.124000 2.518200
11.142100 2.638900
11.160100 2.787500
11.178200 2.980400
11.196300 3.165300
11.214300 3.228900
11.232400 3.121700
11.250400 2.966500
11.268500 2.965300
11.286600 3.181700
11.304600 3.475800
11.322700 3.663200
11.340700 3.677600
11.358800 3.559000
11.376900 3.355200
11.394900 3.103100
11.413000 2.871100
11.431000 2.735800
11.449100 2.700900
11.467200 2.695000
11.485200 2.673100
11.503300 2.683400
11.521300 2.793600
11.539400 2.975800
11.557500 3.106200
11.575500 3.079600
11.593600 2.883900
11.611600 2.570300
11.629700 2.206300
11.647800 1.868400
11.665800 1.625200
11.683900 1.495200
11.701900 1.437900
11.720000 1.401400
11.738100 1.369000
11.756100 1.361000
11.774200 1.402900
11.792200 1.499000
11.810300 1.620100
11.828400 1.698400
11.846400 1.666500
11.864500 1.541600
11.882500 1.440000
11.900600 1.459500
11.918700 1.570800
11.936700 1.676400
11.954800 1.750500
11.972800 1.861400
11.990900 2.049900
12.009000 2.241500
12.027000 2.323000
12.045100 2.283800
12.063100 2.234000
12.081200 2.274800
12.099300 2.388000
12.117300 2.477700
12.135400 2.491800
12.153400 2.473200
12.171500 2.516200
12.189600 2.685400
12.207600 2.941500
12.225700 3.142700
12.243700 3.165700
12.261800 3.027300
12.279800 2.847800
12.297900 2.701600
12.316000 2.555500
12.334000 2.356900
12.352100 2.132900
12.370100 1.976800
12.388200 1.953200
12.406300 2.031700
12.424300 2.118900
12.442400 2.152900
12.460400 2.147000
12.478500 2.144400
12.496600 2.162000
12.514600 2.194900
12.532700 2.246300
12.550700 2.328300
12.568800 2.435500
12.586900 2.540600
12.604900 2.621700
12.623000 2.673200
12.641000 2.679000
12.659100 2.611000
12.677200 2.485800
12.695200 2.395700
12.713300 2.425800
12.731300 2.531900
12.749400 2.554000
12.767500 2.378600
12.785500 2.060000
12.803600 1.761500
12.821600 1.613900
12.839700 1.650400
12.857800 1.828900
12.875800 2.075100
12.893900 2.322100
12.911900 2.542600
12.930000 2.742100
12.948100 2.920400
12.966100 3.051100
12.984200 3.114200
13.002200 3.139300
13.020300 3.179900
13.038400 3.244400
13.056400 3.295300
13.074500 3.322000
13.092500 3.360300
13.110600 3.421400
13.128700 3.440900
13.146700 3.350700
13.164800 3.196700
13.182800 3.119200
13.200900 3.182400
13.219000 3.285700
13.237000 3.299100
13.255100 3.207200
13.273100 3.052000
13.291200 2.830300
13.309300 2.550100
13.327300 2.303900
13.345400 2.181000
13.363400 2.164700
13.381500 2.207200
13.399600 2.357300
13.417600 2.723400
13.435700 3.311100
13.453700 3.939900
13.471800 4.349000
13.489900 4.400600
13.507900 4.165100
13.526000 3.801400
13.544000 3.420400
13.562100 3.090500
13.580200 2.900900
13.598200 2.935300
13.616300 3.166800
13.634300 3.415900
13.652400 3.470200
13.670500 3.271800
13.688500 2.962400
13.706600 2.733500
13.724600 2.660800
13.742700 2.701600
13.760800 2.822700
13.778800 3.060500
13.796900 3.403100
13.814900 3.677400
13.833000 3.667900
13.851100 3.350900
13.869100 2.919200
13.887200 2.564300
13.905200 2.319400
13.923300 2.141800
13.941400 2.058800
13.959400 2.168300
13.977500 2.524500
13.995500 3.052800
14.013600 3.567400
14.031600 3.886200
14.049700 3.963600
14.067800 3.912200
14.085800 3.874800
14.103900 3.876700
14.121900 3.838300
14.140000 3.738700
14.158100 3.710500
14.176100 3.919200
14.194200 4.379400
14.212200 4.923600
14.230300 5.309500
14.248400 5.343900
14.266400 4.978000
14.284500 4.340000
14.302500 3.656300
14.320600 3.119100
14.338700 2.820600
14.356700 2.772200
14.374800 2.934100
14.392800 3.225700
14.410900 3.561300
14.429000 3.909700
14.447000 4.292800
14.465100 4.680500
14.483100 4.914700
14.501200 4.830400
14.519300 4.476100
14.537300 4.130400
14.555400 4.023900
14.573400 4.088400
14.591500 4.056000
14.609600 3.778700
14.627600 3.376200
14.645700 3.094400
14.663700 3.087000
14.681800 3.307700
14.699900 3.559000
14.717900 3.661400
14.736000 3.598900
14.754000 3.498400
14.772100 3.489600
14.790200 3.596200
14.808200 3.720800
14.826300 3.712200
14.844300 3.494900
14.862400 3.159500
14.880500 2.889300
14.898500 2.790100
14.916600 2.823000
14.934600 2.893900
14.952700 2.955700
14.970800 3.012600
14.988800 3.074400
15.006900 3.140700
15.024900 3.216600
15.043000 3.311500
15.061100 3.418600
15.079100 3.513400
15.097200 3.590700
15.115200 3.687800
15.133300 3.827200
15.151400 3.935400
15.169400 3.880300
15.187500 3.619200
15.205500 3.285000
15.223600 3.105000
15.241700 3.232400
15.259700 3.626500
15.277800 4.059500
15.295800 4.262600
15.313900 4.112200
15.332000 3.699000
15.350000 3.254300
15.368100 3.019400
15.386100 3.100900
15.404200 3.371800
15.422300 3.559500
15.440300 3.513600
15.458400 3.363900
15.476400 3.356900
15.494500 3.561000
15.512600 3.785600
15.530600 3.786900
15.548700 3.522300
15.566700 3.199900
15.584800 3.095900
15.602900 3.333800
15.620900 3.815700
15.639000 4.321900
15.657000 4.659600
15.675100 4.746800
15.693100 4.593300
15.711200 4.228900
15.729300 3.682800
15.747300 3.036700
15.765400 2.432500
15.783400 1.984900
15.801500 1.728400
15.819600 1.659300
15.837600 1.753300
15.855700 1.931500
15.873700 2.086800
15.891800 2.175700
15.909900 2.245200
15.927900 2.356600
15.946000 2.502900
15.964000 2.601900
15.982100 2.573400
16.000200 2.440000
16.018200 2.333100
16.036300 2.372100
16.054300 2.558500
16.072400 2.815900
16.090500 3.080800
16.108500 3.319500
16.126600 3.530300
16.144600 3.769300
16.162700 4.101700
16.180800 4.490200
16.198800 4.779400
16.216900 4.808000
16.234900 4.510700
16.253000 3.935700
16.271100 3.224100
16.289100 2.576500
16.307200 2.189300
16.325200 2.168500
16.343300 2.479400
16.361400 2.971500
16.379400 3.458000
16.397500 3.784900
16.415500 3.870500
16.433600 3.724100
16.451700 3.426900
16.469700 3.068700
16.487800 2.697000
16.505800 2.337900
16.523900 2.049600
16.542000 1.927700
16.560000 2.046300
16.578100 2.401300
16.596100 2.921600
16.614200 3.525500
16.632300 4.144200
16.650300 4.693200
16.668400 5.074500
16.686400 5.249000
16.704500 5.285800
16.722600 5.283300
16.740600 5.226200
16.758700 4.984300
16.776700 4.504900
16.794800 3.941200
16.812900 3.515600
16.830900 3.304700
16.849000 3.217400
16.867000 3.136800
16.885100 3.038300
16.903200 2.990900
16.921200 3.066400
16.939300 3.242500
16.957300 3.399700
16.975400 3.442300
16.993500 3.421600
17.011500 3.509000
17.029600 3.822700
17.047600 4.297700
17.065700 4.749000
17.083800 5.022700
17.101800 5.060600
17.119900 4.903500
17.137900 4.709400
17.156000 4.672800
17.174100 4.829900
17.192100 5.010600
17.210200 5.038600
17.228200 4.910300
17.246300 4.742200
17.264400 4.609800
17.282400 4.474400
17.300500 4.241900
17.318500 3.877500
17.336600 3.466400
17.354700 3.174500
17.372700 3.145000
17.390800 3.383300
17.408800 3.716200
17.426900 3.911800
17.444900 3.862700
17.463000 3.633600
17.481100 3.369200
17.499100 3.199500
17.517200 3.171700
17.535200 3.205500
17.553300 3.157300
17.571400 2.986500
17.589400 2.829300
17.607500 2.870800
17.625500 3.181600
17.643600 3.707800
17.661700 4.351100
17.679700 4.985300
17.697800 5.438200
17.715800 5.563500
17.733900 5.354700
17.752000 4.937500
17.770000 4.457100
17.788100 4.016400
17.806100 3.699300
17.824200 3.578600
17.842300 3.663300
17.860300 3.873100
17.878400 4.116000
17.896400 4.390300
17.914500 4.767400
17.932600 5.265700
17.950600 5.769200
17.968700 6.084600
17.986700 6.097500
18.004800 5.889200
18.022900 5.668500
18.040900 5.573100
18.059000 5.574200
18.077000 5.553300
18.095100 5.406800
18.113200 5.114100
18.131200 4.788600
18.149300 4.638300
18.167300 4.808800
18.185400 5.258100
18.203500 5.767500
18.221500 6.056800
18.239600 5.946000
18.257600 5.469400
18.275700 4.841800
18.293800 4.314100
18.311800 4.035100
18.329900 3.981400
18.347900 3.996100
18.366000 3.955100
18.384100 3.918900
18.402100 4.067800
18.420200 4.480200
18.438200 5.059500
18.456300 5.675600
18.474400 6.244300
18.492400 6.623200
18.510500 6.579700
18.528500 5.993100
18.546600 5.035700
18.564700 4.075300
18.582700 3.419500
18.600800 3.165800
18.618800 3.241300
18.636900 3.535000
18.655000 3.971300
18.673000 4.457300
18.691100 4.824200
18.709100 4.904000
18.727200 4.662100
18.745300 4.206200
18.763300 3.695800
18.781400 3.292700
18.799400 3.151100
18.817500 3.350800
18.835600 3.793300
18.853600 4.211200
18.871700 4.376200
18.889700 4.324900
18.907800 4.302600
18.925900 4.467000
18.943900 4.745200
18.962000 4.975300
18.980000 5.051000
18.998100 4.930200
19.016200 4.654700
19.034200 4.391500
19.052300 4.332500
19.070300 4.501600
19.088400 4.727400
19.106500 4.854400
19.124500 4.921600
19.142600 5.076700
19.160600 5.366600
19.178700 5.691400
19.196700 5.927500
19.214800 6.007500
19.232900 5.882300
19.250900 5.504800
19.269000 4.900000
19.287000 4.199900
19.305100 3.586000
19.323200 3.226500
19.341200 3.232000
19.359300 3.569600
19.377300 4.011800
19.395400 4.267000
19.413500 4.222300
19.431500 4.028900
19.449600 3.936300
19.467600 4.084400
19.485700 4.455200
19.503800 4.923800
19.521800 5.317500
19.539900 5.512900
19.557900 5.524800
19.576000 5.455000
19.594100 5.368200
19.612100 5.280200
19.630200 5.226900
19.648200 5.236800
19.666300 5.246400
19.684400 5.168900
19.702400 5.065700
19.720500 5.106500
19.738500 5.299200
19.756600 5.399800
19.774700 5.191900
19.792700 4.761200
19.810800 4.393800
19.828800 4.266400
19.846900 4.328100
19.865000 4.448400
19.883000 4.586700
19.901100 4.808400
19.919100 5.181000
19.937200 5.650100
19.955300 5.997900
19.973300 5.980900
19.991400 5.564600
20.009400 4.976900
20.027500 4.498900
20.045600 4.252500
20.063600 4.193100
20.081700 4.212500
20.099700 4.212900
20.117800 4.135900
20.135900 3.971400
20.153900 3.751800
20.172000 3.541000
20.190000 3.408000
20.208100 3.406000
20.226200 3.596600
20.244200 4.048200
20.262300 4.713200
20.280300 5.324700
20.298400 5.555000
20.316500 5.331900
20.334500 4.919400
20.352600 4.652500
20.370600 4.641900
20.388700 4.751200
20.406800 4.796900
20.424800 4.711500
20.442900 4.536000
20.460900 4.338700
20.479000 4.189900
20.497100 4.161300
20.515100 4.282600
20.533200 4.503000
20.551200 4.721300
20.569300 4.850100
20.587400 4.864800
20.605400 4.811100
20.623500 4.754200
20.641500 4.693200
20.659600 4.538200
20.677700 4.227600
20.695700 3.871100
20.713800 3.694300
20.731800 3.806700
20.749900 4.085200
20.768000 4.324000
20.786000 4.436100
20.804100 4.450300
20.822100 4.371400
20.840200 4.150600
20.858200 3.808600
20.876300 3.518700
20.894400 3.534900
20.912400 4.036000
20.930500 4.982700
20.948500 6.088100
20.966600 6.961700
20.984700 7.338700
21.002700 7.218400
21.020800 6.819500
21.038800 6.393600
21.056900 6.060100
21.075000 5.807800
21.093000 5.596100
21.111100 5.402400
21.129100 5.209800
21.147200 4.997700
21.165300 4.748300
21.183300 4.491600
21.201400 4.370600
21.219400 4.593000
21.237500 5.223800
21.255600 6.039200
21.273600 6.640600
21.291700 6.719400
21.309700 6.246800
21.327800 5.490200
21.345900 4.851600
21.363900 4.630100
21.382000 4.870300
21.400000 5.358500
21.418100 5.772700
21.436200 5.938500
21.454200 5.939800
21.472300 5.913800
21.490300 5.839200
21.508400 5.650000
21.526500 5.429500
21.544500 5.313500
21.562600 5.284300
21.580600 5.217700
21.598700 5.094300
21.616800 5.024400
21.634800 5.062400
21.652900 5.109100
21.670900 5.019300
21.689000 4.733300
21.707100 4.309000
21.725100 3.909100
21.743200 3.744000
21.761200 3.917600
21.779300 4.285300
21.797400 4.536700
21.815400 4.470200
21.833500 4.152400
21.851500 3.810200
21.869600 3.622800
21.887700 3.615600
21.905700 3.704700
21.923800 3.819300
21.941800 3.978600
21.959900 4.238900
21.978000 4.575300
21.996000 4.842000
22.014100 4.873300
22.032100 4.633400
22.050200 4.265100
22.068300 3.992700
22.086300 3.984000
22.104400 4.273200
22.122400 4.749500
22.140500 5.212600
22.158600 5.503800
22.176600 5.633800
22.194700 5.776500
22.212700 6.099200
22.230800 6.572700
22.248900 6.965400
22.266900 7.050800
22.285000 6.814300
22.303000 6.449400
22.321100 6.175700
22.339200 6.067000
22.357200 6.040600
22.375300 5.983700
22.393300 5.866200
22.411400 5.734800
22.429500 5.638500
22.447500 5.590200
22.465600 5.585900
22.483600 5.611700
22.501700 5.626600
22.519800 5.590100
22.537800 5.510400
22.555900 5.410700
22.573900 5.275800
22.592000 5.093700
22.610000 4.926500
22.628100 4.890500
22.646200 5.056900
22.664200 5.368300
22.682300 5.659500
22.700300 5.793900
22.718400 5.788600
22.736500 5.796300
22.754500 5.978600
22.772600 6.395100
22.790600 6.943800
22.808700 7.359200
22.826800 7.352400
22.844800 6.857100
22.862900 6.116600
22.880900 5.468000
22.899000 5.076600
22.917100 4.909500
22.935100 4.875200
22.953200 4.892000
22.971200 4.871300
22.989300 4.771100
23.007400 4.677700
23.025400 4.737100
23.043500 4.989800
23.061500 5.334500
23.079600 5.621900
23.097700 5.729100
23.115700 5.606900
23.133800 5.318600
23.151800 4.994900
23.169900 4.727900
23.188000 4.562400
23.206000 4.578900
23.224100 4.869000
23.242100 5.362800
23.260200 5.777600
23.278300 5.862300
23.296300 5.677300
23.314400 5.542900
23.332400 5.702900
23.350500 6.079000
23.368600 6.353900
23.386600 6.284100
23.404700 5.928300
23.422700 5.546500
23.440800 5.306200
23.458900 5.176500
23.476900 5.081700
23.495000 5.022600
23.513000 5.028900
23.531100 5.095800
23.549200 5.189000
23.567200 5.253700
23.585300 5.231900
23.603300 5.116800
23.621400 4.966000
23.639500 4.837300
23.657500 4.739100
23.675600 4.646000
23.693600 4.548400
23.711700 4.485300
23.729800 4.520500
23.747800 4.678700
23.765900 4.906700
23.783900 5.091300
23.802000 5.136200
23.820100 5.068400
23.838100 5.038700
23.856200 5.126100
23.874200 5.169100
23.892300 4.908200
23.910400 4.307400
23.928400 3.658400
23.946500 3.351500
23.964500 3.560800
23.982600 4.129700
24.000700 4.739900
24.018700 5.174100
24.036800 5.401800
24.054800 5.463000
24.072900 5.349200
24.091000 5.023800
24.109000 4.540100
24.127100 4.081300
24.145100 3.838500
24.163200 3.870500
24.181300 4.109800
24.199300 4.453200
24.217400 4.798400
24.235400 5.043100
24.253500 5.132400
24.271500 5.118800
24.289600 5.110800
24.307700 5.133800
24.325700 5.075800
24.343800 4.787900
24.361800 4.232100
24.379900 3.542100
24.398000 2.945500
24.416000 2.614300
24.434100 2.579200
24.452100 2.757800
24.470200 3.034000
24.488300 3.312600
24.506300 3.543700
24.524400 3.726000
24.542400 3.876800
24.560500 3.974900
24.578600 3.944100
24.596600 3.718500
24.614700 3.330100
24.632700 2.903400
24.650800 2.547700
24.668900 2.288500
24.686900 2.117900
24.705000 2.060000
24.723000 2.152100
24.741100 2.375000
24.759200 2.608100
24.777200 2.671500
24.795300 2.473000
24.813300 2.127400
24.831400 1.866100
24.849500 1.809100
24.867500 1.871700
24.885600 1.886500
24.903600 1.751000
24.921700 1.465700
24.939800 1.104000
24.957800 0.770900
24.975900 0.550600
24.993900 0.463000
25.012000 0.466500
25.030100 0.492900
25.048100 0.480900
25.066200 0.404500
25.084200 0.290300
25.102300 0.201400
25.120400 0.199100
25.138400 0.309500
25.156500 0.505400
25.174500 0.704800
25.192600 0.806100
25.210700 0.752400
25.228700 0.573500
25.246800 0.361900
25.264800 0.206600
25.282900 0.143300
25.301000 0.150200
25.319000 0.175900
25.337100 0.175800
25.355100 0.138800
25.373200 0.085200
25.391300 0.040500
25.409300 0.014900
25.427400 0.004300
25.445400 0.000900
25.463500 0.000200
25.481600 0.000000
25.499600 0.000000
25.517700 0.000000
25.535700 0.000000
25.553800 0.000000
25.571900 0.000000
25.589900 0.000000
25.608000 0.000000
25.626000 0.000000
25.644100 0.000000
25.662200 0.000000
25.680200 0.000000
25.698300 0.000000
25.716300 0.000000
25.734400 0.000000
25.752500 0.000000
25.770500 0.000000
25.788600 0.000000
25.806600 0.000000
25.824700 0.000000
25.842800 0.000000
25.860800 0.000000
25.878900 0.000000
25.896900 0.000000
25.915000 0.000000
25.933100 0.000000
25.951100 0.000000
25.969200 0.000000
25.987200 0.000000
26.005300 0.000000
26.023300 0.000000
26.041400 0.000000
26.059500 0.000000
26.077500 0.000000
26.095600 0.000000
26.113600 0.000000
26.131700 0.000000
26.149800 0.000000
26.167800 0.000000
26.185900 0.000000
26.203900 0.000000
26.222000 0.000000
26.240100 0.000000
26.258100 0.000000
26.276200 0.000000
26.294200 0.000000
26.312300 0.000000
26.330400 0.000000
26.348400 0.000000
26.366500 0.000000
26.384500 0.000000
26.402600 0.000000
26.420700 0.000000
26.438700 0.000000
26.456800 0.000000
26.474800 0.000000
26.492900 0.000000
26.511000 0.000000
26.529000 0.000000
26.547100 0.000000
26.565100 0.000000
26.583200 0.000000
26.601300 0.000000
26.619300 0.000000
26.637400 0.000000
26.655400 0.000000
26.673500 0.000000
26.691600 0.000000
26.709600 0.000000
26.727700 0.000000
26.745700 0.000000
26.763800 0.000000
26.781900 0.000000
26.799900 0.000000
26.818000 0.000000
26.836000 0.000000
26.854100 0.000000
26.872200 0.000000
26.890200 0.000000
26.908300 0.000000
26.926300 0.000000
26.944400 0.000000
26.962500 0.000000
e
