set title 'mp-1419175 - Density of States'
set xlabel 'Energy (eV)'
set ylabel 'DOS (states/eV)'
set grid
set xrange [-10:10]
set yrange [0:6.270]
set xzeroaxis lt -1
set terminal png size 800,600
set output 'mp-1419175_dos_gnuplot.png'
plot '-' using 1:2 with lines title 'DOS'
-18.276100 0.000000
-18.240300 0.000000
-18.204500 0.000000
-18.168700 0.000000
-18.132800 0.000000
-18.097000 0.000000
-18.061200 0.000000
-18.025400 0.000000
-17.989500 0.000000
-17.953700 0.000000
-17.917900 0.000000
-17.882000 0.000000
-17.846200 0.000000
-17.810400 0.000000
-17.774600 0.000000
-17.738700 0.000000
-17.702900 0.000000
-17.667100 0.000000
-17.631300 0.000000
-17.595400 0.000000
-17.559600 0.000000
-17.523800 0.000000
-17.488000 0.000000
-17.452100 0.000000
-17.416300 0.000000
-17.380500 0.000000
-17.344600 0.000000
-17.308800 0.000000
-17.273000 0.000000
-17.237200 0.000000
-17.201300 0.000000
-17.165500 0.000000
-17.129700 0.000000
-17.093900 0.000000
-17.058000 0.000000
-17.022200 0.000000
-16.986400 0.000000
-16.950500 0.000000
-16.914700 0.000000
-16.878900 0.000000
-16.843100 0.000000
-16.807200 0.000000
-16.771400 0.000000
-16.735600 0.000000
-16.699800 0.000000
-16.663900 0.000000
-16.628100 0.000000
-16.592300 0.000000
-16.556500 0.000000
-16.520600 0.000000
-16.484800 0.000000
-16.449000 0.000000
-16.413100 0.000000
-16.377300 0.000000
-16.341500 0.000000
-16.305700 0.000000
-16.269800 0.000000
-16.234000 0.000000
-16.198200 0.000000
-16.162400 0.000000
-16.126500 0.000000
-16.090700 0.000000
-16.054900 0.000000
-16.019100 0.000000
-15.983200 0.000000
-15.947400 0.000000
-15.911600 0.000000
-15.875700 0.000000
-15.839900 0.000000
-15.804100 0.000000
-15.768300 0.000000
-15.732400 0.000000
-15.696600 0.000000
-15.660800 0.000000
-15.625000 0.000000
-15.589100 0.000000
-15.553300 0.000000
-15.517500 0.000000
-15.481600 0.000000
-15.445800 0.000000
-15.410000 0.000000
-15.374200 0.000000
-15.338300 0.000000
-15.302500 0.000000
-15.266700 0.000000
-15.230900 0.000000
-15.195000 0.000000
-15.159200 0.000000
-15.123400 0.000000
-15.087600 0.000000
-15.051700 0.000000
-15.015900 0.003800
-14.980100 0.269500
-14.944200 0.457500
-14.908400 0.686500
-14.872600 0.890300
-14.836800 0.845700
-14.800900 0.859800
-14.765100 0.868800
-14.729300 0.857200
-14.693500 0.880500
-14.657600 0.906900
-14.621800 0.917100
-14.586000 0.922900
-14.550200 0.919500
-14.514300 0.933600
-14.478500 0.952000
-14.442700 0.975500
-14.406800 0.995200
-14.371000 1.008500
-14.335200 1.021100
-14.299400 1.035400
-14.263500 1.056100
-14.227700 1.077900
-14.191900 1.101100
-14.156100 1.126000
-14.120200 1.154000
-14.084400 1.186100
-14.048600 1.223400
-14.012700 1.262800
-13.976900 1.305300
-13.941100 1.348500
-13.905300 1.395500
-13.869400 1.448600
-13.833600 1.517500
-13.797800 1.626800
-13.762000 1.787300
-13.726100 2.036900
-13.690300 2.546100
-13.654500 2.994200
-13.618700 1.995900
-13.582800 2.263700
-13.547000 1.482700
-13.511200 1.344000
-13.475300 1.130900
-13.439500 0.917800
-13.403700 0.747700
-13.367900 0.809500
-13.332000 1.338900
-13.296200 0.000000
-13.260400 0.000000
-13.224600 0.000000
-13.188700 0.000000
-13.152900 0.000000
-13.117100 0.031800
-13.081300 1.333600
-13.045400 1.779100
-13.009600 4.421300
-12.973800 6.768400
-12.937900 7.638400
-12.902100 8.878800
-12.866300 9.908900
-12.830500 7.790800
-12.794600 6.799700
-12.758800 0.000000
-12.723000 0.000000
-12.687200 0.000000
-12.651300 0.000000
-12.615500 0.000000
-12.579700 0.000000
-12.543800 0.000000
-12.508000 0.000000
-12.472200 0.000000
-12.436400 0.000000
-12.400500 0.000000
-12.364700 0.000000
-12.328900 0.000000
-12.293100 0.000000
-12.257200 0.000000
-12.221400 0.000000
-12.185600 0.000000
-12.149800 0.000000
-12.113900 0.000000
-12.078100 0.000000
-12.042300 0.000000
-12.006400 0.000000
-11.970600 0.000000
-11.934800 0.000000
-11.899000 0.000000
-11.863100 0.000000
-11.827300 0.000000
-11.791500 0.000000
-11.755700 0.000000
-11.719800 0.000000
-11.684000 0.000000
-11.648200 0.000000
-11.612400 0.000000
-11.576500 0.000000
-11.540700 0.000000
-11.504900 0.000000
-11.469000 0.000000
-11.433200 0.000000
-11.397400 0.000000
-11.361600 0.000000
-11.325700 0.000000
-11.289900 0.000000
-11.254100 0.000000
-11.218300 0.000000
-11.182400 0.000000
-11.146600 0.000000
-11.110800 0.000000
-11.074900 0.000000
-11.039100 0.000000
-11.003300 0.000000
-10.967500 0.000000
-10.931600 0.000000
-10.895800 0.000000
-10.860000 0.000000
-10.824200 0.000000
-10.788300 0.000000
-10.752500 0.000000
-10.716700 0.000000
-10.680900 0.000000
-10.645000 0.000000
-10.609200 0.000000
-10.573400 0.000000
-10.537500 0.000000
-10.501700 0.000000
-10.465900 0.000000
-10.430100 0.000000
-10.394200 0.000000
-10.358400 0.000000
-10.322600 0.000000
-10.286800 0.000000
-10.250900 0.000000
-10.215100 0.000000
-10.179300 0.000000
-10.143500 0.000000
-10.107600 0.000000
-10.071800 0.000000
-10.036000 0.000000
-10.000100 0.000000
-9.964300 0.000000
-9.928500 0.000000
-9.892700 0.000000
-9.856800 0.000000
-9.821000 0.000000
-9.785200 0.000000
-9.749400 0.000000
-9.713500 0.000000
-9.677700 0.000000
-9.641900 0.000000
-9.606000 0.000000
-9.570200 0.000000
-9.534400 0.000000
-9.498600 0.000000
-9.462700 0.000000
-9.426900 0.000000
-9.391100 0.000000
-9.355300 0.000000
-9.319400 0.000000
-9.283600 0.000000
-9.247800 0.000000
-9.212000 0.000000
-9.176100 0.000000
-9.140300 0.000000
-9.104500 0.000000
-9.068600 0.000000
-9.032800 0.000000
-8.997000 0.000000
-8.961200 0.000000
-8.925300 0.000000
-8.889500 0.000000
-8.853700 0.000000
-8.817900 0.000000
-8.782000 0.000000
-8.746200 0.000000
-8.710400 0.000000
-8.674600 0.000000
-8.638700 0.000000
-8.602900 0.000000
-8.567100 0.000000
-8.531200 0.000000
-8.495400 0.000000
-8.459600 0.000000
-8.423800 0.000000
-8.387900 0.000000
-8.352100 0.000000
-8.316300 0.000000
-8.280500 0.000000
-8.244600 0.000000
-8.208800 0.000000
-8.173000 0.000000
-8.137100 0.000000
-8.101300 0.000000
-8.065500 0.000000
-8.029700 0.000000
-7.993800 0.000000
-7.958000 0.000000
-7.922200 0.000000
-7.886400 0.000000
-7.850500 0.000000
-7.814700 0.000000
-7.778900 0.000000
-7.743100 0.000000
-7.707200 0.000000
-7.671400 0.000000
-7.635600 0.000000
-7.599700 0.000000
-7.563900 0.000000
-7.528100 0.000000
-7.492300 0.000000
-7.456400 0.000000
-7.420600 0.000000
-7.384800 0.000000
-7.349000 0.000000
-7.313100 0.000000
-7.277300 0.000000
-7.241500 0.000000
-7.205700 0.000000
-7.169800 0.000000
-7.134000 0.000000
-7.098200 0.000000
-7.062300 0.000000
-7.026500 0.000000
-6.990700 0.000000
-6.954900 0.000000
-6.919000 0.000000
-6.883200 0.000000
-6.847400 0.000000
-6.811600 0.000000
-6.775700 0.000000
-6.739900 0.000000
-6.704100 0.000000
-6.668200 0.000000
-6.632400 0.000000
-6.596600 0.000000
-6.560800 0.000000
-6.524900 0.000000
-6.489100 0.000000
-6.453300 0.000000
-6.417500 0.000000
-6.381600 0.000000
-6.345800 0.000000
-6.310000 0.000000
-6.274200 0.000000
-6.238300 0.000000
-6.202500 0.000000
-6.166700 0.000000
-6.130800 0.000000
-6.095000 0.000000
-6.059200 0.000000
-6.023400 0.000000
-5.987500 0.000000
-5.951700 0.000000
-5.915900 0.000000
-5.880100 0.000000
-5.844200 0.000000
-5.808400 0.000000
-5.772600 0.000000
-5.736800 0.000000
-5.700900 0.000000
-5.665100 0.000000
-5.629300 0.000000
-5.593400 0.000000
-5.557600 0.000000
-5.521800 0.000000
-5.486000 0.000000
-5.450100 0.000000
-5.414300 0.000000
-5.378500 0.000000
-5.342700 0.000000
-5.306800 0.000000
-5.271000 0.000000
-5.235200 0.000000
-5.199300 0.000000
-5.163500 0.000000
-5.127700 0.000000
-5.091900 1.569300
-5.056000 1.024800
-5.020200 1.157700
-4.984400 1.404500
-4.948600 1.613100
-4.912700 1.609200
-4.876900 1.750800
-4.841100 2.046600
-4.805300 1.957700
-4.769400 1.945200
-4.733600 1.946700
-4.697800 1.638500
-4.661900 1.404000
-4.626100 1.210100
-4.590300 1.090600
-4.554500 0.994000
-4.518600 0.939000
-4.482800 0.906500
-4.447000 0.875400
-4.411200 0.845500
-4.375300 0.817400
-4.339500 0.790100
-4.303700 0.762400
-4.267900 0.734200
-4.232000 0.705500
-4.196200 0.676400
-4.160400 0.638100
-4.124500 0.610500
-4.088700 0.586900
-4.052900 0.563100
-4.017100 0.553300
-3.981200 0.544300
-3.945400 0.535100
-3.909600 0.525900
-3.873800 0.516600
-3.837900 0.507200
-3.802100 0.497700
-3.766300 0.488100
-3.730400 0.478600
-3.694600 0.469000
-3.658800 0.457500
-3.623000 0.444500
-3.587100 0.430400
-3.551300 0.417700
-3.515500 0.406100
-3.479700 0.396300
-3.443800 0.388600
-3.408000 0.383600
-3.372200 0.378900
-3.336400 0.374200
-3.300500 0.369500
-3.264700 0.364900
-3.228900 0.360000
-3.193000 0.355000
-3.157200 0.349800
-3.121400 0.344600
-3.085600 0.339300
-3.049700 0.334000
-3.013900 0.328600
-2.978100 0.323100
-2.942300 0.315600
-2.906400 0.310000
-2.870600 0.304900
-2.834800 0.300200
-2.799000 0.296200
-2.763100 0.292200
-2.727300 0.288100
-2.691500 0.284100
-2.655600 0.280100
-2.619800 0.276100
-2.584000 0.272000
-2.548200 0.268000
-2.512300 0.264000
-2.476500 0.260500
-2.440700 0.257900
-2.404900 0.256500
-2.369000 0.257000
-2.333200 0.257700
-2.297400 0.257700
-2.261500 0.255800
-2.225700 0.250800
-2.189900 0.244100
-2.154100 0.237400
-2.118200 0.230800
-2.082400 0.224100
-2.046600 0.217400
-2.010800 0.210700
-1.974900 0.204000
-1.939100 0.197300
-1.903300 0.290600
-1.867500 0.285800
-1.831600 0.222100
-1.795800 0.158400
-1.760000 0.094700
-1.724100 0.032500
-1.688300 0.003700
-1.652500 0.000000
-1.616700 0.000000
-1.580800 0.000000
-1.545000 0.000000
-1.509200 0.000000
-1.473400 0.000000
-1.437500 0.000000
-1.401700 0.511800
-1.365900 0.815500
-1.330100 2.597900
-1.294200 2.726300
-1.258400 2.776000
-1.222600 2.927200
-1.186700 3.213600
-1.150900 3.393600
-1.115100 3.548400
-1.079300 3.547100
-1.043400 3.513900
-1.007600 2.299900
-0.971800 1.917700
-0.936000 1.347100
-0.900100 1.278900
-0.864300 2.341900
-0.828500 2.613900
-0.792600 2.531300
-0.756800 2.414800
-0.721000 2.464300
-0.685200 2.675500
-0.649300 2.982200
-0.613500 3.057300
-0.577700 3.015100
-0.541900 2.831600
-0.506000 2.407100
-0.470200 2.239100
-0.434400 2.102700
-0.398600 1.986000
-0.362700 1.886200
-0.326900 1.796100
-0.291100 1.716600
-0.255200 1.644800
-0.219400 1.570600
-0.183600 1.510200
-0.147800 1.458200
-0.111900 1.414000
-0.076100 1.374400
-0.040300 1.328300
-0.004500 1.285300
0.031400 1.253000
0.067200 1.220000
0.103000 1.181600
0.138800 1.132700
0.174700 1.091800
0.210500 1.104100
0.246300 1.379500
0.282200 1.373200
0.318000 1.278700
0.353800 1.290600
0.389600 1.303500
0.425500 1.304700
0.461300 1.290300
0.497100 1.241300
0.532900 1.249100
0.568800 1.254800
0.604600 1.220600
0.640400 1.179400
0.676300 1.162700
0.712100 1.152900
0.747900 1.135600
0.783700 1.122900
0.819600 1.121400
0.855400 1.140500
0.891200 1.169800
0.927000 1.217800
0.962900 1.201600
0.998700 1.212700
1.034500 1.232300
1.070300 1.230400
1.106200 1.226200
1.142000 1.378800
1.177800 1.749800
1.213700 2.397600
1.249500 2.310700
1.285300 2.458900
1.321100 2.586300
1.357000 2.669400
1.392800 2.861100
1.428600 3.143400
1.464400 3.119300
1.500300 2.738000
1.536100 2.409000
1.571900 2.008100
1.607700 1.680300
1.643600 1.715100
1.679400 2.016100
1.715200 1.771100
1.751100 1.673000
1.786900 1.816000
1.822700 1.896700
1.858500 1.972100
1.894400 2.022900
1.930200 2.129000
1.966000 2.256500
2.001800 2.359100
2.037700 2.539300
2.073500 2.830900
2.109300 3.237100
2.145100 3.146100
2.181000 3.114200
2.216800 3.112700
2.252600 3.164500
2.288500 2.888200
2.324300 2.782900
2.360100 2.705800
2.395900 2.683100
2.431800 2.749100
2.467600 2.850500
2.503400 2.959100
2.539200 3.147500
2.575100 3.498700
2.610900 4.166700
2.646700 4.391000
2.682600 4.222900
2.718400 4.015300
2.754200 5.437500
2.790000 5.308100
2.825900 5.460200
2.861700 5.700100
2.897500 3.931300
2.933300 2.729000
2.969200 1.905800
3.005000 1.402300
3.040800 0.723100
3.076600 0.004600
3.112500 0.007200
3.148300 0.010400
3.184100 0.014200
3.220000 0.018600
3.255800 0.023800
3.291600 0.029900
3.327400 0.033100
3.363300 0.035500
3.399100 0.038700
3.434900 0.042000
3.470700 0.045300
3.506600 0.049000
3.542400 0.053700
3.578200 0.058700
3.614000 0.063600
3.649900 0.068600
3.685700 0.073600
3.721500 0.078700
3.757400 0.084000
3.793200 0.091000
3.829000 0.098500
3.864800 0.105900
3.900700 0.113500
3.936500 0.121500
3.972300 0.129900
4.008100 0.140100
4.044000 0.152500
4.079800 0.164500
4.115600 0.176500
4.151500 0.188900
4.187300 0.206100
4.223100 0.228200
4.258900 0.255100
4.294800 0.277900
4.330600 0.296900
4.366400 0.294100
4.402200 0.291300
4.438100 0.300000
4.473900 0.308400
4.509700 0.316700
4.545500 0.324700
4.581400 0.332500
4.617200 0.340800
4.653000 0.352600
4.688900 0.363000
4.724700 0.374100
4.760500 0.386800
4.796300 0.400000
4.832200 0.413700
4.868000 0.427400
4.903800 0.441100
4.939600 0.455100
4.975500 0.469900
5.011300 0.485700
5.047100 0.503100
5.082900 0.519500
5.118800 0.536000
5.154600 0.552600
5.190400 0.569500
5.226300 0.597100
5.262100 0.639100
5.297900 0.679600
5.333700 0.724300
5.369600 0.775800
5.405400 0.834100
5.441200 0.891500
5.477000 0.948700
5.512900 1.006900
5.548700 1.067700
5.584500 1.193300
5.620400 1.448000
5.656200 1.808400
5.692000 2.016500
5.727800 2.078100
5.763700 2.037200
5.799500 2.041300
5.835300 2.040400
5.871100 2.080600
5.907000 1.836800
5.942800 1.536200
5.978600 1.444200
6.014400 1.381600
6.050300 1.295500
6.086100 1.213700
6.121900 1.133100
6.157800 1.070000
6.193600 1.019800
6.229400 0.993200
6.265200 1.014900
6.301100 0.974700
6.336900 0.897100
6.372700 0.801000
6.408500 0.706500
6.444400 0.000000
6.480200 0.000000
6.516000 0.000000
6.551800 0.000000
6.587700 0.000000
6.623500 0.000000
6.659300 0.010400
6.695200 0.035700
6.731000 0.071500
6.766800 0.117900
6.802600 0.176400
6.838500 0.196500
6.874300 0.249400
6.910100 0.295000
6.945900 0.323500
6.981800 0.289700
7.017600 0.304900
7.053400 0.320100
7.089300 0.335400
7.125100 0.350700
7.160900 0.364000
7.196700 0.374100
7.232600 0.380200
7.268400 0.388900
7.304200 0.401600
7.340000 0.417800
7.375900 0.437200
7.411700 0.456900
7.447500 0.476600
7.483300 0.498900
7.519200 0.548500
7.555000 0.596400
7.590800 0.639300
7.626700 0.671900
7.662500 0.707800
7.698300 0.745300
7.734100 0.782800
7.770000 0.817200
7.805800 0.850800
7.841600 0.885300
7.877400 0.942800
7.913300 0.987100
7.949100 1.012200
7.984900 1.032000
8.020700 1.044700
8.056600 1.036100
8.092400 1.015600
8.128200 1.000500
8.164100 0.996700
8.199900 0.994800
8.235700 0.999100
8.271500 1.005600
8.307400 1.011700
8.343200 1.015500
8.379000 1.017100
8.414800 1.017900
8.450700 1.015900
8.486500 1.017500
8.522300 1.019600
8.558200 1.037900
8.594000 1.039600
8.629800 1.042300
8.665600 0.976200
8.701500 0.917600
8.737300 0.857600
8.773100 0.797900
8.808900 0.733100
8.844800 0.703200
8.880600 0.684900
8.916400 0.665700
8.952200 0.645600
8.988100 0.625700
9.023900 0.608700
9.059700 0.591500
9.095600 0.574100
9.131400 0.555100
9.167200 0.541000
9.203000 0.528000
9.238900 0.515700
9.274700 0.503800
9.310500 0.490300
9.346300 0.476900
9.382200 0.464900
9.418000 0.453100
9.453800 0.441300
9.489600 0.429600
9.525500 0.418100
9.561300 0.406900
9.597100 0.421800
9.633000 0.485600
9.668800 0.579600
9.704600 0.666400
9.740400 0.818400
9.776300 0.943600
9.812100 0.967100
9.847900 1.037800
9.883700 1.004700
9.919600 0.798000
9.955400 0.725500
9.991200 0.739200
10.027100 0.761300
10.062900 0.786100
10.098700 0.818600
10.134500 0.852800
10.170400 0.887600
10.206200 0.930000
10.242000 0.984700
10.277800 1.048900
10.313700 1.114300
10.349500 1.201900
10.385300 1.354900
10.421100 1.651600
10.457000 1.690800
10.492800 1.765600
10.528600 1.569900
10.564500 1.372600
10.600300 1.294100
10.636100 1.238100
10.671900 1.210100
10.707800 1.227900
10.743600 1.231600
10.779400 1.275500
10.815200 1.285100
10.851100 1.374500
10.886900 1.464500
10.922700 1.540600
10.958500 1.583900
10.994400 1.825700
11.030200 1.979500
11.066000 1.944700
11.101900 1.787000
11.137700 1.676900
11.173500 1.600300
11.209300 1.559900
11.245200 1.529400
11.281000 1.499800
11.316800 1.489300
11.352600 1.533600
11.388500 1.262100
11.424300 1.138400
11.460100 1.037800
11.496000 0.968600
11.531800 0.979200
11.567600 0.768700
11.603400 0.689200
11.639300 0.637800
11.675100 0.479200
11.710900 0.486700
11.746700 0.497100
11.782600 0.506900
11.818400 0.516000
11.854200 0.570300
11.890000 0.939100
11.925900 0.905900
11.961700 0.918500
11.997500 0.964000
12.033400 1.040100
12.069200 1.126100
12.105000 1.201500
12.140800 1.262800
12.176700 1.332400
12.212500 1.403400
12.248300 1.471000
12.284100 1.688300
12.320000 1.877200
12.355800 2.460600
12.391600 3.120300
12.427400 3.475600
12.463300 3.098300
12.499100 2.164900
12.534900 1.830600
12.570800 1.701800
12.606600 1.573100
12.642400 1.444400
12.678200 1.301900
12.714100 1.214200
12.749900 1.193100
12.785700 1.114400
12.821500 0.931000
12.857400 0.749200
12.893200 0.000000
12.929000 0.000000
12.964900 0.000000
13.000700 0.000000
13.036500 0.165000
13.072300 0.261900
13.108200 1.119400
13.144000 1.380300
13.179800 1.416400
13.215600 1.343700
13.251500 1.332100
13.287300 1.233300
13.323100 1.203700
13.358900 1.191300
13.394800 1.172700
13.430600 1.158100
13.466400 1.126700
13.502300 1.099600
13.538100 1.094100
13.573900 1.096100
13.609700 1.099300
13.645600 1.103300
13.681400 1.113200
13.717200 1.116700
13.753000 1.120500
13.788900 1.127500
13.824700 1.136300
13.860500 1.142400
13.896300 1.151000
13.932200 1.163000
13.968000 1.182600
14.003800 1.206400
14.039700 1.242300
14.075500 1.292000
14.111300 1.352700
14.147100 1.440900
14.183000 1.554800
14.218800 1.780800
14.254600 1.669600
14.290400 1.806300
14.326300 2.108400
14.362100 2.051800
14.397900 1.720200
14.433800 1.449300
14.469600 1.134500
14.505400 0.521000
14.541200 0.409400
14.577100 0.415400
14.612900 0.413800
14.648700 1.119100
14.684500 1.838400
14.720400 2.467900
14.756200 4.066200
14.792000 3.784900
14.827800 3.517800
14.863700 3.287700
14.899500 2.952300
14.935300 2.785400
14.971200 2.785500
15.007000 2.829800
15.042800 2.932900
15.078600 3.166500
15.114500 2.786900
15.150300 2.100500
15.186100 1.912600
15.221900 1.718900
15.257800 1.678100
15.293600 1.708700
15.329400 1.474100
15.365200 1.369700
15.401100 1.306400
15.436900 1.241700
15.472700 1.140500
15.508600 1.043900
15.544400 0.983400
15.580200 0.859000
15.616000 0.756000
15.651900 0.753400
15.687700 0.785400
15.723500 0.750000
15.759300 0.707700
15.795200 0.681300
15.831000 0.672500
15.866800 0.677700
15.902700 0.684200
15.938500 0.691700
15.974300 0.699400
16.010100 0.706100
16.046000 0.713700
16.081800 0.723100
16.117600 0.732900
16.153400 0.750500
16.189300 0.803900
16.225100 0.843000
16.260900 0.821300
16.296700 0.805600
16.332600 0.802100
16.368400 0.806900
16.404200 0.816500
16.440100 0.821900
16.475900 0.826900
16.511700 0.831900
16.547500 0.835900
16.583400 0.836600
16.619200 0.832200
16.655000 0.824300
16.690800 0.814900
16.726700 0.813500
16.762500 0.810100
16.798300 0.805000
16.834100 0.798900
16.870000 0.800300
16.905800 0.810900
16.941600 0.965800
16.977500 1.175800
17.013300 1.287800
17.049100 1.387200
17.084900 1.622200
17.120800 1.919400
17.156600 1.856800
17.192400 1.845100
17.228200 1.502000
17.264100 1.156400
17.299900 0.958800
17.335700 0.846600
17.371600 0.753100
17.407400 0.707800
17.443200 0.808000
17.479000 0.773000
17.514900 0.729900
17.550700 0.676200
17.586500 0.663600
17.622300 0.655900
17.658200 0.710500
17.694000 0.735300
17.729800 0.749600
17.765600 0.757600
17.801500 0.772000
17.837300 0.790000
17.873100 0.809700
17.909000 0.833100
17.944800 0.887200
17.980600 0.968400
18.016400 1.056800
18.052300 1.179500
18.088100 1.160900
18.123900 1.111900
18.159700 1.139400
18.195600 1.176500
18.231400 1.213600
18.267200 1.261200
18.303000 1.300800
18.338900 1.364500
18.374700 1.548000
18.410500 1.610200
18.446400 1.686900
18.482200 1.645100
18.518000 1.711500
18.553800 1.754300
18.589700 1.737600
18.625500 1.678700
18.661300 1.675400
18.697100 1.688200
18.733000 1.713200
18.768800 1.651000
18.804600 1.507600
18.840500 1.438800
18.876300 1.382700
18.912100 1.310800
18.947900 1.266000
18.983800 1.229700
19.019600 1.173200
19.055400 1.099300
19.091200 1.037200
19.127100 1.000400
19.162900 1.021400
19.198700 1.032000
19.234500 1.016200
19.270400 0.994000
19.306200 0.981700
19.342000 0.978600
19.377900 0.982500
19.413700 0.990000
19.449500 0.948200
19.485300 0.901100
19.521200 0.876800
19.557000 0.861800
19.592800 0.847000
19.628600 0.832200
19.664500 0.812300
19.700300 0.811800
19.736100 0.829000
19.771900 0.847900
19.807800 0.866800
19.843600 0.902900
19.879400 0.942800
19.915300 1.004300
19.951100 1.114000
19.986900 1.203000
20.022700 1.293200
20.058600 1.393300
20.094400 1.501400
20.130200 1.676600
20.166000 1.909900
20.201900 2.213700
20.237700 2.902900
20.273500 2.580400
20.309400 2.168600
20.345200 2.112500
20.381000 1.994400
20.416800 1.938900
20.452700 1.815600
20.488500 1.763300
20.524300 1.697700
20.560100 1.592900
20.596000 1.584500
20.631800 1.767700
20.667600 1.605900
20.703400 1.651200
20.739300 1.763100
20.775100 1.849500
20.810900 1.847600
20.846800 1.870900
20.882600 1.881600
20.918400 1.813000
20.954200 2.080600
20.990100 1.597400
21.025900 1.459800
21.061700 1.387700
21.097500 1.328100
21.133400 1.299700
21.169200 1.364600
21.205000 1.441900
21.240800 1.521000
21.276700 1.617600
21.312500 1.741500
21.348300 1.907700
21.384200 2.147400
21.420000 2.437500
21.455800 2.692900
21.491600 2.872100
21.527500 3.215200
21.563300 2.681500
21.599100 2.628700
21.634900 2.701900
21.670800 2.597500
21.706600 2.378800
21.742400 2.279100
21.778300 2.220700
21.814100 2.216200
21.849900 2.289700
21.885700 2.379200
21.921600 2.504600
21.957400 2.537900
21.993200 2.588200
22.029000 2.639500
22.064900 2.618000
22.100700 2.665000
22.136500 2.748900
22.172300 2.837700
22.208200 3.046900
22.244000 3.036000
22.279800 2.640800
22.315700 2.807200
22.351500 2.716500
22.387300 2.707900
22.423100 2.923900
22.459000 3.131600
22.494800 2.743500
22.530600 2.760000
22.566400 3.077000
22.602300 2.946600
22.638100 2.442700
22.673900 2.513500
22.709700 2.218500
22.745600 2.032000
22.781400 2.066000
22.817200 2.366900
22.853100 2.720400
22.888900 3.097100
22.924700 3.938400
22.960500 4.917900
22.996400 4.321300
23.032200 3.125600
23.068000 2.854400
23.103800 2.675500
23.139700 2.396600
23.175500 3.036800
23.211300 5.434200
23.247200 3.884200
23.283000 3.457100
23.318800 3.328400
23.354600 3.321400
23.390500 3.255900
23.426300 3.560800
23.462100 3.764500
23.497900 3.845300
23.533800 3.368700
23.569600 3.005200
23.605400 2.978100
23.641200 2.894900
23.677100 2.816900
23.712900 2.581600
23.748700 2.312700
23.784600 2.289800
23.820400 2.095400
23.856200 1.934200
23.892000 1.909400
23.927900 1.860600
23.963700 1.788300
23.999500 1.752000
24.035300 1.713400
24.071200 1.726300
24.107000 1.791700
24.142800 1.842300
24.178600 1.835100
24.214500 1.856300
24.250300 1.902300
24.286100 2.040500
24.322000 2.066200
24.357800 2.061800
24.393600 2.111000
24.429400 2.166300
24.465300 2.200600
24.501100 2.200700
24.536900 2.008400
24.572700 1.811700
24.608600 1.783800
24.644400 1.810500
24.680200 1.857000
24.716100 1.928600
24.751900 1.864300
24.787700 1.852600
24.823500 1.979300
24.859400 2.321900
24.895200 2.717300
24.931000 2.496300
24.966800 1.874500
25.002700 1.766500
25.038500 1.766800
25.074300 1.755200
25.110100 1.753400
25.146000 1.752500
25.181800 1.843500
25.217600 1.856500
25.253500 1.869800
25.289300 1.822300
25.325100 1.731100
25.360900 1.623700
25.396800 1.507800
25.432600 1.405200
25.468400 1.308000
25.504200 1.251000
25.540100 1.223000
25.575900 1.198300
25.611700 1.193400
25.647500 1.200800
25.683400 1.231100
25.719200 1.268100
25.755000 1.303000
25.790900 1.354100
25.826700 1.395800
25.862500 1.451900
25.898300 1.533700
25.934200 1.553900
25.970000 1.532900
26.005800 1.559200
26.041600 1.493600
26.077500 1.413500
26.113300 1.389000
26.149100 1.384000
26.185000 1.329400
26.220800 1.279100
26.256600 1.245900
26.292400 1.233600
26.328300 1.211500
26.364100 1.205500
26.399900 1.180000
26.435700 1.169400
26.471600 1.216300
26.507400 1.335200
26.543200 1.462100
26.579000 1.597300
26.614900 1.725300
26.650700 1.849600
26.686500 2.120500
26.722400 2.380300
26.758200 2.351200
26.794000 2.391200
26.829800 2.442200
26.865700 2.455300
26.901500 2.417200
26.937300 2.358400
26.973100 2.344400
27.009000 2.457600
27.044800 2.425300
27.080600 2.303400
27.116400 2.177700
27.152300 2.037900
27.188100 1.893300
27.223900 1.708000
27.259800 1.524500
27.295600 1.422100
27.331400 1.484300
27.367200 1.579700
27.403100 1.771200
27.438900 2.194800
27.474700 2.564600
27.510500 2.997100
27.546400 2.845400
27.582200 2.565400
27.618000 2.435000
27.653900 2.268200
27.689700 2.071100
27.725500 2.007900
27.761300 2.029200
27.797200 1.992500
27.833000 1.813500
27.868800 1.806200
27.904600 1.800500
27.940500 1.743300
27.976300 1.799100
28.012100 1.875000
28.047900 1.911800
28.083800 1.886600
28.119600 1.788600
28.155400 1.542400
28.191300 1.397700
28.227100 1.254800
28.262900 1.197300
28.298700 1.194500
28.334600 1.220500
28.370400 1.232200
28.406200 1.259000
28.442000 1.301300
28.477900 1.336100
28.513700 1.366400
28.549500 1.458500
28.585300 1.538200
28.621200 1.635800
28.657000 1.611400
28.692800 1.582400
28.728700 1.543300
28.764500 1.614200
28.800300 1.647100
28.836100 1.661000
28.872000 1.689000
28.907800 1.728000
28.943600 1.769000
28.979400 1.814500
29.015300 1.854000
29.051100 1.896300
29.086900 2.001800
29.122700 1.982600
29.158600 1.979900
29.194400 1.873000
29.230200 1.806200
29.266100 1.789300
29.301900 1.791600
29.337700 1.809100
29.373500 1.837200
29.409400 1.886800
29.445200 1.900800
29.481000 1.834700
29.516800 1.802400
29.552700 1.857200
29.588500 1.945100
29.624300 1.828900
29.660200 1.804000
29.696000 1.794000
29.731800 1.871900
29.767600 2.214600
29.803500 2.264700
29.839300 2.159400
29.875100 2.156200
29.910900 2.217600
29.946800 2.276500
29.982600 2.297400
30.018400 2.333800
30.054200 2.382400
30.090100 2.454600
30.125900 2.567400
30.161700 2.708600
30.197600 2.923100
30.233400 3.145900
30.269200 3.522000
30.305000 3.468200
30.340900 3.418200
30.376700 3.395700
30.412500 3.216100
30.448300 3.077100
30.484200 2.911600
30.520000 2.748200
30.555800 2.493100
30.591600 2.327400
30.627500 2.216900
30.663300 2.274600
30.699100 2.147100
30.735000 2.110400
30.770800 2.044400
30.806600 1.992600
30.842400 1.939900
30.878300 1.893900
30.914100 1.984300
30.949900 2.220400
30.985700 2.335300
31.021600 2.444800
31.057400 2.663300
31.093200 2.988600
31.129100 3.296900
31.164900 3.523300
31.200700 3.591700
31.236500 3.407100
31.272400 3.128000
31.308200 3.200700
31.344000 2.950900
31.379800 2.882500
31.415700 2.893200
31.451500 2.888300
31.487300 2.723400
31.523100 2.645400
31.559000 2.513900
31.594800 2.442700
31.630600 2.451800
31.666500 2.436800
31.702300 2.504800
31.738100 2.626100
31.773900 2.865500
31.809800 2.987500
31.845600 2.884200
31.881400 2.710400
31.917200 2.644900
31.953100 2.546600
31.988900 2.464600
32.024700 2.364900
32.060500 2.194800
32.096400 2.178000
32.132200 2.279500
32.168000 2.147000
32.203900 2.141600
32.239700 2.180500
32.275500 2.271000
32.311300 2.438600
32.347200 2.553500
32.383000 2.464600
32.418800 2.479000
32.454600 2.540900
32.490500 2.633700
32.526300 2.654300
32.562100 2.523400
32.598000 2.533300
32.633800 2.501700
32.669600 2.502900
32.705400 2.497900
32.741300 2.361500
32.777100 2.293900
32.812900 2.275400
32.848700 2.333700
32.884600 2.255700
32.920400 1.995600
32.956200 1.865000
32.992000 1.817700
33.027900 1.793100
33.063700 1.815600
33.099500 1.944200
33.135400 1.921800
33.171200 1.938100
33.207000 1.904800
33.242800 1.846300
33.278700 1.803900
33.314500 1.759200
33.350300 1.731200
33.386100 1.800400
33.422000 1.766700
33.457800 1.761400
33.493600 1.783200
33.529400 1.786600
33.565300 1.766900
33.601100 1.757900
33.636900 1.770000
33.672800 1.797700
33.708600 1.791500
33.744400 1.839300
33.780200 1.942400
33.816100 2.031900
33.851900 2.120600
33.887700 2.237500
33.923500 2.300000
33.959400 2.206200
33.995200 2.165500
34.031000 2.166400
34.066900 2.111000
34.102700 2.066100
34.138500 2.057100
34.174300 2.038300
34.210200 2.008900
34.246000 1.954600
34.281800 1.903900
34.317600 1.890000
34.353500 1.932800
34.389300 2.025100
34.425100 2.279700
34.460900 2.226900
34.496800 2.262400
34.532600 2.280200
34.568400 2.302200
34.604300 2.243400
34.640100 2.228400
34.675900 2.343100
34.711700 2.618200
34.747600 2.874100
34.783400 3.085800
34.819200 3.054800
34.855000 2.812900
34.890900 2.665400
34.926700 2.556600
34.962500 2.487900
34.998300 2.510000
35.034200 2.592600
35.070000 2.616500
35.105800 2.695500
35.141700 2.577300
35.177500 2.513200
35.213300 2.547500
35.249100 2.580200
35.285000 2.546900
35.320800 2.512900
35.356600 2.498000
35.392400 2.620500
35.428300 2.834900
35.464100 2.765300
35.499900 2.656500
35.535800 2.604700
35.571600 2.573200
35.607400 2.678500
35.643200 2.888300
35.679100 2.863900
35.714900 2.913600
35.750700 2.897800
35.786500 2.901200
35.822400 3.086000
35.858200 3.029700
35.894000 3.180800
35.929800 3.118400
35.965700 3.093600
36.001500 2.649600
36.037300 2.478900
36.073200 2.313800
36.109000 2.248000
36.144800 2.227400
36.180600 2.312700
36.216500 2.257300
36.252300 2.245300
36.288100 2.210900
36.323900 2.290200
36.359800 2.371300
36.395600 2.406800
36.431400 2.470200
36.467200 2.424700
36.503100 2.360100
36.538900 2.443400
36.574700 2.327600
36.610600 2.092400
36.646400 1.913400
36.682200 1.824900
36.718000 1.760700
36.753900 1.745200
36.789700 1.747600
36.825500 1.760600
36.861300 1.784500
36.897200 1.854300
36.933000 1.897100
36.968800 1.907200
37.004700 1.907300
37.040500 1.940600
37.076300 2.167000
37.112100 2.257200
37.148000 2.322100
37.183800 2.407100
37.219600 2.509400
37.255400 2.494600
37.291300 2.537300
37.327100 2.643600
37.362900 2.730300
37.398700 2.757000
37.434600 2.757700
37.470400 2.779100
37.506200 2.855000
37.542100 2.982200
37.577900 2.956100
37.613700 2.985700
37.649500 3.004100
37.685400 2.989400
37.721200 2.844500
37.757000 2.771500
37.792800 2.610500
37.828700 2.447600
37.864500 2.268100
37.900300 2.146100
37.936100 2.018600
37.972000 1.903000
38.007800 1.845000
38.043600 1.820700
38.079500 1.835100
38.115300 1.877900
38.151100 1.801500
38.186900 1.809700
38.222800 1.921400
38.258600 2.136600
38.294400 2.161600
38.330200 2.138600
38.366100 2.289600
38.401900 2.085600
38.437700 2.092100
38.473600 2.028400
38.509400 1.896500
38.545200 1.880700
38.581000 1.853400
38.616900 1.799500
38.652700 1.741900
38.688500 1.686200
38.724300 1.624300
38.760200 1.544700
38.796000 1.477000
38.831800 1.476300
38.867600 1.548300
38.903500 1.619200
38.939300 1.595300
38.975100 1.528600
39.011000 1.551700
39.046800 1.653400
39.082600 1.811300
39.118400 1.970100
39.154300 2.102900
39.190100 2.242700
39.225900 2.384900
39.261700 2.493300
39.297600 2.491700
39.333400 2.400200
39.369200 2.273500
39.405000 2.197300
39.440900 2.152400
39.476700 2.126500
39.512500 2.092000
39.548400 1.972000
39.584200 2.518200
39.620000 1.766900
39.655800 1.620900
39.691700 1.547200
39.727500 1.493300
39.763300 1.521100
39.799100 1.451200
39.835000 1.364500
39.870800 1.372100
39.906600 1.413500
39.942500 1.458400
39.978300 1.495000
40.014100 1.561600
40.049900 1.724500
40.085800 1.946800
40.121600 2.085700
40.157400 2.056900
40.193200 2.116100
40.229100 2.132200
40.264900 2.174600
40.300700 2.209800
40.336500 2.233900
40.372400 2.294700
40.408200 2.360600
40.444000 2.333400
40.479900 2.317200
40.515700 2.396600
40.551500 2.448500
40.587300 2.160300
40.623200 1.687800
40.659000 1.506600
40.694800 1.613500
40.730600 1.343600
40.766500 1.225900
40.802300 1.138900
40.838100 1.078100
40.873900 1.157000
40.909800 1.373300
40.945600 1.421600
40.981400 1.474600
41.017300 1.577400
41.053100 1.839700
41.088900 2.130800
41.124700 2.437800
41.160600 2.689500
41.196400 2.793400
41.232200 2.790000
41.268000 2.800300
41.303900 2.782800
41.339700 2.804600
41.375500 2.928600
41.411400 3.067400
41.447200 2.883100
41.483000 2.638900
41.518800 2.472800
41.554700 2.189900
41.590500 1.978100
41.626300 1.837500
41.662100 1.743600
41.698000 1.678000
41.733800 1.645600
41.769600 1.523900
41.805400 1.444900
41.841300 1.464200
41.877100 1.537500
41.912900 1.648100
41.948800 1.809100
41.984600 1.999700
42.020400 2.174600
42.056200 2.314200
42.092100 2.387200
42.127900 2.464900
42.163700 2.453000
42.199500 2.299000
42.235400 2.256700
42.271200 2.172800
42.307000 2.072500
42.342800 2.036600
42.378700 1.962000
42.414500 1.853800
42.450300 1.767000
42.486200 1.664500
42.522000 1.535200
42.557800 1.449900
42.593600 1.410400
42.629500 1.502500
42.665300 1.622400
42.701100 1.757800
42.736900 1.917600
42.772800 2.201700
42.808600 2.576900
42.844400 2.683400
42.880300 2.479000
42.916100 2.497700
42.951900 2.321400
42.987700 2.315200
43.023600 2.319300
43.059400 2.200600
43.095200 2.168900
43.131000 2.157000
43.166900 2.149800
43.202700 2.157100
43.238500 2.112300
43.274300 2.207800
43.310200 2.282600
43.346000 2.322500
43.381800 2.319600
43.417700 2.279600
43.453500 2.464600
43.489300 2.546400
43.525100 2.634300
43.561000 2.681800
43.596800 2.352500
43.632600 2.165000
43.668400 2.064400
43.704300 1.971200
43.740100 1.949400
43.775900 1.966000
43.811700 2.014800
43.847600 2.083200
43.883400 2.150100
43.919200 2.219500
43.955100 2.246300
43.990900 2.304600
44.026700 2.404500
44.062500 2.501000
44.098400 2.584300
44.134200 2.799500
44.170000 2.685400
44.205800 2.521200
44.241700 2.454300
44.277500 2.393100
44.313300 2.515900
44.349200 2.628400
44.385000 2.544300
44.420800 2.298500
44.456600 2.228600
44.492500 2.254900
44.528300 2.391100
44.564100 2.553700
44.599900 2.666100
44.635800 2.699400
44.671600 2.871500
44.707400 3.012400
44.743200 3.009500
44.779100 2.797500
44.814900 2.616600
44.850700 2.527500
44.886600 2.439400
44.922400 2.376900
44.958200 2.319300
44.994000 2.308500
45.029900 2.303400
45.065700 2.522500
45.101500 2.749100
45.137300 2.992200
45.173200 3.340800
45.209000 3.735800
45.244800 3.693700
45.280600 3.504200
45.316500 3.341200
45.352300 3.146700
45.388100 3.080700
45.424000 3.004000
45.459800 2.958200
45.495600 2.914000
45.531400 2.872800
45.567300 2.761900
45.603100 2.761700
45.638900 2.906100
45.674700 3.098600
45.710600 3.041400
45.746400 2.923600
45.782200 2.591500
45.818100 2.415100
45.853900 2.286400
45.889700 2.192700
45.925500 2.121600
45.961400 2.145200
45.997200 2.061700
46.033000 2.082000
46.068800 2.016300
46.104700 1.998300
46.140500 1.978600
46.176300 2.033600
46.212100 2.150000
46.248000 2.138400
46.283800 2.076700
46.319600 2.080300
46.355500 2.097300
46.391300 2.087700
46.427100 2.086100
46.462900 2.116200
46.498800 2.140100
46.534600 2.186000
46.570400 2.240600
46.606200 2.309400
46.642100 2.366100
46.677900 2.423400
46.713700 2.505600
46.749500 2.555500
46.785400 2.521200
46.821200 2.505800
46.857000 2.429000
46.892900 2.457000
46.928700 2.369800
46.964500 2.275100
47.000300 2.177500
47.036200 1.965800
47.072000 1.986800
47.107800 1.967200
47.143600 1.915800
47.179500 1.909400
47.215300 2.033400
47.251100 2.285100
47.287000 2.642300
47.322800 2.822400
47.358600 3.001400
47.394400 3.025200
47.430300 2.983600
47.466100 2.980200
47.501900 2.955100
47.537700 2.968100
47.573600 2.946600
47.609400 2.924200
47.645200 2.956000
47.681000 2.820400
47.716900 2.692400
47.752700 2.636400
47.788500 2.642800
47.824400 2.639400
47.860200 2.562100
47.896000 2.489600
47.931800 2.481800
47.967700 2.420800
48.003500 2.370100
48.039300 2.370600
48.075100 2.253500
48.111000 2.185200
48.146800 2.012800
48.182600 1.882000
48.218400 1.927600
48.254300 1.736900
48.290100 1.518500
48.325900 1.377600
48.361800 1.357200
48.397600 1.406100
48.433400 1.466900
48.469200 1.215700
48.505100 1.088400
48.540900 1.005200
48.576700 0.941300
48.612500 0.849400
48.648400 0.869000
48.684200 0.813800
48.720000 0.726000
48.755900 0.653200
48.791700 0.589500
48.827500 0.538600
48.863300 0.498100
48.899200 0.471200
48.935000 0.443700
48.970800 0.407800
49.006600 0.341900
49.042500 0.308100
49.078300 0.272700
49.114100 0.236200
49.149900 0.203400
49.185800 0.176100
49.221600 0.149100
49.257400 0.122300
49.293300 0.096000
49.329100 0.072300
49.364900 0.052300
49.400700 0.036400
49.436600 0.025000
49.472400 0.018200
49.508200 0.015600
49.544000 0.014300
49.579900 0.013100
49.615700 0.011800
49.651500 0.010700
49.687300 0.009500
49.723200 0.008400
49.759000 0.007400
49.794800 0.006300
49.830700 0.005400
49.866500 0.004400
49.902300 0.003500
49.938100 0.002700
49.974000 0.001900
50.009800 0.001200
50.045600 0.000700
50.081400 0.000300
50.117300 0.000000
50.153100 0.000000
50.188900 0.000000
50.224800 0.000000
50.260600 0.000000
50.296400 0.000000
50.332200 0.000000
50.368100 0.000000
50.403900 0.000000
50.439700 0.000000
50.475500 0.000000
50.511400 0.000000
50.547200 0.000000
50.583000 0.000000
50.618800 0.000000
50.654700 0.000000
50.690500 0.000000
50.726300 0.000000
50.762200 0.000000
50.798000 0.000000
50.833800 0.000000
50.869600 0.000000
50.905500 0.000000
50.941300 0.000000
50.977100 0.000000
51.012900 0.000000
51.048800 0.000000
51.084600 0.000000
51.120400 0.000000
51.156200 0.000000
51.192100 0.000000
51.227900 0.000000
51.263700 0.000000
51.299600 0.000000
51.335400 0.000000
51.371200 0.000000
51.407000 0.000000
51.442900 0.000000
51.478700 0.000000
51.514500 0.000000
51.550300 0.000000
51.586200 0.000000
51.622000 0.000000
51.657800 0.000000
51.693700 0.000000
51.729500 0.000000
51.765300 0.000000
51.801100 0.000000
51.837000 0.000000
51.872800 0.000000
51.908600 0.000000
51.944400 0.000000
51.980300 0.000000
52.016100 0.000000
52.051900 0.000000
52.087700 0.000000
52.123600 0.000000
52.159400 0.000000
52.195200 0.000000
52.231100 0.000000
52.266900 0.000000
52.302700 0.000000
52.338500 0.000000
52.374400 0.000000
52.410200 0.000000
52.446000 0.000000
52.481800 0.000000
52.517700 0.000000
52.553500 0.000000
52.589300 0.000000
52.625100 0.000000
52.661000 0.000000
52.696800 0.000000
52.732600 0.000000
52.768500 0.000000
52.804300 0.000000
52.840100 0.000000
52.875900 0.000000
52.911800 0.000000
52.947600 0.000000
52.983400 0.000000
53.019200 0.000000
53.055100 0.000000
53.090900 0.000000
53.126700 0.000000
53.162600 0.000000
53.198400 0.000000
53.234200 0.000000
53.270000 0.000000
53.305900 0.000000
53.341700 0.000000
53.377500 0.000000
e
