set title 'mp-1183591 - Density of States'
set xlabel 'Energy (eV)'
set ylabel 'DOS (states/eV)'
set grid
set xrange [-10:10]
set yrange [0:59.270]
set xzeroaxis lt -1
set terminal png size 800,600
set output 'mp-1183591_dos_gnuplot.png'
plot '-' using 1:2 with lines title 'DOS'
-8.730400 0.000000
-8.712300 0.000000
-8.694100 0.000000
-8.675900 0.000000
-8.657800 0.000000
-8.639600 0.000000
-8.621400 0.000000
-8.603300 0.000000
-8.585100 0.000000
-8.566900 0.000000
-8.548800 0.000000
-8.530600 0.000000
-8.512400 0.000000
-8.494200 0.000000
-8.476100 0.000000
-8.457900 0.000000
-8.439700 0.000000
-8.421600 0.000000
-8.403400 0.000000
-8.385200 0.000000
-8.367100 0.000000
-8.348900 0.000000
-8.330700 0.000000
-8.312500 0.000000
-8.294400 0.000000
-8.276200 0.000000
-8.258000 0.000000
-8.239900 0.000000
-8.221700 0.000000
-8.203500 0.000000
-8.185400 0.000000
-8.167200 0.000000
-8.149000 0.000000
-8.130900 0.000000
-8.112700 0.000000
-8.094500 0.000000
-8.076300 0.000000
-8.058200 0.000000
-8.040000 0.000000
-8.021800 0.000000
-8.003700 0.000000
-7.985500 0.000000
-7.967300 0.000000
-7.949200 0.000000
-7.931000 0.000000
-7.912800 0.000000
-7.894600 0.000000
-7.876500 0.000000
-7.858300 0.000000
-7.840100 0.000000
-7.822000 0.000000
-7.803800 0.000000
-7.785600 0.000000
-7.767500 0.000000
-7.749300 0.000000
-7.731100 0.000000
-7.713000 0.000000
-7.694800 0.000000
-7.676600 0.000000
-7.658400 0.000000
-7.640300 0.000000
-7.622100 0.000000
-7.603900 0.000000
-7.585800 0.000000
-7.567600 0.000000
-7.549400 0.000000
-7.531300 0.000000
-7.513100 0.000000
-7.494900 0.000000
-7.476700 0.000000
-7.458600 0.000000
-7.440400 0.000000
-7.422200 0.000000
-7.404100 0.000000
-7.385900 0.000000
-7.367700 0.000000
-7.349600 0.000000
-7.331400 0.000000
-7.313200 0.000000
-7.295100 0.000000
-7.276900 0.000000
-7.258700 0.000000
-7.240500 0.000000
-7.222400 0.000000
-7.204200 0.000000
-7.186000 0.000000
-7.167900 0.000000
-7.149700 0.000000
-7.131500 0.000000
-7.113400 0.000000
-7.095200 0.000000
-7.077000 0.126200
-7.058800 2.137700
-7.040700 4.902200
-7.022500 6.446300
-7.004300 9.682400
-6.986200 11.877200
-6.968000 16.414100
-6.949800 22.044500
-6.931700 31.254500
-6.913500 27.424900
-6.895300 23.985100
-6.877200 23.805300
-6.859000 22.975300
-6.840800 23.438300
-6.822600 26.842500
-6.804500 30.086400
-6.786300 28.928200
-6.768100 37.065400
-6.750000 32.448800
-6.731800 28.854800
-6.713600 28.248900
-6.695500 31.572700
-6.677300 32.953500
-6.659100 31.410600
-6.640900 30.446200
-6.622800 28.358300
-6.604600 34.554900
-6.586400 34.148600
-6.568300 35.776400
-6.550100 38.878100
-6.531900 53.881700
-6.513800 28.187700
-6.495600 31.814200
-6.477400 19.337900
-6.459300 12.110300
-6.441100 6.047600
-6.422900 12.268900
-6.404700 25.744000
-6.386600 33.187400
-6.368400 31.320700
-6.350200 35.332400
-6.332100 42.630700
-6.313900 40.346500
-6.295700 19.458300
-6.277600 19.397200
-6.259400 22.836400
-6.241200 22.920400
-6.223000 29.090900
-6.204900 26.098900
-6.186700 32.555400
-6.168500 32.963700
-6.150400 31.624500
-6.132200 38.797400
-6.114000 44.675600
-6.095900 43.626100
-6.077700 34.470000
-6.059500 29.453800
-6.041400 31.124900
-6.023200 28.016700
-6.005000 31.690600
-5.986800 35.479500
-5.968700 40.323500
-5.950500 35.775400
-5.932300 30.731200
-5.914200 34.021700
-5.896000 33.506600
-5.877800 30.737000
-5.859700 27.982600
-5.841500 29.132500
-5.823300 32.983300
-5.805100 30.833700
-5.787000 33.942100
-5.768800 31.095200
-5.750600 37.524700
-5.732500 35.310900
-5.714300 38.380600
-5.696100 16.664000
-5.678000 8.794000
-5.659800 6.177400
-5.641600 1.289500
-5.623500 0.307500
-5.605300 0.334500
-5.587100 0.356600
-5.568900 0.370800
-5.550800 0.377100
-5.532600 0.325000
-5.514400 0.318600
-5.496300 0.313000
-5.478100 0.309500
-5.459900 0.308100
-5.441800 0.309000
-5.423600 0.311100
-5.405400 0.313100
-5.387200 0.315000
-5.369100 0.316700
-5.350900 0.318300
-5.332700 0.319800
-5.314600 0.319100
-5.296400 0.317600
-5.278200 0.316600
-5.260100 0.324800
-5.241900 0.341300
-5.223700 0.359300
-5.205600 0.380800
-5.187400 0.401200
-5.169200 0.421400
-5.151000 0.389400
-5.132900 0.392900
-5.114700 0.398300
-5.096500 0.403700
-5.078400 0.409100
-5.060200 0.414500
-5.042000 0.419800
-5.023900 0.425200
-5.005700 0.430500
-4.987500 0.435900
-4.969300 0.441500
-4.951200 0.447300
-4.933000 0.451400
-4.914800 0.449100
-4.896700 0.452100
-4.878500 0.455100
-4.860300 0.458000
-4.842200 0.460800
-4.824000 0.465700
-4.805800 0.470800
-4.787700 0.476000
-4.769500 0.481400
-4.751300 0.486800
-4.733100 0.492400
-4.715000 0.498000
-4.696800 0.503900
-4.678600 0.509500
-4.660500 0.514400
-4.642300 0.518600
-4.624100 0.522000
-4.606000 0.525100
-4.587800 0.528400
-4.569600 0.531900
-4.551400 0.535700
-4.533300 0.539700
-4.515100 0.538200
-4.496900 0.541400
-4.478800 0.544600
-4.460600 0.547700
-4.442400 0.550800
-4.424300 0.553700
-4.406100 0.556700
-4.387900 0.558700
-4.369800 0.560700
-4.351600 0.562800
-4.333400 0.565100
-4.315200 0.568000
-4.297100 0.571500
-4.278900 0.575400
-4.260700 0.579500
-4.242600 0.583500
-4.224400 0.587700
-4.206200 0.591900
-4.188100 0.596200
-4.169900 0.600500
-4.151700 0.604800
-4.133500 0.609100
-4.115400 0.613500
-4.097200 0.617900
-4.079000 0.622400
-4.060900 0.626900
-4.042700 0.631400
-4.024500 0.635600
-4.006400 0.638400
-3.988200 0.640800
-3.970000 0.642500
-3.951800 0.643600
-3.933700 0.644400
-3.915500 0.646600
-3.897300 0.650500
-3.879200 0.653200
-3.861000 0.655900
-3.842800 0.658600
-3.824700 0.661100
-3.806500 0.663700
-3.788300 0.666100
-3.770200 0.668600
-3.752000 0.671100
-3.733800 0.673700
-3.715600 0.676300
-3.697500 0.678900
-3.679300 0.679800
-3.661100 0.682500
-3.643000 0.685300
-3.624800 0.688200
-3.606600 0.691300
-3.588500 0.694300
-3.570300 0.697400
-3.552100 0.700400
-3.533900 0.703500
-3.515800 0.706700
-3.497600 0.710000
-3.479400 0.713400
-3.461300 0.716800
-3.443100 0.720200
-3.424900 0.723700
-3.406800 0.727200
-3.388600 0.730700
-3.370400 0.734300
-3.352300 0.737900
-3.334100 0.741500
-3.315900 0.743200
-3.297700 0.746400
-3.279600 0.749700
-3.261400 0.753100
-3.243200 0.756300
-3.225100 0.759500
-3.206900 0.762800
-3.188700 0.766000
-3.170600 0.769200
-3.152400 0.772100
-3.134200 0.774700
-3.116000 0.777100
-3.097900 0.779400
-3.079700 0.781400
-3.061500 0.783400
-3.043400 0.785700
-3.025200 0.788100
-3.007000 0.790600
-2.988900 0.793100
-2.970700 0.795500
-2.952500 0.797900
-2.934400 0.800300
-2.916200 0.802600
-2.898000 0.805000
-2.879800 0.807000
-2.861700 0.808800
-2.843500 0.810800
-2.825300 0.812700
-2.807200 0.814800
-2.789000 0.817000
-2.770800 0.819600
-2.752700 0.822300
-2.734500 0.825000
-2.716300 0.827900
-2.698100 0.830700
-2.680000 0.833600
-2.661800 0.836500
-2.643600 0.839400
-2.625500 0.842300
-2.607300 0.845200
-2.589100 0.848100
-2.571000 0.851100
-2.552800 0.854100
-2.534600 0.857000
-2.516500 0.860000
-2.498300 0.862600
-2.480100 0.865200
-2.461900 0.867700
-2.443800 0.870200
-2.425600 0.872700
-2.407400 0.875500
-2.389300 0.878300
-2.371100 0.881100
-2.352900 0.883900
-2.334800 0.886700
-2.316600 0.889500
-2.298400 0.892300
-2.280200 0.895100
-2.262100 0.897900
-2.243900 0.900700
-2.225700 0.903500
-2.207600 0.906400
-2.189400 0.909000
-2.171200 0.918700
-2.153100 0.935400
-2.134900 0.951600
-2.116700 0.967300
-2.098600 0.982500
-2.080400 0.997300
-2.062200 0.963300
-2.044000 0.965300
-2.025900 0.967300
-2.007700 0.969300
-1.989500 0.971100
-1.971400 0.973000
-1.953200 0.974900
-1.935000 0.976700
-1.916900 0.978500
-1.898700 0.979400
-1.880500 0.981100
-1.862300 0.982800
-1.844200 0.984100
-1.826000 0.983100
-1.807800 0.982000
-1.789700 0.981100
-1.771500 0.980200
-1.753300 0.979400
-1.735200 0.979000
-1.717000 0.980200
-1.698800 0.981500
-1.680700 0.982700
-1.662500 0.984000
-1.644300 0.985200
-1.626100 0.986500
-1.608000 0.987700
-1.589800 0.988900
-1.571600 0.990100
-1.553500 0.991400
-1.535300 0.992600
-1.517100 0.992800
-1.499000 0.993800
-1.480800 0.994700
-1.462600 0.995700
-1.444400 0.996600
-1.426300 0.997500
-1.408100 0.993900
-1.389900 0.994400
-1.371800 0.994900
-1.353600 0.995400
-1.335400 0.996000
-1.317300 0.996700
-1.299100 0.997300
-1.280900 0.998000
-1.262800 0.998800
-1.244600 0.999600
-1.226400 1.000400
-1.208200 1.001400
-1.190100 1.002500
-1.171900 1.003600
-1.153700 1.004600
-1.135600 1.005700
-1.117400 1.006700
-1.099200 1.007600
-1.081100 1.008400
-1.062900 1.009100
-1.044700 1.018100
-1.026500 1.038900
-1.008400 1.062700
-0.990200 1.086600
-0.972000 1.110900
-0.953900 1.130600
-0.935700 1.100900
-0.917500 1.105700
-0.899400 1.109700
-0.881200 1.113800
-0.863000 1.117800
-0.844900 1.121800
-0.826700 1.125700
-0.808500 1.130100
-0.790300 1.134600
-0.772200 1.139100
-0.754000 1.155800
-0.735800 1.171600
-0.717700 1.189300
-0.699500 1.203500
-0.681300 1.216600
-0.663200 1.217700
-0.645000 1.218100
-0.626800 1.218100
-0.608600 1.218000
-0.590500 1.219200
-0.572300 1.220100
-0.554100 1.220800
-0.536000 1.221100
-0.517800 1.221200
-0.499600 1.221100
-0.481500 1.220700
-0.463300 1.254000
-0.445100 1.246100
-0.427000 1.239100
-0.408800 1.256700
-0.390600 1.251800
-0.372400 1.247100
-0.354300 1.242800
-0.336100 1.238600
-0.317900 1.234500
-0.299800 1.230500
-0.281600 1.222000
-0.263400 1.218400
-0.245300 1.216300
-0.227100 1.213700
-0.208900 1.213500
-0.190700 1.213800
-0.172600 1.214400
-0.154400 1.217000
-0.136200 1.222700
-0.118100 1.231500
-0.099900 1.299700
-0.081700 1.284900
-0.063600 1.269400
-0.045400 1.253400
-0.027200 1.239000
-0.009100 1.223400
0.009100 1.206600
0.027300 1.188500
0.045500 1.169600
0.063600 1.140400
0.081800 1.141500
0.100000 1.174200
0.118100 1.199900
0.136300 1.218700
0.154500 1.229900
0.172600 1.211200
0.190800 1.190900
0.209000 1.168900
0.227200 1.146600
0.245300 1.130600
0.263500 1.121500
0.281700 1.121400
0.299800 1.127100
0.318000 1.136100
0.336200 1.147700
0.354300 1.167100
0.372500 1.227000
0.390700 1.308900
0.408900 1.276200
0.427000 1.252100
0.445200 1.233900
0.463400 1.220000
0.481500 1.219500
0.499700 1.238100
0.517900 1.257400
0.536000 1.273200
0.554200 1.285900
0.572400 1.295600
0.590500 1.302200
0.608700 1.293200
0.626900 1.283000
0.645100 1.271800
0.663200 1.246700
0.681400 1.244400
0.699600 1.279200
0.717700 1.331100
0.735900 1.399500
0.754100 1.338700
0.772200 1.365700
0.790400 1.387400
0.808600 1.403800
0.826800 1.415000
0.844900 1.430700
0.863100 1.450800
0.881300 1.463600
0.899400 1.472500
0.917600 1.478000
0.935800 1.483200
0.953900 1.369900
0.972100 1.312100
0.990300 1.321000
1.008400 1.331600
1.026600 1.341500
1.044800 1.350800
1.063000 1.362400
1.081100 1.373600
1.099300 1.383500
1.117500 1.391900
1.135600 1.398900
1.153800 1.406300
1.172000 1.414400
1.190100 1.422700
1.208300 1.431300
1.226500 1.439200
1.244700 1.454100
1.262800 1.456800
1.281000 1.394200
1.299200 1.383100
1.317300 1.373600
1.335500 1.365700
1.353700 1.359500
1.371800 1.354200
1.390000 1.349600
1.408200 1.345700
1.426300 1.320700
1.444500 1.286800
1.462700 1.248100
1.480900 1.226700
1.499000 1.226500
1.517200 1.252900
1.535400 1.309500
1.553500 1.407000
1.571700 1.419400
1.589900 1.394600
1.608000 1.370600
1.626200 1.347300
1.644400 1.326000
1.662600 1.306900
1.680700 1.288500
1.698900 1.270700
1.717100 1.324600
1.735200 1.399700
1.753400 1.453800
1.771600 1.107300
1.789700 1.098200
1.807900 1.089700
1.826100 1.082000
1.844200 1.075300
1.862400 1.069600
1.880600 1.065900
1.898800 1.073300
1.916900 1.088100
1.935100 1.098700
1.953300 1.090200
1.971400 1.076100
1.989600 1.074300
2.007800 1.076300
2.025900 1.077300
2.044100 1.077600
2.062300 1.077200
2.080500 1.075900
2.098600 1.076000
2.116800 1.089100
2.135000 1.039900
2.153100 1.046400
2.171300 1.052700
2.189500 1.058800
2.207600 1.065000
2.225800 1.071400
2.244000 1.107400
2.262100 1.131400
2.280300 1.157000
2.298500 1.188300
2.316700 1.220400
2.334800 1.257400
2.353000 1.295700
2.371200 1.330300
2.389300 1.361000
2.407500 1.387700
2.425700 1.411300
2.443800 1.403800
2.462000 1.393200
2.480200 1.382000
2.498400 1.368900
2.516500 1.357500
2.534700 1.366800
2.552900 1.352900
2.571000 1.338000
2.589200 1.329000
2.607400 1.350100
2.625500 1.361100
2.643700 1.399800
2.661900 1.464300
2.680000 1.524100
2.698200 1.579100
2.716400 1.624400
2.734600 1.695100
2.752700 1.812300
2.770900 1.783000
2.789100 1.752700
2.807200 1.721600
2.825400 1.689700
2.843600 1.654800
2.861700 1.615700
2.879900 1.647800
2.898100 1.629700
2.916300 1.615100
2.934400 1.603600
2.952600 1.583100
2.970800 1.571300
2.988900 1.569400
3.007100 1.570100
3.025300 1.572100
3.043400 1.575200
3.061600 1.579100
3.079800 1.582300
3.097900 1.590200
3.116100 1.682000
3.134300 1.737800
3.152500 1.753100
3.170600 1.770200
3.188800 1.789200
3.207000 1.810100
3.225100 1.821900
3.243300 1.821300
3.261500 1.820500
3.279600 1.821000
3.297800 1.824300
3.316000 1.830500
3.334200 1.764200
3.352300 1.715700
3.370500 1.829000
3.388700 1.609900
3.406800 1.618800
3.425000 1.626400
3.443200 1.631600
3.461300 1.634600
3.479500 1.643700
3.497700 1.656800
3.515800 1.669300
3.534000 1.681000
3.552200 1.632000
3.570400 1.622100
3.588500 1.611700
3.606700 1.601800
3.624900 1.591800
3.643000 1.582900
3.661200 1.583300
3.679400 1.585000
3.697500 1.564700
3.715700 1.536000
3.733900 1.500400
3.752100 1.465200
3.770200 1.434800
3.788400 1.409700
3.806600 1.389700
3.824700 1.576700
3.842900 1.522700
3.861100 1.468600
3.879200 1.423900
3.897400 1.405200
3.915600 1.399900
3.933700 1.395100
3.951900 1.390900
3.970100 1.387300
3.988300 1.384500
4.006400 1.383100
4.024600 1.383200
4.042800 1.384900
4.060900 1.388200
4.079100 1.362900
4.097300 1.335500
4.115400 1.321500
4.133600 1.312800
4.151800 1.305700
4.170000 1.298400
4.188100 1.290100
4.206300 1.281000
4.224500 1.274000
4.242600 1.271500
4.260800 1.272800
4.279000 1.282100
4.297100 1.311300
4.315300 1.330700
4.333500 1.340200
4.351600 1.340800
4.369800 1.339700
4.388000 1.338800
4.406200 1.429700
4.424300 1.425400
4.442500 1.421500
4.460700 1.417800
4.478800 1.414500
4.497000 1.411300
4.515200 1.447400
4.533300 1.517200
4.551500 1.591500
4.569700 1.707900
4.587900 1.734300
4.606000 1.771900
4.624200 1.798000
4.642400 1.813700
4.660500 1.800000
4.678700 1.740000
4.696900 1.811800
4.715000 1.740400
4.733200 1.712300
4.751400 1.711600
4.769600 1.712200
4.787700 1.718600
4.805900 1.734700
4.824100 1.749000
4.842200 1.760700
4.860400 1.770000
4.878600 1.776900
4.896700 1.783300
4.914900 1.787300
4.933100 1.790100
4.951200 1.792100
4.969400 1.793700
4.987600 1.795500
5.005800 1.787700
5.023900 1.774900
5.042100 1.762900
5.060300 1.751900
5.078400 1.740900
5.096600 1.730100
5.114800 1.726800
5.132900 1.748200
5.151100 1.774000
5.169300 1.798300
5.187500 1.831800
5.205600 1.745500
5.223800 1.756800
5.242000 1.785000
5.260100 1.815600
5.278300 1.848400
5.296500 1.883400
5.314600 1.920600
5.332800 1.960100
5.351000 2.000000
5.369100 1.820400
5.387300 1.772200
5.405500 1.759700
5.423700 1.748900
5.441800 1.743300
5.460000 1.738300
5.478200 1.733600
5.496300 1.729500
5.514500 1.726100
5.532700 1.733300
5.550800 1.724600
5.569000 1.719100
5.587200 1.716300
5.605400 1.715700
5.623500 1.717500
5.641700 1.723500
5.659900 1.725500
5.678000 1.729800
5.696200 1.731000
5.714400 1.731800
5.732500 1.731800
5.750700 1.729700
5.768900 1.735300
5.787000 1.742600
5.805200 1.750900
5.823400 1.774600
5.841600 1.802200
5.859700 1.830300
5.877900 1.855200
5.896100 1.854800
5.914200 1.853200
5.932400 1.852900
5.950600 1.852700
5.968700 1.852800
5.986900 1.853800
6.005100 1.858800
6.023300 1.865200
6.041400 1.950000
6.059600 2.597200
6.077800 2.002300
6.095900 1.835800
6.114100 1.882500
6.132300 1.934300
6.150400 1.989900
6.168600 2.002000
6.186800 1.903100
6.204900 1.905200
6.223100 1.907000
6.241300 1.908700
6.259500 1.908400
6.277600 1.907900
6.295800 1.907000
6.314000 1.905200
6.332100 1.902400
6.350300 1.899100
6.368500 1.892800
6.386600 1.883000
6.404800 1.872300
6.423000 1.858600
6.441200 1.844200
6.459300 1.830400
6.477500 1.814400
6.495700 1.799100
6.513800 1.792900
6.532000 1.787700
6.550200 1.778200
6.568300 1.769100
6.586500 1.765500
6.604700 1.769700
6.622800 1.776300
6.641000 1.784800
6.659200 1.795300
6.677400 1.807800
6.695500 1.822200
6.713700 1.749800
6.731900 1.819200
6.750000 1.921200
6.768200 1.941200
6.786400 1.875600
6.804500 1.806900
6.822700 1.752200
6.840900 1.736800
6.859100 1.720100
6.877200 1.704100
6.895400 1.723100
6.913600 1.746900
6.931700 1.774700
6.949900 1.805900
6.968100 1.753000
6.986200 1.769400
7.004400 1.786500
7.022600 1.804200
7.040700 1.822100
7.058900 1.840300
7.077100 1.859600
7.095300 1.897700
7.113400 1.915600
7.131600 1.927900
7.149800 1.922100
7.167900 1.931400
7.186100 1.950200
7.204300 1.973000
7.222400 1.996200
7.240600 2.020100
7.258800 2.044800
7.277000 2.070500
7.295100 2.096300
7.313300 2.119900
7.331500 2.141800
7.349600 2.162100
7.367800 2.180600
7.386000 2.206900
7.404100 2.224800
7.422300 2.219700
7.440500 2.201500
7.458600 2.171100
7.476800 2.128800
7.495000 2.073800
7.513200 1.999200
7.531300 1.981300
7.549500 1.965800
7.567700 1.954400
7.585800 1.955500
7.604000 1.950500
7.622200 1.947800
7.640300 1.963400
7.658500 1.935900
7.676700 1.921900
7.694900 1.919000
7.713000 1.921100
7.731200 1.927600
7.749400 1.935300
7.767500 1.942300
7.785700 1.948700
7.803900 1.947900
7.822000 1.979000
7.840200 1.988600
7.858400 1.988400
7.876500 2.010000
7.894700 2.057000
7.912900 2.076300
7.931100 2.056600
7.949200 2.047600
7.967400 2.049600
7.985600 2.053200
8.003700 2.068000
8.021900 2.088900
8.040100 2.111300
8.058200 2.134700
8.076400 2.159100
8.094600 2.185500
8.112800 2.217800
8.130900 2.231200
8.149100 2.155500
8.167300 2.099200
8.185400 2.105400
8.203600 2.113000
8.221800 2.120000
8.239900 2.121500
8.258100 2.127200
8.276300 2.137700
8.294400 2.162600
8.312600 2.063700
8.330800 2.042200
8.349000 2.066000
8.367100 2.070800
8.385300 2.078200
8.403500 2.088600
8.421600 2.100200
8.439800 2.240600
8.458000 2.230200
8.476100 2.205200
8.494300 2.172700
8.512500 2.138300
8.530700 2.131800
8.548800 2.138900
8.567000 2.148200
8.585200 2.155800
8.603300 2.160400
8.621500 2.152800
8.639700 2.159700
8.657800 2.166700
8.676000 2.174000
8.694200 2.181500
8.712300 2.189100
8.730500 2.197500
8.748700 2.172000
8.766900 2.150400
8.785000 2.124400
8.803200 2.117000
8.821400 2.117600
8.839500 2.130600
8.857700 2.147100
8.875900 2.161000
8.894000 2.160000
8.912200 2.145300
8.930400 2.133200
8.948600 2.123700
8.966700 2.116800
8.984900 2.112500
9.003100 2.110500
9.021200 2.114300
9.039400 2.131300
9.057600 2.151700
9.075700 2.195300
9.093900 2.241300
9.112100 2.237700
9.130300 2.248800
9.148400 2.256400
9.166600 2.275300
9.184800 2.264300
9.202900 2.251500
9.221100 2.237400
9.239300 2.221300
9.257400 2.195000
9.275600 2.176500
9.293800 2.172500
9.311900 2.162100
9.330100 2.148400
9.348300 2.109200
9.366500 2.174900
9.384600 2.253900
9.402800 2.333600
9.421000 2.414100
9.439100 2.340900
9.457300 2.297900
9.475500 2.258800
9.493600 2.232200
9.511800 2.234000
9.530000 2.235200
9.548200 2.237200
9.566300 2.239800
9.584500 2.243400
9.602700 2.232600
9.620800 2.238500
9.639000 2.246800
9.657200 2.260900
9.675300 2.275200
9.693500 2.280400
9.711700 2.286300
9.729800 2.296000
9.748000 2.309500
9.766200 2.391100
9.784400 2.409400
9.802500 2.420400
9.820700 2.427000
9.838900 2.421900
9.857000 2.416300
9.875200 2.409200
9.893400 2.400300
9.911500 2.411600
9.929700 2.422800
9.947900 2.430000
9.966100 2.433200
9.984200 2.432500
10.002400 2.429800
10.020600 2.307600
10.038700 2.246000
10.056900 2.306900
10.075100 2.233500
10.093200 2.163200
10.111400 2.142100
10.129600 2.121200
10.147700 2.117200
10.165900 2.117500
10.184100 2.118700
10.202300 2.117200
10.220400 2.117000
10.238600 2.119500
10.256800 2.133600
10.274900 2.181900
10.293100 2.232000
10.311300 2.287000
10.329400 2.144900
10.347600 2.167800
10.365800 2.182900
10.384000 2.126000
10.402100 2.133500
10.420300 2.140600
10.438500 2.148100
10.456600 2.155600
10.474800 2.163600
10.493000 2.172600
10.511100 2.184100
10.529300 2.232600
10.547500 2.273500
10.565600 2.309900
10.583800 2.342300
10.602000 2.372100
10.620200 2.399500
10.638300 2.295500
10.656500 2.278200
10.674700 2.261600
10.692800 2.249200
10.711000 2.230400
10.729200 2.210700
10.747300 2.189400
10.765500 2.162600
10.783700 2.137200
10.801900 2.113800
10.820000 2.083200
10.838200 2.079600
10.856400 2.078500
10.874500 2.072800
10.892700 2.066900
10.910900 2.048100
10.929000 2.013100
10.947200 1.979300
10.965400 1.968800
10.983500 1.951300
11.001700 1.935000
11.019900 1.919800
11.038100 1.905600
11.056200 1.892200
11.074400 1.879400
11.092600 1.867500
11.110700 1.856900
11.128900 1.847100
11.147100 1.837700
11.165200 1.828100
11.183400 1.818700
11.201600 1.811900
11.219800 1.887400
11.237900 1.875100
11.256100 1.858100
11.274300 1.842300
11.292400 1.826500
11.310600 1.803100
11.328800 1.779500
11.346900 1.756900
11.365100 1.736600
11.383300 1.718100
11.401400 1.712200
11.419600 1.706700
11.437800 1.701500
11.456000 1.695800
11.474100 1.688500
11.492300 1.676900
11.510500 1.664700
11.528600 1.652100
11.546800 1.639100
11.565000 1.626800
11.583100 1.617100
11.601300 1.608000
11.619500 1.599700
11.637700 1.569500
11.655800 1.566000
11.674000 1.562100
11.692200 1.557800
11.710300 1.553200
11.728500 1.548100
11.746700 1.542000
11.764800 1.534800
11.783000 1.534200
11.801200 1.524800
11.819300 1.510500
11.837500 1.502200
11.855700 1.501500
11.873900 1.501900
11.892000 1.512100
11.910200 1.521600
11.928400 1.530800
11.946500 1.536800
11.964700 1.539700
11.982900 1.800300
12.001000 1.716700
12.019200 1.673000
12.037400 1.695200
12.055600 1.723200
12.073700 1.753000
12.091900 1.784500
12.110100 1.817700
12.128200 1.852800
12.146400 1.889900
12.164600 1.966200
12.182700 2.013200
12.200900 2.060900
12.219100 2.109700
12.237200 2.158500
12.255400 2.202400
12.273600 2.251800
12.291800 2.301500
12.309900 2.351600
12.328100 2.368500
12.346300 2.439100
12.364400 2.405800
12.382600 2.339500
12.400800 2.282200
12.418900 2.290000
12.437100 2.308900
12.455300 2.328500
12.473500 2.882400
12.491600 2.351000
12.509800 2.353900
12.528000 2.357100
12.546100 2.364100
12.564300 2.368500
12.582500 2.370100
12.600600 2.378600
12.618800 2.449400
12.637000 2.455900
12.655100 2.468000
12.673300 2.483400
12.691500 2.500600
12.709700 2.536800
12.727800 2.556900
12.746000 2.490300
12.764200 2.499100
12.782300 2.507100
12.800500 2.512100
12.818700 2.517200
12.836800 2.533800
12.855000 2.554100
12.873200 4.287000
12.891400 2.616200
12.909500 2.620500
12.927700 2.624900
12.945900 2.631100
12.964000 2.638500
12.982200 2.647300
13.000400 2.653400
13.018500 2.650800
13.036700 2.647600
13.054900 2.643100
13.073000 2.636100
13.091200 2.579700
13.109400 2.565600
13.127600 2.544600
13.145700 2.528000
13.163900 2.513800
13.182100 2.499500
13.200200 2.477800
13.218400 2.466700
13.236600 2.448600
13.254700 2.437900
13.272900 2.431000
13.291100 2.425300
13.309300 2.427000
13.327400 2.428200
13.345600 2.442300
13.363800 2.461500
13.381900 2.485200
13.400100 2.513500
13.418300 2.547100
13.436400 2.586900
13.454600 2.519800
13.472800 2.519100
13.491000 2.868600
13.509100 2.849200
13.527300 2.838100
13.545500 2.819500
13.563600 2.818900
13.581800 2.837000
13.600000 2.855100
13.618100 2.877700
13.636300 2.883500
13.654500 2.875100
13.672600 2.870400
13.690800 2.868100
13.709000 2.885100
13.727200 2.878900
13.745300 2.870000
13.763500 2.857300
13.781700 2.846500
13.799800 2.838400
13.818000 2.836000
13.836200 2.826800
13.854300 2.817800
13.872500 2.808400
13.890700 2.798700
13.908900 2.791500
13.927000 3.448500
13.945200 2.871000
13.963400 2.886800
13.981500 2.895600
13.999700 2.910300
14.017900 2.930300
14.036000 2.954000
14.054200 2.977000
14.072400 2.989600
14.090500 3.001700
14.108700 3.085900
14.126900 3.307900
14.145100 3.017000
14.163200 3.026600
14.181400 3.035600
14.199600 3.044400
14.217700 3.060100
14.235900 3.077400
14.254100 3.152300
14.272200 3.274600
14.290400 3.369600
14.308600 3.491400
14.326800 3.283100
14.344900 3.300000
14.363100 3.344600
14.381300 3.401900
14.399400 3.448300
14.417600 3.422200
14.435800 3.417900
14.453900 3.429800
14.472100 3.435600
14.490300 3.437600
14.508400 3.435900
14.526600 3.430200
14.544800 3.422200
14.563000 3.407500
14.581100 3.399300
14.599300 3.393000
14.617500 3.390400
14.635600 3.393900
14.653800 3.431500
14.672000 3.427100
14.690100 3.422400
14.708300 3.419900
14.726500 3.420500
14.744700 3.439100
14.762800 3.447000
14.781000 3.461600
14.799200 3.479300
14.817300 3.587100
14.835500 3.692400
14.853700 3.732700
14.871800 3.721300
14.890000 3.725200
14.908200 3.731000
14.926300 3.748500
14.944500 3.771800
14.962700 3.850300
14.980900 4.002500
14.999000 3.722200
15.017200 3.679600
15.035400 3.697300
15.053500 3.659400
15.071700 3.619000
15.089900 3.578000
15.108000 3.514100
15.126200 3.423300
15.144400 3.333000
15.162600 3.248500
15.180700 3.190300
15.198900 3.140100
15.217100 3.090300
15.235200 3.038800
15.253400 2.985100
15.271600 2.936500
15.289700 2.894000
15.307900 2.856300
15.326100 2.825200
15.344200 2.807500
15.362400 2.796400
15.380600 2.790500
15.398800 2.778100
15.416900 2.895400
15.435100 3.033300
15.453300 3.461100
15.471400 3.621200
15.489600 3.021200
15.507800 3.282300
15.525900 2.890600
15.544100 2.875600
15.562300 2.854600
15.580500 2.739800
15.598600 2.717500
15.616800 2.808200
15.635000 2.743200
15.653100 2.683100
15.671300 2.627400
15.689500 2.607600
15.707600 2.674600
15.725800 2.746900
15.744000 3.002200
15.762100 3.146300
15.780300 2.528300
15.798500 2.454300
15.816700 2.449900
15.834800 2.466900
15.853000 2.345900
15.871200 2.374300
15.889300 2.394800
15.907500 2.484000
15.925700 2.580000
15.943800 2.680500
15.962000 2.470100
15.980200 2.458600
15.998400 2.444500
16.016500 2.426800
16.034700 2.419600
16.052900 2.427800
16.071000 2.435600
16.089200 2.453400
16.107400 2.431400
16.125500 2.371300
16.143700 2.281300
16.161900 2.205400
16.180000 2.179100
16.198200 2.161100
16.216400 2.147300
16.234600 2.128100
16.252700 2.100600
16.270900 2.074400
16.289100 2.050000
16.307200 2.027900
16.325400 2.009100
16.343600 1.995900
16.361700 1.986700
16.379900 1.978400
16.398100 1.971100
16.416300 1.964500
16.434400 1.958100
16.452600 1.954700
16.470800 1.950600
16.488900 1.944700
16.507100 1.938200
16.525300 1.933600
16.543400 2.020600
16.561600 1.996300
16.579800 1.976100
16.597900 1.954100
16.616100 1.931100
16.634300 1.905100
16.652500 1.876800
16.670600 1.846100
16.688800 1.815200
16.707000 1.777300
16.725100 1.736100
16.743300 1.698100
16.761500 1.660800
16.779600 1.636800
16.797800 1.625700
16.816000 1.616100
16.834200 1.607300
16.852300 1.584900
16.870500 1.540500
16.888700 1.589300
16.906800 1.494900
16.925000 1.449900
16.943200 1.409900
16.961300 1.393300
16.979500 1.416500
16.997700 1.467500
17.015800 1.453400
17.034000 1.236000
17.052200 1.136400
17.070400 1.110300
17.088500 1.094100
17.106700 1.134300
17.124900 1.184200
17.143000 1.240500
17.161200 1.310300
17.179400 1.296100
17.197500 1.185900
17.215700 1.153100
17.233900 1.126200
17.252100 1.131500
17.270200 1.152700
17.288400 1.213300
17.306600 1.504800
17.324700 1.599800
17.342900 1.050600
17.361100 1.087200
17.379200 1.127000
17.397400 1.165800
17.415600 1.207600
17.433700 1.196000
17.451900 1.231800
17.470100 1.265200
17.488300 1.294200
17.506400 1.322800
17.524600 1.347700
17.542800 1.372700
17.560900 1.399500
17.579100 1.428000
17.597300 1.457700
17.615400 1.488400
17.633600 1.519900
17.651800 1.552300
17.670000 1.623700
17.688100 1.755100
17.706300 1.888500
17.724500 2.029400
17.742600 2.162700
17.760800 2.230700
17.779000 2.263200
17.797100 2.341100
17.815300 2.355700
17.833500 2.366300
17.851700 2.366700
17.869800 2.358600
17.888000 2.342200
17.906200 2.467900
17.924300 2.428300
17.942500 2.445800
17.960700 2.486500
17.978800 2.520100
17.997000 2.423100
18.015200 2.345100
18.033300 2.281000
18.051500 2.231600
18.069700 2.196700
18.087900 2.169500
18.106000 2.149500
18.124200 2.136700
18.142400 2.130900
18.160500 2.132200
18.178700 2.140000
18.196900 2.230800
18.215000 2.244800
18.233200 2.249300
18.251400 2.247000
18.269600 2.250900
18.287700 2.224300
18.305900 2.265000
18.324100 2.291600
18.342200 2.310100
18.360400 2.274700
18.378600 2.142900
18.396700 2.123200
18.414900 2.238400
18.433100 2.427700
18.451200 2.519900
18.469400 3.132900
18.487600 2.742600
18.505800 2.964300
18.523900 2.971600
18.542100 2.809300
18.560300 2.868000
18.578400 2.932000
18.596600 2.998100
18.614800 3.225900
18.632900 3.243500
18.651100 3.195400
18.669300 3.158700
18.687500 3.098400
18.705600 2.989300
18.723800 2.961600
18.742000 2.937400
18.760100 2.961800
18.778300 2.957400
18.796500 2.972300
18.814600 3.027900
18.832800 3.065900
18.851000 3.106800
18.869100 3.124100
18.887300 3.152400
18.905500 3.177400
18.923700 3.307400
18.941800 3.377800
18.960000 3.475400
18.978200 3.647200
18.996300 3.735000
19.014500 3.787400
19.032700 3.814200
19.050800 3.820800
19.069000 3.891200
19.087200 3.862500
19.105400 3.832900
19.123500 3.789600
19.141700 3.693800
19.159900 3.622000
19.178000 3.543800
19.196200 3.470600
19.214400 3.427200
19.232500 3.321500
19.250700 3.291100
19.268900 3.359300
19.287000 3.342800
19.305200 3.327500
19.323400 3.254700
19.341600 3.192200
19.359700 3.112500
19.377900 3.027700
19.396100 2.958800
19.414200 2.920900
19.432400 2.893300
19.450600 2.774300
19.468700 2.718900
19.486900 2.671100
19.505100 2.629100
19.523300 2.593500
19.541400 2.570200
19.559600 2.556700
19.577800 2.535300
19.595900 2.517200
19.614100 2.505500
19.632300 2.687500
19.650400 2.715300
19.668600 2.687900
19.686800 2.656400
19.704900 2.632000
19.723100 2.579700
19.741300 2.589900
19.759500 2.617900
19.777600 2.670600
19.795800 2.734900
19.814000 2.800000
19.832100 2.866000
19.850300 2.933100
19.868500 2.864700
19.886600 2.873800
19.904800 2.859100
19.923000 2.817300
19.941200 2.812400
19.959300 2.811700
19.977500 2.812800
19.995700 2.815400
20.013800 2.820000
20.032000 2.826900
20.050200 2.835000
20.068300 3.005000
20.086500 3.148700
20.104700 3.277100
20.122800 3.381900
20.141000 3.554400
20.159200 3.838100
20.177400 3.480600
20.195500 3.331200
20.213700 3.355100
20.231900 3.336700
20.250000 3.328500
20.268200 3.334600
20.286400 3.272300
20.304500 3.289100
20.322700 3.285700
20.340900 3.294100
20.359100 3.239200
20.377200 3.200100
20.395400 3.308200
20.413600 3.352600
20.431700 3.404100
20.449900 3.385700
20.468100 3.494600
20.486200 3.622600
20.504400 3.718900
20.522600 3.762700
20.540700 3.727000
20.558900 3.634300
20.577100 3.534400
20.595300 3.427400
20.613400 3.234800
20.631600 3.137300
20.649800 3.056700
20.667900 2.974400
20.686100 2.893200
20.704300 2.813800
20.722400 2.706200
20.740600 2.674900
20.758800 2.691300
20.777000 2.702000
20.795100 2.701200
20.813300 2.704500
20.831500 2.718700
20.849600 2.701400
20.867800 2.675200
20.886000 2.466000
20.904100 2.454400
20.922300 2.441200
20.940500 2.427000
20.958600 2.411800
20.976800 2.393400
20.995000 2.371800
21.013200 2.347600
21.031300 2.325100
21.049500 2.304400
21.067700 2.287100
21.085800 2.277000
21.104000 2.342600
21.122200 2.339200
21.140300 2.332400
21.158500 2.322800
21.176700 2.313500
21.194900 2.303200
21.213000 2.287400
21.231200 2.265900
21.249400 2.240400
21.267500 2.222800
21.285700 2.224000
21.303900 2.245700
21.322000 2.256200
21.340200 2.250000
21.358400 2.232400
21.376500 2.241400
21.394700 2.391100
21.412900 2.381500
21.431100 2.379200
21.449200 2.382600
21.467400 2.390700
21.485600 2.401800
21.503700 2.452600
21.521900 2.461600
21.540100 2.429800
21.558200 2.518800
21.576400 2.612600
21.594600 2.710600
21.612800 2.826300
21.630900 3.062900
21.649100 3.103600
21.667300 3.089100
21.685400 3.059700
21.703600 3.017900
21.721800 2.980000
21.739900 2.941500
21.758100 2.899600
21.776300 2.856100
21.794400 2.816500
21.812600 2.783400
21.830800 2.760700
21.849000 2.741500
21.867100 2.721100
21.885300 2.699600
21.903500 2.677000
21.921600 2.651800
21.939800 2.621100
21.958000 2.451600
21.976100 2.418100
21.994300 2.389200
22.012500 2.410400
22.030700 2.389300
22.048800 2.372800
22.067000 2.357100
22.085200 2.345700
22.103300 2.350900
22.121500 2.386600
22.139700 2.437200
22.157800 2.501700
22.176000 2.568500
22.194200 2.621800
22.212400 2.626300
22.230500 2.603400
22.248700 2.591300
22.266900 2.443200
22.285000 2.438700
22.303200 2.487600
22.321400 2.454700
22.339500 2.416700
22.357700 2.373500
22.375900 2.327900
22.394000 2.280100
22.412200 2.235400
22.430400 2.217300
22.448600 2.221400
22.466700 2.234000
22.484900 2.244900
22.503100 2.252300
22.521200 2.305000
22.539400 2.316100
22.557600 2.330400
22.575700 2.339100
22.593900 2.406300
22.612100 2.389400
22.630300 2.366500
22.648400 2.339100
22.666600 2.315100
22.684800 2.306900
22.702900 2.314100
22.721100 2.310900
22.739300 2.301800
22.757400 2.290600
22.775600 2.280900
22.793800 2.137500
22.811900 2.106600
22.830100 2.083900
22.848300 2.069800
22.866500 2.078300
22.884600 2.070700
22.902800 2.083000
22.921000 2.101700
22.939100 2.115200
22.957300 2.064400
22.975500 2.015100
22.993600 1.971800
23.011800 1.936700
23.030000 1.900700
23.048200 1.895200
23.066300 1.912700
23.084500 1.930500
23.102700 1.793900
23.120800 1.775400
23.139000 1.762200
23.157200 1.755000
23.175300 1.714600
23.193500 1.714300
23.211700 1.713700
23.229800 1.581900
23.248000 1.555400
23.266200 1.531900
23.284400 1.517200
23.302500 1.507600
23.320700 1.498500
23.338900 1.472300
23.357000 1.443900
23.375200 1.416000
23.393400 1.391900
23.411500 1.369900
23.429700 1.348500
23.447900 1.337100
23.466100 1.326300
23.484200 1.315700
23.502400 1.305200
23.520600 1.295000
23.538700 1.286100
23.556900 1.277500
23.575100 1.269300
23.593200 1.261800
23.611400 1.256800
23.629600 1.255000
23.647700 1.255900
23.665900 1.257200
23.684100 1.261900
23.702300 1.270100
23.720400 1.289600
23.738600 1.324800
23.756800 1.360500
23.774900 1.208900
23.793100 1.153600
23.811300 1.135300
23.829400 1.118000
23.847600 1.056000
23.865800 1.035600
23.884000 1.013900
23.902100 0.990800
23.920300 0.966500
23.938500 0.947300
23.956600 0.928700
23.974800 0.912000
23.993000 0.897000
24.011100 0.883800
24.029300 0.872700
24.047500 0.864700
24.065600 0.859100
24.083800 0.842400
24.102000 0.821200
24.120200 0.801400
24.138300 0.781900
24.156500 0.762500
24.174700 0.743400
24.192800 0.724400
24.211000 0.705400
24.229200 0.686300
24.247300 0.604700
24.265500 0.589800
24.283700 0.582400
24.301900 0.582100
24.320000 0.537000
24.338200 0.497700
24.356400 0.466000
24.374500 0.442000
24.392700 0.425500
24.410900 0.414800
24.429000 0.404100
24.447200 0.393300
24.465400 0.381900
24.483500 0.368800
24.501700 0.356300
24.519900 0.344100
24.538100 0.332500
24.556200 0.321300
24.574400 0.310600
24.592600 0.300500
24.610700 0.291000
24.628900 0.282100
24.647100 0.273900
24.665200 0.266300
24.683400 0.259400
24.701600 0.253500
24.719800 0.251400
24.737900 0.253600
24.756100 0.260600
24.774300 0.274100
24.792400 0.264200
24.810600 0.254500
24.828800 0.244800
24.846900 0.235300
24.865100 0.225900
24.883300 0.216600
24.901400 0.207500
24.919600 0.198400
24.937800 0.189500
24.956000 0.180700
24.974100 0.172100
24.992300 0.163500
25.010500 0.155100
25.028600 0.146800
25.046800 0.138600
25.065000 0.130600
25.083100 0.115300
25.101300 0.102500
25.119500 0.097600
25.137700 0.092800
25.155800 0.088200
25.174000 0.083800
25.192200 0.079400
25.210300 0.075300
25.228500 0.071300
25.246700 0.067400
25.264800 0.063600
25.283000 0.060000
25.301200 0.056400
25.319300 0.053000
25.337500 0.049700
25.355700 0.046500
25.373900 0.043400
25.392000 0.040500
25.410200 0.037600
25.428400 0.034900
25.446500 0.032200
25.464700 0.029700
25.482900 0.027300
25.501000 0.025000
25.519200 0.022800
25.537400 0.020800
25.555600 0.018800
25.573700 0.017000
25.591900 0.015200
25.610100 0.013600
25.628200 0.012100
25.646400 0.010700
25.664600 0.009500
25.682700 0.008300
25.700900 0.007200
25.719100 0.006300
25.737200 0.005300
25.755400 0.004500
25.773600 0.003700
25.791800 0.003000
25.809900 0.002400
25.828100 0.001800
25.846300 0.001400
25.864400 0.000900
25.882600 0.000600
25.900800 0.000300
25.918900 0.000200
25.937100 0.000000
25.955300 0.000000
25.973500 0.000000
25.991600 0.000000
26.009800 0.000000
26.028000 0.000000
26.046100 0.000000
26.064300 0.000000
26.082500 0.000000
26.100600 0.000000
26.118800 0.000000
26.137000 0.000000
26.155100 0.000000
26.173300 0.000000
26.191500 0.000000
26.209700 0.000000
26.227800 0.000000
26.246000 0.000000
26.264200 0.000000
26.282300 0.000000
26.300500 0.000000
26.318700 0.000000
26.336800 0.000000
26.355000 0.000000
26.373200 0.000000
26.391400 0.000000
26.409500 0.000000
26.427700 0.000000
26.445900 0.000000
26.464000 0.000000
26.482200 0.000000
26.500400 0.000000
26.518500 0.000000
26.536700 0.000000
26.554900 0.000000
26.573100 0.000000
26.591200 0.000000
26.609400 0.000000
26.627600 0.000000
26.645700 0.000000
26.663900 0.000000
26.682100 0.000000
26.700200 0.000000
26.718400 0.000000
26.736600 0.000000
26.754700 0.000000
26.772900 0.000000
26.791100 0.000000
26.809300 0.000000
26.827400 0.000000
26.845600 0.000000
26.863800 0.000000
26.881900 0.000000
26.900100 0.000000
26.918300 0.000000
26.936400 0.000000
26.954600 0.000000
26.972800 0.000000
26.991000 0.000000
27.009100 0.000000
27.027300 0.000000
27.045500 0.000000
27.063600 0.000000
27.081800 0.000000
27.100000 0.000000
27.118100 0.000000
27.136300 0.000000
27.154500 0.000000
27.172600 0.000000
27.190800 0.000000
27.209000 0.000000
27.227200 0.000000
27.245300 0.000000
27.263500 0.000000
27.281700 0.000000
27.299800 0.000000
27.318000 0.000000
27.336200 0.000000
27.354300 0.000000
27.372500 0.000000
27.390700 0.000000
27.408900 0.000000
27.427000 0.000000
27.445200 0.000000
27.463400 0.000000
27.481500 0.000000
27.499700 0.000000
27.517900 0.000000
27.536000 0.000000
27.554200 0.000000
27.572400 0.000000
27.590500 0.000000
27.608700 0.000000
e
