set title 'mp-1181027 - Density of States'
set xlabel 'Energy (eV)'
set ylabel 'DOS (states/eV)'
set grid
set xrange [-10:10]
set yrange [0:23.587]
set xzeroaxis lt -1
set terminal png size 800,600
set output 'mp-1181027_dos_gnuplot.png'
plot '-' using 1:2 with lines title 'DOS'
-24.080600 0.000000
-24.043600 0.000000
-24.006600 0.000000
-23.969600 0.000000
-23.932600 0.000000
-23.895600 0.000000
-23.858500 0.000000
-23.821500 0.000000
-23.784500 0.000000
-23.747500 0.000000
-23.710500 0.000000
-23.673500 0.000000
-23.636500 0.000000
-23.599500 0.000000
-23.562400 0.000000
-23.525400 0.000000
-23.488400 0.000000
-23.451400 0.000000
-23.414400 0.000000
-23.377400 0.000000
-23.340400 0.000000
-23.303400 0.000000
-23.266300 0.000000
-23.229300 0.000000
-23.192300 0.000000
-23.155300 0.000000
-23.118300 0.000000
-23.081300 0.000000
-23.044300 0.000000
-23.007300 0.000000
-22.970200 0.000000
-22.933200 0.000000
-22.896200 0.000000
-22.859200 0.000000
-22.822200 0.000000
-22.785200 0.000000
-22.748200 0.000000
-22.711100 0.000000
-22.674100 0.000000
-22.637100 0.000000
-22.600100 0.000000
-22.563100 0.000000
-22.526100 0.000000
-22.489100 0.000000
-22.452100 0.000000
-22.415000 0.000000
-22.378000 0.000000
-22.341000 0.000000
-22.304000 0.000000
-22.267000 0.000000
-22.230000 0.000000
-22.193000 0.000000
-22.156000 0.000000
-22.118900 0.000000
-22.081900 0.000000
-22.044900 0.000000
-22.007900 0.000000
-21.970900 0.000000
-21.933900 0.000000
-21.896900 0.000000
-21.859900 0.000000
-21.822800 0.000000
-21.785800 0.000000
-21.748800 0.000000
-21.711800 0.000000
-21.674800 0.000000
-21.637800 0.000000
-21.600800 0.000000
-21.563800 0.000000
-21.526700 0.000000
-21.489700 0.000000
-21.452700 0.000000
-21.415700 0.000000
-21.378700 0.000000
-21.341700 0.000000
-21.304700 0.000000
-21.267600 0.000000
-21.230600 0.000000
-21.193600 0.000000
-21.156600 0.000000
-21.119600 0.000000
-21.082600 0.000000
-21.045600 0.000000
-21.008600 0.000000
-20.971500 0.000000
-20.934500 0.000000
-20.897500 0.000000
-20.860500 0.000000
-20.823500 0.000000
-20.786500 0.000000
-20.749500 0.000000
-20.712500 0.095100
-20.675400 2.138100
-20.638400 4.169300
-20.601400 9.763000
-20.564400 13.203400
-20.527400 15.260400
-20.490400 0.000000
-20.453400 0.000000
-20.416400 0.000000
-20.379300 0.000000
-20.342300 0.000000
-20.305300 0.000000
-20.268300 0.000000
-20.231300 0.000000
-20.194300 0.000000
-20.157300 0.000000
-20.120300 0.000000
-20.083200 0.000000
-20.046200 0.000000
-20.009200 0.000000
-19.972200 0.000000
-19.935200 0.000000
-19.898200 0.000000
-19.861200 0.000000
-19.824100 0.000000
-19.787100 0.000000
-19.750100 0.000000
-19.713100 0.000000
-19.676100 0.000000
-19.639100 0.000000
-19.602100 0.000000
-19.565100 0.000000
-19.528000 0.000000
-19.491000 0.000000
-19.454000 0.000000
-19.417000 0.000000
-19.380000 0.000000
-19.343000 0.000000
-19.306000 0.000000
-19.269000 0.000000
-19.231900 0.000000
-19.194900 0.000000
-19.157900 0.000000
-19.120900 0.000000
-19.083900 0.000000
-19.046900 0.000000
-19.009900 0.000000
-18.972900 0.000000
-18.935800 0.000000
-18.898800 0.000000
-18.861800 0.000000
-18.824800 0.000000
-18.787800 0.000000
-18.750800 0.000000
-18.713800 0.000000
-18.676700 0.000000
-18.639700 0.000000
-18.602700 0.000000
-18.565700 0.000000
-18.528700 0.000000
-18.491700 0.000000
-18.454700 0.000000
-18.417700 0.000000
-18.380600 0.000000
-18.343600 0.000000
-18.306600 0.000000
-18.269600 0.000000
-18.232600 0.000000
-18.195600 0.000000
-18.158600 0.000000
-18.121600 0.000000
-18.084500 0.000000
-18.047500 0.000000
-18.010500 0.000000
-17.973500 0.000000
-17.936500 0.000000
-17.899500 0.000000
-17.862500 0.000000
-17.825500 0.000000
-17.788400 0.000000
-17.751400 0.000000
-17.714400 0.000000
-17.677400 0.000000
-17.640400 0.000000
-17.603400 0.000000
-17.566400 0.000000
-17.529400 0.000000
-17.492300 0.000000
-17.455300 0.000000
-17.418300 0.000000
-17.381300 0.000000
-17.344300 0.000000
-17.307300 0.000000
-17.270300 0.000000
-17.233200 0.000000
-17.196200 0.000000
-17.159200 0.000000
-17.122200 0.000000
-17.085200 0.000000
-17.048200 0.000000
-17.011200 0.000000
-16.974200 0.000000
-16.937100 0.000000
-16.900100 0.000000
-16.863100 0.000000
-16.826100 0.000000
-16.789100 0.000000
-16.752100 0.000000
-16.715100 0.000000
-16.678100 0.000000
-16.641000 0.000000
-16.604000 0.000000
-16.567000 0.000000
-16.530000 0.000000
-16.493000 0.000000
-16.456000 0.000000
-16.419000 0.000000
-16.382000 0.000000
-16.344900 0.000000
-16.307900 0.000000
-16.270900 0.000000
-16.233900 0.000000
-16.196900 0.000000
-16.159900 0.000000
-16.122900 0.000000
-16.085900 0.000000
-16.048800 0.000000
-16.011800 0.000000
-15.974800 0.000000
-15.937800 0.000000
-15.900800 0.000000
-15.863800 0.000000
-15.826800 0.000000
-15.789700 0.000000
-15.752700 0.000000
-15.715700 0.000000
-15.678700 0.000000
-15.641700 0.000000
-15.604700 0.000000
-15.567700 0.000000
-15.530700 0.000000
-15.493600 0.000000
-15.456600 0.000000
-15.419600 0.000000
-15.382600 0.000000
-15.345600 0.000000
-15.308600 0.000000
-15.271600 0.000000
-15.234600 0.000000
-15.197500 0.000000
-15.160500 0.000000
-15.123500 0.000000
-15.086500 0.000000
-15.049500 0.000000
-15.012500 0.000000
-14.975500 0.000000
-14.938500 0.280500
-14.901400 0.516400
-14.864400 0.765100
-14.827400 0.966200
-14.790400 1.271600
-14.753400 1.617100
-14.716400 2.097600
-14.679400 3.003900
-14.642400 4.161300
-14.605300 4.849200
-14.568300 4.896300
-14.531300 4.278600
-14.494300 4.342500
-14.457300 5.086300
-14.420300 6.787300
-14.383300 3.575700
-14.346200 2.224300
-14.309200 1.473300
-14.272200 0.995400
-14.235200 0.606500
-14.198200 0.106400
-14.161200 0.000000
-14.124200 0.000000
-14.087200 0.000000
-14.050100 0.000000
-14.013100 0.000000
-13.976100 0.000000
-13.939100 0.000000
-13.902100 0.000000
-13.865100 0.000000
-13.828100 0.000000
-13.791100 0.000000
-13.754000 0.000000
-13.717000 0.000000
-13.680000 0.000000
-13.643000 0.000000
-13.606000 0.000000
-13.569000 0.000000
-13.532000 0.000000
-13.495000 0.000000
-13.457900 0.000000
-13.420900 0.000000
-13.383900 0.000000
-13.346900 0.000000
-13.309900 0.000000
-13.272900 0.000000
-13.235900 0.000000
-13.198900 0.000000
-13.161800 0.000000
-13.124800 0.000000
-13.087800 0.000000
-13.050800 0.000000
-13.013800 0.000000
-12.976800 0.000000
-12.939800 0.000000
-12.902700 0.000000
-12.865700 0.000000
-12.828700 0.000000
-12.791700 0.000000
-12.754700 0.000000
-12.717700 0.000000
-12.680700 0.000000
-12.643700 0.000000
-12.606600 0.000000
-12.569600 0.000000
-12.532600 0.000000
-12.495600 0.000000
-12.458600 0.000000
-12.421600 0.000000
-12.384600 0.000000
-12.347600 0.000000
-12.310500 0.000000
-12.273500 0.000000
-12.236500 0.000000
-12.199500 0.000000
-12.162500 0.000000
-12.125500 0.000000
-12.088500 0.000000
-12.051500 0.000000
-12.014400 0.000000
-11.977400 0.000000
-11.940400 0.000000
-11.903400 0.000000
-11.866400 0.000000
-11.829400 0.000000
-11.792400 0.000000
-11.755400 0.000000
-11.718300 0.000000
-11.681300 0.000000
-11.644300 0.000000
-11.607300 0.000000
-11.570300 0.000000
-11.533300 0.000000
-11.496300 0.000000
-11.459200 0.000000
-11.422200 0.000000
-11.385200 0.000000
-11.348200 0.000000
-11.311200 0.000000
-11.274200 0.000000
-11.237200 0.000000
-11.200200 0.000000
-11.163100 0.000000
-11.126100 0.000000
-11.089100 0.000000
-11.052100 0.000000
-11.015100 0.000000
-10.978100 0.000000
-10.941100 0.000000
-10.904100 0.000000
-10.867000 0.000000
-10.830000 0.000000
-10.793000 0.000000
-10.756000 0.000000
-10.719000 0.000000
-10.682000 0.000000
-10.645000 0.000000
-10.608000 0.000000
-10.570900 0.000000
-10.533900 0.000000
-10.496900 0.000000
-10.459900 0.000000
-10.422900 0.000000
-10.385900 0.000000
-10.348900 0.000000
-10.311900 0.000000
-10.274800 0.000000
-10.237800 0.000000
-10.200800 0.000000
-10.163800 0.000000
-10.126800 0.000000
-10.089800 0.000000
-10.052800 0.000000
-10.015700 0.000000
-9.978700 0.000000
-9.941700 0.000000
-9.904700 0.000000
-9.867700 0.000000
-9.830700 0.000000
-9.793700 0.000000
-9.756700 0.000000
-9.719600 0.000000
-9.682600 0.000000
-9.645600 0.000000
-9.608600 0.000000
-9.571600 0.000000
-9.534600 0.000000
-9.497600 0.000000
-9.460600 0.000000
-9.423500 0.000000
-9.386500 0.000000
-9.349500 0.000000
-9.312500 0.000000
-9.275500 0.000000
-9.238500 0.000000
-9.201500 0.000000
-9.164500 0.000000
-9.127400 0.000000
-9.090400 0.000000
-9.053400 0.000000
-9.016400 0.000000
-8.979400 0.000000
-8.942400 0.000000
-8.905400 0.000000
-8.868400 0.000000
-8.831300 0.000000
-8.794300 0.000000
-8.757300 0.000000
-8.720300 0.000000
-8.683300 0.000000
-8.646300 0.000000
-8.609300 0.000000
-8.572200 0.000000
-8.535200 0.000000
-8.498200 0.000000
-8.461200 0.000000
-8.424200 0.000000
-8.387200 0.000000
-8.350200 0.000000
-8.313200 0.000000
-8.276100 0.000000
-8.239100 0.000000
-8.202100 0.000000
-8.165100 0.000000
-8.128100 0.000000
-8.091100 0.000000
-8.054100 0.000000
-8.017100 0.000000
-7.980000 0.000000
-7.943000 0.000000
-7.906000 0.000000
-7.869000 0.000000
-7.832000 0.000000
-7.795000 0.000000
-7.758000 0.000000
-7.721000 0.000000
-7.683900 0.000000
-7.646900 0.000000
-7.609900 0.000000
-7.572900 0.000000
-7.535900 0.000000
-7.498900 0.000000
-7.461900 0.000000
-7.424900 0.000000
-7.387800 0.000000
-7.350800 0.000000
-7.313800 0.004300
-7.276800 0.103600
-7.239800 0.201800
-7.202800 0.282300
-7.165800 0.376000
-7.128700 0.450400
-7.091700 0.550700
-7.054700 0.687300
-7.017700 0.883000
-6.980700 1.218900
-6.943700 1.873800
-6.906700 2.059000
-6.869700 2.358900
-6.832600 4.226200
-6.795600 3.068200
-6.758600 2.568600
-6.721600 2.406500
-6.684600 2.377000
-6.647600 2.607300
-6.610600 3.241800
-6.573600 4.074700
-6.536500 5.146500
-6.499500 7.418500
-6.462500 5.307800
-6.425500 1.094000
-6.388500 0.305200
-6.351500 0.058900
-6.314500 0.002500
-6.277500 0.001500
-6.240400 0.022000
-6.203400 0.111400
-6.166400 0.314300
-6.129400 0.507600
-6.092400 0.861200
-6.055400 2.162300
-6.018400 4.260600
-5.981300 5.279500
-5.944300 4.993900
-5.907300 4.170700
-5.870300 3.300900
-5.833300 2.734800
-5.796300 2.580000
-5.759300 2.606400
-5.722300 3.107600
-5.685200 3.646200
-5.648200 3.944700
-5.611200 4.776200
-5.574200 5.302800
-5.537200 6.372000
-5.500200 6.320300
-5.463200 6.163300
-5.426200 5.409200
-5.389100 4.788100
-5.352100 4.366000
-5.315100 4.207100
-5.278100 3.660600
-5.241100 2.940900
-5.204100 2.624600
-5.167100 2.331200
-5.130100 2.012500
-5.093000 2.004400
-5.056000 1.459900
-5.019000 1.281700
-4.982000 3.406900
-4.945000 6.894400
-4.908000 12.835400
-4.871000 16.928700
-4.834000 15.218300
-4.796900 9.502400
-4.759900 13.324700
-4.722900 21.442300
-4.685900 4.008500
-4.648900 3.937000
-4.611900 4.951100
-4.574900 3.055200
-4.537800 3.248600
-4.500800 3.504900
-4.463800 3.617300
-4.426800 3.625900
-4.389800 3.556900
-4.352800 3.690500
-4.315800 3.633900
-4.278800 3.664500
-4.241700 3.468500
-4.204700 2.975300
-4.167700 2.632900
-4.130700 2.146900
-4.093700 1.885100
-4.056700 1.620300
-4.019700 1.508000
-3.982700 1.431800
-3.945600 1.407100
-3.908600 1.395000
-3.871600 1.523000
-3.834600 1.683800
-3.797600 2.280500
-3.760600 3.008800
-3.723600 4.525600
-3.686600 4.222200
-3.649500 3.663600
-3.612500 3.359500
-3.575500 2.709200
-3.538500 2.316300
-3.501500 2.064100
-3.464500 1.925200
-3.427500 1.773400
-3.390500 1.680700
-3.353400 1.739900
-3.316400 1.981700
-3.279400 2.103000
-3.242400 2.549600
-3.205400 2.587000
-3.168400 2.397900
-3.131400 2.268200
-3.094300 2.263900
-3.057300 2.262600
-3.020300 2.214900
-2.983300 2.142300
-2.946300 2.134900
-2.909300 2.206900
-2.872300 2.149200
-2.835300 2.149100
-2.798200 2.194000
-2.761200 2.288900
-2.724200 2.341800
-2.687200 2.314800
-2.650200 2.355200
-2.613200 2.186500
-2.576200 2.095200
-2.539200 2.081700
-2.502100 2.003200
-2.465100 1.859000
-2.428100 1.579900
-2.391100 1.405400
-2.354100 1.291700
-2.317100 1.138700
-2.280100 1.138100
-2.243100 1.071700
-2.206000 0.770300
-2.169000 0.640600
-2.132000 0.560900
-2.095000 0.494500
-2.058000 0.431800
-2.021000 0.377800
-1.984000 0.336400
-1.947000 0.296100
-1.909900 0.251300
-1.872900 0.211700
-1.835900 0.174200
-1.798900 0.299500
-1.761900 0.715700
-1.724900 0.947900
-1.687900 1.109800
-1.650800 1.109000
-1.613800 1.083600
-1.576800 1.059700
-1.539800 1.059000
-1.502800 1.080300
-1.465800 1.089200
-1.428800 1.089600
-1.391800 1.079200
-1.354700 1.080200
-1.317700 1.087100
-1.280700 1.095600
-1.243700 1.104100
-1.206700 1.111700
-1.169700 1.122100
-1.132700 1.132200
-1.095700 1.142900
-1.058600 1.156100
-1.021600 1.170800
-0.984600 1.187200
-0.947600 1.206300
-0.910600 1.232200
-0.873600 1.265600
-0.836600 1.306900
-0.799600 1.349200
-0.762500 1.398200
-0.725500 1.503000
-0.688500 1.688400
-0.651500 1.957800
-0.614500 1.814200
-0.577500 1.576300
-0.540500 1.469100
-0.503500 1.332800
-0.466400 1.297500
-0.429400 1.281500
-0.392400 1.271800
-0.355400 1.227500
-0.318400 0.998900
-0.281400 0.943000
-0.244400 0.952200
-0.207300 0.952000
-0.170300 0.954900
-0.133300 1.053600
-0.096300 1.311500
-0.059300 1.423100
-0.022300 1.466400
0.014700 1.432100
0.051700 1.423000
0.088800 1.367600
0.125800 1.283000
0.162800 1.357400
0.199800 1.482700
0.236800 1.609000
0.273800 1.732900
0.310800 1.795200
0.347800 1.876900
0.384900 1.990300
0.421900 2.475800
0.458900 2.593600
0.495900 2.590800
0.532900 2.612100
0.569900 2.658900
0.606900 2.721100
0.643900 2.585800
0.681000 2.304300
0.718000 2.108300
0.755000 1.957900
0.792000 1.676200
0.829000 1.289100
0.866000 0.947400
0.903000 0.701600
0.940000 0.622800
0.977100 0.565600
1.014100 0.506400
1.051100 0.429400
1.088100 0.365800
1.125100 0.319400
1.162100 0.248900
1.199100 0.145000
1.236200 0.000000
1.273200 0.000000
1.310200 0.027900
1.347200 0.090700
1.384200 0.146100
1.421200 0.165100
1.458200 0.166900
1.495200 0.178000
1.532300 0.195300
1.569300 0.216300
1.606300 0.237800
1.643300 0.255000
1.680300 0.274300
1.717300 0.284500
1.754300 0.298000
1.791300 0.315200
1.828400 0.333300
1.865400 0.354600
1.902400 0.376300
1.939400 0.400000
1.976400 0.423600
2.013400 0.449700
2.050400 0.475400
2.087400 0.505500
2.124500 0.547800
2.161500 0.605800
2.198500 0.662300
2.235500 0.654200
2.272500 0.654500
2.309500 0.658400
2.346500 0.655500
2.383500 0.667700
2.420600 0.679300
2.457600 0.688100
2.494600 0.690600
2.531600 0.698100
2.568600 0.709300
2.605600 0.721100
2.642600 0.732300
2.679700 0.744500
2.716700 0.755900
2.753700 0.768900
2.790700 0.787800
2.827700 0.808200
2.864700 0.829500
2.901700 0.851400
2.938700 0.873400
2.975800 0.895200
3.012800 0.919300
3.049800 0.969200
3.086800 1.037300
3.123800 1.111700
3.160800 1.134800
3.197800 1.137200
3.234800 1.145500
3.271900 1.152600
3.308900 1.153400
3.345900 1.160600
3.382900 1.164500
3.419900 1.169500
3.456900 1.173400
3.493900 1.150400
3.530900 1.135300
3.568000 1.124500
3.605000 1.112800
3.642000 1.088800
3.679000 1.065200
3.716000 1.034900
3.753000 0.960100
3.790000 0.947100
3.827000 0.910600
3.864100 0.966900
3.901100 0.916200
3.938100 0.887500
3.975100 0.948200
4.012100 0.949700
4.049100 0.740900
4.086100 0.437700
4.123200 0.340300
4.160200 0.415700
4.197200 0.416500
4.234200 0.408800
4.271200 0.505400
4.308200 0.570900
4.345200 0.671300
4.382200 0.800400
4.419300 0.908900
4.456300 0.981500
4.493300 1.034700
4.530300 1.085800
4.567300 1.117700
4.604300 1.128000
4.641300 1.164100
4.678300 1.194900
4.715400 1.219400
4.752400 1.246500
4.789400 1.283100
4.826400 1.325400
4.863400 1.368900
4.900400 1.428000
4.937400 1.476100
4.974400 1.523800
5.011500 1.592700
5.048500 1.675900
5.085500 1.780300
5.122500 1.968500
5.159500 2.109400
5.196500 2.121500
5.233500 1.819000
5.270500 1.769300
5.307600 1.720700
5.344600 1.620700
5.381600 1.548200
5.418600 1.488400
5.455600 1.454900
5.492600 1.437700
5.529600 1.347300
5.566700 1.192800
5.603700 1.052100
5.640700 1.021900
5.677700 0.911100
5.714700 0.601100
5.751700 0.224100
5.788700 0.199000
5.825700 0.263800
5.862800 0.320600
5.899800 0.363300
5.936800 0.405500
5.973800 0.462600
6.010800 0.503500
6.047800 0.542000
6.084800 0.606200
6.121800 0.670500
6.158900 0.721300
6.195900 0.577800
6.232900 0.393700
6.269900 0.386900
6.306900 0.394000
6.343900 0.406700
6.380900 0.421500
6.417900 0.439000
6.455000 0.459100
6.492000 0.483100
6.529000 0.517600
6.566000 0.574300
6.603000 0.634100
6.640000 0.688700
6.677000 0.744200
6.714100 0.790800
6.751100 0.814500
6.788100 0.850800
6.825100 0.843900
6.862100 0.868000
6.899100 0.927700
6.936100 0.926700
6.973100 0.930300
7.010200 0.936300
7.047200 0.944600
7.084200 0.960300
7.121200 0.966000
7.158200 0.989200
7.195200 1.010100
7.232200 1.024400
7.269200 1.034000
7.306300 1.037100
7.343300 1.084600
7.380300 0.968600
7.417300 0.946900
7.454300 0.924500
7.491300 0.903800
7.528300 0.878900
7.565300 0.862100
7.602400 0.870100
7.639400 0.875200
7.676400 0.833700
7.713400 0.825700
7.750400 0.847400
7.787400 0.834700
7.824400 0.919500
7.861400 1.035700
7.898500 1.077000
7.935500 1.106200
7.972500 1.159700
8.009500 1.238000
8.046500 1.285700
8.083500 1.297600
8.120500 1.278100
8.157600 1.216400
8.194600 1.197300
8.231600 1.228600
8.268600 1.260600
8.305600 1.295900
8.342600 1.348200
8.379600 1.502800
8.416600 1.443500
8.453700 1.427300
8.490700 1.429300
8.527700 1.441700
8.564700 1.478000
8.601700 1.543300
8.638700 1.612800
8.675700 1.738500
8.712700 1.755500
8.749800 1.694800
8.786800 1.648800
8.823800 1.655600
8.860800 1.713200
8.897800 1.760500
8.934800 1.678700
8.971800 1.519400
9.008800 1.402300
9.045900 1.327200
9.082900 1.273300
9.119900 1.203600
9.156900 1.155300
9.193900 1.122700
9.230900 1.094900
9.267900 1.083300
9.304900 1.090800
9.342000 1.111100
9.379000 1.019400
9.416000 0.784400
9.453000 0.727500
9.490000 0.809600
9.527000 0.768000
9.564000 0.767600
9.601100 0.787300
9.638100 0.786000
9.675100 0.743100
9.712100 0.714900
9.749100 0.700300
9.786100 0.701100
9.823100 0.707800
9.860100 0.722100
9.897200 0.741500
9.934200 0.733900
9.971200 0.706500
10.008200 0.655200
10.045200 0.623500
10.082200 0.594000
10.119200 0.584900
10.156200 0.575300
10.193300 0.569500
10.230300 0.563400
10.267300 0.549000
10.304300 0.509800
10.341300 0.486600
10.378300 0.479000
10.415300 0.486800
10.452300 0.497300
10.489400 0.526800
10.526400 0.550700
10.563400 0.571700
10.600400 0.592600
10.637400 0.614500
10.674400 0.637200
10.711400 0.665200
10.748400 0.696400
10.785500 0.751700
10.822500 0.830100
10.859500 0.872800
10.896500 0.887300
10.933500 0.896500
10.970500 0.884200
11.007500 0.877400
11.044600 0.876600
11.081600 0.883800
11.118600 0.884500
11.155600 0.882300
11.192600 0.881000
11.229600 0.880600
11.266600 0.887400
11.303600 0.899900
11.340700 0.919000
11.377700 0.943100
11.414700 0.951400
11.451700 0.956000
11.488700 0.964100
11.525700 0.967200
11.562700 0.963800
11.599700 0.963900
11.636800 0.961700
11.673800 0.966300
11.710800 0.973900
11.747800 0.982000
11.784800 0.993800
11.821800 1.010400
11.858800 1.013500
11.895800 0.998800
11.932900 0.991800
11.969900 0.998300
12.006900 1.016300
12.043900 1.017800
12.080900 1.017300
12.117900 1.024700
12.154900 1.023600
12.191900 1.029100
12.229000 1.037500
12.266000 1.030000
12.303000 0.982100
12.340000 0.955500
12.377000 0.940400
12.414000 0.902800
12.451000 0.836600
12.488100 0.813900
12.525100 0.811200
12.562100 0.801000
12.599100 0.804100
12.636100 0.823800
12.673100 0.866100
12.710100 0.906300
12.747100 0.985300
12.784200 1.052500
12.821200 1.192900
12.858200 1.210700
12.895200 1.312600
12.932200 1.473400
12.969200 1.485800
13.006200 1.444900
13.043200 1.434100
13.080300 1.416300
13.117300 1.392300
13.154300 1.340900
13.191300 1.306300
13.228300 1.262000
13.265300 1.218500
13.302300 1.164100
13.339300 1.083500
13.376400 1.011400
13.413400 0.964400
13.450400 0.907300
13.487400 0.830300
13.524400 0.769600
13.561400 0.711600
13.598400 0.668000
13.635400 0.639500
13.672500 0.616100
13.709500 0.589300
13.746500 0.578500
13.783500 0.583100
13.820500 0.589000
13.857500 0.602000
13.894500 0.618100
13.931600 0.639800
13.968600 0.675600
14.005600 0.723700
14.042600 0.763400
14.079600 0.754600
14.116600 0.768500
14.153600 0.763200
14.190600 0.780200
14.227700 0.806700
14.264700 0.828100
14.301700 0.857600
14.338700 0.895600
14.375700 0.933500
14.412700 0.962000
14.449700 0.992100
14.486700 1.015200
14.523800 1.042900
14.560800 1.009000
14.597800 1.009100
14.634800 1.013600
14.671800 1.027700
14.708800 1.036600
14.745800 1.049300
14.782800 1.058200
14.819900 1.054000
14.856900 1.051100
14.893900 1.043600
14.930900 1.044900
14.967900 1.061400
15.004900 1.069100
15.041900 1.080400
15.078900 1.096000
15.116000 1.117900
15.153000 1.137100
15.190000 1.165400
15.227000 1.194000
15.264000 1.207100
15.301000 1.222800
15.338000 1.234900
15.375100 1.228700
15.412100 1.235100
15.449100 1.237000
15.486100 1.248900
15.523100 1.241600
15.560100 1.251000
15.597100 1.234700
15.634100 1.257900
15.671200 1.301400
15.708200 1.285400
15.745200 1.308400
15.782200 1.316300
15.819200 1.288600
15.856200 1.254500
15.893200 1.244700
15.930200 1.246400
15.967300 1.252700
16.004300 1.264800
16.041300 1.279700
16.078300 1.286600
16.115300 1.290000
16.152300 1.295200
16.189300 1.300400
16.226300 1.311100
16.263400 1.296600
16.300400 1.284300
16.337400 1.315200
16.374400 1.307900
16.411400 1.275500
16.448400 1.247900
16.485400 1.224900
16.522400 1.228200
16.559500 1.223300
16.596500 1.217700
16.633500 1.220500
16.670500 1.228400
16.707500 1.229300
16.744500 1.230900
16.781500 1.226500
16.818600 1.220100
16.855600 1.220900
16.892600 1.232700
16.929600 1.210500
16.966600 1.203900
17.003600 1.197000
17.040600 1.194600
17.077600 1.198700
17.114700 1.200700
17.151700 1.164100
17.188700 1.133700
17.225700 1.149000
17.262700 1.177400
17.299700 1.204000
17.336700 1.234000
17.373700 1.285900
17.410800 1.372400
17.447800 1.464200
17.484800 1.400900
17.521800 1.381300
17.558800 1.364300
17.595800 1.387200
17.632800 1.417100
17.669800 1.411200
17.706900 1.485300
17.743900 1.517800
17.780900 1.507300
17.817900 1.468500
17.854900 1.413700
17.891900 1.391300
17.928900 1.372200
17.965900 1.380900
18.003000 1.408400
18.040000 1.388700
18.077000 1.363300
18.114000 1.352700
18.151000 1.359300
18.188000 1.378700
18.225000 1.394500
18.262100 1.426500
18.299100 1.451700
18.336100 1.452700
18.373100 1.455700
18.410100 1.478500
18.447100 1.515400
18.484100 1.495400
18.521100 1.488900
18.558200 1.484700
18.595200 1.460100
18.632200 1.427800
18.669200 1.416500
18.706200 1.416300
18.743200 1.442100
18.780200 1.540100
18.817200 1.682700
18.854300 1.776100
18.891300 1.791200
18.928300 1.771800
18.965300 1.674500
19.002300 1.589300
19.039300 1.530500
19.076300 1.483300
19.113300 1.456900
19.150400 1.437300
19.187400 1.438400
19.224400 1.476600
19.261400 1.536400
19.298400 1.600200
19.335400 1.649200
19.372400 1.658000
19.409500 1.656500
19.446500 1.693300
19.483500 1.692300
19.520500 1.678200
19.557500 1.634100
19.594500 1.613300
19.631500 1.636700
19.668500 1.690300
19.705600 1.733800
19.742600 1.769300
19.779600 1.815700
19.816600 1.797500
19.853600 1.798600
19.890600 1.779800
19.927600 1.666400
19.964600 1.541300
20.001700 1.445700
20.038700 1.384600
20.075700 1.332100
20.112700 1.268600
20.149700 1.213800
20.186700 1.176000
20.223700 1.148000
20.260700 1.143000
20.297800 1.164700
20.334800 1.203100
20.371800 1.214500
20.408800 1.294100
20.445800 1.299600
20.482800 1.386400
20.519800 1.464000
20.556800 1.541600
20.593900 1.584300
20.630900 1.661000
20.667900 1.648300
20.704900 1.599200
20.741900 1.556700
20.778900 1.558400
20.815900 1.547400
20.853000 1.704800
20.890000 1.543400
20.927000 1.564200
20.964000 1.602000
21.001000 1.759900
21.038000 1.770700
21.075000 1.762600
21.112000 1.774400
21.149100 1.784100
21.186100 1.789200
21.223100 1.794200
21.260100 1.791500
21.297100 1.831600
21.334100 1.847300
21.371100 1.785600
21.408100 1.734500
21.445200 1.693400
21.482200 1.639200
21.519200 1.619500
21.556200 1.604400
21.593200 1.564000
21.630200 1.503900
21.667200 1.438500
21.704200 1.395800
21.741300 1.349600
21.778300 1.323500
21.815300 1.297800
21.852300 1.279000
21.889300 1.264100
21.926300 1.284300
21.963300 1.287100
22.000300 1.294200
22.037400 1.360900
22.074400 1.424200
22.111400 1.499300
22.148400 1.526900
22.185400 1.534400
22.222400 1.513600
22.259400 1.483600
22.296500 1.473600
22.333500 1.471900
22.370500 1.485500
22.407500 1.503900
22.444500 1.516400
22.481500 1.511400
22.518500 1.490200
22.555500 1.500400
22.592600 1.490200
22.629600 1.484300
22.666600 1.484300
22.703600 1.529900
22.740600 1.628700
22.777600 1.759900
22.814600 1.864100
22.851600 1.986800
22.888700 2.104600
22.925700 2.142100
22.962700 2.240700
22.999700 2.181600
23.036700 2.121900
23.073700 2.084000
23.110700 1.935400
23.147700 1.828600
23.184800 1.708200
23.221800 1.644900
23.258800 1.610900
23.295800 1.533500
23.332800 1.567400
23.369800 1.637500
23.406800 1.687500
23.443800 1.753600
23.480900 1.799400
23.517900 1.876400
23.554900 1.879200
23.591900 1.932100
23.628900 2.014600
23.665900 2.100300
23.702900 2.172200
23.740000 2.216500
23.777000 2.364700
23.814000 2.521100
23.851000 2.795500
23.888000 2.767800
23.925000 2.641000
23.962000 2.562500
23.999000 2.527900
24.036100 2.532000
24.073100 2.492200
24.110100 2.376400
24.147100 2.345900
24.184100 2.313600
24.221100 2.258800
24.258100 2.140000
24.295100 2.053000
24.332200 1.993900
24.369200 1.904400
24.406200 1.796400
24.443200 1.748900
24.480200 1.716100
24.517200 1.642900
24.554200 1.605800
24.591200 1.609100
24.628300 1.633200
24.665300 1.621800
24.702300 1.656400
24.739300 1.721100
24.776300 1.747800
24.813300 1.764800
24.850300 1.780800
24.887300 1.820500
24.924400 1.834100
24.961400 1.884300
24.998400 1.949700
25.035400 2.023200
25.072400 2.040500
25.109400 1.928200
25.146400 1.891700
25.183500 1.845400
25.220500 1.844500
25.257500 1.848800
25.294500 1.826500
25.331500 1.820800
25.368500 1.847300
25.405500 1.888600
25.442500 1.931900
25.479600 2.041100
25.516600 2.191400
25.553600 2.182400
25.590600 2.223800
25.627600 2.239100
25.664600 2.156800
25.701600 2.181000
25.738600 2.244300
25.775700 2.310200
25.812700 2.379200
25.849700 2.389800
25.886700 2.418500
25.923700 2.422800
25.960700 2.465800
25.997700 2.514900
26.034700 2.592600
26.071800 2.535700
26.108800 2.262000
26.145800 2.102200
26.182800 2.010000
26.219800 1.949200
26.256800 1.931000
26.293800 1.914600
26.330800 1.895600
26.367900 1.891000
26.404900 1.781000
26.441900 1.740100
26.478900 1.724500
26.515900 1.721500
26.552900 1.721500
26.589900 1.707800
26.627000 1.684600
26.664000 1.729300
26.701000 1.794700
26.738000 1.846300
26.775000 1.899400
26.812000 1.998100
26.849000 2.029600
26.886000 2.144600
26.923100 2.141000
26.960100 2.141300
26.997100 2.201300
27.034100 2.162000
27.071100 2.107700
27.108100 2.067800
27.145100 2.048900
27.182100 2.001500
27.219200 1.926700
27.256200 1.918300
27.293200 1.916300
27.330200 1.808900
27.367200 1.805900
27.404200 1.901500
27.441200 1.996300
27.478200 2.016100
27.515300 1.981000
27.552300 1.980400
27.589300 2.018300
27.626300 2.107600
27.663300 2.216800
27.700300 2.285600
27.737300 2.360600
27.774300 2.382900
27.811400 2.384900
27.848400 2.315100
27.885400 2.342700
27.922400 2.060400
27.959400 1.938600
27.996400 1.900700
28.033400 1.891300
28.070500 1.927100
28.107500 1.898500
28.144500 1.942500
28.181500 2.010800
28.218500 2.175600
28.255500 2.158600
28.292500 2.074900
28.329500 2.116500
28.366600 2.120700
28.403600 2.061800
28.440600 2.011400
28.477600 1.998600
28.514600 1.961700
28.551600 1.933600
28.588600 1.875600
28.625600 1.851500
28.662700 1.889300
28.699700 1.911300
28.736700 1.890100
28.773700 1.977900
28.810700 2.067300
28.847700 2.136500
28.884700 2.236500
28.921700 2.333800
28.958800 2.502200
28.995800 2.549000
29.032800 2.551500
29.069800 2.613900
29.106800 2.589400
29.143800 2.455300
29.180800 2.271800
29.217800 2.170100
29.254900 2.046500
29.291900 2.029900
29.328900 2.030900
29.365900 1.999600
29.402900 1.953700
29.439900 1.910000
29.476900 1.880800
29.514000 1.854600
29.551000 1.827800
29.588000 1.877500
29.625000 1.961600
29.662000 2.122900
29.699000 2.273600
29.736000 2.256300
29.773000 2.263700
29.810100 2.249500
29.847100 2.103400
29.884100 1.972300
29.921100 1.921900
29.958100 1.887500
29.995100 1.860400
30.032100 1.913400
30.069100 1.895100
30.106200 1.912800
30.143200 1.962600
30.180200 2.025200
30.217200 2.069100
30.254200 2.071900
30.291200 2.090200
30.328200 2.122000
30.365200 2.078800
30.402300 2.021700
30.439300 1.941900
30.476300 1.878300
30.513300 1.831900
30.550300 1.794800
30.587300 1.775300
30.624300 1.769300
30.661400 1.787200
30.698400 1.818400
30.735400 1.838800
30.772400 1.866700
30.809400 1.883000
30.846400 1.872600
30.883400 1.873200
30.920400 1.834200
30.957500 1.797600
30.994500 1.797000
31.031500 1.816300
31.068500 1.824000
31.105500 1.845400
31.142500 1.885300
31.179500 1.939000
31.216500 1.941900
31.253600 1.962700
31.290600 1.973900
31.327600 1.994700
31.364600 2.010100
31.401600 2.066600
31.438600 2.039100
31.475600 1.954100
31.512600 1.893600
31.549700 1.821200
31.586700 1.788700
31.623700 1.791700
31.660700 1.789600
31.697700 1.726700
31.734700 1.676400
31.771700 1.624500
31.808700 1.531200
31.845800 1.511600
31.882800 1.518300
31.919800 1.545700
31.956800 1.583400
31.993800 1.640200
32.030800 1.675800
32.067800 1.697200
32.104900 1.746500
32.141900 1.797200
32.178900 1.799000
32.215900 1.766300
32.252900 1.768900
32.289900 1.785800
32.326900 1.841400
32.363900 1.903100
32.401000 1.974700
32.438000 2.068800
32.475000 2.137500
32.512000 2.136700
32.549000 2.127200
32.586000 2.136000
32.623000 2.096500
32.660000 2.085100
32.697100 2.120600
32.734100 2.163300
32.771100 2.173600
32.808100 2.167400
32.845100 2.145800
32.882100 2.085400
32.919100 2.063400
32.956100 2.059200
32.993200 2.036200
33.030200 1.966700
33.067200 1.911600
33.104200 1.929100
33.141200 1.945400
33.178200 1.799100
33.215200 1.760500
33.252200 1.805400
33.289300 1.850800
33.326300 1.895300
33.363300 1.889900
33.400300 1.810900
33.437300 1.772500
33.474300 1.786500
33.511300 1.784300
33.548400 1.777100
33.585400 1.762100
33.622400 1.781700
33.659400 1.806300
33.696400 1.847500
33.733400 1.832400
33.770400 1.880000
33.807400 1.929700
33.844500 2.000600
33.881500 2.095600
33.918500 2.201500
33.955500 2.119800
33.992500 2.103200
34.029500 2.071500
34.066500 2.006000
34.103500 1.954200
34.140600 1.932000
34.177600 1.976000
34.214600 1.968600
34.251600 1.985500
34.288600 2.043300
34.325600 2.019200
34.362600 2.001600
34.399600 1.998400
34.436700 1.992100
34.473700 2.022800
34.510700 2.023900
34.547700 2.056700
34.584700 2.041400
34.621700 1.970300
34.658700 1.962200
34.695700 1.977300
34.732800 1.976400
34.769800 1.976100
34.806800 2.015100
34.843800 2.068200
34.880800 2.147300
34.917800 2.165400
34.954800 2.161700
34.991900 2.177700
35.028900 2.183200
35.065900 2.142100
35.102900 2.135900
35.139900 2.117400
35.176900 2.065600
35.213900 2.049500
35.250900 2.061300
35.288000 2.085700
35.325000 2.151400
35.362000 2.186100
35.399000 2.169600
35.436000 2.119600
35.473000 2.085300
35.510000 2.129500
35.547000 2.135700
35.584100 2.213100
35.621100 2.331400
35.658100 2.402500
35.695100 2.333200
35.732100 2.230500
35.769100 2.180600
35.806100 2.083200
35.843100 2.074200
35.880200 2.037100
35.917200 2.031000
35.954200 2.043100
35.991200 2.129100
36.028200 2.293600
36.065200 2.136500
36.102200 2.132600
36.139200 2.135400
36.176300 2.158900
36.213300 2.175500
36.250300 2.202000
36.287300 2.212100
36.324300 2.109900
36.361300 2.048100
36.398300 2.006900
36.435400 2.006300
36.472400 2.019400
36.509400 2.065500
36.546400 2.073700
36.583400 2.103200
36.620400 2.093700
36.657400 2.092500
36.694400 2.118100
36.731500 2.155000
36.768500 2.190800
36.805500 2.225100
36.842500 2.267300
36.879500 2.236700
36.916500 2.172400
36.953500 2.153500
36.990500 2.133000
37.027600 2.145100
37.064600 2.102400
37.101600 2.114700
37.138600 2.150900
37.175600 2.251700
37.212600 2.371700
37.249600 2.332900
37.286600 2.245600
37.323700 2.219500
37.360700 2.216700
37.397700 2.191000
37.434700 2.128600
37.471700 2.080900
37.508700 2.075100
37.545700 2.065100
37.582700 2.064000
37.619800 2.042100
37.656800 2.089400
37.693800 2.127400
37.730800 2.150200
37.767800 2.115400
37.804800 2.059900
37.841800 2.045000
37.878900 2.043300
37.915900 2.044800
37.952900 1.983800
37.989900 1.980300
38.026900 1.980000
38.063900 1.996500
38.100900 2.007500
38.137900 2.039700
38.175000 2.037600
38.212000 2.092900
38.249000 2.179300
38.286000 2.197000
38.323000 2.109900
38.360000 2.081200
38.397000 2.068400
38.434000 2.056400
38.471100 2.040500
38.508100 2.018300
38.545100 2.021700
38.582100 2.021700
38.619100 2.045900
38.656100 2.099300
38.693100 2.131900
38.730100 2.185200
38.767200 2.225100
38.804200 2.203500
38.841200 2.211700
38.878200 2.242400
38.915200 2.207300
38.952200 2.218400
38.989200 2.248900
39.026200 2.221800
39.063300 2.154400
39.100300 2.088900
39.137300 1.986600
39.174300 1.973400
39.211300 1.964200
39.248300 1.924200
39.285300 1.934300
39.322400 1.960600
39.359400 1.975500
39.396400 1.996100
39.433400 2.000200
39.470400 2.007600
39.507400 2.061200
39.544400 2.067900
39.581400 2.094700
39.618500 2.159500
39.655500 2.140700
39.692500 2.177200
39.729500 2.177600
39.766500 2.181400
39.803500 2.148700
39.840500 2.135500
39.877500 2.150300
39.914600 2.180700
39.951600 2.184500
39.988600 2.196400
40.025600 2.181500
40.062600 2.156700
40.099600 2.156900
40.136600 2.192400
40.173600 2.166400
40.210700 2.103000
40.247700 2.126700
40.284700 2.179900
40.321700 2.189700
40.358700 2.197400
40.395700 2.133300
40.432700 2.113900
40.469700 2.112200
40.506800 2.100000
40.543800 2.081500
40.580800 2.021300
40.617800 1.975400
40.654800 1.939200
40.691800 1.973400
40.728800 1.968100
40.765900 1.986800
40.802900 2.045600
40.839900 2.055000
40.876900 2.060400
40.913900 2.090300
40.950900 2.124900
40.987900 2.148200
41.024900 2.181400
41.062000 2.206100
41.099000 2.229700
41.136000 2.252300
41.173000 2.293500
41.210000 2.346600
41.247000 2.415700
41.284000 2.492900
41.321000 2.530200
41.358100 2.509000
41.395100 2.435300
41.432100 2.392700
41.469100 2.381500
41.506100 2.387300
41.543100 2.414800
41.580100 2.482200
41.617100 2.495100
41.654200 2.488700
41.691200 2.447000
41.728200 2.386400
41.765200 2.348100
41.802200 2.362900
41.839200 2.406600
41.876200 2.499200
41.913200 2.627400
41.950300 2.578200
41.987300 2.581500
42.024300 2.581700
42.061300 2.612200
42.098300 2.713600
42.135300 2.704000
42.172300 2.654700
42.209400 2.606100
42.246400 2.611800
42.283400 2.572600
42.320400 2.526100
42.357400 2.536400
42.394400 2.531200
42.431400 2.446100
42.468400 2.375300
42.505500 2.398400
42.542500 2.405500
42.579500 2.376200
42.616500 2.404200
42.653500 2.346000
42.690500 2.308800
42.727500 2.357000
42.764500 2.388100
42.801600 2.538400
42.838600 2.661800
42.875600 2.713500
42.912600 2.760100
42.949600 2.764800
42.986600 2.738800
43.023600 2.629000
43.060600 2.540200
43.097700 2.487600
43.134700 2.370700
43.171700 2.289700
43.208700 2.265200
43.245700 2.242900
43.282700 2.223600
43.319700 2.258500
43.356800 2.313100
43.393800 2.383900
43.430800 2.397600
43.467800 2.409700
43.504800 2.375400
43.541800 2.387300
43.578800 2.411400
43.615800 2.375600
43.652900 2.335200
43.689900 2.291500
43.726900 2.265400
43.763900 2.279300
43.800900 2.294300
43.837900 2.278500
43.874900 2.266400
43.911900 2.254500
43.949000 2.248700
43.986000 2.193200
44.023000 2.177800
44.060000 2.178900
44.097000 2.195000
44.134000 2.215600
44.171000 2.246800
44.208000 2.275700
44.245100 2.339200
44.282100 2.435200
44.319100 2.462400
44.356100 2.467700
44.393100 2.441400
44.430100 2.399600
44.467100 2.338900
44.504100 2.285700
44.541200 2.244800
44.578200 2.212300
44.615200 2.197100
44.652200 2.181600
44.689200 2.152700
44.726200 2.108700
44.763200 2.082000
44.800300 2.049200
44.837300 2.057700
44.874300 2.101300
44.911300 2.077500
44.948300 2.080200
44.985300 2.073200
45.022300 2.033500
45.059300 2.040500
45.096400 2.086900
45.133400 2.090100
45.170400 2.087200
45.207400 2.080500
45.244400 2.112000
45.281400 2.054300
45.318400 2.105200
45.355400 2.058000
45.392500 2.007500
45.429500 1.945000
45.466500 1.941500
45.503500 1.956900
45.540500 1.862400
45.577500 1.664800
45.614500 1.564800
45.651500 1.456600
45.688600 1.330800
45.725600 1.264500
45.762600 1.212200
45.799600 1.205800
45.836600 1.169300
45.873600 1.097700
45.910600 0.933000
45.947600 0.787000
45.984700 0.688500
46.021700 0.601000
46.058700 0.518500
46.095700 0.442500
46.132700 0.363000
46.169700 0.284000
46.206700 0.231200
46.243800 0.179600
46.280800 0.140700
46.317800 0.111600
46.354800 0.089000
46.391800 0.066800
46.428800 0.052100
46.465800 0.038300
46.502800 0.018700
46.539900 0.006500
46.576900 0.000000
46.613900 0.000000
46.650900 0.000000
46.687900 0.000000
46.724900 0.000000
46.761900 0.000000
46.798900 0.000000
46.836000 0.000000
46.873000 0.000000
46.910000 0.000000
46.947000 0.000000
46.984000 0.000000
47.021000 0.000000
47.058000 0.000000
47.095000 0.000000
47.132100 0.000000
47.169100 0.000000
47.206100 0.000000
47.243100 0.000000
47.280100 0.000000
47.317100 0.000000
47.354100 0.000000
47.391100 0.000000
47.428200 0.000000
47.465200 0.000000
47.502200 0.000000
47.539200 0.000000
47.576200 0.000000
47.613200 0.000000
47.650200 0.000000
47.687300 0.000000
47.724300 0.000000
47.761300 0.000000
47.798300 0.000000
47.835300 0.000000
47.872300 0.000000
47.909300 0.000000
47.946300 0.000000
47.983400 0.000000
48.020400 0.000000
48.057400 0.000000
48.094400 0.000000
48.131400 0.000000
48.168400 0.000000
48.205400 0.000000
48.242400 0.000000
48.279500 0.000000
48.316500 0.000000
48.353500 0.000000
48.390500 0.000000
48.427500 0.000000
48.464500 0.000000
48.501500 0.000000
48.538500 0.000000
48.575600 0.000000
48.612600 0.000000
48.649600 0.000000
48.686600 0.000000
48.723600 0.000000
48.760600 0.000000
48.797600 0.000000
48.834600 0.000000
48.871700 0.000000
48.908700 0.000000
48.945700 0.000000
48.982700 0.000000
49.019700 0.000000
49.056700 0.000000
49.093700 0.000000
49.130800 0.000000
49.167800 0.000000
49.204800 0.000000
49.241800 0.000000
49.278800 0.000000
49.315800 0.000000
49.352800 0.000000
49.389800 0.000000
49.426900 0.000000
49.463900 0.000000
49.500900 0.000000
49.537900 0.000000
49.574900 0.000000
49.611900 0.000000
49.648900 0.000000
49.685900 0.000000
49.723000 0.000000
49.760000 0.000000
49.797000 0.000000
49.834000 0.000000
49.871000 0.000000
49.908000 0.000000
49.945000 0.000000
e
