set title 'mp-1184493 - Density of States'
set xlabel 'Energy (eV)'
set ylabel 'DOS (states/eV)'
set grid
set xrange [-10:10]
set yrange [0:82.201]
set xzeroaxis lt -1
set terminal png size 800,600
set output 'mp-1184493_dos_gnuplot.png'
plot '-' using 1:2 with lines title 'DOS'
-10.114900 0.000000
-10.094900 0.000000
-10.074800 0.000000
-10.054800 0.000000
-10.034800 0.000000
-10.014700 0.000000
-9.994700 0.000000
-9.974700 0.000000
-9.954600 0.000000
-9.934600 0.000000
-9.914600 0.000000
-9.894500 0.000000
-9.874500 0.000000
-9.854500 0.000000
-9.834400 0.000000
-9.814400 0.000000
-9.794300 0.000000
-9.774300 0.000000
-9.754300 0.000000
-9.734200 0.000000
-9.714200 0.000000
-9.694200 0.000000
-9.674100 0.000000
-9.654100 0.000000
-9.634100 0.000000
-9.614000 0.000000
-9.594000 0.000000
-9.574000 0.000000
-9.553900 0.000000
-9.533900 0.000000
-9.513900 0.000000
-9.493800 0.000000
-9.473800 0.000000
-9.453700 0.000000
-9.433700 0.000000
-9.413700 0.000000
-9.393600 0.000000
-9.373600 0.000000
-9.353600 0.000000
-9.333500 0.000000
-9.313500 0.000000
-9.293500 0.000000
-9.273400 0.000000
-9.253400 0.000000
-9.233400 0.000000
-9.213300 0.000000
-9.193300 0.000000
-9.173300 0.000000
-9.153200 0.000000
-9.133200 0.000000
-9.113100 0.000000
-9.093100 0.000000
-9.073100 0.000000
-9.053000 0.000000
-9.033000 0.000000
-9.013000 0.000000
-8.992900 0.000000
-8.972900 0.000000
-8.952900 0.000000
-8.932800 0.000000
-8.912800 0.000000
-8.892800 0.000000
-8.872700 0.000000
-8.852700 0.000000
-8.832700 0.000000
-8.812600 0.000000
-8.792600 0.000000
-8.772500 0.000000
-8.752500 0.000000
-8.732500 0.000000
-8.712400 0.000000
-8.692400 0.000000
-8.672400 0.000000
-8.652300 0.000000
-8.632300 0.000000
-8.612300 0.000000
-8.592200 0.000000
-8.572200 0.000000
-8.552200 0.000000
-8.532100 0.000000
-8.512100 0.000000
-8.492100 0.000000
-8.472000 0.000000
-8.452000 0.000000
-8.431900 0.000000
-8.411900 0.000400
-8.391900 0.003200
-8.371800 0.018900
-8.351800 0.085500
-8.331800 0.296700
-8.311700 0.800100
-8.291700 1.722200
-8.271700 3.090000
-8.251600 4.920400
-8.231600 7.482800
-8.211600 11.448500
-8.191500 17.598200
-8.171500 26.146700
-8.151500 36.191500
-8.131400 45.722000
-8.111400 52.445200
-8.091300 55.347800
-8.071300 55.690100
-8.051300 55.985800
-8.031200 57.813900
-8.011200 60.737600
-7.991200 63.116600
-7.971100 63.726700
-7.951100 63.029100
-7.931100 63.147400
-7.911000 65.907100
-7.891000 70.591000
-7.871000 74.325000
-7.850900 74.728100
-7.830900 71.674300
-7.810900 66.920200
-7.790800 62.518300
-7.770800 59.012200
-7.750700 54.818200
-7.730700 47.807300
-7.710700 37.666300
-7.690600 26.421400
-7.670600 16.690700
-7.650600 9.832500
-7.630500 5.651500
-7.610500 3.222800
-7.590500 1.741500
-7.570400 0.822000
-7.550400 0.316500
-7.530400 0.095500
-7.510300 0.022100
-7.490300 0.003900
-7.470300 0.000500
-7.450200 0.000100
-7.430200 0.000000
-7.410100 0.000000
-7.390100 0.000000
-7.370100 0.000000
-7.350000 0.000000
-7.330000 0.000000
-7.310000 0.000000
-7.289900 0.000000
-7.269900 0.000000
-7.249900 0.000000
-7.229800 0.000000
-7.209800 0.000000
-7.189800 0.000000
-7.169700 0.000000
-7.149700 0.000000
-7.129700 0.000000
-7.109600 0.000000
-7.089600 0.000000
-7.069500 0.000000
-7.049500 0.000000
-7.029500 0.000000
-7.009400 0.000000
-6.989400 0.000000
-6.969400 0.000000
-6.949300 0.000000
-6.929300 0.000000
-6.909300 0.000000
-6.889200 0.000000
-6.869200 0.000000
-6.849200 0.000000
-6.829100 0.000000
-6.809100 0.000000
-6.789100 0.000000
-6.769000 0.000000
-6.749000 0.000000
-6.728900 0.000000
-6.708900 0.000000
-6.688900 0.000000
-6.668800 0.000000
-6.648800 0.000000
-6.628800 0.000000
-6.608700 0.000000
-6.588700 0.000000
-6.568700 0.000000
-6.548600 0.000000
-6.528600 0.000000
-6.508600 0.000000
-6.488500 0.000000
-6.468500 0.000000
-6.448500 0.000000
-6.428400 0.000000
-6.408400 0.000000
-6.388300 0.000000
-6.368300 0.000000
-6.348300 0.000000
-6.328200 0.000000
-6.308200 0.000000
-6.288200 0.000000
-6.268100 0.000000
-6.248100 0.000000
-6.228100 0.000000
-6.208000 0.000000
-6.188000 0.000000
-6.168000 0.000000
-6.147900 0.000000
-6.127900 0.000000
-6.107900 0.000000
-6.087800 0.000000
-6.067800 0.000000
-6.047700 0.000000
-6.027700 0.000000
-6.007700 0.000000
-5.987600 0.000000
-5.967600 0.000000
-5.947600 0.000000
-5.927500 0.000000
-5.907500 0.000000
-5.887500 0.000000
-5.867400 0.000000
-5.847400 0.000000
-5.827400 0.000000
-5.807300 0.000000
-5.787300 0.000000
-5.767200 0.000000
-5.747200 0.000000
-5.727200 0.000000
-5.707100 0.000000
-5.687100 0.000000
-5.667100 0.000000
-5.647000 0.000000
-5.627000 0.000000
-5.607000 0.000000
-5.586900 0.000000
-5.566900 0.000000
-5.546900 0.000000
-5.526800 0.000000
-5.506800 0.000000
-5.486800 0.000000
-5.466700 0.000000
-5.446700 0.000000
-5.426600 0.000000
-5.406600 0.000000
-5.386600 0.000000
-5.366500 0.000000
-5.346500 0.000000
-5.326500 0.000000
-5.306400 0.000000
-5.286400 0.000000
-5.266400 0.000000
-5.246300 0.000000
-5.226300 0.000000
-5.206300 0.000000
-5.186200 0.000000
-5.166200 0.000000
-5.146200 0.000000
-5.126100 0.000000
-5.106100 0.000000
-5.086000 0.000000
-5.066000 0.000000
-5.046000 0.000000
-5.025900 0.000000
-5.005900 0.000000
-4.985900 0.000000
-4.965800 0.000000
-4.945800 0.000000
-4.925800 0.000000
-4.905700 0.000000
-4.885700 0.000000
-4.865700 0.000000
-4.845600 0.000000
-4.825600 0.000000
-4.805600 0.000000
-4.785500 0.000000
-4.765500 0.000000
-4.745400 0.000000
-4.725400 0.000000
-4.705400 0.000000
-4.685300 0.000000
-4.665300 0.000000
-4.645300 0.000000
-4.625200 0.000000
-4.605200 0.000000
-4.585200 0.000000
-4.565100 0.000000
-4.545100 0.000000
-4.525100 0.000000
-4.505000 0.000000
-4.485000 0.000000
-4.465000 0.000000
-4.444900 0.000000
-4.424900 0.000000
-4.404800 0.000000
-4.384800 0.000000
-4.364800 0.000000
-4.344700 0.000000
-4.324700 0.000000
-4.304700 0.000000
-4.284600 0.000000
-4.264600 0.000000
-4.244600 0.000000
-4.224500 0.000000
-4.204500 0.000000
-4.184500 0.000000
-4.164400 0.000000
-4.144400 0.000000
-4.124400 0.000000
-4.104300 0.000000
-4.084300 0.000000
-4.064200 0.000000
-4.044200 0.000000
-4.024200 0.000000
-4.004100 0.000000
-3.984100 0.000000
-3.964100 0.000000
-3.944000 0.000000
-3.924000 0.000000
-3.904000 0.000000
-3.883900 0.000000
-3.863900 0.000000
-3.843900 0.000000
-3.823800 0.000000
-3.803800 0.000000
-3.783800 0.000000
-3.763700 0.000000
-3.743700 0.000000
-3.723600 0.000000
-3.703600 0.000000
-3.683600 0.000000
-3.663500 0.000000
-3.643500 0.000000
-3.623500 0.000000
-3.603400 0.000000
-3.583400 0.000000
-3.563400 0.000000
-3.543300 0.000000
-3.523300 0.000000
-3.503300 0.000000
-3.483200 0.000000
-3.463200 0.000000
-3.443200 0.000000
-3.423100 0.000000
-3.403100 0.000000
-3.383000 0.000000
-3.363000 0.000000
-3.343000 0.000000
-3.322900 0.000000
-3.302900 0.000000
-3.282900 0.000000
-3.262800 0.000000
-3.242800 0.000000
-3.222800 0.000000
-3.202700 0.000000
-3.182700 0.000000
-3.162700 0.000000
-3.142600 0.000000
-3.122600 0.000000
-3.102600 0.000000
-3.082500 0.000000
-3.062500 0.000000
-3.042400 0.000000
-3.022400 0.000000
-3.002400 0.000000
-2.982300 0.000000
-2.962300 0.000000
-2.942300 0.000000
-2.922200 0.000000
-2.902200 0.000000
-2.882200 0.000000
-2.862100 0.000000
-2.842100 0.000000
-2.822100 0.000000
-2.802000 0.000000
-2.782000 0.000000
-2.762000 0.000000
-2.741900 0.000000
-2.721900 0.000100
-2.701800 0.000500
-2.681800 0.002300
-2.661800 0.007700
-2.641700 0.019500
-2.621700 0.037400
-2.601700 0.057600
-2.581600 0.077500
-2.561600 0.098800
-2.541600 0.123900
-2.521500 0.160000
-2.501500 0.222000
-2.481500 0.307900
-2.461400 0.373900
-2.441400 0.365400
-2.421400 0.278100
-2.401300 0.165300
-2.381300 0.088600
-2.361200 0.081000
-2.341200 0.150800
-2.321200 0.282800
-2.301100 0.428100
-2.281100 0.519800
-2.261100 0.525600
-2.241000 0.475100
-2.221000 0.429500
-2.201000 0.438100
-2.180900 0.508900
-2.160900 0.583500
-2.140900 0.567500
-2.120800 0.434400
-2.100800 0.267700
-2.080800 0.168400
-2.060700 0.161800
-2.040700 0.206300
-2.020600 0.267200
-2.000600 0.361200
-1.980600 0.512500
-1.960500 0.675200
-1.940500 0.754500
-1.920500 0.715700
-1.900400 0.628200
-1.880400 0.590600
-1.860400 0.642700
-1.840300 0.737400
-1.820300 0.770700
-1.800300 0.667800
-1.780200 0.460100
-1.760200 0.258600
-1.740200 0.159600
-1.720100 0.198500
-1.700100 0.358600
-1.680000 0.586600
-1.660000 0.808000
-1.640000 0.953300
-1.619900 0.980100
-1.599900 0.898600
-1.579900 0.778200
-1.559800 0.699700
-1.539800 0.690300
-1.519800 0.707300
-1.499700 0.683700
-1.479700 0.595200
-1.459700 0.489800
-1.439600 0.435700
-1.419600 0.440900
-1.399600 0.465600
-1.379500 0.512500
-1.359500 0.622300
-1.339400 0.766200
-1.319400 0.834600
-1.299400 0.769200
-1.279300 0.650800
-1.259300 0.636300
-1.239300 0.822300
-1.219200 1.137300
-1.199200 1.359400
-1.179200 1.298000
-1.159100 0.975100
-1.139100 0.595400
-1.119100 0.368300
-1.099000 0.405300
-1.079000 0.718300
-1.059000 1.192300
-1.038900 1.574600
-1.018900 1.626600
-0.998800 1.342200
-0.978800 0.948600
-0.958800 0.681100
-0.938700 0.610200
-0.918700 0.654700
-0.898700 0.686300
-0.878600 0.630500
-0.858600 0.507900
-0.838600 0.391000
-0.818500 0.328600
-0.798500 0.323000
-0.778500 0.364200
-0.758400 0.454100
-0.738400 0.589500
-0.718400 0.747300
-0.698300 0.908600
-0.678300 1.091700
-0.658200 1.346200
-0.638200 1.669400
-0.618200 1.910300
-0.598100 1.845400
-0.578100 1.429200
-0.558100 0.893300
-0.538000 0.536800
-0.518000 0.484900
-0.498000 0.655200
-0.477900 0.871000
-0.457900 0.988600
-0.437900 0.973100
-0.417800 0.900400
-0.397800 0.894600
-0.377800 1.030500
-0.357700 1.252500
-0.337700 1.385500
-0.317600 1.279900
-0.297600 0.972100
-0.277600 0.666700
-0.257500 0.553500
-0.237500 0.659300
-0.217500 0.858400
-0.197400 0.995200
-0.177400 0.987700
-0.157400 0.856600
-0.137300 0.714900
-0.117300 0.712800
-0.097300 0.921800
-0.077200 1.243700
-0.057200 1.457800
-0.037100 1.417000
-0.017100 1.213000
0.002900 1.075100
0.023000 1.099300
0.043000 1.176500
0.063000 1.176300
0.083100 1.090600
0.103100 0.995000
0.123100 0.959700
0.143200 0.998100
0.163200 1.061900
0.183200 1.113000
0.203300 1.187700
0.223300 1.321500
0.243300 1.468300
0.263400 1.585600
0.283400 1.709200
0.303500 1.838900
0.323500 1.866800
0.343500 1.718400
0.363600 1.482400
0.383600 1.336200
0.403600 1.383500
0.423700 1.583700
0.443700 1.803600
0.463700 1.906300
0.483800 1.828100
0.503800 1.615800
0.523800 1.377500
0.543900 1.185700
0.563900 1.036400
0.583900 0.916100
0.604000 0.889800
0.624000 1.057300
0.644100 1.400400
0.664100 1.735600
0.684100 1.871600
0.704200 1.782700
0.724200 1.576200
0.744200 1.336400
0.764300 1.074800
0.784300 0.815100
0.804300 0.649400
0.824400 0.667400
0.844400 0.848900
0.864400 1.077200
0.884500 1.267200
0.904500 1.434400
0.924500 1.605000
0.944600 1.706100
0.964600 1.637000
0.984700 1.446000
1.004700 1.316900
1.024700 1.357000
1.044800 1.499300
1.064800 1.628000
1.084800 1.710300
1.104900 1.778500
1.124900 1.825500
1.144900 1.773400
1.165000 1.583000
1.185000 1.347400
1.205000 1.205300
1.225100 1.210900
1.245100 1.353300
1.265100 1.638100
1.285200 2.075400
1.305200 2.618000
1.325300 3.150700
1.345300 3.503700
1.365300 3.498900
1.385400 3.106900
1.405400 2.579800
1.425400 2.305200
1.445500 2.498700
1.465500 3.087300
1.485500 3.836000
1.505600 4.492200
1.525600 4.831300
1.545600 4.698000
1.565700 4.123500
1.585700 3.361600
1.605700 2.703300
1.625800 2.296500
1.645800 2.216000
1.665900 2.575400
1.685900 3.408600
1.705900 4.467500
1.726000 5.268600
1.746000 5.453000
1.766000 5.123300
1.786100 4.754300
1.806100 4.728400
1.826100 4.999500
1.846200 5.278800
1.866200 5.543600
1.886200 6.227600
1.906300 7.791200
1.926300 10.151200
1.946300 12.628000
1.966400 14.510800
1.986400 15.712200
2.006500 16.837600
2.026500 18.603700
2.046500 21.201900
2.066600 24.040500
2.086600 26.005800
2.106600 26.207300
2.126700 24.569000
2.146700 21.625600
2.166700 17.959300
2.186800 14.033000
2.206800 10.336600
2.226800 7.356700
2.246900 5.357900
2.266900 4.268600
2.286900 3.740100
2.307000 3.358200
2.327000 2.907500
2.347100 2.452500
2.367100 2.233400
2.387100 2.538500
2.407200 3.482200
2.427200 4.754000
2.447200 5.745700
2.467300 6.051200
2.487300 5.732200
2.507300 5.109500
2.527400 4.454600
2.547400 3.857900
2.567400 3.277300
2.587500 2.692700
2.607500 2.211300
2.627500 2.012000
2.647600 2.187300
2.667600 2.611200
2.687700 2.955000
2.707700 2.927500
2.727700 2.541900
2.747800 2.053900
2.767800 1.664700
2.787800 1.425000
2.807900 1.363600
2.827900 1.504500
2.847900 1.765400
2.868000 2.006800
2.888000 2.178400
2.908000 2.284300
2.928100 2.257400
2.948100 2.015800
2.968100 1.613100
2.988200 1.246700
3.008200 1.122500
3.028300 1.319300
3.048300 1.757000
3.068300 2.254400
3.088400 2.611500
3.108400 2.697700
3.128400 2.529900
3.148500 2.251400
3.168500 1.991400
3.188500 1.764800
3.208600 1.543600
3.228600 1.380900
3.248600 1.376700
3.268700 1.506300
3.288700 1.587300
3.308700 1.489400
3.328800 1.302500
3.348800 1.224300
3.368900 1.356800
3.388900 1.680500
3.408900 2.139900
3.429000 2.650200
3.449000 3.054100
3.469000 3.182300
3.489100 2.992100
3.509100 2.596400
3.529100 2.159100
3.549200 1.800300
3.569200 1.564300
3.589200 1.439800
3.609300 1.416700
3.629300 1.487800
3.649300 1.602300
3.669400 1.702100
3.689400 1.785700
3.709500 1.850100
3.729500 1.818600
3.749500 1.632800
3.769600 1.386600
3.789600 1.267100
3.809600 1.350200
3.829700 1.522000
3.849700 1.624900
3.869700 1.645300
3.889800 1.702900
3.909800 1.847100
3.929800 1.955100
3.949900 1.898500
3.969900 1.722400
3.989900 1.573200
4.010000 1.517100
4.030000 1.487500
4.050100 1.367400
4.070100 1.116700
4.090100 0.843700
4.110200 0.715700
4.130200 0.788500
4.150200 0.983100
4.170300 1.221800
4.190300 1.495300
4.210300 1.782600
4.230400 1.991900
4.250400 2.028200
4.270400 1.894000
4.290500 1.695200
4.310500 1.539700
4.330500 1.457100
4.350600 1.407900
4.370600 1.309300
4.390700 1.095600
4.410700 0.817900
4.430700 0.629700
4.450800 0.642800
4.470800 0.823600
4.490800 1.035500
4.510900 1.172100
4.530900 1.237500
4.550900 1.298300
4.571000 1.396400
4.591000 1.524600
4.611000 1.624600
4.631100 1.597100
4.651100 1.411300
4.671100 1.195100
4.691200 1.104400
4.711200 1.156500
4.731300 1.287800
4.751300 1.476900
4.771300 1.692000
4.791400 1.809300
4.811400 1.724800
4.831400 1.493100
4.851500 1.257200
4.871500 1.120400
4.891500 1.136700
4.911600 1.308400
4.931600 1.549500
4.951600 1.729600
4.971700 1.767700
4.991700 1.671800
5.011700 1.533600
5.031800 1.503500
5.051800 1.706500
5.071900 2.117300
5.091900 2.538000
5.111900 2.741000
5.132000 2.645200
5.152000 2.365800
5.172000 2.105700
5.192100 1.998700
5.212100 2.045000
5.232100 2.142300
5.252200 2.150100
5.272200 2.009200
5.292200 1.846100
5.312300 1.853100
5.332300 2.032400
5.352300 2.175400
5.372400 2.122900
5.392400 1.930500
5.412500 1.750100
5.432500 1.643000
5.452500 1.573100
5.472600 1.520000
5.492600 1.482900
5.512600 1.419500
5.532700 1.326000
5.552700 1.316000
5.572700 1.466900
5.592800 1.643900
5.612800 1.607300
5.632800 1.281000
5.652900 0.843400
5.672900 0.564200
5.692900 0.607600
5.713000 0.956400
5.733000 1.424500
5.753100 1.748500
5.773100 1.776100
5.793100 1.576200
5.813200 1.325300
5.833200 1.147400
5.853200 1.100500
5.873300 1.206200
5.893300 1.409700
5.913300 1.581700
5.933400 1.636700
5.953400 1.618100
5.973400 1.611300
5.993500 1.631700
6.013500 1.658200
6.033600 1.696600
6.053600 1.739400
6.073600 1.735100
6.093700 1.661000
6.113700 1.577300
6.133700 1.560100
6.153800 1.617900
6.173800 1.718100
6.193800 1.845200
6.213900 1.996100
6.233900 2.152500
6.253900 2.266200
6.274000 2.269000
6.294000 2.148900
6.314000 1.997600
6.334100 1.911300
6.354100 1.873000
6.374200 1.809100
6.394200 1.741800
6.414200 1.778300
6.434300 1.930800
6.454300 2.082300
6.474300 2.171600
6.494400 2.263700
6.514400 2.371000
6.534400 2.359700
6.554500 2.145100
6.574500 1.859300
6.594500 1.684800
6.614600 1.603600
6.634600 1.460600
6.654600 1.219400
6.674700 1.006000
6.694700 0.917000
6.714800 0.920600
6.734800 0.974600
6.754800 1.111800
6.774900 1.337200
6.794900 1.546000
6.814900 1.637300
6.835000 1.642400
6.855000 1.661400
6.875000 1.721200
6.895100 1.756400
6.915100 1.708200
6.935100 1.599400
6.955200 1.522100
6.975200 1.565200
6.995200 1.730000
7.015300 1.887300
7.035300 1.863000
7.055400 1.628400
7.075400 1.360000
7.095400 1.252900
7.115500 1.327700
7.135500 1.471000
7.155500 1.623700
7.175600 1.838500
7.195600 2.108000
7.215600 2.255200
7.235700 2.139200
7.255700 1.884900
7.275700 1.740400
7.295800 1.764700
7.315800 1.812200
7.335800 1.768400
7.355900 1.671000
7.375900 1.613900
7.396000 1.606600
7.416000 1.553600
7.436000 1.385400
7.456100 1.183600
7.476100 1.122500
7.496100 1.277600
7.516200 1.538100
7.536200 1.739200
7.556200 1.834400
7.576300 1.869100
7.596300 1.861800
7.616300 1.830600
7.636400 1.860900
7.656400 2.010700
7.676400 2.196500
7.696500 2.273500
7.716500 2.223500
7.736600 2.184300
7.756600 2.247600
7.776600 2.307100
7.796700 2.219600
7.816700 2.039900
7.836700 1.932600
7.856800 1.943300
7.876800 2.028500
7.896800 2.188300
7.916900 2.391900
7.936900 2.503000
7.956900 2.422800
7.977000 2.215100
7.997000 2.020800
8.017000 1.914200
8.037100 1.857300
8.057100 1.743800
8.077200 1.486600
8.097200 1.120400
8.117200 0.811200
8.137300 0.710400
8.157300 0.821300
8.177300 1.042200
8.197400 1.286100
8.217400 1.499400
8.237400 1.608000
8.257500 1.551400
8.277500 1.394500
8.297500 1.299000
8.317600 1.328900
8.337600 1.374100
8.357600 1.325800
8.377700 1.248500
8.397700 1.292000
8.417800 1.487700
8.437800 1.727000
8.457800 1.893100
8.477900 1.921500
8.497900 1.792500
8.517900 1.563400
8.538000 1.360300
8.558000 1.285500
8.578000 1.373900
8.598100 1.586800
8.618100 1.786200
8.638100 1.829700
8.658200 1.759900
8.678200 1.786900
8.698200 2.027100
8.718300 2.346400
8.738300 2.507300
8.758400 2.420700
8.778400 2.216200
8.798400 2.101000
8.818500 2.192200
8.838500 2.442000
8.858500 2.683800
8.878600 2.794600
8.898600 2.805200
8.918600 2.806200
8.938700 2.802600
8.958700 2.725800
8.978700 2.557800
8.998800 2.387800
9.018800 2.326800
9.038800 2.384700
9.058900 2.452500
9.078900 2.407900
9.099000 2.243900
9.119000 2.075300
9.139000 2.021900
9.159100 2.079800
9.179100 2.107100
9.199100 1.980800
9.219200 1.746800
9.239200 1.553000
9.259200 1.478200
9.279300 1.482200
9.299300 1.481600
9.319300 1.411100
9.339400 1.239800
9.359400 1.017400
9.379400 0.883400
9.399500 0.940800
9.419500 1.147400
9.439600 1.395700
9.459600 1.663500
9.479600 2.002800
9.499700 2.406300
9.519700 2.749800
9.539700 2.844000
9.559800 2.575400
9.579800 2.071600
9.599800 1.649500
9.619900 1.510300
9.639900 1.546900
9.659900 1.515900
9.680000 1.332500
9.700000 1.110500
9.720000 0.980800
9.740100 0.972500
9.760100 1.034000
9.780200 1.113500
9.800200 1.238600
9.820200 1.506400
9.840300 1.982500
9.860300 2.605600
9.880300 3.155900
9.900400 3.363900
9.920400 3.156400
9.940400 2.751300
9.960500 2.429100
9.980500 2.273000
10.000500 2.192300
10.020600 2.130700
10.040600 2.148000
10.060600 2.290700
10.080700 2.489200
10.100700 2.641200
10.120800 2.718100
10.140800 2.712600
10.160800 2.568500
10.180900 2.279700
10.200900 1.990000
10.220900 1.903800
10.241000 2.125200
10.261000 2.568100
10.281000 2.955000
10.301100 2.978200
10.321100 2.595400
10.341100 2.133600
10.361200 1.962300
10.381200 2.081600
10.401200 2.194800
10.421300 2.153800
10.441300 2.096100
10.461400 2.139500
10.481400 2.192800
10.501400 2.125000
10.521500 1.952900
10.541500 1.793400
10.561500 1.731000
10.581600 1.793100
10.601600 1.962900
10.621600 2.142800
10.641700 2.205100
10.661700 2.143200
10.681700 2.097800
10.701800 2.242700
10.721800 2.664800
10.741800 3.218000
10.761900 3.513200
10.781900 3.267200
10.802000 2.633700
10.822000 2.032000
10.842000 1.726000
10.862100 1.679300
10.882100 1.728800
10.902100 1.793400
10.922200 1.905100
10.942200 2.084100
10.962200 2.263700
10.982300 2.377900
11.002300 2.442700
11.022300 2.471000
11.042400 2.394600
11.062400 2.185300
11.082400 1.970300
11.102500 1.909700
11.122500 2.010100
11.142600 2.138900
11.162600 2.183600
11.182600 2.133900
11.202700 2.034200
11.222700 1.934400
11.242700 1.881900
11.262800 1.893000
11.282800 1.948700
11.302800 2.061000
11.322900 2.300100
11.342900 2.708400
11.362900 3.179100
11.383000 3.457000
11.403000 3.358900
11.423000 3.001000
11.443100 2.695000
11.463100 2.626300
11.483200 2.755500
11.503200 2.978100
11.523200 3.169000
11.543300 3.131100
11.563300 2.773200
11.583300 2.309200
11.603400 2.074400
11.623400 2.190900
11.643400 2.505200
11.663500 2.770300
11.683500 2.846100
11.703500 2.775900
11.723600 2.687500
11.743600 2.644300
11.763700 2.629800
11.783700 2.627000
11.803700 2.653200
11.823800 2.734400
11.843800 2.854200
11.863800 2.927200
11.883900 2.858000
11.903900 2.619700
11.923900 2.259300
11.944000 1.877100
11.964000 1.597500
11.984000 1.499600
12.004100 1.575500
12.024100 1.757800
12.044100 1.964700
12.064200 2.140000
12.084200 2.279800
12.104300 2.395700
12.124300 2.427900
12.144300 2.278800
12.164400 2.008400
12.184400 1.891800
12.204400 2.157400
12.224500 2.715500
12.244500 3.224400
12.264500 3.409100
12.284600 3.298900
12.304600 3.149700
12.324600 3.124200
12.344700 3.127100
12.364700 3.021900
12.384700 2.875400
12.404800 2.820800
12.424800 2.800000
12.444900 2.635400
12.464900 2.286100
12.484900 1.876200
12.505000 1.539300
12.525000 1.341500
12.545000 1.295500
12.565100 1.378200
12.585100 1.542600
12.605100 1.721200
12.625200 1.847400
12.645200 1.906400
12.665200 1.950200
12.685300 2.063000
12.705300 2.312300
12.725300 2.672000
12.745400 3.001500
12.765400 3.152300
12.785500 3.074700
12.805500 2.825500
12.825500 2.543000
12.845600 2.389600
12.865600 2.412700
12.885600 2.491700
12.905700 2.513900
12.925700 2.537600
12.945700 2.689800
12.965800 2.946500
12.985800 3.080700
13.005800 2.863500
13.025900 2.312200
13.045900 1.686100
13.065900 1.252900
13.086000 1.126600
13.106000 1.296300
13.126100 1.709600
13.146100 2.264500
13.166100 2.763200
13.186200 3.041500
13.206200 3.152200
13.226200 3.215400
13.246300 3.156300
13.266300 2.876300
13.286300 2.552500
13.306400 2.466800
13.326400 2.654900
13.346400 2.904900
13.366500 2.987700
13.386500 2.798100
13.406500 2.378000
13.426600 1.886600
13.446600 1.521200
13.466700 1.416700
13.486700 1.570600
13.506700 1.833400
13.526800 2.022000
13.546800 2.091100
13.566800 2.165600
13.586900 2.379000
13.606900 2.687500
13.626900 2.873200
13.647000 2.771900
13.667000 2.461300
13.687000 2.157700
13.707100 1.986700
13.727100 1.924600
13.747100 1.899100
13.767200 1.869300
13.787200 1.827900
13.807300 1.781800
13.827300 1.740700
13.847300 1.727600
13.867400 1.806700
13.887400 2.028300
13.907400 2.296800
13.927500 2.410400
13.947500 2.298200
13.967500 2.115900
13.987600 2.046900
14.007600 2.085800
14.027600 2.088600
14.047700 1.988000
14.067700 1.860200
14.087700 1.799500
14.107800 1.803800
14.127800 1.804700
14.147900 1.789300
14.167900 1.852700
14.187900 2.089400
14.208000 2.451200
14.228000 2.765800
14.248000 2.897200
14.268100 2.829800
14.288100 2.603800
14.308100 2.254800
14.328200 1.853800
14.348200 1.562600
14.368200 1.570800
14.388300 1.897800
14.408300 2.299800
14.428300 2.484300
14.448400 2.384900
14.468400 2.127100
14.488500 1.834100
14.508500 1.610200
14.528500 1.578300
14.548600 1.767500
14.568600 2.065900
14.588600 2.348800
14.608700 2.536300
14.628700 2.547300
14.648700 2.342000
14.668800 1.986200
14.688800 1.612100
14.708800 1.368500
14.728900 1.395700
14.748900 1.737100
14.768900 2.252100
14.789000 2.687700
14.809000 2.855900
14.829100 2.716100
14.849100 2.347300
14.869100 1.910300
14.889200 1.584100
14.909200 1.477500
14.929200 1.598900
14.949300 1.874500
14.969300 2.157400
14.989300 2.275300
15.009400 2.141700
15.029400 1.838600
15.049400 1.548200
15.069500 1.371800
15.089500 1.264200
15.109500 1.155200
15.129600 1.070800
15.149600 1.126700
15.169700 1.404700
15.189700 1.821300
15.209700 2.181000
15.229800 2.367000
15.249800 2.384900
15.269800 2.270500
15.289900 2.084700
15.309900 1.941100
15.329900 1.918100
15.350000 1.969500
15.370000 1.966900
15.390000 1.812900
15.410100 1.520100
15.430100 1.198100
15.450100 0.969300
15.470200 0.881700
15.490200 0.894300
15.510300 0.960500
15.530300 1.122200
15.550300 1.466900
15.570400 1.988600
15.590400 2.530400
15.610400 2.862100
15.630500 2.828200
15.650500 2.489800
15.670500 2.109900
15.690600 1.934700
15.710600 2.015600
15.730600 2.252400
15.750700 2.521200
15.770700 2.757800
15.790700 2.977300
15.810800 3.167800
15.830800 3.170700
15.850900 2.835600
15.870900 2.309200
15.890900 1.989500
15.911000 2.134400
15.931000 2.575500
15.951000 2.855200
15.971100 2.665700
15.991100 2.123800
16.011100 1.585000
16.031200 1.298400
16.051200 1.317900
16.071200 1.618300
16.091300 2.145600
16.111300 2.769900
16.131300 3.275700
16.151400 3.456600
16.171400 3.273600
16.191500 2.924700
16.211500 2.677500
16.231500 2.618500
16.251600 2.632500
16.271600 2.591300
16.291600 2.476700
16.311700 2.354400
16.331700 2.276800
16.351700 2.208700
16.371800 2.066100
16.391800 1.853700
16.411800 1.719300
16.431900 1.795800
16.451900 2.003900
16.471900 2.101200
16.492000 1.951700
16.512000 1.718100
16.532100 1.731700
16.552100 2.142400
16.572100 2.756800
16.592200 3.248900
16.612200 3.454300
16.632200 3.436500
16.652300 3.339500
16.672300 3.239000
16.692300 3.151500
16.712400 3.135000
16.732400 3.260600
16.752400 3.459100
16.772500 3.532500
16.792500 3.384800
16.812500 3.144000
16.832600 2.969900
16.852600 2.844000
16.872700 2.672800
16.892700 2.496300
16.912700 2.408500
16.932800 2.359900
16.952800 2.252000
16.972800 2.163300
16.992900 2.285800
17.012900 2.668000
17.032900 3.175100
17.053000 3.669800
17.073000 4.102800
17.093000 4.452100
17.113100 4.673500
17.133100 4.728200
17.153100 4.632300
17.173200 4.434200
17.193200 4.127300
17.213300 3.666900
17.233300 3.099200
17.253300 2.602800
17.273400 2.349800
17.293400 2.316800
17.313400 2.307500
17.333500 2.228700
17.353500 2.238200
17.373500 2.518500
17.393600 3.004500
17.413600 3.446900
17.433600 3.665700
17.453700 3.638400
17.473700 3.416000
17.493700 3.086300
17.513800 2.797600
17.533800 2.717300
17.553900 2.909000
17.573900 3.256500
17.593900 3.566700
17.614000 3.757600
17.634000 3.855400
17.654000 3.840800
17.674100 3.643600
17.694100 3.263100
17.714100 2.796800
17.734200 2.387100
17.754200 2.161000
17.774200 2.145400
17.794300 2.248000
17.814300 2.385900
17.834400 2.586800
17.854400 2.907300
17.874400 3.309800
17.894500 3.656600
17.914500 3.807900
17.934500 3.731200
17.954600 3.514200
17.974600 3.286600
17.994600 3.155200
18.014700 3.176200
18.034700 3.321700
18.054700 3.479700
18.074800 3.549600
18.094800 3.537700
18.114800 3.488400
18.134900 3.360100
18.154900 3.079500
18.175000 2.698000
18.195000 2.397200
18.215000 2.332300
18.235100 2.490200
18.255100 2.698000
18.275100 2.796700
18.295200 2.808400
18.315200 2.866400
18.335200 2.977400
18.355300 2.978900
18.375300 2.783000
18.395300 2.524700
18.415400 2.396100
18.435400 2.467700
18.455400 2.726700
18.475500 3.109500
18.495500 3.419500
18.515600 3.422500
18.535600 3.150300
18.555600 2.956000
18.575700 3.171000
18.595700 3.788700
18.615700 4.498400
18.635800 4.942000
18.655800 4.947900
18.675800 4.598500
18.695900 4.103600
18.715900 3.631200
18.735900 3.278000
18.756000 3.129500
18.776000 3.229900
18.796000 3.468800
18.816100 3.579100
18.836100 3.344600
18.856200 2.850600
18.876200 2.470100
18.896200 2.525800
18.916300 2.962600
18.936300 3.401000
18.956300 3.516400
18.976400 3.307400
18.996400 2.982000
19.016400 2.718600
19.036500 2.624500
19.056500 2.782000
19.076500 3.162300
19.096600 3.550100
19.116600 3.711300
19.136600 3.644100
19.156700 3.534700
19.176700 3.468000
19.196800 3.341700
19.216800 3.044200
19.236800 2.571500
19.256900 2.033200
19.276900 1.636000
19.296900 1.556200
19.317000 1.761200
19.337000 2.017100
19.357000 2.107800
19.377100 2.026000
19.397100 1.941800
19.417100 1.987200
19.437200 2.114800
19.457200 2.204500
19.477200 2.225100
19.497300 2.203500
19.517300 2.126300
19.537400 1.995200
19.557400 1.896100
19.577400 1.910400
19.597500 2.000700
19.617500 2.042200
19.637500 1.986900
19.657600 1.964800
19.677600 2.133000
19.697600 2.443700
19.717700 2.691400
19.737700 2.794800
19.757700 2.875800
19.777800 3.032600
19.797800 3.184500
19.817800 3.185500
19.837900 3.005800
19.857900 2.784900
19.878000 2.716100
19.898000 2.847100
19.918000 3.019600
19.938100 3.064000
19.958100 2.998200
19.978100 2.927700
19.998200 2.854500
20.018200 2.732700
20.038200 2.602900
20.058300 2.572400
20.078300 2.715000
20.098300 2.965600
20.118400 3.096400
20.138400 2.914800
20.158400 2.526400
20.178500 2.309000
20.198500 2.530800
20.218600 3.022900
20.238600 3.345100
20.258600 3.262900
20.278700 2.930100
20.298700 2.650100
20.318700 2.589000
20.338800 2.659000
20.358800 2.627700
20.378800 2.402900
20.398900 2.140200
20.418900 2.022700
20.438900 2.066200
20.459000 2.166400
20.479000 2.239700
20.499000 2.287000
20.519100 2.357400
20.539100 2.476000
20.559200 2.579900
20.579200 2.548400
20.599200 2.368000
20.619300 2.203100
20.639300 2.230200
20.659300 2.454300
20.679400 2.689100
20.699400 2.703400
20.719400 2.458500
20.739500 2.167000
20.759500 2.055000
20.779500 2.143400
20.799600 2.270100
20.819600 2.247000
20.839600 2.033800
20.859700 1.803400
20.879700 1.749200
20.899800 1.849400
20.919800 1.927800
20.939800 1.896400
20.959900 1.840400
20.979900 1.899400
20.999900 2.102700
21.020000 2.309600
21.040000 2.324400
21.060000 2.079800
21.080100 1.710000
21.100100 1.443700
21.120100 1.405200
21.140200 1.553000
21.160200 1.827300
21.180200 2.223800
21.200300 2.680100
21.220300 3.063400
21.240400 3.301300
21.260400 3.391200
21.280400 3.338500
21.300500 3.205100
21.320500 3.103400
21.340500 3.049900
21.360600 2.949100
21.380600 2.758300
21.400600 2.531500
21.420700 2.306500
21.440700 2.094000
21.460700 1.983100
21.480800 2.124300
21.500800 2.540800
21.520800 3.024300
21.540900 3.312700
21.560900 3.324800
21.581000 3.161800
21.601000 3.006100
21.621000 3.075400
21.641100 3.499700
21.661100 4.175500
21.681100 4.800700
21.701200 5.065500
21.721200 4.861200
21.741200 4.344400
21.761300 3.770100
21.781300 3.302900
21.801300 3.007900
21.821400 2.897200
21.841400 2.923000
21.861400 2.983500
21.881500 2.996400
21.901500 3.006100
21.921600 3.165400
21.941600 3.491300
21.961600 3.694200
21.981700 3.433800
22.001700 2.738200
22.021700 1.999300
22.041800 1.561400
22.061800 1.462300
22.081800 1.527800
22.101900 1.573700
22.121900 1.551200
22.141900 1.590800
22.162000 1.860400
22.182000 2.322700
22.202000 2.726300
22.222100 2.872800
22.242100 2.765100
22.262200 2.506500
22.282200 2.224800
22.302200 2.069800
22.322300 2.131800
22.342300 2.354000
22.362300 2.594900
22.382400 2.796400
22.402400 3.023800
22.422400 3.304800
22.442500 3.555100
22.462500 3.726400
22.482500 3.882700
22.502600 4.086400
22.522600 4.319200
22.542600 4.517800
22.562700 4.626500
22.582700 4.617700
22.602800 4.472000
22.622800 4.135100
22.642800 3.553000
22.662900 2.815500
22.682900 2.199400
22.702900 1.949600
22.723000 2.043800
22.743000 2.270100
22.763000 2.478600
22.783100 2.667200
22.803100 2.900700
22.823100 3.215700
22.843200 3.532000
22.863200 3.664900
22.883200 3.529400
22.903300 3.282100
22.923300 3.146600
22.943400 3.175600
22.963400 3.281000
22.983400 3.387100
23.003500 3.452400
23.023500 3.439000
23.043500 3.351900
23.063600 3.261000
23.083600 3.252500
23.103600 3.386200
23.123700 3.675900
23.143700 4.019600
23.163700 4.167900
23.183800 3.918800
23.203800 3.368900
23.223800 2.849200
23.243900 2.600000
23.263900 2.592300
23.284000 2.628500
23.304000 2.550400
23.324000 2.384100
23.344100 2.307900
23.364100 2.475700
23.384100 2.872300
23.404200 3.319600
23.424200 3.605500
23.444200 3.631100
23.464300 3.458700
23.484300 3.254000
23.504300 3.179100
23.524400 3.255600
23.544400 3.327600
23.564500 3.247700
23.584500 3.088900
23.604500 3.076900
23.624600 3.277500
23.644600 3.450600
23.664600 3.326100
23.684700 2.942900
23.704700 2.572000
23.724700 2.375700
23.744800 2.300000
23.764800 2.262100
23.784800 2.289500
23.804900 2.441400
23.824900 2.687600
23.844900 2.926900
23.865000 3.091100
23.885000 3.168400
23.905100 3.160500
23.925100 3.101600
23.945100 3.116500
23.965200 3.402000
23.985200 4.045600
24.005200 4.789800
24.025300 5.135200
24.045300 4.828600
24.065300 4.132000
24.085400 3.534100
24.105400 3.271700
24.125400 3.174700
24.145500 2.967000
24.165500 2.638700
24.185500 2.408900
24.205600 2.362700
24.225600 2.315800
24.245700 2.104800
24.265700 1.848800
24.285700 1.796000
24.305800 2.027100
24.325800 2.426200
24.345800 2.850700
24.365900 3.210000
24.385900 3.456100
24.405900 3.602900
24.426000 3.681300
24.446000 3.646900
24.466000 3.439600
24.486100 3.113800
24.506100 2.806300
24.526100 2.602300
24.546200 2.493600
24.566200 2.436600
24.586300 2.406200
24.606300 2.411400
24.626300 2.477100
24.646400 2.611600
24.666400 2.766600
24.686400 2.812900
24.706500 2.603100
24.726500 2.121700
24.746500 1.583800
24.766600 1.341800
24.786600 1.625200
24.806600 2.332300
24.826700 3.086400
24.846700 3.505000
24.866700 3.397300
24.886800 2.788200
24.906800 1.893500
24.926900 1.037700
24.946900 0.467500
24.966900 0.242700
24.987000 0.303300
25.007000 0.546200
25.027000 0.810100
25.047100 0.920800
25.067100 0.849400
25.087100 0.757000
25.107200 0.808000
25.127200 0.990000
25.147200 1.158400
25.167300 1.218500
25.187300 1.214300
25.207300 1.217200
25.227400 1.196200
25.247400 1.077000
25.267500 0.863200
25.287500 0.624900
25.307500 0.432600
25.327600 0.347800
25.347600 0.407600
25.367600 0.571100
25.387700 0.715500
25.407700 0.732900
25.427700 0.628600
25.447800 0.495200
25.467800 0.410100
25.487800 0.385300
25.507900 0.398800
25.527900 0.435500
25.547900 0.500300
25.568000 0.604100
25.588000 0.730000
25.608100 0.814500
25.628100 0.789600
25.648100 0.657900
25.668200 0.515500
25.688200 0.477900
25.708200 0.558400
25.728300 0.635200
25.748300 0.583200
25.768300 0.420900
25.788400 0.282800
25.808400 0.275000
25.828400 0.400400
25.848500 0.583700
25.868500 0.721800
25.888500 0.733500
25.908600 0.610600
25.928600 0.430000
25.948700 0.292200
25.968700 0.237100
25.988700 0.226100
26.008800 0.200300
26.028800 0.141600
26.048800 0.075800
26.068900 0.030100
26.088900 0.008800
26.108900 0.002000
26.129000 0.000900
26.149000 0.003200
26.169000 0.013500
26.189100 0.041600
26.209100 0.095500
26.229100 0.166500
26.249200 0.231300
26.269200 0.279700
26.289300 0.330800
26.309300 0.408200
26.329300 0.507500
26.349400 0.592000
26.369400 0.626300
26.389400 0.608600
26.409500 0.550800
26.429500 0.453500
26.449500 0.326800
26.469600 0.206400
26.489600 0.131000
26.509600 0.118400
26.529700 0.155100
26.549700 0.200300
26.569700 0.215500
26.589800 0.194300
26.609800 0.154100
26.629900 0.113300
26.649900 0.083000
26.669900 0.064800
26.690000 0.050900
26.710000 0.034900
26.730000 0.018700
26.750100 0.007500
26.770100 0.002200
26.790100 0.000700
26.810200 0.001400
26.830200 0.006700
26.850200 0.024100
26.870300 0.063800
26.890300 0.125100
26.910300 0.184800
26.930400 0.212200
26.950400 0.200300
26.970500 0.168100
26.990500 0.138900
27.010500 0.129600
27.030600 0.149000
27.050600 0.190100
27.070600 0.230200
27.090700 0.247900
27.110700 0.242300
27.130700 0.231600
27.150800 0.220200
27.170800 0.189300
27.190800 0.131700
27.210900 0.069700
27.230900 0.027400
27.250900 0.007900
27.271000 0.001700
27.291000 0.000400
27.311100 0.001100
27.331100 0.004100
27.351100 0.011900
27.371200 0.025200
27.391200 0.039100
27.411200 0.044500
27.431300 0.037000
27.451300 0.022500
27.471300 0.010000
27.491400 0.003300
27.511400 0.000800
27.531400 0.000100
27.551500 0.000000
27.571500 0.000000
27.591500 0.000000
27.611600 0.000000
27.631600 0.000000
27.651700 0.000000
27.671700 0.000000
27.691700 0.000000
27.711800 0.000000
27.731800 0.000000
27.751800 0.000000
27.771900 0.000000
27.791900 0.000000
27.811900 0.000000
27.832000 0.000000
27.852000 0.000000
27.872000 0.000000
27.892100 0.000000
27.912100 0.000000
27.932100 0.000000
27.952200 0.000000
27.972200 0.000000
27.992300 0.000000
28.012300 0.000000
28.032300 0.000300
28.052400 0.001600
28.072400 0.005900
28.092400 0.015600
28.112500 0.030000
28.132500 0.042200
28.152500 0.043400
28.172600 0.032700
28.192600 0.018000
28.212600 0.007200
28.232700 0.002100
28.252700 0.000500
28.272700 0.000100
28.292800 0.000000
28.312800 0.000000
28.332900 0.000000
28.352900 0.000000
28.372900 0.000000
28.393000 0.000000
28.413000 0.000000
28.433000 0.000000
28.453100 0.000000
28.473100 0.000000
28.493100 0.000000
28.513200 0.000000
28.533200 0.000000
28.553200 0.000000
28.573300 0.000000
28.593300 0.000000
28.613300 0.000000
28.633400 0.000000
28.653400 0.000000
28.673500 0.000000
28.693500 0.000000
28.713500 0.000000
28.733600 0.000000
28.753600 0.000000
28.773600 0.000000
28.793700 0.000000
28.813700 0.000000
28.833700 0.000000
28.853800 0.000000
28.873800 0.000000
28.893800 0.000000
28.913900 0.000000
28.933900 0.000000
28.953900 0.000000
28.974000 0.000000
28.994000 0.000000
29.014100 0.000000
29.034100 0.000000
29.054100 0.000000
29.074200 0.000000
29.094200 0.000000
29.114200 0.000000
29.134300 0.000000
29.154300 0.000000
29.174300 0.000000
29.194400 0.000000
29.214400 0.000000
29.234400 0.000000
29.254500 0.000000
29.274500 0.000000
29.294500 0.000000
29.314600 0.000000
29.334600 0.000000
29.354700 0.000000
29.374700 0.000000
29.394700 0.000000
29.414800 0.000000
29.434800 0.000000
29.454800 0.000000
29.474900 0.000000
29.494900 0.000000
29.514900 0.000000
29.535000 0.000000
29.555000 0.000000
29.575000 0.000000
29.595100 0.000000
29.615100 0.000000
29.635200 0.000000
29.655200 0.000000
29.675200 0.000000
29.695300 0.000000
29.715300 0.000000
29.735300 0.000000
29.755400 0.000000
29.775400 0.000000
29.795400 0.000000
29.815500 0.000000
29.835500 0.000000
29.855500 0.000000
29.875600 0.000000
29.895600 0.000000
29.915600 0.000000
29.935700 0.000000
29.955700 0.000000
e
