set title 'mp-755435 - Density of States'
set xlabel 'Energy (eV)'
set ylabel 'DOS (states/eV)'
set grid
set xrange [-10:10]
set yrange [0:126.727]
set xzeroaxis lt -1
set terminal png size 800,600
set output 'mp-755435_dos_gnuplot.png'
plot '-' using 1:2 with lines title 'DOS'
-8.018100 0.000000
-8.002800 0.000000
-7.987400 0.000000
-7.972100 0.000000
-7.956800 0.000000
-7.941500 0.000000
-7.926200 0.000000
-7.910900 0.000000
-7.895600 0.000000
-7.880300 0.000000
-7.864900 0.000000
-7.849600 0.000000
-7.834300 0.000000
-7.819000 0.000000
-7.803700 0.000000
-7.788400 0.000000
-7.773100 0.000000
-7.757800 0.000000
-7.742400 0.000000
-7.727100 0.000000
-7.711800 0.000000
-7.696500 0.000000
-7.681200 0.000000
-7.665900 0.000000
-7.650600 0.000000
-7.635300 0.000000
-7.620000 0.000000
-7.604600 0.000000
-7.589300 0.000000
-7.574000 0.000000
-7.558700 0.000000
-7.543400 0.000000
-7.528100 0.000000
-7.512800 0.000000
-7.497500 0.000000
-7.482100 0.000000
-7.466800 0.000000
-7.451500 0.000000
-7.436200 0.000000
-7.420900 0.000000
-7.405600 0.000000
-7.390300 0.000000
-7.375000 0.000000
-7.359600 0.000000
-7.344300 0.000000
-7.329000 0.000000
-7.313700 0.000000
-7.298400 0.000000
-7.283100 0.000000
-7.267800 0.000000
-7.252500 0.000000
-7.237100 0.000000
-7.221800 0.000000
-7.206500 0.000000
-7.191200 0.000000
-7.175900 0.000000
-7.160600 0.000000
-7.145300 0.000000
-7.130000 0.000000
-7.114700 0.000000
-7.099300 0.000000
-7.084000 0.000000
-7.068700 0.000000
-7.053400 0.000000
-7.038100 0.000000
-7.022800 0.000000
-7.007500 0.000000
-6.992200 0.000000
-6.976800 0.000000
-6.961500 0.000000
-6.946200 0.000000
-6.930900 0.000000
-6.915600 0.000000
-6.900300 0.000000
-6.885000 0.000000
-6.869700 0.000000
-6.854300 0.000000
-6.839000 0.000000
-6.823700 0.000000
-6.808400 0.000000
-6.793100 0.000000
-6.777800 0.000000
-6.762500 0.000000
-6.747200 0.000000
-6.731900 0.000000
-6.716500 0.000000
-6.701200 0.000000
-6.685900 0.000000
-6.670600 0.000000
-6.655300 0.000000
-6.640000 0.000000
-6.624700 0.545600
-6.609400 3.432100
-6.594000 5.240500
-6.578700 8.481700
-6.563400 20.286100
-6.548100 28.251000
-6.532800 44.685100
-6.517500 50.069500
-6.502200 33.019500
-6.486900 38.458000
-6.471500 46.120500
-6.456200 76.795500
-6.440900 97.593400
-6.425600 57.599800
-6.410300 77.655100
-6.395000 92.763600
-6.379700 70.184700
-6.364400 111.823000
-6.349100 83.820200
-6.333700 67.545200
-6.318400 88.615800
-6.303100 85.181800
-6.287800 88.461700
-6.272500 94.306800
-6.257200 79.939400
-6.241900 41.904900
-6.226600 94.709200
-6.211200 68.550700
-6.195900 63.414900
-6.180600 96.288600
-6.165300 67.814300
-6.150000 89.488500
-6.134700 62.505100
-6.119400 83.092100
-6.104100 69.580600
-6.088700 107.042700
-6.073400 115.206100
-6.058100 31.464900
-6.042800 20.727700
-6.027500 16.723800
-6.012200 0.000000
-5.996900 0.000000
-5.981600 0.000000
-5.966300 0.000000
-5.950900 0.000000
-5.935600 0.000000
-5.920300 0.000000
-5.905000 0.000000
-5.889700 0.000000
-5.874400 0.000000
-5.859100 0.000000
-5.843800 0.000000
-5.828400 0.000000
-5.813100 0.000000
-5.797800 0.000000
-5.782500 0.000000
-5.767200 0.000000
-5.751900 0.000000
-5.736600 0.000000
-5.721300 0.000000
-5.705900 0.000000
-5.690600 0.000000
-5.675300 0.000000
-5.660000 0.000000
-5.644700 0.000000
-5.629400 0.000000
-5.614100 0.000000
-5.598800 0.000000
-5.583500 0.000000
-5.568100 0.000000
-5.552800 0.000000
-5.537500 0.000000
-5.522200 0.000000
-5.506900 0.000000
-5.491600 0.000000
-5.476300 0.000000
-5.461000 0.000000
-5.445600 0.000000
-5.430300 0.000000
-5.415000 0.000000
-5.399700 0.000000
-5.384400 0.000000
-5.369100 0.000000
-5.353800 0.000000
-5.338500 0.000000
-5.323100 0.000000
-5.307800 0.000000
-5.292500 0.000000
-5.277200 0.000000
-5.261900 0.000000
-5.246600 0.000000
-5.231300 0.000000
-5.216000 0.000000
-5.200700 0.000000
-5.185300 0.000000
-5.170000 0.000000
-5.154700 0.000000
-5.139400 0.000000
-5.124100 0.000000
-5.108800 0.000000
-5.093500 0.000000
-5.078200 0.000000
-5.062800 0.000000
-5.047500 0.000000
-5.032200 0.000000
-5.016900 0.000000
-5.001600 0.000000
-4.986300 0.000000
-4.971000 0.000000
-4.955700 0.000000
-4.940300 0.000000
-4.925000 0.000000
-4.909700 0.000000
-4.894400 0.000000
-4.879100 0.000000
-4.863800 0.000000
-4.848500 0.000000
-4.833200 0.000000
-4.817900 0.000000
-4.802500 0.000000
-4.787200 0.000000
-4.771900 0.000000
-4.756600 0.000000
-4.741300 0.000000
-4.726000 0.000000
-4.710700 0.000000
-4.695400 0.000000
-4.680000 0.000000
-4.664700 0.000000
-4.649400 0.000000
-4.634100 0.000000
-4.618800 0.000000
-4.603500 0.000000
-4.588200 0.000000
-4.572900 0.000000
-4.557500 0.000000
-4.542200 0.000000
-4.526900 0.000000
-4.511600 0.000000
-4.496300 0.000000
-4.481000 0.000000
-4.465700 0.000000
-4.450400 0.000000
-4.435100 0.000000
-4.419700 0.000000
-4.404400 0.000000
-4.389100 0.000000
-4.373800 0.000000
-4.358500 0.000000
-4.343200 0.000000
-4.327900 0.000000
-4.312600 0.000000
-4.297200 0.000000
-4.281900 0.000000
-4.266600 0.000000
-4.251300 0.000000
-4.236000 0.000000
-4.220700 0.000000
-4.205400 0.000000
-4.190100 0.000000
-4.174700 0.000000
-4.159400 0.000000
-4.144100 0.000000
-4.128800 0.000000
-4.113500 0.000000
-4.098200 0.000000
-4.082900 0.000000
-4.067600 0.000000
-4.052200 0.000000
-4.036900 0.000000
-4.021600 0.009400
-4.006300 0.035100
-3.991000 0.077200
-3.975700 0.135600
-3.960400 0.237400
-3.945100 0.315400
-3.929800 0.260600
-3.914400 0.278000
-3.899100 0.302400
-3.883800 0.328300
-3.868500 0.353800
-3.853200 0.378700
-3.837900 0.403300
-3.822600 0.427300
-3.807300 0.450900
-3.791900 0.465100
-3.776600 0.480000
-3.761300 0.498900
-3.746000 0.516600
-3.730700 0.532200
-3.715400 0.545800
-3.700100 0.555300
-3.684800 0.557000
-3.669400 0.563600
-3.654100 0.574200
-3.638800 0.587800
-3.623500 0.603500
-3.608200 0.619700
-3.592900 0.636200
-3.577600 0.653200
-3.562300 0.670600
-3.547000 0.688400
-3.531600 0.704900
-3.516300 0.715000
-3.501000 0.724400
-3.485700 0.733200
-3.470400 0.742000
-3.455100 0.750700
-3.439800 0.759300
-3.424500 0.771100
-3.409100 0.784600
-3.393800 0.790400
-3.378500 0.800400
-3.363200 0.811200
-3.347900 0.822000
-3.332600 0.832800
-3.317300 0.843500
-3.302000 0.854100
-3.286600 0.864700
-3.271300 0.875200
-3.256000 0.886700
-3.240700 0.898400
-3.225400 0.910500
-3.210100 0.923100
-3.194800 0.936400
-3.179500 0.950100
-3.164200 0.962200
-3.148800 0.972900
-3.133500 0.983900
-3.118200 0.997400
-3.102900 1.012700
-3.087600 1.029100
-3.072300 1.046200
-3.057000 1.063800
-3.041700 1.082100
-3.026300 1.101100
-3.011000 1.121000
-2.995700 1.144200
-2.980400 1.174500
-2.965100 1.203100
-2.949800 1.229700
-2.934500 1.251700
-2.919200 1.254500
-2.903800 1.258400
-2.888500 1.262900
-2.873200 1.267200
-2.857900 1.270400
-2.842600 1.273400
-2.827300 1.276100
-2.812000 1.278500
-2.796700 1.280400
-2.781400 1.282000
-2.766000 1.306200
-2.750700 1.322800
-2.735400 1.411200
-2.720100 1.373500
-2.704800 1.339900
-2.689500 1.310500
-2.674200 1.281500
-2.658900 1.257200
-2.643500 1.249600
-2.628200 1.246700
-2.612900 1.245800
-2.597600 1.244700
-2.582300 1.243000
-2.567000 1.240500
-2.551700 1.237400
-2.536400 1.233600
-2.521000 1.229100
-2.505700 1.217600
-2.490400 1.223900
-2.475100 1.248400
-2.459800 1.251800
-2.444500 1.263400
-2.429200 1.299000
-2.413900 1.339100
-2.398600 1.383900
-2.383200 1.434300
-2.367900 1.483500
-2.352600 1.507000
-2.337300 1.535800
-2.322000 1.561500
-2.306700 1.578900
-2.291400 1.594200
-2.276100 1.610600
-2.260700 1.664600
-2.245400 1.734900
-2.230100 1.762200
-2.214800 1.779000
-2.199500 1.785000
-2.184200 1.814000
-2.168900 1.775700
-2.153600 1.707500
-2.138200 1.638100
-2.122900 1.595200
-2.107600 1.561500
-2.092300 1.550000
-2.077000 1.539400
-2.061700 1.523100
-2.046400 1.501300
-2.031100 1.446900
-2.015800 1.381300
-2.000400 1.334400
-1.985100 1.469500
-1.969800 1.339000
-1.954500 1.193800
-1.939200 0.931500
-1.923900 0.937900
-1.908600 0.946400
-1.893300 0.956000
-1.877900 1.057300
-1.862600 1.105200
-1.847300 1.146600
-1.832000 1.204200
-1.816700 1.266500
-1.801400 1.340700
-1.786100 1.494000
-1.770800 1.597200
-1.755400 1.694500
-1.740100 1.757300
-1.724800 1.853400
-1.709500 1.947900
-1.694200 2.036400
-1.678900 2.145800
-1.663600 2.291100
-1.648300 2.471900
-1.633000 2.636900
-1.617600 2.789200
-1.602300 2.905700
-1.587000 2.986100
-1.571700 3.021000
-1.556400 2.986700
-1.541100 2.888700
-1.525800 2.803700
-1.510500 2.703600
-1.495100 2.607800
-1.479800 2.530400
-1.464500 2.436200
-1.449200 2.433700
-1.433900 2.364400
-1.418600 2.310800
-1.403300 2.233700
-1.388000 2.212500
-1.372600 2.201200
-1.357300 2.257300
-1.342000 5.810100
-1.326700 2.506800
-1.311400 2.541400
-1.296100 2.577500
-1.280800 2.614300
-1.265500 2.650600
-1.250200 2.656400
-1.234800 2.811700
-1.219500 2.877600
-1.204200 2.945300
-1.188900 2.970400
-1.173600 2.914400
-1.158300 2.954200
-1.143000 3.079800
-1.127700 3.988900
-1.112300 3.980000
-1.097000 3.950700
-1.081700 3.868100
-1.066400 3.683500
-1.051100 3.393200
-1.035800 3.304400
-1.020500 4.475300
-1.005200 3.031000
-0.989800 2.310600
-0.974500 2.540300
-0.959200 2.711100
-0.943900 2.881000
-0.928600 3.059800
-0.913300 3.139000
-0.898000 3.349800
-0.882700 3.586100
-0.867300 3.722000
-0.852000 3.864800
-0.836700 4.040500
-0.821400 4.656000
-0.806100 5.302700
-0.790800 5.722800
-0.775500 6.105000
-0.760200 6.504100
-0.744900 6.456100
-0.729500 6.309100
-0.714200 5.958500
-0.698900 5.432600
-0.683600 5.157500
-0.668300 5.069100
-0.653000 5.339200
-0.637700 5.555100
-0.622400 5.779200
-0.607000 6.435100
-0.591700 5.647600
-0.576400 5.457100
-0.561100 5.344800
-0.545800 5.219000
-0.530500 5.062200
-0.515200 4.853200
-0.499900 4.710600
-0.484500 4.538800
-0.469200 4.346500
-0.453900 4.105900
-0.438600 3.904700
-0.423300 3.857000
-0.408000 3.657700
-0.392700 3.530600
-0.377400 3.415100
-0.362100 3.343200
-0.346700 3.354300
-0.331400 3.368900
-0.316100 3.390400
-0.300800 3.460700
-0.285500 3.585400
-0.270200 3.644800
-0.254900 3.698500
-0.239600 3.768600
-0.224200 3.866700
-0.208900 3.885600
-0.193600 3.864400
-0.178300 3.831000
-0.163000 3.673100
-0.147700 3.545400
-0.132400 3.482700
-0.117100 3.441400
-0.101700 3.362500
-0.086400 3.326600
-0.071100 3.310300
-0.055800 3.289100
-0.040500 3.242900
-0.025200 3.258600
-0.009900 3.281500
0.005400 3.310300
0.020700 3.343400
0.036100 3.381000
0.051400 3.572900
0.066700 3.494700
0.082000 3.288300
0.097300 3.104700
0.112600 2.966400
0.127900 2.903200
0.143200 2.905500
0.158600 2.900500
0.173900 2.874600
0.189200 2.838300
0.204500 2.812500
0.219800 2.729100
0.235100 2.501000
0.250400 2.340200
0.265700 2.244500
0.281100 1.242100
0.296400 1.286100
0.311700 2.475200
0.327000 3.841700
0.342300 4.732000
0.357600 5.571400
0.372900 6.135400
0.388200 6.971500
0.403500 8.772300
0.418900 10.311800
0.434200 10.271600
0.449500 8.770400
0.464800 7.524600
0.480100 7.397100
0.495400 7.358000
0.510700 7.243800
0.526000 7.132400
0.541400 6.938200
0.556700 6.826100
0.572000 6.637600
0.587300 6.344100
0.602600 6.092400
0.617900 5.984500
0.633200 5.904900
0.648500 5.888300
0.663900 5.885200
0.679200 5.241000
0.694500 5.196500
0.709800 5.226200
0.725100 5.293100
0.740400 5.384600
0.755700 5.499200
0.771000 5.632600
0.786300 5.724800
0.801700 6.312000
0.817000 6.050100
0.832300 6.246300
0.847600 6.646800
0.862900 13.715000
0.878200 12.731300
0.893500 11.714000
0.908800 11.692900
0.924200 9.182500
0.939500 7.765600
0.954800 7.841600
0.970100 8.119100
0.985400 9.323600
1.000700 8.463600
1.016000 8.994000
1.031300 10.980800
1.046700 12.707700
1.062000 21.049400
1.077300 11.041200
1.092600 9.199000
1.107900 8.141900
1.123200 7.725400
1.138500 7.891500
1.153800 7.898100
1.169100 8.124800
1.184500 9.408100
1.199800 11.107400
1.215100 12.799300
1.230400 15.236100
1.245700 16.760600
1.261000 16.111000
1.276300 10.174200
1.291600 13.295000
1.307000 23.289800
1.322300 23.324400
1.337600 22.795900
1.352900 17.141000
1.368200 26.864400
1.383500 17.521400
1.398800 21.163700
1.414100 10.908700
1.429500 10.314500
1.444800 9.962300
1.460100 9.541400
1.475400 9.173200
1.490700 9.962300
1.506000 9.691900
1.521300 10.507400
1.536600 8.422200
1.551900 8.036500
1.567300 7.744800
1.582600 7.552700
1.597900 7.435000
1.613200 7.280000
1.628500 7.102200
1.643800 6.924200
1.659100 6.732500
1.674400 6.747900
1.689800 6.892700
1.705100 5.683800
1.720400 5.100300
1.735700 4.788900
1.751000 4.847200
1.766300 4.917400
1.781600 5.107200
1.796900 5.233100
1.812300 6.091800
1.827600 6.564700
1.842900 7.280900
1.858200 7.810500
1.873500 8.722600
1.888800 6.568500
1.904100 5.967100
1.919400 5.705500
1.934700 5.550800
1.950100 5.410900
1.965400 5.234900
1.980700 5.118300
1.996000 5.149600
2.011300 5.233700
2.026600 5.269300
2.041900 5.330900
2.057200 5.364700
2.072600 5.427300
2.087900 5.491100
2.103200 5.492600
2.118500 5.523300
2.133800 5.659800
2.149100 5.841800
2.164400 6.032400
2.179700 6.108500
2.195100 6.135200
2.210400 6.187500
2.225700 6.263900
2.241000 6.382500
2.256300 6.633200
2.271600 6.962300
2.286900 6.893600
2.302200 6.932100
2.317600 7.096200
2.332900 7.335100
2.348200 9.078300
2.363500 10.995000
2.378800 11.456200
2.394100 11.889200
2.409400 12.544900
2.424700 8.903900
2.440000 4.602200
2.455400 4.274300
2.470700 4.057300
2.486000 3.945800
2.501300 3.804000
2.516600 2.996800
2.531900 2.613300
2.547200 2.429300
2.562500 2.264200
2.577900 2.215400
2.593200 2.174200
2.608500 2.136700
2.623800 2.103200
2.639100 2.075000
2.654400 2.094300
2.669700 2.116900
2.685000 2.051800
2.700400 2.026000
2.715700 2.033200
2.731000 2.045900
2.746300 2.060200
2.761600 2.076300
2.776900 2.094200
2.792200 2.114100
2.807500 2.139900
2.822800 2.175200
2.838200 2.251700
2.853500 2.390400
2.868800 2.502600
2.884100 2.702100
2.899400 2.966400
2.914700 3.154100
2.930000 3.242100
2.945300 3.322100
2.960700 3.417700
2.976000 3.454500
2.991300 3.429000
3.006600 3.367200
3.021900 3.319500
3.037200 3.209200
3.052500 3.103200
3.067800 2.998100
3.083200 2.889300
3.098500 2.819000
3.113800 2.735800
3.129100 2.656300
3.144400 2.594400
3.159700 2.504200
3.175000 2.419300
3.190300 2.362200
3.205600 2.333700
3.221000 2.359200
3.236300 2.105300
3.251600 2.049900
3.266900 1.940700
3.282200 1.892000
3.297500 1.869700
3.312800 1.848200
3.328100 1.828700
3.343500 1.811400
3.358800 1.796300
3.374100 1.774100
3.389400 1.739700
3.404700 1.725800
3.420000 1.714100
3.435300 1.704200
3.450600 1.682100
3.466000 1.673900
3.481300 1.682300
3.496600 1.652000
3.511900 1.627000
3.527200 1.608600
3.542500 1.592600
3.557800 1.578400
3.573100 1.566200
3.588400 1.562900
3.603800 1.581500
3.619100 1.563900
3.634400 1.509700
3.649700 1.488800
3.665000 1.470200
3.680300 1.454100
3.695600 1.440500
3.710900 1.414300
3.726300 1.400700
3.741600 1.388600
3.756900 1.378000
3.772200 1.368900
3.787500 1.361300
3.802800 1.344100
3.818100 1.337800
3.833400 1.332900
3.848800 1.329200
3.864100 1.317500
3.879400 1.302100
3.894700 1.349900
3.910000 1.512900
3.925300 1.612300
3.940600 1.445600
3.955900 1.412500
3.971200 1.386000
3.986600 1.366700
4.001900 1.356000
4.017200 1.353900
4.032500 1.318400
4.047800 1.362900
4.063100 1.412700
4.078400 1.468300
4.093700 1.536900
4.109100 1.689200
4.124400 1.782000
4.139700 1.849500
4.155000 1.901000
4.170300 1.923500
4.185600 1.941700
4.200900 1.958500
4.216200 1.974100
4.231600 1.988000
4.246900 2.000400
4.262200 2.011100
4.277500 2.020300
4.292800 2.035700
4.308100 2.025200
4.323400 2.058300
4.338700 2.127400
4.354000 2.193000
4.369400 2.270400
4.384700 2.341100
4.400000 2.360900
4.415300 2.183100
4.430600 2.130300
4.445900 2.126700
4.461200 2.141700
4.476500 2.167200
4.491900 2.202500
4.507200 2.259200
4.522500 2.401000
4.537800 2.336300
4.553100 2.375300
4.568400 2.550900
4.583700 2.559300
4.599000 2.590900
4.614400 2.630900
4.629700 3.150100
4.645000 3.686000
4.660300 3.910400
4.675600 3.736300
4.690900 3.691000
4.706200 3.720200
4.721500 3.733800
4.736800 3.754600
4.752200 3.744000
4.767500 3.718000
4.782800 3.681300
4.798100 3.599500
4.813400 3.533700
4.828700 3.555100
4.844000 3.477500
4.859300 3.380700
4.874700 3.268600
4.890000 3.141800
4.905300 3.002000
4.920600 2.807100
4.935900 2.576700
4.951200 2.498200
4.966500 2.482300
4.981800 2.461200
4.997200 2.350600
5.012500 2.325200
5.027800 2.301700
5.043100 2.278000
5.058400 2.246300
5.073700 2.197600
5.089000 2.136500
5.104300 2.060700
5.119700 1.989100
5.135000 1.925100
5.150300 1.902500
5.165600 1.898100
5.180900 1.888400
5.196200 1.876400
5.211500 1.867400
5.226800 1.889600
5.242100 1.887000
5.257500 1.912900
5.272800 1.923700
5.288100 2.022800
5.303400 2.122400
5.318700 2.221300
5.334000 2.370000
5.349300 2.549800
5.364600 2.741400
5.380000 2.943600
5.395300 3.225700
5.410600 3.467200
5.425900 3.502200
5.441200 3.403200
5.456500 3.381800
5.471800 3.346100
5.487100 3.297000
5.502500 3.179300
5.517800 3.141600
5.533100 3.119300
5.548400 3.094800
5.563700 3.069400
5.579000 3.043100
5.594300 2.888100
5.609600 2.806200
5.624900 2.772400
5.640300 2.733100
5.655600 2.689700
5.670900 2.648800
5.686200 2.614600
5.701500 2.589500
5.716800 2.562700
5.732100 2.518800
5.747400 2.501300
5.762800 2.505800
5.778100 2.516300
5.793400 2.504900
5.808700 2.486400
5.824000 2.466400
5.839300 2.445800
5.854600 2.471000
5.869900 2.626800
5.885300 2.744600
5.900600 2.745500
5.915900 2.746300
5.931200 2.738300
5.946500 2.738500
5.961800 2.860400
5.977100 2.895300
5.992400 2.921800
6.007700 2.927400
6.023100 2.915000
6.038400 2.888900
6.053700 2.830500
6.069000 2.665300
6.084300 2.474700
6.099600 2.391800
6.114900 2.331200
6.130200 2.280700
6.145600 2.231100
6.160900 2.181600
6.176200 2.136000
6.191500 2.096900
6.206800 2.063100
6.222100 2.034500
6.237400 2.011200
6.252700 1.993100
6.268100 1.980200
6.283400 1.970900
6.298700 1.964600
6.314000 1.963400
6.329300 1.965600
6.344600 1.970700
6.359900 1.980700
6.375200 1.997100
6.390500 2.019700
6.405900 2.048700
6.421200 2.083700
6.436500 2.185500
6.451800 2.233100
6.467100 2.306700
6.482400 2.376200
6.497700 2.437500
6.513000 2.544000
6.528400 2.724900
6.543700 2.789100
6.559000 2.851600
6.574300 2.904800
6.589600 2.936000
6.604900 2.971600
6.620200 3.002500
6.635500 3.022400
6.650900 3.033300
6.666200 3.165800
6.681500 3.226600
6.696800 3.171500
6.712100 3.033300
6.727400 2.956200
6.742700 3.187300
6.758000 3.269700
6.773300 3.325100
6.788700 3.336000
6.804000 3.345900
6.819300 3.340600
6.834600 3.321100
6.849900 3.282000
6.865200 3.232900
6.880500 3.197900
6.895800 3.180000
6.911200 3.145200
6.926500 3.066400
6.941800 3.084000
6.957100 3.194900
6.972400 3.321900
6.987700 3.461100
7.003000 3.565600
7.018300 3.559300
7.033700 3.434900
7.049000 3.283200
7.064300 3.245500
7.079600 3.220300
7.094900 3.204800
7.110200 3.235600
7.125500 3.553100
7.140800 3.283400
7.156100 3.080800
7.171500 3.094900
7.186800 3.097200
7.202100 3.098300
7.217400 3.096400
7.232700 3.065200
7.248000 3.045800
7.263300 3.050700
7.278600 3.032800
7.294000 3.013600
7.309300 2.992800
7.324600 2.970500
7.339900 2.945300
7.355200 2.930900
7.370500 2.932600
7.385800 2.946500
7.401100 2.968100
7.416500 2.980200
7.431800 2.952000
7.447100 2.858100
7.462400 2.820200
7.477700 2.796500
7.493000 2.780400
7.508300 2.775600
7.523600 2.775800
7.538900 2.834700
7.554300 2.819500
7.569600 2.792800
7.584900 2.787200
7.600200 2.771200
7.615500 2.760600
7.630800 2.750200
7.646100 2.745100
7.661400 2.744300
7.676800 2.749200
7.692100 2.761300
7.707400 2.773500
7.722700 2.786000
7.738000 2.798400
7.753300 2.826800
7.768600 2.870900
7.783900 2.917700
7.799300 2.967400
7.814600 3.021300
7.829900 3.077500
7.845200 3.138400
7.860500 3.209500
7.875800 3.262100
7.891100 3.296600
7.906400 3.305600
7.921700 3.385900
7.937100 3.292100
7.952400 3.246000
7.967700 3.243600
7.983000 3.275000
7.998300 3.312000
8.013600 3.339600
8.028900 3.472100
8.044200 3.515700
8.059600 3.553900
8.074900 3.554200
8.090200 3.538000
8.105500 3.504700
8.120800 3.448200
8.136100 3.273400
8.151400 3.135500
8.166700 3.062800
8.182100 2.987800
8.197400 2.936500
8.212700 2.926000
8.228000 2.937600
8.243300 2.952800
8.258600 2.970600
8.273900 3.061400
8.289200 3.171200
8.304600 3.293200
8.319900 3.514900
8.335200 3.497900
8.350500 3.554700
8.365800 3.602900
8.381100 3.646900
8.396400 3.674400
8.411700 3.665600
8.427000 3.654700
8.442400 3.668400
8.457700 3.684900
8.473000 3.699500
8.488300 3.678000
8.503600 3.669900
8.518900 3.682600
8.534200 3.696300
8.549500 3.685300
8.564900 3.632400
8.580200 3.571000
8.595500 3.561700
8.610800 3.493800
8.626100 3.435300
8.641400 3.386500
8.656700 3.343700
8.672000 3.326200
8.687400 3.307000
8.702700 3.295700
8.718000 3.305900
8.733300 3.324000
8.748600 3.341100
8.763900 3.358600
8.779200 3.379600
8.794500 3.413700
8.809800 3.445500
8.825200 3.460300
8.840500 3.483400
8.855800 3.523000
8.871100 3.574700
8.886400 3.639300
8.901700 3.693400
8.917000 3.712200
8.932300 3.725700
8.947700 3.722900
8.963000 3.721200
8.978300 3.724100
8.993600 3.720500
9.008900 3.715400
9.024200 3.712000
9.039500 3.726200
9.054800 3.765700
9.070200 3.825500
9.085500 3.857000
9.100800 3.828700
9.116100 3.760300
9.131400 3.654800
9.146700 3.613900
9.162000 3.593400
9.177300 3.598300
9.192600 3.637700
9.208000 3.678300
9.223300 3.686400
9.238600 3.971300
9.253900 3.815000
9.269200 3.841100
9.284500 3.887600
9.299800 3.931500
9.315100 4.022400
9.330500 4.045600
9.345800 4.355600
9.361100 4.322300
9.376400 4.256500
9.391700 4.054700
9.407000 3.968400
9.422300 3.942800
9.437600 3.952200
9.453000 3.949900
9.468300 4.069700
9.483600 4.008400
9.498900 3.913200
9.514200 3.847000
9.529500 3.812900
9.544800 3.772100
9.560100 3.743600
9.575400 3.744800
9.590800 3.796300
9.606100 3.774600
9.621400 3.742500
9.636700 3.790200
9.652000 3.825800
9.667300 3.769300
9.682600 3.682500
9.697900 3.594500
9.713300 3.519100
9.728600 3.315500
9.743900 3.104900
9.759200 3.038900
9.774500 2.976500
9.789800 2.924900
9.805100 2.943200
9.820400 2.948200
9.835800 3.000100
9.851100 3.054900
9.866400 3.100100
9.881700 3.167400
9.897000 3.297700
9.912300 3.303300
9.927600 3.343700
9.942900 3.294800
9.958200 3.278400
9.973600 3.217900
9.988900 3.131900
10.004200 3.081000
10.019500 3.004600
10.034800 2.935100
10.050100 2.871200
10.065400 2.812700
10.080700 2.771200
10.096100 2.763200
10.111400 2.762000
10.126700 2.771400
10.142000 2.788300
10.157300 2.814100
10.172600 2.847900
10.187900 2.815100
10.203200 2.773800
10.218600 2.761000
10.233900 2.754300
10.249200 2.749300
10.264500 2.745900
10.279800 2.751700
10.295100 2.753200
10.310400 2.763300
10.325700 2.834900
10.341000 2.967500
10.356400 2.971900
10.371700 3.043500
10.387000 3.131700
10.402300 3.157200
10.417600 3.191700
10.432900 3.235400
10.448200 3.289000
10.463500 3.352100
10.478900 3.424500
10.494200 3.505300
10.509500 3.613900
10.524800 3.730300
10.540100 3.914300
10.555400 3.952800
10.570700 3.940700
10.586000 3.934900
10.601400 3.854700
10.616700 3.811400
10.632000 3.712300
10.647300 3.601900
10.662600 3.477200
10.677900 3.357300
10.693200 3.222600
10.708500 3.085100
10.723800 2.947900
10.739200 2.744600
10.754500 2.658800
10.769800 2.592100
10.785100 2.541600
10.800400 2.494900
10.815700 2.460800
10.831000 2.430800
10.846300 2.419300
10.861700 2.417200
10.877000 2.433100
10.892300 2.468400
10.907600 2.503500
10.922900 2.796900
10.938200 2.440700
10.953500 2.481900
10.968800 2.539500
10.984200 2.596200
10.999500 2.654500
11.014800 2.777500
11.030100 2.854400
11.045400 2.912900
11.060700 2.967900
11.076000 3.011300
11.091300 3.169600
11.106600 3.214800
11.122000 3.397800
11.137300 3.584500
11.152600 3.439200
11.167900 3.418000
11.183200 3.435200
11.198500 3.472900
11.213800 3.488600
11.229100 3.500900
11.244500 3.519100
11.259800 3.573900
11.275100 3.657800
11.290400 3.507600
11.305700 3.319900
11.321000 3.220400
11.336300 3.130200
11.351600 2.971900
11.367000 2.864300
11.382300 2.751700
11.397600 2.508800
11.412900 2.526600
11.428200 2.574700
11.443500 2.702600
11.458800 2.778400
11.474100 2.832100
11.489500 2.964100
11.504800 3.187300
11.520100 2.933100
11.535400 2.867200
11.550700 2.807400
11.566000 2.746800
11.581300 2.698400
11.596600 2.668800
11.611900 2.637200
11.627300 2.625300
11.642600 2.624900
11.657900 2.646700
11.673200 2.702300
11.688500 2.763600
11.703800 2.822200
11.719100 2.844000
11.734400 2.797800
11.749800 2.745600
11.765100 2.711300
11.780400 2.664400
11.795700 2.564800
11.811000 2.536400
11.826300 2.543800
11.841600 2.523500
11.856900 2.497800
11.872300 2.437200
11.887600 2.428900
11.902900 2.372300
11.918200 2.326000
11.933500 2.292700
11.948800 2.265500
11.964100 2.236500
11.979400 2.204600
11.994700 2.292400
12.010100 2.344100
12.025400 2.398700
12.040700 2.455200
12.056000 2.511800
12.071300 2.532100
12.086600 2.508100
12.101900 2.557100
12.117200 2.431700
12.132600 2.419500
12.147900 2.422200
12.163200 2.435200
12.178500 2.433800
12.193800 2.427900
12.209100 2.451400
12.224400 2.478900
12.239700 2.510500
12.255100 2.547300
12.270400 2.586700
12.285700 2.631900
12.301000 2.679600
12.316300 2.730900
12.331600 2.788000
12.346900 2.849400
12.362200 2.915500
12.377500 3.020600
12.392900 3.197100
12.408200 3.176800
12.423500 3.253000
12.438800 3.331800
12.454100 3.390100
12.469400 4.926000
12.484700 3.134900
12.500000 3.098900
12.515400 3.046500
12.530700 3.002800
12.546000 2.977400
12.561300 2.907600
12.576600 2.837100
12.591900 2.765700
12.607200 2.693000
12.622500 2.616200
12.637900 2.594300
12.653200 2.507200
12.668500 2.432800
12.683800 2.386800
12.699100 2.317100
12.714400 2.279900
12.729700 2.278700
12.745000 2.339300
12.760300 2.430500
12.775700 2.502800
12.791000 2.776600
12.806300 2.909400
12.821600 3.034700
12.836900 3.152200
12.852200 3.255300
12.867500 3.432300
12.882800 3.569800
12.898200 3.631800
12.913500 3.645200
12.928800 3.657000
12.944100 3.676100
12.959400 3.718500
12.974700 3.866100
12.990000 3.911500
13.005300 3.950500
13.020700 3.980800
13.036000 4.072000
13.051300 3.997100
13.066600 3.937500
13.081900 3.839000
13.097200 3.665500
13.112500 3.452800
13.127800 3.184800
13.143100 2.905700
13.158500 2.598600
13.173800 2.478000
13.189100 2.451100
13.204400 2.427000
13.219700 2.404700
13.235000 2.382000
13.250300 2.367400
13.265600 2.374100
13.281000 2.739900
13.296300 3.094100
13.311600 3.025100
13.326900 2.942300
13.342200 2.857100
13.357500 2.767200
13.372800 2.677700
13.388100 2.626200
13.403500 2.542900
13.418800 2.481000
13.434100 2.431000
13.449400 2.394300
13.464700 2.448200
13.480000 2.681500
13.495300 2.722100
13.510600 2.751200
13.525900 2.794100
13.541300 2.852700
13.556600 2.876900
13.571900 2.860100
13.587200 2.862200
13.602500 2.861000
13.617800 2.857800
13.633100 2.853400
13.648400 2.846600
13.663800 2.838100
13.679100 2.825700
13.694400 2.810700
13.709700 2.812800
13.725000 2.814700
13.740300 2.816400
13.755600 2.816000
13.770900 2.813200
13.786300 2.810000
13.801600 2.807800
13.816900 2.824600
13.832200 2.879800
13.847500 2.890000
13.862800 2.888100
13.878100 2.938400
13.893400 3.014400
13.908700 3.026200
13.924100 3.132600
13.939400 3.227900
13.954700 3.318400
13.970000 3.406000
13.985300 3.865700
14.000600 4.023900
14.015900 3.732900
14.031200 3.558400
14.046600 3.810700
14.061900 4.159500
14.077200 4.425900
14.092500 4.068100
14.107800 3.996900
14.123100 3.922000
14.138400 3.836600
14.153700 3.733300
14.169100 3.620600
14.184400 3.498500
14.199700 3.371400
14.215000 3.286400
14.230300 3.338500
14.245600 3.321200
14.260900 3.311500
14.276200 3.321500
14.291500 3.370800
14.306900 3.387600
14.322200 3.345100
14.337500 3.409400
14.352800 3.394300
14.368100 3.406000
14.383400 3.628100
14.398700 3.290500
14.414000 3.311700
14.429400 3.352800
14.444700 3.359500
14.460000 3.379300
14.475300 3.478000
14.490600 3.600000
14.505900 3.730700
14.521200 3.864700
14.536500 4.031700
14.551900 4.192000
14.567200 4.381200
14.582500 4.400400
14.597800 4.365700
14.613100 4.351700
14.628400 4.358200
14.643700 4.372800
14.659000 4.397300
14.674400 4.446400
14.689700 4.348000
14.705000 4.311600
14.720300 4.309700
14.735600 4.303900
14.750900 4.249000
14.766200 4.218200
14.781500 4.222100
14.796800 4.233200
14.812200 4.260800
14.827500 4.313200
14.842800 4.377900
14.858100 4.315100
14.873400 4.193300
14.888700 4.017700
14.904000 3.961700
14.919300 3.944600
14.934700 3.958200
14.950000 4.043200
14.965300 4.281700
14.980600 4.586000
14.995900 4.414000
15.011200 3.851800
15.026500 3.775000
15.041800 3.730600
15.057200 4.493500
15.072500 3.843400
15.087800 3.800500
15.103100 3.769400
15.118400 3.742300
15.133700 3.781400
15.149000 3.830500
15.164300 3.888800
15.179600 3.956200
15.195000 4.066000
15.210300 4.090700
15.225600 4.139000
15.240900 4.184300
15.256200 4.252000
15.271500 4.438100
15.286800 4.556500
15.302100 4.524700
15.317500 4.565900
15.332800 4.599300
15.348100 4.659800
15.363400 4.816600
15.378700 4.954500
15.394000 5.462400
15.409300 4.991800
15.424600 4.948100
15.440000 4.808100
15.455300 4.721300
15.470600 4.638400
15.485900 4.826600
15.501200 4.576500
15.516500 4.489900
15.531800 4.493900
15.547100 4.586900
15.562400 4.688800
15.577800 4.705300
15.593100 4.800300
15.608400 4.844400
15.623700 4.893100
15.639000 4.878000
15.654300 4.892200
15.669600 4.923600
15.684900 4.947100
15.700300 4.987500
15.715600 4.958900
15.730900 4.943800
15.746200 4.916000
15.761500 5.004100
15.776800 4.912200
15.792100 4.850700
15.807400 4.799600
15.822800 4.758100
15.838100 4.794700
15.853400 4.762200
15.868700 4.702500
15.884000 4.666800
15.899300 4.781400
15.914600 4.610700
15.929900 4.559400
15.945200 4.607900
15.960600 4.637300
15.975900 4.630800
15.991200 4.647100
16.006500 4.569000
16.021800 4.660900
16.037100 4.821400
16.052400 4.913600
16.067700 4.949800
16.083100 4.967300
16.098400 5.019200
16.113700 5.030700
16.129000 5.034500
16.144300 5.033500
16.159600 5.020100
16.174900 5.020600
16.190200 4.967800
16.205600 4.971400
16.220900 5.091900
16.236200 5.180300
16.251500 5.214400
16.266800 5.186900
16.282100 5.334100
16.297400 5.486400
16.312700 5.618500
16.328000 5.729900
16.343400 5.796100
16.358700 5.802200
16.374000 5.753400
16.389300 5.688300
16.404600 5.616400
16.419900 5.555900
16.435200 5.521700
16.450500 5.444900
16.465900 5.383000
16.481200 5.350900
16.496500 5.265600
16.511800 5.280800
16.527100 5.339900
16.542400 5.315400
16.557700 5.166300
16.573000 4.968200
16.588400 4.624700
16.603700 4.638300
16.619000 4.727700
16.634300 4.781400
16.649600 4.846700
16.664900 4.972600
16.680200 5.074800
16.695500 5.186000
16.710800 5.337600
16.726200 5.447300
16.741500 5.570300
16.756800 5.678200
16.772100 5.685300
16.787400 5.749400
16.802700 5.785800
16.818000 5.808100
16.833300 5.790900
16.848700 5.657900
16.864000 5.639200
16.879300 5.649100
16.894600 5.893000
16.909900 5.511000
16.925200 5.313900
16.940500 5.173800
16.955800 5.078200
16.971200 5.002600
16.986500 4.812800
17.001800 4.789300
17.017100 4.794800
17.032400 4.781700
17.047700 4.856500
17.063000 4.906400
17.078300 4.981000
17.093600 5.069000
17.109000 5.119300
17.124300 5.200500
17.139600 5.252900
17.154900 5.307000
17.170200 5.339400
17.185500 5.389000
17.200800 5.321700
17.216100 5.223600
17.231500 5.077000
17.246800 4.954000
17.262100 4.910700
17.277400 4.928600
17.292700 4.957000
17.308000 4.883600
17.323300 4.790900
17.338600 4.751400
17.354000 4.743800
17.369300 4.742900
17.384600 4.776100
17.399900 4.768500
17.415200 4.754800
17.430500 4.781500
17.445800 4.762800
17.461100 4.821000
17.476500 4.938600
17.491800 4.939700
17.507100 4.931700
17.522400 4.926000
17.537700 4.946700
17.553000 5.131900
17.568300 5.184400
17.583600 5.011500
17.598900 5.617400
17.614300 5.018700
17.629600 4.988100
17.644900 4.953800
17.660200 4.889000
17.675500 4.855300
17.690800 4.830900
17.706100 4.982300
17.721400 4.966700
17.736800 4.946000
17.752100 4.931700
17.767400 4.910600
17.782700 4.877300
17.798000 4.857100
17.813300 5.243400
17.828600 5.160400
17.843900 4.954800
17.859300 5.038400
17.874600 5.045400
17.889900 5.144800
17.905200 5.183100
17.920500 5.218800
17.935800 5.251700
17.951100 5.279500
17.966400 5.292700
17.981700 5.335600
17.997100 5.434200
18.012400 5.499500
18.027700 5.568800
18.043000 5.611100
18.058300 5.705700
18.073600 5.990300
18.088900 6.029400
18.104200 6.053400
18.119600 6.146400
18.134900 6.169500
18.150200 6.146300
18.165500 6.119100
18.180800 6.108100
18.196100 6.092200
18.211400 6.056800
18.226700 5.979000
18.242100 5.970000
18.257400 5.976300
18.272700 5.991400
18.288000 5.938700
18.303300 5.721000
18.318600 5.308900
18.333900 5.381500
18.349200 5.503800
18.364500 5.680500
18.379900 6.121500
18.395200 5.456500
18.410500 5.362000
18.425800 5.383000
18.441100 5.293200
18.456400 5.237500
18.471700 5.251600
18.487000 5.504200
18.502400 5.449500
18.517700 5.406200
18.533000 5.453300
18.548300 5.491300
18.563600 5.513800
18.578900 5.506100
18.594200 5.542300
18.609500 5.703800
18.624900 5.712600
18.640200 5.691900
18.655500 5.651600
18.670800 5.581200
18.686100 5.471100
18.701400 5.494500
18.716700 5.573000
18.732000 5.509600
18.747300 5.367900
18.762700 5.245500
18.778000 5.209300
18.793300 5.099900
18.808600 4.967300
18.823900 4.845500
18.839200 4.773500
18.854500 4.682500
18.869800 4.616000
18.885200 4.561700
18.900500 4.526200
18.915800 4.493800
18.931100 4.462300
18.946400 4.475800
18.961700 4.518800
18.977000 4.561200
18.992300 4.608200
19.007700 4.660800
19.023000 4.659200
19.038300 4.607200
19.053600 4.580700
19.068900 4.566100
19.084200 4.739500
19.099500 4.668600
19.114800 4.578500
19.130100 4.560500
19.145500 4.452700
19.160800 4.356700
19.176100 4.102800
19.191400 3.958300
19.206700 3.901300
19.222000 3.910600
19.237300 3.902700
19.252600 3.909400
19.268000 3.911800
19.283300 3.904200
19.298600 3.841300
19.313900 3.786400
19.329200 3.736500
19.344500 3.686500
19.359800 3.605100
19.375100 3.515200
19.390500 3.373900
19.405800 3.170200
19.421100 2.981200
19.436400 2.892100
19.451700 2.817700
19.467000 2.753300
19.482300 2.698900
19.497600 2.650000
19.512900 2.605900
19.528300 2.566100
19.543600 2.530900
19.558900 2.496600
19.574200 2.461300
19.589500 2.430500
19.604800 2.394700
19.620100 2.368200
19.635400 2.360800
19.650800 2.330000
19.666100 2.277200
19.681400 2.191700
19.696700 2.098000
19.712000 2.018400
19.727300 1.944100
19.742600 1.873400
19.757900 1.805500
19.773300 1.739700
19.788600 1.664900
19.803900 1.606900
19.819200 1.560100
19.834500 1.493900
19.849800 1.461900
19.865100 1.434200
19.880400 1.408100
19.895700 1.387000
19.911100 1.360900
19.926400 1.316600
19.941700 1.326500
19.957000 1.336900
19.972300 1.338400
19.987600 1.237400
20.002900 1.183200
20.018200 1.145900
20.033600 1.106000
20.048900 1.060400
20.064200 0.996300
20.079500 0.914300
20.094800 0.831900
20.110100 0.758400
20.125400 0.696100
20.140700 0.573500
20.156100 0.510900
20.171400 0.455200
20.186700 0.409400
20.202000 0.372600
20.217300 0.339200
20.232600 0.307900
20.247900 0.279000
20.263200 0.252200
20.278500 0.227700
20.293900 0.205500
20.309200 0.185500
20.324500 0.167700
20.339800 0.153400
20.355100 0.142800
20.370400 0.133700
20.385700 0.126200
20.401000 0.120300
20.416400 0.115300
20.431700 0.103900
20.447000 0.100300
20.462300 0.096900
20.477600 0.093700
20.492900 0.090500
20.508200 0.087300
20.523500 0.084300
20.538900 0.081300
20.554200 0.078400
20.569500 0.075600
20.584800 0.072900
20.600100 0.070200
20.615400 0.067700
20.630700 0.065200
20.646000 0.062800
20.661400 0.060400
20.676700 0.058200
20.692000 0.056000
20.707300 0.053300
20.722600 0.050300
20.737900 0.047500
20.753200 0.044800
20.768500 0.042200
20.783800 0.039700
20.799200 0.037300
20.814500 0.035000
20.829800 0.032800
20.845100 0.030800
20.860400 0.028800
20.875700 0.027000
20.891000 0.025300
20.906300 0.023700
20.921700 0.022200
20.937000 0.020700
20.952300 0.019300
20.967600 0.018000
20.982900 0.016700
20.998200 0.015500
21.013500 0.014300
21.028800 0.013200
21.044200 0.012100
21.059500 0.011100
21.074800 0.010100
21.090100 0.009200
21.105400 0.008300
21.120700 0.007500
21.136000 0.006700
21.151300 0.006000
21.166600 0.005400
21.182000 0.004700
21.197300 0.004200
21.212600 0.003700
21.227900 0.000000
21.243200 0.000000
21.258500 0.000000
21.273800 0.000000
21.289100 0.000000
21.304500 0.000000
21.319800 0.000000
21.335100 0.000000
21.350400 0.000000
21.365700 0.000000
21.381000 0.000000
21.396300 0.000000
21.411600 0.000000
21.427000 0.000000
21.442300 0.000000
21.457600 0.000000
21.472900 0.000000
21.488200 0.000000
21.503500 0.000000
21.518800 0.000000
21.534100 0.000000
21.549400 0.000000
21.564800 0.000000
21.580100 0.000000
21.595400 0.000000
21.610700 0.000000
21.626000 0.000000
21.641300 0.000000
21.656600 0.000000
21.671900 0.000000
21.687300 0.000000
21.702600 0.000000
21.717900 0.000000
21.733200 0.000000
21.748500 0.000000
21.763800 0.000000
21.779100 0.000000
21.794400 0.000000
21.809800 0.000000
21.825100 0.000000
21.840400 0.000000
21.855700 0.000000
21.871000 0.000000
21.886300 0.000000
21.901600 0.000000
21.916900 0.000000
21.932200 0.000000
21.947600 0.000000
21.962900 0.000000
21.978200 0.000000
21.993500 0.000000
22.008800 0.000000
22.024100 0.000000
22.039400 0.000000
22.054700 0.000000
22.070100 0.000000
22.085400 0.000000
22.100700 0.000000
22.116000 0.000000
22.131300 0.000000
22.146600 0.000000
22.161900 0.000000
22.177200 0.000000
22.192600 0.000000
22.207900 0.000000
22.223200 0.000000
22.238500 0.000000
22.253800 0.000000
22.269100 0.000000
22.284400 0.000000
22.299700 0.000000
22.315000 0.000000
22.330400 0.000000
22.345700 0.000000
22.361000 0.000000
22.376300 0.000000
22.391600 0.000000
22.406900 0.000000
22.422200 0.000000
22.437500 0.000000
22.452900 0.000000
22.468200 0.000000
22.483500 0.000000
22.498800 0.000000
22.514100 0.000000
22.529400 0.000000
22.544700 0.000000
22.560000 0.000000
22.575400 0.000000
22.590700 0.000000
22.606000 0.000000
e
