set title 'mp-1079649 - Density of States'
set xlabel 'Energy (eV)'
set ylabel 'DOS (states/eV)'
set grid
set xrange [-10:10]
set yrange [0:4.179]
set xzeroaxis lt -1
set terminal png size 800,600
set output 'mp-1079649_dos_gnuplot.png'
plot '-' using 1:2 with lines title 'DOS'
-5.662500 0.000000
-5.648600 0.000000
-5.634700 0.000000
-5.620800 0.000000
-5.606900 0.000000
-5.593000 0.000000
-5.579200 0.000000
-5.565300 0.000000
-5.551400 0.000000
-5.537500 0.000000
-5.523600 0.000000
-5.509700 0.000000
-5.495900 0.000000
-5.482000 0.000000
-5.468100 0.000000
-5.454200 0.000000
-5.440300 0.000000
-5.426400 0.000000
-5.412500 0.000000
-5.398700 0.000000
-5.384800 0.000000
-5.370900 0.000000
-5.357000 0.000000
-5.343100 0.000000
-5.329200 0.000000
-5.315300 0.000000
-5.301500 0.000000
-5.287600 0.000000
-5.273700 0.000000
-5.259800 0.000000
-5.245900 0.000000
-5.232000 0.000000
-5.218100 0.000000
-5.204300 0.000000
-5.190400 0.000000
-5.176500 0.000000
-5.162600 0.000000
-5.148700 0.000000
-5.134800 0.000000
-5.120900 0.000000
-5.107100 0.000000
-5.093200 0.000000
-5.079300 0.000000
-5.065400 0.000000
-5.051500 0.000000
-5.037600 0.000000
-5.023800 0.000000
-5.009900 0.000000
-4.996000 0.000000
-4.982100 0.000000
-4.968200 0.000000
-4.954300 0.000000
-4.940400 0.000000
-4.926600 0.000000
-4.912700 0.000000
-4.898800 0.000000
-4.884900 0.000000
-4.871000 0.000000
-4.857100 0.000000
-4.843200 0.000000
-4.829400 0.000000
-4.815500 0.000000
-4.801600 0.000000
-4.787700 0.000000
-4.773800 0.000000
-4.759900 0.000000
-4.746000 0.000000
-4.732200 0.000000
-4.718300 0.000000
-4.704400 0.000000
-4.690500 0.000000
-4.676600 0.000000
-4.662700 0.000000
-4.648900 0.000000
-4.635000 0.000000
-4.621100 0.000000
-4.607200 0.000000
-4.593300 0.000000
-4.579400 0.000000
-4.565500 0.000000
-4.551700 0.000000
-4.537800 0.000000
-4.523900 0.000000
-4.510000 0.000000
-4.496100 0.000000
-4.482200 0.000000
-4.468300 0.000000
-4.454500 0.000000
-4.440600 0.000000
-4.426700 0.000000
-4.412800 0.000000
-4.398900 0.000100
-4.385000 0.016400
-4.371100 0.060300
-4.357300 0.130300
-4.343400 0.189200
-4.329500 0.207200
-4.315600 0.209000
-4.301700 0.223700
-4.287800 0.247800
-4.273900 0.272600
-4.260100 0.298200
-4.246200 0.324400
-4.232300 0.345500
-4.218400 0.358500
-4.204500 0.363800
-4.190600 0.369100
-4.176800 0.378500
-4.162900 0.390300
-4.149000 0.403800
-4.135100 0.417400
-4.121200 0.431000
-4.107300 0.444500
-4.093400 0.458000
-4.079600 0.472000
-4.065700 0.486600
-4.051800 0.501400
-4.037900 0.512600
-4.024000 0.519000
-4.010100 0.523600
-3.996200 0.531900
-3.982400 0.540600
-3.968500 0.549000
-3.954600 0.557100
-3.940700 0.565000
-3.926800 0.572900
-3.912900 0.581100
-3.899000 0.589700
-3.885200 0.599000
-3.871300 0.608900
-3.857400 0.619000
-3.843500 0.629400
-3.829600 0.639800
-3.815700 0.650400
-3.801900 0.661100
-3.788000 0.671400
-3.774100 0.679800
-3.760200 0.685900
-3.746300 0.690500
-3.732400 0.695600
-3.718500 0.701300
-3.704700 0.707600
-3.690800 0.714500
-3.676900 0.721300
-3.663000 0.728000
-3.649100 0.734600
-3.635200 0.741200
-3.621300 0.748100
-3.607500 0.755300
-3.593600 0.762700
-3.579700 0.770300
-3.565800 0.778000
-3.551900 0.785800
-3.538000 0.793700
-3.524100 0.801700
-3.510300 0.809600
-3.496400 0.817600
-3.482500 0.825700
-3.468600 0.833700
-3.454700 0.841600
-3.440800 0.849000
-3.426900 0.854400
-3.413100 0.859100
-3.399200 0.864500
-3.385300 0.870500
-3.371400 0.876300
-3.357500 0.882000
-3.343600 0.887600
-3.329800 0.893300
-3.315900 0.899100
-3.302000 0.905200
-3.288100 0.911400
-3.274200 0.917900
-3.260300 0.924500
-3.246400 0.931200
-3.232600 0.937900
-3.218700 0.944700
-3.204800 0.951500
-3.190900 0.958400
-3.177000 0.965300
-3.163100 0.972300
-3.149200 0.979500
-3.135400 0.986900
-3.121500 0.994600
-3.107600 1.002300
-3.093700 1.010400
-3.079800 1.018600
-3.065900 1.026900
-3.052000 1.035300
-3.038200 1.043500
-3.024300 1.051200
-3.010400 1.058600
-2.996500 1.066600
-2.982600 1.075500
-2.968700 1.084800
-2.954900 1.094500
-2.941000 1.104500
-2.927100 1.139200
-2.913200 1.172600
-2.899300 1.193100
-2.885400 1.182800
-2.871500 1.170200
-2.857700 1.162400
-2.843800 1.160500
-2.829900 1.177700
-2.816000 1.199600
-2.802100 1.218300
-2.788200 1.220800
-2.774300 1.217700
-2.760500 1.214900
-2.746600 1.212500
-2.732700 1.210400
-2.718800 1.208800
-2.704900 1.208600
-2.691000 1.209900
-2.677100 1.209100
-2.663300 1.208400
-2.649400 1.207800
-2.635500 1.205900
-2.621600 1.190600
-2.607700 1.174400
-2.593800 1.160000
-2.579900 1.150900
-2.566100 1.146200
-2.552200 1.160300
-2.538300 1.192400
-2.524400 1.216700
-2.510500 1.221200
-2.496600 1.210100
-2.482800 1.197000
-2.468900 1.182800
-2.455000 1.166700
-2.441100 1.149800
-2.427200 1.138500
-2.413300 1.133200
-2.399400 1.129800
-2.385600 1.125800
-2.371700 1.123200
-2.357800 1.122200
-2.343900 1.122800
-2.330000 1.124000
-2.316100 1.127000
-2.302200 1.131900
-2.288400 1.139200
-2.274500 1.147200
-2.260600 1.156900
-2.246700 1.168600
-2.232800 1.162900
-2.218900 1.145300
-2.205000 1.124800
-2.191200 1.121500
-2.177300 1.118800
-2.163400 1.116600
-2.149500 1.114800
-2.135600 1.113500
-2.121700 1.112500
-2.107900 1.111600
-2.094000 1.110500
-2.080100 1.113400
-2.066200 1.118000
-2.052300 1.124400
-2.038400 1.131800
-2.024500 1.186700
-2.010700 1.239700
-1.996800 1.278100
-1.982900 1.287300
-1.969000 1.290200
-1.955100 1.287600
-1.941200 1.285300
-1.927300 1.351300
-1.913500 1.356700
-1.899600 1.348200
-1.885700 1.327500
-1.871800 1.330300
-1.857900 1.333900
-1.844000 1.338100
-1.830100 1.343400
-1.816300 1.349800
-1.802400 1.357100
-1.788500 1.360900
-1.774600 1.363900
-1.760700 1.371900
-1.746800 1.380000
-1.732900 1.388100
-1.719100 1.396300
-1.705200 1.404600
-1.691300 1.410500
-1.677400 1.416800
-1.663500 1.423600
-1.649600 1.431600
-1.635800 1.441800
-1.621900 1.442500
-1.608000 1.442900
-1.594100 1.442600
-1.580200 1.451400
-1.566300 1.461300
-1.552400 1.472300
-1.538600 1.484400
-1.524700 1.497300
-1.510800 1.522000
-1.496900 1.537500
-1.483000 1.545600
-1.469100 1.556000
-1.455200 1.567600
-1.441400 1.578400
-1.427500 1.588000
-1.413600 1.597300
-1.399700 1.606500
-1.385800 1.615700
-1.371900 1.624700
-1.358000 1.631900
-1.344200 1.625300
-1.330300 1.596000
-1.316400 1.567700
-1.302500 1.553400
-1.288600 1.547500
-1.274700 1.549100
-1.260800 1.553200
-1.247000 1.558200
-1.233100 1.565300
-1.219200 1.580700
-1.205300 1.596200
-1.191400 1.600900
-1.177500 1.589300
-1.163700 1.571200
-1.149800 1.547700
-1.135900 1.517700
-1.122000 1.483800
-1.108100 1.446800
-1.094200 1.411200
-1.080300 1.380900
-1.066500 1.356200
-1.052600 1.335500
-1.038700 1.320000
-1.024800 1.310700
-1.010900 1.309700
-0.997000 1.308100
-0.983100 1.306300
-0.969300 1.312700
-0.955400 1.324200
-0.941500 1.337400
-0.927600 1.350400
-0.913700 1.363000
-0.899800 1.366900
-0.885900 1.370900
-0.872100 1.377200
-0.858200 1.387300
-0.844300 1.401800
-0.830400 1.420700
-0.816500 1.447300
-0.802600 1.458200
-0.788800 1.493800
-0.774900 1.529800
-0.761000 1.558900
-0.747100 1.598500
-0.733200 1.674800
-0.719300 1.775300
-0.705400 1.836800
-0.691600 1.853500
-0.677700 1.867100
-0.663800 1.871800
-0.649900 1.858700
-0.636000 1.844600
-0.622100 1.833500
-0.608200 1.810900
-0.594400 1.789800
-0.580500 1.773000
-0.566600 1.757500
-0.552700 1.743700
-0.538800 1.728700
-0.524900 1.716800
-0.511000 1.708100
-0.497200 1.702500
-0.483300 1.699900
-0.469400 1.700900
-0.455500 1.712000
-0.441600 1.726700
-0.427700 1.732500
-0.413800 1.738400
-0.400000 1.745500
-0.386100 1.753600
-0.372200 1.761700
-0.358300 1.766300
-0.344400 1.765300
-0.330500 1.752100
-0.316700 1.738600
-0.302800 1.731900
-0.288900 1.727500
-0.275000 1.724700
-0.261100 1.722300
-0.247200 1.721700
-0.233300 1.722400
-0.219500 1.732700
-0.205600 1.757100
-0.191700 1.786800
-0.177800 1.770500
-0.163900 1.780800
-0.150000 1.784000
-0.136100 1.789500
-0.122300 1.806300
-0.108400 1.828200
-0.094500 1.854000
-0.080600 1.876000
-0.066700 1.876500
-0.052800 1.859500
-0.038900 1.826000
-0.025100 1.808400
-0.011200 1.797200
0.002700 1.794600
0.016600 1.793500
0.030500 1.793900
0.044400 1.795100
0.058200 1.802400
0.072100 1.813900
0.086000 1.816200
0.099900 1.817100
0.113800 1.817300
0.127700 1.819700
0.141600 1.826600
0.155400 1.838500
0.169300 1.847400
0.183200 1.854000
0.197100 1.861200
0.211000 1.871300
0.224900 1.889200
0.238800 1.911800
0.252600 1.920100
0.266500 1.925900
0.280400 1.931300
0.294300 1.936100
0.308200 1.940200
0.322100 1.943700
0.336000 1.946900
0.349800 1.950000
0.363700 1.953200
0.377600 1.956100
0.391500 1.960900
0.405400 1.941200
0.419300 1.951000
0.433200 1.957200
0.447000 1.962100
0.460900 1.966200
0.474800 1.969700
0.488700 1.972900
0.502600 1.960700
0.516500 1.948600
0.530300 1.946600
0.544200 1.954100
0.558100 1.962000
0.572000 1.969100
0.585900 1.975900
0.599800 1.982800
0.613700 1.989600
0.627500 1.996300
0.641400 2.003500
0.655300 2.013400
0.669200 2.027500
0.683100 2.040100
0.697000 2.048000
0.710900 2.053000
0.724700 2.053400
0.738600 2.053400
0.752500 2.053500
0.766400 2.056100
0.780300 2.061500
0.794200 2.068500
0.808100 2.072200
0.821900 2.061900
0.835800 2.052500
0.849700 2.049000
0.863600 2.049300
0.877500 2.070500
0.891400 2.065200
0.905200 2.056100
0.919100 2.047700
0.933000 2.040100
0.946900 2.033300
0.960800 2.027500
0.974700 2.022300
0.988600 2.017800
1.002400 2.014500
1.016300 2.010000
1.030200 2.012500
1.044100 2.037700
1.058000 2.033000
1.071900 2.028400
1.085800 2.025100
1.099600 2.023000
1.113500 2.021100
1.127400 2.019200
1.141300 2.017200
1.155200 2.015200
1.169100 2.013500
1.183000 2.013700
1.196800 2.016600
1.210700 2.021900
1.224600 2.023400
1.238500 2.023900
1.252400 2.029000
1.266300 2.040000
1.280200 2.048000
1.294000 2.047500
1.307900 2.045500
1.321800 2.045900
1.335700 2.050000
1.349600 2.058300
1.363500 2.069400
1.377300 2.081600
1.391200 2.094500
1.405100 2.109100
1.419000 2.114000
1.432900 2.102300
1.446800 2.089000
1.460700 2.077100
1.474500 2.068200
1.488400 2.063200
1.502300 2.059500
1.516200 2.058700
1.530100 2.060500
1.544000 2.065600
1.557900 2.074400
1.571700 2.079100
1.585600 2.085500
1.599500 2.096300
1.613400 2.101600
1.627300 2.106900
1.641200 2.113400
1.655100 2.120700
1.668900 2.128100
1.682800 2.138200
1.696700 2.144100
1.710600 2.149300
1.724500 2.153700
1.738400 2.157800
1.752200 2.162700
1.766100 2.168100
1.780000 2.174600
1.793900 2.182300
1.807800 2.190700
1.821700 2.199800
1.835600 2.209800
1.849400 2.221000
1.863300 2.233400
1.877200 2.246100
1.891100 2.259800
1.905000 2.274700
1.918900 2.291500
1.932800 2.311900
1.946600 2.335900
1.960500 2.361400
1.974400 2.387400
1.988300 2.413300
2.002200 2.438400
2.016100 2.462700
2.030000 2.486500
2.043800 2.509500
2.057700 2.532400
2.071600 2.557400
2.085500 2.575700
2.099400 2.588500
2.113300 2.598000
2.127200 2.605900
2.141000 2.612200
2.154900 2.615600
2.168800 2.615800
2.182700 2.614300
2.196600 2.611600
2.210500 2.613400
2.224300 2.610400
2.238200 2.607000
2.252100 2.609000
2.266000 2.619400
2.279900 2.591100
2.293800 2.602100
2.307700 2.591400
2.321500 2.582500
2.335400 2.574800
2.349300 2.567700
2.363200 2.564100
2.377100 2.561500
2.391000 2.571700
2.404900 2.589200
2.418700 2.636500
2.432600 2.706200
2.446500 2.630500
2.460400 2.603900
2.474300 2.581800
2.488200 2.552800
2.502100 2.530800
2.515900 2.530000
2.529800 2.519700
2.543700 2.480300
2.557600 2.430700
2.571500 2.383400
2.585400 2.350800
2.599200 2.326400
2.613100 2.297200
2.627000 2.270600
2.640900 2.247100
2.654800 2.225500
2.668700 2.192000
2.682600 2.151600
2.696400 2.111200
2.710300 2.070700
2.724200 2.041100
2.738100 2.001400
2.752000 1.967200
2.765900 1.934400
2.779800 1.905400
2.793600 1.885800
2.807500 1.872900
2.821400 1.856400
2.835300 1.839200
2.849200 1.826000
2.863100 1.808600
2.877000 1.798900
2.890800 1.790500
2.904700 1.826400
2.918600 1.827800
2.932500 1.811000
2.946400 1.808000
2.960300 1.810800
2.974200 1.771800
2.988000 1.776700
3.001900 1.811700
3.015800 1.846800
3.029700 1.882200
3.043600 1.929300
3.057500 1.993900
3.071300 2.065700
3.085200 2.144800
3.099100 2.280500
3.113000 2.389100
3.126900 2.363300
3.140800 2.331900
3.154700 2.257100
3.168500 2.195800
3.182400 2.130300
3.196300 2.085100
3.210200 2.143200
3.224100 2.042500
3.238000 2.025200
3.251900 2.013200
3.265700 2.001400
3.279600 2.000400
3.293500 2.004300
3.307400 2.011500
3.321300 2.044700
3.335200 2.106000
3.349100 2.114500
3.362900 2.097000
3.376800 2.125500
3.390700 2.167400
3.404600 2.220300
3.418500 2.282700
3.432400 2.354900
3.446200 2.427800
3.460100 2.486500
3.474000 2.543100
3.487900 2.598600
3.501800 2.651400
3.515700 2.706100
3.529600 2.762800
3.543400 2.819400
3.557300 2.876400
3.571200 2.939400
3.585100 2.960000
3.599000 2.969900
3.612900 2.975700
3.626800 2.971400
3.640600 2.906500
3.654500 2.804500
3.668400 2.736000
3.682300 2.681700
3.696200 2.639800
3.710100 2.599500
3.724000 2.536300
3.737800 2.450500
3.751700 2.410900
3.765600 2.390400
3.779500 2.383200
3.793400 2.399600
3.807300 2.440000
3.821200 2.455900
3.835000 2.459600
3.848900 2.467400
3.862800 2.471500
3.876700 2.458400
3.890600 2.440300
3.904500 2.422200
3.918300 2.403200
3.932200 2.371000
3.946100 2.348800
3.960000 2.325000
3.973900 2.314500
3.987800 2.305600
4.001700 2.321400
4.015500 2.331300
4.029400 2.333800
4.043300 2.340100
4.057200 2.350900
4.071100 2.365300
4.085000 2.383300
4.098900 2.394100
4.112700 2.407100
4.126600 2.419700
4.140500 2.431200
4.154400 2.453000
4.168300 2.472000
4.182200 2.494000
4.196100 2.567500
4.209900 2.528000
4.223800 2.556500
4.237700 2.662500
4.251600 2.695200
4.265500 2.700600
4.279400 2.703300
4.293200 2.706100
4.307100 2.717000
4.321000 2.723700
4.334900 2.683200
4.348800 2.626000
4.362700 2.632200
4.376600 2.655100
4.390400 2.677000
4.404300 2.711900
4.418200 2.763000
4.432100 2.786200
4.446000 2.768000
4.459900 2.761000
4.473800 2.771400
4.487600 2.783300
4.501500 2.795400
4.515400 2.812900
4.529300 2.875700
4.543200 2.839300
4.557100 2.817900
4.571000 2.796100
4.584800 2.777200
4.598700 2.759800
4.612600 2.736000
4.626500 2.694100
4.640400 2.672400
4.654300 2.661700
4.668200 2.687500
4.682000 2.698400
4.695900 2.677100
4.709800 2.671300
4.723700 2.680600
4.737600 2.681700
4.751500 2.767900
4.765300 2.653800
4.779200 2.637900
4.793100 2.628400
4.807000 2.630000
4.820900 2.638800
4.834800 2.627800
4.848700 2.618000
4.862500 2.608600
4.876400 2.599900
4.890300 2.591600
4.904200 2.577500
4.918100 2.558900
4.932000 2.545900
4.945900 2.535800
4.959700 2.528000
4.973600 2.529900
4.987500 2.518300
5.001400 2.509800
5.015300 2.504900
5.029200 2.503300
5.043100 2.513200
5.056900 2.534000
5.070800 2.556100
5.084700 2.589600
5.098600 2.631200
5.112500 2.674500
5.126400 2.681900
5.140200 2.685700
5.154100 2.694300
5.168000 2.704600
5.181900 2.713200
5.195800 2.718500
5.209700 2.731900
5.223600 2.733300
5.237400 2.782100
5.251300 2.776000
5.265200 2.767500
5.279100 2.752300
5.293000 2.720500
5.306900 2.711400
5.320800 2.716400
5.334600 2.728000
5.348500 2.756100
5.362400 2.783700
5.376300 2.782000
5.390200 2.783100
5.404100 2.788600
5.418000 2.797100
5.431800 2.808600
5.445700 2.839600
5.459600 2.842900
5.473500 2.857000
5.487400 2.893900
5.501300 2.895700
5.515200 2.892400
5.529000 2.879500
5.542900 2.873600
5.556800 2.870600
5.570700 2.868500
5.584600 2.875000
5.598500 2.914500
5.612300 2.965300
5.626200 3.009100
5.640100 3.044100
5.654000 3.069500
5.667900 3.092100
5.681800 3.118500
5.695700 3.191300
5.709500 3.161900
5.723400 3.138600
5.737300 3.133800
5.751200 3.129200
5.765100 3.107600
5.779000 3.079500
5.792900 3.049500
5.806700 3.010900
5.820600 2.925800
5.834500 2.912000
5.848400 2.902200
5.862300 2.895500
5.876200 2.889300
5.890100 2.896200
5.903900 2.923500
5.917800 2.959800
5.931700 2.991300
5.945600 3.012400
5.959500 3.048100
5.973400 3.070400
5.987200 3.103000
6.001100 3.106900
6.015000 3.093100
6.028900 3.091700
6.042800 3.095100
6.056700 3.099400
6.070600 3.101500
6.084400 3.102700
6.098300 3.103000
6.112200 3.102100
6.126100 3.102200
6.140000 3.101100
6.153900 3.103500
6.167800 3.101900
6.181600 3.098600
6.195500 3.080000
6.209400 3.060700
6.223300 3.043600
6.237200 3.027100
6.251100 3.009700
6.265000 2.986600
6.278800 2.962900
6.292700 2.935100
6.306600 2.912100
6.320500 2.883300
6.334400 2.871300
6.348300 2.881900
6.362200 2.856100
6.376000 2.846700
6.389900 2.845800
6.403800 2.833300
6.417700 2.819200
6.431600 2.809400
6.445500 2.803700
6.459300 2.799800
6.473200 2.800700
6.487100 2.807100
6.501000 2.816900
6.514900 2.827000
6.528800 2.838900
6.542700 2.853800
6.556500 2.871100
6.570400 2.888200
6.584300 2.904600
6.598200 2.919700
6.612100 2.940800
6.626000 2.956700
6.639900 2.964800
6.653700 2.974700
6.667600 2.984900
6.681500 2.990700
6.695400 2.997400
6.709300 3.011300
6.723200 3.029000
6.737100 3.042400
6.750900 3.054100
6.764800 3.068400
6.778700 3.086800
6.792600 3.124300
6.806500 3.178800
6.820400 3.202200
6.834300 3.217000
6.848100 3.236300
6.862000 3.249000
6.875900 3.206900
6.889800 3.199300
6.903700 3.199700
6.917600 3.205800
6.931400 3.206900
6.945300 3.208700
6.959200 3.203600
6.973100 3.196300
6.987000 3.202800
7.000900 3.208000
7.014800 3.205200
7.028600 3.191400
7.042500 3.171400
7.056400 3.150900
7.070300 3.131700
7.084200 3.112300
7.098100 3.093900
7.112000 3.078200
7.125800 3.062300
7.139700 3.043400
7.153600 3.021400
7.167500 3.003800
7.181400 2.987700
7.195300 2.972300
7.209200 2.953100
7.223000 2.935200
7.236900 2.925000
7.250800 2.920600
7.264700 2.918900
7.278600 2.915100
7.292500 2.916100
7.306300 2.922200
7.320200 2.948000
7.334100 2.956400
7.348000 2.906400
7.361900 2.910800
7.375800 2.917500
7.389700 2.933500
7.403500 2.955200
7.417400 2.981100
7.431300 3.008600
7.445200 3.051100
7.459100 3.086600
7.473000 3.121100
7.486900 3.160900
7.500700 3.231900
7.514600 3.338400
7.528500 3.312100
7.542400 3.182600
7.556300 3.183200
7.570200 3.210900
7.584100 3.249100
7.597900 3.287900
7.611800 3.328500
7.625700 3.373400
7.639600 3.428800
7.653500 3.542700
7.667400 3.531200
7.681300 3.526400
7.695100 3.527800
7.709000 3.530300
7.722900 3.537400
7.736800 3.548300
7.750700 3.557900
7.764600 3.566900
7.778400 3.567200
7.792300 3.565000
7.806200 3.572000
7.820100 3.563300
7.834000 3.550800
7.847900 3.547100
7.861800 3.547900
7.875600 3.526800
7.889500 3.543500
7.903400 3.554300
7.917300 3.574900
7.931200 3.592800
7.945100 3.599700
7.959000 3.605700
7.972800 3.612900
7.986700 3.614800
8.000600 3.616400
8.014500 3.542100
8.028400 3.524100
8.042300 3.504600
8.056200 3.481300
8.070000 3.447000
8.083900 3.414000
8.097800 3.399800
8.111700 3.395400
8.125600 3.400100
8.139500 3.457800
8.153300 3.468900
8.167200 3.458300
8.181100 3.453300
8.195000 3.452800
8.208900 3.449400
8.222800 3.437700
8.236700 3.425600
8.250500 3.420400
8.264400 3.414300
8.278300 3.434300
8.292200 3.445100
8.306100 3.439700
8.320000 3.419700
8.333900 3.397000
8.347700 3.386300
8.361600 3.381700
8.375500 3.384100
8.389400 3.448000
8.403300 3.443800
8.417200 3.395300
8.431100 3.381700
8.444900 3.378500
8.458800 3.385500
8.472700 3.405500
8.486600 3.440700
8.500500 3.453800
8.514400 3.446700
8.528300 3.433900
8.542100 3.418400
8.556000 3.403900
8.569900 3.395600
8.583800 3.383900
8.597700 3.385200
8.611600 3.416700
8.625400 3.422200
8.639300 3.387500
8.653200 3.405100
8.667100 3.458400
8.681000 3.443800
8.694900 3.397800
8.708800 3.409300
8.722600 3.422100
8.736500 3.442300
8.750400 3.465600
8.764300 3.472700
8.778200 3.487700
8.792100 3.536100
8.806000 3.577900
8.819800 3.532800
8.833700 3.511600
8.847600 3.484800
8.861500 3.479400
8.875400 3.482000
8.889300 3.486900
8.903200 3.507100
8.917000 3.539300
8.930900 3.565600
8.944800 3.605400
8.958700 3.682800
8.972600 3.741800
8.986500 3.766200
9.000300 3.782300
9.014200 3.786000
9.028100 3.778700
9.042000 3.765800
9.055900 3.748400
9.069800 3.709100
9.083700 3.695500
9.097500 3.799000
9.111400 3.661200
9.125300 3.649800
9.139200 3.639600
9.153100 3.606000
9.167000 3.569800
9.180900 3.526300
9.194700 3.467600
9.208600 3.406000
9.222500 3.296400
9.236400 3.291200
9.250300 3.278200
9.264200 3.266800
9.278100 3.277700
9.291900 3.329400
9.305800 3.347100
9.319700 3.373800
9.333600 3.377500
9.347500 3.342900
9.361400 3.340700
9.375300 3.315400
9.389100 3.355800
9.403000 3.436600
9.416900 3.490000
9.430800 3.509300
9.444700 3.473000
9.458600 3.325100
9.472400 3.240300
9.486300 3.177400
9.500200 3.120500
9.514100 3.069900
9.528000 3.052100
9.541900 3.015400
9.555800 2.979800
9.569600 2.948700
9.583500 2.928600
9.597400 2.906300
9.611300 2.874800
9.625200 2.832700
9.639100 2.816800
9.653000 2.809300
9.666800 2.795100
9.680700 2.795100
9.694600 2.803200
9.708500 2.809400
9.722400 2.797000
9.736300 2.768400
9.750200 2.724700
9.764000 2.687700
9.777900 2.626000
9.791800 2.587700
9.805700 2.563700
9.819600 2.544400
9.833500 2.532500
9.847300 2.535500
9.861200 2.553800
9.875100 2.606200
9.889000 2.703600
9.902900 2.681500
9.916800 2.561600
9.930700 2.509000
9.944500 2.492100
9.958400 2.485000
9.972300 2.481800
9.986200 2.482900
10.000100 2.481000
10.014000 2.449800
10.027900 2.413400
10.041700 2.382800
10.055600 2.335300
10.069500 2.339500
10.083400 2.369300
10.097300 2.382800
10.111200 2.406000
10.125100 2.437000
10.138900 2.474300
10.152800 2.517700
10.166700 2.548100
10.180600 2.626000
10.194500 2.672800
10.208400 2.745900
10.222300 2.846800
10.236100 2.944000
10.250000 2.994700
10.263900 3.027200
10.277800 3.038600
10.291700 3.019900
10.305600 2.979600
10.319400 2.971800
10.333300 2.992000
10.347200 3.013300
10.361100 3.029600
10.375000 3.040300
10.388900 3.056800
10.402800 3.086500
10.416600 3.127200
10.430500 3.173600
10.444400 3.223500
10.458300 3.274100
10.472200 3.312300
10.486100 3.323900
10.500000 3.322900
10.513800 3.326400
10.527700 3.333000
10.541600 3.348100
10.555500 3.386500
10.569400 3.444200
10.583300 3.567600
10.597200 3.656300
10.611000 3.674900
10.624900 3.682100
10.638800 3.694800
10.652700 3.724100
10.666600 3.762500
10.680500 3.784500
10.694300 3.788700
10.708200 3.787900
10.722100 3.778300
10.736000 3.747200
10.749900 3.746800
10.763800 3.730600
10.777700 3.677900
10.791500 3.646100
10.805400 3.546200
10.819300 3.544000
10.833200 3.513200
10.847100 3.470100
10.861000 3.435400
10.874900 3.412000
10.888700 3.355400
10.902600 3.313700
10.916500 3.291700
10.930400 3.283900
10.944300 3.292800
10.958200 3.308700
10.972100 3.329800
10.985900 3.363700
10.999800 3.422700
11.013700 3.502200
11.027600 3.609400
11.041500 3.664800
11.055400 3.664800
11.069300 3.676100
11.083100 3.698300
11.097000 3.744900
11.110900 3.796300
11.124800 3.876000
11.138700 3.915400
11.152600 3.937900
11.166400 3.893500
11.180300 3.791300
11.194200 3.720000
11.208100 3.681900
11.222000 3.654500
11.235900 3.630000
11.249800 3.599400
11.263600 3.566300
11.277500 3.541000
11.291400 3.535100
11.305300 3.548600
11.319200 3.568400
11.333100 3.587600
11.347000 3.565800
11.360800 3.532400
11.374700 3.512500
11.388600 3.533100
11.402500 3.512000
11.416400 3.455300
11.430300 3.372800
11.444200 3.320800
11.458000 3.284300
11.471900 3.239900
11.485800 3.205300
11.499700 3.199500
11.513600 3.196000
11.527500 3.193700
11.541300 3.192900
11.555200 3.186400
11.569100 3.196500
11.583000 3.232300
11.596900 3.293500
11.610800 3.358700
11.624700 3.425300
11.638500 3.488300
11.652400 3.558700
11.666300 3.629300
11.680200 3.708400
11.694100 3.795900
11.708000 3.890300
11.721900 3.984500
11.735700 4.077400
11.749600 4.171900
11.763500 4.268300
11.777400 4.348600
11.791300 4.419800
11.805200 4.467400
11.819100 4.426700
11.832900 4.343400
11.846800 4.242500
11.860700 4.156600
11.874600 4.108600
11.888500 4.088800
11.902400 4.071400
11.916300 4.054200
11.930100 4.040000
11.944000 4.015300
11.957900 3.987700
11.971800 3.963000
11.985700 3.937700
11.999600 3.915100
12.013400 3.888800
12.027300 3.848400
12.041200 3.806000
12.055100 3.767000
12.069000 3.742100
12.082900 3.729400
12.096800 3.717400
12.110600 3.722500
12.124500 3.730200
12.138400 3.723200
12.152300 3.707200
12.166200 3.686000
12.180100 3.675200
12.194000 3.666800
12.207800 3.653000
12.221700 3.630300
12.235600 3.639700
12.249500 3.661300
12.263400 3.698900
12.277300 3.738200
12.291200 3.793500
12.305000 3.823300
12.318900 3.840900
12.332800 3.870000
12.346700 3.882000
12.360600 3.879200
12.374500 3.862400
12.388300 3.831200
12.402200 3.814500
12.416100 3.821800
12.430000 3.852700
12.443900 3.867400
12.457800 3.878500
12.471700 3.886600
12.485500 3.885800
12.499400 3.886800
12.513300 3.902000
12.527200 3.921100
12.541100 3.932200
12.555000 3.973700
12.568900 4.052700
12.582700 4.044600
12.596600 3.968500
12.610500 3.957400
12.624400 3.953200
12.638300 3.955300
12.652200 3.969300
12.666100 3.891000
12.679900 3.866900
12.693800 3.873100
12.707700 3.877300
12.721600 3.880500
12.735500 3.875800
12.749400 3.878800
12.763300 3.893800
12.777100 3.929500
12.791000 3.959200
12.804900 3.938100
12.818800 3.907700
12.832700 3.893700
12.846600 3.879600
12.860400 3.828300
12.874300 3.774000
12.888200 3.719900
12.902100 3.661200
12.916000 3.641600
12.929900 3.619700
12.943800 3.582500
12.957600 3.553600
12.971500 3.546800
12.985400 3.568800
12.999300 3.562000
13.013200 3.548100
13.027100 3.551500
13.041000 3.535400
13.054800 3.547700
13.068700 3.576600
13.082600 3.591000
13.096500 3.586800
13.110400 3.585300
13.124300 3.605700
13.138200 3.635900
13.152000 3.665500
13.165900 3.669100
13.179800 3.678000
13.193700 3.701000
13.207600 3.739700
13.221500 3.765900
13.235300 3.844400
13.249200 3.830100
13.263100 3.792400
13.277000 3.679200
13.290900 3.654300
13.304800 3.644900
13.318700 3.658000
13.332500 3.684200
13.346400 3.692400
13.360300 3.666700
13.374200 3.637300
13.388100 3.612800
13.402000 3.569100
13.415900 3.568700
13.429700 3.577500
13.443600 3.560400
13.457500 3.487700
13.471400 3.426800
13.485300 3.395400
13.499200 3.384000
13.513100 3.385200
13.526900 3.391500
13.540800 3.414500
13.554700 3.433500
13.568600 3.446200
13.582500 3.457600
13.596400 3.481100
13.610300 3.521000
13.624100 3.573300
13.638000 3.636200
13.651900 3.706300
13.665800 3.839800
13.679700 3.992300
13.693600 4.166500
13.707400 4.503600
13.721300 4.453200
13.735200 4.517100
13.749100 4.581900
13.763000 4.619100
13.776900 4.644000
13.790800 4.667200
13.804600 4.684100
13.818500 4.667900
13.832400 4.636200
13.846300 4.605300
13.860200 4.534400
13.874100 4.422300
13.888000 4.453400
13.901800 4.300200
13.915700 4.228700
13.929600 4.154400
13.943500 4.095400
13.957400 4.041000
13.971300 3.944300
13.985200 3.830100
13.999000 3.721300
14.012900 3.635300
14.026800 3.566500
14.040700 3.514600
14.054600 3.475400
14.068500 3.448200
14.082300 3.433400
14.096200 3.426200
14.110100 3.418500
14.124000 3.424300
14.137900 3.433800
14.151800 3.461300
14.165700 3.501100
14.179500 3.543200
14.193400 3.563300
14.207300 3.606700
14.221200 3.625500
14.235100 3.584700
14.249000 3.563400
14.262900 3.563300
14.276700 3.566900
14.290600 3.593800
14.304500 3.629600
14.318400 3.631300
14.332300 3.632600
14.346200 3.681000
14.360100 3.813500
14.373900 3.784200
14.387800 3.761500
14.401700 3.762300
14.415600 3.764000
14.429500 3.759700
14.443400 3.785100
14.457300 3.784400
14.471100 3.797700
14.485000 3.824200
14.498900 3.871500
14.512800 3.912400
14.526700 3.944000
14.540600 3.937600
14.554400 3.968300
14.568300 3.994000
14.582200 4.020800
14.596100 3.996800
14.610000 3.967100
14.623900 3.944700
14.637800 3.937400
14.651600 3.939500
14.665500 3.893600
14.679400 3.875700
14.693300 3.897600
14.707200 3.916900
14.721100 3.924100
14.735000 3.963700
14.748800 3.936200
14.762700 3.939900
14.776600 3.971100
14.790500 3.989300
14.804400 4.014700
14.818300 4.053700
14.832200 4.082200
14.846000 4.092200
14.859900 4.135000
14.873800 4.169900
14.887700 4.199500
14.901600 4.218500
14.915500 4.227000
14.929400 4.212400
14.943200 4.200700
14.957100 4.157000
14.971000 4.115500
14.984900 4.089500
14.998800 4.065300
15.012700 4.045900
15.026500 4.041400
15.040400 4.047500
15.054300 4.067000
15.068200 4.095200
15.082100 4.121100
15.096000 4.131900
15.109900 4.131100
15.123700 4.129800
15.137600 4.079900
15.151500 4.031100
15.165400 3.995700
15.179300 3.974700
15.193200 3.945100
15.207100 3.900500
15.220900 3.878600
15.234800 3.988000
15.248700 4.116100
15.262600 4.240600
15.276500 4.289600
15.290400 4.276600
15.304300 4.308500
15.318100 4.363900
15.332000 4.481300
15.345900 4.429200
15.359800 4.392100
15.373700 4.397800
15.387600 4.402200
15.401400 4.407800
15.415300 4.447500
15.429200 4.492900
15.443100 4.524600
15.457000 4.555500
15.470900 4.590800
15.484800 4.616300
15.498600 4.596300
15.512500 4.573400
15.526400 4.566900
15.540300 4.595700
15.554200 4.586900
15.568100 4.531200
15.582000 4.489600
15.595800 4.445000
15.609700 4.365400
15.623600 4.309100
15.637500 4.249800
15.651400 4.178600
15.665300 4.095000
15.679200 4.000800
15.693000 3.910200
15.706900 3.842700
15.720800 3.792600
15.734700 3.766900
15.748600 3.757100
15.762500 3.770500
15.776400 3.781600
15.790200 3.791500
15.804100 3.808700
15.818000 3.834200
15.831900 3.875500
15.845800 3.922000
15.859700 3.984500
15.873500 4.000900
15.887400 4.051500
15.901300 4.032600
15.915200 4.082500
15.929100 4.152100
15.943000 4.197800
15.956900 4.197000
15.970700 4.184900
15.984600 4.216300
15.998500 4.209800
16.012400 4.151100
16.026300 4.080600
16.040200 4.017000
16.054100 3.977600
16.067900 3.989400
16.081800 3.939700
16.095700 3.932100
16.109600 3.938800
16.123500 3.978300
16.137400 4.022500
16.151300 4.046600
16.165100 4.059900
16.179000 4.066600
16.192900 4.080500
16.206800 4.122800
16.220700 4.202200
16.234600 4.296900
16.248400 4.382400
16.262300 4.453800
16.276200 4.500300
16.290100 4.525000
16.304000 4.527400
16.317900 4.515900
16.331800 4.446300
16.345600 4.345300
16.359500 4.297100
16.373400 4.297200
16.387300 4.326000
16.401200 4.359300
16.415100 4.368700
16.429000 4.358000
16.442800 4.339300
16.456700 4.342200
16.470600 4.363200
16.484500 4.391600
16.498400 4.430800
16.512300 4.492600
16.526200 4.498500
16.540000 4.538800
16.553900 4.572500
16.567800 4.619500
16.581700 4.631400
16.595600 4.645300
16.609500 4.670700
16.623400 4.681200
16.637200 4.642700
16.651100 4.578800
16.665000 4.512900
16.678900 4.434200
16.692800 4.356400
16.706700 4.302500
16.720500 4.241100
16.734400 4.156500
16.748300 4.120300
16.762200 4.092200
16.776100 4.089300
16.790000 4.101400
16.803900 4.101400
16.817700 4.086600
16.831600 4.086800
16.845500 4.079900
16.859400 4.042300
16.873300 4.002800
16.887200 3.981300
16.901100 3.959500
16.914900 3.935500
16.928800 3.910100
16.942700 3.885600
16.956600 3.887400
16.970500 3.904600
16.984400 3.887400
16.998300 3.906300
17.012100 3.852100
17.026000 3.854900
17.039900 3.851900
17.053800 3.849100
17.067700 3.940000
17.081600 3.938200
17.095400 3.933300
17.109300 3.925100
17.123200 3.918800
17.137100 3.922600
17.151000 3.924500
17.164900 3.924400
17.178800 3.921800
17.192600 3.916800
17.206500 3.917700
17.220400 3.919000
17.234300 3.922000
17.248200 3.930600
17.262100 3.941000
17.276000 3.956500
17.289800 3.971600
17.303700 3.969600
17.317600 3.977300
17.331500 3.994600
17.345400 4.022000
17.359300 4.052300
17.373200 4.088700
17.387000 4.145700
17.400900 4.211800
17.414800 4.245500
17.428700 4.292000
17.442600 4.375700
17.456500 4.478500
17.470400 4.566400
17.484200 4.619400
17.498100 4.450700
17.512000 4.377200
17.525900 4.350400
17.539800 4.309700
17.553700 4.205100
17.567500 4.068300
17.581400 3.967600
17.595300 3.874200
17.609200 3.769000
17.623100 3.653900
17.637000 3.566100
17.650900 3.488900
17.664700 3.421000
17.678600 3.359200
17.692500 3.292300
17.706400 3.219300
17.720300 3.144400
17.734200 3.068400
17.748100 3.003500
17.761900 2.951500
17.775800 2.908000
17.789700 2.868900
17.803600 2.833100
17.817500 2.802000
17.831400 2.785000
17.845300 2.773500
17.859100 2.762600
17.873000 2.736400
17.886900 2.694400
17.900800 2.639600
17.914700 2.577500
17.928600 2.513900
17.942400 2.464500
17.956300 2.430100
17.970200 2.402700
17.984100 2.380200
17.998000 2.350900
18.011900 2.319500
18.025800 2.290300
18.039600 2.262100
18.053500 2.230200
18.067400 2.198000
18.081300 2.183900
18.095200 2.090100
18.109100 2.008800
18.123000 1.947900
18.136800 1.897600
18.150700 1.853200
18.164600 1.807800
18.178500 1.762700
18.192400 1.723000
18.206300 1.683200
18.220200 1.643900
18.234000 1.603100
18.247900 1.560100
18.261800 1.514800
18.275700 1.468000
18.289600 1.424800
18.303500 1.394200
18.317400 1.362200
18.331200 1.325700
18.345100 1.294700
18.359000 1.263900
18.372900 1.227400
18.386800 1.182000
18.400700 1.143300
18.414500 1.118500
18.428400 1.095600
18.442300 1.070200
18.456200 1.047400
18.470100 1.024600
18.484000 1.002500
18.497900 0.980900
18.511700 0.958600
18.525600 0.936900
18.539500 0.915700
18.553400 0.894800
18.567300 0.874100
18.581200 0.853600
18.595100 0.835100
18.608900 0.817600
18.622800 0.800300
18.636700 0.783200
18.650600 0.807100
18.664500 0.815600
18.678400 0.754000
18.692300 0.690300
18.706100 0.662800
18.720000 0.637600
18.733900 0.613800
18.747800 0.589900
18.761700 0.568000
18.775600 0.548000
18.789400 0.528200
18.803300 0.511000
18.817200 0.495500
18.831100 0.481100
18.845000 0.467900
18.858900 0.455800
18.872800 0.444800
18.886600 0.434100
18.900500 0.423500
18.914400 0.413100
18.928300 0.402800
18.942200 0.392500
18.956100 0.382400
18.970000 0.373300
18.983800 0.366700
18.997700 0.355900
19.011600 0.344300
19.025500 0.334100
19.039400 0.324300
19.053300 0.315200
19.067200 0.307000
19.081000 0.299500
19.094900 0.292300
19.108800 0.285600
19.122700 0.279100
19.136600 0.273000
19.150500 0.267200
19.164400 0.261800
19.178200 0.257200
19.192100 0.252600
19.206000 0.248100
19.219900 0.243600
19.233800 0.239200
19.247700 0.234900
19.261500 0.230600
19.275400 0.226400
19.289300 0.222300
19.303200 0.218400
19.317100 0.214700
19.331000 0.211300
19.344900 0.208100
19.358700 0.205100
19.372600 0.202200
19.386500 0.199600
19.400400 0.196700
19.414300 0.193400
19.428200 0.189600
19.442100 0.185600
19.455900 0.181500
19.469800 0.177500
19.483700 0.173500
19.497600 0.169600
19.511500 0.165800
19.525400 0.162200
19.539300 0.158600
19.553100 0.155300
19.567000 0.152300
19.580900 0.149500
19.594800 0.147000
19.608700 0.144800
19.622600 0.143000
19.636400 0.141000
19.650300 0.137600
19.664200 0.132500
19.678100 0.125900
19.692000 0.118100
19.705900 0.111300
19.719800 0.105400
19.733600 0.100600
19.747500 0.096500
19.761400 0.093200
19.775300 0.090700
19.789200 0.089000
19.803100 0.087800
19.817000 0.084300
19.830800 0.078000
19.844700 0.068900
19.858600 0.059800
19.872500 0.056100
19.886400 0.052400
19.900300 0.048900
19.914200 0.045600
19.928000 0.042300
19.941900 0.039300
19.955800 0.036300
19.969700 0.033400
19.983600 0.030600
19.997500 0.028000
20.011400 0.025600
20.025200 0.023400
20.039100 0.021500
20.053000 0.019700
20.066900 0.018200
20.080800 0.017000
20.094700 0.016000
20.108500 0.015100
20.122400 0.014400
20.136300 0.013700
20.150200 0.012900
20.164100 0.012300
20.178000 0.011600
20.191900 0.011000
20.205700 0.010400
20.219600 0.009800
20.233500 0.009200
20.247400 0.008700
20.261300 0.008200
20.275200 0.007700
20.289100 0.007300
20.302900 0.006800
20.316800 0.006400
20.330700 0.006000
20.344600 0.005600
20.358500 0.005200
20.372400 0.004900
20.386300 0.004500
20.400100 0.004200
20.414000 0.003900
20.427900 0.003500
20.441800 0.003300
20.455700 0.003000
20.469600 0.002700
20.483400 0.002500
20.497300 0.002200
20.511200 0.002000
20.525100 0.001800
20.539000 0.001700
20.552900 0.001500
20.566800 0.001300
20.580600 0.001200
20.594500 0.001100
20.608400 0.001000
20.622300 0.000800
20.636200 0.000700
20.650100 0.000600
20.664000 0.000600
20.677800 0.000500
20.691700 0.000400
20.705600 0.000300
20.719500 0.000300
20.733400 0.000200
20.747300 0.000200
20.761200 0.000100
20.775000 0.000100
20.788900 0.000100
20.802800 0.000000
20.816700 0.000000
20.830600 0.000000
20.844500 0.000000
20.858400 0.000000
20.872200 0.000000
20.886100 0.000000
20.900000 0.000000
20.913900 0.000000
20.927800 0.000000
20.941700 0.000000
20.955500 0.000000
20.969400 0.000000
20.983300 0.000000
20.997200 0.000000
21.011100 0.000000
21.025000 0.000000
21.038900 0.000000
21.052700 0.000000
21.066600 0.000000
21.080500 0.000000
21.094400 0.000000
21.108300 0.000000
21.122200 0.000000
21.136100 0.000000
21.149900 0.000000
21.163800 0.000000
21.177700 0.000000
21.191600 0.000000
21.205500 0.000000
21.219400 0.000000
21.233300 0.000000
21.247100 0.000000
21.261000 0.000000
21.274900 0.000000
21.288800 0.000000
21.302700 0.000000
21.316600 0.000000
21.330400 0.000000
21.344300 0.000000
21.358200 0.000000
21.372100 0.000000
21.386000 0.000000
21.399900 0.000000
21.413800 0.000000
21.427600 0.000000
21.441500 0.000000
21.455400 0.000000
21.469300 0.000000
21.483200 0.000000
21.497100 0.000000
21.511000 0.000000
21.524800 0.000000
21.538700 0.000000
21.552600 0.000000
21.566500 0.000000
21.580400 0.000000
21.594300 0.000000
21.608200 0.000000
21.622000 0.000000
21.635900 0.000000
21.649800 0.000000
21.663700 0.000000
21.677600 0.000000
21.691500 0.000000
21.705400 0.000000
21.719200 0.000000
21.733100 0.000000
21.747000 0.000000
21.760900 0.000000
21.774800 0.000000
21.788700 0.000000
21.802500 0.000000
21.816400 0.000000
21.830300 0.000000
21.844200 0.000000
21.858100 0.000000
21.872000 0.000000
21.885900 0.000000
21.899700 0.000000
21.913600 0.000000
21.927500 0.000000
21.941400 0.000000
21.955300 0.000000
21.969200 0.000000
21.983100 0.000000
21.996900 0.000000
22.010800 0.000000
22.024700 0.000000
22.038600 0.000000
22.052500 0.000000
22.066400 0.000000
22.080300 0.000000
22.094100 0.000000
22.108000 0.000000
e
