set title 'mp-1184292 - Density of States'
set xlabel 'Energy (eV)'
set ylabel 'DOS (states/eV)'
set grid
set xrange [-10:10]
set yrange [0:3.221]
set xzeroaxis lt -1
set terminal png size 800,600
set output 'mp-1184292_dos_gnuplot.png'
plot '-' using 1:2 with lines title 'DOS'
-12.876600 0.000000
-12.855200 0.000000
-12.833900 0.000000
-12.812500 0.000000
-12.791200 0.000000
-12.769800 0.000000
-12.748500 0.000000
-12.727100 0.000000
-12.705800 0.000000
-12.684400 0.000000
-12.663100 0.000000
-12.641700 0.000000
-12.620300 0.000000
-12.599000 0.000000
-12.577600 0.000000
-12.556300 0.000000
-12.534900 0.000000
-12.513600 0.000000
-12.492200 0.000000
-12.470900 0.000000
-12.449500 0.000000
-12.428200 0.000000
-12.406800 0.000000
-12.385500 0.000000
-12.364100 0.000000
-12.342700 0.000000
-12.321400 0.000000
-12.300000 0.000000
-12.278700 0.000000
-12.257300 0.000000
-12.236000 0.000000
-12.214600 0.000000
-12.193300 0.000000
-12.171900 0.000000
-12.150600 0.000000
-12.129200 0.000000
-12.107900 0.000000
-12.086500 0.000000
-12.065100 0.000000
-12.043800 0.000000
-12.022400 0.000000
-12.001100 0.000000
-11.979700 0.000000
-11.958400 0.000000
-11.937000 0.000000
-11.915700 0.000000
-11.894300 0.000000
-11.873000 0.000000
-11.851600 0.000000
-11.830200 0.000000
-11.808900 0.000000
-11.787500 0.000000
-11.766200 0.000000
-11.744800 0.000000
-11.723500 0.000000
-11.702100 0.000000
-11.680800 0.000000
-11.659400 0.000000
-11.638100 0.000000
-11.616700 0.000000
-11.595400 0.000000
-11.574000 0.000000
-11.552600 0.000000
-11.531300 0.000000
-11.509900 0.000000
-11.488600 0.000000
-11.467200 0.000000
-11.445900 0.000000
-11.424500 0.000000
-11.403200 0.000000
-11.381800 0.000000
-11.360500 0.000000
-11.339100 0.000000
-11.317800 0.000000
-11.296400 0.000000
-11.275000 0.000000
-11.253700 0.000000
-11.232300 0.000000
-11.211000 0.000000
-11.189600 0.000000
-11.168300 0.000000
-11.146900 0.000000
-11.125600 0.000000
-11.104200 0.000000
-11.082900 0.000000
-11.061500 0.000000
-11.040100 0.000000
-11.018800 0.000000
-10.997400 0.000000
-10.976100 0.000000
-10.954700 0.000000
-10.933400 0.671300
-10.912000 3.934100
-10.890700 5.936700
-10.869300 5.947500
-10.848000 8.579900
-10.826600 11.376500
-10.805300 32.340500
-10.783900 21.013700
-10.762500 22.232200
-10.741200 28.675200
-10.719800 42.199900
-10.698500 43.001800
-10.677100 66.259800
-10.655800 57.631800
-10.634400 39.516400
-10.613100 46.316500
-10.591700 41.899100
-10.570400 93.167200
-10.549000 74.347300
-10.527600 106.409300
-10.506300 132.828800
-10.484900 137.106000
-10.463600 163.515000
-10.442200 86.697800
-10.420900 45.495100
-10.399500 28.879300
-10.378200 27.804700
-10.356800 8.418700
-10.335500 5.721700
-10.314100 4.422900
-10.292800 4.007300
-10.271400 4.039500
-10.250000 3.246100
-10.228700 3.423300
-10.207300 0.850700
-10.186000 0.000000
-10.164600 0.000000
-10.143300 0.000000
-10.121900 0.000000
-10.100600 0.000000
-10.079200 0.000000
-10.057900 0.000000
-10.036500 0.000000
-10.015200 0.000000
-9.993800 0.000000
-9.972400 0.000000
-9.951100 0.000000
-9.929700 0.000000
-9.908400 0.000000
-9.887000 0.000000
-9.865700 0.000000
-9.844300 0.000000
-9.823000 0.000000
-9.801600 0.000000
-9.780300 0.000000
-9.758900 0.000000
-9.737500 0.000000
-9.716200 0.000000
-9.694800 0.000000
-9.673500 0.000000
-9.652100 0.000000
-9.630800 0.000000
-9.609400 0.000000
-9.588100 0.000000
-9.566700 0.000000
-9.545400 0.000000
-9.524000 0.000000
-9.502700 0.000000
-9.481300 0.000000
-9.459900 0.000000
-9.438600 0.000000
-9.417200 0.000000
-9.395900 0.000000
-9.374500 0.000000
-9.353200 0.000000
-9.331800 0.000000
-9.310500 0.000000
-9.289100 0.000000
-9.267800 0.000000
-9.246400 0.000000
-9.225100 0.000000
-9.203700 0.000000
-9.182300 0.000000
-9.161000 0.000000
-9.139600 0.000000
-9.118300 0.000000
-9.096900 0.000000
-9.075600 0.000000
-9.054200 0.000000
-9.032900 0.000000
-9.011500 0.000000
-8.990200 0.000000
-8.968800 0.000000
-8.947400 0.000000
-8.926100 0.000000
-8.904700 0.000000
-8.883400 0.000000
-8.862000 0.000000
-8.840700 0.000000
-8.819300 0.000000
-8.798000 0.000000
-8.776600 0.000000
-8.755300 0.000000
-8.733900 0.000000
-8.712600 0.000000
-8.691200 0.000000
-8.669800 0.000000
-8.648500 0.000000
-8.627100 0.000000
-8.605800 0.000000
-8.584400 0.000000
-8.563100 0.000000
-8.541700 0.000000
-8.520400 0.000000
-8.499000 0.000000
-8.477700 0.000000
-8.456300 0.000000
-8.435000 0.000000
-8.413600 0.000000
-8.392200 0.000000
-8.370900 0.000000
-8.349500 0.000000
-8.328200 0.000000
-8.306800 0.000000
-8.285500 0.000000
-8.264100 0.000000
-8.242800 0.000000
-8.221400 0.000000
-8.200100 0.000000
-8.178700 0.000000
-8.157300 0.000000
-8.136000 0.000000
-8.114600 0.000000
-8.093300 0.000000
-8.071900 0.000000
-8.050600 0.000000
-8.029200 0.000000
-8.007900 0.000000
-7.986500 0.000000
-7.965200 0.000000
-7.943800 0.000000
-7.922500 0.007900
-7.901100 0.044600
-7.879700 0.095200
-7.858400 0.147500
-7.837000 0.192100
-7.815700 0.217900
-7.794300 0.237900
-7.773000 0.240500
-7.751600 0.253500
-7.730300 0.274600
-7.708900 0.296400
-7.687600 0.319100
-7.666200 0.342600
-7.644800 0.361700
-7.623500 0.383700
-7.602100 0.399200
-7.580800 0.410600
-7.559400 0.421100
-7.538100 0.433800
-7.516700 0.447300
-7.495400 0.461100
-7.474000 0.476800
-7.452700 0.494700
-7.431300 0.512300
-7.410000 0.530500
-7.388600 0.549400
-7.367200 0.568800
-7.345900 0.589000
-7.324500 0.610200
-7.303200 0.667700
-7.281800 0.706400
-7.260500 0.729600
-7.239100 0.734600
-7.217800 0.731100
-7.196400 0.728100
-7.175100 0.718000
-7.153700 0.723600
-7.132400 0.729100
-7.111000 0.734100
-7.089600 0.738600
-7.068300 0.742700
-7.046900 0.746700
-7.025600 0.746400
-7.004200 0.742300
-6.982900 0.740500
-6.961500 0.741100
-6.940200 0.745300
-6.918800 0.750700
-6.897500 0.756300
-6.876100 0.761900
-6.854700 0.767500
-6.833400 0.773000
-6.812000 0.778600
-6.790700 0.784100
-6.769300 0.789600
-6.748000 0.794500
-6.726600 0.799100
-6.705300 0.803600
-6.683900 0.808100
-6.662600 0.813100
-6.641200 0.819000
-6.619900 0.826700
-6.598500 0.834400
-6.577100 0.842400
-6.555800 0.850800
-6.534400 0.860000
-6.513100 0.869800
-6.491700 0.880000
-6.470400 0.890400
-6.449000 0.900800
-6.427700 0.911500
-6.406300 0.924500
-6.385000 0.938900
-6.363600 0.954200
-6.342300 0.970500
-6.320900 0.992300
-6.299500 1.017100
-6.278200 1.059300
-6.256800 1.116000
-6.235500 1.193300
-6.214100 1.311400
-6.192800 1.473200
-6.171400 1.528900
-6.150100 1.544400
-6.128700 1.483800
-6.107400 1.344400
-6.086000 1.218000
-6.064600 1.109500
-6.043300 1.026200
-6.021900 0.982100
-6.000600 0.961700
-5.979200 0.937700
-5.957900 0.910000
-5.936500 0.878200
-5.915200 0.837000
-5.893800 0.793100
-5.872500 0.758500
-5.851100 0.730700
-5.829800 0.707800
-5.808400 0.692900
-5.787000 0.680900
-5.765700 0.668900
-5.744300 0.656700
-5.723000 0.644600
-5.701600 0.632700
-5.680300 0.620800
-5.658900 0.610900
-5.637600 0.600900
-5.616200 0.588600
-5.594900 0.574400
-5.573500 0.557400
-5.552200 0.541900
-5.530800 0.528800
-5.509400 0.517400
-5.488100 0.508200
-5.466700 0.499600
-5.445400 0.490900
-5.424000 0.493900
-5.402700 0.513400
-5.381300 0.512400
-5.360000 0.521400
-5.338600 0.528200
-5.317300 0.532800
-5.295900 0.535200
-5.274500 0.535300
-5.253200 0.539500
-5.231800 0.541300
-5.210500 0.551900
-5.189100 0.569500
-5.167800 0.574800
-5.146400 0.570800
-5.125100 0.562100
-5.103700 0.553900
-5.082400 0.545400
-5.061000 0.529600
-5.039700 0.515900
-5.018300 0.504400
-4.996900 0.493400
-4.975600 0.482600
-4.954200 0.471800
-4.932900 0.744700
-4.911500 0.556700
-4.890200 0.220100
-4.868800 0.224200
-4.847500 0.228500
-4.826100 0.233100
-4.804800 0.238400
-4.783400 0.243800
-4.762000 0.249400
-4.740700 0.255100
-4.719300 0.261300
-4.698000 0.267700
-4.676600 0.274300
-4.655300 0.280500
-4.633900 0.286000
-4.612600 0.291100
-4.591200 0.295500
-4.569900 0.299500
-4.548500 0.303700
-4.527200 0.308900
-4.505800 0.313700
-4.484400 0.318600
-4.463100 0.323800
-4.441700 0.329100
-4.420400 0.334300
-4.399000 0.339600
-4.377700 0.344900
-4.356300 0.350300
-4.335000 0.355700
-4.313600 0.361300
-4.292300 0.367300
-4.270900 0.373700
-4.249600 0.380300
-4.228200 0.387100
-4.206800 0.394300
-4.185500 0.401500
-4.164100 0.408900
-4.142800 0.416400
-4.121400 0.424000
-4.100100 0.431800
-4.078700 0.439700
-4.057400 0.447800
-4.036000 0.459500
-4.014700 0.477100
-3.993300 0.498500
-3.971900 0.522900
-3.950600 0.549000
-3.929200 0.576200
-3.907900 0.654200
-3.886500 0.960700
-3.865200 1.095900
-3.843800 1.218700
-3.822500 1.305400
-3.801100 1.321400
-3.779800 1.285700
-3.758400 1.280500
-3.737100 1.288300
-3.715700 1.302300
-3.694300 1.349100
-3.673000 1.334500
-3.651600 1.307600
-3.630300 1.269800
-3.608900 1.247900
-3.587600 1.242100
-3.566200 1.245700
-3.544900 1.213100
-3.523500 1.197400
-3.502200 1.183700
-3.480800 1.183500
-3.459500 1.199700
-3.438100 1.204600
-3.416700 1.208400
-3.395400 1.211800
-3.374000 1.214000
-3.352700 1.214900
-3.331300 1.223700
-3.310000 1.266200
-3.288600 1.246200
-3.267300 1.236700
-3.245900 1.234500
-3.224600 1.240300
-3.203200 1.254000
-3.181800 1.274800
-3.160500 1.305100
-3.139100 1.332800
-3.117800 1.359000
-3.096400 1.403600
-3.075100 1.427200
-3.053700 1.399100
-3.032400 1.354400
-3.011000 1.274300
-2.989700 1.207100
-2.968300 1.151300
-2.947000 1.119100
-2.925600 1.096300
-2.904200 1.083400
-2.882900 1.071300
-2.861500 1.058000
-2.840200 1.043600
-2.818800 1.013300
-2.797500 1.009400
-2.776100 1.019400
-2.754800 1.020500
-2.733400 1.015100
-2.712100 1.000300
-2.690700 1.008200
-2.669400 0.947500
-2.648000 0.911100
-2.626600 0.902400
-2.605300 0.907200
-2.583900 0.921300
-2.562600 0.970700
-2.541200 0.931600
-2.519900 0.900800
-2.498500 0.895500
-2.477200 0.781100
-2.455800 0.786600
-2.434500 0.792400
-2.413100 0.798900
-2.391700 0.806100
-2.370400 0.811400
-2.349000 0.820800
-2.327700 0.833600
-2.306300 0.848800
-2.285000 0.864300
-2.263600 0.895900
-2.242300 0.910800
-2.220900 0.925200
-2.199600 0.938400
-2.178200 0.949900
-2.156900 0.959700
-2.135500 0.967800
-2.114100 0.974700
-2.092800 0.983000
-2.071400 1.000200
-2.050100 1.016000
-2.028700 1.028100
-2.007400 1.027600
-1.986000 1.030800
-1.964700 1.039500
-1.943300 1.048500
-1.922000 1.058300
-1.900600 1.069300
-1.879200 1.006400
-1.857900 0.999400
-1.836500 0.990400
-1.815200 0.979700
-1.793800 0.969000
-1.772500 0.985000
-1.751100 1.001000
-1.729800 0.980300
-1.708400 0.909200
-1.687100 0.898400
-1.665700 0.909900
-1.644400 0.937600
-1.623000 0.939400
-1.601600 0.928100
-1.580300 0.919800
-1.558900 0.919300
-1.537600 0.922000
-1.516200 0.927000
-1.494900 0.936100
-1.473500 0.941800
-1.452200 0.975400
-1.430800 0.999200
-1.409500 1.004300
-1.388100 1.007300
-1.366800 1.006600
-1.345400 1.008500
-1.324000 1.008700
-1.302700 1.004600
-1.281300 1.036300
-1.260000 1.056500
-1.238600 1.060400
-1.217300 1.056800
-1.195900 1.031700
-1.174600 1.042600
-1.153200 1.054500
-1.131900 1.069600
-1.110500 1.088900
-1.089100 1.112100
-1.067800 1.139100
-1.046400 1.168600
-1.025100 1.205000
-1.003700 1.247600
-0.982400 1.313700
-0.961000 1.393900
-0.939700 1.410400
-0.918300 1.403600
-0.897000 1.397600
-0.875600 1.405300
-0.854300 1.406700
-0.832900 1.414300
-0.811500 1.426200
-0.790200 1.440900
-0.768800 1.460500
-0.747500 1.459800
-0.726100 1.473600
-0.704800 1.497600
-0.683400 1.534500
-0.662100 1.555200
-0.640700 1.605000
-0.619400 1.961400
-0.598000 1.865400
-0.576700 1.699800
-0.555300 1.718800
-0.533900 1.750700
-0.512600 1.783700
-0.491200 1.813200
-0.469900 1.839300
-0.448500 1.836300
-0.427200 1.854800
-0.405800 1.881200
-0.384500 1.894000
-0.363100 1.889000
-0.341800 1.866300
-0.320400 1.849800
-0.299000 1.821300
-0.277700 1.798300
-0.256300 1.724200
-0.235000 1.611000
-0.213600 1.471600
-0.192300 1.322100
-0.170900 1.179100
-0.149600 1.086200
-0.128200 1.017500
-0.106900 0.981200
-0.085500 0.965700
-0.064200 0.923200
-0.042800 0.902800
-0.021400 0.884300
-0.000100 0.867600
0.021300 0.852700
0.042600 0.897100
0.064000 0.941600
0.085300 0.960000
0.106700 1.028200
0.128000 1.072500
0.149400 1.003500
0.170700 1.093500
0.192100 1.061800
0.213400 1.090600
0.234800 1.106400
0.256200 1.105200
0.277500 1.088600
0.298900 1.113000
0.320200 1.159000
0.341600 1.180100
0.362900 1.225100
0.384300 1.185200
0.405600 1.206000
0.427000 1.227200
0.448300 1.245500
0.469700 1.258600
0.491100 1.281000
0.512400 1.268100
0.533800 1.213100
0.555100 1.207100
0.576500 1.180800
0.597800 1.165400
0.619200 1.158000
0.640500 1.164600
0.661900 1.265600
0.683200 1.254300
0.704600 1.269200
0.725900 1.285000
0.747300 1.301200
0.768700 1.316100
0.790000 1.353500
0.811400 1.377600
0.832700 1.352900
0.854100 1.355800
0.875400 1.362100
0.896800 1.367700
0.918100 1.372600
0.939500 1.376900
0.960800 1.381000
0.982200 1.387600
1.003600 1.383700
1.024900 1.390400
1.046300 1.392600
1.067600 1.399800
1.089000 1.407700
1.110300 1.416300
1.131700 1.425600
1.153000 1.435800
1.174400 1.446700
1.195700 1.454200
1.217100 1.507400
1.238400 1.557400
1.259800 1.546500
1.281200 1.560000
1.302500 1.572600
1.323900 1.580700
1.345200 1.593800
1.366600 1.609100
1.387900 1.616700
1.409300 1.636200
1.430600 1.628000
1.452000 1.624500
1.473300 1.618300
1.494700 1.611300
1.516000 1.603600
1.537400 1.595100
1.558800 1.588200
1.580100 1.592000
1.601500 1.590600
1.622800 1.591600
1.644200 1.595300
1.665500 1.602000
1.686900 1.614500
1.708200 1.634300
1.729600 1.706600
1.750900 1.739300
1.772300 1.733400
1.793700 1.731600
1.815000 1.746800
1.836400 1.758900
1.857700 1.768200
1.879100 1.765500
1.900400 1.749100
1.921800 1.728500
1.943100 1.707000
1.964500 1.693800
1.985800 1.688800
2.007200 1.691900
2.028500 1.709000
2.049900 1.734800
2.071300 1.765200
2.092600 1.800900
2.114000 1.801700
2.135300 1.726600
2.156700 1.716800
2.178000 1.715900
2.199400 1.722300
2.220700 1.721500
2.242100 1.705300
2.263400 1.691000
2.284800 1.699400
2.306100 1.703300
2.327500 1.701900
2.348900 1.702400
2.370200 1.711700
2.391600 1.725600
2.412900 1.743200
2.434300 1.760500
2.455600 1.771000
2.477000 1.775700
2.498300 1.799500
2.519700 1.823200
2.541000 1.871600
2.562400 1.903200
2.583800 1.936700
2.605100 1.898000
2.626500 1.926500
2.647800 1.926700
2.669200 1.942400
2.690500 1.936800
2.711900 1.938800
2.733200 1.949200
2.754600 1.947000
2.775900 1.947200
2.797300 1.948900
2.818600 1.949200
2.840000 1.948600
2.861400 1.946900
2.882700 1.946100
2.904100 1.947100
2.925400 1.948800
2.946800 1.950900
2.968100 1.948700
2.989500 1.944800
3.010800 1.945900
3.032200 1.953400
3.053500 1.982800
3.074900 1.961400
3.096300 1.988600
3.117600 2.002800
3.139000 2.003000
3.160300 2.000700
3.181700 1.999500
3.203000 1.995200
3.224400 1.992400
3.245700 2.034100
3.267100 1.896000
3.288400 1.874500
3.309800 1.858300
3.331100 1.850700
3.352500 1.854100
3.373900 1.848600
3.395200 1.849000
3.416600 1.851800
3.437900 1.859500
3.459300 1.845200
3.480600 1.836300
3.502000 1.808200
3.523300 1.789700
3.544700 1.804200
3.566000 1.804900
3.587400 1.804400
3.608700 1.802800
3.630100 1.763900
3.651500 1.702700
3.672800 1.650200
3.694200 1.607100
3.715500 1.574900
3.736900 1.549200
3.758200 1.529200
3.779600 1.516000
3.800900 1.443600
3.822300 1.423600
3.843600 1.395300
3.865000 1.372300
3.886400 1.369200
3.907700 1.371300
3.929100 1.378300
3.950400 1.384400
3.971800 1.390900
3.993100 1.392700
4.014500 1.422700
4.035800 1.477000
4.057200 1.425900
4.078500 1.383800
4.099900 1.376300
4.121200 1.364400
4.142600 1.341300
4.164000 1.262100
4.185300 1.234000
4.206700 1.223400
4.228000 1.241700
4.249400 1.262400
4.270700 1.275100
4.292100 1.280900
4.313400 1.288700
4.334800 1.310500
4.356100 1.335000
4.377500 1.360500
4.398800 1.408600
4.420200 1.445900
4.441600 1.519800
4.462900 1.595700
4.484300 1.653700
4.505600 1.736800
4.527000 1.817800
4.548300 1.863300
4.569700 1.844000
4.591000 1.740800
4.612400 1.753300
4.633700 1.774800
4.655100 1.796300
4.676500 1.799700
4.697800 1.804100
4.719200 1.810200
4.740500 1.816400
4.761900 1.824900
4.783200 1.861100
4.804600 1.882100
4.825900 1.897700
4.847300 1.902000
4.868600 1.905600
4.890000 1.945200
4.911300 1.955800
4.932700 1.949800
4.954100 1.908000
4.975400 1.849400
4.996800 1.789300
5.018100 1.727200
5.039500 1.669500
5.060800 1.632500
5.082200 1.594800
5.103500 1.581800
5.124900 1.567900
5.146200 1.540700
5.167600 1.521600
5.188900 1.489100
5.210300 1.479800
5.231700 1.479000
5.253000 1.479100
5.274400 1.478600
5.295700 1.479900
5.317100 1.505000
5.338400 1.537700
5.359800 1.577700
5.381100 1.612300
5.402500 1.635300
5.423800 1.639000
5.445200 1.649700
5.466600 1.673400
5.487900 1.703600
5.509300 1.735200
5.530600 1.787800
5.552000 1.829100
5.573300 1.880900
5.594700 1.965300
5.616000 2.036000
5.637400 2.096100
5.658700 2.055600
5.680100 2.032500
5.701400 2.009800
5.722800 1.867800
5.744200 1.740800
5.765500 1.691100
5.786900 1.664600
5.808200 1.639600
5.829600 1.620200
5.850900 1.599600
5.872300 1.569800
5.893600 1.561200
5.915000 1.515800
5.936300 1.477700
5.957700 1.502600
5.979100 1.531400
6.000400 1.554800
6.021800 1.574500
6.043100 1.576500
6.064500 1.581500
6.085800 1.601400
6.107200 1.650500
6.128500 1.727200
6.149900 1.812000
6.171200 1.859700
6.192600 1.899400
6.213900 1.972200
6.235300 2.079700
6.256700 2.199800
6.278000 2.330100
6.299400 2.370100
6.320700 2.387400
6.342100 2.425900
6.363400 2.402000
6.384800 2.337000
6.406100 2.311500
6.427500 2.301400
6.448800 2.235200
6.470200 2.294000
6.491500 2.334200
6.512900 2.328600
6.534300 2.329000
6.555600 2.364100
6.577000 2.372500
6.598300 2.325200
6.619700 2.254800
6.641000 2.151600
6.662400 2.038500
6.683700 1.953000
6.705100 1.885800
6.726400 1.827400
6.747800 1.766300
6.769200 1.694200
6.790500 1.632000
6.811900 1.583500
6.833200 1.529400
6.854600 1.517600
6.875900 1.511100
6.897300 1.508900
6.918600 1.510500
6.940000 1.519300
6.961300 1.519800
6.982700 1.533800
7.004000 1.557900
7.025400 1.582900
7.046800 1.624800
7.068100 1.682500
7.089500 1.755900
7.110800 1.847500
7.132200 1.909900
7.153500 1.975700
7.174900 2.073800
7.196200 2.180100
7.217600 2.237200
7.238900 2.367700
7.260300 2.407000
7.281600 2.305600
7.303000 2.306400
7.324400 2.304000
7.345700 2.127200
7.367100 1.888700
7.388400 1.794500
7.409800 1.756100
7.431100 1.748100
7.452500 1.750800
7.473800 1.756600
7.495200 1.763700
7.516500 1.777400
7.537900 1.799300
7.559300 1.833800
7.580600 1.878800
7.602000 1.934600
7.623300 2.060900
7.644700 2.225300
7.666000 2.299000
7.687400 2.350300
7.708700 2.442600
7.730100 2.465600
7.751400 2.511500
7.772800 2.433200
7.794100 2.296100
7.815500 2.197800
7.836900 2.162300
7.858200 2.129500
7.879600 2.128800
7.900900 2.072100
7.922300 2.016400
7.943600 1.988200
7.965000 2.016300
7.986300 1.980400
8.007700 1.908300
8.029000 1.849900
8.050400 1.803200
8.071700 1.755000
8.093100 1.767500
8.114500 1.745700
8.135800 1.746800
8.157200 1.792900
8.178500 1.739400
8.199900 1.679400
8.221200 1.666300
8.242600 1.666100
8.263900 1.652000
8.285300 1.629200
8.306600 1.705500
8.328000 1.729600
8.349400 1.789000
8.370700 1.865100
8.392100 1.946700
8.413400 2.067600
8.434800 2.225700
8.456100 2.306400
8.477500 2.394300
8.498800 2.470600
8.520200 2.544300
8.541500 2.620300
8.562900 2.680500
8.584200 2.714900
8.605600 2.746900
8.627000 2.799000
8.648300 2.804500
8.669700 2.740300
8.691000 2.927900
8.712400 2.384200
8.733700 2.393300
8.755100 2.310300
8.776400 2.274500
8.797800 2.244300
8.819100 2.232300
8.840500 2.222600
8.861900 2.252900
8.883200 2.327300
8.904600 2.426700
8.925900 2.498600
8.947300 2.505200
8.968600 2.582500
8.990000 2.673000
9.011300 2.721400
9.032700 2.726800
9.054000 2.756400
9.075400 2.749400
9.096700 2.684400
9.118100 2.610800
9.139500 2.518400
9.160800 2.427200
9.182200 2.393500
9.203500 2.350900
9.224900 2.378300
9.246200 2.308800
9.267600 2.287200
9.288900 2.269400
9.310300 2.254900
9.331600 2.246000
9.353000 2.246400
9.374300 2.255600
9.395700 2.253300
9.417100 2.239400
9.438400 2.219800
9.459800 2.193500
9.481100 2.155800
9.502500 2.115600
9.523800 2.075800
9.545200 2.044100
9.566500 1.969700
9.587900 1.855000
9.609200 1.751400
9.630600 1.672100
9.652000 1.562700
9.673300 1.519800
9.694700 1.498700
9.716000 1.484500
9.737400 1.408000
9.758700 1.378500
9.780100 1.370900
9.801400 1.363500
9.822800 1.351800
9.844100 1.339600
9.865500 1.327500
9.886800 1.303000
9.908200 1.297300
9.929600 1.293500
9.950900 1.292100
9.972300 1.292600
9.993600 1.291000
10.015000 1.283800
10.036300 1.273200
10.057700 1.266400
10.079000 1.263800
10.100400 1.255000
10.121700 1.255200
10.143100 1.256000
10.164400 1.257500
10.185800 1.260000
10.207200 1.265000
10.228500 1.272500
10.249900 1.282500
10.271200 1.294500
10.292600 1.309100
10.313900 1.329400
10.335300 1.349700
10.356600 1.365400
10.378000 1.380000
10.399300 1.399600
10.420700 1.427900
10.442100 1.451200
10.463400 1.470400
10.484800 1.484800
10.506100 1.487300
10.527500 1.476100
10.548800 1.496700
10.570200 1.577300
10.591500 1.644400
10.612900 1.715900
10.634200 1.811100
10.655600 1.905800
10.676900 1.965200
10.698300 2.011000
10.719700 2.041800
10.741000 2.068600
10.762400 2.084400
10.783700 2.060100
10.805100 2.059200
10.826400 2.052800
10.847800 2.034200
10.869100 2.019600
10.890500 2.004800
10.911800 1.984300
10.933200 1.961600
10.954500 1.945100
10.975900 1.930000
10.997300 1.911500
11.018600 1.879900
11.040000 1.836100
11.061300 1.773800
11.082700 1.720800
11.104000 1.700500
11.125400 1.682600
11.146700 1.667200
11.168100 1.654400
11.189400 1.644000
11.210800 1.634000
11.232200 1.621400
11.253500 1.610600
11.274900 1.631500
11.296200 1.631100
11.317600 1.641900
11.338900 1.637000
11.360300 1.632700
11.381600 1.634600
11.403000 1.640800
11.424300 1.654900
11.445700 1.674100
11.467000 1.688800
11.488400 1.732200
11.509800 1.753400
11.531100 1.807600
11.552500 1.861700
11.573800 1.949000
11.595200 2.028500
11.616500 2.155200
11.637900 1.953400
11.659200 1.873300
11.680600 1.885700
11.701900 1.900400
11.723300 1.916400
11.744700 1.933700
11.766000 1.961600
11.787400 1.957400
11.808700 1.988600
11.830100 2.040500
11.851400 2.079000
11.872800 2.171000
11.894100 2.200200
11.915500 2.141100
11.936800 2.046000
11.958200 1.984600
11.979500 1.923800
12.000900 1.849200
12.022300 1.759200
12.043600 1.720600
12.065000 1.684900
12.086300 1.653600
12.107700 1.634200
12.129000 1.625700
12.150400 1.600700
12.171700 1.580100
12.193100 1.573600
12.214400 1.598300
12.235800 1.623700
12.257100 1.645000
12.278500 1.670800
12.299900 1.716000
12.321200 1.742500
12.342600 1.772400
12.363900 1.812700
12.385300 1.827400
12.406600 1.852300
12.428000 1.865700
12.449300 1.906900
12.470700 1.925500
12.492000 1.952700
12.513400 1.966300
12.534800 1.976200
12.556100 2.010400
12.577500 2.025700
12.598800 2.038600
12.620200 2.067100
12.641500 2.219400
12.662900 2.262400
12.684200 2.138000
12.705600 2.106800
12.726900 2.108400
12.748300 2.134800
12.769600 2.179200
12.791000 2.202000
12.812400 2.216900
12.833700 2.240500
12.855100 2.331600
12.876400 2.338800
12.897800 2.363700
12.919100 2.427400
12.940500 2.298000
12.961800 2.282200
12.983200 2.262000
13.004500 2.233900
13.025900 2.206900
13.047200 2.184500
13.068600 2.153800
13.090000 2.100500
13.111300 2.075500
13.132700 2.068000
13.154000 2.072900
13.175400 2.112500
13.196700 2.140900
13.218100 2.058900
13.239400 2.061100
13.260800 2.067300
13.282100 2.085100
13.303500 2.105600
13.324900 2.122400
13.346200 2.141700
13.367600 2.186400
13.388900 2.221300
13.410300 2.247100
13.431600 2.236000
13.453000 2.212000
13.474300 2.214800
13.495700 2.235100
13.517000 2.252400
13.538400 2.268600
13.559700 2.298000
13.581100 2.312400
13.602500 2.357900
13.623800 2.396000
13.645200 2.426300
13.666500 2.483000
13.687900 2.490500
13.709200 2.537300
13.730600 2.630400
13.751900 2.758100
13.773300 2.542600
13.794600 2.410100
13.816000 2.343400
13.837300 2.280500
13.858700 2.228500
13.880100 2.138000
13.901400 2.092500
13.922800 2.082100
13.944100 2.106300
13.965500 2.096500
13.986800 2.099900
14.008200 2.124700
14.029500 2.213600
14.050900 2.280900
14.072200 2.343600
14.093600 2.414400
14.115000 2.409200
14.136300 2.426000
14.157700 2.443900
14.179000 2.493300
14.200400 2.496900
14.221700 2.511400
14.243100 2.541800
14.264400 2.552200
14.285800 2.570500
14.307100 2.621400
14.328500 2.613800
14.349800 2.621900
14.371200 2.614700
14.392600 2.599600
14.413900 2.600700
14.435300 2.597300
14.456600 2.535800
14.478000 2.539900
14.499300 2.552100
14.520700 2.566900
14.542000 2.586800
14.563400 2.604900
14.584700 2.615300
14.606100 2.624300
14.627500 2.603700
14.648800 2.597600
14.670200 2.594800
14.691500 2.584900
14.712900 2.560400
14.734200 2.537000
14.755600 2.493700
14.776900 2.481700
14.798300 2.511500
14.819600 2.520400
14.841000 2.564300
14.862300 2.615500
14.883700 2.650900
14.905100 2.678300
14.926400 2.697000
14.947800 2.702800
14.969100 2.683400
14.990500 2.628800
15.011800 2.584000
15.033200 2.567700
15.054500 2.557500
15.075900 2.515800
15.097200 2.491500
15.118600 2.475200
15.139900 2.463300
15.161300 2.432100
15.182700 2.389800
15.204000 2.355100
15.225400 2.323200
15.246700 2.272500
15.268100 2.245100
15.289400 2.232000
15.310800 2.222000
15.332100 2.218800
15.353500 2.234500
15.374800 2.254600
15.396200 2.279400
15.417600 2.285700
15.438900 2.254800
15.460300 2.207500
15.481600 2.191200
15.503000 2.274600
15.524300 2.128200
15.545700 2.208600
15.567000 2.309600
15.588400 2.447800
15.609700 2.520500
15.631100 2.550400
15.652400 2.602400
15.673800 2.558600
15.695200 2.511300
15.716500 2.466500
15.737900 2.449200
15.759200 2.450000
15.780600 2.459700
15.801900 2.471400
15.823300 2.484300
15.844600 2.494600
15.866000 2.532400
15.887300 2.772600
15.908700 2.846200
15.930000 2.912500
15.951400 2.776500
15.972800 2.599100
15.994100 2.531400
16.015500 2.550200
16.036800 2.627300
16.058200 2.654300
16.079500 2.624600
16.100900 2.576100
16.122200 2.599000
16.143600 2.474700
16.164900 2.371600
16.186300 2.306600
16.207700 2.325800
16.229000 2.317200
16.250400 2.262500
16.271700 2.213700
16.293100 2.226300
16.314400 2.251100
16.335800 2.273700
16.357100 2.289400
16.378500 2.299900
16.399800 2.311900
16.421200 2.270100
16.442500 2.205500
16.463900 2.187700
16.485300 2.205800
16.506600 2.219500
16.528000 2.648300
16.549300 2.262200
16.570700 2.208300
16.592000 2.196600
16.613400 2.196100
16.634700 2.196900
16.656100 2.200700
16.677400 2.209700
16.698800 2.219300
16.720100 2.204800
16.741500 2.106200
16.762900 2.101800
16.784200 2.126400
16.805600 2.169100
16.826900 2.128600
16.848300 2.142200
16.869600 2.167600
16.891000 2.199000
16.912300 2.235900
16.933700 2.287900
16.955000 2.281800
16.976400 2.299000
16.997800 2.308900
17.019100 2.316600
17.040500 2.327900
17.061800 2.340200
17.083200 2.356700
17.104500 2.376900
17.125900 2.406800
17.147200 2.446800
17.168600 2.483700
17.189900 2.513600
17.211300 2.501700
17.232600 2.509600
17.254000 2.530500
17.275400 2.544900
17.296700 2.558100
17.318100 2.571500
17.339400 2.583300
17.360800 2.694300
17.382100 2.621200
17.403500 2.629900
17.424800 2.656800
17.446200 2.747600
17.467500 2.826100
17.488900 2.737600
17.510300 2.651000
17.531600 2.614800
17.553000 2.548700
17.574300 2.472100
17.595700 2.398400
17.617000 2.322500
17.638400 2.280600
17.659700 2.248500
17.681100 2.215400
17.702400 2.181900
17.723800 2.161100
17.745100 2.112300
17.766500 2.089400
17.787900 2.068100
17.809200 2.048300
17.830600 2.031300
17.851900 1.992400
17.873300 1.992800
17.894600 2.001900
17.916000 2.018400
17.937300 2.039200
17.958700 2.209500
17.980000 2.100800
18.001400 2.111800
18.022700 2.186900
18.044100 2.143600
18.065500 2.198900
18.086800 2.265200
18.108200 2.330300
18.129500 2.385400
18.150900 2.427600
18.172200 2.434500
18.193600 2.422300
18.214900 2.392500
18.236300 2.433200
18.257600 2.438000
18.279000 2.444900
18.300400 2.488300
18.321700 2.530000
18.343100 2.554700
18.364400 2.612000
18.385800 2.597300
18.407100 2.538300
18.428500 2.524600
18.449800 2.498900
18.471200 2.475300
18.492500 2.433500
18.513900 2.398000
18.535200 2.380900
18.556600 2.378600
18.578000 2.372800
18.599300 2.365800
18.620700 2.377300
18.642000 2.397000
18.663400 2.405600
18.684700 2.414700
18.706100 2.414400
18.727400 2.389100
18.748800 2.379700
18.770100 2.377400
18.791500 2.409200
18.812800 2.430200
18.834200 2.436200
18.855600 2.452400
18.876900 2.484100
18.898300 2.518000
18.919600 2.556300
18.941000 2.586100
18.962300 2.615700
18.983700 2.667200
19.005000 2.676200
19.026400 2.635300
19.047700 2.570700
19.069100 2.525300
19.090500 2.535300
19.111800 2.534100
19.133200 2.534400
19.154500 2.553700
19.175900 2.676400
19.197200 2.725500
19.218600 2.672900
19.239900 2.681700
19.261300 2.696000
19.282600 2.713400
19.304000 2.748600
19.325300 2.836600
19.346700 2.835500
19.368100 2.787800
19.389400 2.815100
19.410800 2.829200
19.432100 3.081500
19.453500 3.337800
19.474800 3.379100
19.496200 3.322500
19.517500 3.321300
19.538900 3.159700
19.560200 2.897500
19.581600 2.680100
19.602900 2.533900
19.624300 2.393000
19.645700 2.106000
19.667000 2.009600
19.688400 2.017600
19.709700 2.037700
19.731100 2.065200
19.752400 2.061700
19.773800 2.103300
19.795100 2.200500
19.816500 2.309300
19.837800 2.353100
19.859200 2.395000
19.880600 2.527600
19.901900 2.681300
19.923300 2.813400
19.944600 2.832400
19.966000 2.851200
19.987300 2.878000
20.008700 3.093600
20.030000 2.785800
20.051400 2.535400
20.072700 2.487600
20.094100 2.445600
20.115400 2.489100
20.136800 2.513400
20.158200 2.510100
20.179500 2.466000
20.200900 2.385500
20.222200 2.355800
20.243600 2.342500
20.264900 2.351100
20.286300 2.361500
20.307600 2.385500
20.329000 2.398700
20.350300 2.406900
20.371700 2.450000
20.393100 2.492100
20.414400 2.537800
20.435800 2.635500
20.457100 2.624300
20.478500 2.605600
20.499800 2.882300
20.521200 2.881100
20.542500 2.400600
20.563900 2.278300
20.585200 2.194200
20.606600 2.149000
20.627900 2.116700
20.649300 2.089400
20.670700 2.093600
20.692000 2.106800
20.713400 2.124000
20.734700 2.140600
20.756100 2.166000
20.777400 2.214600
20.798800 2.254800
20.820100 2.292000
20.841500 2.329400
20.862800 2.368500
20.884200 2.421700
20.905500 2.491000
20.926900 2.555400
20.948300 2.589800
20.969600 2.599200
20.991000 2.620600
21.012300 2.663500
21.033700 2.736700
21.055000 2.831000
21.076400 2.918200
21.097700 2.995300
21.119100 3.061900
21.140400 3.105300
21.161800 3.161600
21.183200 3.024500
21.204500 2.969900
21.225900 2.935500
21.247200 2.894200
21.268600 2.774700
21.289900 2.591300
21.311300 2.568300
21.332600 2.548700
21.354000 2.567700
21.375300 2.726200
21.396700 2.772200
21.418000 2.817400
21.439400 2.842800
21.460800 2.895300
21.482100 3.040700
21.503500 3.166900
21.524800 3.198000
21.546200 3.218600
21.567500 3.199100
21.588900 3.157600
21.610200 3.110000
21.631600 3.102600
21.652900 3.091700
21.674300 3.046100
21.695600 3.031900
21.717000 2.991400
21.738400 2.964000
21.759700 2.950400
21.781100 2.939000
21.802400 2.934700
21.823800 2.968600
21.845100 2.935900
21.866500 2.811900
21.887800 2.839700
21.909200 2.894600
21.930500 2.926400
21.951900 2.888600
21.973300 2.837400
21.994600 2.761700
22.016000 2.700700
22.037300 2.721000
22.058700 2.808600
22.080000 2.751400
22.101400 2.649200
22.122700 2.562500
22.144100 2.552300
22.165400 2.575000
22.186800 2.559500
22.208100 2.379500
22.229500 2.170500
22.250900 2.097200
22.272200 2.082700
22.293600 2.096700
22.314900 2.113200
22.336300 2.124200
22.357600 2.134700
22.379000 2.147700
22.400300 2.160400
22.421700 2.147200
22.443000 2.139200
22.464400 2.138100
22.485700 2.151500
22.507100 2.254900
22.528500 2.406200
22.549800 2.552200
22.571200 2.595600
22.592500 2.637700
22.613900 2.855000
22.635200 3.138200
22.656600 3.208900
22.677900 3.207300
22.699300 3.740300
22.720600 2.961900
22.742000 2.811800
22.763400 2.765900
22.784700 2.668400
22.806100 2.649200
22.827400 2.615700
22.848800 2.590200
22.870100 2.584300
22.891500 2.603800
22.912800 2.627800
22.934200 2.659900
22.955500 2.702200
22.976900 2.745600
22.998200 2.800800
23.019600 2.870800
23.041000 2.934200
23.062300 2.995800
23.083700 3.022900
23.105000 3.042800
23.126400 3.049000
23.147700 3.015300
23.169100 2.973900
23.190400 2.946500
23.211800 2.919100
23.233100 2.851200
23.254500 2.778500
23.275900 2.705300
23.297200 2.651800
23.318600 2.625200
23.339900 2.495100
23.361300 2.381000
23.382600 2.295500
23.404000 2.212600
23.425300 2.130600
23.446700 2.062300
23.468000 2.037500
23.489400 2.055900
23.510700 2.068800
23.532100 2.136000
23.553500 2.316400
23.574800 2.385700
23.596200 2.417400
23.617500 2.454700
23.638900 2.485200
23.660200 2.550900
23.681600 2.628900
23.702900 2.713000
23.724300 2.824000
23.745600 2.949400
23.767000 3.008300
23.788300 3.120900
23.809700 3.223800
23.831100 3.286400
23.852400 3.233800
23.873800 3.283900
23.895100 3.362700
23.916500 3.478300
23.937800 3.577800
23.959200 3.598800
23.980500 3.381300
24.001900 3.026100
24.023200 3.004100
24.044600 2.875000
24.066000 2.682900
24.087300 2.393600
24.108700 2.282400
24.130000 2.225900
24.151400 2.149800
24.172700 2.094900
24.194100 2.035100
24.215400 1.979100
24.236800 1.928300
24.258100 1.823500
24.279500 1.696300
24.300800 1.668400
24.322200 1.641100
24.343600 1.772600
24.364900 1.769800
24.386300 1.823900
24.407600 1.907800
24.429000 2.008400
24.450300 2.143700
24.471700 2.319700
24.493000 2.521800
24.514400 2.759900
24.535700 2.835000
24.557100 2.930000
24.578400 2.997500
24.599800 3.032900
24.621200 3.081200
24.642500 3.083000
24.663900 3.128100
24.685200 3.203100
24.706600 3.290500
24.727900 3.389400
24.749300 3.475000
24.770600 3.715300
24.792000 3.694900
24.813300 3.624400
24.834700 3.507800
24.856100 3.374900
24.877400 3.322100
24.898800 3.329500
24.920100 3.234800
24.941500 3.019800
24.962800 2.759600
24.984200 2.642000
25.005500 2.558700
25.026900 2.553100
25.048200 2.587700
25.069600 2.616300
25.090900 2.634600
25.112300 2.726300
25.133700 2.822800
25.155000 2.941900
25.176400 3.029300
25.197700 3.081900
25.219100 3.185100
25.240400 3.270100
25.261800 3.324100
25.283100 3.427900
25.304500 3.526600
25.325800 3.611500
25.347200 3.657700
25.368500 3.620700
25.389900 3.547900
25.411300 3.450900
25.432600 3.442900
25.454000 3.368500
25.475300 3.353900
25.496700 3.352600
25.518000 3.391300
25.539400 3.530400
25.560700 3.480300
25.582100 3.276700
25.603400 3.176500
25.624800 3.089300
25.646200 3.023000
25.667500 2.976700
25.688900 3.085100
25.710200 2.849500
25.731600 2.860300
25.752900 2.866200
25.774300 2.836800
25.795600 2.847200
25.817000 2.882300
25.838300 2.924700
25.859700 2.992800
25.881000 3.047900
25.902400 3.109100
25.923800 3.121100
25.945100 3.110000
25.966500 3.077100
25.987800 3.064000
26.009200 3.049300
26.030500 3.025600
26.051900 2.955100
26.073200 2.890500
26.094600 2.833400
26.115900 2.776100
26.137300 2.714400
26.158700 2.638100
26.180000 2.553900
26.201400 2.465600
26.222700 2.385500
26.244100 2.320400
26.265400 2.292300
26.286800 2.331200
26.308100 2.329200
26.329500 2.316100
26.350800 2.314500
26.372200 2.312300
26.393500 2.302300
26.414900 2.288300
26.436300 2.258300
26.457600 2.259000
26.479000 2.253500
26.500300 2.235500
26.521700 2.213500
26.543000 2.185700
26.564400 2.171800
26.585700 2.164300
26.607100 2.134300
26.628400 2.112900
26.649800 2.079800
26.671100 2.056100
26.692500 2.124100
26.713900 2.188400
26.735200 2.178200
26.756600 2.131400
26.777900 2.060600
26.799300 1.962800
26.820600 1.851200
26.842000 1.741900
26.863300 1.635500
26.884700 1.536800
26.906000 1.438600
26.927400 1.320000
26.948800 1.207800
26.970100 1.075500
26.991500 0.940100
27.012800 0.811500
27.034200 0.728500
27.055500 0.593500
27.076900 0.528300
27.098200 0.484600
27.119600 0.446400
27.140900 0.412200
27.162300 0.382000
27.183600 0.354500
27.205000 0.329200
27.226400 0.306800
27.247700 0.286400
27.269100 0.267600
27.290400 0.250900
27.311800 0.235500
27.333100 0.221500
27.354500 0.208600
27.375800 0.197100
27.397200 0.186800
27.418500 0.177800
27.439900 0.170100
27.461200 0.166600
27.482600 0.166000
27.504000 0.164800
27.525300 0.163500
27.546700 0.162000
27.568000 0.160200
27.589400 0.158600
27.610700 0.157000
27.632100 0.155600
27.653400 0.154300
27.674800 0.152000
27.696100 0.148000
27.717500 0.142200
27.738900 0.134600
27.760200 0.125200
27.781600 0.114100
27.802900 0.101100
27.824300 0.080600
27.845600 0.047100
27.867000 0.012800
27.888300 0.000100
27.909700 0.000000
27.931000 0.000000
27.952400 0.000000
27.973700 0.000000
27.995100 0.000000
28.016500 0.000000
28.037800 0.000000
28.059200 0.000000
28.080500 0.000000
28.101900 0.000000
28.123200 0.000000
28.144600 0.000000
28.165900 0.000000
28.187300 0.000000
28.208600 0.000000
28.230000 0.000000
28.251300 0.000000
28.272700 0.000000
28.294100 0.000000
28.315400 0.000000
28.336800 0.000000
28.358100 0.000000
28.379500 0.000000
28.400800 0.000000
28.422200 0.000000
28.443500 0.000000
28.464900 0.000000
28.486200 0.000000
28.507600 0.000000
28.529000 0.000000
28.550300 0.000000
28.571700 0.000000
28.593000 0.000000
28.614400 0.000000
28.635700 0.000000
28.657100 0.000000
28.678400 0.000000
28.699800 0.000000
28.721100 0.000000
28.742500 0.000000
28.763800 0.000000
28.785200 0.000000
28.806600 0.000000
28.827900 0.000000
28.849300 0.000000
28.870600 0.000000
28.892000 0.000000
28.913300 0.000000
28.934700 0.000000
28.956000 0.000000
28.977400 0.000000
28.998700 0.000000
29.020100 0.000000
29.041500 0.000000
29.062800 0.000000
29.084200 0.000000
29.105500 0.000000
29.126900 0.000000
29.148200 0.000000
29.169600 0.000000
29.190900 0.000000
29.212300 0.000000
29.233600 0.000000
29.255000 0.000000
29.276300 0.000000
29.297700 0.000000
29.319100 0.000000
29.340400 0.000000
29.361800 0.000000
29.383100 0.000000
29.404500 0.000000
29.425800 0.000000
29.447200 0.000000
29.468500 0.000000
29.489900 0.000000
29.511200 0.000000
29.532600 0.000000
29.553900 0.000000
29.575300 0.000000
29.596700 0.000000
29.618000 0.000000
29.639400 0.000000
29.660700 0.000000
29.682100 0.000000
29.703400 0.000000
29.724800 0.000000
29.746100 0.000000
29.767500 0.000000
29.788800 0.000000
29.810200 0.000000
29.831600 0.000000
e
