set title 'mp-1219217 - Density of States'
set xlabel 'Energy (eV)'
set ylabel 'DOS (states/eV)'
set grid
set xrange [-10:10]
set yrange [0:19.439]
set xzeroaxis lt -1
set terminal png size 800,600
set output 'mp-1219217_dos_gnuplot.png'
plot '-' using 1:2 with lines title 'DOS'
-7.873500 0.000000
-7.855200 0.000000
-7.836900 0.000000
-7.818600 0.000000
-7.800300 0.000000
-7.782000 0.000000
-7.763700 0.000000
-7.745400 0.000000
-7.727100 0.000000
-7.708800 0.000000
-7.690500 0.000000
-7.672200 0.000000
-7.653900 0.000000
-7.635600 0.000000
-7.617300 0.000000
-7.599000 0.000000
-7.580700 0.000000
-7.562400 0.000000
-7.544100 0.000000
-7.525800 0.000000
-7.507500 0.000000
-7.489200 0.000000
-7.470900 0.000000
-7.452600 0.000000
-7.434300 0.000000
-7.416000 0.000000
-7.397700 0.000000
-7.379400 0.000000
-7.361100 0.000000
-7.342800 0.000000
-7.324500 0.000000
-7.306200 0.000000
-7.287900 0.000000
-7.269600 0.000000
-7.251200 0.000000
-7.232900 0.000000
-7.214600 0.000000
-7.196300 0.000000
-7.178000 0.000000
-7.159700 0.000000
-7.141400 0.000000
-7.123100 0.000000
-7.104800 0.000000
-7.086500 0.000000
-7.068200 0.000000
-7.049900 0.000000
-7.031600 0.000000
-7.013300 0.000000
-6.995000 0.000000
-6.976700 0.000000
-6.958400 0.000000
-6.940100 0.000000
-6.921800 0.000000
-6.903500 0.000000
-6.885200 0.000000
-6.866900 0.000000
-6.848600 0.000000
-6.830300 0.000000
-6.812000 0.000000
-6.793700 0.000000
-6.775400 0.000000
-6.757100 0.000000
-6.738800 0.000000
-6.720500 0.000000
-6.702200 0.000000
-6.683900 0.000000
-6.665600 0.000000
-6.647300 0.000000
-6.629000 0.000000
-6.610700 0.000000
-6.592400 0.000000
-6.574100 0.000000
-6.555800 0.000000
-6.537500 0.000000
-6.519200 0.000000
-6.500900 0.000000
-6.482600 0.000000
-6.464200 0.000000
-6.445900 0.000000
-6.427600 0.000000
-6.409300 0.000000
-6.391000 0.000000
-6.372700 0.000000
-6.354400 0.000000
-6.336100 0.000000
-6.317800 0.000000
-6.299500 0.000000
-6.281200 0.000000
-6.262900 0.000000
-6.244600 0.000000
-6.226300 0.000000
-6.208000 0.003500
-6.189700 0.065800
-6.171400 0.128000
-6.153100 0.190200
-6.134800 0.252400
-6.116500 0.314700
-6.098200 0.376900
-6.079900 0.439100
-6.061600 0.501300
-6.043300 0.563600
-6.025000 0.299800
-6.006700 0.305400
-5.988400 0.310900
-5.970100 0.316400
-5.951800 0.322000
-5.933500 0.327500
-5.915200 0.333000
-5.896900 0.338600
-5.878600 0.344100
-5.860300 0.349600
-5.842000 0.355200
-5.823700 0.360700
-5.805400 0.366200
-5.787100 0.371800
-5.768800 0.377300
-5.750500 0.382800
-5.732200 0.388400
-5.713900 0.393900
-5.695500 0.394900
-5.677200 0.389300
-5.658900 0.383700
-5.640600 0.378100
-5.622300 0.372500
-5.604000 0.366900
-5.585700 0.361300
-5.567400 0.355700
-5.549100 0.350100
-5.530800 0.347900
-5.512500 0.350200
-5.494200 0.352400
-5.475900 0.354700
-5.457600 0.356900
-5.439300 0.359200
-5.421000 0.361400
-5.402700 0.363700
-5.384400 0.365900
-5.366100 0.368200
-5.347800 0.370400
-5.329500 0.372700
-5.311200 0.374900
-5.292900 0.377200
-5.274600 0.379400
-5.256300 0.381700
-5.238000 0.383900
-5.219700 0.386200
-5.201400 0.388400
-5.183100 0.390700
-5.164800 0.392900
-5.146500 0.395200
-5.128200 0.397400
-5.109900 0.399700
-5.091600 0.401900
-5.073300 0.404200
-5.055000 0.383200
-5.036700 0.383600
-5.018400 0.384000
-5.000100 0.384300
-4.981800 0.384700
-4.963500 0.385100
-4.945200 0.385500
-4.926900 0.385800
-4.908500 0.386200
-4.890200 0.386600
-4.871900 0.387000
-4.853600 0.387300
-4.835300 0.387700
-4.817000 0.388100
-4.798700 0.388500
-4.780400 0.388800
-4.762100 0.389200
-4.743800 0.390100
-4.725500 0.391700
-4.707200 0.393200
-4.688900 0.394700
-4.670600 0.396300
-4.652300 0.397800
-4.634000 0.399300
-4.615700 0.400900
-4.597400 0.402400
-4.579100 0.404000
-4.560800 0.405500
-4.542500 0.407000
-4.524200 0.408600
-4.505900 0.410100
-4.487600 0.411600
-4.469300 0.413200
-4.451000 0.414700
-4.432700 0.416300
-4.414400 0.417800
-4.396100 0.419300
-4.377800 0.420900
-4.359500 0.422400
-4.341200 0.424000
-4.322900 0.425500
-4.304600 0.427000
-4.286300 0.427000
-4.268000 0.426700
-4.249700 0.426400
-4.231400 0.426000
-4.213100 0.425700
-4.194800 0.425400
-4.176500 0.425100
-4.158200 0.425300
-4.139900 0.426700
-4.121500 0.428200
-4.103200 0.429600
-4.084900 0.431100
-4.066600 0.432500
-4.048300 0.434000
-4.030000 0.435400
-4.011700 0.436900
-3.993400 0.438300
-3.975100 0.439800
-3.956800 0.441200
-3.938500 0.442700
-3.920200 0.444100
-3.901900 0.445600
-3.883600 0.447100
-3.865300 0.448500
-3.847000 0.450000
-3.828700 0.451400
-3.810400 0.452900
-3.792100 0.454300
-3.773800 0.455800
-3.755500 0.457400
-3.737200 0.459400
-3.718900 0.461400
-3.700600 0.463400
-3.682300 0.465400
-3.664000 0.467400
-3.645700 0.469400
-3.627400 0.471400
-3.609100 0.473300
-3.590800 0.475300
-3.572500 0.477300
-3.554200 0.479300
-3.535900 0.481300
-3.517600 0.483300
-3.499300 0.485300
-3.481000 0.487200
-3.462700 0.489200
-3.444400 0.491200
-3.426100 0.493200
-3.407800 0.495200
-3.389500 0.497200
-3.371200 0.499200
-3.352800 0.501100
-3.334500 0.511000
-3.316200 0.515200
-3.297900 0.519500
-3.279600 0.523700
-3.261300 0.528000
-3.243000 0.532200
-3.224700 0.536500
-3.206400 0.540700
-3.188100 0.545000
-3.169800 0.549200
-3.151500 0.553500
-3.133200 0.561600
-3.114900 0.570900
-3.096600 0.580200
-3.078300 0.589500
-3.060000 0.598800
-3.041700 0.608100
-3.023400 0.617400
-3.005100 0.626700
-2.986800 0.636000
-2.968500 0.645300
-2.950200 0.654600
-2.931900 0.663900
-2.913600 0.673200
-2.895300 0.682500
-2.877000 0.691800
-2.858700 0.701100
-2.840400 0.710400
-2.822100 0.719700
-2.803800 0.729000
-2.785500 1.039700
-2.767200 1.006900
-2.748900 0.974100
-2.730600 0.941200
-2.712300 0.908400
-2.694000 0.875600
-2.675700 0.842700
-2.657400 0.809900
-2.639100 0.777000
-2.620800 0.744200
-2.602500 0.711400
-2.584200 0.678500
-2.565800 0.645700
-2.547500 0.612900
-2.529200 0.580000
-2.510900 0.547200
-2.492600 0.514400
-2.474300 0.869000
-2.456000 1.367800
-2.437700 1.977300
-2.419400 0.548700
-2.401100 0.535700
-2.382800 0.522600
-2.364500 0.509500
-2.346200 0.496400
-2.327900 0.483300
-2.309600 0.470200
-2.291300 0.457100
-2.273000 0.444100
-2.254700 0.431000
-2.236400 0.417900
-2.218100 0.404800
-2.199800 0.391700
-2.181500 0.378600
-2.163200 0.365500
-2.144900 0.352500
-2.126600 0.339400
-2.108300 0.326300
-2.090000 0.313200
-2.071700 0.300100
-2.053400 0.287000
-2.035100 0.274000
-2.016800 0.260900
-1.998500 0.247800
-1.980200 0.234700
-1.961900 0.221600
-1.943600 0.208500
-1.925300 0.195400
-1.907000 0.182400
-1.888700 0.000000
-1.870400 0.000000
-1.852100 0.000000
-1.833800 0.000000
-1.815500 0.000000
-1.797200 0.000000
-1.778800 0.000000
-1.760500 0.000000
-1.742200 0.000000
-1.723900 0.000000
-1.705600 0.000000
-1.687300 0.000000
-1.669000 0.000000
-1.650700 0.000000
-1.632400 0.000000
-1.614100 0.000000
-1.595800 0.000000
-1.577500 0.000000
-1.559200 0.000000
-1.540900 0.000000
-1.522600 0.000000
-1.504300 0.000000
-1.486000 0.000000
-1.467700 0.000000
-1.449400 0.000000
-1.431100 0.000000
-1.412800 0.000000
-1.394500 0.000000
-1.376200 0.000000
-1.357900 0.000000
-1.339600 0.000000
-1.321300 0.000000
-1.303000 0.000000
-1.284700 0.000000
-1.266400 0.000000
-1.248100 0.000000
-1.229800 0.000000
-1.211500 0.000000
-1.193200 0.072300
-1.174900 0.434000
-1.156600 0.798300
-1.138300 1.162700
-1.120000 1.527000
-1.101700 0.523800
-1.083400 0.546400
-1.065100 0.569100
-1.046800 0.591700
-1.028500 0.614400
-1.010200 0.637100
-0.991800 0.659700
-0.973500 0.682400
-0.955200 0.705100
-0.936900 0.727700
-0.918600 0.750400
-0.900300 0.773000
-0.882000 0.801000
-0.863700 0.837500
-0.845400 0.879800
-0.827100 0.927600
-0.808800 0.982600
-0.790500 1.046300
-0.772200 1.333900
-0.753900 1.361200
-0.735600 1.388500
-0.717300 1.415800
-0.699000 1.443100
-0.680700 1.473600
-0.662400 1.447500
-0.644100 1.447900
-0.625800 1.443400
-0.607500 1.418500
-0.589200 1.407400
-0.570900 4.277700
-0.552600 1.713900
-0.534300 1.696200
-0.516000 1.678400
-0.497700 1.660700
-0.479400 1.642900
-0.461100 1.625200
-0.442800 1.607400
-0.424500 1.589700
-0.406200 1.571900
-0.387900 1.860100
-0.369600 2.709900
-0.351300 2.829400
-0.333000 2.948800
-0.314700 3.068300
-0.296400 3.188900
-0.278100 3.261600
-0.259800 3.316000
-0.241500 3.455400
-0.223100 3.730300
-0.204800 3.664800
-0.186500 3.789100
-0.168200 4.003200
-0.149900 3.449200
-0.131600 3.629600
-0.113300 3.810000
-0.095000 3.990400
-0.076700 4.170900
-0.058400 5.116700
-0.040100 6.927200
-0.021800 8.709600
-0.003500 9.871300
0.014800 6.681600
0.033100 5.201700
0.051400 4.802900
0.069700 4.654600
0.088000 6.048100
0.106300 4.068800
0.124600 2.634100
0.142900 2.709000
0.161200 2.858000
0.179500 3.021200
0.197800 3.185200
0.216100 3.349200
0.234400 4.578400
0.252700 4.245900
0.271000 4.378200
0.289300 4.498900
0.307600 4.597000
0.325900 4.821700
0.344200 5.046600
0.362500 5.271600
0.380800 4.122700
0.399100 4.054100
0.417400 4.012300
0.435700 4.035200
0.454000 4.092500
0.472300 4.162200
0.490600 4.232200
0.508900 4.302200
0.527200 4.371000
0.545500 5.247200
0.563900 7.096400
0.582200 5.460200
0.600500 3.669500
0.618800 2.070700
0.637100 2.053600
0.655400 2.057700
0.673700 2.061700
0.692000 2.065700
0.710300 2.069800
0.728600 2.073800
0.746900 2.080700
0.765200 2.858000
0.783500 4.161500
0.801800 4.967900
0.820100 6.896800
0.838400 8.593600
0.856700 6.463900
0.875000 5.241000
0.893300 3.958200
0.911600 3.299800
0.929900 3.491300
0.948200 3.693700
0.966500 4.026200
0.984800 4.991500
1.003100 6.225700
1.021400 6.488300
1.039700 7.011700
1.058000 7.793800
1.076300 8.860300
1.094600 9.924000
1.112900 11.131700
1.131200 11.023400
1.149500 10.835700
1.167800 11.195400
1.186100 7.891000
1.204400 10.246200
1.222700 13.165600
1.241000 13.222100
1.259300 13.473400
1.277600 11.736300
1.295900 9.645200
1.314200 7.500900
1.332500 8.986500
1.350900 10.150000
1.369200 11.043800
1.387500 12.183300
1.405800 12.110900
1.424100 10.721300
1.442400 9.764300
1.460700 9.528400
1.479000 9.931500
1.497300 11.226800
1.515600 11.913000
1.533900 12.194000
1.552200 12.007100
1.570500 11.505700
1.588800 7.997400
1.607100 7.344200
1.625400 7.888300
1.643700 8.678800
1.662000 11.147000
1.680300 11.954800
1.698600 12.778800
1.716900 13.724000
1.735200 12.729000
1.753500 12.157500
1.771800 12.325600
1.790100 12.920500
1.808400 12.670500
1.826700 11.332600
1.845000 10.129800
1.863300 9.603700
1.881600 9.102700
1.899900 9.082900
1.918200 10.303700
1.936500 9.122500
1.954800 9.698200
1.973100 10.373300
1.991400 10.416900
2.009700 12.806100
2.028000 17.672000
2.046300 9.523000
2.064600 8.964900
2.082900 9.327600
2.101200 11.768700
2.119500 13.325200
2.137900 15.063100
2.156200 12.219000
2.174500 11.380700
2.192800 7.972500
2.211100 6.151900
2.229400 4.723600
2.247700 4.061800
2.266000 4.185300
2.284300 4.674600
2.302600 5.364100
2.320900 7.329900
2.339200 8.966100
2.357500 9.655000
2.375800 14.037200
2.394100 8.559800
2.412400 8.302000
2.430700 6.994600
2.449000 6.255700
2.467300 6.162800
2.485600 10.647300
2.503900 12.475100
2.522200 10.441800
2.540500 8.086900
2.558800 9.789900
2.577100 11.193300
2.595400 10.762800
2.613700 8.634200
2.632000 7.573900
2.650300 6.975600
2.668600 6.344600
2.686900 6.167700
2.705200 6.031800
2.723500 6.008500
2.741800 6.102000
2.760100 6.303400
2.778400 6.868100
2.796700 8.180200
2.815000 8.440600
2.833300 7.133100
2.851600 6.165700
2.869900 5.066800
2.888200 4.449400
2.906600 4.220800
2.924900 4.368300
2.943200 4.577300
2.961500 4.850600
2.979800 5.977700
2.998100 7.043800
3.016400 8.309200
3.034700 9.014200
3.053000 11.184900
3.071300 9.237500
3.089600 9.142000
3.107900 10.738400
3.126200 12.590200
3.144500 11.876800
3.162800 11.966900
3.181100 12.490100
3.199400 10.839000
3.217700 10.048100
3.236000 11.612600
3.254300 12.071900
3.272600 10.650100
3.290900 9.787800
3.309200 9.493600
3.327500 14.479500
3.345800 8.486100
3.364100 7.970000
3.382400 8.250000
3.400700 8.237300
3.419000 8.173300
3.437300 8.511300
3.455600 7.433000
3.473900 6.891200
3.492200 6.796200
3.510500 7.101100
3.528800 7.367200
3.547100 7.426300
3.565400 7.710200
3.583700 9.313400
3.602000 9.171400
3.620300 8.423000
3.638600 8.805600
3.656900 8.376900
3.675200 8.450600
3.693600 7.962000
3.711900 7.454000
3.730200 7.411700
3.748500 7.164000
3.766800 7.061500
3.785100 7.064000
3.803400 7.306600
3.821700 7.504000
3.840000 7.220100
3.858300 6.771900
3.876600 6.350100
3.894900 6.003300
3.913200 5.616100
3.931500 5.283700
3.949800 5.134200
3.968100 5.079100
3.986400 5.100400
4.004700 5.297200
4.023000 5.464900
4.041300 5.722000
4.059600 6.382500
4.077900 6.659000
4.096200 7.427400
4.114500 8.483300
4.132800 7.357900
4.151100 7.525500
4.169400 7.829100
4.187700 8.161100
4.206000 8.474800
4.224300 7.039800
4.242600 6.475300
4.260900 5.753500
4.279200 5.551300
4.297500 5.566500
4.315800 5.460700
4.334100 5.421600
4.352400 5.473200
4.370700 5.552300
4.389000 5.698000
4.407300 5.817000
4.425600 5.755700
4.443900 5.679500
4.462200 5.855100
4.480600 6.391200
4.498900 6.782300
4.517200 6.863100
4.535500 7.106500
4.553800 8.065200
4.572100 8.855800
4.590400 7.881700
4.608700 7.552600
4.627000 7.303000
4.645300 7.020300
4.663600 6.878200
4.681900 7.302600
4.700200 6.544100
4.718500 5.897600
4.736800 6.225200
4.755100 8.561100
4.773400 7.931900
4.791700 9.351800
4.810000 10.638100
4.828300 10.970700
4.846600 7.961800
4.864900 6.486700
4.883200 5.729100
4.901500 5.921000
4.919800 5.925600
4.938100 5.953900
4.956400 5.720700
4.974700 5.737900
4.993000 5.818200
5.011300 6.073800
5.029600 6.670300
5.047900 7.090600
5.066200 5.611300
5.084500 5.127300
5.102800 4.280200
5.121100 3.678600
5.139400 3.256400
5.157700 2.929000
5.176000 2.686700
5.194300 2.478100
5.212600 2.602000
5.230900 2.572600
5.249200 2.772100
5.267600 3.259600
5.285900 2.766200
5.304200 2.288800
5.322500 2.314300
5.340800 2.478800
5.359100 2.581600
5.377400 2.664400
5.395700 2.728500
5.414000 2.764400
5.432300 2.775200
5.450600 2.863100
5.468900 3.019500
5.487200 2.885100
5.505500 2.757100
5.523800 2.630300
5.542100 2.422600
5.560400 2.108300
5.578700 2.070300
5.597000 2.032700
5.615300 1.996100
5.633600 1.962300
5.651900 1.930900
5.670200 1.901100
5.688500 1.872800
5.706800 1.845700
5.725100 1.819200
5.743400 1.804700
5.761700 1.781300
5.780000 1.756200
5.798300 1.730000
5.816600 1.702900
5.834900 1.674700
5.853200 1.663600
5.871500 1.650600
5.889800 1.633200
5.908100 1.615200
5.926400 1.596800
5.944700 1.579400
5.963000 1.564000
5.981300 1.550900
5.999600 1.540100
6.017900 1.533600
6.036300 1.531900
6.054600 1.552000
6.072900 1.535100
6.091200 1.492600
6.109500 1.449100
6.127800 1.404500
6.146100 1.358700
6.164400 1.315400
6.182700 1.417600
6.201000 2.482800
6.219300 1.919300
6.237600 1.774300
6.255900 1.627800
6.274200 1.508800
6.292500 1.409000
6.310800 1.331800
6.329100 1.338900
6.347400 1.557900
6.365700 1.778600
6.384000 2.001900
6.402300 2.167300
6.420600 1.774400
6.438900 1.606000
6.457200 1.335800
6.475500 1.339800
6.493800 1.339500
6.512100 1.336300
6.530400 1.331300
6.548700 1.326700
6.567000 1.323400
6.585300 1.321900
6.603600 1.321800
6.621900 1.323900
6.640200 1.330200
6.658500 1.337700
6.676800 1.344700
6.695100 1.350400
6.713400 1.354800
6.731700 1.358100
6.750000 1.360400
6.768300 1.361800
6.786600 1.366300
6.804900 1.375400
6.823300 1.388800
6.841600 1.399900
6.859900 1.405900
6.878200 1.408900
6.896500 1.457700
6.914800 1.491500
6.933100 1.501900
6.951400 1.488400
6.969700 1.450600
6.988000 1.413200
7.006300 1.312200
7.024600 1.307700
7.042900 1.305700
7.061200 1.307700
7.079500 1.324400
7.097800 1.357600
7.116100 1.387300
7.134400 1.415600
7.152700 1.448000
7.171000 1.471300
7.189300 1.484800
7.207600 1.490900
7.225900 1.491600
7.244200 1.487100
7.262500 1.477300
7.280800 1.462200
7.299100 1.442400
7.317400 1.417900
7.335700 1.388600
7.354000 1.360500
7.372300 1.343700
7.390600 1.310000
7.408900 1.268000
7.427200 1.249700
7.445500 1.242600
7.463800 1.240800
7.482100 1.244300
7.500400 1.248800
7.518700 1.251900
7.537000 1.283700
7.555300 1.376400
7.573600 1.449200
7.591900 1.457900
7.610300 1.428900
7.628600 1.350500
7.646900 1.134700
7.665200 1.027900
7.683500 1.024100
7.701800 1.033800
7.720100 1.043700
7.738400 1.054200
7.756700 1.065800
7.775000 1.077400
7.793300 1.089200
7.811600 1.105100
7.829900 1.121800
7.848200 1.139000
7.866500 1.157100
7.884800 1.176300
7.903100 1.196500
7.921400 1.219700
7.939700 1.247900
7.958000 1.288000
7.976300 1.335300
7.994600 1.369200
8.012900 1.395300
8.031200 1.422900
8.049500 1.449400
8.067800 1.477200
8.086100 1.507200
8.104400 1.535600
8.122700 1.558200
8.141000 1.573100
8.159300 1.582700
8.177600 1.587100
8.195900 1.586100
8.214200 1.579700
8.232500 1.569800
8.250800 1.559800
8.269100 1.549700
8.287400 1.538900
8.305700 1.535900
8.324000 1.572000
8.342300 1.614600
8.360600 1.655700
8.379000 1.687500
8.397300 1.706300
8.415600 1.610100
8.433900 1.555000
8.452200 1.526800
8.470500 1.504400
8.488800 1.487700
8.507100 1.481200
8.525400 1.485900
8.543700 1.501000
8.562000 1.490000
8.580300 1.473400
8.598600 1.451300
8.616900 1.417900
8.635200 1.372200
8.653500 1.330600
8.671800 1.297900
8.690100 1.274100
8.708400 1.257200
8.726700 1.239600
8.745000 1.219200
8.763300 1.195000
8.781600 1.177900
8.799900 1.167300
8.818200 1.155700
8.836500 1.142000
8.854800 1.126400
8.873100 1.110900
8.891400 1.710000
8.909700 1.325700
8.928000 1.001800
8.946300 0.995700
8.964600 0.995800
8.982900 1.006800
9.001200 1.042200
9.019500 1.102000
9.037800 1.194200
9.056100 1.392600
9.074400 1.389600
9.092700 1.400000
9.111000 1.398800
9.129300 1.386200
9.147600 1.381600
9.166000 1.378700
9.184300 1.371600
9.202600 1.360400
9.220900 1.345000
9.239200 1.326800
9.257500 1.297500
9.275800 1.253700
9.294100 1.192800
9.312400 1.106300
9.330700 1.063400
9.349000 1.044800
9.367300 1.035100
9.385600 1.032000
9.403900 1.035900
9.422200 1.043300
9.440500 1.053800
9.458800 1.077000
9.477100 1.145500
9.495400 1.237200
9.513700 1.112700
9.532000 1.091800
9.550300 1.162000
9.568600 1.265600
9.586900 1.398700
9.605200 1.565000
9.623500 1.734000
9.641800 1.889200
9.660100 1.978300
9.678400 2.021000
9.696700 2.024200
9.715000 2.016400
9.733300 2.005700
9.751600 1.997100
9.769900 2.009800
9.788200 2.007400
9.806500 1.987400
9.824800 1.947700
9.843100 1.893000
9.861400 1.842600
9.879700 1.809700
9.898000 1.788100
9.916300 1.773100
9.934600 1.753800
9.953000 1.719200
9.971300 1.679600
9.989600 1.635600
10.007900 1.587900
10.026200 1.545500
10.044500 1.507900
10.062800 1.476500
10.081100 1.456000
10.099400 1.453100
10.117700 1.430300
10.136000 1.404700
10.154300 1.378800
10.172600 1.368700
10.190900 1.358600
10.209200 1.349300
10.227500 1.343600
10.245800 1.339900
10.264100 1.335800
10.282400 1.339500
10.300700 1.354800
10.319000 1.367800
10.337300 1.379200
10.355600 1.390400
10.373900 1.401000
10.392200 1.410600
10.410500 1.419400
10.428800 1.427100
10.447100 1.446300
10.465400 1.727900
10.483700 1.794600
10.502000 1.556100
10.520300 1.347800
10.538600 1.347200
10.556900 1.345300
10.575200 1.344200
10.593500 1.344000
10.611800 1.344700
10.630100 1.346100
10.648400 1.348200
10.666700 1.351200
10.685000 1.355200
10.703300 1.359900
10.721600 1.365900
10.740000 1.373600
10.758300 1.383400
10.776600 1.394200
10.794900 1.381900
10.813200 1.366300
10.831500 1.370100
10.849800 1.384100
10.868100 1.396600
10.886400 1.410700
10.904700 1.426800
10.923000 1.445300
10.941300 1.466400
10.959600 2.324700
10.977900 1.823200
10.996200 1.488400
11.014500 1.387500
11.032800 1.350500
11.051100 1.376400
11.069400 1.395700
11.087700 1.406600
11.106000 1.381200
11.124300 1.348300
11.142600 1.316500
11.160900 1.292400
11.179200 1.271800
11.197500 1.253400
11.215800 1.237300
11.234100 1.223200
11.252400 1.211100
11.270700 1.199800
11.289000 1.190500
11.307300 1.183600
11.325600 1.178900
11.343900 1.176200
11.362200 1.173000
11.380500 1.168400
11.398800 1.162900
11.417100 1.157100
11.435400 1.151100
11.453700 1.144800
11.472000 1.138900
11.490300 1.133500
11.508700 1.128700
11.527000 1.124400
11.545300 1.120600
11.563600 1.116500
11.581900 1.111500
11.600200 1.105100
11.618500 1.098400
11.636800 1.097700
11.655100 1.100900
11.673400 1.108100
11.691700 1.152600
11.710000 1.190800
11.728300 1.209100
11.746600 1.207400
11.764900 1.193000
11.783200 1.184500
11.801500 1.161400
11.819800 1.125300
11.838100 1.088800
11.856400 1.060600
11.874700 1.040700
11.893000 1.057800
11.911300 1.066100
11.929600 1.529700
11.947900 1.047800
11.966200 0.823900
11.984500 0.753000
12.002800 0.728100
12.021100 0.720200
12.039400 0.875700
12.057700 0.828100
12.076000 0.779500
12.094300 0.747500
12.112600 0.729700
12.130900 0.714900
12.149200 0.701900
12.167500 0.692800
12.185800 0.695400
12.204100 0.699300
12.222400 0.703800
12.240700 0.708700
12.259000 0.715800
12.277300 0.731000
12.295700 0.746800
12.314000 0.763100
12.332300 0.780100
12.350600 0.797900
12.368900 0.817000
12.387200 0.840200
12.405500 0.876100
12.423800 0.939000
12.442100 1.027000
12.460400 1.155200
12.478700 1.324500
12.497000 1.486700
12.515300 1.654500
12.533600 1.842400
12.551900 2.021200
12.570200 2.179300
12.588500 2.422700
12.606800 2.284400
12.625100 2.277100
12.643400 2.303800
12.661700 2.302700
12.680000 2.283600
12.698300 2.252600
12.716600 2.211600
12.734900 2.185600
12.753200 2.169700
12.771500 2.096800
12.789800 1.982400
12.808100 1.883600
12.826400 1.807900
12.844700 1.742800
12.863000 1.678400
12.881300 1.621800
12.899600 1.545800
12.917900 1.490900
12.936200 1.451600
12.954500 1.442600
12.972800 1.480500
12.991100 1.520700
13.009400 1.535900
13.027700 1.552800
13.046000 1.573500
13.064300 1.595300
13.082700 1.925300
13.101000 1.933700
13.119300 1.797100
13.137600 1.732700
13.155900 1.717300
13.174200 1.721000
13.192500 1.702800
13.210800 1.680500
13.229100 1.680000
13.247400 1.695200
13.265700 1.719200
13.284000 1.750200
13.302300 1.787400
13.320600 1.830200
13.338900 1.878600
13.357200 1.932600
13.375500 1.926100
13.393800 1.954600
13.412100 1.976600
13.430400 1.994200
13.448700 2.009400
13.467000 2.022800
13.485300 2.038300
13.503600 2.054500
13.521900 2.044900
13.540200 2.065300
13.558500 2.073400
13.576800 2.071400
13.595100 2.057900
13.613400 2.042000
13.631700 2.033400
13.650000 2.022800
13.668300 2.011600
13.686600 2.013100
13.704900 2.020300
13.723200 2.036500
13.741500 2.046900
13.759800 2.061500
13.778100 2.071600
13.796400 2.062100
13.814700 2.043800
13.833000 2.032900
13.851300 2.021700
13.869700 2.038200
13.888000 2.080700
13.906300 2.169400
13.924600 2.266700
13.942900 2.357800
13.961200 2.434600
13.979500 2.468100
13.997800 2.460700
14.016100 2.431900
14.034400 2.375500
14.052700 2.316800
14.071000 2.264300
14.089300 2.207800
14.107600 2.149500
14.125900 2.089300
14.144200 2.099900
14.162500 2.072700
14.180800 1.975100
14.199100 1.935300
14.217400 1.908400
14.235700 1.873000
14.254000 1.838500
14.272300 1.805600
14.290600 1.772200
14.308900 1.741500
14.327200 1.713200
14.345500 1.688100
14.363800 1.664700
14.382100 1.641400
14.400400 1.617000
14.418700 1.595500
14.437000 1.583600
14.455300 1.574200
14.473600 1.568400
14.491900 1.573500
14.510200 1.578400
14.528500 1.587600
14.546800 1.602700
14.565100 1.623900
14.583400 1.655000
14.601700 1.697000
14.620000 1.749000
14.638400 1.810900
14.656700 1.882900
14.675000 2.029500
14.693300 2.042500
14.711600 2.040800
14.729900 2.030300
14.748200 2.022200
14.766500 2.046500
14.784800 2.092100
14.803100 2.121300
14.821400 2.137700
14.839700 2.159500
14.858000 2.148300
14.876300 2.102100
14.894600 2.038600
14.912900 2.020000
14.931200 2.033300
14.949500 2.062000
14.967800 2.090600
14.986100 2.123400
15.004400 2.156700
15.022700 2.197400
15.041000 2.246100
15.059300 2.292800
15.077600 2.302600
15.095900 2.316800
15.114200 2.326800
15.132500 2.331700
15.150800 2.342700
15.169100 2.336600
15.187400 2.292000
15.205700 2.248300
15.224000 2.213600
15.242300 2.191800
15.260600 2.114600
15.278900 2.114400
15.297200 2.129600
15.315500 2.236600
15.333800 2.217400
15.352100 2.036700
15.370400 1.932500
15.388700 1.864400
15.407000 1.828700
15.425400 1.804300
15.443700 1.791100
15.462000 1.783200
15.480300 1.777100
15.498600 1.772600
15.516900 1.773800
15.535200 1.778400
15.553500 1.784100
15.571800 1.790900
15.590100 1.799000
15.608400 1.807500
15.626700 1.815500
15.645000 1.824500
15.663300 1.837000
15.681600 1.850300
15.699900 1.864300
15.718200 1.880500
15.736500 1.898700
15.754800 1.919600
15.773100 1.943200
15.791400 1.969700
15.809700 2.000000
15.828000 2.034600
15.846300 2.072500
15.864600 2.097600
15.882900 2.106100
15.901200 2.098800
15.919500 2.085900
15.937800 2.087600
15.956100 2.095900
15.974400 2.019800
15.992700 2.002000
16.011000 1.998000
16.029300 2.001600
16.047600 2.010200
16.065900 2.022300
16.084200 2.034600
16.102500 2.041200
16.120800 2.037300
16.139100 2.041300
16.157400 2.041100
16.175700 2.046700
16.194000 2.053500
16.212400 2.065300
16.230700 2.079000
16.249000 2.093400
16.267300 2.108500
16.285600 2.205800
16.303900 2.288300
16.322200 2.112200
16.340500 2.269900
16.358800 2.155600
16.377100 2.144800
16.395400 2.140900
16.413700 2.148300
16.432000 2.154300
16.450300 2.150600
16.468600 2.167500
16.486900 2.212800
16.505200 2.233700
16.523500 2.282400
16.541800 2.294900
16.560100 2.283800
16.578400 2.267200
16.596700 2.261300
16.615000 2.284500
16.633300 2.288400
16.651600 2.186100
16.669900 2.174300
16.688200 2.191500
16.706500 2.241300
16.724800 2.336500
16.743100 2.458700
16.761400 2.534500
16.779700 2.570200
16.798000 2.584700
16.816300 2.592300
16.834600 2.602500
16.852900 2.611300
16.871200 2.618600
16.889500 2.619700
16.907800 2.640400
16.926100 2.654100
16.944400 2.665300
16.962700 2.699200
16.981000 2.720200
16.999400 2.742900
17.017700 2.746800
17.036000 2.753900
17.054300 2.759700
17.072600 2.753600
17.090900 2.698600
17.109200 2.641600
17.127500 2.586800
17.145800 2.533200
17.164100 2.473900
17.182400 2.418800
17.200700 2.392400
17.219000 2.347500
17.237300 2.283900
17.255600 2.278800
17.273900 2.212200
17.292200 2.141500
17.310500 2.111200
17.328800 2.093100
17.347100 2.094700
17.365400 2.090200
17.383700 2.076500
17.402000 2.058200
17.420300 2.041000
17.438600 2.039300
17.456900 2.041000
17.475200 2.050400
17.493500 2.076300
17.511800 2.095600
17.530100 2.102600
17.548400 2.102100
17.566700 2.103800
17.585000 2.108900
17.603300 2.119000
17.621600 2.132100
17.639900 2.142500
17.658200 2.063400
17.676500 2.045000
17.694800 2.047100
17.713100 2.055800
17.731400 2.080200
17.749700 2.125000
17.768100 2.192300
17.786400 2.286700
17.804700 2.393000
17.823000 2.475900
17.841300 2.548500
17.859600 2.606700
17.877900 2.664900
17.896200 2.705000
17.914500 2.748800
17.932800 2.795600
17.951100 2.817100
17.969400 2.886200
17.987700 3.019700
18.006000 3.286400
18.024300 3.756400
18.042600 3.912300
18.060900 3.850000
18.079200 3.697900
18.097500 3.485500
18.115800 2.607600
18.134100 2.546500
18.152400 2.603700
18.170700 2.826600
18.189000 2.883800
18.207300 2.930900
18.225600 2.952700
18.243900 2.953200
18.262200 2.947500
18.280500 2.884500
18.298800 2.801300
18.317100 2.728500
18.335400 2.639100
18.353700 2.529100
18.372000 2.431500
18.390300 2.358300
18.408600 2.311500
18.426900 2.228300
18.445200 2.185200
18.463500 2.159500
18.481800 2.141800
18.500100 2.140600
18.518400 2.165300
18.536700 2.205200
18.555100 2.259800
18.573400 2.326700
18.591700 2.402500
18.610000 2.481800
18.628300 2.561200
18.646600 2.634700
18.664900 2.733900
18.683200 2.730800
18.701500 2.716600
18.719800 2.706800
18.738100 2.706100
18.756400 2.742300
18.774700 2.967300
18.793000 2.934500
18.811300 2.835000
18.829600 2.766600
18.847900 2.755600
18.866200 2.786300
18.884500 2.745800
18.902800 2.681200
18.921100 2.645100
18.939400 2.629400
18.957700 2.611400
18.976000 2.587400
18.994300 2.569000
19.012600 2.553000
19.030900 2.528100
19.049200 2.505600
19.067500 2.477300
19.085800 2.443700
19.104100 2.409900
19.122400 2.379300
19.140700 2.346800
19.159000 2.273200
19.177300 2.197200
19.195600 2.158600
19.213900 2.155600
19.232200 2.168900
19.250500 2.191900
19.268800 2.218900
19.287100 2.255200
19.305400 2.288900
19.323700 2.318400
19.342100 2.344000
19.360400 2.366000
19.378700 2.384900
19.397000 2.400900
19.415300 2.414400
19.433600 2.425700
19.451900 2.454100
19.470200 2.479500
19.488500 2.500300
19.506800 2.517000
19.525100 2.517900
19.543400 2.495000
19.561700 2.491300
19.580000 2.509500
19.598300 2.532400
19.616600 2.562300
19.634900 2.602300
19.653200 2.713900
19.671500 2.817600
19.689800 2.779200
19.708100 2.772900
19.726400 2.740600
19.744700 2.712000
19.763000 2.697900
19.781300 2.658900
19.799600 2.647600
19.817900 2.634500
19.836200 2.616000
19.854500 2.593800
19.872800 2.574500
19.891100 2.560400
19.909400 2.551700
19.927700 2.551500
19.946000 2.670000
19.964300 2.834400
19.982600 3.656800
20.000900 3.593800
20.019200 3.339300
20.037500 3.118700
20.055800 2.961600
20.074100 2.905100
20.092400 2.846700
20.110700 2.748900
20.129100 2.621900
20.147400 2.427800
20.165700 2.275300
20.184000 2.243100
20.202300 2.228000
20.220600 2.217600
20.238900 2.214500
20.257200 2.226200
20.275500 2.265900
20.293800 2.300500
20.312100 2.330500
20.330400 2.366100
20.348700 2.396700
20.367000 2.428800
20.385300 2.490500
20.403600 2.536100
20.421900 2.574000
20.440200 2.606200
20.458500 2.661200
20.476800 2.744300
20.495100 2.846500
20.513400 2.981600
20.531700 3.132200
20.550000 3.378800
20.568300 3.271900
20.586600 2.951800
20.604900 2.746800
20.623200 2.614900
20.641500 2.566300
20.659800 2.542100
20.678100 2.537100
20.696400 2.519300
20.714700 2.501700
20.733000 2.485800
20.751300 2.465000
20.769600 2.448300
20.787900 2.435900
20.806200 2.431100
20.824500 2.438200
20.842800 2.450700
20.861100 2.463100
20.879400 2.470900
20.897800 2.471600
20.916100 2.466500
20.934400 2.464100
20.952700 2.465000
20.971000 2.470400
20.989300 2.487900
21.007600 2.491100
21.025900 2.485200
21.044200 2.476600
21.062500 2.465400
21.080800 2.454200
21.099100 2.443400
21.117400 2.432200
21.135700 2.420800
21.154000 2.409800
21.172300 2.404700
21.190600 2.416300
21.208900 2.420000
21.227200 2.417400
21.245500 2.408400
21.263800 2.391700
21.282100 2.363600
21.300400 2.326600
21.318700 2.277400
21.337000 2.240200
21.355300 2.208000
21.373600 2.173800
21.391900 2.142300
21.410200 2.117200
21.428500 2.095000
21.446800 2.078000
21.465100 2.073000
21.483400 2.081600
21.501700 2.093500
21.520000 2.105600
21.538300 2.117600
21.556600 2.129600
21.574900 2.140100
21.593200 2.147800
21.611500 2.150500
21.629800 2.148600
21.648100 2.146300
21.666400 2.145500
21.684800 2.149700
21.703100 2.155800
21.721400 2.164500
21.739700 2.174100
21.758000 2.179100
21.776300 2.198900
21.794600 2.246600
21.812900 2.277000
21.831200 2.285700
21.849500 2.298800
21.867800 2.325600
21.886100 2.345700
21.904400 2.368300
21.922700 2.389800
21.941000 2.413000
21.959300 2.434500
21.977600 2.457800
21.995900 2.484500
22.014200 2.514600
22.032500 2.548900
22.050800 2.637100
22.069100 2.633600
22.087400 2.637800
22.105700 2.654200
22.124000 2.683600
22.142300 2.716000
22.160600 2.740200
22.178900 2.755700
22.197200 2.782800
22.215500 2.812100
22.233800 2.845500
22.252100 2.877400
22.270400 2.896800
22.288700 2.899700
22.307000 2.891000
22.325300 2.874400
22.343600 2.859700
22.361900 2.848000
22.380200 3.040400
22.398500 3.261800
22.416800 3.415700
22.435100 3.262200
22.453400 2.712200
22.471800 2.590300
22.490100 2.524700
22.508400 2.483400
22.526700 2.450400
22.545000 2.436300
22.563300 2.440500
22.581600 2.443500
22.599900 2.446200
22.618200 2.457700
22.636500 2.474700
22.654800 2.495200
22.673100 2.518000
22.691400 2.533900
22.709700 2.545900
22.728000 2.557000
22.746300 2.565300
22.764600 2.569500
22.782900 2.569100
22.801200 2.561400
22.819500 2.545800
22.837800 2.525300
22.856100 2.508800
22.874400 2.484500
22.892700 2.442800
22.911000 2.333200
22.929300 2.308800
22.947600 2.295800
22.965900 2.282200
22.984200 2.284500
23.002500 2.311200
23.020800 2.309400
23.039100 2.283100
23.057400 2.266900
23.075700 2.271600
23.094000 2.294000
23.112300 2.365000
23.130600 2.296800
23.148900 2.284000
23.167200 2.325500
23.185500 2.310100
23.203800 2.276400
23.222100 2.242500
23.240500 2.212700
23.258800 2.186100
23.277100 2.160800
23.295400 2.137100
23.313700 2.119100
23.332000 2.107800
23.350300 2.102400
23.368600 2.104600
23.386900 2.112600
23.405200 2.138100
23.423500 2.165400
23.441800 2.179400
23.460100 2.198500
23.478400 2.219100
23.496700 2.238800
23.515000 2.259500
23.533300 2.282000
23.551600 2.306200
23.569900 2.330900
23.588200 2.343500
23.606500 2.381500
23.624800 2.476600
23.643100 2.460700
23.661400 2.452000
23.679700 2.436800
23.698000 2.400800
23.716300 2.304000
23.734600 2.176200
23.752900 2.135000
23.771200 2.126900
23.789500 2.116900
23.807800 2.086900
23.826100 2.016100
23.844400 1.924700
23.862700 1.815900
23.881000 1.754500
23.899300 1.749900
23.917600 1.664800
23.935900 1.583100
23.954200 1.551800
23.972500 1.537700
23.990800 1.525900
24.009100 1.523300
24.027500 1.530000
24.045800 1.569400
24.064100 1.623900
24.082400 1.677600
24.100700 1.730000
24.119000 1.779000
24.137300 1.826200
24.155600 1.873600
24.173900 1.924200
24.192200 1.976000
24.210500 2.029500
24.228800 2.085900
24.247100 2.146500
24.265400 2.222800
24.283700 2.319300
24.302000 2.490900
24.320300 2.596700
24.338600 2.696100
24.356900 2.771700
24.375200 2.806400
24.393500 2.807900
24.411800 2.746100
24.430100 2.666500
24.448400 2.582200
24.466700 2.506800
24.485000 2.455400
24.503300 2.466100
24.521600 2.468800
24.539900 2.467100
24.558200 2.460300
24.576500 2.446800
24.594800 2.432000
24.613100 2.448700
24.631400 2.519900
24.649700 2.664500
24.668000 2.721600
24.686300 2.772300
24.704600 2.824300
24.722900 2.899000
24.741200 2.963400
24.759500 3.027500
24.777800 3.098700
24.796100 3.151100
24.814500 3.239200
24.832800 3.310400
24.851100 3.343700
24.869400 3.280800
24.887700 3.340000
24.906000 3.410500
24.924300 3.487000
24.942600 3.569700
24.960900 3.619300
24.979200 3.638400
24.997500 3.648800
25.015800 3.645000
25.034100 3.653900
25.052400 3.668000
25.070700 3.649600
25.089000 3.635500
25.107300 3.655500
25.125600 3.692700
25.143900 3.693000
25.162200 3.606700
25.180500 3.545700
25.198800 3.498400
25.217100 3.407000
25.235400 3.334000
25.253700 3.270200
25.272000 3.250800
25.290300 3.244900
25.308600 3.248200
25.326900 3.259900
25.345200 3.254500
25.363500 3.308300
25.381800 3.409300
25.400100 3.530800
25.418400 3.627000
25.436700 3.528000
25.455000 3.487000
25.473300 3.397500
25.491600 3.542700
25.509900 3.731600
25.528200 3.930400
25.546500 4.176400
25.564800 4.459200
25.583100 4.238400
25.601500 4.424200
25.619800 4.505600
25.638100 4.482200
25.656400 4.542700
25.674700 4.562200
25.693000 4.574900
25.711300 4.575300
25.729600 4.565000
25.747900 4.557700
25.766200 4.541300
25.784500 4.502300
25.802800 4.479800
25.821100 4.525600
25.839400 4.631100
25.857700 4.791700
25.876000 4.991100
25.894300 5.228200
25.912600 5.480400
25.930900 5.773800
25.949200 6.093400
25.967500 6.455400
25.985800 6.868300
26.004100 7.407600
26.022400 8.122000
26.040700 8.799800
26.059000 11.936600
26.077300 12.593700
26.095600 12.076800
26.113900 12.799800
26.132200 12.910900
26.150500 15.245600
26.168800 23.432100
26.187100 32.835600
26.205400 17.376100
26.223700 21.051400
26.242000 23.948200
26.260300 25.797600
26.278600 21.648300
26.296900 20.707100
26.315200 17.497300
26.333500 21.512700
26.351800 23.507500
26.370200 34.986300
26.388500 33.459200
26.406800 26.231700
26.425100 17.987900
26.443400 6.913400
26.461700 3.653600
26.480000 2.298600
26.498300 1.475800
26.516600 1.035000
26.534900 0.735400
26.553200 0.550500
26.571500 0.461900
26.589800 0.382700
26.608100 0.312800
26.626400 0.253700
26.644700 0.206800
26.663000 0.170900
26.681300 0.144900
26.699600 0.128400
26.717900 0.116700
26.736200 0.105800
26.754500 0.095200
26.772800 0.084700
26.791100 0.074400
26.809400 0.064200
26.827700 0.054100
26.846000 0.044100
26.864300 0.035200
26.882600 0.028200
26.900900 0.022500
26.919200 0.017600
26.937500 0.013600
26.955800 0.010000
26.974100 0.007100
26.992400 0.004600
27.010700 0.002600
27.029000 0.001000
27.047300 0.000200
27.065600 0.000000
27.083900 0.000000
27.102200 0.000000
27.120500 0.000000
27.138800 0.000000
27.157200 0.000000
27.175500 0.000000
27.193800 0.000000
27.212100 0.000000
27.230400 0.000000
27.248700 0.000000
27.267000 0.000000
27.285300 0.000000
27.303600 0.000000
27.321900 0.000000
27.340200 0.000000
27.358500 0.000000
27.376800 0.000000
27.395100 0.000000
27.413400 0.000000
27.431700 0.000000
27.450000 0.000000
27.468300 0.000000
27.486600 0.000000
27.504900 0.000000
27.523200 0.000000
27.541500 0.000000
27.559800 0.000000
27.578100 0.000000
27.596400 0.000000
27.614700 0.000000
27.633000 0.000000
27.651300 0.000000
27.669600 0.000000
27.687900 0.000000
27.706200 0.000000
27.724500 0.000000
27.742800 0.000000
27.761100 0.000000
27.779400 0.000000
27.797700 0.000000
27.816000 0.000000
27.834300 0.000000
27.852600 0.000000
27.870900 0.000000
27.889200 0.000000
27.907500 0.000000
27.925800 0.000000
27.944200 0.000000
27.962500 0.000000
27.980800 0.000000
27.999100 0.000000
28.017400 0.000000
28.035700 0.000000
28.054000 0.000000
28.072300 0.000000
28.090600 0.000000
28.108900 0.000000
28.127200 0.000000
28.145500 0.000000
28.163800 0.000000
28.182100 0.000000
28.200400 0.000000
28.218700 0.000000
28.237000 0.000000
28.255300 0.000000
28.273600 0.000000
28.291900 0.000000
28.310200 0.000000
28.328500 0.000000
28.346800 0.000000
28.365100 0.000000
28.383400 0.000000
28.401700 0.000000
28.420000 0.000000
28.438300 0.000000
28.456600 0.000000
28.474900 0.000000
28.493200 0.000000
28.511500 0.000000
28.529800 0.000000
28.548100 0.000000
28.566400 0.000000
28.584700 0.000000
28.603000 0.000000
28.621300 0.000000
28.639600 0.000000
28.657900 0.000000
28.676200 0.000000
28.694500 0.000000
28.712800 0.000000
28.731200 0.000000
e
