set title 'mp-11252 - Density of States'
set xlabel 'Energy (eV)'
set ylabel 'DOS (states/eV)'
set grid
set xrange [-10:10]
set yrange [0:8.922]
set xzeroaxis lt -1
set terminal png size 800,600
set output 'mp-11252_dos_gnuplot.png'
plot '-' using 1:2 with lines title 'DOS'
-51.684000 0.000000
-51.609200 0.000000
-51.534400 0.000000
-51.459600 0.000000
-51.384800 0.000000
-51.310000 0.000000
-51.235200 0.000000
-51.160500 0.000000
-51.085700 0.000000
-51.010900 0.000000
-50.936100 0.000000
-50.861300 0.000000
-50.786500 0.000000
-50.711700 0.000000
-50.636900 0.000000
-50.562100 0.000000
-50.487400 0.000000
-50.412600 0.000000
-50.337800 0.000000
-50.263000 0.000000
-50.188200 0.000000
-50.113400 0.000000
-50.038600 0.000000
-49.963800 0.000000
-49.889000 0.000000
-49.814200 0.000000
-49.739500 0.000000
-49.664700 0.000000
-49.589900 0.000000
-49.515100 0.000000
-49.440300 0.000000
-49.365500 0.000000
-49.290700 0.000000
-49.215900 0.000000
-49.141100 0.000000
-49.066300 0.000000
-48.991600 0.000000
-48.916800 0.000000
-48.842000 0.000000
-48.767200 0.000000
-48.692400 0.000000
-48.617600 0.000000
-48.542800 0.000000
-48.468000 0.000000
-48.393200 0.000000
-48.318500 0.000000
-48.243700 0.000000
-48.168900 0.000000
-48.094100 0.000000
-48.019300 0.000000
-47.944500 0.000000
-47.869700 0.000000
-47.794900 0.000000
-47.720100 0.000000
-47.645300 0.000000
-47.570600 0.000000
-47.495800 0.000000
-47.421000 0.000000
-47.346200 0.000000
-47.271400 0.000000
-47.196600 0.000000
-47.121800 0.000000
-47.047000 0.000000
-46.972200 0.000000
-46.897400 0.000000
-46.822700 0.000000
-46.747900 0.000000
-46.673100 0.000000
-46.598300 0.000000
-46.523500 0.000000
-46.448700 0.000000
-46.373900 0.000000
-46.299100 0.000000
-46.224300 0.000000
-46.149500 0.000000
-46.074800 0.000000
-46.000000 0.000000
-45.925200 0.000000
-45.850400 0.000000
-45.775600 0.000000
-45.700800 0.000000
-45.626000 0.000000
-45.551200 0.000000
-45.476400 0.000000
-45.401700 0.000000
-45.326900 0.000000
-45.252100 0.000000
-45.177300 0.000000
-45.102500 0.000000
-45.027700 0.000000
-44.952900 0.000000
-44.878100 105.615900
-44.803300 0.000000
-44.728500 0.000000
-44.653800 0.000000
-44.579000 0.000000
-44.504200 0.000000
-44.429400 0.000000
-44.354600 0.000000
-44.279800 0.000000
-44.205000 0.000000
-44.130200 0.000000
-44.055400 0.000000
-43.980600 0.000000
-43.905900 0.000000
-43.831100 0.000000
-43.756300 0.000000
-43.681500 0.000000
-43.606700 0.000000
-43.531900 0.000000
-43.457100 0.000000
-43.382300 0.000000
-43.307500 0.000000
-43.232800 0.000000
-43.158000 0.000000
-43.083200 0.000000
-43.008400 0.000000
-42.933600 0.000000
-42.858800 0.000000
-42.784000 0.000000
-42.709200 0.000000
-42.634400 0.000000
-42.559600 0.000000
-42.484900 0.000000
-42.410100 0.000000
-42.335300 0.000000
-42.260500 0.000000
-42.185700 0.000000
-42.110900 0.000000
-42.036100 0.000000
-41.961300 0.000000
-41.886500 0.000000
-41.811700 0.000000
-41.737000 0.000000
-41.662200 0.000000
-41.587400 0.000000
-41.512600 0.000000
-41.437800 0.000000
-41.363000 0.000000
-41.288200 0.000000
-41.213400 0.000000
-41.138600 0.000000
-41.063800 0.000000
-40.989100 0.000000
-40.914300 0.000000
-40.839500 0.000000
-40.764700 0.000000
-40.689900 0.000000
-40.615100 0.000000
-40.540300 0.000000
-40.465500 0.000000
-40.390700 0.000000
-40.316000 0.000000
-40.241200 0.000000
-40.166400 0.000000
-40.091600 0.000000
-40.016800 0.000000
-39.942000 0.000000
-39.867200 0.000000
-39.792400 0.000000
-39.717600 0.000000
-39.642800 0.000000
-39.568100 0.000000
-39.493300 0.000000
-39.418500 0.000000
-39.343700 0.000000
-39.268900 0.000000
-39.194100 0.000000
-39.119300 0.000000
-39.044500 0.000000
-38.969700 0.000000
-38.894900 0.000000
-38.820200 0.000000
-38.745400 0.000000
-38.670600 0.000000
-38.595800 0.000000
-38.521000 0.000000
-38.446200 0.000000
-38.371400 0.000000
-38.296600 0.000000
-38.221800 0.000000
-38.147000 0.000000
-38.072300 0.000000
-37.997500 0.000000
-37.922700 0.000000
-37.847900 0.000000
-37.773100 0.000000
-37.698300 0.000000
-37.623500 0.000000
-37.548700 0.000000
-37.473900 0.000000
-37.399200 0.000000
-37.324400 0.000000
-37.249600 0.000000
-37.174800 0.000000
-37.100000 0.000000
-37.025200 0.000000
-36.950400 0.000000
-36.875600 0.000000
-36.800800 0.000000
-36.726000 0.000000
-36.651300 0.000000
-36.576500 0.000000
-36.501700 0.000000
-36.426900 0.000000
-36.352100 0.000000
-36.277300 0.000000
-36.202500 0.000000
-36.127700 0.000000
-36.052900 0.000000
-35.978100 0.000000
-35.903400 0.000000
-35.828600 0.000000
-35.753800 0.000000
-35.679000 0.000000
-35.604200 0.000000
-35.529400 0.000000
-35.454600 0.000000
-35.379800 0.000000
-35.305000 0.000000
-35.230300 0.000000
-35.155500 0.000000
-35.080700 0.000000
-35.005900 0.000000
-34.931100 0.000000
-34.856300 0.000000
-34.781500 0.000000
-34.706700 0.000000
-34.631900 0.000000
-34.557100 0.000000
-34.482400 0.000000
-34.407600 0.000000
-34.332800 0.000000
-34.258000 0.000000
-34.183200 0.000000
-34.108400 0.000000
-34.033600 0.000000
-33.958800 0.000000
-33.884000 0.000000
-33.809200 0.000000
-33.734500 0.000000
-33.659700 0.000000
-33.584900 0.000000
-33.510100 0.000000
-33.435300 0.000000
-33.360500 0.000000
-33.285700 0.000000
-33.210900 0.000000
-33.136100 0.000000
-33.061300 0.000000
-32.986600 0.000000
-32.911800 0.000000
-32.837000 0.000000
-32.762200 0.000000
-32.687400 0.000000
-32.612600 0.000000
-32.537800 0.000000
-32.463000 0.000000
-32.388200 0.000000
-32.313500 0.000000
-32.238700 0.000000
-32.163900 0.000000
-32.089100 0.000000
-32.014300 0.000000
-31.939500 0.000000
-31.864700 0.000000
-31.789900 0.000000
-31.715100 0.000000
-31.640300 0.000000
-31.565600 0.000000
-31.490800 0.000000
-31.416000 0.000000
-31.341200 0.000000
-31.266400 0.000000
-31.191600 0.000000
-31.116800 0.000000
-31.042000 0.000000
-30.967200 0.000000
-30.892400 0.000000
-30.817700 0.000000
-30.742900 0.000000
-30.668100 0.000000
-30.593300 0.000000
-30.518500 0.000000
-30.443700 0.000000
-30.368900 0.000000
-30.294100 0.000000
-30.219300 0.000000
-30.144600 0.000000
-30.069800 0.000000
-29.995000 0.000000
-29.920200 0.000000
-29.845400 0.000000
-29.770600 0.000000
-29.695800 0.000000
-29.621000 0.000000
-29.546200 0.000000
-29.471400 0.000000
-29.396700 0.000000
-29.321900 0.000000
-29.247100 0.000000
-29.172300 0.000000
-29.097500 0.000000
-29.022700 0.000000
-28.947900 0.000000
-28.873100 0.000000
-28.798300 0.000000
-28.723500 0.000000
-28.648800 0.000000
-28.574000 0.000000
-28.499200 0.000000
-28.424400 0.000000
-28.349600 0.000000
-28.274800 0.000000
-28.200000 0.000000
-28.125200 0.000000
-28.050400 0.000000
-27.975600 0.000000
-27.900900 0.000000
-27.826100 0.000000
-27.751300 0.000000
-27.676500 0.000000
-27.601700 0.000000
-27.526900 0.000000
-27.452100 0.000000
-27.377300 0.000000
-27.302500 0.000000
-27.227800 0.000000
-27.153000 0.000000
-27.078200 0.000000
-27.003400 0.000000
-26.928600 0.000000
-26.853800 0.000000
-26.779000 0.000000
-26.704200 0.000000
-26.629400 0.000000
-26.554600 0.000000
-26.479900 0.000000
-26.405100 0.000000
-26.330300 0.000000
-26.255500 0.000000
-26.180700 0.000000
-26.105900 0.000000
-26.031100 0.000000
-25.956300 0.000000
-25.881500 0.000000
-25.806700 0.000000
-25.732000 0.000000
-25.657200 0.000000
-25.582400 0.000000
-25.507600 0.000000
-25.432800 0.000000
-25.358000 0.000000
-25.283200 0.000000
-25.208400 0.000000
-25.133600 0.000000
-25.058900 0.000000
-24.984100 0.000000
-24.909300 0.000000
-24.834500 0.000000
-24.759700 0.000000
-24.684900 0.000000
-24.610100 0.000000
-24.535300 0.000000
-24.460500 0.000000
-24.385700 0.000000
-24.311000 0.000000
-24.236200 0.000000
-24.161400 0.000000
-24.086600 0.000000
-24.011800 0.000000
-23.937000 0.000000
-23.862200 0.000000
-23.787400 0.000000
-23.712600 0.000000
-23.637800 0.000000
-23.563100 0.000000
-23.488300 0.000000
-23.413500 0.000000
-23.338700 0.000000
-23.263900 0.000000
-23.189100 0.000000
-23.114300 0.000000
-23.039500 0.000000
-22.964700 0.000000
-22.889900 0.000000
-22.815200 0.000000
-22.740400 0.000000
-22.665600 0.000000
-22.590800 0.000000
-22.516000 0.000000
-22.441200 0.000000
-22.366400 0.000000
-22.291600 0.000000
-22.216800 0.000000
-22.142100 0.000000
-22.067300 0.000000
-21.992500 0.000000
-21.917700 0.000000
-21.842900 0.000000
-21.768100 0.000000
-21.693300 0.000000
-21.618500 0.000000
-21.543700 0.000000
-21.468900 0.000000
-21.394200 0.000000
-21.319400 0.000000
-21.244600 0.000000
-21.169800 0.000000
-21.095000 0.000000
-21.020200 0.000000
-20.945400 0.000000
-20.870600 0.000000
-20.795800 0.000000
-20.721000 0.000000
-20.646300 0.000000
-20.571500 0.000000
-20.496700 0.000000
-20.421900 0.000000
-20.347100 0.000000
-20.272300 0.000000
-20.197500 0.000000
-20.122700 0.000000
-20.047900 0.000000
-19.973200 0.000000
-19.898400 0.000000
-19.823600 0.000000
-19.748800 0.000000
-19.674000 0.000000
-19.599200 0.000000
-19.524400 0.000000
-19.449600 0.000000
-19.374800 0.000000
-19.300000 0.000000
-19.225300 0.000000
-19.150500 0.000000
-19.075700 0.000000
-19.000900 0.000000
-18.926100 0.000000
-18.851300 0.000000
-18.776500 0.000000
-18.701700 0.000000
-18.626900 0.000000
-18.552100 0.000000
-18.477400 0.000000
-18.402600 0.000000
-18.327800 0.000000
-18.253000 0.000000
-18.178200 0.000000
-18.103400 0.000000
-18.028600 0.000000
-17.953800 0.000000
-17.879000 0.000000
-17.804200 0.000000
-17.729500 0.000000
-17.654700 0.000000
-17.579900 0.000000
-17.505100 0.000000
-17.430300 0.000000
-17.355500 0.000000
-17.280700 0.000000
-17.205900 0.000000
-17.131100 0.000000
-17.056400 0.000000
-16.981600 0.000000
-16.906800 0.000000
-16.832000 0.000000
-16.757200 0.000000
-16.682400 0.000000
-16.607600 0.000000
-16.532800 0.000000
-16.458000 0.000000
-16.383200 0.000000
-16.308500 0.000000
-16.233700 0.000000
-16.158900 0.000000
-16.084100 0.000000
-16.009300 0.000000
-15.934500 0.000000
-15.859700 0.000000
-15.784900 0.000000
-15.710100 0.000000
-15.635300 0.000000
-15.560600 0.000000
-15.485800 0.000000
-15.411000 0.000000
-15.336200 0.000000
-15.261400 0.000000
-15.186600 0.000000
-15.111800 0.000000
-15.037000 0.000000
-14.962200 0.000000
-14.887400 0.000000
-14.812700 0.000000
-14.737900 0.000000
-14.663100 0.000000
-14.588300 0.000000
-14.513500 0.000000
-14.438700 0.000000
-14.363900 0.000000
-14.289100 0.000000
-14.214300 0.000000
-14.139600 0.000000
-14.064800 0.000000
-13.990000 0.000000
-13.915200 0.000000
-13.840400 0.000000
-13.765600 0.000000
-13.690800 0.000000
-13.616000 0.000000
-13.541200 0.000000
-13.466400 0.000000
-13.391700 0.000000
-13.316900 0.000000
-13.242100 0.000000
-13.167300 0.000000
-13.092500 0.000000
-13.017700 0.000000
-12.942900 0.000000
-12.868100 0.000000
-12.793300 0.000000
-12.718500 0.000000
-12.643800 0.000000
-12.569000 0.000000
-12.494200 0.000000
-12.419400 0.000000
-12.344600 0.000000
-12.269800 0.000000
-12.195000 0.000000
-12.120200 0.000000
-12.045400 0.000000
-11.970700 0.000000
-11.895900 0.000000
-11.821100 0.000000
-11.746300 0.000000
-11.671500 0.000000
-11.596700 0.000000
-11.521900 0.000000
-11.447100 0.000000
-11.372300 0.000000
-11.297500 0.000000
-11.222800 0.000000
-11.148000 0.000000
-11.073200 0.000000
-10.998400 0.000000
-10.923600 0.000000
-10.848800 0.000000
-10.774000 0.000000
-10.699200 0.000000
-10.624400 0.000000
-10.549600 0.000000
-10.474900 0.000000
-10.400100 0.000000
-10.325300 0.000000
-10.250500 0.000000
-10.175700 0.000000
-10.100900 0.000000
-10.026100 0.000000
-9.951300 0.000000
-9.876500 0.000000
-9.801700 0.000000
-9.727000 0.000000
-9.652200 0.000000
-9.577400 0.000000
-9.502600 0.000000
-9.427800 0.000000
-9.353000 0.000000
-9.278200 0.000000
-9.203400 0.000000
-9.128600 0.000000
-9.053900 0.000000
-8.979100 0.000000
-8.904300 0.000000
-8.829500 0.000000
-8.754700 0.000000
-8.679900 0.000000
-8.605100 0.000000
-8.530300 0.000000
-8.455500 0.000000
-8.380700 0.000000
-8.306000 0.000000
-8.231200 0.000000
-8.156400 0.000000
-8.081600 0.000000
-8.006800 0.000000
-7.932000 0.000000
-7.857200 0.000000
-7.782400 0.000000
-7.707600 0.000000
-7.632800 0.000000
-7.558100 0.000000
-7.483300 0.000000
-7.408500 0.000000
-7.333700 0.000000
-7.258900 0.000000
-7.184100 0.000000
-7.109300 0.000000
-7.034500 0.000000
-6.959700 0.000000
-6.885000 0.000000
-6.810200 0.000000
-6.735400 0.000000
-6.660600 0.000000
-6.585800 0.000000
-6.511000 0.000000
-6.436200 0.000000
-6.361400 0.000000
-6.286600 0.000000
-6.211800 0.000000
-6.137100 0.000000
-6.062300 0.000000
-5.987500 0.000000
-5.912700 0.000000
-5.837900 0.000000
-5.763100 0.000000
-5.688300 0.000000
-5.613500 0.000000
-5.538700 0.000000
-5.463900 0.000000
-5.389200 0.000000
-5.314400 0.000000
-5.239600 0.000000
-5.164800 0.000000
-5.090000 0.000000
-5.015200 0.000000
-4.940400 0.000000
-4.865600 0.000000
-4.790800 0.000000
-4.716000 0.000000
-4.641300 0.000000
-4.566500 0.000000
-4.491700 0.000000
-4.416900 0.000000
-4.342100 0.000000
-4.267300 0.000000
-4.192500 0.000000
-4.117700 0.000000
-4.042900 0.000000
-3.968200 0.011300
-3.893400 0.042200
-3.818600 0.054100
-3.743800 0.063100
-3.669000 0.077300
-3.594200 0.088200
-3.519400 0.094400
-3.444600 0.102300
-3.369800 0.111300
-3.295000 0.120300
-3.220300 0.129800
-3.145500 0.138300
-3.070700 0.145900
-2.995900 0.154100
-2.921100 0.162000
-2.846300 0.171700
-2.771500 0.182100
-2.696700 0.192600
-2.621900 0.203600
-2.547100 0.214500
-2.472400 0.227800
-2.397600 0.243500
-2.322800 0.260700
-2.248000 0.282500
-2.173200 0.297500
-2.098400 0.317100
-2.023600 0.332100
-1.948800 0.355300
-1.874000 0.382900
-1.799300 0.426100
-1.724500 0.473700
-1.649700 0.567400
-1.574900 0.878700
-1.500100 1.351200
-1.425300 1.291600
-1.350500 1.363100
-1.275700 1.852800
-1.200900 1.908400
-1.126100 1.821800
-1.051400 1.851000
-0.976600 1.995900
-0.901800 2.225000
-0.827000 2.831100
-0.752200 2.761200
-0.677400 2.557000
-0.602600 3.464800
-0.527800 3.158600
-0.453000 3.810300
-0.378200 5.343300
-0.303500 2.243300
-0.228700 2.850500
-0.153900 3.514600
-0.079100 3.717500
-0.004300 3.196400
0.070500 3.058300
0.145300 2.882400
0.220100 2.432600
0.294900 2.307500
0.369700 1.739000
0.444400 1.771700
0.519200 2.059900
0.594000 1.936600
0.668800 3.038800
0.743600 4.107600
0.818400 5.857300
0.893200 4.108200
0.968000 3.089500
1.042800 2.476300
1.117500 1.874100
1.192300 1.643600
1.267100 1.606200
1.341900 1.638300
1.416700 1.781900
1.491500 2.270200
1.566300 2.577600
1.641100 2.870600
1.715900 2.621200
1.790700 3.146500
1.865400 2.882900
1.940200 3.302300
2.015000 2.988600
2.089800 3.790100
2.164600 2.810400
2.239400 3.026100
2.314200 5.609300
2.389000 3.795400
2.463800 3.452900
2.538600 2.090400
2.613300 1.918700
2.688100 2.610800
2.762900 2.335300
2.837700 3.124000
2.912500 3.660700
2.987300 8.110600
3.062100 3.674800
3.136900 3.663200
3.211700 3.126700
3.286500 3.880200
3.361200 4.742700
3.436000 3.849100
3.510800 3.497900
3.585600 3.204300
3.660400 2.609700
3.735200 1.206600
3.810000 0.571800
3.884800 0.542500
3.959600 0.529500
4.034300 0.517200
4.109100 0.513800
4.183900 0.511600
4.258700 0.507300
4.333500 0.495300
4.408300 0.489300
4.483100 0.485800
4.557900 0.482700
4.632700 0.481800
4.707500 0.477200
4.782200 0.474700
4.857000 0.475700
4.931800 0.480200
5.006600 0.483600
5.081400 0.480000
5.156200 0.471100
5.231000 0.456400
5.305800 0.440000
5.380600 0.440300
5.455400 0.443000
5.530100 0.449400
5.604900 0.446600
5.679700 0.435100
5.754500 0.434700
5.829300 0.443700
5.904100 0.443700
5.978900 0.442900
6.053700 0.440400
6.128500 0.437100
6.203200 0.434800
6.278000 0.432800
6.352800 0.431300
6.427600 0.415400
6.502400 0.417900
6.577200 0.409600
6.652000 0.406800
6.726800 0.404600
6.801600 0.401600
6.876400 0.400900
6.951100 0.400300
7.025900 0.396600
7.100700 0.392000
7.175500 0.397600
7.250300 0.392900
7.325100 0.397000
7.399900 0.393100
7.474700 0.382800
7.549500 0.370000
7.624300 0.359100
7.699000 0.354400
7.773800 0.355100
7.848600 0.364500
7.923400 0.324600
7.998200 0.308800
8.073000 0.302900
8.147800 0.307000
8.222600 0.303100
8.297400 0.313900
8.372200 0.335400
8.446900 0.348100
8.521700 0.365600
8.596500 0.380300
8.671300 0.361600
8.746100 0.361400
8.820900 0.361600
8.895700 0.360400
8.970500 0.358200
9.045300 0.365200
9.120000 0.378000
9.194800 0.404700
9.269600 0.634400
9.344400 0.700100
9.419200 0.655800
9.494000 0.623200
9.568800 0.576900
9.643600 0.576500
9.718400 0.632100
9.793200 0.729600
9.867900 0.666600
9.942700 0.573000
10.017500 0.535100
10.092300 0.503700
10.167100 0.483600
10.241900 0.473900
10.316700 0.487200
10.391500 0.504700
10.466300 0.539300
10.541100 0.576100
10.615800 0.622300
10.690600 0.589600
10.765400 0.581200
10.840200 0.569700
10.915000 0.547300
10.989800 0.544600
11.064600 0.542900
11.139400 0.537900
11.214200 0.540500
11.288900 0.553600
11.363700 0.556800
11.438500 0.543600
11.513300 0.533600
11.588100 0.529500
11.662900 0.534600
11.737700 0.559100
11.812500 0.561700
11.887300 0.566900
11.962100 0.566300
12.036800 0.566700
12.111600 0.568300
12.186400 0.564700
12.261200 0.555300
12.336000 0.548800
12.410800 0.548900
12.485600 0.547500
12.560400 0.543900
12.635200 0.539400
12.710000 0.538800
12.784700 0.547300
12.859500 0.543700
12.934300 0.546200
13.009100 0.551900
13.083900 0.559600
13.158700 0.567900
13.233500 0.575800
13.308300 0.586600
13.383100 0.590300
13.457900 0.594600
13.532600 0.596400
13.607400 0.594400
13.682200 0.600800
13.757000 0.607300
13.831800 0.612700
13.906600 0.619800
13.981400 0.618300
14.056200 0.620300
14.131000 0.621200
14.205700 0.626700
14.280500 0.628900
14.355300 0.630700
14.430100 0.623100
14.504900 0.619300
14.579700 0.615000
14.654500 0.604600
14.729300 0.601800
14.804100 0.601800
14.878900 0.599700
14.953600 0.595800
15.028400 0.592200
15.103200 0.592800
15.178000 0.600300
15.252800 0.612600
15.327600 0.613300
15.402400 0.611300
15.477200 0.587300
15.552000 0.572200
15.626800 0.573200
15.701500 0.571700
15.776300 0.573900
15.851100 0.571600
15.925900 0.564600
16.000700 0.566300
16.075500 0.576300
16.150300 0.577500
16.225100 0.592700
16.299900 0.616300
16.374600 0.658700
16.449400 0.698400
16.524200 0.702200
16.599000 0.734900
16.673800 0.768900
16.748600 0.806000
16.823400 0.838400
16.898200 0.872600
16.973000 0.819300
17.047800 0.774900
17.122500 0.739900
17.197300 0.734200
17.272100 0.774400
17.346900 0.812300
17.421700 0.824800
17.496500 0.886500
17.571300 0.868300
17.646100 0.910400
17.720900 1.057400
17.795700 1.100600
17.870400 1.011500
17.945200 0.993300
18.020000 0.958000
18.094800 0.942800
18.169600 0.888200
18.244400 0.853200
18.319200 0.831000
18.394000 0.795400
18.468800 0.781400
18.543600 0.780900
18.618300 0.780200
18.693100 0.792000
18.767900 0.886400
18.842700 0.926000
18.917500 0.959100
18.992300 0.942400
19.067100 0.933600
19.141900 0.948600
19.216700 0.885000
19.291400 0.852000
19.366200 0.844300
19.441000 0.870800
19.515800 0.885300
19.590600 0.934700
19.665400 0.953700
19.740200 0.967000
19.815000 0.968100
19.889800 0.951400
19.964600 0.923200
20.039300 0.869700
20.114100 0.849200
20.188900 0.822800
20.263700 0.801900
20.338500 0.777800
20.413300 0.745600
20.488100 0.753100
20.562900 0.752600
20.637700 0.723300
20.712500 0.683000
20.787200 0.689000
20.862000 0.690300
20.936800 0.670900
21.011600 0.698900
21.086400 0.738400
21.161200 0.918400
21.236000 0.945500
21.310800 0.927700
21.385600 0.891500
21.460400 0.895500
21.535100 0.850800
21.609900 0.800300
21.684700 0.737900
21.759500 0.662400
21.834300 0.658700
21.909100 0.763100
21.983900 0.671800
22.058700 0.689200
22.133500 0.683400
22.208200 0.672900
22.283000 0.633400
22.357800 0.606900
22.432600 0.593500
22.507400 0.578000
22.582200 0.589100
22.657000 0.583500
22.731800 0.552400
22.806600 0.524100
22.881400 0.491800
22.956100 0.513800
23.030900 0.560800
23.105700 0.652600
23.180500 0.587400
23.255300 0.594800
23.330100 0.631900
23.404900 0.674800
23.479700 0.739300
23.554500 0.775500
23.629300 0.744900
23.704000 0.681400
23.778800 0.637000
23.853600 0.648300
23.928400 0.696600
24.003200 0.767800
24.078000 0.821100
24.152800 0.923600
24.227600 0.940100
24.302400 1.012300
24.377100 1.072300
24.451900 1.058800
24.526700 1.002400
24.601500 1.002300
24.676300 1.001500
24.751100 0.930000
24.825900 0.885700
24.900700 0.926000
24.975500 0.945800
25.050300 0.958300
25.125000 0.975700
25.199800 0.990800
25.274600 0.989400
25.349400 0.994500
25.424200 0.992500
25.499000 0.965200
25.573800 0.900100
25.648600 0.913000
25.723400 0.912000
25.798200 0.917600
25.872900 0.943400
25.947700 0.948700
26.022500 0.965800
26.097300 0.995300
26.172100 1.056200
26.246900 1.119300
26.321700 1.151900
26.396500 1.125400
26.471300 1.078500
26.546100 1.039400
26.620800 1.004400
26.695600 0.994600
26.770400 0.993400
26.845200 0.997900
26.920000 1.031900
26.994800 1.038500
27.069600 1.052500
27.144400 1.125200
27.219200 1.145400
27.293900 1.181700
27.368700 1.148800
27.443500 1.094800
27.518300 1.057200
27.593100 0.991600
27.667900 0.957400
27.742700 0.951500
27.817500 0.961400
27.892300 0.985400
27.967100 1.018300
28.041800 1.050200
28.116600 1.067400
28.191400 1.081200
28.266200 1.115900
28.341000 1.209800
28.415800 1.232600
28.490600 1.150800
28.565400 1.078100
28.640200 1.007400
28.715000 1.046700
28.789700 0.939500
28.864500 0.924700
28.939300 0.907500
29.014100 0.913900
29.088900 0.915000
29.163700 0.941600
29.238500 0.967700
29.313300 0.981600
29.388100 1.028200
29.462800 1.103800
29.537600 1.115300
29.612400 1.175400
29.687200 1.197800
29.762000 1.145800
29.836800 1.059500
29.911600 1.036800
29.986400 1.032900
30.061200 1.037800
30.136000 1.122000
30.210700 1.121100
30.285500 1.129100
30.360300 1.114000
30.435100 1.099000
30.509900 1.106100
30.584700 1.167200
30.659500 1.140100
30.734300 1.035900
30.809100 0.962100
30.883900 0.858300
30.958600 0.787900
31.033400 0.771600
31.108200 0.763700
31.183000 0.800200
31.257800 0.864200
31.332600 0.996300
31.407400 0.988200
31.482200 1.005700
31.557000 0.995100
31.631800 0.947300
31.706500 0.975800
31.781300 1.009800
31.856100 1.004800
31.930900 1.040700
32.005700 1.036000
32.080500 1.041200
32.155300 1.021800
32.230100 1.001500
32.304900 1.012900
32.379600 1.108600
32.454400 1.101900
32.529200 1.124100
32.604000 1.193700
32.678800 1.151100
32.753600 1.121300
32.828400 1.049800
32.903200 0.971100
32.978000 0.920200
33.052800 0.894000
33.127500 0.880300
33.202300 0.904500
33.277100 0.948700
33.351900 0.981200
33.426700 0.977800
33.501500 1.038100
33.576300 1.062500
33.651100 1.058800
33.725900 1.062300
33.800700 1.011900
33.875400 0.959800
33.950200 0.950400
34.025000 0.979200
34.099800 1.043300
34.174600 1.148300
34.249400 1.262800
34.324200 1.392200
34.399000 1.450000
34.473800 1.397500
34.548500 1.326400
34.623300 1.310300
34.698100 1.324900
34.772900 1.313300
34.847700 1.276000
34.922500 1.251200
34.997300 1.227300
35.072100 1.197100
35.146900 1.173700
35.221700 1.160400
35.296400 1.140800
35.371200 1.140600
35.446000 1.164200
35.520800 1.221700
35.595600 1.219200
35.670400 1.258500
35.745200 1.264700
35.820000 1.211000
35.894800 1.141900
35.969600 1.131600
36.044300 1.162800
36.119100 1.241300
36.193900 1.206000
36.268700 1.131300
36.343500 1.018100
36.418300 0.948100
36.493100 0.932500
36.567900 1.020700
36.642700 1.221000
36.717500 1.292100
36.792200 1.307700
36.867000 1.258100
36.941800 1.155700
37.016600 1.090100
37.091400 0.998300
37.166200 0.933000
37.241000 1.018100
37.315800 1.092100
37.390600 1.173400
37.465300 1.253900
37.540100 1.394100
37.614900 1.548500
37.689700 1.522000
37.764500 1.482100
37.839300 1.323600
37.914100 1.218400
37.988900 1.156000
38.063700 1.194000
38.138500 1.305900
38.213200 1.335200
38.288000 1.258500
38.362800 1.234300
38.437600 1.221100
38.512400 1.097900
38.587200 1.128200
38.662000 1.100500
38.736800 1.140600
38.811600 1.170400
38.886400 1.168600
38.961100 1.158700
39.035900 1.088900
39.110700 1.124300
39.185500 1.190800
39.260300 1.280400
39.335100 1.400000
39.409900 1.343100
39.484700 1.246900
39.559500 1.209800
39.634300 1.260800
39.709000 1.265200
39.783800 1.188400
39.858600 1.185200
39.933400 1.212800
40.008200 1.177800
40.083000 1.182500
40.157800 1.291800
40.232600 1.409000
40.307400 1.380600
40.382100 1.240100
40.456900 1.247700
40.531700 1.129800
40.606500 1.102800
40.681300 1.127900
40.756100 1.149000
40.830900 1.173200
40.905700 1.304100
40.980500 1.278100
41.055300 1.244200
41.130000 1.230400
41.204800 1.259000
41.279600 1.296200
41.354400 1.354300
41.429200 1.362500
41.504000 1.339000
41.578800 1.390100
41.653600 1.257300
41.728400 1.194100
41.803200 1.157200
41.877900 1.179300
41.952700 1.211900
42.027500 1.365100
42.102300 1.597600
42.177100 1.766700
42.251900 1.624600
42.326700 1.445200
42.401500 1.397400
42.476300 1.392300
42.551000 1.413800
42.625800 1.480400
42.700600 1.511400
42.775400 1.547500
42.850200 1.638500
42.925000 1.669100
42.999800 1.661300
43.074600 1.610100
43.149400 1.494700
43.224200 1.484400
43.298900 1.492900
43.373700 1.768800
43.448500 1.768600
43.523300 1.687600
43.598100 1.684000
43.672900 1.783400
43.747700 1.882300
43.822500 1.968300
43.897300 2.106200
43.972100 2.178900
44.046800 2.293600
44.121600 2.390300
44.196400 2.266500
44.271200 2.529900
44.346000 2.092900
44.420800 1.684200
44.495600 1.873700
44.570400 2.108100
44.645200 2.206200
44.720000 2.534900
44.794700 2.433300
44.869500 2.367200
44.944300 2.823300
45.019100 2.972000
45.093900 2.907400
45.168700 3.389100
45.243500 3.546800
45.318300 3.377400
45.393100 2.868600
45.467800 2.664800
45.542600 3.298300
45.617400 3.227400
45.692200 3.362000
45.767000 2.919100
45.841800 2.572600
45.916600 2.400700
45.991400 2.196800
46.066200 1.885800
46.141000 1.535300
46.215700 1.521900
46.290500 1.760800
46.365300 1.820200
46.440100 1.842200
46.514900 1.774000
46.589700 1.809100
46.664500 2.059000
46.739300 2.260500
46.814100 2.258200
46.888900 1.948800
46.963600 1.807300
47.038400 1.768200
47.113200 1.774400
47.188000 1.644400
47.262800 1.598000
47.337600 1.571100
47.412400 1.615100
47.487200 1.828700
47.562000 2.005500
47.636700 2.055100
47.711500 1.805800
47.786300 1.678100
47.861100 1.664800
47.935900 1.559100
48.010700 1.600400
48.085500 1.757500
48.160300 1.733700
48.235100 1.692800
48.309900 1.504400
48.384600 1.402300
48.459400 1.357900
48.534200 1.398300
48.609000 1.465400
48.683800 1.495100
48.758600 1.498300
48.833400 1.460000
48.908200 1.394000
48.983000 1.530100
49.057800 1.673800
49.132500 1.591200
49.207300 1.512900
49.282100 1.436800
49.356900 1.478600
49.431700 1.497000
49.506500 1.541800
49.581300 1.423500
49.656100 1.407200
49.730900 1.400000
49.805700 1.497900
49.880400 1.704400
49.955200 1.759900
50.030000 1.731200
50.104800 1.570300
50.179600 1.446100
50.254400 1.401900
50.329200 1.339900
50.404000 1.371300
50.478800 1.378600
50.553500 1.346500
50.628300 1.179800
50.703100 1.180000
50.777900 1.207600
50.852700 1.241000
50.927500 1.278100
51.002300 1.284400
51.077100 1.267100
51.151900 1.279700
51.226700 1.378100
51.301400 1.367600
51.376200 1.516600
51.451000 1.338400
51.525800 1.423500
51.600600 1.490700
51.675400 1.423400
51.750200 1.350800
51.825000 1.415000
51.899800 1.439800
51.974600 1.427500
52.049300 1.480600
52.124100 1.511500
52.198900 1.562600
52.273700 1.569400
52.348500 1.496200
52.423300 1.480100
52.498100 1.562300
52.572900 1.653800
52.647700 1.621900
52.722400 1.572800
52.797200 1.561800
52.872000 1.566100
52.946800 1.607000
53.021600 1.627200
53.096400 1.609100
53.171200 1.611800
53.246000 1.719200
53.320800 1.707200
53.395600 1.664400
53.470300 1.668700
53.545100 1.710500
53.619900 1.670900
53.694700 1.596900
53.769500 1.536600
53.844300 1.697300
53.919100 1.643300
53.993900 1.643700
54.068700 1.664200
54.143500 1.542400
54.218200 1.490500
54.293000 1.424100
54.367800 1.356600
54.442600 1.369700
54.517400 1.373500
54.592200 1.424200
54.667000 1.458200
54.741800 1.460400
54.816600 1.424500
54.891400 1.495300
54.966100 1.639900
55.040900 1.738100
55.115700 1.630800
55.190500 1.606000
55.265300 1.555500
55.340100 1.486800
55.414900 1.596000
55.489700 1.552300
55.564500 1.602600
55.639200 1.723700
55.714000 1.680300
55.788800 1.578500
55.863600 1.541700
55.938400 1.645800
56.013200 1.696300
56.088000 1.764700
56.162800 1.714700
56.237600 1.690400
56.312400 1.706200
56.387100 1.615800
56.461900 1.608500
56.536700 1.536400
56.611500 1.472200
56.686300 1.424600
56.761100 1.473400
56.835900 1.528000
56.910700 1.541900
56.985500 1.604700
57.060300 1.761000
57.135000 1.767700
57.209800 1.693300
57.284600 1.559500
57.359400 1.462300
57.434200 1.409000
57.509000 1.404000
57.583800 1.461800
57.658600 1.486000
57.733400 1.552200
57.808200 1.667900
57.882900 1.625400
57.957700 1.548400
58.032500 1.591200
58.107300 1.514600
58.182100 1.474600
58.256900 1.553900
58.331700 1.511100
58.406500 1.579400
58.481300 1.676200
58.556000 1.802600
58.630800 1.856600
58.705600 1.905400
58.780400 1.769100
58.855200 1.673000
58.930000 1.614400
59.004800 1.645700
59.079600 1.794100
59.154400 1.908700
59.229200 1.798500
59.303900 1.693700
59.378700 1.583300
59.453500 1.774400
59.528300 1.834300
59.603100 1.884700
59.677900 1.751100
59.752700 1.755200
59.827500 1.796500
59.902300 1.670200
59.977100 1.542700
60.051800 1.422500
60.126600 1.329500
60.201400 1.377000
60.276200 1.379200
60.351000 1.354700
60.425800 1.335900
60.500600 1.352700
60.575400 1.412400
60.650200 1.304900
60.724900 1.207500
60.799700 1.279800
60.874500 1.430800
60.949300 1.521500
61.024100 1.612500
61.098900 1.718700
61.173700 1.681800
61.248500 1.750400
61.323300 1.870400
61.398100 1.906000
61.472800 1.877400
61.547600 1.695900
61.622400 1.542000
61.697200 1.532000
61.772000 1.500400
61.846800 1.548800
61.921600 1.715200
61.996400 1.839500
62.071200 1.899000
62.146000 1.770900
62.220700 1.628800
62.295500 1.611800
62.370300 1.600600
62.445100 1.541600
62.519900 1.604400
62.594700 1.810500
62.669500 2.083000
62.744300 1.906700
62.819100 1.753900
62.893900 1.839300
62.968600 1.722600
63.043400 1.469600
63.118200 1.502400
63.193000 1.570100
63.267800 1.763700
63.342600 1.781500
63.417400 1.552300
63.492200 1.489900
63.567000 1.697900
63.641700 1.848700
63.716500 1.959100
63.791300 1.924000
63.866100 1.736900
63.940900 1.698000
64.015700 1.754400
64.090500 1.764000
64.165300 1.820300
64.240100 1.700100
64.314900 1.547500
64.389600 1.522000
64.464400 1.552400
64.539200 1.649200
64.614000 1.632500
64.688800 1.599800
64.763600 1.591200
64.838400 1.587100
64.913200 1.815800
64.988000 1.882600
65.062800 1.734500
65.137500 1.596300
65.212300 1.520600
65.287100 1.471700
65.361900 1.454600
65.436700 1.435600
65.511500 1.556200
65.586300 1.693600
65.661100 1.635300
65.735900 1.631800
65.810600 1.600400
65.885400 1.642600
65.960200 1.667500
66.035000 1.790900
66.109800 1.692100
66.184600 1.625500
66.259400 1.584200
66.334200 1.667600
66.409000 1.686400
66.483800 1.576000
66.558500 1.468500
66.633300 1.558500
66.708100 1.572300
66.782900 1.599700
66.857700 1.596100
66.932500 1.673100
67.007300 1.552000
67.082100 1.446300
67.156900 1.318800
67.231700 1.285200
67.306400 1.305000
67.381200 1.345000
67.456000 1.450500
67.530800 1.687400
67.605600 1.768300
67.680400 1.661600
67.755200 1.638700
67.830000 1.569600
67.904800 1.568300
67.979600 1.589700
68.054300 1.593300
68.129100 1.538200
68.203900 1.510000
68.278700 1.487100
68.353500 1.490400
68.428300 1.504400
68.503100 1.505100
68.577900 1.549300
68.652700 1.522200
68.727400 1.498600
68.802200 1.481600
68.877000 1.492500
68.951800 1.553700
69.026600 1.647800
69.101400 1.652900
69.176200 1.672100
69.251000 1.652200
69.325800 1.673000
69.400600 1.734100
69.475300 1.797400
69.550100 1.744300
69.624900 1.678600
69.699700 1.637200
69.774500 1.592000
69.849300 1.543800
69.924100 1.522600
69.998900 1.537600
70.073700 1.601800
70.148500 1.633000
70.223200 1.685800
70.298000 1.632100
70.372800 1.544300
70.447600 1.431900
70.522400 1.426200
70.597200 1.453000
70.672000 1.482600
70.746800 1.535100
70.821600 1.503800
70.896300 1.379200
70.971100 1.367400
71.045900 1.418800
71.120700 1.433900
71.195500 1.458000
71.270300 1.496100
71.345100 1.530300
71.419900 1.581400
71.494700 1.493200
71.569500 1.533800
71.644200 1.563300
71.719000 1.597500
71.793800 1.588500
71.868600 1.578500
71.943400 1.584500
72.018200 1.547600
72.093000 1.689600
72.167800 1.780700
72.242600 1.641800
72.317400 1.605200
72.392100 1.541700
72.466900 1.403600
72.541700 1.363200
72.616500 1.298200
72.691300 1.309900
72.766100 1.305900
72.840900 1.365700
72.915700 1.493400
72.990500 1.594700
73.065300 1.688500
73.140000 1.731000
73.214800 1.774700
73.289600 1.807300
73.364400 1.813900
73.439200 1.833500
73.514000 1.837200
73.588800 1.722100
73.663600 1.690700
73.738400 1.660500
73.813100 1.682900
73.887900 1.707500
73.962700 1.720900
74.037500 1.614500
74.112300 1.599800
74.187100 1.667300
74.261900 1.645700
74.336700 1.609200
74.411500 1.453700
74.486300 1.376500
74.561000 1.356200
74.635800 1.330400
74.710600 1.352800
74.785400 1.459200
74.860200 1.648600
74.935000 1.700200
75.009800 1.527500
75.084600 1.405400
75.159400 1.418500
75.234200 1.391300
75.308900 1.455100
75.383700 1.544400
75.458500 1.603300
75.533300 1.624800
75.608100 1.627500
75.682900 1.619600
75.757700 1.645100
75.832500 1.700200
75.907300 1.690200
75.982100 1.653200
76.056800 1.617300
76.131600 1.656300
76.206400 1.661600
76.281200 1.647800
76.356000 1.547300
76.430800 1.540100
76.505600 1.659800
76.580400 1.744200
76.655200 1.664100
76.729900 1.599900
76.804700 1.610900
76.879500 1.606500
76.954300 1.566500
77.029100 1.540300
77.103900 1.573400
77.178700 1.601300
77.253500 1.698300
77.328300 1.616700
77.403100 1.589200
77.477800 1.497300
77.552600 1.638800
77.627400 1.670700
77.702200 1.678000
77.777000 1.651800
77.851800 1.668300
77.926600 1.604000
78.001400 1.518000
78.076200 1.422000
78.151000 1.369400
78.225700 1.392100
78.300500 1.424500
78.375300 1.507100
78.450100 1.494200
78.524900 1.485500
78.599700 1.502500
78.674500 1.450000
78.749300 1.505400
78.824100 1.617100
78.898800 1.549800
78.973600 1.465100
79.048400 1.418000
79.123200 1.465400
79.198000 1.441700
79.272800 1.505300
79.347600 1.648200
79.422400 1.647900
79.497200 1.613700
79.572000 1.506200
79.646700 1.455900
79.721500 1.444300
79.796300 1.453400
79.871100 1.487300
79.945900 1.520600
80.020700 1.521200
80.095500 1.539900
80.170300 1.590400
80.245100 1.564500
80.319900 1.533500
80.394600 1.551300
80.469400 1.568600
80.544200 1.590700
80.619000 1.663700
80.693800 1.661400
80.768600 1.555400
80.843400 1.548000
80.918200 1.609000
80.993000 1.642800
81.067800 1.569800
81.142500 1.544000
81.217300 1.658600
81.292100 1.587700
81.366900 1.601700
81.441700 1.579300
81.516500 1.545500
81.591300 1.677600
81.666100 1.763000
81.740900 1.658500
81.815600 1.604100
81.890400 1.546600
81.965200 1.495800
82.040000 1.507500
82.114800 1.527500
82.189600 1.639900
82.264400 1.828200
82.339200 1.788200
82.414000 1.763200
82.488800 1.670700
82.563500 1.818300
82.638300 1.760800
82.713100 1.774200
82.787900 1.803600
82.862700 1.800100
82.937500 1.763900
83.012300 1.736100
83.087100 1.627900
83.161900 1.611600
83.236700 1.621800
83.311400 1.666300
83.386200 1.578400
83.461000 1.606400
83.535800 1.558000
83.610600 1.509100
83.685400 1.499200
83.760200 1.602500
83.835000 1.555600
83.909800 1.520400
83.984500 1.518000
84.059300 1.502200
84.134100 1.530300
84.208900 1.564400
84.283700 1.549000
84.358500 1.569700
84.433300 1.638000
84.508100 1.615100
84.582900 1.612800
84.657700 1.682100
84.732400 1.714600
84.807200 1.672700
84.882000 1.718500
84.956800 1.715800
85.031600 1.558000
85.106400 1.507300
85.181200 1.495900
85.256000 1.628700
85.330800 1.677200
85.405600 1.662100
85.480300 1.627900
85.555100 1.560500
85.629900 1.465900
85.704700 1.441000
85.779500 1.525200
85.854300 1.584800
85.929100 1.681400
86.003900 1.586200
86.078700 1.547000
86.153500 1.541900
86.228200 1.565900
86.303000 1.633900
86.377800 1.693100
86.452600 1.724600
86.527400 1.699000
86.602200 1.712600
86.677000 1.824900
86.751800 1.672900
86.826600 1.611900
86.901300 1.620100
86.976100 1.645200
87.050900 1.663300
87.125700 1.592300
87.200500 1.609400
87.275300 1.633300
87.350100 1.674900
87.424900 1.728900
87.499700 1.767100
87.574500 1.831200
87.649200 1.714400
87.724000 1.614400
87.798800 1.526400
87.873600 1.539300
87.948400 1.537900
88.023200 1.565100
88.098000 1.619200
88.172800 1.600200
88.247600 1.554700
88.322400 1.539300
88.397100 1.464700
88.471900 1.176400
88.546700 0.971100
88.621500 0.955200
88.696300 0.826100
88.771100 0.720500
88.845900 0.619300
88.920700 0.538600
88.995500 0.483400
89.070200 0.405500
89.145000 0.358800
89.219800 0.311900
89.294600 0.290300
89.369400 0.263600
89.444200 0.242400
89.519000 0.215100
89.593800 0.172800
89.668600 0.119700
89.743400 0.053800
89.818100 0.033000
89.892900 0.021600
89.967700 0.017800
90.042500 0.017600
90.117300 0.017200
90.192100 0.016700
90.266900 0.016000
90.341700 0.015500
90.416500 0.013900
90.491300 0.011300
90.566000 0.004200
90.640800 0.000200
90.715600 0.000100
90.790400 0.000000
90.865200 0.000000
90.940000 0.000000
91.014800 0.000000
91.089600 0.000000
91.164400 0.000000
91.239200 0.000000
91.313900 0.000000
91.388700 0.000000
91.463500 0.000000
91.538300 0.000000
91.613100 0.000000
91.687900 0.000000
91.762700 0.000000
91.837500 0.000000
91.912300 0.000000
91.987000 0.000000
92.061800 0.000000
92.136600 0.000000
92.211400 0.000000
92.286200 0.000000
92.361000 0.000000
92.435800 0.000000
92.510600 0.000000
92.585400 0.000000
92.660200 0.000000
92.734900 0.000000
92.809700 0.000000
92.884500 0.000000
92.959300 0.000000
93.034100 0.000000
93.108900 0.000000
93.183700 0.000000
93.258500 0.000000
93.333300 0.000000
93.408100 0.000000
93.482800 0.000000
93.557600 0.000000
93.632400 0.000000
93.707200 0.000000
93.782000 0.000000
93.856800 0.000000
93.931600 0.000000
94.006400 0.000000
94.081200 0.000000
94.156000 0.000000
94.230700 0.000000
94.305500 0.000000
94.380300 0.000000
94.455100 0.000000
94.529900 0.000000
94.604700 0.000000
94.679500 0.000000
94.754300 0.000000
94.829100 0.000000
94.903800 0.000000
94.978600 0.000000
95.053400 0.000000
95.128200 0.000000
95.203000 0.000000
95.277800 0.000000
95.352600 0.000000
95.427400 0.000000
95.502200 0.000000
95.577000 0.000000
95.651700 0.000000
95.726500 0.000000
95.801300 0.000000
95.876100 0.000000
95.950900 0.000000
96.025700 0.000000
96.100500 0.000000
96.175300 0.000000
96.250100 0.000000
96.324900 0.000000
96.399600 0.000000
96.474400 0.000000
96.549200 0.000000
96.624000 0.000000
96.698800 0.000000
96.773600 0.000000
96.848400 0.000000
96.923200 0.000000
96.998000 0.000000
97.072700 0.000000
97.147500 0.000000
97.222300 0.000000
97.297100 0.000000
97.371900 0.000000
97.446700 0.000000
97.521500 0.000000
97.596300 0.000000
97.671100 0.000000
97.745900 0.000000
97.820600 0.000000
97.895400 0.000000
e
