set title 'mp-10752 - Density of States'
set xlabel 'Energy (eV)'
set ylabel 'DOS (states/eV)'
set grid
set xrange [-10:10]
set yrange [0:2.819]
set xzeroaxis lt -1
set terminal png size 800,600
set output 'mp-10752_dos_gnuplot.png'
plot '-' using 1:2 with lines title 'DOS'
-28.208500 0.000000
-28.138100 0.000000
-28.067700 0.000000
-27.997300 0.000000
-27.926900 0.000000
-27.856500 0.000000
-27.786000 0.000000
-27.715600 0.000000
-27.645200 0.000000
-27.574800 0.000000
-27.504400 0.000000
-27.434000 0.000000
-27.363600 0.000000
-27.293200 0.000000
-27.222700 0.000000
-27.152300 0.000000
-27.081900 0.000000
-27.011500 0.000000
-26.941100 0.000000
-26.870700 0.000000
-26.800300 0.000000
-26.729800 0.000000
-26.659400 0.000000
-26.589000 0.000000
-26.518600 0.000000
-26.448200 0.000000
-26.377800 0.000000
-26.307400 0.000000
-26.237000 0.000000
-26.166500 0.000000
-26.096100 0.000000
-26.025700 0.000000
-25.955300 0.000000
-25.884900 0.000000
-25.814500 0.000000
-25.744100 0.000000
-25.673700 0.000000
-25.603200 0.000000
-25.532800 0.000000
-25.462400 0.000000
-25.392000 0.000000
-25.321600 0.000000
-25.251200 0.000000
-25.180800 0.000000
-25.110400 0.000000
-25.039900 0.000000
-24.969500 0.000000
-24.899100 0.000000
-24.828700 0.000000
-24.758300 0.000000
-24.687900 0.000000
-24.617500 0.000000
-24.547000 0.000000
-24.476600 0.000000
-24.406200 0.000000
-24.335800 0.000000
-24.265400 0.000000
-24.195000 0.000000
-24.124600 0.000000
-24.054200 0.000000
-23.983700 0.000000
-23.913300 0.000000
-23.842900 0.000000
-23.772500 0.000000
-23.702100 0.000000
-23.631700 0.000000
-23.561300 0.000000
-23.490900 0.000000
-23.420400 0.000000
-23.350000 0.000000
-23.279600 0.000000
-23.209200 0.000000
-23.138800 0.000000
-23.068400 0.000000
-22.998000 0.000000
-22.927600 0.000000
-22.857100 0.000000
-22.786700 0.000000
-22.716300 0.000000
-22.645900 0.000000
-22.575500 0.000000
-22.505100 0.000000
-22.434700 0.000000
-22.364300 0.000000
-22.293800 0.000000
-22.223400 0.000000
-22.153000 0.000000
-22.082600 0.000000
-22.012200 0.000000
-21.941800 0.000000
-21.871400 0.000000
-21.800900 1.046000
-21.730500 7.951400
-21.660100 13.622200
-21.589700 3.141100
-21.519300 7.003400
-21.448900 8.421200
-21.378500 17.175600
-21.308100 19.386400
-21.237600 7.119200
-21.167200 0.000000
-21.096800 0.000000
-21.026400 0.000000
-20.956000 0.000000
-20.885600 0.000000
-20.815200 0.000000
-20.744800 0.000000
-20.674300 0.000000
-20.603900 0.000000
-20.533500 0.000000
-20.463100 0.000000
-20.392700 0.000000
-20.322300 0.000000
-20.251900 0.000000
-20.181500 0.000000
-20.111000 0.000000
-20.040600 0.000000
-19.970200 0.000000
-19.899800 0.000000
-19.829400 0.000000
-19.759000 0.000000
-19.688600 0.000000
-19.618100 0.000000
-19.547700 0.000000
-19.477300 0.000000
-19.406900 0.000000
-19.336500 0.000000
-19.266100 0.000000
-19.195700 0.000000
-19.125300 0.000000
-19.054800 0.000000
-18.984400 0.000000
-18.914000 0.000000
-18.843600 0.000000
-18.773200 0.000000
-18.702800 0.000000
-18.632400 0.000000
-18.562000 0.000000
-18.491500 0.000000
-18.421100 0.000000
-18.350700 0.000000
-18.280300 0.000000
-18.209900 0.000000
-18.139500 0.000000
-18.069100 0.000000
-17.998700 0.000000
-17.928200 0.000000
-17.857800 0.000000
-17.787400 0.000000
-17.717000 0.000000
-17.646600 0.000000
-17.576200 0.000000
-17.505800 0.000000
-17.435300 0.000000
-17.364900 0.000000
-17.294500 0.000000
-17.224100 0.000000
-17.153700 0.000000
-17.083300 0.000000
-17.012900 0.000000
-16.942500 0.000000
-16.872000 0.000000
-16.801600 0.000000
-16.731200 0.000000
-16.660800 0.000000
-16.590400 0.000000
-16.520000 0.000000
-16.449600 0.000000
-16.379200 0.000000
-16.308700 0.000000
-16.238300 0.000000
-16.167900 0.000000
-16.097500 0.000000
-16.027100 0.000000
-15.956700 0.000000
-15.886300 0.000000
-15.815900 0.000000
-15.745400 0.000000
-15.675000 0.000000
-15.604600 0.000000
-15.534200 0.000000
-15.463800 0.000000
-15.393400 0.000000
-15.323000 0.000000
-15.252600 0.000000
-15.182100 0.000000
-15.111700 0.000000
-15.041300 0.000000
-14.970900 0.000000
-14.900500 0.000000
-14.830100 0.000000
-14.759700 0.000000
-14.689200 0.000000
-14.618800 0.000000
-14.548400 0.000000
-14.478000 0.000000
-14.407600 0.000000
-14.337200 0.000000
-14.266800 0.000000
-14.196400 0.000000
-14.125900 0.000000
-14.055500 0.000000
-13.985100 0.000000
-13.914700 0.000000
-13.844300 0.000000
-13.773900 0.000000
-13.703500 0.000000
-13.633100 0.000000
-13.562600 0.000000
-13.492200 0.000000
-13.421800 0.000000
-13.351400 0.000000
-13.281000 0.000000
-13.210600 0.000000
-13.140200 0.000000
-13.069800 0.000000
-12.999300 0.000000
-12.928900 0.000000
-12.858500 0.000000
-12.788100 0.000000
-12.717700 0.000000
-12.647300 0.000000
-12.576900 0.000000
-12.506400 0.000000
-12.436000 0.000000
-12.365600 0.000000
-12.295200 0.000000
-12.224800 0.000000
-12.154400 0.000000
-12.084000 0.000000
-12.013600 0.000000
-11.943100 0.000000
-11.872700 0.000000
-11.802300 0.000000
-11.731900 0.000000
-11.661500 0.000000
-11.591100 0.000000
-11.520700 0.000000
-11.450300 0.000000
-11.379800 0.000000
-11.309400 0.000000
-11.239000 0.000000
-11.168600 0.000000
-11.098200 0.000000
-11.027800 0.000000
-10.957400 0.000000
-10.887000 0.000000
-10.816500 0.000000
-10.746100 0.000000
-10.675700 0.000000
-10.605300 0.000000
-10.534900 0.000000
-10.464500 0.000000
-10.394100 0.000000
-10.323700 0.000000
-10.253200 0.000000
-10.182800 0.000000
-10.112400 0.000000
-10.042000 0.000000
-9.971600 0.000000
-9.901200 0.000000
-9.830800 0.000000
-9.760300 0.000000
-9.689900 0.000000
-9.619500 0.000000
-9.549100 0.000000
-9.478700 0.000000
-9.408300 0.000000
-9.337900 0.000000
-9.267500 0.000000
-9.197000 0.000000
-9.126600 0.000000
-9.056200 0.000000
-8.985800 0.000000
-8.915400 0.000000
-8.845000 0.000000
-8.774600 0.000000
-8.704200 0.000000
-8.633700 0.000000
-8.563300 0.000000
-8.492900 0.000000
-8.422500 0.000000
-8.352100 0.000000
-8.281700 0.000000
-8.211300 0.000000
-8.140900 0.000000
-8.070400 0.000000
-8.000000 0.000000
-7.929600 0.000000
-7.859200 0.000000
-7.788800 0.000000
-7.718400 0.000000
-7.648000 0.000000
-7.577500 0.000000
-7.507100 0.000000
-7.436700 0.000000
-7.366300 0.000000
-7.295900 0.000000
-7.225500 0.000000
-7.155100 0.000000
-7.084700 0.000000
-7.014200 0.000000
-6.943800 0.000000
-6.873400 0.000000
-6.803000 0.000000
-6.732600 0.000000
-6.662200 0.000000
-6.591800 0.000000
-6.521400 0.000000
-6.450900 0.000000
-6.380500 0.000000
-6.310100 0.000000
-6.239700 0.000000
-6.169300 0.000000
-6.098900 0.000000
-6.028500 0.000000
-5.958100 0.000000
-5.887600 0.000000
-5.817200 0.000000
-5.746800 0.000000
-5.676400 0.000000
-5.606000 0.000000
-5.535600 0.000000
-5.465200 0.000000
-5.394800 0.000000
-5.324300 0.000000
-5.253900 0.000000
-5.183500 0.000000
-5.113100 0.000000
-5.042700 0.000000
-4.972300 0.000000
-4.901900 0.000000
-4.831400 0.000000
-4.761000 0.000000
-4.690600 0.000000
-4.620200 0.000000
-4.549800 0.000000
-4.479400 0.000000
-4.409000 0.000000
-4.338600 0.000000
-4.268100 0.000000
-4.197700 0.000000
-4.127300 0.000000
-4.056900 0.000000
-3.986500 0.000000
-3.916100 0.000000
-3.845700 0.000000
-3.775300 0.000000
-3.704800 0.000000
-3.634400 0.000000
-3.564000 0.000000
-3.493600 0.000000
-3.423200 0.000000
-3.352800 0.000000
-3.282400 0.000000
-3.212000 0.000000
-3.141500 0.000000
-3.071100 0.000000
-3.000700 0.000000
-2.930300 0.000000
-2.859900 0.000000
-2.789500 0.000000
-2.719100 0.000000
-2.648600 0.000000
-2.578200 0.000000
-2.507800 0.000000
-2.437400 0.000100
-2.367000 0.015900
-2.296600 0.037600
-2.226200 0.045200
-2.155800 0.056300
-2.085300 0.067700
-2.014900 0.074000
-1.944500 0.079000
-1.874100 0.086500
-1.803700 0.094200
-1.733300 0.102100
-1.662900 0.108600
-1.592500 0.114400
-1.522000 0.120400
-1.451600 0.126500
-1.381200 0.133200
-1.310800 0.140400
-1.240400 0.147800
-1.170000 0.155000
-1.099600 0.160800
-1.029200 0.167600
-0.958700 0.174700
-0.888300 0.182000
-0.817900 0.189600
-0.747500 0.197700
-0.677100 0.206100
-0.606700 0.214800
-0.536300 0.223200
-0.465900 0.231900
-0.395400 0.241200
-0.325000 0.251400
-0.254600 0.262200
-0.184200 0.273500
-0.113800 0.285700
-0.043400 0.298700
0.027000 0.312500
0.097500 0.327000
0.167900 0.342900
0.238300 0.361200
0.308700 0.382600
0.379100 0.406900
0.449500 0.434800
0.519900 0.466700
0.590300 0.502200
0.660800 0.554600
0.731200 0.671600
0.801600 0.654200
0.872000 0.679900
0.942400 0.712600
1.012800 0.749600
1.083200 0.841100
1.153600 0.930800
1.224100 0.912500
1.294500 0.922300
1.364900 0.895500
1.435300 0.868900
1.505700 0.863400
1.576100 0.860900
1.646500 0.856100
1.716900 0.828000
1.787400 0.810400
1.857800 0.793300
1.928200 0.771000
1.998600 0.761400
2.069000 0.739700
2.139400 0.832500
2.209800 0.981600
2.280300 1.088500
2.350700 0.924400
2.421100 0.707100
2.491500 0.669600
2.561900 0.957100
2.632300 1.540200
2.702700 1.632200
2.773100 1.589200
2.843600 1.578700
2.914000 1.663500
2.984400 1.612100
3.054800 1.390700
3.125200 1.311200
3.195600 1.235700
3.266000 1.299700
3.336400 1.395600
3.406900 1.539000
3.477300 1.932200
3.547700 1.918200
3.618100 1.910300
3.688500 1.618700
3.758900 1.506400
3.829300 1.569900
3.899700 1.616900
3.970200 1.768000
4.040600 1.932400
4.111000 1.726400
4.181400 1.591000
4.251800 1.508100
4.322200 1.408000
4.392600 1.336200
4.463000 1.313600
4.533500 1.189800
4.603900 1.100600
4.674300 1.017400
4.744700 0.939300
4.815100 0.940100
4.885500 0.762000
4.955900 0.781800
5.026400 0.847300
5.096800 0.858900
5.167200 1.048300
5.237600 1.167000
5.308000 1.696800
5.378400 1.615000
5.448800 1.315400
5.519200 1.123100
5.589700 1.063400
5.660100 1.070700
5.730500 1.017400
5.800900 1.024500
5.871300 1.092500
5.941700 1.181000
6.012100 1.346200
6.082500 1.338400
6.153000 1.494000
6.223400 1.508800
6.293800 1.404600
6.364200 1.233000
6.434600 1.251400
6.505000 1.180900
6.575400 1.132000
6.645800 1.122800
6.716300 1.032600
6.786700 0.993200
6.857100 0.931400
6.927500 0.886000
6.997900 0.856900
7.068300 0.833700
7.138700 0.802500
7.209200 0.748400
7.279600 0.748200
7.350000 0.793300
7.420400 0.915400
7.490800 0.967800
7.561200 0.926000
7.631600 0.911800
7.702000 0.925200
7.772500 0.927800
7.842900 0.911000
7.913300 0.916300
7.983700 0.939200
8.054100 0.958000
8.124500 0.989100
8.194900 1.050200
8.265300 1.119100
8.335800 1.176800
8.406200 1.231900
8.476600 1.289400
8.547000 1.511500
8.617400 1.544200
8.687800 1.535000
8.758200 1.453100
8.828600 1.519800
8.899100 1.546200
8.969500 1.580700
9.039900 1.466700
9.110300 1.352700
9.180700 1.268000
9.251100 1.386500
9.321500 1.452200
9.391900 1.592300
9.462400 1.657100
9.532800 2.563100
9.603200 1.597400
9.673600 1.755200
9.744000 1.768100
9.814400 1.622200
9.884800 1.205000
9.955300 0.937000
10.025700 0.759500
10.096100 0.703600
10.166500 0.610000
10.236900 0.483500
10.307300 0.341100
10.377700 0.264200
10.448100 0.218700
10.518600 0.177400
10.589000 0.071900
10.659400 0.101300
10.729800 0.140600
10.800200 0.338300
10.870600 1.180200
10.941000 1.147300
11.011400 1.140600
11.081900 1.082400
11.152300 1.011800
11.222700 0.966500
11.293100 0.976700
11.363500 0.930100
11.433900 1.031600
11.504300 0.731300
11.574700 0.702800
11.645200 0.700500
11.715600 0.683000
11.786000 0.747100
11.856400 0.803100
11.926800 0.754400
11.997200 0.802700
12.067600 0.756200
12.138100 0.755100
12.208500 0.736800
12.278900 0.721600
12.349300 0.695800
12.419700 0.667600
12.490100 0.631900
12.560500 0.594700
12.630900 0.584100
12.701400 0.577100
12.771800 0.594100
12.842200 0.630400
12.912600 0.666500
12.983000 0.659400
13.053400 0.667100
13.123800 0.673300
13.194200 0.686000
13.264700 0.712500
13.335100 0.750200
13.405500 0.788400
13.475900 0.825300
13.546300 0.865600
13.616700 0.886700
13.687100 0.921500
13.757500 0.925500
13.828000 0.922000
13.898400 0.908600
13.968800 0.943100
14.039200 0.918800
14.109600 0.909100
14.180000 0.913100
14.250400 0.916500
14.320800 0.936900
14.391300 0.975100
14.461700 1.024800
14.532100 1.111900
14.602500 1.245900
14.672900 1.324500
14.743300 1.369600
14.813700 1.409500
14.884200 1.425400
14.954600 1.363000
15.025000 1.111100
15.095400 1.111300
15.165800 1.237100
15.236200 1.421700
15.306600 1.580100
15.377000 1.496000
15.447500 1.615500
15.517900 1.843200
15.588300 1.894700
15.658700 1.759500
15.729100 1.519300
15.799500 1.314900
15.869900 1.222500
15.940300 1.066900
16.010800 0.939300
16.081200 0.864300
16.151600 0.783600
16.222000 0.744500
16.292400 0.709500
16.362800 0.662300
16.433200 0.624400
16.503600 0.534400
16.574100 0.659600
16.644500 0.890200
16.714900 0.935900
16.785300 0.936100
16.855700 0.931200
16.926100 0.915800
16.996500 0.939800
17.067000 0.946000
17.137400 0.939700
17.207800 0.965300
17.278200 0.979700
17.348600 0.985000
17.419000 1.011800
17.489400 1.055600
17.559800 1.079200
17.630300 1.104800
17.700700 1.100200
17.771100 1.151000
17.841500 1.224800
17.911900 1.302700
17.982300 1.291100
18.052700 1.316800
18.123100 1.565600
18.193600 1.327500
18.264000 1.232200
18.334400 1.221000
18.404800 1.172100
18.475200 1.052600
18.545600 0.845500
18.616000 0.743100
18.686400 0.667700
18.756900 0.438600
18.827300 0.325300
18.897700 0.275500
18.968100 0.269300
19.038500 0.296900
19.108900 0.371100
19.179300 0.336900
19.249700 0.353300
19.320200 0.371900
19.390600 0.393500
19.461000 0.422800
19.531400 0.464600
19.601800 0.508000
19.672200 0.568600
19.742600 0.608000
19.813100 0.642200
19.883500 0.690000
19.953900 0.755800
20.024300 0.804200
20.094700 0.828300
20.165100 0.822400
20.235500 0.842200
20.305900 0.862600
20.376400 0.886400
20.446800 0.911100
20.517200 0.918200
20.587600 0.930200
20.658000 0.882800
20.728400 0.873700
20.798800 0.975800
20.869200 1.068400
20.939700 0.936400
21.010100 0.920000
21.080500 0.909500
21.150900 0.906800
21.221300 0.938300
21.291700 0.991900
21.362100 1.017700
21.432500 1.016800
21.503000 1.009900
21.573400 1.091100
21.643800 1.076900
21.714200 1.006900
21.784600 0.916400
21.855000 0.891500
21.925400 0.897600
21.995900 0.913900
22.066300 0.965600
22.136700 0.982600
22.207100 1.075600
22.277500 1.255900
22.347900 1.389000
22.418300 1.556200
22.488700 1.703300
22.559200 1.878000
22.629600 1.552700
22.700000 1.518800
22.770400 1.471400
22.840800 1.389500
22.911200 1.303000
22.981600 1.307000
23.052000 1.369300
23.122500 1.504000
23.192900 1.579400
23.263300 1.662100
23.333700 1.625300
23.404100 1.651900
23.474500 1.743400
23.544900 1.736500
23.615300 1.186500
23.685800 0.976200
23.756200 0.832000
23.826600 0.872800
23.897000 1.048500
23.967400 1.080600
24.037800 1.240700
24.108200 1.181100
24.178600 1.125600
24.249100 1.070200
24.319500 1.092500
24.389900 1.105500
24.460300 1.114200
24.530700 0.993200
24.601100 0.938400
24.671500 0.934700
24.742000 0.956300
24.812400 1.106800
24.882800 1.134900
24.953200 1.037800
25.023600 0.974900
25.094000 0.945700
25.164400 0.932300
25.234800 0.879200
25.305300 0.853300
25.375700 0.873400
25.446100 0.918300
25.516500 1.115500
25.586900 1.377200
25.657300 1.532900
25.727700 1.435800
25.798100 1.444500
25.868600 1.363200
25.939000 1.222800
26.009400 1.103700
26.079800 1.019400
26.150200 0.940400
26.220600 0.872800
26.291000 0.834100
26.361400 0.816100
26.431900 0.811000
26.502300 0.806900
26.572700 0.863000
26.643100 0.962800
26.713500 0.963200
26.783900 1.060500
26.854300 1.177800
26.924800 1.322600
26.995200 1.289800
27.065600 1.239500
27.136000 1.225900
27.206400 1.212400
27.276800 1.201600
27.347200 1.250100
27.417600 1.319300
27.488100 1.398300
27.558500 1.499200
27.628900 1.563500
27.699300 1.510500
27.769700 1.376100
27.840100 1.298500
27.910500 1.178600
27.980900 1.068400
28.051400 1.045800
28.121800 1.066400
28.192200 1.207900
28.262600 1.311000
28.333000 1.434900
28.403400 1.456800
28.473800 1.484600
28.544200 1.514400
28.614700 1.438000
28.685100 1.414700
28.755500 1.372100
28.825900 1.243500
28.896300 1.216500
28.966700 1.234000
29.037100 1.321000
29.107500 1.484200
29.178000 1.656000
29.248400 1.713300
29.318800 1.616000
29.389200 1.494100
29.459600 1.433100
29.530000 1.264000
29.600400 1.057200
29.670900 0.966800
29.741300 0.693700
29.811700 0.695600
29.882100 0.736000
29.952500 0.737600
30.022900 0.694200
30.093300 0.822500
30.163700 0.937200
30.234200 1.209500
30.304600 1.303200
30.375000 1.391000
30.445400 1.520400
30.515800 1.642900
30.586200 1.710900
30.656600 1.692600
30.727000 1.651000
30.797500 1.564800
30.867900 1.764300
30.938300 1.557100
31.008700 1.392200
31.079100 1.141100
31.149500 0.927700
31.219900 0.774900
31.290300 0.765000
31.360800 0.817800
31.431200 0.782400
31.501600 0.827400
31.572000 0.898500
31.642400 1.018700
31.712800 1.165100
31.783200 1.335900
31.853700 1.457100
31.924100 1.485200
31.994500 1.545500
32.064900 1.614400
32.135300 1.630800
32.205700 1.626500
32.276100 1.541400
32.346500 1.557100
32.417000 1.555300
32.487400 1.546700
32.557800 1.517100
32.628200 1.440500
32.698600 1.350200
32.769000 1.291400
32.839400 1.256100
32.909800 1.166500
32.980300 1.074000
33.050700 1.019700
33.121100 1.011500
33.191500 0.899600
33.261900 0.849500
33.332300 0.819100
33.402700 0.811800
33.473100 0.823400
33.543600 0.981300
33.614000 1.166400
33.684400 1.355700
33.754800 1.555900
33.825200 1.585300
33.895600 1.711700
33.966000 1.835800
34.036400 1.607600
34.106900 1.544900
34.177300 1.488000
34.247700 1.398300
34.318100 1.322600
34.388500 1.328600
34.458900 1.389600
34.529300 1.619700
34.599800 1.601800
34.670200 1.626600
34.740600 1.660800
34.811000 1.732200
34.881400 1.798700
34.951800 1.861300
35.022200 1.932800
35.092600 1.989900
35.163100 2.049100
35.233500 2.118000
35.303900 2.226800
35.374300 2.458000
35.444700 2.886300
35.515100 3.449700
35.585500 7.876700
35.655900 3.689800
35.726400 2.380100
35.796800 2.221700
35.867200 1.962600
35.937600 1.978600
36.008000 1.725500
36.078400 1.560000
36.148800 1.375200
36.219200 1.276200
36.289700 1.236100
36.360100 1.414900
36.430500 1.553800
36.500900 1.632400
36.571300 1.644600
36.641700 1.541000
36.712100 1.511000
36.782600 1.500000
36.853000 1.581100
36.923400 1.586700
36.993800 1.457900
37.064200 1.416100
37.134600 1.195000
37.205000 1.247800
37.275400 1.340300
37.345900 1.427800
37.416300 1.593700
37.486700 1.652600
37.557100 1.671900
37.627500 1.643100
37.697900 1.597500
37.768300 1.499500
37.838700 1.424800
37.909200 1.325700
37.979600 1.246900
38.050000 1.192100
38.120400 1.178800
38.190800 1.173900
38.261200 1.160100
38.331600 1.167200
38.402000 1.184300
38.472500 1.207600
38.542900 1.238500
38.613300 1.247700
38.683700 1.275800
38.754100 1.319900
38.824500 1.339300
38.894900 1.342600
38.965300 1.326200
39.035800 1.313600
39.106200 1.313300
39.176600 1.354900
39.247000 1.373200
39.317400 1.421200
39.387800 1.444000
39.458200 1.451200
39.528700 1.494200
39.599100 1.546900
39.669500 1.423300
39.739900 1.353600
39.810300 1.392900
39.880700 1.381800
39.951100 1.369200
40.021500 1.379500
40.092000 1.450400
40.162400 1.467900
40.232800 1.510100
40.303200 1.573900
40.373600 1.675200
40.444000 1.617200
40.514400 1.599200
40.584800 1.590800
40.655300 1.559600
40.725700 1.513800
40.796100 1.456700
40.866500 1.418500
40.936900 1.395400
41.007300 1.391600
41.077700 1.437000
41.148100 1.385500
41.218600 1.357800
41.289000 1.310800
41.359400 1.318200
41.429800 1.382400
41.500200 1.439000
41.570600 1.474400
41.641000 1.447800
41.711500 1.445300
41.781900 1.315000
41.852300 1.252600
41.922700 1.255900
41.993100 1.327500
42.063500 1.357400
42.133900 1.312500
42.204300 1.273600
42.274800 1.278000
42.345200 1.289000
42.415600 1.346600
42.486000 1.426900
42.556400 1.489400
42.626800 1.655700
42.697200 1.743800
42.767600 1.834800
42.838100 1.864900
42.908500 1.814800
42.978900 1.746600
43.049300 1.621400
43.119700 1.526900
43.190100 1.454800
43.260500 1.445900
43.330900 1.552600
43.401400 1.386000
43.471800 1.339400
43.542200 1.306900
43.612600 1.283800
43.683000 1.260000
43.753400 1.242200
43.823800 1.257100
43.894300 1.288400
43.964700 1.339100
44.035100 1.405000
44.105500 1.478100
44.175900 1.486600
44.246300 1.528700
44.316700 1.631700
44.387100 1.497200
44.457600 1.459500
44.528000 1.460600
44.598400 1.510600
44.668800 1.560000
44.739200 1.606300
44.809600 1.635500
44.880000 1.550500
44.950400 1.471700
45.020900 1.397600
45.091300 1.341500
45.161700 1.281600
45.232100 1.235800
45.302500 1.133000
45.372900 1.100000
45.443300 1.106600
45.513700 1.146400
45.584200 1.177900
45.654600 1.234600
45.725000 1.385300
45.795400 1.669800
45.865800 1.628700
45.936200 1.678500
46.006600 1.715200
46.077000 1.664500
46.147500 1.653700
46.217900 1.640200
46.288300 1.574900
46.358700 1.559300
46.429100 1.655300
46.499500 1.834500
46.569900 1.529200
46.640400 1.457900
46.710800 1.389600
46.781200 1.176100
46.851600 1.141000
46.922000 1.139600
46.992400 1.144900
47.062800 1.113700
47.133200 1.087800
47.203700 1.095800
47.274100 1.134600
47.344500 1.206700
47.414900 1.266200
47.485300 1.328000
47.555700 1.371200
47.626100 1.414000
47.696500 1.490300
47.767000 1.521100
47.837400 1.550300
47.907800 1.604600
47.978200 1.692900
48.048600 1.832800
48.119000 1.786000
48.189400 1.792000
48.259800 1.809700
48.330300 1.808700
48.400700 1.880800
48.471100 1.737400
48.541500 1.705100
48.611900 1.608100
48.682300 1.521800
48.752700 1.416700
48.823200 1.455300
48.893600 1.538700
48.964000 1.544400
49.034400 1.675800
49.104800 1.806400
49.175200 1.888500
49.245600 1.788400
49.316000 1.683300
49.386500 1.768800
49.456900 1.833200
49.527300 1.828200
49.597700 1.785200
49.668100 1.642700
49.738500 1.522800
49.808900 1.373300
49.879300 1.383300
49.949800 1.410900
50.020200 1.415100
50.090600 1.405400
50.161000 1.394000
50.231400 1.382400
50.301800 1.379300
50.372200 1.405600
50.442600 1.536900
50.513100 1.500500
50.583500 1.555300
50.653900 1.536900
50.724300 1.464400
50.794700 1.386300
50.865100 1.360600
50.935500 1.414800
51.005900 1.412400
51.076400 1.420100
51.146800 1.398300
51.217200 1.421100
51.287600 1.512300
51.358000 1.592300
51.428400 1.560700
51.498800 1.500400
51.569300 1.479800
51.639700 1.481100
51.710100 1.510000
51.780500 1.564800
51.850900 1.613900
51.921300 1.623600
51.991700 1.662300
52.062100 1.675100
52.132600 1.769800
52.203000 1.863800
52.273400 1.758600
52.343800 1.637300
52.414200 1.597700
52.484600 1.506000
52.555000 1.618300
52.625400 1.883000
52.695900 1.989900
52.766300 1.966800
52.836700 1.809700
52.907100 1.749400
52.977500 1.529400
53.047900 1.355400
53.118300 1.272200
53.188700 1.219900
53.259200 1.194600
53.329600 1.181800
53.400000 1.189200
53.470400 1.211900
53.540800 1.288700
53.611200 1.331000
53.681600 1.479400
53.752100 1.528500
53.822500 1.593400
53.892900 1.659100
53.963300 1.706300
54.033700 1.722600
54.104100 1.666300
54.174500 1.637800
54.244900 1.628200
54.315400 1.681600
54.385800 1.797100
54.456200 1.831000
54.526600 1.828700
54.597000 1.898700
54.667400 1.826900
54.737800 1.750500
54.808200 1.520800
54.878700 1.279200
54.949100 1.252000
55.019500 1.268500
55.089900 1.302600
55.160300 1.397300
55.230700 1.427700
55.301100 1.406200
55.371500 1.421500
55.442000 1.474300
55.512400 1.533600
55.582800 1.662300
55.653200 1.750800
55.723600 1.819800
55.794000 1.719800
55.864400 1.502800
55.934800 1.484700
56.005300 1.521400
56.075700 1.513900
56.146100 1.419000
56.216500 1.429600
56.286900 1.452900
56.357300 1.488800
56.427700 1.564200
56.498200 1.672000
56.568600 1.770100
56.639000 1.843400
56.709400 1.949600
56.779800 1.935400
56.850200 1.872400
56.920600 1.719300
56.991000 1.644700
57.061500 1.606600
57.131900 1.551000
57.202300 1.698900
57.272700 1.679400
57.343100 1.730700
57.413500 1.792500
57.483900 1.699800
57.554300 1.730700
57.624800 1.645800
57.695200 1.630600
57.765600 1.642300
57.836000 1.659000
57.906400 1.573200
57.976800 1.541000
58.047200 1.486800
58.117600 1.481200
58.188100 1.499900
58.258500 1.636600
58.328900 1.676000
58.399300 1.575200
58.469700 1.594300
58.540100 1.638100
58.610500 1.596700
58.681000 1.569500
58.751400 1.567500
58.821800 1.484100
58.892200 1.453000
58.962600 1.468200
59.033000 1.515400
59.103400 1.652100
59.173800 1.623600
59.244300 1.637700
59.314700 1.630900
59.385100 1.660100
59.455500 1.708800
59.525900 1.752400
59.596300 1.786600
59.666700 1.803300
59.737100 1.856300
59.807600 1.830000
59.878000 1.836000
59.948400 1.850000
60.018800 1.886500
60.089200 1.859800
60.159600 1.840500
60.230000 1.864500
60.300400 1.889600
60.370900 1.983300
60.441300 2.010300
60.511700 1.926800
60.582100 1.856100
60.652500 1.825700
60.722900 1.725900
60.793300 1.656000
60.863700 1.504700
60.934200 1.482500
61.004600 1.477100
61.075000 1.487000
61.145400 1.530600
61.215800 1.621200
61.286200 1.708500
61.356600 1.640800
61.427100 1.577000
61.497500 1.530400
61.567900 1.507900
61.638300 1.535000
61.708700 1.545600
61.779100 1.522400
61.849500 1.545300
61.919900 1.501400
61.990400 1.500100
62.060800 1.531800
62.131200 1.498500
62.201600 1.488100
62.272000 1.562800
62.342400 1.595700
62.412800 1.630200
62.483200 1.670600
62.553700 1.694500
62.624100 1.718200
62.694500 1.730900
62.764900 1.723500
62.835300 1.670900
62.905700 1.612700
62.976100 1.626800
63.046500 1.654700
63.117000 1.688000
63.187400 1.770400
63.257800 1.830300
63.328200 1.981000
63.398600 1.941800
63.469000 1.962600
63.539400 2.053600
63.609900 1.988900
63.680300 1.996500
63.750700 1.967000
63.821100 1.967900
63.891500 1.973500
63.961900 1.989000
64.032300 1.976400
64.102700 1.974600
64.173200 1.887200
64.243600 1.842100
64.314000 1.858400
64.384400 1.842200
64.454800 1.766000
64.525200 1.737300
64.595600 1.616100
64.666000 1.554800
64.736500 1.498500
64.806900 1.438700
64.877300 1.406000
64.947700 1.442900
65.018100 1.531200
65.088500 1.558700
65.158900 1.615200
65.229300 1.612300
65.299800 1.487200
65.370200 1.458800
65.440600 1.465800
65.511000 1.535400
65.581400 1.618600
65.651800 1.732000
65.722200 1.894200
65.792600 2.062500
65.863100 2.121000
65.933500 2.084300
66.003900 1.875700
66.074300 1.775100
66.144700 1.766100
66.215100 1.773300
66.285500 1.830500
66.356000 1.861100
66.426400 1.848600
66.496800 1.848400
66.567200 1.829900
66.637600 1.736000
66.708000 1.721000
66.778400 1.769400
66.848800 1.816400
66.919300 1.886400
66.989700 1.933300
67.060100 1.938400
67.130500 1.891000
67.200900 1.828500
67.271300 1.857800
67.341700 1.909200
67.412100 1.904700
67.482600 1.914700
67.553000 1.914900
67.623400 1.899100
67.693800 1.864000
67.764200 1.815800
67.834600 1.757900
67.905000 1.733100
67.975400 1.731300
68.045900 1.729600
68.116300 1.739200
68.186700 1.739200
68.257100 1.868700
68.327500 2.093700
68.397900 2.168800
68.468300 2.081400
68.538800 1.882500
68.609200 1.690500
68.679600 1.601400
68.750000 1.501900
68.820400 1.453800
68.890800 1.449100
68.961200 1.524500
69.031600 1.715100
69.102100 1.934900
69.172500 1.806600
69.242900 1.763400
69.313300 1.912100
69.383700 1.948200
69.454100 1.978100
69.524500 2.033900
69.594900 2.054300
69.665400 1.874600
69.735800 1.755100
69.806200 1.723400
69.876600 1.655100
69.947000 1.607600
70.017400 1.676400
70.087800 1.798300
70.158200 1.827700
70.228700 1.885300
70.299100 1.898400
70.369500 1.975200
70.439900 2.041100
70.510300 2.152400
70.580700 2.178200
70.651100 2.190300
70.721500 2.115100
70.792000 1.900400
70.862400 1.814400
70.932800 1.754700
71.003200 1.702400
71.073600 1.862200
71.144000 1.795800
71.214400 1.996900
71.284900 1.926400
71.355300 1.915000
71.425700 1.873700
71.496100 1.703800
71.566500 1.762200
71.636900 1.775700
71.707300 1.797800
71.777700 1.816800
71.848200 1.868600
71.918600 2.066300
71.989000 2.108800
72.059400 2.026400
72.129800 1.975800
72.200200 1.958300
72.270600 1.963500
72.341000 1.969500
72.411500 1.995600
72.481900 2.042000
72.552300 2.065400
72.622700 2.225200
72.693100 2.127000
72.763500 2.006200
72.833900 1.998900
72.904300 1.896500
72.974800 1.877100
73.045200 1.915100
73.115600 1.896300
73.186000 1.868600
73.256400 1.854300
73.326800 1.859800
73.397200 1.908600
73.467700 1.972600
73.538100 1.975900
73.608500 1.910300
73.678900 1.907600
73.749300 2.023100
73.819700 1.904500
73.890100 1.804300
73.960500 1.758400
74.031000 1.832100
74.101400 1.961300
74.171800 2.158900
74.242200 2.381400
74.312600 2.455200
74.383000 2.514100
74.453400 2.478500
74.523800 2.424300
74.594300 2.293300
74.664700 2.224000
74.735100 2.142900
74.805500 2.060100
74.875900 2.008900
74.946300 1.958100
75.016700 2.023200
75.087100 2.047000
75.157600 2.117400
75.228000 2.154500
75.298400 2.009100
75.368800 1.958700
75.439200 1.876900
75.509600 1.865200
75.580000 1.812300
75.650400 1.821000
75.720900 1.869200
75.791300 1.894900
75.861700 1.836400
75.932100 1.838000
76.002500 1.865800
76.072900 1.910500
76.143300 1.955600
76.213800 1.951700
76.284200 1.998600
76.354600 2.211900
76.425000 2.304300
76.495400 2.139500
76.565800 2.083700
76.636200 2.053300
76.706600 2.118600
76.777100 2.255200
76.847500 2.506800
76.917900 2.537700
76.988300 2.519600
77.058700 2.529700
77.129100 2.487800
77.199500 2.383500
77.269900 2.206100
77.340400 2.146200
77.410800 2.207200
77.481200 2.315400
77.551600 2.350100
77.622000 2.461500
77.692400 2.503400
77.762800 2.676700
77.833200 2.687300
77.903700 2.767200
77.974100 2.454800
78.044500 2.174100
78.114900 2.216000
78.185300 2.590600
78.255700 2.890000
78.326100 2.869600
78.396600 2.723500
78.467000 2.634500
78.537400 2.764900
78.607800 2.711800
78.678200 2.630700
78.748600 2.763400
78.819000 2.774700
78.889400 2.392500
78.959900 2.353400
79.030300 2.307600
79.100700 2.380300
79.171100 2.743900
79.241500 2.945100
79.311900 2.986900
79.382300 2.870000
79.452700 2.537900
79.523200 2.574100
79.593600 2.220100
79.664000 2.419400
79.734400 2.707500
79.804800 2.807000
79.875200 2.767700
79.945600 2.988600
80.016000 3.468800
80.086500 3.481400
80.156900 3.334000
80.227300 3.407600
80.297700 3.493900
80.368100 3.022900
80.438500 2.862700
80.508900 2.246500
80.579300 2.123400
80.649800 2.204000
80.720200 2.441000
80.790600 2.648800
80.861000 2.836200
80.931400 2.958400
81.001800 2.939000
81.072200 2.700600
81.142700 2.443800
81.213100 2.280200
81.283500 2.326200
81.353900 2.407500
81.424300 2.315000
81.494700 2.236600
81.565100 2.282000
81.635500 2.345100
81.706000 2.677800
81.776400 2.820200
81.846800 2.733500
81.917200 2.362700
81.987600 2.041500
82.058000 1.802400
82.128400 1.708700
82.198800 1.730900
82.269300 1.821500
82.339700 1.912500
82.410100 2.279800
82.480500 2.513100
82.550900 2.350400
82.621300 2.158400
82.691700 2.203100
82.762100 2.223700
82.832600 2.229600
82.903000 2.132800
82.973400 2.076700
83.043800 1.960700
83.114200 1.917800
83.184600 2.039400
83.255000 2.053100
83.325500 1.875500
83.395900 1.813300
83.466300 1.870900
83.536700 1.992800
83.607100 2.097300
83.677500 2.188500
83.747900 2.262500
83.818300 2.313500
83.888800 2.454600
83.959200 2.558600
84.029600 2.741700
84.100000 2.525300
84.170400 2.668900
84.240800 2.748500
84.311200 2.804300
84.381600 2.626700
84.452100 2.295500
84.522500 2.094100
84.592900 2.123000
84.663300 2.146800
84.733700 2.151800
84.804100 2.162900
84.874500 2.222800
84.944900 2.297000
85.015400 2.457900
85.085800 2.652400
85.156200 2.639100
85.226600 2.319100
85.297000 2.185600
85.367400 2.193400
85.437800 2.075300
85.508200 2.163500
85.578700 2.094000
85.649100 2.281500
85.719500 2.292900
85.789900 2.212200
85.860300 2.291400
85.930700 2.453000
86.001100 2.388800
86.071600 2.200200
86.142000 2.171000
86.212400 2.005600
86.282800 2.050000
86.353200 2.181600
86.423600 2.218800
86.494000 2.214200
86.564400 2.168700
86.634900 2.148000
86.705300 2.213700
86.775700 2.180500
86.846100 2.138200
86.916500 2.043200
86.986900 2.032800
87.057300 2.139800
87.127700 2.262000
87.198200 2.286300
87.268600 2.234400
87.339000 2.260400
87.409400 2.202800
87.479800 2.093200
87.550200 2.058000
87.620600 1.975400
87.691000 1.864400
87.761500 1.966900
87.831900 2.083900
87.902300 2.212500
87.972700 2.190400
88.043100 2.209600
88.113500 2.252900
88.183900 2.298200
88.254400 2.162300
88.324800 2.091700
88.395200 2.120100
88.465600 2.211100
88.536000 2.371300
88.606400 2.366300
88.676800 2.376400
88.747200 2.336600
88.817700 2.094700
88.888100 2.030000
88.958500 1.972100
89.028900 1.936500
89.099300 1.888200
89.169700 1.871000
89.240100 1.912000
89.310500 2.021300
89.381000 2.163500
89.451400 2.184700
89.521800 2.244500
89.592200 2.256000
89.662600 2.169900
89.733000 2.182200
89.803400 2.206400
89.873800 2.224700
89.944300 2.241500
90.014700 2.268800
90.085100 2.330400
90.155500 2.347900
90.225900 2.369400
90.296300 2.382200
90.366700 2.387500
90.437100 2.355300
90.507600 2.521700
90.578000 2.571300
90.648400 2.609300
90.718800 2.585000
90.789200 2.481900
90.859600 2.366100
90.930000 2.362800
91.000500 2.407600
91.070900 2.373600
91.141300 2.312600
91.211700 2.436700
91.282100 2.578800
91.352500 2.260500
91.422900 2.224800
91.493300 2.208500
91.563800 2.160000
91.634200 2.142000
91.704600 2.146300
91.775000 2.170200
91.845400 2.200400
91.915800 2.297400
91.986200 2.345500
92.056600 2.372100
92.127100 2.367800
92.197500 2.519200
92.267900 2.349900
92.338300 2.425300
92.408700 2.483200
92.479100 2.415300
92.549500 2.255800
92.619900 2.135100
92.690400 2.097200
92.760800 2.047000
92.831200 2.056800
92.901600 2.121700
92.972000 2.219000
93.042400 2.186600
93.112800 2.279400
93.183300 2.352000
93.253700 2.395800
93.324100 2.479500
93.394500 2.479300
93.464900 2.600600
93.535300 2.440000
93.605700 2.263900
93.676100 2.154700
93.746600 2.125200
93.817000 2.061500
93.887400 2.074000
93.957800 1.996000
94.028200 1.991100
94.098600 1.984700
94.169000 1.964600
94.239400 1.946800
94.309900 1.925100
94.380300 1.905500
94.450700 1.904800
94.521100 1.960400
94.591500 1.941100
94.661900 2.033600
94.732300 2.008100
94.802700 1.841600
94.873200 1.690000
94.943600 1.634100
95.014000 1.647000
95.084400 1.520400
95.154800 1.408900
95.225200 1.360100
95.295600 1.326200
95.366000 1.306400
95.436500 1.319500
95.506900 1.304500
95.577300 1.256600
95.647700 1.200200
95.718100 1.122800
95.788500 1.026300
95.858900 0.907300
95.929400 0.831900
95.999800 0.779800
96.070200 0.742100
96.140600 0.726000
96.211000 0.724800
96.281400 0.714100
96.351800 0.684000
96.422200 0.643300
96.492700 0.621500
96.563100 0.625100
96.633500 0.601400
96.703900 0.540700
96.774300 0.530000
96.844700 0.523000
96.915100 0.513200
96.985500 0.501500
97.056000 0.492800
97.126400 0.487600
97.196800 0.484400
97.267200 0.478700
97.337600 0.474300
97.408000 0.472600
97.478400 0.473300
97.548800 0.476300
97.619300 0.474000
97.689700 0.460400
97.760100 0.436400
97.830500 0.421900
97.900900 0.415500
97.971300 0.406800
98.041700 0.398100
98.112200 0.386700
98.182600 0.374500
98.253000 0.365800
98.323400 0.352200
98.393800 0.334600
98.464200 0.322300
98.534600 0.313500
98.605000 0.320700
98.675500 0.310500
98.745900 0.250600
98.816300 0.242400
98.886700 0.233100
98.957100 0.222600
99.027500 0.211700
99.097900 0.200600
99.168300 0.189700
99.238800 0.180000
99.309200 0.171800
99.379600 0.164400
99.450000 0.154800
99.520400 0.145500
99.590800 0.136800
99.661200 0.128500
99.731600 0.120800
99.802100 0.113400
99.872500 0.107000
99.942900 0.101700
100.013300 0.097000
100.083700 0.092400
100.154100 0.087900
100.224500 0.084200
100.295000 0.080600
100.365400 0.077200
100.435800 0.074300
100.506200 0.071700
100.576600 0.069200
100.647000 0.066800
100.717400 0.064800
100.787800 0.063300
100.858300 0.062900
100.928700 0.063400
100.999100 0.064900
101.069500 0.064700
101.139900 0.062300
101.210300 0.053000
101.280700 0.050800
101.351100 0.048900
101.421600 0.047400
101.492000 0.046300
101.562400 0.045400
101.632800 0.044600
101.703200 0.043800
101.773600 0.043000
101.844000 0.042200
101.914400 0.041500
101.984900 0.040700
102.055300 0.040000
102.125700 0.039300
102.196100 0.038700
102.266500 0.038600
102.336900 0.039200
102.407300 0.041300
102.477700 0.040800
102.548200 0.040200
102.618600 0.039600
102.689000 0.038900
102.759400 0.038600
102.829800 0.038200
102.900200 0.037600
102.970600 0.039200
103.041100 0.045700
103.111500 0.046300
103.181900 0.036800
103.252300 0.018300
103.322700 0.017000
103.393100 0.015800
103.463500 0.014700
103.533900 0.013800
103.604400 0.013000
103.674800 0.012200
103.745200 0.011400
103.815600 0.010700
103.886000 0.010000
103.956400 0.009400
104.026800 0.008800
104.097200 0.008200
104.167700 0.007600
104.238100 0.007100
104.308500 0.006500
104.378900 0.006100
104.449300 0.005600
104.519700 0.005200
104.590100 0.004800
104.660500 0.004500
104.731000 0.004100
104.801400 0.003800
104.871800 0.003600
104.942200 0.003300
105.012600 0.003100
105.083000 0.002800
105.153400 0.002500
105.223900 0.002200
105.294300 0.001800
105.364700 0.001500
105.435100 0.001300
105.505500 0.001000
105.575900 0.000800
105.646300 0.000600
105.716700 0.000500
105.787200 0.000400
105.857600 0.000300
105.928000 0.000200
105.998400 0.000100
106.068800 0.000000
106.139200 0.000000
106.209600 0.000000
106.280000 0.000000
106.350500 0.000000
106.420900 0.000000
106.491300 0.000000
106.561700 0.000000
106.632100 0.000000
106.702500 0.000000
106.772900 0.000000
106.843300 0.000000
106.913800 0.000000
106.984200 0.000000
107.054600 0.000000
107.125000 0.000000
107.195400 0.000000
107.265800 0.000000
107.336200 0.000000
107.406600 0.000000
107.477100 0.000000
107.547500 0.000000
107.617900 0.000000
107.688300 0.000000
107.758700 0.000000
107.829100 0.000000
107.899500 0.000000
107.970000 0.000000
108.040400 0.000000
108.110800 0.000000
108.181200 0.000000
108.251600 0.000000
108.322000 0.000000
108.392400 0.000000
108.462800 0.000000
108.533300 0.000000
108.603700 0.000000
108.674100 0.000000
108.744500 0.000000
108.814900 0.000000
108.885300 0.000000
108.955700 0.000000
109.026100 0.000000
109.096600 0.000000
109.167000 0.000000
109.237400 0.000000
109.307800 0.000000
109.378200 0.000000
109.448600 0.000000
109.519000 0.000000
109.589400 0.000000
109.659900 0.000000
109.730300 0.000000
109.800700 0.000000
109.871100 0.000000
109.941500 0.000000
110.011900 0.000000
110.082300 0.000000
110.152800 0.000000
110.223200 0.000000
110.293600 0.000000
110.364000 0.000000
110.434400 0.000000
110.504800 0.000000
110.575200 0.000000
110.645600 0.000000
110.716100 0.000000
110.786500 0.000000
110.856900 0.000000
110.927300 0.000000
110.997700 0.000000
111.068100 0.000000
111.138500 0.000000
111.208900 0.000000
111.279400 0.000000
111.349800 0.000000
111.420200 0.000000
111.490600 0.000000
111.561000 0.000000
111.631400 0.000000
111.701800 0.000000
111.772200 0.000000
111.842700 0.000000
111.913100 0.000000
111.983500 0.000000
112.053900 0.000000
112.124300 0.000000
112.194700 0.000000
112.265100 0.000000
112.335500 0.000000
112.406000 0.000000
112.476400 0.000000
112.546800 0.000000
112.617200 0.000000
e
