set title 'mp-1066989 - Density of States'
set xlabel 'Energy (eV)'
set ylabel 'DOS (states/eV)'
set grid
set xrange [-10:10]
set yrange [0:0.911]
set xzeroaxis lt -1
set terminal png size 800,600
set output 'mp-1066989_dos_gnuplot.png'
plot '-' using 1:2 with lines title 'DOS'
-21.070000 0.000000
-20.963000 0.000000
-20.856000 0.000000
-20.749000 0.000000
-20.642000 0.000000
-20.535000 0.000000
-20.428000 0.000000
-20.321000 0.000000
-20.214000 0.000000
-20.107000 0.000000
-20.000000 0.000000
-19.893100 0.000000
-19.786100 0.000000
-19.679100 0.000000
-19.572100 0.000000
-19.465100 0.000000
-19.358100 0.000000
-19.251100 0.000000
-19.144100 0.000000
-19.037100 0.000000
-18.930100 0.000000
-18.823100 0.000000
-18.716100 0.000000
-18.609100 0.000000
-18.502100 0.000000
-18.395100 0.000000
-18.288100 0.000000
-18.181100 0.000000
-18.074100 0.000000
-17.967100 0.000000
-17.860100 0.000000
-17.753200 0.000000
-17.646200 0.000000
-17.539200 0.000000
-17.432200 0.000000
-17.325200 0.000000
-17.218200 0.000000
-17.111200 0.000000
-17.004200 0.000000
-16.897200 0.000000
-16.790200 0.000000
-16.683200 0.000000
-16.576200 0.000000
-16.469200 0.000000
-16.362200 0.000000
-16.255200 0.000000
-16.148200 0.000000
-16.041200 0.000000
-15.934200 0.000000
-15.827200 0.000000
-15.720300 0.000000
-15.613300 0.000000
-15.506300 0.000000
-15.399300 0.000000
-15.292300 0.000000
-15.185300 0.000000
-15.078300 0.000000
-14.971300 0.000000
-14.864300 0.000000
-14.757300 0.000000
-14.650300 0.000000
-14.543300 0.000000
-14.436300 0.000000
-14.329300 0.000000
-14.222300 0.000000
-14.115300 0.000000
-14.008300 0.000000
-13.901300 0.000000
-13.794300 0.000000
-13.687400 0.000000
-13.580400 0.000000
-13.473400 0.000000
-13.366400 0.000000
-13.259400 0.000000
-13.152400 0.000000
-13.045400 0.000000
-12.938400 0.000000
-12.831400 0.000000
-12.724400 0.000000
-12.617400 0.000000
-12.510400 0.000000
-12.403400 0.000000
-12.296400 0.000000
-12.189400 0.000000
-12.082400 0.000000
-11.975400 0.000000
-11.868400 0.000000
-11.761400 0.000000
-11.654500 0.000000
-11.547500 0.000000
-11.440500 0.000000
-11.333500 0.000200
-11.226500 0.034200
-11.119500 0.081800
-11.012500 0.092000
-10.905500 0.116800
-10.798500 0.138800
-10.691500 0.154500
-10.584500 0.167800
-10.477500 0.184200
-10.370500 0.201200
-10.263500 0.219200
-10.156500 0.238100
-10.049500 0.256200
-9.942500 0.274400
-9.835500 0.300400
-9.728500 0.327100
-9.621600 0.368900
-9.514600 0.410700
-9.407600 0.399300
-9.300600 0.411800
-9.193600 0.423600
-9.086600 0.431800
-8.979600 0.444900
-8.872600 0.461200
-8.765600 0.478200
-8.658600 0.496200
-8.551600 0.519100
-8.444600 0.552000
-8.337600 0.616200
-8.230600 0.698900
-8.123600 0.691100
-8.016600 0.723500
-7.909600 0.719600
-7.802600 0.738300
-7.695600 0.779900
-7.588700 0.828400
-7.481700 0.740800
-7.374700 0.661300
-7.267700 0.622500
-7.160700 0.593900
-7.053700 0.512900
-6.946700 0.421900
-6.839700 0.359300
-6.732700 0.306800
-6.625700 0.264200
-6.518700 0.188400
-6.411700 0.034600
-6.304700 0.000000
-6.197700 0.000000
-6.090700 0.000000
-5.983700 0.000000
-5.876700 0.000000
-5.769700 0.000000
-5.662700 0.000000
-5.555700 0.000000
-5.448800 0.000000
-5.341800 0.000000
-5.234800 0.000000
-5.127800 0.000000
-5.020800 0.000000
-4.913800 0.000000
-4.806800 0.000000
-4.699800 0.000000
-4.592800 0.000000
-4.485800 0.000000
-4.378800 0.000000
-4.271800 0.000000
-4.164800 0.000000
-4.057800 0.000000
-3.950800 0.000000
-3.843800 0.000000
-3.736800 0.000000
-3.629800 0.000000
-3.522800 0.000000
-3.415900 0.000000
-3.308900 0.000000
-3.201900 0.000000
-3.094900 0.000000
-2.987900 0.000000
-2.880900 0.000000
-2.773900 0.000000
-2.666900 0.000000
-2.559900 0.000000
-2.452900 0.000000
-2.345900 0.000000
-2.238900 0.000000
-2.131900 0.000000
-2.024900 0.000000
-1.917900 0.000000
-1.810900 0.000000
-1.703900 0.000000
-1.596900 0.000000
-1.489900 0.000000
-1.383000 0.000000
-1.276000 0.000000
-1.169000 0.000000
-1.062000 0.000000
-0.955000 0.000000
-0.848000 0.000000
-0.741000 0.000000
-0.634000 0.000000
-0.527000 0.000000
-0.420000 0.000000
-0.313000 0.000000
-0.206000 0.000000
-0.099000 0.000000
0.008000 0.000000
0.115000 0.011000
0.222000 0.034500
0.329000 0.030100
0.436000 0.037700
0.543000 0.046000
0.649900 0.055000
0.756900 0.061200
0.863900 0.067800
0.970900 0.071900
1.077900 0.077800
1.184900 0.083900
1.291900 0.090100
1.398900 0.095800
1.505900 0.102300
1.612900 0.108800
1.719900 0.124800
1.826900 0.196100
1.933900 0.253800
2.040900 0.287500
2.147900 0.329000
2.254900 0.356400
2.361900 0.379500
2.468900 0.390100
2.575900 0.392400
2.682800 0.393300
2.789800 0.490400
2.896800 0.405300
3.003800 0.412500
3.110800 0.420700
3.217800 0.426800
3.324800 0.432400
3.431800 0.436800
3.538800 0.442100
3.645800 0.451800
3.752800 0.463000
3.859800 0.475400
3.966800 0.492700
4.073800 0.512700
4.180800 0.540100
4.287800 0.562300
4.394800 0.555000
4.501800 0.620300
4.608800 0.565000
4.715800 0.530900
4.822700 0.512400
4.929700 0.500700
5.036700 0.515500
5.143700 0.468800
5.250700 0.379600
5.357700 0.363700
5.464700 0.314500
5.571700 0.292700
5.678700 0.282800
5.785700 0.274700
5.892700 0.253800
5.999700 0.241400
6.106700 0.227600
6.213700 0.224600
6.320700 0.252400
6.427700 0.257200
6.534700 0.283700
6.641700 0.319800
6.748700 0.297900
6.855600 0.308000
6.962600 0.318900
7.069600 0.331200
7.176600 0.344100
7.283600 0.359400
7.390600 0.387300
7.497600 0.406600
7.604600 0.456900
7.711600 0.466300
7.818600 0.456600
7.925600 0.455400
8.032600 0.505600
8.139600 0.467600
8.246600 0.469100
8.353600 0.484400
8.460600 0.483600
8.567600 0.458700
8.674600 0.437200
8.781600 0.426400
8.888500 0.409100
8.995500 0.390300
9.102500 0.385300
9.209500 0.373900
9.316500 0.357200
9.423500 0.348500
9.530500 0.369300
9.637500 0.397700
9.744500 0.413900
9.851500 0.442600
9.958500 0.408400
10.065500 0.419500
10.172500 0.424200
10.279500 0.424900
10.386500 0.416900
10.493500 0.412900
10.600500 0.425700
10.707500 0.417600
10.814500 0.429700
10.921400 0.427600
11.028400 0.431700
11.135400 0.440300
11.242400 0.455100
11.349400 0.440100
11.456400 0.443800
11.563400 0.454000
11.670400 0.464300
11.777400 0.499300
11.884400 0.494400
11.991400 0.501300
12.098400 0.489900
12.205400 0.473800
12.312400 0.465800
12.419400 0.470800
12.526400 0.474500
12.633400 0.474600
12.740400 0.488900
12.847400 0.508900
12.954300 0.488800
13.061300 0.471100
13.168300 0.472200
13.275300 0.477600
13.382300 0.477900
13.489300 0.475600
13.596300 0.474400
13.703300 0.461500
13.810300 0.460100
13.917300 0.480800
14.024300 0.476700
14.131300 0.478200
14.238300 0.480700
14.345300 0.477600
14.452300 0.480500
14.559300 0.478000
14.666300 0.471800
14.773300 0.459200
14.880300 0.451300
14.987300 0.445100
15.094200 0.442300
15.201200 0.449000
15.308200 0.465100
15.415200 0.510900
15.522200 0.537200
15.629200 0.503300
15.736200 0.487800
15.843200 0.480600
15.950200 0.474600
16.057200 0.468800
16.164200 0.455200
16.271200 0.435800
16.378200 0.423000
16.485200 0.412100
16.592200 0.407200
16.699200 0.412600
16.806200 0.407300
16.913200 0.416400
17.020200 0.428100
17.127100 0.435600
17.234100 0.442100
17.341100 0.449400
17.448100 0.454200
17.555100 0.461700
17.662100 0.469800
17.769100 0.476700
17.876100 0.483000
17.983100 0.491000
18.090100 0.495400
18.197100 0.501400
18.304100 0.511600
18.411100 0.509700
18.518100 0.515200
18.625100 0.519700
18.732100 0.526000
18.839100 0.534300
18.946100 0.546400
19.053100 0.556900
19.160000 0.565100
19.267000 0.573700
19.374000 0.581100
19.481000 0.590300
19.588000 0.597400
19.695000 0.603000
19.802000 0.606300
19.909000 0.606900
20.016000 0.609600
20.123000 0.613400
20.230000 0.603900
20.337000 0.597400
20.444000 0.595000
20.551000 0.592000
20.658000 0.589900
20.765000 0.588100
20.872000 0.591400
20.979000 0.592800
21.086000 0.593500
21.192900 0.606900
21.299900 0.589500
21.406900 0.554400
21.513900 0.528300
21.620900 0.523200
21.727900 0.525800
21.834900 0.534900
21.941900 0.534100
22.048900 0.533500
22.155900 0.535200
22.262900 0.539400
22.369900 0.551000
22.476900 0.557700
22.583900 0.556100
22.690900 0.535800
22.797900 0.509100
22.904900 0.490700
23.011900 0.484900
23.118900 0.481000
23.225800 0.470900
23.332800 0.457400
23.439800 0.438400
23.546800 0.446500
23.653800 0.463500
23.760800 0.474500
23.867800 0.485500
23.974800 0.512700
24.081800 0.538700
24.188800 0.546200
24.295800 0.574600
24.402800 0.595800
24.509800 0.622100
24.616800 0.645000
24.723800 0.661400
24.830800 0.689100
24.937800 0.715800
25.044800 0.744800
25.151800 0.776100
25.258700 0.785900
25.365700 0.751500
25.472700 0.707100
25.579700 0.663100
25.686700 0.623200
25.793700 0.595300
25.900700 0.569100
26.007700 0.546300
26.114700 0.532800
26.221700 0.522800
26.328700 0.514900
26.435700 0.513800
26.542700 0.517600
26.649700 0.522400
26.756700 0.527900
26.863700 0.543600
26.970700 0.535100
27.077700 0.539400
27.184700 0.570300
27.291700 0.593600
27.398600 0.619000
27.505600 0.650900
27.612600 0.686300
27.719600 0.727400
27.826600 0.678600
27.933600 0.669800
28.040600 0.664000
28.147600 0.670500
28.254600 0.649900
28.361600 0.632700
28.468600 0.626300
28.575600 0.618900
28.682600 0.613300
28.789600 0.605100
28.896600 0.589900
29.003600 0.585800
29.110600 0.585500
29.217600 0.590300
29.324600 0.615700
29.431500 0.655200
29.538500 0.698400
29.645500 0.709200
29.752500 0.707100
29.859500 0.698500
29.966500 0.684500
30.073500 0.661800
30.180500 0.647000
30.287500 0.614000
30.394500 0.581600
30.501500 0.564100
30.608500 0.555100
30.715500 0.562600
30.822500 0.573100
30.929500 0.600500
31.036500 0.632000
31.143500 0.644200
31.250500 0.652700
31.357500 0.660100
31.464400 0.667100
31.571400 0.659000
31.678400 0.636200
31.785400 0.613500
31.892400 0.597200
31.999400 0.605700
32.106400 0.600000
32.213400 0.597400
32.320400 0.603700
32.427400 0.601800
32.534400 0.595300
32.641400 0.597100
32.748400 0.605200
32.855400 0.625000
32.962400 0.647000
33.069400 0.664300
33.176400 0.682000
33.283400 0.694400
33.390400 0.694200
33.497300 0.679800
33.604300 0.679000
33.711300 0.679400
33.818300 0.687200
33.925300 0.699700
34.032300 0.723900
34.139300 0.752800
34.246300 0.777700
34.353300 0.791900
34.460300 0.780300
34.567300 0.757600
34.674300 0.730300
34.781300 0.701800
34.888300 0.677400
34.995300 0.659800
35.102300 0.645000
35.209300 0.637800
35.316300 0.635600
35.423300 0.635100
35.530200 0.650800
35.637200 0.666200
35.744200 0.682300
35.851200 0.695300
35.958200 0.719200
36.065200 0.713800
36.172200 0.712600
36.279200 0.711300
36.386200 0.699800
36.493200 0.688700
36.600200 0.672500
36.707200 0.666700
36.814200 0.659400
36.921200 0.644700
37.028200 0.642200
37.135200 0.639100
37.242200 0.639100
37.349200 0.643400
37.456200 0.652800
37.563200 0.663600
37.670100 0.671600
37.777100 0.669400
37.884100 0.680100
37.991100 0.698500
38.098100 0.709100
38.205100 0.726500
38.312100 0.747800
38.419100 0.737500
38.526100 0.746100
38.633100 0.761600
38.740100 0.760000
38.847100 0.754300
38.954100 0.743100
39.061100 0.731500
39.168100 0.708500
39.275100 0.713000
39.382100 0.726600
39.489100 0.736600
39.596100 0.740200
39.703000 0.746000
39.810000 0.760800
39.917000 0.771000
40.024000 0.734200
40.131000 0.730600
40.238000 0.730500
40.345000 0.731500
40.452000 0.718900
40.559000 0.710800
40.666000 0.702600
40.773000 0.692500
40.880000 0.694100
40.987000 0.700400
41.094000 0.704700
41.201000 0.713300
41.308000 0.715700
41.415000 0.724000
41.522000 0.721700
41.629000 0.719900
41.735900 0.708400
41.842900 0.705100
41.949900 0.706900
42.056900 0.711200
42.163900 0.721300
42.270900 0.736000
42.377900 0.731100
42.484900 0.728700
42.591900 0.714600
42.698900 0.707700
42.805900 0.706000
42.912900 0.710100
43.019900 0.758400
43.126900 0.724000
43.233900 0.729100
43.340900 0.732800
43.447900 0.732500
43.554900 0.719700
43.661900 0.703600
43.768800 0.694200
43.875800 0.689600
43.982800 0.695500
44.089800 0.706100
44.196800 0.713700
44.303800 0.735200
44.410800 0.745100
44.517800 0.760000
44.624800 0.746300
44.731800 0.762600
44.838800 0.777500
44.945800 0.787500
45.052800 0.790700
45.159800 0.776500
45.266800 0.774200
45.373800 0.764200
45.480800 0.725700
45.587800 0.714200
45.694800 0.726200
45.801700 0.754900
45.908700 0.759300
46.015700 0.771300
46.122700 0.790500
46.229700 0.801300
46.336700 0.812300
46.443700 0.820800
46.550700 0.833700
46.657700 0.839400
46.764700 0.836800
46.871700 0.829900
46.978700 0.872400
47.085700 0.843200
47.192700 0.745900
47.299700 0.739200
47.406700 0.742400
47.513700 0.736900
47.620700 0.757900
47.727700 0.769500
47.834600 0.742900
47.941600 0.729300
48.048600 0.740000
48.155600 0.718500
48.262600 0.737300
48.369600 0.717200
48.476600 0.706300
48.583600 0.706600
48.690600 0.695300
48.797600 0.688600
48.904600 0.721300
49.011600 0.735600
49.118600 0.749900
49.225600 0.777400
49.332600 0.826900
49.439600 0.854100
49.546600 0.837300
49.653600 0.825900
49.760600 0.807800
49.867600 0.770800
49.974500 0.786000
50.081500 0.789900
50.188500 0.758700
50.295500 0.773500
50.402500 0.831300
50.509500 0.837300
50.616500 0.854900
50.723500 0.864400
50.830500 0.865800
50.937500 0.873800
51.044500 0.887300
51.151500 0.857600
51.258500 0.863100
51.365500 0.859700
51.472500 0.848900
51.579500 0.836400
51.686500 0.830400
51.793500 0.854900
51.900500 0.857300
52.007400 0.855100
52.114400 0.848200
52.221400 0.833700
52.328400 0.803400
52.435400 0.799800
52.542400 0.728000
52.649400 0.699800
52.756400 0.672100
52.863400 0.650400
52.970400 0.627000
53.077400 0.629400
53.184400 0.645800
53.291400 0.672200
53.398400 0.712900
53.505400 0.743200
53.612400 0.757500
53.719400 0.766200
53.826400 0.762100
53.933400 0.738700
54.040300 0.715000
54.147300 0.742900
54.254300 0.761200
54.361300 0.771500
54.468300 0.796100
54.575300 0.809400
54.682300 0.879800
54.789300 0.903400
54.896300 0.904500
55.003300 0.934400
55.110300 0.943500
55.217300 0.951100
55.324300 0.937900
55.431300 0.910300
55.538300 0.897600
55.645300 0.852100
55.752300 0.847800
55.859300 0.852800
55.966300 0.851100
56.073200 0.849600
56.180200 0.853600
56.287200 0.831200
56.394200 0.832500
56.501200 0.823100
56.608200 0.815400
56.715200 0.812100
56.822200 0.818400
56.929200 0.823300
57.036200 0.828400
57.143200 0.836000
57.250200 0.840400
57.357200 0.845500
57.464200 0.848500
57.571200 0.839800
57.678200 0.837600
57.785200 0.833600
57.892200 0.831600
57.999200 0.831900
58.106100 0.835300
58.213100 0.861000
58.320100 0.866800
58.427100 0.874400
58.534100 0.883800
58.641100 0.904000
58.748100 0.922800
58.855100 0.942500
58.962100 0.909400
59.069100 0.905300
59.176100 0.896800
59.283100 0.875900
59.390100 0.855300
59.497100 0.848100
59.604100 0.849100
59.711100 0.880500
59.818100 0.814400
59.925100 0.810100
60.032100 0.804000
60.139100 0.798400
60.246000 0.797400
60.353000 0.790600
60.460000 0.783400
60.567000 0.780000
60.674000 0.782000
60.781000 0.783400
60.888000 0.790500
60.995000 0.787500
61.102000 0.781500
61.209000 0.781300
61.316000 0.803400
61.423000 0.819100
61.530000 0.838000
61.637000 0.875400
61.744000 0.896100
61.851000 0.928300
61.958000 0.917800
62.065000 0.924100
62.172000 0.917100
62.278900 0.897100
62.385900 0.894400
62.492900 0.908300
62.599900 0.939300
62.706900 0.942200
62.813900 0.891000
62.920900 0.872700
63.027900 0.858700
63.134900 0.853500
63.241900 0.850000
63.348900 0.858000
63.455900 0.876000
63.562900 0.868700
63.669900 0.869500
63.776900 0.876300
63.883900 0.886600
63.990900 0.910500
64.097900 0.923100
64.204900 0.937900
64.311800 0.947100
64.418800 0.953300
64.525800 0.974400
64.632800 1.004900
64.739800 1.057300
64.846800 1.010300
64.953800 0.983000
65.060800 0.977400
65.167800 0.948400
65.274800 0.930700
65.381800 0.926400
65.488800 0.917200
65.595800 0.926600
65.702800 0.930200
65.809800 0.928100
65.916800 0.912300
66.023800 0.889600
66.130800 0.872200
66.237800 0.859100
66.344700 0.869700
66.451700 0.915100
66.558700 0.921900
66.665700 0.853500
66.772700 0.812100
66.879700 0.782300
66.986700 0.772600
67.093700 0.756100
67.200700 0.735100
67.307700 0.728700
67.414700 0.725600
67.521700 0.728200
67.628700 0.735200
67.735700 0.739300
67.842700 0.744600
67.949700 0.781000
68.056700 0.791800
68.163700 0.827200
68.270700 0.899100
68.377600 0.950000
68.484600 0.968500
68.591600 1.004600
68.698600 1.013800
68.805600 0.985300
68.912600 0.970500
69.019600 0.970400
69.126600 0.980000
69.233600 0.994900
69.340600 0.993800
69.447600 1.014000
69.554600 1.010900
69.661600 1.010400
69.768600 1.010600
69.875600 1.013000
69.982600 1.009700
70.089600 1.023300
70.196600 1.043100
70.303600 1.047200
70.410600 1.025200
70.517500 0.990700
70.624500 0.958000
70.731500 0.934600
70.838500 0.912900
70.945500 0.921600
71.052500 0.926700
71.159500 0.863800
71.266500 0.857900
71.373500 0.856500
71.480500 0.862400
71.587500 0.882800
71.694500 0.887700
71.801500 0.872200
71.908500 0.879100
72.015500 0.888500
72.122500 0.873100
72.229500 0.864700
72.336500 0.859200
72.443500 0.867400
72.550400 0.880500
72.657400 0.879800
72.764400 0.877700
72.871400 0.891000
72.978400 0.905200
73.085400 0.888400
73.192400 0.888800
73.299400 0.895000
73.406400 0.905400
73.513400 0.946400
73.620400 0.946800
73.727400 0.940400
73.834400 0.966100
73.941400 0.902000
74.048400 0.883400
74.155400 0.884800
74.262400 0.843000
74.369400 0.838500
74.476400 0.845400
74.583300 0.853500
74.690300 0.856400
74.797300 0.857400
74.904300 0.870200
75.011300 0.882500
75.118300 0.882700
75.225300 0.867400
75.332300 0.849200
75.439300 0.846400
75.546300 0.863500
75.653300 0.914200
75.760300 0.928900
75.867300 0.997500
75.974300 1.065400
76.081300 1.114400
76.188300 1.158700
76.295300 1.186900
76.402300 1.215200
76.509300 1.181000
76.616200 1.148200
76.723200 1.096900
76.830200 1.065700
76.937200 1.068600
77.044200 1.047000
77.151200 1.039800
77.258200 1.027300
77.365200 1.008400
77.472200 1.002100
77.579200 0.993600
77.686200 0.986600
77.793200 0.988800
77.900200 0.982200
78.007200 0.974500
78.114200 0.968300
78.221200 0.965800
78.328200 0.964300
78.435200 0.962700
78.542200 0.947900
78.649100 0.934600
78.756100 0.919300
78.863100 0.908100
78.970100 0.931600
79.077100 0.938700
79.184100 0.937800
79.291100 0.933900
79.398100 0.932700
79.505100 0.950700
79.612100 0.957000
79.719100 0.956900
79.826100 0.956300
79.933100 0.952100
80.040100 0.946100
80.147100 0.939800
80.254100 0.936300
80.361100 0.931900
80.468100 0.934400
80.575100 0.951600
80.682000 0.992500
80.789000 0.947100
80.896000 0.945300
81.003000 0.941700
81.110000 0.946400
81.217000 0.939300
81.324000 0.962500
81.431000 0.950100
81.538000 0.925000
81.645000 0.921100
81.752000 0.909900
81.859000 0.927100
81.966000 0.921100
82.073000 0.921100
82.180000 0.932500
82.287000 0.984600
82.394000 0.958100
82.501000 0.954800
82.608000 0.962100
82.715000 0.951200
82.821900 0.943700
82.928900 0.941400
83.035900 0.954600
83.142900 0.978500
83.249900 0.980200
83.356900 0.990700
83.463900 0.988100
83.570900 0.989000
83.677900 1.006900
83.784900 1.020300
83.891900 1.042400
83.998900 1.045800
84.105900 1.075200
84.212900 1.089900
84.319900 1.098600
84.426900 1.082700
84.533900 1.078200
84.640900 1.079100
84.747900 1.094400
84.854800 1.135400
84.961800 1.152900
85.068800 1.181100
85.175800 1.201800
85.282800 1.220800
85.389800 1.227100
85.496800 1.211600
85.603800 1.186700
85.710800 1.179700
85.817800 1.146400
85.924800 1.119400
86.031800 1.099200
86.138800 1.085600
86.245800 1.072700
86.352800 1.058800
86.459800 1.063400
86.566800 1.031500
86.673800 1.029000
86.780800 0.987500
86.887700 0.979400
86.994700 0.988000
87.101700 0.982200
87.208700 0.981700
87.315700 0.978700
87.422700 0.972900
87.529700 0.962500
87.636700 0.948400
87.743700 0.943100
87.850700 0.936000
87.957700 0.935800
88.064700 0.896300
88.171700 0.870300
88.278700 0.863700
88.385700 0.852900
88.492700 0.843800
88.599700 0.837200
88.706700 0.860500
88.813700 0.843800
88.920600 0.827100
89.027600 0.815900
89.134600 0.814800
89.241600 0.818800
89.348600 0.830300
89.455600 0.843000
89.562600 0.851300
89.669600 0.866400
89.776600 0.878900
89.883600 0.908500
89.990600 0.932000
90.097600 0.936700
90.204600 0.954600
90.311600 0.994600
90.418600 1.034600
90.525600 1.072900
90.632600 1.121300
90.739600 1.179100
90.846600 1.217500
90.953500 1.283300
91.060500 1.254900
91.167500 1.245200
91.274500 1.217700
91.381500 1.205400
91.488500 1.200900
91.595500 1.159400
91.702500 1.149600
91.809500 1.149300
91.916500 1.140500
92.023500 1.136800
92.130500 1.141600
92.237500 1.148600
92.344500 1.164300
92.451500 1.204600
92.558500 1.175800
92.665500 1.173500
92.772500 1.186100
92.879500 1.234300
92.986500 1.218200
93.093400 1.186000
93.200400 1.178100
93.307400 1.180500
93.414400 1.165600
93.521400 1.136900
93.628400 1.099100
93.735400 1.077700
93.842400 1.070200
93.949400 1.058700
94.056400 1.051700
94.163400 1.062900
94.270400 1.057600
94.377400 1.050500
94.484400 1.063100
94.591400 1.066800
94.698400 1.032700
94.805400 1.000800
94.912400 0.956300
95.019400 0.912800
95.126300 0.908900
95.233300 0.926300
95.340300 0.942700
95.447300 0.913100
95.554300 0.912500
95.661300 0.913100
95.768300 0.921900
95.875300 0.934200
95.982300 0.941100
96.089300 0.934500
96.196300 0.901200
96.303300 0.906700
96.410300 0.907300
96.517300 0.932200
96.624300 0.936100
96.731300 0.941100
96.838300 0.933400
96.945300 0.925800
97.052300 0.917400
97.159200 0.913600
97.266200 0.914400
97.373200 0.911000
97.480200 0.924600
97.587200 0.952700
97.694200 0.981400
97.801200 1.031000
97.908200 1.049600
98.015200 1.017600
98.122200 0.996600
98.229200 0.983900
98.336200 0.984700
98.443200 1.002900
98.550200 1.037300
98.657200 1.022700
98.764200 1.046600
98.871200 1.079200
98.978200 1.117700
99.085200 1.128800
99.192100 1.153300
99.299100 1.214700
99.406100 1.279000
99.513100 1.276900
99.620100 1.279600
99.727100 1.275900
99.834100 1.326700
99.941100 1.337800
100.048100 1.346700
100.155100 1.284700
100.262100 1.230800
100.369100 1.209500
100.476100 1.193400
100.583100 1.181700
100.690100 1.189600
100.797100 1.189700
100.904100 1.199900
101.011100 1.217600
101.118100 1.223600
101.225000 1.194600
101.332000 1.179400
101.439000 1.169700
101.546000 1.168100
101.653000 1.164300
101.760000 1.162400
101.867000 1.157700
101.974000 1.158800
102.081000 1.160600
102.188000 1.150400
102.295000 1.140900
102.402000 1.131100
102.509000 1.128500
102.616000 1.120400
102.723000 1.114800
102.830000 1.113200
102.937000 1.110400
103.044000 1.098200
103.151000 1.090800
103.257900 1.099900
103.364900 1.096600
103.471900 1.067900
103.578900 1.059900
103.685900 1.048900
103.792900 1.037000
103.899900 1.025300
104.006900 1.012200
104.113900 0.995300
104.220900 0.988300
104.327900 0.972600
104.434900 0.954600
104.541900 0.933000
104.648900 0.925100
104.755900 0.924600
104.862900 0.917000
104.969900 0.919800
105.076900 0.870300
105.183900 0.843600
105.290900 0.844400
105.397800 0.851700
105.504800 0.860200
105.611800 0.875400
105.718800 0.892100
105.825800 0.910500
105.932800 0.915600
106.039800 0.940700
106.146800 0.967500
106.253800 1.003400
106.360800 1.021000
106.467800 1.053700
106.574800 1.079300
106.681800 1.099700
106.788800 1.119800
106.895800 1.139200
107.002800 1.169500
107.109800 1.142800
107.216800 1.150400
107.323800 1.171900
107.430700 1.227300
107.537700 1.280800
107.644700 1.296700
107.751700 1.315000
107.858700 1.309200
107.965700 1.326400
108.072700 1.352200
108.179700 1.344900
108.286700 1.330100
108.393700 1.319200
108.500700 1.311000
108.607700 1.312400
108.714700 1.335300
108.821700 1.348000
108.928700 1.338600
109.035700 1.324600
109.142700 1.313500
109.249700 1.320500
109.356700 1.341800
109.463600 1.339400
109.570600 1.300100
109.677600 1.288100
109.784600 1.276600
109.891600 1.262100
109.998600 1.253900
110.105600 1.235100
110.212600 1.215900
110.319600 1.194900
110.426600 1.156000
110.533600 1.122600
110.640600 1.107800
110.747600 1.106100
110.854600 1.100000
110.961600 1.087400
111.068600 1.080600
111.175600 1.086300
111.282600 1.130700
111.389600 1.171100
111.496500 1.175800
111.603500 1.176400
111.710500 1.132800
111.817500 1.094600
111.924500 1.082300
112.031500 1.072800
112.138500 1.049800
112.245500 1.013300
112.352500 0.978600
112.459500 0.948300
112.566500 0.928600
112.673500 0.911100
112.780500 0.901700
112.887500 0.897000
112.994500 0.901200
113.101500 0.909500
113.208500 0.916900
113.315500 0.933600
113.422500 0.953600
113.529400 0.985900
113.636400 1.029300
113.743400 1.054700
113.850400 1.074800
113.957400 1.105000
114.064400 1.128900
114.171400 1.133100
114.278400 1.168000
114.385400 1.186800
114.492400 1.197900
114.599400 1.191400
114.706400 1.173500
114.813400 1.152500
114.920400 1.131700
115.027400 1.119500
115.134400 1.092800
115.241400 1.082200
115.348400 1.071600
115.455400 1.079500
115.562400 1.078600
115.669300 1.079000
115.776300 1.078200
115.883300 1.103900
115.990300 1.105700
116.097300 1.083500
116.204300 1.075600
116.311300 1.077900
116.418300 1.083200
116.525300 1.099800
116.632300 1.117900
116.739300 1.145700
116.846300 1.137700
116.953300 1.176000
117.060300 1.244500
117.167300 1.267700
117.274300 1.286100
117.381300 1.290900
117.488300 1.295600
117.595300 1.340100
117.702200 1.313300
117.809200 1.337700
117.916200 1.342000
118.023200 1.340300
118.130200 1.333200
118.237200 1.330200
118.344200 1.332700
118.451200 1.327800
118.558200 1.327300
118.665200 1.329000
118.772200 1.333800
118.879200 1.327000
118.986200 1.308100
119.093200 1.272100
119.200200 1.238600
119.307200 1.220500
119.414200 1.224900
119.521200 1.226900
119.628200 1.225100
119.735100 1.246500
119.842100 1.250500
119.949100 1.243100
120.056100 1.217600
120.163100 1.223500
120.270100 1.239100
120.377100 1.214900
120.484100 1.193700
120.591100 1.179600
120.698100 1.177400
120.805100 1.156300
120.912100 1.156100
121.019100 1.132300
121.126100 1.093600
121.233100 1.081500
121.340100 1.079900
121.447100 1.074500
121.554100 1.080700
121.661100 1.074800
121.768000 1.079900
121.875000 1.105500
121.982000 1.125300
122.089000 1.113100
122.196000 1.120500
122.303000 1.121000
122.410000 1.126900
122.517000 1.115800
122.624000 1.119500
122.731000 1.114700
122.838000 1.115900
122.945000 1.112800
123.052000 1.109600
123.159000 1.096100
123.266000 1.094900
123.373000 1.096400
123.480000 1.104200
123.587000 1.095500
123.694000 1.082400
123.800900 1.080600
123.907900 1.080100
124.014900 1.082800
124.121900 1.086300
124.228900 1.093200
124.335900 1.100200
124.442900 1.108400
124.549900 1.112100
124.656900 1.115900
124.763900 1.120700
124.870900 1.123400
124.977900 1.132600
125.084900 1.140100
125.191900 1.149900
125.298900 1.142900
125.405900 1.141200
125.512900 1.146900
125.619900 1.161600
125.726900 1.183800
125.833800 1.208700
125.940800 1.234800
126.047800 1.241800
126.154800 1.255000
126.261800 1.266700
126.368800 1.278900
126.475800 1.296300
126.582800 1.310400
126.689800 1.320400
126.796800 1.340900
126.903800 1.378700
127.010800 1.383900
127.117800 1.387600
127.224800 1.398000
127.331800 1.426900
127.438800 1.412400
127.545800 1.417700
127.652800 1.436700
127.759800 1.434200
127.866800 1.415300
127.973700 1.402500
128.080700 1.371900
128.187700 1.356600
128.294700 1.354300
128.401700 1.340200
128.508700 1.345900
128.615700 1.355800
128.722700 1.379800
128.829700 1.375100
128.936700 1.320900
129.043700 1.296000
129.150700 1.301000
129.257700 1.267200
129.364700 1.254700
129.471700 1.245700
129.578700 1.252000
129.685700 1.261700
129.792700 1.271800
129.899700 1.264500
130.006600 1.268700
130.113600 1.241700
130.220600 1.245300
130.327600 1.239600
130.434600 1.224200
130.541600 1.219700
130.648600 1.199800
130.755600 1.198000
130.862600 1.191100
130.969600 1.152600
131.076600 1.147900
131.183600 1.146200
131.290600 1.142100
131.397600 1.136800
131.504600 1.133900
131.611600 1.141300
131.718600 1.135900
131.825600 1.134900
131.932600 1.137200
132.039500 1.136100
132.146500 1.110300
132.253500 1.100900
132.360500 1.092400
132.467500 1.092900
132.574500 1.095200
132.681500 1.099000
132.788500 1.110100
132.895500 1.135500
133.002500 1.160700
133.109500 1.165600
133.216500 1.174400
133.323500 1.182200
133.430500 1.183400
133.537500 1.183100
133.644500 1.184100
133.751500 1.177500
133.858500 1.178000
133.965500 1.179300
134.072400 1.186700
134.179400 1.192000
134.286400 1.196600
134.393400 1.192000
134.500400 1.185900
134.607400 1.183800
134.714400 1.198000
134.821400 1.215100
134.928400 1.218100
135.035400 1.237600
135.142400 1.248200
135.249400 1.273200
135.356400 1.282500
135.463400 1.244200
135.570400 1.237200
135.677400 1.234200
135.784400 1.237700
135.891400 1.242100
135.998400 1.247600
136.105300 1.250400
136.212300 1.236600
136.319300 1.253600
136.426300 1.252000
136.533300 1.287900
136.640300 1.321700
136.747300 1.349400
136.854300 1.368100
136.961300 1.395200
137.068300 1.399200
137.175300 1.415600
137.282300 1.427200
137.389300 1.440700
137.496300 1.443000
137.603300 1.451900
137.710300 1.446500
137.817300 1.439700
137.924300 1.426500
138.031300 1.391700
138.138300 1.403500
138.245200 1.405100
138.352200 1.354700
138.459200 1.329600
138.566200 1.324800
138.673200 1.293000
138.780200 1.282000
138.887200 1.279900
138.994200 1.264100
139.101200 1.259700
139.208200 1.296300
139.315200 1.276500
139.422200 1.212200
139.529200 1.254300
139.636200 1.280700
139.743200 1.313100
139.850200 1.337900
139.957200 1.393300
140.064200 1.417100
140.171200 1.402400
140.278100 1.419500
140.385100 1.274300
140.492100 1.260400
140.599100 1.266100
140.706100 1.244100
140.813100 1.221200
140.920100 1.217600
141.027100 1.202500
141.134100 1.197400
141.241100 1.202600
141.348100 1.212100
141.455100 1.216300
141.562100 1.247500
141.669100 1.232400
141.776100 1.260100
141.883100 1.245900
141.990100 1.165000
142.097100 1.132600
142.204100 1.117000
142.311000 1.094400
142.418000 1.096400
142.525000 1.094200
142.632000 1.108300
142.739000 1.107800
142.846000 1.106600
142.953000 1.113600
143.060000 1.106800
143.167000 1.115000
143.274000 1.121100
143.381000 1.113900
143.488000 1.107200
143.595000 1.092900
143.702000 1.088200
143.809000 1.101800
143.916000 1.122400
144.023000 1.160100
144.130000 1.203000
144.237000 1.210000
144.343900 1.218100
144.450900 1.222800
144.557900 1.242300
144.664900 1.269800
144.771900 1.257700
144.878900 1.285200
144.985900 1.283100
145.092900 1.288400
145.199900 1.305500
145.306900 1.338600
145.413900 1.339900
145.520900 1.354300
145.627900 1.337500
145.734900 1.347100
145.841900 1.330700
145.948900 1.333900
146.055900 1.319900
146.162900 1.305500
146.269900 1.275100
146.376800 1.287500
146.483800 1.314600
146.590800 1.284300
146.697800 1.278100
146.804800 1.277200
146.911800 1.285500
147.018800 1.309100
147.125800 1.344800
147.232800 1.383700
147.339800 1.416600
147.446800 1.428300
147.553800 1.451400
147.660800 1.483600
147.767800 1.457100
147.874800 1.455300
147.981800 1.450100
148.088800 1.426300
148.195800 1.421800
148.302800 1.420900
148.409800 1.432500
148.516700 1.410900
148.623700 1.413000
148.730700 1.417100
148.837700 1.394400
148.944700 1.393200
149.051700 1.411000
149.158700 1.418400
149.265700 1.430600
149.372700 1.426200
149.479700 1.425900
149.586700 1.432300
149.693700 1.456300
149.800700 1.431400
149.907700 1.429900
150.014700 1.429100
150.121700 1.411700
150.228700 1.393000
150.335700 1.373900
150.442700 1.360300
150.549600 1.351600
150.656600 1.350500
150.763600 1.347000
150.870600 1.345200
150.977600 1.343400
151.084600 1.326800
151.191600 1.318100
151.298600 1.316400
151.405600 1.315800
151.512600 1.320600
151.619600 1.334800
151.726600 1.346600
151.833600 1.355500
151.940600 1.376700
152.047600 1.379200
152.154600 1.334900
152.261600 1.290100
152.368600 1.279700
152.475600 1.275100
152.582500 1.237300
152.689500 1.204900
152.796500 1.185000
152.903500 1.167600
153.010500 1.184800
153.117500 1.164900
153.224500 1.162800
153.331500 1.176500
153.438500 1.180500
153.545500 1.168300
153.652500 1.174800
153.759500 1.179200
153.866500 1.162300
153.973500 1.150200
154.080500 1.140800
154.187500 1.169300
154.294500 1.164900
154.401500 1.171000
154.508500 1.197200
154.615400 1.202000
154.722400 1.210900
154.829400 1.209400
154.936400 1.201500
155.043400 1.207000
155.150400 1.202800
155.257400 1.195800
155.364400 1.196600
155.471400 1.170000
155.578400 1.162400
155.685400 1.178500
155.792400 1.201500
155.899400 1.186700
156.006400 1.179800
156.113400 1.181800
156.220400 1.191000
156.327400 1.214100
156.434400 1.238700
156.541400 1.260900
156.648300 1.280400
156.755300 1.312200
156.862300 1.332800
156.969300 1.359200
157.076300 1.404700
157.183300 1.437200
157.290300 1.469900
157.397300 1.518300
157.504300 1.547700
157.611300 1.563200
157.718300 1.599600
157.825300 1.632800
157.932300 1.650700
158.039300 1.586900
158.146300 1.548500
158.253300 1.544800
158.360300 1.554300
158.467300 1.539600
158.574300 1.493900
158.681200 1.457100
158.788200 1.469200
158.895200 1.485500
159.002200 1.517500
159.109200 1.492700
159.216200 1.496000
159.323200 1.495800
159.430200 1.501900
159.537200 1.505600
159.644200 1.580300
159.751200 1.491700
159.858200 1.492700
159.965200 1.434300
160.072200 1.417200
160.179200 1.420200
160.286200 1.407000
160.393200 1.376900
160.500200 1.392400
160.607200 1.369100
160.714200 1.467700
160.821100 1.347900
160.928100 1.346400
161.035100 1.334700
161.142100 1.337700
161.249100 1.337300
161.356100 1.319700
161.463100 1.303800
161.570100 1.295600
161.677100 1.290700
161.784100 1.278400
161.891100 1.258700
161.998100 1.242200
162.105100 1.229700
162.212100 1.221800
162.319100 1.226100
162.426100 1.239100
162.533100 1.264100
162.640100 1.283600
162.747100 1.274400
162.854000 1.270900
162.961000 1.254100
163.068000 1.226100
163.175000 1.229400
163.282000 1.200700
163.389000 1.207300
163.496000 1.188200
163.603000 1.179600
163.710000 1.180500
163.817000 1.150000
163.924000 1.115000
164.031000 1.098200
164.138000 1.086700
164.245000 1.077600
164.352000 1.069500
164.459000 1.057700
164.566000 1.037000
164.673000 1.017500
164.780000 0.999100
164.886900 0.985600
164.993900 0.963400
165.100900 0.932900
165.207900 0.915800
165.314900 0.892100
165.421900 0.861900
165.528900 0.849800
165.635900 0.830000
165.742900 0.810300
165.849900 0.785300
165.956900 0.757100
166.063900 0.725600
166.170900 0.700700
166.277900 0.673600
166.384900 0.655100
166.491900 0.630200
166.598900 0.613600
166.705900 0.597000
166.812900 0.580900
166.919800 0.563400
167.026800 0.545100
167.133800 0.527700
167.240800 0.510600
167.347800 0.493500
167.454800 0.476700
167.561800 0.451000
167.668800 0.441900
167.775800 0.438700
167.882800 0.433600
167.989800 0.423600
168.096800 0.404500
168.203800 0.378200
168.310800 0.349600
168.417800 0.329200
168.524800 0.315200
168.631800 0.301100
168.738800 0.291000
168.845800 0.280200
168.952700 0.274000
169.059700 0.265500
169.166700 0.253400
169.273700 0.250200
169.380700 0.212000
169.487700 0.216000
169.594700 0.170600
169.701700 0.165000
169.808700 0.165100
169.915700 0.156500
170.022700 0.151600
170.129700 0.150900
170.236700 0.150800
170.343700 0.144800
170.450700 0.132000
170.557700 0.125700
170.664700 0.121400
170.771700 0.117100
170.878700 0.123900
170.985700 0.120100
171.092600 0.112300
171.199600 0.101800
171.306600 0.089300
171.413600 0.077700
171.520600 0.071800
171.627600 0.066200
171.734600 0.060800
171.841600 0.056000
171.948600 0.051700
172.055600 0.048600
172.162600 0.046000
172.269600 0.043700
172.376600 0.041400
172.483600 0.039400
172.590600 0.037500
172.697600 0.035800
172.804600 0.034200
172.911600 0.032700
173.018600 0.031400
173.125500 0.030200
173.232500 0.029100
173.339500 0.028100
173.446500 0.027200
173.553500 0.026300
173.660500 0.025500
173.767500 0.024800
173.874500 0.024200
173.981500 0.023600
174.088500 0.023000
174.195500 0.022500
174.302500 0.022000
174.409500 0.021500
174.516500 0.021100
174.623500 0.020700
174.730500 0.020300
174.837500 0.019900
174.944500 0.019600
175.051500 0.019200
175.158400 0.018900
175.265400 0.018500
175.372400 0.018200
175.479400 0.017900
175.586400 0.017600
175.693400 0.017300
175.800400 0.017000
175.907400 0.016800
176.014400 0.016500
176.121400 0.016300
176.228400 0.016000
176.335400 0.015800
176.442400 0.015600
176.549400 0.015400
176.656400 0.015200
176.763400 0.014500
176.870400 0.015500
176.977400 0.016600
177.084400 0.017400
177.191300 0.017700
177.298300 0.017600
177.405300 0.017200
177.512300 0.016300
177.619300 0.022200
177.726300 0.018100
177.833300 0.013500
177.940300 0.008600
178.047300 0.004500
178.154300 0.004300
178.261300 0.004100
178.368300 0.003900
178.475300 0.003700
178.582300 0.003500
178.689300 0.003400
178.796300 0.003200
178.903300 0.003000
179.010300 0.002900
179.117300 0.002700
179.224200 0.002600
179.331200 0.002400
179.438200 0.002300
179.545200 0.002100
179.652200 0.002000
179.759200 0.001900
179.866200 0.001800
179.973200 0.001600
180.080200 0.001500
180.187200 0.001400
180.294200 0.001300
180.401200 0.001200
180.508200 0.001100
180.615200 0.001000
180.722200 0.000900
180.829200 0.000800
180.936200 0.000800
181.043200 0.000700
181.150200 0.000600
181.257100 0.000500
181.364100 0.000500
181.471100 0.000400
181.578100 0.000400
181.685100 0.000300
181.792100 0.000300
181.899100 0.000200
182.006100 0.000200
182.113100 0.000200
182.220100 0.000100
182.327100 0.000100
182.434100 0.000100
182.541100 0.000100
182.648100 0.000000
182.755100 0.000000
182.862100 0.000000
182.969100 0.000000
183.076100 0.000000
183.183100 0.000000
183.290100 0.000000
183.397000 0.000000
183.504000 0.000000
183.611000 0.000000
183.718000 0.000000
183.825000 0.000000
183.932000 0.000000
184.039000 0.000000
184.146000 0.000000
184.253000 0.000000
184.360000 0.000000
184.467000 0.000000
184.574000 0.000000
184.681000 0.000000
184.788000 0.000000
184.895000 0.000000
185.002000 0.000000
185.109000 0.000000
185.216000 0.000000
185.323000 0.000000
185.429900 0.000000
185.536900 0.000000
185.643900 0.000000
185.750900 0.000000
185.857900 0.000000
185.964900 0.000000
186.071900 0.000000
186.178900 0.000000
186.285900 0.000000
186.392900 0.000000
186.499900 0.000000
186.606900 0.000000
186.713900 0.000000
186.820900 0.000000
186.927900 0.000000
187.034900 0.000000
187.141900 0.000000
187.248900 0.000000
187.355900 0.000000
187.462800 0.000000
187.569800 0.000000
187.676800 0.000000
187.783800 0.000000
187.890800 0.000000
187.997800 0.000000
188.104800 0.000000
188.211800 0.000000
188.318800 0.000000
188.425800 0.000000
188.532800 0.000000
188.639800 0.000000
188.746800 0.000000
188.853800 0.000000
188.960800 0.000000
189.067800 0.000000
189.174800 0.000000
189.281800 0.000000
189.388800 0.000000
189.495700 0.000000
189.602700 0.000000
189.709700 0.000000
189.816700 0.000000
189.923700 0.000000
190.030700 0.000000
190.137700 0.000000
190.244700 0.000000
190.351700 0.000000
190.458700 0.000000
190.565700 0.000000
190.672700 0.000000
190.779700 0.000000
190.886700 0.000000
190.993700 0.000000
191.100700 0.000000
191.207700 0.000000
191.314700 0.000000
191.421700 0.000000
191.528600 0.000000
191.635600 0.000000
191.742600 0.000000
191.849600 0.000000
191.956600 0.000000
192.063600 0.000000
192.170600 0.000000
192.277600 0.000000
192.384600 0.000000
192.491600 0.000000
192.598600 0.000000
192.705600 0.000000
192.812600 0.000000
192.919600 0.000000
e
