set title 'mp-569423 - Density of States'
set xlabel 'Energy (eV)'
set ylabel 'DOS (states/eV)'
set grid
set xrange [-10:10]
set yrange [0:5.198]
set xzeroaxis lt -1
set terminal png size 800,600
set output 'mp-569423_dos_gnuplot.png'
plot '-' using 1:2 with lines title 'DOS'
-13.191300 0.000000
-13.173700 0.000000
-13.156100 0.000000
-13.138500 0.000000
-13.120800 0.000000
-13.103200 0.000000
-13.085600 0.000000
-13.068000 0.000000
-13.050400 0.000000
-13.032800 0.000000
-13.015100 0.000000
-12.997500 0.000000
-12.979900 0.000000
-12.962300 0.000000
-12.944700 0.000000
-12.927000 0.000000
-12.909400 0.000000
-12.891800 0.000000
-12.874200 0.000000
-12.856600 0.000000
-12.839000 0.000000
-12.821300 0.000000
-12.803700 0.000000
-12.786100 0.000000
-12.768500 0.000000
-12.750900 0.000000
-12.733200 0.000000
-12.715600 0.000000
-12.698000 0.000000
-12.680400 0.000000
-12.662800 0.000000
-12.645100 0.000000
-12.627500 0.000000
-12.609900 0.000000
-12.592300 0.000000
-12.574700 0.000000
-12.557100 0.000000
-12.539400 0.000000
-12.521800 0.000000
-12.504200 0.000000
-12.486600 0.000000
-12.469000 0.000000
-12.451300 0.000000
-12.433700 0.000000
-12.416100 0.000000
-12.398500 0.000000
-12.380900 0.000000
-12.363200 0.000000
-12.345600 0.000000
-12.328000 0.000000
-12.310400 0.000000
-12.292800 0.000000
-12.275200 0.000000
-12.257500 0.000000
-12.239900 0.000000
-12.222300 0.000000
-12.204700 0.000000
-12.187100 0.000000
-12.169400 0.000000
-12.151800 0.000000
-12.134200 0.000000
-12.116600 0.000000
-12.099000 0.000000
-12.081300 0.000000
-12.063700 0.000000
-12.046100 0.000000
-12.028500 0.000000
-12.010900 0.000000
-11.993300 0.000000
-11.975600 0.000000
-11.958000 0.000000
-11.940400 0.000000
-11.922800 0.000000
-11.905200 0.000000
-11.887500 0.000000
-11.869900 0.000000
-11.852300 0.000000
-11.834700 0.000000
-11.817100 0.000000
-11.799500 0.000000
-11.781800 0.000000
-11.764200 0.000000
-11.746600 0.000000
-11.729000 0.000000
-11.711400 0.000000
-11.693700 0.000000
-11.676100 0.000000
-11.658500 0.000000
-11.640900 0.000000
-11.623300 0.000000
-11.605600 0.000000
-11.588000 37.108800
-11.570400 114.230500
-11.552800 101.151700
-11.535200 143.084700
-11.517600 119.271800
-11.499900 235.596600
-11.482300 118.372500
-11.464700 146.554600
-11.447100 205.628900
-11.429500 82.503000
-11.411800 138.048700
-11.394200 157.720900
-11.376600 71.707900
-11.359000 90.653800
-11.341400 154.158800
-11.323700 206.961300
-11.306100 236.103100
-11.288500 106.930300
-11.270900 136.062600
-11.253300 65.926800
-11.235700 120.770700
-11.218000 200.720000
-11.200400 324.715300
-11.182800 0.000000
-11.165200 0.000000
-11.147600 0.000000
-11.129900 0.000000
-11.112300 0.000000
-11.094700 0.000000
-11.077100 0.000000
-11.059500 0.000000
-11.041900 0.000000
-11.024200 0.000000
-11.006600 0.000000
-10.989000 0.000000
-10.971400 0.000000
-10.953800 0.000000
-10.936100 0.000000
-10.918500 0.000000
-10.900900 0.000000
-10.883300 0.000000
-10.865700 0.000000
-10.848000 0.000000
-10.830400 0.000000
-10.812800 0.000000
-10.795200 0.000000
-10.777600 0.000000
-10.760000 0.000000
-10.742300 0.000000
-10.724700 0.000000
-10.707100 0.000000
-10.689500 0.000000
-10.671900 0.000000
-10.654200 0.000000
-10.636600 0.000000
-10.619000 0.000000
-10.601400 0.000000
-10.583800 0.000000
-10.566100 0.000000
-10.548500 0.000000
-10.530900 0.000000
-10.513300 0.000000
-10.495700 0.000000
-10.478100 0.000000
-10.460400 0.000000
-10.442800 0.000000
-10.425200 0.000000
-10.407600 0.000000
-10.390000 0.000000
-10.372300 0.000000
-10.354700 0.000000
-10.337100 0.000000
-10.319500 0.000000
-10.301900 0.000000
-10.284300 0.000000
-10.266600 0.000000
-10.249000 0.000000
-10.231400 0.000000
-10.213800 0.000000
-10.196200 0.000000
-10.178500 0.000000
-10.160900 0.000000
-10.143300 0.000000
-10.125700 0.000000
-10.108100 0.000000
-10.090400 0.000000
-10.072800 0.000000
-10.055200 0.000000
-10.037600 0.000000
-10.020000 0.000000
-10.002400 0.000000
-9.984700 0.000000
-9.967100 0.000000
-9.949500 0.000000
-9.931900 0.000000
-9.914300 0.000000
-9.896600 0.000000
-9.879000 0.000000
-9.861400 0.000000
-9.843800 0.000000
-9.826200 0.000000
-9.808500 0.000000
-9.790900 0.000000
-9.773300 0.000000
-9.755700 0.000000
-9.738100 0.000000
-9.720500 0.000000
-9.702800 0.000000
-9.685200 0.000000
-9.667600 0.000000
-9.650000 0.000000
-9.632400 0.000000
-9.614700 0.000000
-9.597100 0.000000
-9.579500 0.000000
-9.561900 0.000000
-9.544300 0.000000
-9.526700 0.000000
-9.509000 0.000000
-9.491400 0.000000
-9.473800 0.000000
-9.456200 0.000000
-9.438600 0.000000
-9.420900 0.000000
-9.403300 0.000000
-9.385700 0.000000
-9.368100 0.000000
-9.350500 0.000000
-9.332800 0.000000
-9.315200 0.000000
-9.297600 0.000000
-9.280000 0.000000
-9.262400 0.000000
-9.244800 0.000000
-9.227100 0.000000
-9.209500 0.000000
-9.191900 0.000000
-9.174300 0.000000
-9.156700 0.000000
-9.139000 0.000000
-9.121400 0.000000
-9.103800 0.000000
-9.086200 0.000000
-9.068600 0.000000
-9.050900 0.000000
-9.033300 0.000000
-9.015700 0.000000
-8.998100 0.000000
-8.980500 0.000000
-8.962900 0.000000
-8.945200 0.000000
-8.927600 0.000000
-8.910000 0.000000
-8.892400 0.000000
-8.874800 0.000000
-8.857100 0.000000
-8.839500 0.000000
-8.821900 0.000000
-8.804300 0.000000
-8.786700 0.000000
-8.769100 0.000000
-8.751400 0.000000
-8.733800 0.000000
-8.716200 0.000000
-8.698600 0.000000
-8.681000 0.000000
-8.663300 0.000000
-8.645700 0.000000
-8.628100 0.000000
-8.610500 0.000000
-8.592900 0.000000
-8.575200 0.000000
-8.557600 0.000000
-8.540000 0.000000
-8.522400 0.000000
-8.504800 0.000000
-8.487200 0.000000
-8.469500 0.000000
-8.451900 0.000000
-8.434300 0.000000
-8.416700 0.000000
-8.399100 0.000000
-8.381400 0.000000
-8.363800 0.000000
-8.346200 0.000000
-8.328600 0.000000
-8.311000 0.000000
-8.293300 0.000000
-8.275700 0.000000
-8.258100 0.000000
-8.240500 0.000000
-8.222900 0.000000
-8.205300 0.000000
-8.187600 0.000000
-8.170000 0.000000
-8.152400 0.000000
-8.134800 0.000000
-8.117200 0.000000
-8.099500 0.000000
-8.081900 0.000000
-8.064300 0.000000
-8.046700 0.000000
-8.029100 0.000000
-8.011500 0.000000
-7.993800 0.000000
-7.976200 0.000000
-7.958600 0.000000
-7.941000 0.000000
-7.923400 0.000000
-7.905700 0.000000
-7.888100 0.000000
-7.870500 0.000000
-7.852900 0.000000
-7.835300 0.000000
-7.817600 0.000000
-7.800000 0.000000
-7.782400 0.000000
-7.764800 0.000000
-7.747200 0.000000
-7.729600 0.000000
-7.711900 0.000000
-7.694300 0.000000
-7.676700 0.000000
-7.659100 0.000000
-7.641500 0.000000
-7.623800 0.000000
-7.606200 0.000000
-7.588600 0.000000
-7.571000 0.000000
-7.553400 0.000000
-7.535700 0.000000
-7.518100 0.000000
-7.500500 0.096500
-7.482900 0.132300
-7.465300 0.162900
-7.447700 0.188100
-7.430000 0.208000
-7.412400 0.246800
-7.394800 0.279700
-7.377200 0.304200
-7.359600 0.320500
-7.341900 0.298400
-7.324300 0.313600
-7.306700 0.329200
-7.289100 0.345200
-7.271500 0.361700
-7.253900 0.378600
-7.236200 0.395900
-7.218600 0.413600
-7.201000 0.431800
-7.183400 0.450400
-7.165800 0.452500
-7.148100 0.464400
-7.130500 0.474600
-7.112900 0.482900
-7.095300 0.488900
-7.077700 0.492100
-7.060000 0.496600
-7.042400 0.502400
-7.024800 0.509500
-7.007200 0.519000
-6.989600 0.530400
-6.972000 0.542000
-6.954300 0.554000
-6.936700 0.566400
-6.919100 0.579100
-6.901500 0.592100
-6.883900 0.605500
-6.866200 0.619200
-6.848600 0.622200
-6.831000 0.626600
-6.813400 0.630900
-6.795800 0.635100
-6.778100 0.639200
-6.760500 0.644000
-6.742900 0.650300
-6.725300 0.656600
-6.707700 0.662800
-6.690100 0.668900
-6.672400 0.675500
-6.654800 0.682600
-6.637200 0.689800
-6.619600 0.697200
-6.602000 0.704600
-6.584300 0.712200
-6.566700 0.719900
-6.549100 0.727800
-6.531500 0.735800
-6.513900 0.744000
-6.496300 0.752900
-6.478600 0.761300
-6.461000 0.769200
-6.443400 0.776700
-6.425800 0.783500
-6.408200 0.789400
-6.390500 0.794400
-6.372900 0.798300
-6.355300 0.801300
-6.337700 0.805600
-6.320100 0.810900
-6.302400 0.816000
-6.284800 0.821000
-6.267200 0.825800
-6.249600 0.830500
-6.232000 0.835000
-6.214400 0.839500
-6.196700 0.843700
-6.179100 0.848200
-6.161500 0.854000
-6.143900 0.860400
-6.126300 0.867400
-6.108600 0.875000
-6.091000 0.882700
-6.073400 0.890600
-6.055800 0.898900
-6.038200 0.907700
-6.020500 0.917000
-6.002900 0.923000
-5.985300 0.932000
-5.967700 0.941400
-5.950100 0.951200
-5.932500 0.961300
-5.914800 0.971800
-5.897200 0.982700
-5.879600 0.993900
-5.862000 1.005500
-5.844400 1.030500
-5.826700 1.041600
-5.809100 1.053100
-5.791500 1.065000
-5.773900 1.077100
-5.756300 1.090000
-5.738600 1.105600
-5.721000 1.124500
-5.703400 1.146500
-5.685800 1.171700
-5.668200 1.209800
-5.650600 1.208500
-5.632900 1.205300
-5.615300 1.200400
-5.597700 1.193600
-5.580100 1.185000
-5.562500 1.174600
-5.544800 1.162300
-5.527200 1.148200
-5.509600 1.147500
-5.492000 1.116500
-5.474400 1.085000
-5.456800 1.053200
-5.439100 1.021000
-5.421500 0.991300
-5.403900 0.969400
-5.386300 0.954900
-5.368700 0.947800
-5.351000 0.948000
-5.333400 0.949200
-5.315800 0.951400
-5.298200 0.954500
-5.280600 0.958400
-5.262900 0.963200
-5.245300 0.968800
-5.227700 0.975200
-5.210100 0.982500
-5.192500 0.990700
-5.174900 1.135200
-5.157200 1.103200
-5.139600 1.073400
-5.122000 1.045800
-5.104400 1.020400
-5.086800 1.001000
-5.069100 0.988900
-5.051500 0.984000
-5.033900 0.986100
-5.016300 0.995200
-4.998700 0.982900
-4.981000 1.011700
-4.963400 1.041900
-4.945800 1.073400
-4.928200 1.106200
-4.910600 1.140500
-4.893000 1.176000
-4.875300 1.213000
-4.857700 1.251200
-4.840100 1.246900
-4.822500 1.254300
-4.804900 1.261000
-4.787200 1.267000
-4.769600 1.272500
-4.752000 1.275000
-4.734400 1.272000
-4.716800 1.263600
-4.699200 1.249800
-4.681500 1.221100
-4.663900 1.235400
-4.646300 1.248700
-4.628700 1.260800
-4.611100 1.271900
-4.593400 1.282000
-4.575800 1.290900
-4.558200 1.298800
-4.540600 1.305500
-4.523000 1.311200
-4.505300 1.310600
-4.487700 1.307800
-4.470100 1.304500
-4.452500 1.300600
-4.434900 1.296200
-4.417300 1.298600
-4.399600 1.335000
-4.382000 1.408000
-4.364400 1.517600
-4.346800 1.450100
-4.329200 1.366200
-4.311500 1.365000
-4.293900 1.364400
-4.276300 1.364600
-4.258700 1.365400
-4.241100 1.367000
-4.223400 1.369200
-4.205800 1.372200
-4.188200 1.419500
-4.170600 1.391900
-4.153000 1.376000
-4.135400 1.354100
-4.117700 1.326200
-4.100100 1.325700
-4.082500 1.355600
-4.064900 1.378700
-4.047300 1.394800
-4.029600 1.403900
-4.012000 1.385300
-3.994400 1.384700
-3.976800 1.384500
-3.959200 1.384900
-3.941600 1.385700
-3.923900 1.386900
-3.906300 1.388700
-3.888700 1.390900
-3.871100 1.393600
-3.853500 1.393700
-3.835800 1.368200
-3.818200 1.372500
-3.800600 1.377100
-3.783000 1.381800
-3.765400 1.390800
-3.747700 1.398100
-3.730100 1.405000
-3.712500 1.411400
-3.694900 1.417600
-3.677300 1.423100
-3.659700 1.428000
-3.642000 1.432600
-3.624400 1.436800
-3.606800 1.440500
-3.589200 1.443900
-3.571600 1.446900
-3.553900 1.449500
-3.536300 1.451700
-3.518700 1.595800
-3.501100 1.590600
-3.483500 1.586200
-3.465800 1.582600
-3.448200 1.580000
-3.430600 1.580800
-3.413000 1.579500
-3.395400 1.573600
-3.377800 1.563000
-3.360100 1.592800
-3.342500 1.587000
-3.324900 1.599800
-3.307300 1.614300
-3.289700 1.630600
-3.272000 1.648800
-3.254400 1.668800
-3.236800 1.690500
-3.219200 1.714100
-3.201600 1.739500
-3.184000 1.653600
-3.166300 1.646600
-3.148700 1.640000
-3.131100 1.633700
-3.113500 1.629400
-3.095900 1.625300
-3.078200 1.620200
-3.060600 1.611400
-3.043000 1.599100
-3.025400 1.587600
-3.007800 1.587200
-2.990100 1.587400
-2.972500 1.588000
-2.954900 1.589300
-2.937300 1.591000
-2.919700 1.593300
-2.902100 1.596100
-2.884400 1.599400
-2.866800 1.604800
-2.849200 1.615000
-2.831600 1.624300
-2.814000 1.632600
-2.796300 1.640000
-2.778700 1.644000
-2.761100 1.645400
-2.743500 1.645800
-2.725900 1.649700
-2.708200 1.650700
-2.690600 1.660700
-2.673000 1.650100
-2.655400 1.647700
-2.637800 1.645400
-2.620200 1.643100
-2.602500 1.640900
-2.584900 1.638700
-2.567300 1.636500
-2.549700 1.634400
-2.532100 1.694200
-2.514400 1.701900
-2.496800 1.703000
-2.479200 1.697800
-2.461600 1.686600
-2.444000 1.718000
-2.426400 1.756000
-2.408700 1.787500
-2.391100 1.827800
-2.373500 1.792400
-2.355900 1.806400
-2.338300 1.820900
-2.320600 1.836000
-2.303000 1.851600
-2.285400 1.867900
-2.267800 1.884900
-2.250200 1.902500
-2.232500 1.929900
-2.214900 1.939400
-2.197300 1.948200
-2.179700 1.959200
-2.162100 1.977000
-2.144500 2.010700
-2.126800 2.044700
-2.109200 2.085900
-2.091600 2.130400
-2.074000 2.170600
-2.056400 2.209300
-2.038700 2.246500
-2.021100 2.282200
-2.003500 2.316400
-1.985900 2.349200
-1.968300 2.380600
-1.950600 2.410500
-1.933000 2.438900
-1.915400 2.439300
-1.897800 2.464000
-1.880200 2.492900
-1.862600 2.521900
-1.844900 2.550500
-1.827300 2.577200
-1.809700 2.563700
-1.792100 2.551400
-1.774500 2.556900
-1.756800 2.567900
-1.739200 2.576500
-1.721600 2.579800
-1.704000 2.577700
-1.686400 2.570400
-1.668800 2.559500
-1.651100 2.549500
-1.633500 2.533100
-1.615900 2.513600
-1.598300 2.523300
-1.580700 2.498100
-1.563000 2.452200
-1.545400 2.387300
-1.527800 2.266900
-1.510200 2.123500
-1.492600 2.006300
-1.474900 1.910700
-1.457300 1.828200
-1.439700 1.764500
-1.422100 1.699100
-1.404500 1.612300
-1.386900 1.545000
-1.369200 1.485800
-1.351600 1.428300
-1.334000 1.361200
-1.316400 1.292300
-1.298800 1.230500
-1.281100 1.178400
-1.263500 1.145500
-1.245900 1.136900
-1.228300 1.130700
-1.210700 1.127000
-1.193000 1.125700
-1.175400 1.126800
-1.157800 1.130400
-1.140200 1.090100
-1.122600 1.085900
-1.105000 1.082900
-1.087300 1.081000
-1.069700 1.080200
-1.052100 1.074600
-1.034500 1.073300
-1.016900 1.073000
-0.999200 1.090700
-0.981600 1.113500
-0.964000 1.283400
-0.946400 1.192800
-0.928800 1.372800
-0.911200 1.136300
-0.893500 1.161900
-0.875900 1.202300
-0.858300 1.280200
-0.840700 1.367000
-0.823100 1.462500
-0.805400 1.574500
-0.787800 1.765100
-0.770200 1.841900
-0.752600 1.911100
-0.735000 1.941100
-0.717300 1.964900
-0.699700 1.982600
-0.682100 1.995700
-0.664500 2.017100
-0.646900 2.013500
-0.629300 1.986500
-0.611600 1.969500
-0.594000 1.949700
-0.576400 1.927500
-0.558800 1.893700
-0.541200 1.873600
-0.523500 1.817000
-0.505900 1.815400
-0.488300 1.825800
-0.470700 1.822000
-0.453100 1.808700
-0.435400 1.773800
-0.417800 1.744300
-0.400200 1.713200
-0.382600 1.688000
-0.365000 1.669700
-0.347400 1.682400
-0.329700 1.696400
-0.312100 1.732400
-0.294500 1.749200
-0.276900 1.767100
-0.259300 1.787000
-0.241600 1.807000
-0.224000 1.833700
-0.206400 1.864900
-0.188800 1.898700
-0.171200 1.935800
-0.153600 1.978200
-0.135900 2.030900
-0.118300 2.097800
-0.100700 2.171700
-0.083100 2.250100
-0.065500 2.337800
-0.047800 2.437400
-0.030200 2.549600
-0.012600 2.654100
0.005000 2.716900
0.022600 2.765100
0.040300 2.797300
0.057900 2.823000
0.075500 2.841200
0.093100 2.850100
0.110700 2.844400
0.128300 2.818100
0.146000 2.792900
0.163600 2.758800
0.181200 2.795000
0.198800 2.779800
0.216400 2.698100
0.234100 3.301400
0.251700 2.056700
0.269300 1.943900
0.286900 1.855600
0.304500 1.771900
0.322200 1.640700
0.339800 1.576900
0.357400 1.514800
0.375000 1.411500
0.392600 1.387300
0.410200 1.368600
0.427900 1.345900
0.445500 1.319200
0.463100 1.288400
0.480700 1.260900
0.498300 1.229800
0.516000 1.201600
0.533600 1.176200
0.551200 1.156000
0.568800 1.118200
0.586400 1.109100
0.604100 1.100500
0.621700 1.094500
0.639300 1.090200
0.656900 1.087800
0.674500 1.087200
0.692100 1.087300
0.709800 1.104200
0.727400 1.123900
0.745000 1.154100
0.762600 1.188200
0.780200 1.221400
0.797900 1.271400
0.815500 1.331600
0.833100 1.565400
0.850700 1.667000
0.868300 1.765100
0.885900 1.860100
0.903600 1.951600
0.921200 2.039000
0.938800 2.154500
0.956400 2.219600
0.974000 2.275800
0.991700 2.323200
1.009300 2.361700
1.026900 2.391400
1.044500 2.415900
1.062100 2.381100
1.079800 2.364000
1.097400 2.347800
1.115000 2.361300
1.132600 2.347000
1.150200 2.333300
1.167800 2.319400
1.185500 2.302500
1.203100 2.283300
1.220700 2.261900
1.238300 2.238200
1.255900 2.212600
1.273600 2.186900
1.291200 2.193700
1.308800 2.162900
1.326400 2.091600
1.344000 2.081800
1.361700 2.225800
1.379300 2.354500
1.396900 2.466700
1.414500 2.688500
1.432100 2.739500
1.449700 2.482700
1.467400 2.371500
1.485000 2.126200
1.502600 2.116800
1.520200 2.105400
1.537800 2.094100
1.555500 2.084400
1.573100 2.077300
1.590700 2.070600
1.608300 2.382000
1.625900 2.279700
1.643500 1.995500
1.661200 1.947700
1.678800 1.923700
1.696400 1.925500
1.714000 1.931500
1.731600 1.941400
1.749300 1.958800
1.766900 1.970000
1.784500 1.983200
1.802100 1.998500
1.819700 2.015700
1.837400 2.173600
1.855000 2.241600
1.872600 2.322100
1.890200 2.410300
1.907800 2.497100
1.925400 2.565000
1.943100 2.616200
1.960700 2.650800
1.978300 2.621000
1.995900 2.604100
2.013500 2.592400
2.031200 2.566900
2.048800 2.533500
2.066400 2.447100
2.084000 2.440500
2.101600 2.434800
2.119300 2.430200
2.136900 2.447800
2.154500 2.447300
2.172100 2.447000
2.189700 2.446900
2.207300 2.448100
2.225000 2.511000
2.242600 2.610500
2.260200 2.647400
2.277800 2.666000
2.295400 2.663000
2.313100 2.655200
2.330700 2.642700
2.348300 2.632700
2.365900 2.588600
2.383500 2.588200
2.401100 2.590400
2.418800 2.595100
2.436400 2.602500
2.454000 2.691900
2.471600 2.689200
2.489200 2.660600
2.506900 2.616500
2.524500 2.565300
2.542100 2.729600
2.559700 2.768700
2.577300 2.547400
2.595000 2.425100
2.612600 2.319900
2.630200 2.233800
2.647800 2.158600
2.665400 2.041500
2.683000 1.966100
2.700700 1.931300
2.718300 1.910500
2.735900 1.916200
2.753500 1.929300
2.771100 1.933000
2.788800 1.920000
2.806400 1.884600
2.824000 1.988600
2.841600 1.990800
2.859200 2.006800
2.876900 2.051300
2.894500 2.094800
2.912100 2.126600
2.929700 2.143600
2.947300 2.110400
2.964900 2.047600
2.982600 2.072100
3.000200 2.102100
3.017800 2.130300
3.035400 2.137800
3.053000 2.166200
3.070700 2.194000
3.088300 2.230600
3.105900 2.301700
3.123500 2.407700
3.141100 2.467000
3.158700 2.525300
3.176400 2.586200
3.194000 2.632300
3.211600 2.707800
3.229200 2.761200
3.246800 2.807000
3.264500 2.876300
3.282100 2.962400
3.299700 3.025700
3.317300 3.120400
3.334900 3.324600
3.352600 3.222100
3.370200 3.181200
3.387800 3.120800
3.405400 3.040900
3.423000 2.764200
3.440600 2.715600
3.458300 2.660800
3.475900 2.599500
3.493500 2.523300
3.511100 2.413900
3.528700 2.343500
3.546400 2.347800
3.564000 2.351700
3.581600 2.488900
3.599200 2.335300
3.616800 2.324900
3.634500 2.315900
3.652100 2.308300
3.669700 2.317300
3.687300 2.318200
3.704900 2.308500
3.722500 2.297800
3.740200 2.286100
3.757800 2.269000
3.775400 2.263000
3.793000 2.204700
3.810600 2.188500
3.828300 2.172500
3.845900 2.156700
3.863500 2.141100
3.881100 2.125800
3.898700 2.113100
3.916300 2.096500
3.934000 2.108000
3.951600 2.119800
3.969200 2.132000
3.986800 2.144600
4.004400 2.159700
4.022100 2.185900
4.039700 2.187000
4.057300 2.197000
4.074900 2.207400
4.092500 2.222000
4.110200 2.270200
4.127800 2.349600
4.145400 2.448000
4.163000 2.484400
4.180600 2.519500
4.198200 2.553400
4.215900 2.663100
4.233500 2.603600
4.251100 2.585800
4.268700 2.712900
4.286300 2.795800
4.304000 2.957200
4.321600 3.061800
4.339200 3.153900
4.356800 3.241100
4.374400 3.117900
4.392100 3.124100
4.409700 3.110200
4.427300 3.006700
4.444900 2.949100
4.462500 2.864800
4.480100 2.831100
4.497800 2.778000
4.515400 2.776500
4.533000 2.777100
4.550600 2.780000
4.568200 2.786400
4.585900 2.804100
4.603500 2.780000
4.621100 2.750600
4.638700 2.908300
4.656300 2.805300
4.673900 2.716200
4.691600 2.640600
4.709200 2.578000
4.726800 2.529700
4.744400 2.496400
4.762000 2.570900
4.779700 2.571800
4.797300 2.607000
4.814900 2.639400
4.832500 2.624400
4.850100 2.562800
4.867800 2.513000
4.885400 2.460500
4.903000 2.405400
4.920600 2.347700
4.938200 2.288500
4.955800 2.246500
4.973500 2.208400
4.991100 2.171500
5.008700 2.135700
5.026300 2.100900
5.043900 2.067300
5.061600 2.034700
5.079200 2.003900
5.096800 1.974700
5.114400 1.915500
5.132000 1.906300
5.149700 1.936000
5.167300 1.966900
5.184900 1.992300
5.202500 2.021400
5.220100 2.076700
5.237700 2.205700
5.255400 2.409700
5.273000 2.539700
5.290600 2.194800
5.308200 2.123900
5.325800 2.093600
5.343500 2.094700
5.361100 2.104400
5.378700 2.118300
5.396300 2.134300
5.413900 2.152400
5.431500 2.174200
5.449200 2.198100
5.466800 2.220300
5.484400 2.247600
5.502000 2.276800
5.519600 2.306500
5.537300 2.336800
5.554900 2.367600
5.572500 2.399000
5.590100 2.465800
5.607700 2.531000
5.625400 2.593300
5.643000 2.646500
5.660600 2.666400
5.678200 2.688800
5.695800 2.870700
5.713400 2.960400
5.731100 2.988300
5.748700 2.690000
5.766300 2.662900
5.783900 2.643100
5.801500 2.840700
5.819200 2.912500
5.836800 2.947500
5.854400 3.000900
5.872000 3.046900
5.889600 3.090500
5.907300 3.121100
5.924900 3.107800
5.942500 3.201400
5.960100 3.359000
5.977700 3.525600
5.995300 3.700900
6.013000 3.874400
6.030600 3.894100
6.048200 3.878400
6.065800 3.827400
6.083400 3.787300
6.101100 3.678900
6.118700 3.532500
6.136300 3.352200
6.153900 3.238400
6.171500 3.149500
6.189200 3.083200
6.206800 3.078900
6.224400 3.162100
6.242000 3.199700
6.259600 3.191100
6.277200 3.175700
6.294900 3.131300
6.312500 3.104700
6.330100 3.069900
6.347700 3.034800
6.365300 3.001000
6.383000 2.993300
6.400600 3.000400
6.418200 3.013100
6.435800 3.029100
6.453400 3.048600
6.471000 3.073100
6.488700 3.106400
6.506300 3.159900
6.523900 3.221100
6.541500 3.293600
6.559100 3.377100
6.576800 3.485400
6.594400 3.592000
6.612000 3.560600
6.629600 3.725700
6.647200 3.881500
6.664900 4.001200
6.682500 4.019000
6.700100 4.001100
6.717700 4.725900
6.735300 4.135700
6.752900 3.708900
6.770600 3.446100
6.788200 3.216500
6.805800 3.004500
6.823400 2.850900
6.841000 2.782500
6.858700 2.740000
6.876300 2.699400
6.893900 2.671600
6.911500 2.658300
6.929100 2.645800
6.946800 2.621800
6.964400 2.581200
6.982000 2.536200
6.999600 2.491100
7.017200 2.464000
7.034800 2.429000
7.052500 2.393700
7.070100 2.370800
7.087700 2.366000
7.105300 2.351200
7.122900 2.342300
7.140600 2.257400
7.158200 2.211600
7.175800 2.197400
7.193400 2.184700
7.211000 2.173500
7.228600 2.185800
7.246300 2.176100
7.263900 2.166400
7.281500 2.156600
7.299100 2.146900
7.316700 2.137100
7.334400 2.147700
7.352000 2.150600
7.369600 2.154300
7.387200 2.158600
7.404800 2.163600
7.422500 2.163600
7.440100 2.186500
7.457700 2.485100
7.475300 2.270600
7.492900 2.180000
7.510500 2.079700
7.528200 2.138300
7.545800 2.261100
7.563400 2.360600
7.581000 2.347300
7.598600 2.418300
7.616300 2.482100
7.633900 2.546400
7.651500 2.603800
7.669100 2.682600
7.686700 2.788500
7.704400 2.918900
7.722000 3.063300
7.739600 3.476900
7.757200 3.186000
7.774800 2.875100
7.792400 2.798200
7.810100 2.736600
7.827700 2.752200
7.845300 2.889100
7.862900 2.770900
7.880500 2.728700
7.898200 2.680600
7.915800 2.629200
7.933400 2.589100
7.951000 2.614800
7.968600 2.604800
7.986200 2.591200
8.003900 2.618600
8.021500 2.633400
8.039100 2.659500
8.056700 2.686200
8.074300 2.962500
8.092000 2.567500
8.109600 2.460500
8.127200 2.365300
8.144800 2.283600
8.162400 2.234000
8.180100 2.218800
8.197700 2.194600
8.215300 2.157700
8.232900 2.129100
8.250500 2.091600
8.268100 2.092700
8.285800 2.149900
8.303400 2.180000
8.321000 2.214800
8.338600 2.254200
8.356200 2.339200
8.373900 2.429800
8.391500 2.544600
8.409100 2.651000
8.426700 2.708300
8.444300 2.778800
8.462000 2.844200
8.479600 3.087600
8.497200 3.412000
8.514800 3.469000
8.532400 3.501500
8.550000 3.513100
8.567700 3.456400
8.585300 3.297700
8.602900 3.428100
8.620500 3.452800
8.638100 3.210000
8.655800 3.108200
8.673400 2.987800
8.691000 2.909100
8.708600 2.839400
8.726200 2.778500
8.743800 3.111400
8.761500 2.983200
8.779100 2.849400
8.796700 2.731600
8.814300 2.632400
8.831900 2.557900
8.849600 2.524300
8.867200 2.493000
8.884800 2.465700
8.902400 2.479200
8.920000 2.488800
8.937700 2.518000
8.955300 2.558300
8.972900 2.652400
8.990500 2.608900
9.008100 2.747500
9.025700 3.133100
9.043400 3.591900
9.061000 3.948100
9.078600 4.202300
9.096200 4.310400
9.113800 4.342600
9.131500 4.294200
9.149100 3.962000
9.166700 3.635500
9.184300 3.510200
9.201900 3.349200
9.219600 3.228200
9.237200 3.137800
9.254800 3.061600
9.272400 2.992900
9.290000 2.928800
9.307600 2.861100
9.325300 2.823400
9.342900 2.803800
9.360500 2.784500
9.378100 2.765600
9.395700 2.746800
9.413400 2.727000
9.431000 2.705500
9.448600 2.796000
9.466200 2.736200
9.483800 2.672500
9.501400 2.615200
9.519100 2.612400
9.536700 2.620600
9.554300 2.640100
9.571900 2.675100
9.589500 2.707800
9.607200 2.851500
9.624800 2.986200
9.642400 3.243600
9.660000 3.363000
9.677600 3.474500
9.695300 3.607500
9.712900 3.682700
9.730500 3.772600
9.748100 3.774200
9.765700 3.707700
9.783300 3.631600
9.801000 3.610000
9.818600 3.594400
9.836200 3.559900
9.853800 3.704400
9.871400 3.683400
9.889100 3.613100
9.906700 3.493600
9.924300 3.179100
9.941900 3.099900
9.959500 3.041300
9.977200 2.940500
9.994800 2.886500
10.012400 2.830100
10.030000 2.849000
10.047600 2.805000
10.065200 2.752400
10.082900 2.718200
10.100500 2.701600
10.118100 2.686800
10.135700 2.700400
10.153300 2.715900
10.171000 2.735200
10.188600 2.756800
10.206200 2.780800
10.223800 2.808200
10.241400 2.838300
10.259000 2.871100
10.276700 2.906700
10.294300 2.945000
10.311900 3.045200
10.329500 3.076000
10.347100 3.112000
10.364800 3.153600
10.382400 3.268100
10.400000 3.343500
10.417600 3.431500
10.435200 3.596000
10.452900 3.972500
10.470500 4.012300
10.488100 3.787800
10.505700 3.616900
10.523300 3.464100
10.540900 3.429300
10.558600 3.405500
10.576200 3.320000
10.593800 3.397700
10.611400 3.062600
10.629000 2.983800
10.646700 3.506300
10.664300 2.817000
10.681900 2.695700
10.699500 2.658800
10.717100 2.591700
10.734800 2.530500
10.752400 2.540000
10.770000 2.574800
10.787600 2.660200
10.805200 2.761600
10.822800 3.010600
10.840500 3.309400
10.858100 3.432100
10.875700 3.526800
10.893300 3.606100
10.910900 3.682000
10.928600 3.714100
10.946200 3.739500
10.963800 3.758200
10.981400 3.767600
10.999000 3.803100
11.016600 3.823500
11.034300 3.825100
11.051900 3.968200
11.069500 3.899300
11.087100 3.732900
11.104700 3.495700
11.122400 3.357000
11.140000 3.216200
11.157600 3.097700
11.175200 3.017000
11.192800 3.006900
11.210500 2.970800
11.228100 2.944900
11.245700 2.924700
11.263300 2.912300
11.280900 2.914400
11.298500 2.962300
11.316200 3.006500
11.333800 2.974400
11.351400 2.997300
11.369000 3.048000
11.386600 3.121900
11.404300 3.273300
11.421900 3.282800
11.439500 3.352100
11.457100 3.335700
11.474700 3.334900
11.492400 3.355900
11.510000 3.373200
11.527600 3.378400
11.545200 3.314900
11.562800 3.248100
11.580400 3.204400
11.598100 3.160400
11.615700 3.106300
11.633300 3.041900
11.650900 2.967900
11.668500 2.954800
11.686200 2.974200
11.703800 2.989000
11.721400 3.053100
11.739000 3.385400
11.756600 2.792000
11.774200 2.767300
11.791900 2.709200
11.809500 2.667400
11.827100 2.628500
11.844700 2.593300
11.862300 2.562500
11.880000 2.536200
11.897600 2.514300
11.915200 2.551900
11.932800 2.947100
11.950400 2.744200
11.968100 2.786000
11.985700 2.876900
12.003300 2.882400
12.020900 2.995700
12.038500 3.129800
12.056100 3.238500
12.073800 3.334600
12.091400 3.422000
12.109000 3.500600
12.126600 3.575100
12.144200 3.703700
12.161900 4.033400
12.179500 4.144700
12.197100 4.176500
12.214700 4.106300
12.232300 5.540400
12.250000 4.208700
12.267600 4.222500
12.285200 4.458200
12.302800 4.453000
12.320400 4.360600
12.338000 4.297100
12.355700 4.464600
12.373300 4.095800
12.390900 4.053800
12.408500 4.016900
12.426100 3.989300
12.443800 4.221300
12.461400 4.218800
12.479000 4.145600
12.496600 4.103200
12.514200 4.037800
12.531900 3.947600
12.549500 3.879700
12.567100 3.625300
12.584700 3.593700
12.602300 3.617300
12.619900 3.566300
12.637600 3.716800
12.655200 3.296100
12.672800 3.238300
12.690400 3.182700
12.708000 3.128600
12.725700 3.078600
12.743300 3.033200
12.760900 3.007900
12.778500 3.102300
12.796100 3.140500
12.813700 3.182200
12.831400 3.229300
12.849000 3.307400
12.866600 3.264300
12.884200 3.207600
12.901800 3.132700
12.919500 3.052800
12.937100 2.922500
12.954700 2.873100
12.972300 2.791300
12.989900 2.763200
13.007600 2.782300
13.025200 2.850400
13.042800 2.829100
13.060400 2.843500
13.078000 2.944400
13.095600 2.960100
13.113300 2.977700
13.130900 2.997100
13.148500 3.045500
13.166100 3.030700
13.183700 3.047700
13.201400 3.064000
13.219000 3.079700
13.236600 3.095000
13.254200 3.133800
13.271800 3.168800
13.289500 3.165600
13.307100 3.283600
13.324700 3.409700
13.342300 3.556500
13.359900 3.702500
13.377500 3.855100
13.395200 4.239300
13.412800 4.382900
13.430400 4.395500
13.448000 4.344300
13.465600 4.384200
13.483300 4.396900
13.500900 4.249400
13.518500 4.024500
13.536100 3.968400
13.553700 3.936200
13.571300 4.076600
13.589000 3.873000
13.606600 3.869800
13.624200 3.871100
13.641800 3.962600
13.659400 4.043800
13.677100 4.274500
13.694700 4.412100
13.712300 4.447300
13.729900 4.440900
13.747500 4.394200
13.765200 4.366100
13.782800 4.297800
13.800400 4.071400
13.818000 3.804500
13.835600 3.533200
13.853200 3.345300
13.870900 3.360100
13.888500 3.459000
13.906100 3.338900
13.923700 3.187900
13.941300 3.018700
13.959000 2.823200
13.976600 2.750700
13.994200 2.752300
14.011800 2.756400
14.029400 2.736400
14.047100 2.784300
14.064700 2.777300
14.082300 2.779900
14.099900 2.895200
14.117500 2.923600
14.135100 2.926900
14.152800 2.985200
14.170400 3.083000
14.188000 3.169500
14.205600 3.728200
14.223200 3.757000
14.240900 3.825000
14.258500 3.910400
14.276100 3.921200
14.293700 3.904500
14.311300 4.109800
14.328900 3.998400
14.346600 3.833100
14.364200 3.653700
14.381800 3.346900
14.399400 3.015500
14.417000 2.708000
14.434700 2.429400
14.452300 2.193400
14.469900 1.999000
14.487500 1.904500
14.505100 1.867100
14.522800 1.862100
14.540400 1.856500
14.558000 1.853700
14.575600 1.853700
14.593200 1.856500
14.610800 1.862000
14.628500 1.988900
14.646100 1.908500
14.663700 1.940400
14.681300 2.067100
14.698900 2.213900
14.716600 2.295300
14.734200 2.377900
14.751800 2.437600
14.769400 2.490800
14.787000 2.537700
14.804700 2.578300
14.822300 2.706300
14.839900 2.698900
14.857500 2.691300
14.875100 2.637300
14.892700 2.603900
14.910400 2.480000
14.928000 2.354600
14.945600 1.918400
14.963200 1.942300
14.980800 1.927300
14.998500 1.900400
15.016100 1.875000
15.033700 1.851200
15.051300 1.831700
15.068900 1.829000
15.086500 1.813100
15.104200 1.708200
15.121800 1.691200
15.139400 1.769700
15.157000 1.835500
15.174600 1.910000
15.192300 2.046900
15.209900 2.143600
15.227500 2.240500
15.245100 2.269100
15.262700 2.364700
15.280400 2.462900
15.298000 2.598300
15.315600 2.721600
15.333200 2.814700
15.350800 2.922600
15.368400 3.042500
15.386100 3.136000
15.403700 3.190800
15.421300 3.249900
15.438900 3.301700
15.456500 3.346000
15.474200 3.375400
15.491800 3.385900
15.509400 3.349500
15.527000 3.320300
15.544600 3.322600
15.562300 3.318300
15.579900 3.309000
15.597500 3.316800
15.615100 3.263600
15.632700 3.312000
15.650300 3.349200
15.668000 3.754300
15.685600 3.470800
15.703200 3.424300
15.720800 3.383700
15.738400 3.357300
15.756100 3.405900
15.773700 3.292600
15.791300 3.195700
15.808900 3.130400
15.826500 3.073800
15.844100 3.029500
15.861800 2.999700
15.879400 2.984400
15.897000 2.989300
15.914600 2.992800
15.932200 3.037900
15.949900 2.975400
15.967500 2.965200
15.985100 2.957500
16.002700 2.953700
16.020300 2.963600
16.038000 2.966600
16.055600 2.979800
16.073200 3.054800
16.090800 3.148800
16.108400 3.257400
16.126000 3.410000
16.143700 3.607100
16.161300 3.977800
16.178900 4.114400
16.196500 4.452200
16.214100 4.477500
16.231800 4.252600
16.249400 4.132200
16.267000 3.907500
16.284600 3.838200
16.302200 3.730500
16.319900 3.673600
16.337500 3.706800
16.355100 3.411300
16.372700 3.520400
16.390300 3.464900
16.407900 3.364200
16.425600 3.218300
16.443200 3.043100
16.460800 2.912900
16.478400 2.820300
16.496000 2.744300
16.513700 2.787500
16.531300 2.666600
16.548900 2.619600
16.566500 2.591200
16.584100 2.562700
16.601700 2.524900
16.619400 2.590800
16.637000 2.704600
16.654600 2.861800
16.672200 3.008000
16.689800 3.179200
16.707500 3.221700
16.725100 3.280000
16.742700 3.317000
16.760300 3.404300
16.777900 3.510600
16.795600 3.598100
16.813200 3.620400
16.830800 3.597200
16.848400 3.603700
16.866000 3.607800
16.883600 3.674400
16.901300 3.628300
16.918900 3.637300
16.936500 3.594300
16.954100 3.483000
16.971700 3.433100
16.989400 3.395600
17.007000 3.365800
17.024600 3.339500
17.042200 3.309800
17.059800 3.282000
17.077500 3.253300
17.095100 3.239800
17.112700 3.465600
17.130300 3.377600
17.147900 3.356400
17.165500 3.236800
17.183200 3.290100
17.200800 3.347800
17.218400 3.372900
17.236000 3.398200
17.253600 3.414300
17.271300 3.412400
17.288900 3.401300
17.306500 3.389600
17.324100 3.360600
17.341700 3.348800
17.359300 3.570600
17.377000 3.720800
17.394600 3.713800
17.412200 4.013300
17.429800 4.098000
17.447400 4.166900
17.465100 4.223100
17.482700 4.526100
17.500300 4.562000
17.517900 5.565900
17.535500 5.989200
17.553200 4.705000
17.570800 4.520000
17.588400 4.351100
17.606000 4.196900
17.623600 4.052400
17.641200 3.982200
17.658900 3.891800
17.676500 3.903700
17.694100 3.921300
17.711700 3.943200
17.729300 3.965800
17.747000 4.117500
17.764600 4.118300
17.782200 3.925500
17.799800 3.910700
17.817400 3.839200
17.835100 4.879600
17.852700 4.083700
17.870300 3.221100
17.887900 3.183400
17.905500 3.146700
17.923100 3.111000
17.940800 3.076500
17.958400 3.080000
17.976000 3.079800
17.993600 3.033300
18.011200 2.983000
18.028900 2.950500
18.046500 2.924600
18.064100 2.906900
18.081700 2.896300
18.099300 3.265100
18.116900 3.371000
18.134600 3.391400
18.152200 3.326500
18.169800 3.188200
18.187400 3.000900
18.205000 2.777100
18.222700 2.643500
18.240300 2.851200
18.257900 3.015500
18.275500 3.144600
18.293100 3.218300
18.310800 3.276400
18.328400 3.371300
18.346000 3.414000
18.363600 3.373200
18.381200 3.204400
18.398800 3.125900
18.416500 3.094400
18.434100 3.068400
18.451700 3.048200
18.469300 3.039100
18.486900 3.035700
18.504600 3.034400
18.522200 3.515200
18.539800 3.723000
18.557400 3.954900
18.575000 3.256400
18.592700 3.254600
18.610300 3.311400
18.627900 3.334500
18.645500 3.261000
18.663100 3.297800
18.680700 3.332200
18.698400 3.335500
18.716000 3.431900
18.733600 3.419100
18.751200 3.191900
18.768800 2.936100
18.786500 2.922900
18.804100 2.802200
18.821700 2.818100
18.839300 3.141200
18.856900 3.416100
18.874600 3.630000
18.892200 3.823100
18.909800 3.870900
18.927400 3.904600
18.945000 3.847500
18.962600 3.838500
18.980300 3.770200
18.997900 4.404900
19.015500 3.713600
19.033100 3.731100
19.050700 3.710300
19.068400 3.713300
19.086000 3.720300
19.103600 3.728300
19.121200 3.737200
19.138800 3.681200
19.156400 3.701700
19.174100 3.824900
19.191700 3.871300
19.209300 3.925400
19.226900 4.031200
19.244500 4.028800
19.262200 4.029000
19.279800 3.868600
19.297400 3.851100
19.315000 3.815100
19.332600 3.747900
19.350300 3.687000
19.367900 3.755900
19.385500 3.786200
19.403100 3.805200
19.420700 3.816900
19.438300 3.860200
19.456000 3.800100
19.473600 3.736700
19.491200 3.872900
19.508800 4.034100
19.526400 4.114500
19.544100 4.537000
19.561700 2.881100
19.579300 2.621200
19.596900 2.378500
19.614500 2.401200
19.632200 1.765400
19.649800 1.548400
19.667400 1.422000
19.685000 1.313200
19.702600 1.208100
19.720200 1.112000
19.737900 1.025200
19.755500 0.947600
19.773100 0.878900
19.790700 0.814300
19.808300 0.752300
19.826000 0.694000
19.843600 0.639300
19.861200 0.588300
19.878800 0.541000
19.896400 0.496800
19.914000 0.454100
19.931700 0.409900
19.949300 0.360700
19.966900 0.314000
19.984500 0.270400
20.002100 0.230800
20.019800 0.163400
20.037400 0.133600
20.055000 0.113200
20.072600 0.094100
20.090200 0.076300
20.107900 0.059700
20.125500 0.044400
20.143100 0.030300
20.160700 0.020100
20.178300 0.017200
20.195900 0.014600
20.213600 0.012100
20.231200 0.009900
20.248800 0.008000
20.266400 0.006200
20.284000 0.004700
20.301700 0.003500
20.319300 0.002400
20.336900 0.001600
20.354500 0.001000
20.372100 0.000600
20.389800 0.000300
20.407400 0.000200
20.425000 0.000000
20.442600 0.000000
20.460200 0.000000
20.477800 0.000000
20.495500 0.000000
20.513100 0.000000
20.530700 0.000000
20.548300 0.000000
20.565900 0.000000
20.583600 0.000000
20.601200 0.000000
20.618800 0.000000
20.636400 0.000000
20.654000 0.000000
20.671600 0.000000
20.689300 0.000000
20.706900 0.000000
20.724500 0.000000
20.742100 0.000000
20.759700 0.000000
20.777400 0.000000
20.795000 0.000000
20.812600 0.000000
20.830200 0.000000
20.847800 0.000000
20.865500 0.000000
20.883100 0.000000
20.900700 0.000000
20.918300 0.000000
20.935900 0.000000
20.953500 0.000000
20.971200 0.000000
20.988800 0.000000
21.006400 0.000000
21.024000 0.000000
21.041600 0.000000
21.059300 0.000000
21.076900 0.000000
21.094500 0.000000
21.112100 0.000000
21.129700 0.000000
21.147400 0.000000
21.165000 0.000000
21.182600 0.000000
21.200200 0.000000
21.217800 0.000000
21.235400 0.000000
21.253100 0.000000
21.270700 0.000000
21.288300 0.000000
21.305900 0.000000
21.323500 0.000000
21.341200 0.000000
21.358800 0.000000
21.376400 0.000000
21.394000 0.000000
21.411600 0.000000
21.429200 0.000000
21.446900 0.000000
21.464500 0.000000
21.482100 0.000000
21.499700 0.000000
21.517300 0.000000
21.535000 0.000000
21.552600 0.000000
21.570200 0.000000
21.587800 0.000000
21.605400 0.000000
21.623100 0.000000
21.640700 0.000000
21.658300 0.000000
21.675900 0.000000
21.693500 0.000000
21.711100 0.000000
21.728800 0.000000
21.746400 0.000000
21.764000 0.000000
21.781600 0.000000
21.799200 0.000000
21.816900 0.000000
21.834500 0.000000
21.852100 0.000000
21.869700 0.000000
21.887300 0.000000
21.905000 0.000000
21.922600 0.000000
21.940200 0.000000
21.957800 0.000000
21.975400 0.000000
21.993000 0.000000
22.010700 0.000000
22.028300 0.000000
22.045900 0.000000
e
