set title 'mp-1219457 - Density of States'
set xlabel 'Energy (eV)'
set ylabel 'DOS (states/eV)'
set grid
set xrange [-10:10]
set yrange [0:2.185]
set xzeroaxis lt -1
set terminal png size 800,600
set output 'mp-1219457_dos_gnuplot.png'
plot '-' using 1:2 with lines title 'DOS'
-10.087300 0.000000
-10.057600 0.000000
-10.027900 0.000000
-9.998300 0.000000
-9.968600 0.000000
-9.938900 0.000000
-9.909300 0.000000
-9.879600 0.000000
-9.849900 0.000000
-9.820300 0.000000
-9.790600 0.000000
-9.761000 0.000000
-9.731300 0.000000
-9.701600 0.000000
-9.672000 0.000000
-9.642300 0.000000
-9.612600 0.000000
-9.583000 0.000000
-9.553300 0.000000
-9.523600 0.000000
-9.494000 0.000000
-9.464300 0.000000
-9.434600 0.000000
-9.405000 0.000000
-9.375300 0.000000
-9.345700 0.000000
-9.316000 0.000000
-9.286300 0.000000
-9.256700 0.000000
-9.227000 0.000000
-9.197300 0.000000
-9.167700 0.000000
-9.138000 0.000000
-9.108300 0.000000
-9.078700 0.000000
-9.049000 0.000000
-9.019300 0.000000
-8.989700 0.000000
-8.960000 0.000000
-8.930400 0.000000
-8.900700 0.000000
-8.871000 0.000000
-8.841400 0.000000
-8.811700 0.000000
-8.782000 0.000000
-8.752400 0.000000
-8.722700 0.000000
-8.693000 0.000000
-8.663400 0.000000
-8.633700 0.000000
-8.604000 0.000000
-8.574400 0.000000
-8.544700 0.000000
-8.515100 0.000000
-8.485400 0.000000
-8.455700 0.000000
-8.426100 0.000000
-8.396400 0.000000
-8.366700 0.000000
-8.337100 0.000000
-8.307400 0.000000
-8.277700 0.000000
-8.248100 0.000000
-8.218400 0.000000
-8.188700 0.000000
-8.159100 0.000000
-8.129400 0.000000
-8.099800 0.000000
-8.070100 0.000000
-8.040400 0.000000
-8.010800 0.000000
-7.981100 0.000000
-7.951400 0.000000
-7.921800 0.000000
-7.892100 0.000000
-7.862400 0.000000
-7.832800 0.000000
-7.803100 0.000000
-7.773400 0.000000
-7.743800 0.000000
-7.714100 0.000000
-7.684500 0.000000
-7.654800 0.000000
-7.625100 0.000000
-7.595500 0.000000
-7.565800 0.000000
-7.536100 0.000000
-7.506500 0.000000
-7.476800 0.000000
-7.447100 0.000000
-7.417500 0.000000
-7.387800 0.000300
-7.358100 0.036700
-7.328500 0.121700
-7.298800 0.124600
-7.269200 0.150900
-7.239500 0.179400
-7.209800 0.204300
-7.180200 0.221100
-7.150500 0.233000
-7.120800 0.247300
-7.091200 0.264400
-7.061500 0.281900
-7.031800 0.297400
-7.002200 0.311400
-6.972500 0.327100
-6.942800 0.338500
-6.913200 0.351000
-6.883500 0.363300
-6.853900 0.375800
-6.824200 0.389100
-6.794500 0.401700
-6.764900 0.414800
-6.735200 0.428000
-6.705500 0.441300
-6.675900 0.455100
-6.646200 0.468200
-6.616500 0.479800
-6.586900 0.492100
-6.557200 0.505000
-6.527500 0.518100
-6.497900 0.531500
-6.468200 0.545600
-6.438600 0.560100
-6.408900 0.575100
-6.379200 0.590800
-6.349600 0.607000
-6.319900 0.623800
-6.290200 0.641000
-6.260600 0.657800
-6.230900 0.675400
-6.201200 0.699000
-6.171600 0.727900
-6.141900 0.761800
-6.112200 0.815800
-6.082600 0.831700
-6.052900 0.827200
-6.023300 0.844900
-5.993600 0.858500
-5.963900 0.857000
-5.934300 0.860800
-5.904600 0.872900
-5.874900 0.885300
-5.845300 0.895600
-5.815600 0.905000
-5.785900 0.914000
-5.756300 0.924100
-5.726600 0.937300
-5.696900 0.950800
-5.667300 0.968100
-5.637600 0.986600
-5.608000 1.006400
-5.578300 1.027600
-5.548600 1.048100
-5.519000 1.071200
-5.489300 1.099700
-5.459600 1.131900
-5.430000 1.170800
-5.400300 1.218300
-5.370600 1.276900
-5.341000 1.373200
-5.311300 1.463400
-5.281600 1.578100
-5.252000 1.662400
-5.222300 1.773300
-5.192700 1.845300
-5.163000 1.894500
-5.133300 1.964800
-5.103700 1.663500
-5.074000 1.397000
-5.044300 1.300800
-5.014700 1.144200
-4.985000 1.044500
-4.955300 1.081200
-4.925700 1.019700
-4.896000 0.891100
-4.866300 0.788200
-4.836700 0.578700
-4.807000 0.140600
-4.777400 0.000000
-4.747700 0.000000
-4.718000 0.000000
-4.688400 0.000000
-4.658700 0.000000
-4.629000 0.000000
-4.599400 0.000000
-4.569700 0.000000
-4.540000 0.000000
-4.510400 0.000000
-4.480700 0.000000
-4.451000 0.000000
-4.421400 0.000000
-4.391700 0.000000
-4.362100 0.000000
-4.332400 0.000000
-4.302700 0.000000
-4.273100 0.000000
-4.243400 0.000000
-4.213700 0.000000
-4.184100 0.000000
-4.154400 0.000000
-4.124700 0.000000
-4.095100 0.000000
-4.065400 0.000000
-4.035700 0.000000
-4.006100 0.000000
-3.976400 0.000000
-3.946800 0.000000
-3.917100 0.000000
-3.887400 0.000000
-3.857800 0.000000
-3.828100 0.000000
-3.798400 0.000000
-3.768800 0.000000
-3.739100 0.000000
-3.709400 0.000000
-3.679800 0.053100
-3.650100 0.176600
-3.620400 0.189400
-3.590800 0.262400
-3.561100 0.592400
-3.531500 0.490000
-3.501800 0.554600
-3.472100 0.606600
-3.442500 0.695900
-3.412800 0.836900
-3.383100 1.672600
-3.353500 1.059600
-3.323800 1.057800
-3.294100 1.043600
-3.264500 1.026000
-3.234800 1.045800
-3.205100 1.066000
-3.175500 1.081900
-3.145800 1.075700
-3.116200 1.079600
-3.086500 1.085900
-3.056800 1.219600
-3.027200 1.189800
-2.997500 1.241700
-2.967800 1.336600
-2.938200 1.397600
-2.908500 1.449600
-2.878800 1.681600
-2.849200 1.951300
-2.819500 1.519500
-2.789800 1.386100
-2.760200 1.291900
-2.730500 1.256600
-2.700900 1.224800
-2.671200 1.175600
-2.641500 1.120300
-2.611900 1.079400
-2.582200 1.041500
-2.552500 1.006500
-2.522900 0.993400
-2.493200 0.989300
-2.463500 0.956300
-2.433900 0.921300
-2.404200 0.867000
-2.374500 0.797700
-2.344900 0.758200
-2.315200 0.726900
-2.285600 0.691900
-2.255900 0.663000
-2.226200 0.632900
-2.196600 0.604500
-2.166900 0.584600
-2.137200 0.569700
-2.107600 0.554600
-2.077900 0.539200
-2.048200 0.522800
-2.018600 0.505700
-1.988900 0.485500
-1.959200 0.465400
-1.929600 0.450800
-1.899900 0.436900
-1.870300 0.422500
-1.840600 0.406200
-1.810900 0.386500
-1.781300 0.373800
-1.751600 0.366400
-1.721900 0.359100
-1.692300 0.351700
-1.662600 0.344300
-1.632900 0.336900
-1.603300 0.329300
-1.573600 0.321400
-1.543900 0.313300
-1.514300 0.304700
-1.484600 0.295600
-1.455000 0.286200
-1.425300 0.276800
-1.395600 0.267500
-1.366000 0.256500
-1.336300 0.247500
-1.306600 0.237500
-1.277000 0.228700
-1.247300 0.223100
-1.217600 0.218400
-1.188000 0.213800
-1.158300 0.209200
-1.128600 0.204600
-1.099000 0.200000
-1.069300 0.195500
-1.039700 0.190900
-1.010000 0.186300
-0.980300 0.181500
-0.950700 0.176700
-0.921000 0.171500
-0.891300 0.166000
-0.861700 0.160200
-0.832000 0.154700
-0.802300 0.149400
-0.772700 0.144300
-0.743000 0.139300
-0.713300 0.133100
-0.683700 0.127800
-0.654000 0.124400
-0.624400 0.121100
-0.594700 0.117800
-0.565000 0.114500
-0.535400 0.111200
-0.505700 0.108000
-0.476000 0.104800
-0.446400 0.101600
-0.416700 0.098400
-0.387000 0.095300
-0.357400 0.092100
-0.327700 0.088800
-0.298000 0.085500
-0.268400 0.082100
-0.238700 0.078600
-0.209100 0.075100
-0.179400 0.071700
-0.149700 0.068500
-0.120100 0.065400
-0.090400 0.062400
-0.060700 0.059400
-0.031100 0.056500
-0.001400 0.053600
0.028300 0.050800
0.057900 0.048000
0.087600 0.045300
0.117200 0.042500
0.146900 0.039900
0.176600 0.037200
0.206200 0.034600
0.235900 0.032500
0.265600 0.033300
0.295200 0.031200
0.324900 0.023900
0.354600 0.017600
0.384200 0.012300
0.413900 0.007900
0.443600 0.004500
0.473200 0.002100
0.502900 0.000500
0.532500 0.000000
0.562200 0.000000
0.591900 0.231700
0.621500 0.733700
0.651200 0.641100
0.680900 0.640000
0.710500 0.669500
0.740200 0.731300
0.769900 0.816800
0.799500 0.753200
0.829200 0.743100
0.858900 0.762900
0.888500 0.800100
0.918200 0.862700
0.947800 0.954100
0.977500 0.998200
1.007200 0.934000
1.036800 0.908300
1.066500 0.916300
1.096200 0.904500
1.125800 0.858900
1.155500 0.810400
1.185200 0.793300
1.214800 0.787700
1.244500 0.777400
1.274200 0.792400
1.303800 0.817000
1.333500 0.812100
1.363100 0.816300
1.392800 0.820700
1.422500 0.827800
1.452100 0.836500
1.481800 0.848900
1.511500 0.866200
1.541100 0.886400
1.570800 0.902700
1.600500 0.917500
1.630100 0.932500
1.659800 0.944400
1.689500 0.952900
1.719100 0.960500
1.748800 0.971800
1.778400 0.984400
1.808100 0.998300
1.837800 1.012900
1.867400 1.027500
1.897100 1.042900
1.926800 1.058800
1.956400 1.074000
1.986100 1.090200
2.015800 1.110400
2.045400 1.129200
2.075100 1.150700
2.104800 1.177000
2.134400 1.202400
2.164100 1.226200
2.193700 1.258300
2.223400 1.299600
2.253100 1.342700
2.282700 1.390400
2.312400 1.444200
2.342100 1.509200
2.371700 1.542700
2.401400 1.505700
2.431100 1.561500
2.460700 1.577100
2.490400 1.590200
2.520100 1.584100
2.549700 1.573600
2.579400 1.567900
2.609000 1.557900
2.638700 1.548800
2.668400 1.544700
2.698000 1.542000
2.727700 1.539600
2.757400 1.537900
2.787000 1.535100
2.816700 1.525600
2.846400 1.515800
2.876000 1.515700
2.905700 1.517700
2.935400 1.522900
2.965000 1.527000
2.994700 1.527100
3.024300 1.523800
3.054000 1.526900
3.083700 1.530200
3.113300 1.533900
3.143000 1.539400
3.172700 1.545200
3.202300 1.550500
3.232000 1.557700
3.261700 1.565600
3.291300 1.576900
3.321000 1.587700
3.350700 1.592500
3.380300 1.590600
3.410000 1.582400
3.439600 1.573600
3.469300 1.568000
3.499000 1.565600
3.528600 1.563500
3.558300 1.561900
3.588000 1.561500
3.617600 1.565100
3.647300 1.575100
3.677000 1.595800
3.706600 1.627200
3.736300 1.664100
3.766000 1.692400
3.795600 1.722700
3.825300 1.725200
3.854900 1.694000
3.884600 1.625400
3.914300 1.582800
3.943900 1.512000
3.973600 1.504500
4.003300 1.516700
4.032900 1.543900
4.062600 1.537400
4.092300 1.513700
4.121900 1.493900
4.151600 1.467700
4.181300 1.417200
4.210900 1.286700
4.240600 1.244900
4.270200 1.211600
4.299900 1.183900
4.329600 1.181400
4.359200 1.180900
4.388900 1.156900
4.418600 1.127200
4.448200 1.091400
4.477900 1.074000
4.507600 1.052800
4.537200 1.035000
4.566900 1.061900
4.596600 1.110300
4.626200 1.148100
4.655900 1.174900
4.685500 1.193800
4.715200 1.198200
4.744900 1.209300
4.774500 1.224400
4.804200 1.236700
4.833900 1.220900
4.863500 1.170500
4.893200 1.102900
4.922900 1.029300
4.952500 0.955700
4.982200 0.916400
5.011900 0.911300
5.041500 0.903900
5.071200 0.893200
5.100800 0.873800
5.130500 0.840500
5.160200 0.804400
5.189800 0.778600
5.219500 0.799400
5.249200 0.855800
5.278800 0.765300
5.308500 0.726800
5.338200 0.700300
5.367800 0.671300
5.397500 0.645100
5.427200 0.616800
5.456800 0.588400
5.486500 0.564000
5.516100 0.523800
5.545800 0.474500
5.575500 0.438600
5.605100 0.431000
5.634800 0.429300
5.664500 0.423900
5.694100 0.419100
5.723800 0.597600
5.753500 0.478400
5.783100 0.370600
5.812800 0.241600
5.842500 0.120200
5.872100 0.084500
5.901800 0.069400
5.931400 0.055700
5.961100 0.043400
5.990800 0.043500
6.020400 0.049900
6.050100 0.060800
6.079800 0.075100
6.109400 0.092700
6.139100 0.113400
6.168800 0.138100
6.198400 0.166200
6.228100 0.197800
6.257800 0.233700
6.287400 0.265900
6.317100 0.272900
6.346700 0.294100
6.376400 0.321300
6.406100 0.352800
6.435700 0.396400
6.465400 0.487700
6.495100 0.574700
6.524700 0.640300
6.554400 0.759600
6.584100 0.909500
6.613700 0.983700
6.643400 1.050700
6.673100 1.089700
6.702700 1.150100
6.732400 1.230200
6.762000 1.311700
6.791700 1.391900
6.821400 1.376900
6.851000 1.413500
6.880700 1.500500
6.910400 1.482700
6.940000 1.484000
6.969700 1.511600
6.999400 1.535400
7.029000 1.654500
7.058700 1.624600
7.088400 1.569600
7.118000 1.524800
7.147700 1.496000
7.177300 1.476600
7.207000 1.469600
7.236700 1.456500
7.266300 1.442600
7.296000 1.431100
7.325700 1.420400
7.355300 1.409200
7.385000 1.399400
7.414700 1.391500
7.444300 1.384900
7.474000 1.377900
7.503700 1.371200
7.533300 1.364300
7.563000 1.358100
7.592600 1.354900
7.622300 1.353300
7.652000 1.353500
7.681600 1.355200
7.711300 1.357300
7.741000 1.360000
7.770600 1.383000
7.800300 1.417500
7.830000 1.461400
7.859600 1.511100
7.889300 1.567800
7.919000 1.626900
7.948600 1.693500
7.978300 1.826500
8.007900 1.986000
8.037600 1.874300
8.067300 1.834500
8.096900 1.835700
8.126600 1.881400
8.156300 1.872400
8.185900 1.829700
8.215600 1.871200
8.245300 1.964100
8.274900 1.946800
8.304600 1.962900
8.334300 1.932100
8.363900 1.862300
8.393600 1.741400
8.423200 1.562400
8.452900 1.391500
8.482600 1.340000
8.512200 1.284900
8.541900 1.225000
8.571600 1.138700
8.601200 1.091600
8.630900 1.057300
8.660600 1.056400
8.690200 1.060800
8.719900 1.066000
8.749600 1.077400
8.779200 1.107200
8.808900 1.168900
8.838500 1.227000
8.868200 1.261900
8.897900 1.283900
8.927500 1.286500
8.957200 1.252200
8.986900 1.217400
9.016500 1.211200
9.046200 1.249300
9.075900 1.258900
9.105500 1.272900
9.135200 1.286400
9.164900 1.300100
9.194500 1.313900
9.224200 1.342700
9.253800 1.363300
9.283500 1.353600
9.313200 1.311600
9.342800 1.278900
9.372500 1.281500
9.402200 1.337200
9.431800 1.406700
9.461500 1.441500
9.491200 1.460400
9.520800 1.471100
9.550500 1.479300
9.580200 1.503300
9.609800 1.517700
9.639500 1.518600
9.669100 1.506700
9.698800 1.484700
9.728500 1.440600
9.758100 1.365500
9.787800 1.289200
9.817500 1.233500
9.847100 1.187500
9.876800 1.149200
9.906500 1.115500
9.936100 1.087000
9.965800 1.061900
9.995500 1.028300
10.025100 0.995300
10.054800 0.962300
10.084400 0.928300
10.114100 0.900000
10.143800 0.879200
10.173400 0.860700
10.203100 0.834200
10.232800 0.822500
10.262400 0.811500
10.292100 0.800400
10.321800 0.783700
10.351400 0.759200
10.381100 0.732400
10.410800 0.758300
10.440400 0.657500
10.470100 0.631400
10.499700 0.628500
10.529400 0.627000
10.559100 0.636500
10.588700 0.661500
10.618400 0.701600
10.648100 0.748500
10.677700 0.800600
10.707400 0.857600
10.737100 0.924900
10.766700 1.046900
10.796400 1.283400
10.826100 1.453100
10.855700 1.624900
10.885400 1.620400
10.915000 1.556000
10.944700 1.510700
10.974400 1.536700
11.004000 1.519100
11.033700 1.508000
11.063400 1.516800
11.093000 1.531600
11.122700 1.525200
11.152400 1.567000
11.182000 1.512900
11.211700 1.464600
11.241400 1.439700
11.271000 1.420600
11.300700 1.408000
11.330300 1.394200
11.360000 1.387100
11.389700 1.382500
11.419300 1.383400
11.449000 1.415200
11.478700 1.395900
11.508300 1.443200
11.538000 1.503200
11.567700 1.585700
11.597300 1.668700
11.627000 1.672600
11.656700 1.589200
11.686300 1.448200
11.716000 1.357500
11.745600 1.330400
11.775300 1.313300
11.805000 1.309600
11.834600 1.326000
11.864300 1.351900
11.894000 1.391900
11.923600 1.499100
11.953300 1.483500
11.983000 1.411800
12.012600 1.418300
12.042300 1.443100
12.072000 1.441900
12.101600 1.414300
12.131300 1.374100
12.160900 1.333100
12.190600 1.321400
12.220300 1.287300
12.249900 1.264800
12.279600 1.276400
12.309300 1.261000
12.338900 1.213100
12.368600 1.146400
12.398300 1.011800
12.427900 0.968900
12.457600 0.903700
12.487300 0.821700
12.516900 0.769900
12.546600 0.751600
12.576200 0.727600
12.605900 0.698200
12.635600 0.666100
12.665200 0.667900
12.694900 0.676200
12.724600 0.688100
12.754200 0.699700
12.783900 0.705900
12.813600 0.711200
12.843200 0.719200
12.872900 0.729900
12.902600 0.741800
12.932200 0.755300
12.961900 0.833400
12.991500 0.840800
13.021200 0.875900
13.050900 0.896400
13.080500 0.914400
13.110200 0.934100
13.139900 0.945600
13.169500 0.949200
13.199200 0.952700
13.228900 0.968200
13.258500 0.989700
13.288200 1.007600
13.317900 1.012100
13.347500 1.012600
13.377200 1.013600
13.406800 1.015200
13.436500 1.019400
13.466200 1.025300
13.495800 1.036000
13.525500 1.061300
13.555200 1.073400
13.584800 1.097300
13.614500 1.089600
13.644200 1.044300
13.673800 1.028600
13.703500 1.022100
13.733200 1.016200
13.762800 1.014700
13.792500 1.016100
13.822100 1.018900
13.851800 1.022600
13.881500 1.029000
13.911100 1.038200
13.940800 1.052000
13.970500 1.072000
14.000100 1.093300
14.029800 1.107900
14.059500 1.119200
14.089100 1.118500
14.118800 1.112800
14.148500 1.121400
14.178100 1.127500
14.207800 1.141300
14.237400 1.157200
14.267100 1.178300
14.296800 1.200000
14.326400 1.214600
14.356100 1.220700
14.385800 1.228700
14.415400 1.239200
14.445100 1.330400
14.474800 1.358600
14.504400 1.383000
14.534100 1.411800
14.563800 1.437800
14.593400 1.459400
14.623100 1.466500
14.652700 1.460800
14.682400 1.461900
14.712100 1.471900
14.741700 1.498600
14.771400 1.510000
14.801100 1.516800
14.830700 1.503000
14.860400 1.479100
14.890100 1.491200
14.919700 1.512800
14.949400 1.537200
14.979100 1.556100
15.008700 1.581600
15.038400 1.606500
15.068000 1.620200
15.097700 1.660300
15.127400 1.678500
15.157000 1.682200
15.186700 1.700600
15.216400 1.713900
15.246000 1.721000
15.275700 1.723000
15.305400 1.724400
15.335000 1.722900
15.364700 1.742900
15.394400 1.723300
15.424000 1.716200
15.453700 1.698100
15.483300 1.690100
15.513000 1.680700
15.542700 1.672900
15.572300 1.668100
15.602000 1.671200
15.631700 1.674200
15.661300 1.674000
15.691000 1.725000
15.720700 1.754400
15.750300 1.697800
15.780000 1.669500
15.809600 1.665000
15.839300 1.616000
15.869000 1.616100
15.898600 1.643800
15.928300 1.714700
15.958000 1.793900
15.987600 1.899800
16.017300 1.987000
16.047000 2.046200
16.076600 2.071600
16.106300 2.075900
16.136000 2.075000
16.165600 2.057500
16.195300 2.042100
16.224900 2.039500
16.254600 2.037200
16.284300 2.011600
16.313900 1.978500
16.343600 1.924800
16.373300 1.933100
16.402900 1.906100
16.432600 1.912500
16.462300 1.956900
16.491900 2.001900
16.521600 1.913100
16.551300 1.853700
16.580900 1.803000
16.610600 1.730900
16.640200 1.655600
16.669900 1.589700
16.699600 1.547900
16.729200 1.533000
16.758900 1.522400
16.788600 1.545700
16.818200 1.585300
16.847900 1.648900
16.877600 1.732800
16.907200 1.834400
16.936900 1.957400
16.966600 2.103300
16.996200 2.231600
17.025900 2.311000
17.055500 2.383700
17.085200 2.520900
17.114900 2.528300
17.144500 2.634600
17.174200 2.920400
17.203900 2.910600
17.233500 2.565300
17.263200 2.215800
17.292900 2.012500
17.322500 1.864300
17.352200 1.751900
17.381900 1.681800
17.411500 1.626300
17.441200 1.515500
17.470800 1.507400
17.500500 1.486600
17.530200 1.556700
17.559800 1.633500
17.589500 1.666100
17.619200 1.703000
17.648800 1.743200
17.678500 1.775400
17.708200 1.809000
17.737800 1.838400
17.767500 1.830900
17.797200 1.865300
17.826800 1.906000
17.856500 2.034800
17.886100 2.068600
17.915800 2.027600
17.945500 1.945300
17.975100 1.925400
18.004800 1.931900
18.034500 1.941600
18.064100 1.945900
18.093800 1.869600
18.123500 1.899400
18.153100 1.972600
18.182800 1.987800
18.212500 1.917700
18.242100 1.757200
18.271800 1.632000
18.301400 1.599400
18.331100 1.588100
18.360800 1.654900
18.390400 1.604000
18.420100 1.616500
18.449800 1.589400
18.479400 1.559200
18.509100 1.544700
18.538800 1.543900
18.568400 1.571500
18.598100 1.583000
18.627800 1.619800
18.657400 1.689400
18.687100 1.762000
18.716700 1.807900
18.746400 1.871700
18.776100 1.949200
18.805700 1.973400
18.835400 2.005900
18.865100 2.027100
18.894700 2.047400
18.924400 2.078700
18.954100 2.115400
18.983700 2.162000
19.013400 2.230300
19.043100 2.277800
19.072700 2.254600
19.102400 2.158600
19.132000 2.065700
19.161700 2.017200
19.191400 1.979600
19.221000 1.965200
19.250700 1.965600
19.280400 1.969900
19.310000 1.926300
19.339700 1.867200
19.369400 1.792700
19.399000 1.753700
19.428700 1.718700
19.458400 1.766100
19.488000 1.784800
19.517700 1.855800
19.547300 1.980900
19.577000 2.027500
19.606700 2.041100
19.636300 2.022100
19.666000 2.002800
19.695700 2.037600
19.725300 2.089800
19.755000 2.105600
19.784700 2.127000
19.814300 2.147400
19.844000 2.226000
19.873700 2.274800
19.903300 2.114900
19.933000 2.030100
19.962600 2.003800
19.992300 1.983800
20.022000 1.936000
20.051600 1.882600
20.081300 1.827900
20.111000 1.777700
20.140600 1.741400
20.170300 1.716300
20.200000 1.717200
20.229600 1.742500
20.259300 1.789800
20.289000 1.846300
20.318600 1.880000
20.348300 1.912200
20.377900 1.977900
20.407600 2.034400
20.437300 2.070900
20.466900 2.136800
20.496600 2.184500
20.526300 2.211600
20.555900 2.208100
20.585600 2.235100
20.615300 2.290700
20.644900 2.304600
20.674600 2.300400
20.704300 2.251800
20.733900 2.197900
20.763600 2.162000
20.793200 2.122600
20.822900 2.095200
20.852600 2.091600
20.882200 2.162000
20.911900 2.167800
20.941600 2.240800
20.971200 2.297600
21.000900 2.364200
21.030600 2.475800
21.060200 2.387100
21.089900 2.430000
21.119600 2.452300
21.149200 2.446900
21.178900 2.425700
21.208500 2.388000
21.238200 2.335700
21.267900 2.275000
21.297500 2.272800
21.327200 2.369900
21.356900 2.366600
21.386500 2.332700
21.416200 2.282800
21.445900 2.202200
21.475500 2.101700
21.505200 2.023700
21.534900 1.902800
21.564500 1.728700
21.594200 1.621000
21.623800 1.568200
21.653500 1.561800
21.683200 1.588700
21.712800 1.621300
21.742500 1.653900
21.772200 1.711200
21.801800 1.809500
21.831500 1.990700
21.861200 2.197800
21.890800 2.300300
21.920500 2.423600
21.950200 2.543300
21.979800 2.610600
22.009500 2.663800
22.039100 2.658000
22.068800 2.599800
22.098500 2.471900
22.128100 2.353700
22.157800 2.256500
22.187500 2.145700
22.217100 2.065000
22.246800 1.976500
22.276500 1.924900
22.306100 1.962000
22.335800 2.022900
22.365500 2.093800
22.395100 2.153400
22.424800 2.184000
22.454400 2.198200
22.484100 2.154400
22.513800 2.170300
22.543400 2.169600
22.573100 2.133800
22.602800 2.116900
22.632400 2.099500
22.662100 2.075900
22.691800 2.067500
22.721400 2.083900
22.751100 2.084200
22.780800 2.075100
22.810400 2.058400
22.840100 2.070800
22.869700 2.100500
22.899400 2.172100
22.929100 2.167800
22.958700 2.162400
22.988400 2.179500
23.018100 2.428100
23.047700 2.289700
23.077400 2.321400
23.107100 2.365600
23.136700 2.398200
23.166400 2.438300
23.196100 2.455200
23.225700 2.448100
23.255400 2.456700
23.285000 2.491300
23.314700 2.436400
23.344400 2.400300
23.374000 2.383000
23.403700 2.361100
23.433400 2.297600
23.463000 2.277200
23.492700 2.289900
23.522400 2.306600
23.552000 2.336000
23.581700 2.356800
23.611400 2.348100
23.641000 2.344400
23.670700 2.366000
23.700300 2.448100
23.730000 2.730200
23.759700 2.643500
23.789300 2.624300
23.819000 2.582100
23.848700 2.594600
23.878300 2.605500
23.908000 2.587600
23.937700 2.541600
23.967300 2.502700
23.997000 2.508600
24.026700 2.578200
24.056300 2.570300
24.086000 2.603900
24.115600 2.545700
24.145300 2.458600
24.175000 2.380600
24.204600 2.273500
24.234300 2.198500
24.264000 2.135400
24.293600 2.065300
24.323300 2.035600
24.353000 2.009500
24.382600 2.039300
24.412300 2.047500
24.442000 2.073300
24.471600 2.088100
24.501300 2.159200
24.530900 2.316500
24.560600 2.458200
24.590300 2.522200
24.619900 2.556100
24.649600 2.607600
24.679300 2.711600
24.708900 2.773200
24.738600 2.760800
24.768300 2.828400
24.797900 2.740900
24.827600 2.584500
24.857300 2.470100
24.886900 2.419300
24.916600 2.386300
24.946200 2.408400
24.975900 2.466600
25.005600 2.515000
25.035200 2.527300
25.064900 2.562000
25.094600 2.621800
25.124200 2.679200
25.153900 2.651200
25.183600 2.606500
25.213200 2.575700
25.242900 2.525100
25.272600 2.508900
25.302200 2.483600
25.331900 2.469500
25.361500 2.391300
25.391200 2.406700
25.420900 2.377500
25.450500 2.263900
25.480200 2.165100
25.509900 2.150800
25.539500 2.195300
25.569200 2.231600
25.598900 2.265500
25.628500 2.218500
25.658200 2.168700
25.687900 2.133000
25.717500 2.128700
25.747200 2.134000
25.776800 2.146000
25.806500 2.170700
25.836200 2.230000
25.865800 2.295500
25.895500 2.402400
25.925200 2.578200
25.954800 2.669300
25.984500 2.639900
26.014200 2.672600
26.043800 2.707600
26.073500 2.713600
26.103200 2.711200
26.132800 2.742600
26.162500 2.741900
26.192100 2.695900
26.221800 2.651800
26.251500 2.592000
26.281100 2.486400
26.310800 2.424200
26.340500 2.528300
26.370100 2.607300
26.399800 2.817300
26.429500 2.836400
26.459100 2.805900
26.488800 2.808700
26.518500 2.858600
26.548100 2.809800
26.577800 2.841700
26.607400 3.010500
26.637100 3.151800
26.666800 3.173000
26.696400 2.970000
26.726100 2.752500
26.755800 2.576300
26.785400 2.426700
26.815100 2.319600
26.844800 2.220000
26.874400 2.144600
26.904100 2.105200
26.933800 2.118000
26.963400 2.202300
26.993100 2.322400
27.022700 2.414600
27.052400 2.461300
27.082100 2.580200
27.111700 2.674200
27.141400 2.731500
27.171100 2.800800
27.200700 2.894800
27.230400 2.932400
27.260100 3.008300
27.289700 3.096400
27.319400 3.013500
27.349100 2.828800
27.378700 2.785000
27.408400 2.716800
27.438000 2.648000
27.467700 2.604400
27.497400 2.486600
27.527000 2.444700
27.556700 2.440600
27.586400 2.398500
27.616000 2.422100
27.645700 2.447300
27.675400 2.444300
27.705000 2.507800
27.734700 2.634400
27.764400 2.689400
27.794000 2.756900
27.823700 2.861500
27.853300 3.046200
27.883000 2.987800
27.912700 2.905400
27.942300 3.170600
27.972000 2.929000
28.001700 2.702600
28.031300 2.527500
28.061000 2.436200
28.090700 2.406700
28.120300 2.344000
28.150000 2.314900
28.179700 2.303500
28.209300 2.277100
28.239000 2.299200
28.268600 2.418100
28.298300 2.466300
28.328000 2.463700
28.357600 2.449900
28.387300 2.444100
28.417000 2.474500
28.446600 2.405400
28.476300 2.196600
28.506000 2.055900
28.535600 1.971700
28.565300 1.931500
28.595000 1.974000
28.624600 2.044400
28.654300 2.102400
28.683900 2.181100
28.713600 2.233000
28.743300 2.258100
28.772900 2.273400
28.802600 2.321100
28.832300 2.340400
28.861900 2.328600
28.891600 2.321300
28.921300 2.304200
28.950900 2.279400
28.980600 2.351200
29.010300 2.189700
29.039900 2.159200
29.069600 2.136800
29.099200 2.112200
29.128900 2.090300
29.158600 2.080100
29.188200 2.078400
29.217900 2.087600
29.247600 2.117300
29.277200 2.169900
29.306900 2.263100
29.336600 2.418200
29.366200 2.640100
29.395900 2.652000
29.425600 2.758600
29.455200 2.862300
29.484900 3.005400
29.514500 3.078400
29.544200 3.055000
29.573900 2.950700
29.603500 2.762900
29.633200 2.636700
29.662900 2.511600
29.692500 2.527500
29.722200 2.596600
29.751900 2.661700
29.781500 2.807600
29.811200 2.901900
29.840900 2.954000
29.870500 2.919000
29.900200 2.877200
29.929800 2.874700
29.959500 2.721800
29.989200 2.611600
30.018800 2.555000
30.048500 2.546000
30.078200 2.576700
30.107800 2.663200
30.137500 2.768000
30.167200 2.855700
30.196800 3.034100
30.226500 3.235300
30.256200 3.294800
30.285800 3.224300
30.315500 3.049900
30.345100 2.840900
30.374800 2.705600
30.404500 2.425300
30.434100 2.383600
30.463800 2.454100
30.493500 2.345600
30.523100 2.209100
30.552800 2.098200
30.582500 2.058200
30.612100 2.045100
30.641800 2.058500
30.671500 2.077600
30.701100 2.143300
30.730800 2.228400
30.760400 2.297600
30.790100 2.379600
30.819800 2.492600
30.849400 2.545500
30.879100 2.696200
30.908800 2.698100
30.938400 2.714300
30.968100 2.764900
30.997800 2.837700
31.027400 2.859400
31.057100 2.831000
31.086800 2.839800
31.116400 2.808800
31.146100 2.730800
31.175700 2.832500
31.205400 2.612300
31.235100 2.569900
31.264700 2.453700
31.294400 2.357300
31.324100 2.298600
31.353700 2.233100
31.383400 2.236000
31.413100 2.282900
31.442700 2.331800
31.472400 2.427400
31.502000 2.555800
31.531700 2.727500
31.561400 2.888500
31.591000 2.968100
31.620700 2.970500
31.650400 2.997100
31.680000 3.012500
31.709700 3.143200
31.739400 3.282100
31.769000 3.383900
31.798700 3.261200
31.828400 3.306000
31.858000 3.359100
31.887700 3.277800
31.917300 3.236600
31.947000 3.104100
31.976700 2.950500
32.006300 2.858900
32.036000 2.883900
32.065700 2.961800
32.095300 3.019500
32.125000 3.060700
32.154700 2.972500
32.184300 3.069800
32.214000 3.096400
32.243700 3.158500
32.273300 3.197200
32.303000 3.001000
32.332600 2.986800
32.362300 2.865400
32.392000 2.732200
32.421600 2.519700
32.451300 2.368300
32.481000 2.224800
32.510600 2.122600
32.540300 2.143500
32.570000 2.159900
32.599600 2.146800
32.629300 2.123900
32.659000 2.166700
32.688600 2.241900
32.718300 2.551700
32.747900 2.596500
32.777600 2.753300
32.807300 2.933500
32.836900 3.243900
32.866600 3.257100
32.896300 3.087400
32.925900 3.036200
32.955600 3.083700
32.985300 3.010600
33.014900 2.918900
33.044600 2.920900
33.074300 3.345000
33.103900 2.813700
33.133600 2.682700
33.163200 2.510500
33.192900 2.427500
33.222600 2.341500
33.252200 2.286700
33.281900 2.278300
33.311600 2.308300
33.341200 2.347000
33.370900 2.419200
33.400600 2.523900
33.430200 2.637300
33.459900 2.780800
33.489600 2.874600
33.519200 3.025600
33.548900 3.285300
33.578500 3.552600
33.608200 3.591800
33.637900 3.507700
33.667500 3.467700
33.697200 3.366600
33.726900 3.251100
33.756500 3.334700
33.786200 3.588600
33.815900 3.314400
33.845500 3.164800
33.875200 3.090900
33.904900 2.956200
33.934500 2.718800
33.964200 2.532200
33.993800 2.462100
34.023500 2.419300
34.053200 2.465900
34.082800 2.482700
34.112500 2.547200
34.142200 2.570200
34.171800 2.618800
34.201500 2.694100
34.231200 2.829700
34.260800 2.902300
34.290500 2.902800
34.320200 2.866900
34.349800 2.835700
34.379500 2.894000
34.409100 2.924000
34.438800 2.956000
34.468500 2.962000
34.498100 2.943300
34.527800 2.883300
34.557500 2.816900
34.587100 2.839800
34.616800 2.768500
34.646500 2.653200
34.676100 2.634900
34.705800 2.597400
34.735500 2.450000
34.765100 2.226500
34.794800 2.174500
34.824400 2.210300
34.854100 2.234800
34.883800 2.382500
34.913400 2.474900
34.943100 2.607400
34.972800 2.803200
35.002400 2.884500
35.032100 3.047500
35.061800 3.081400
35.091400 3.058300
35.121100 3.005000
35.150800 3.296700
35.180400 2.692500
35.210100 2.626400
35.239700 2.420700
35.269400 2.301700
35.299100 2.192800
35.328700 2.032300
35.358400 1.956000
35.388100 1.939500
35.417700 2.018700
35.447400 2.176600
35.477100 2.056300
35.506700 2.055100
35.536400 2.130400
35.566100 2.253000
35.595700 2.401900
35.625400 2.528900
35.655000 2.769400
35.684700 2.702200
35.714400 2.648500
35.744000 2.823300
35.773700 2.814400
35.803400 2.704800
35.833000 2.769100
35.862700 2.870600
35.892400 2.933600
35.922000 2.781100
35.951700 2.633100
35.981400 2.610000
36.011000 2.533100
36.040700 2.515400
36.070300 2.665900
36.100000 2.812900
36.129700 3.105700
36.159300 3.251900
36.189000 3.205600
36.218700 3.011600
36.248300 2.910000
36.278000 2.912300
36.307700 3.147400
36.337300 3.256700
36.367000 3.240800
36.396700 3.043000
36.426300 2.949400
36.456000 2.882100
36.485600 2.863100
36.515300 2.773100
36.545000 2.664700
36.574600 2.650200
36.604300 2.628800
36.634000 2.613400
36.663600 2.621400
36.693300 2.652400
36.723000 2.744500
36.752600 2.984300
36.782300 3.204800
36.812000 3.480400
36.841600 3.458000
36.871300 2.929800
36.900900 2.632800
36.930600 2.415400
36.960300 2.224700
36.989900 2.171900
37.019600 2.229700
37.049300 2.275700
37.078900 2.310800
37.108600 2.249300
37.138300 2.267900
37.167900 2.305800
37.197600 2.359000
37.227300 2.471900
37.256900 2.674700
37.286600 2.842400
37.316200 2.956300
37.345900 3.063600
37.375600 3.083300
37.405200 2.988700
37.434900 2.842700
37.464600 2.780600
37.494200 3.040100
37.523900 2.569200
37.553600 2.326800
37.583200 2.265700
37.612900 2.197400
37.642600 2.141800
37.672200 2.044800
37.701900 2.069800
37.731500 2.109800
37.761200 2.186200
37.790900 2.299700
37.820500 2.356000
37.850200 2.364500
37.879900 2.393000
37.909500 2.440300
37.939200 2.527400
37.968900 2.612200
37.998500 2.594800
38.028200 2.533900
38.057900 2.529100
38.087500 2.517900
38.117200 2.425300
38.146800 2.284800
38.176500 2.208900
38.206200 2.129100
38.235800 2.057200
38.265500 2.045000
38.295200 2.074800
38.324800 2.103200
38.354500 2.130500
38.384200 2.165000
38.413800 2.225100
38.443500 2.415800
38.473200 2.380700
38.502800 2.437400
38.532500 2.484700
38.562100 2.501800
38.591800 2.495700
38.621500 2.460200
38.651100 2.445600
38.680800 2.465500
38.710500 2.524100
38.740100 2.575400
38.769800 2.611500
38.799500 2.630400
38.829100 2.822900
38.858800 2.805900
38.888500 2.654900
38.918100 2.533000
38.947800 2.472300
38.977400 2.480200
39.007100 2.564500
39.036800 2.667700
39.066400 2.702800
39.096100 2.786100
39.125800 2.732200
39.155400 2.680400
39.185100 2.562300
39.214800 2.437700
39.244400 2.417400
39.274100 2.378200
39.303800 2.339900
39.333400 2.303700
39.363100 2.251700
39.392700 2.242100
39.422400 2.209500
39.452100 2.163900
39.481700 2.133900
39.511400 2.118300
39.541100 2.135500
39.570700 2.231300
39.600400 2.282800
39.630100 2.235900
39.659700 2.233700
39.689400 2.269700
39.719100 2.302000
39.748700 2.317900
39.778400 2.344800
39.808000 2.288700
39.837700 2.312000
39.867400 2.363800
39.897000 2.457600
39.926700 2.532600
39.956400 2.552000
39.986000 2.554800
40.015700 2.575700
40.045400 2.607800
40.075000 2.568500
40.104700 2.557600
40.134400 2.619500
40.164000 2.700400
40.193700 2.795500
40.223300 2.822400
40.253000 2.791000
40.282700 2.805400
40.312300 2.815800
40.342000 2.758900
40.371700 2.667800
40.401300 2.612700
40.431000 2.536200
40.460700 2.464000
40.490300 2.408600
40.520000 2.383700
40.549700 2.390500
40.579300 2.442700
40.609000 2.430200
40.638600 2.451000
40.668300 2.437400
40.698000 2.388600
40.727600 2.434400
40.757300 2.526500
40.787000 2.701100
40.816600 2.715900
40.846300 2.674000
40.876000 2.646700
40.905600 2.689000
40.935300 2.764000
40.965000 2.755400
40.994600 2.680900
41.024300 2.635000
41.053900 2.633400
41.083600 2.630700
41.113300 2.621300
41.142900 2.608500
41.172600 2.559700
41.202300 2.535800
41.231900 2.597000
41.261600 2.647200
41.291300 2.601900
41.320900 2.642600
41.350600 2.685400
41.380300 2.771600
41.409900 2.799300
41.439600 2.767400
41.469200 2.770500
41.498900 2.784000
41.528600 2.680500
41.558200 2.689600
41.587900 2.762400
41.617600 2.795900
41.647200 2.923500
41.676900 3.054700
41.706600 3.145800
41.736200 3.344600
41.765900 3.442600
41.795600 3.340600
41.825200 3.373300
41.854900 3.270900
41.884500 3.067900
41.914200 2.809600
41.943900 2.587600
41.973500 2.512300
42.003200 2.503100
42.032900 2.473100
42.062500 2.470900
42.092200 2.403300
42.121900 2.482400
42.151500 2.628100
42.181200 2.618400
42.210900 2.682600
42.240500 2.788900
42.270200 2.874600
42.299800 2.971600
42.329500 3.158600
42.359200 3.328300
42.388800 3.320000
42.418500 3.477500
42.448200 3.517200
42.477800 3.268400
42.507500 2.864700
42.537200 2.722600
42.566800 2.628100
42.596500 2.531100
42.626200 2.477100
42.655800 2.388800
42.685500 2.318600
42.715100 2.321700
42.744800 2.346100
42.774500 2.394600
42.804100 2.408200
42.833800 2.405000
42.863500 2.434300
42.893100 2.455500
42.922800 2.550300
42.952500 2.730200
42.982100 2.861500
43.011800 2.898100
43.041500 2.886100
43.071100 3.127300
43.100800 2.918100
43.130400 2.848300
43.160100 2.866600
43.189800 2.853100
43.219400 2.731100
43.249100 2.676000
43.278800 2.744000
43.308400 2.860600
43.338100 2.888800
43.367800 3.051700
43.397400 3.042100
43.427100 3.144800
43.456800 3.292300
43.486400 3.507300
43.516100 3.619800
43.545700 3.742400
43.575400 3.558500
43.605100 3.278800
43.634700 3.044200
43.664400 2.902200
43.694100 2.742300
43.723700 2.536600
43.753400 2.376500
43.783100 2.299100
43.812700 2.225800
43.842400 2.157500
43.872100 2.090600
43.901700 2.095000
43.931400 2.112400
43.961000 2.259400
43.990700 2.459600
44.020400 2.764700
44.050000 3.021300
44.079700 3.371400
44.109400 3.441800
44.139000 3.483800
44.168700 3.395300
44.198400 3.393800
44.228000 3.342400
44.257700 3.212700
44.287400 3.006900
44.317000 2.718900
44.346700 2.438300
44.376300 2.187900
44.406000 2.041000
44.435700 1.978500
44.465300 1.959800
44.495000 1.971200
44.524700 1.972500
44.554300 1.997500
44.584000 2.029700
44.613700 2.061700
44.643300 2.020900
44.673000 2.078200
44.702700 2.083300
44.732300 2.114500
44.762000 2.174800
44.791600 2.267500
44.821300 2.401000
44.851000 2.531700
44.880600 2.601700
44.910300 2.661100
44.940000 2.793500
44.969600 2.878900
44.999300 2.691500
45.029000 2.547600
45.058600 2.464800
45.088300 2.600300
45.118000 2.288300
45.147600 2.284900
45.177300 2.266100
45.206900 2.290300
45.236600 2.315500
45.266300 2.356900
45.295900 2.363800
45.325600 2.255100
45.355300 2.312800
45.384900 2.233400
45.414600 2.235200
45.444300 2.291200
45.473900 2.423100
45.503600 2.600900
45.533300 2.687600
45.562900 2.677500
45.592600 2.573400
45.622200 2.472200
45.651900 2.100500
45.681600 1.841400
45.711200 1.646100
45.740900 1.461500
45.770600 1.315100
45.800200 1.185000
45.829900 1.109000
45.859600 1.171900
45.889200 1.037700
45.918900 0.998200
45.948600 0.981500
45.978200 0.962600
46.007900 0.934000
46.037500 0.848000
46.067200 0.703600
46.096900 0.578200
46.126500 0.493800
46.156200 0.414800
46.185900 0.339700
46.215500 0.269700
46.245200 0.213200
46.274900 0.168900
46.304500 0.132700
46.334200 0.102100
46.363900 0.076400
46.393500 0.061300
46.423200 0.034900
46.452800 0.010300
46.482500 0.001000
46.512200 0.000100
46.541800 0.000000
46.571500 0.000000
46.601200 0.000000
46.630800 0.000000
46.660500 0.000000
46.690200 0.000000
46.719800 0.000000
46.749500 0.000000
46.779200 0.000000
46.808800 0.000000
46.838500 0.000000
46.868100 0.000000
46.897800 0.000000
46.927500 0.000000
46.957100 0.000000
46.986800 0.000000
47.016500 0.000000
47.046100 0.000000
47.075800 0.000000
47.105500 0.000000
47.135100 0.000000
47.164800 0.000000
47.194400 0.000000
47.224100 0.000000
47.253800 0.000000
47.283400 0.000000
47.313100 0.000000
47.342800 0.000000
47.372400 0.000000
47.402100 0.000000
47.431800 0.000000
47.461400 0.000000
47.491100 0.000000
47.520800 0.000000
47.550400 0.000000
47.580100 0.000000
47.609700 0.000000
47.639400 0.000000
47.669100 0.000000
47.698700 0.000000
47.728400 0.000000
47.758100 0.000000
47.787700 0.000000
47.817400 0.000000
47.847100 0.000000
47.876700 0.000000
47.906400 0.000000
47.936100 0.000000
47.965700 0.000000
47.995400 0.000000
48.025000 0.000000
48.054700 0.000000
48.084400 0.000000
48.114000 0.000000
48.143700 0.000000
48.173400 0.000000
48.203000 0.000000
48.232700 0.000000
48.262400 0.000000
48.292000 0.000000
48.321700 0.000000
48.351400 0.000000
48.381000 0.000000
48.410700 0.000000
48.440300 0.000000
48.470000 0.000000
48.499700 0.000000
48.529300 0.000000
48.559000 0.000000
48.588700 0.000000
48.618300 0.000000
48.648000 0.000000
48.677700 0.000000
48.707300 0.000000
48.737000 0.000000
48.766700 0.000000
48.796300 0.000000
48.826000 0.000000
48.855600 0.000000
48.885300 0.000000
48.915000 0.000000
48.944600 0.000000
48.974300 0.000000
49.004000 0.000000
49.033600 0.000000
49.063300 0.000000
49.093000 0.000000
49.122600 0.000000
49.152300 0.000000
49.182000 0.000000
49.211600 0.000000
49.241300 0.000000
e
