set title 'mp-1066400 - Density of States'
set xlabel 'Energy (eV)'
set ylabel 'DOS (states/eV)'
set grid
set xrange [-10:10]
set yrange [0:71.101]
set xzeroaxis lt -1
set terminal png size 800,600
set output 'mp-1066400_dos_gnuplot.png'
plot '-' using 1:2 with lines title 'DOS'
-26.703600 0.000000
-26.658600 0.000000
-26.613600 0.000000
-26.568700 0.000000
-26.523700 0.000000
-26.478700 0.000000
-26.433700 0.000000
-26.388800 0.000000
-26.343800 0.000000
-26.298800 0.000000
-26.253800 0.000000
-26.208800 0.000000
-26.163900 0.000000
-26.118900 0.000000
-26.073900 0.000000
-26.028900 0.000000
-25.984000 0.000000
-25.939000 0.000000
-25.894000 0.000000
-25.849000 0.000000
-25.804100 0.000000
-25.759100 0.000000
-25.714100 0.000000
-25.669100 0.000000
-25.624100 0.000000
-25.579200 0.000000
-25.534200 0.000000
-25.489200 0.000000
-25.444200 0.000000
-25.399300 0.000000
-25.354300 0.000000
-25.309300 0.000000
-25.264300 0.000000
-25.219300 0.000000
-25.174400 0.000000
-25.129400 0.000000
-25.084400 0.000000
-25.039400 0.000000
-24.994500 0.000000
-24.949500 0.000000
-24.904500 0.000000
-24.859500 0.000000
-24.814600 0.000000
-24.769600 0.000000
-24.724600 0.000000
-24.679600 0.000000
-24.634600 0.000000
-24.589700 0.000000
-24.544700 0.000000
-24.499700 0.000000
-24.454700 0.000000
-24.409800 0.000000
-24.364800 0.000000
-24.319800 0.000000
-24.274800 0.000000
-24.229800 0.000000
-24.184900 0.000000
-24.139900 0.000000
-24.094900 0.000000
-24.049900 0.000000
-24.005000 0.000000
-23.960000 0.000000
-23.915000 0.000000
-23.870000 0.000000
-23.825100 0.000000
-23.780100 0.000000
-23.735100 0.000000
-23.690100 0.000000
-23.645100 0.000000
-23.600200 0.000000
-23.555200 0.000000
-23.510200 0.000000
-23.465200 0.000000
-23.420300 0.000000
-23.375300 0.000000
-23.330300 0.000000
-23.285300 0.000000
-23.240400 0.000000
-23.195400 0.000000
-23.150400 0.000000
-23.105400 0.000000
-23.060400 0.000000
-23.015500 0.000000
-22.970500 0.000000
-22.925500 0.000000
-22.880500 0.000000
-22.835600 0.000000
-22.790600 0.000000
-22.745600 0.000000
-22.700600 0.000000
-22.655600 0.000000
-22.610700 0.749300
-22.565700 23.352400
-22.520700 16.223500
-22.475700 0.000000
-22.430800 0.000000
-22.385800 0.000000
-22.340800 0.000000
-22.295800 0.000000
-22.250900 0.000000
-22.205900 0.000000
-22.160900 0.000000
-22.115900 33.272500
-22.070900 84.395500
-22.026000 0.000000
-21.981000 0.000000
-21.936000 0.000000
-21.891000 0.000000
-21.846100 0.000000
-21.801100 0.000000
-21.756100 0.000000
-21.711100 0.000000
-21.666100 0.000000
-21.621200 0.000000
-21.576200 0.000000
-21.531200 0.000000
-21.486200 0.000000
-21.441300 0.000000
-21.396300 0.000000
-21.351300 0.000000
-21.306300 0.000000
-21.261400 0.000000
-21.216400 0.000000
-21.171400 0.000000
-21.126400 0.000000
-21.081400 0.000000
-21.036500 0.000000
-20.991500 0.000000
-20.946500 0.000000
-20.901500 0.000000
-20.856600 0.000000
-20.811600 0.000000
-20.766600 0.000000
-20.721600 0.000000
-20.676700 0.000000
-20.631700 0.000000
-20.586700 0.000000
-20.541700 0.000000
-20.496700 0.000000
-20.451800 0.000000
-20.406800 0.000000
-20.361800 0.000000
-20.316800 0.000000
-20.271900 0.000000
-20.226900 0.000000
-20.181900 0.000000
-20.136900 0.000000
-20.091900 0.000000
-20.047000 0.000000
-20.002000 0.000000
-19.957000 0.000000
-19.912000 0.000000
-19.867100 0.000000
-19.822100 0.000000
-19.777100 0.000000
-19.732100 0.000000
-19.687200 0.000000
-19.642200 0.000000
-19.597200 0.000000
-19.552200 0.000000
-19.507200 0.000000
-19.462300 0.000000
-19.417300 0.000000
-19.372300 0.000000
-19.327300 0.000000
-19.282400 0.000000
-19.237400 0.000000
-19.192400 0.000000
-19.147400 0.000000
-19.102500 0.000000
-19.057500 0.000000
-19.012500 0.000000
-18.967500 0.000000
-18.922500 0.000000
-18.877600 0.000000
-18.832600 0.000000
-18.787600 0.000000
-18.742600 0.000000
-18.697700 0.000000
-18.652700 0.000000
-18.607700 0.000000
-18.562700 0.000000
-18.517700 0.000000
-18.472800 0.000000
-18.427800 0.000000
-18.382800 0.000000
-18.337800 0.000000
-18.292900 0.000000
-18.247900 21.901900
-18.202900 0.000000
-18.157900 0.000000
-18.113000 0.000000
-18.068000 0.000000
-18.023000 0.000000
-17.978000 0.000000
-17.933000 0.000000
-17.888100 0.000000
-17.843100 0.000000
-17.798100 0.000000
-17.753100 0.000000
-17.708200 0.000000
-17.663200 0.000000
-17.618200 0.000000
-17.573200 0.000000
-17.528200 0.000000
-17.483300 0.000000
-17.438300 0.000000
-17.393300 0.000000
-17.348300 0.000000
-17.303400 0.000000
-17.258400 0.000000
-17.213400 0.000000
-17.168400 0.000000
-17.123500 0.000000
-17.078500 0.000000
-17.033500 0.000000
-16.988500 0.000000
-16.943500 0.000000
-16.898600 0.000000
-16.853600 0.000000
-16.808600 0.000000
-16.763600 0.000000
-16.718700 0.000000
-16.673700 0.000000
-16.628700 0.000000
-16.583700 0.000000
-16.538800 0.000000
-16.493800 0.000000
-16.448800 0.000000
-16.403800 0.000000
-16.358800 0.000000
-16.313900 0.000000
-16.268900 0.000000
-16.223900 0.000000
-16.178900 0.000000
-16.134000 0.000000
-16.089000 0.000000
-16.044000 0.000000
-15.999000 0.000000
-15.954000 0.000000
-15.909100 0.000000
-15.864100 0.000000
-15.819100 0.000000
-15.774100 0.000000
-15.729200 0.000000
-15.684200 0.000000
-15.639200 0.000000
-15.594200 0.000000
-15.549300 0.000000
-15.504300 0.000000
-15.459300 0.000000
-15.414300 0.000000
-15.369300 0.000000
-15.324400 0.000000
-15.279400 0.000000
-15.234400 0.000000
-15.189400 0.000000
-15.144500 0.000000
-15.099500 0.000000
-15.054500 0.000000
-15.009500 0.000000
-14.964500 0.000000
-14.919600 0.000000
-14.874600 0.000000
-14.829600 0.000000
-14.784600 0.000000
-14.739700 0.000000
-14.694700 0.000000
-14.649700 0.000000
-14.604700 0.000000
-14.559800 0.000000
-14.514800 0.000000
-14.469800 0.000000
-14.424800 0.000000
-14.379800 0.000000
-14.334900 0.000000
-14.289900 0.000000
-14.244900 0.000000
-14.199900 0.000000
-14.155000 0.000000
-14.110000 0.000000
-14.065000 0.000000
-14.020000 0.000000
-13.975100 0.000000
-13.930100 0.000000
-13.885100 0.000000
-13.840100 0.000000
-13.795100 0.000000
-13.750200 0.000000
-13.705200 0.000000
-13.660200 0.000000
-13.615200 0.000000
-13.570300 0.000000
-13.525300 0.000000
-13.480300 0.000000
-13.435300 0.000000
-13.390300 0.000000
-13.345400 0.000000
-13.300400 0.000000
-13.255400 0.000000
-13.210400 0.000000
-13.165500 0.000000
-13.120500 0.000000
-13.075500 0.000000
-13.030500 0.000000
-12.985600 0.000000
-12.940600 0.000000
-12.895600 0.000000
-12.850600 0.000000
-12.805600 0.000000
-12.760700 0.000000
-12.715700 0.000000
-12.670700 0.000000
-12.625700 0.000000
-12.580800 0.000000
-12.535800 0.000000
-12.490800 0.000000
-12.445800 0.000000
-12.400900 0.000000
-12.355900 0.000000
-12.310900 0.000000
-12.265900 0.000000
-12.220900 0.000000
-12.176000 0.000000
-12.131000 0.000000
-12.086000 0.000000
-12.041000 0.000000
-11.996100 0.000000
-11.951100 0.000000
-11.906100 0.000000
-11.861100 0.000000
-11.816100 0.000000
-11.771200 0.000000
-11.726200 0.000000
-11.681200 0.000000
-11.636200 0.000000
-11.591300 0.000000
-11.546300 0.000000
-11.501300 0.000000
-11.456300 0.000000
-11.411400 0.000000
-11.366400 0.000000
-11.321400 0.000000
-11.276400 0.000000
-11.231400 0.000000
-11.186500 0.000000
-11.141500 0.000000
-11.096500 0.000000
-11.051500 0.000000
-11.006600 0.000000
-10.961600 0.000000
-10.916600 0.000000
-10.871600 0.000000
-10.826600 0.000000
-10.781700 0.000000
-10.736700 0.000000
-10.691700 0.000000
-10.646700 0.000000
-10.601800 0.000000
-10.556800 0.000000
-10.511800 0.000000
-10.466800 0.000000
-10.421900 0.000000
-10.376900 0.000000
-10.331900 0.000000
-10.286900 0.000000
-10.241900 0.000000
-10.197000 0.000000
-10.152000 0.000000
-10.107000 0.000000
-10.062000 0.000000
-10.017100 0.000000
-9.972100 0.000000
-9.927100 0.000000
-9.882100 0.000000
-9.837200 0.000000
-9.792200 0.000000
-9.747200 0.000000
-9.702200 0.000000
-9.657200 0.000000
-9.612300 0.000000
-9.567300 0.000000
-9.522300 0.000000
-9.477300 0.000000
-9.432400 0.000000
-9.387400 0.000000
-9.342400 0.000000
-9.297400 0.000000
-9.252400 0.000000
-9.207500 0.000000
-9.162500 0.000000
-9.117500 0.000000
-9.072500 0.000000
-9.027600 0.000000
-8.982600 0.000000
-8.937600 0.000000
-8.892600 0.000000
-8.847700 0.000000
-8.802700 0.000000
-8.757700 0.000000
-8.712700 0.000000
-8.667700 0.000000
-8.622800 0.000000
-8.577800 0.000000
-8.532800 0.000000
-8.487800 0.000000
-8.442900 0.000000
-8.397900 0.000000
-8.352900 0.000000
-8.307900 0.000000
-8.262900 0.000000
-8.218000 0.000000
-8.173000 0.000000
-8.128000 0.000000
-8.083000 0.000000
-8.038100 0.000000
-7.993100 0.000000
-7.948100 0.000000
-7.903100 0.000000
-7.858200 0.000000
-7.813200 0.000000
-7.768200 0.000000
-7.723200 0.000000
-7.678200 0.000000
-7.633300 0.000000
-7.588300 0.000000
-7.543300 0.000000
-7.498300 0.000000
-7.453400 0.000000
-7.408400 0.000000
-7.363400 0.000000
-7.318400 0.000000
-7.273500 0.000000
-7.228500 0.000000
-7.183500 0.000000
-7.138500 0.000000
-7.093500 5.357100
-7.048600 15.243800
-7.003600 10.438600
-6.958600 5.484700
-6.913600 2.874100
-6.868700 2.280100
-6.823700 1.642600
-6.778700 3.692500
-6.733700 4.334200
-6.688700 5.291600
-6.643800 10.093700
-6.598800 13.425500
-6.553800 8.809600
-6.508800 12.674500
-6.463900 5.280600
-6.418900 4.558400
-6.373900 4.677800
-6.328900 4.675600
-6.284000 4.676300
-6.239000 4.764000
-6.194000 2.543200
-6.149000 1.806000
-6.104000 0.621800
-6.059100 0.000000
-6.014100 0.000000
-5.969100 0.000000
-5.924100 0.000000
-5.879200 0.000000
-5.834200 0.000000
-5.789200 0.000000
-5.744200 0.000000
-5.699300 0.212300
-5.654300 0.266900
-5.609300 0.296800
-5.564300 0.374000
-5.519300 0.460300
-5.474400 0.584600
-5.429400 0.687200
-5.384400 0.798900
-5.339400 0.915100
-5.294500 1.036000
-5.249500 1.185800
-5.204500 1.364300
-5.159500 1.852800
-5.114500 2.306900
-5.069600 2.838100
-5.024600 3.095100
-4.979600 3.254500
-4.934600 3.306000
-4.889700 3.492300
-4.844700 3.893200
-4.799700 3.809000
-4.754700 2.789000
-4.709800 2.246200
-4.664800 1.713800
-4.619800 1.391600
-4.574800 0.344700
-4.529800 0.000000
-4.484900 0.000000
-4.439900 0.000000
-4.394900 0.000000
-4.349900 0.000000
-4.305000 0.000000
-4.260000 0.000000
-4.215000 0.000000
-4.170000 0.000000
-4.125000 0.000000
-4.080100 0.000000
-4.035100 0.000000
-3.990100 0.000000
-3.945100 0.000000
-3.900200 0.000000
-3.855200 0.000000
-3.810200 0.000000
-3.765200 0.000000
-3.720300 0.000000
-3.675300 0.000000
-3.630300 0.000000
-3.585300 0.000000
-3.540300 0.000000
-3.495400 0.000000
-3.450400 0.000000
-3.405400 0.000000
-3.360400 0.000000
-3.315500 0.000000
-3.270500 0.000000
-3.225500 0.000000
-3.180500 0.000000
-3.135600 0.000000
-3.090600 0.000000
-3.045600 0.000000
-3.000600 0.000000
-2.955600 0.000000
-2.910700 0.000000
-2.865700 0.000000
-2.820700 0.000000
-2.775700 0.000000
-2.730800 0.000000
-2.685800 0.000000
-2.640800 0.000000
-2.595800 0.000000
-2.550800 0.000000
-2.505900 0.000000
-2.460900 0.000000
-2.415900 0.000000
-2.370900 0.000000
-2.326000 0.000000
-2.281000 0.000000
-2.236000 0.000000
-2.191000 0.000000
-2.146100 0.000000
-2.101100 0.000000
-2.056100 0.000000
-2.011100 0.000000
-1.966100 0.000000
-1.921200 0.000000
-1.876200 0.000000
-1.831200 0.000000
-1.786200 0.000000
-1.741300 0.000000
-1.696300 0.000000
-1.651300 0.000000
-1.606300 0.000000
-1.561300 0.000000
-1.516400 0.000000
-1.471400 0.822200
-1.426400 1.282200
-1.381400 1.757900
-1.336500 2.460000
-1.291500 3.410900
-1.246500 4.692700
-1.201500 4.745900
-1.156600 5.470800
-1.111600 2.670900
-1.066600 2.293400
-1.021600 2.297800
-0.976600 2.481200
-0.931700 3.399600
-0.886700 3.650200
-0.841700 4.450500
-0.796700 5.537800
-0.751800 5.766600
-0.706800 5.940400
-0.661800 6.301300
-0.616800 6.601400
-0.571900 5.129000
-0.526900 3.533900
-0.481900 2.372000
-0.436900 1.100000
-0.391900 0.000000
-0.347000 0.000000
-0.302000 0.000000
-0.257000 0.000000
-0.212000 0.000000
-0.167100 0.000000
-0.122100 0.000000
-0.077100 0.000000
-0.032100 0.000000
0.012900 0.000000
0.057800 0.000000
0.102800 0.000000
0.147800 0.000000
0.192800 0.000000
0.237700 0.000000
0.282700 0.000000
0.327700 0.000000
0.372700 0.000000
0.417600 0.000000
0.462600 0.000000
0.507600 0.000000
0.552600 0.000000
0.597600 0.000000
0.642500 0.000000
0.687500 0.000000
0.732500 0.000000
0.777500 0.000000
0.822400 0.000000
0.867400 0.000000
0.912400 0.000000
0.957400 0.000000
1.002300 0.000000
1.047300 0.000000
1.092300 0.000000
1.137300 0.000000
1.182300 0.000000
1.227200 0.000000
1.272200 0.000000
1.317200 0.000000
1.362200 0.000000
1.407100 0.000000
1.452100 0.000000
1.497100 0.000000
1.542100 0.000000
1.587100 0.000000
1.632000 0.000000
1.677000 0.000000
1.722000 0.000000
1.767000 0.000000
1.811900 0.000000
1.856900 0.000000
1.901900 0.000000
1.946900 0.000000
1.991800 0.000000
2.036800 0.000000
2.081800 0.000000
2.126800 0.000000
2.171800 0.000000
2.216700 0.000000
2.261700 0.000000
2.306700 0.000000
2.351700 0.000000
2.396600 0.000000
2.441600 0.000000
2.486600 0.000000
2.531600 0.000000
2.576600 0.000000
2.621500 0.000000
2.666500 0.000000
2.711500 0.000000
2.756500 0.000000
2.801400 0.000000
2.846400 0.000000
2.891400 0.000000
2.936400 0.000000
2.981300 0.000000
3.026300 0.000000
3.071300 0.000000
3.116300 0.000000
3.161300 0.000000
3.206200 0.000000
3.251200 0.000000
3.296200 0.000000
3.341200 0.000000
3.386100 0.000000
3.431100 0.000000
3.476100 0.000000
3.521100 0.000000
3.566000 0.000000
3.611000 0.000000
3.656000 0.000000
3.701000 0.000000
3.746000 0.000000
3.790900 0.000000
3.835900 0.524300
3.880900 0.883600
3.925900 1.193600
3.970800 1.574100
4.015800 2.224500
4.060800 2.870300
4.105800 2.746500
4.150800 2.856100
4.195700 3.245000
4.240700 4.294700
4.285700 3.237700
4.330700 2.980800
4.375600 3.054700
4.420600 3.033700
4.465600 3.048100
4.510600 3.379900
4.555500 2.343000
4.600500 1.387300
4.645500 0.206400
4.690500 0.944200
4.735500 1.878800
4.780400 2.692400
4.825400 2.879600
4.870400 2.908300
4.915400 2.982600
4.960300 3.351200
5.005300 3.544400
5.050300 3.229300
5.095300 3.079400
5.140300 3.131700
5.185200 3.275300
5.230200 3.417500
5.275200 3.108100
5.320200 2.813600
5.365100 2.128800
5.410100 1.379600
5.455100 1.059800
5.500100 0.609300
5.545000 0.519700
5.590000 0.536700
5.635000 0.553700
5.680000 0.570700
5.725000 0.587700
5.769900 0.604700
5.814900 0.621600
5.859900 0.638500
5.904900 0.651500
5.949800 0.618900
5.994800 0.585800
6.039800 0.554100
6.084800 0.531000
6.129700 0.519100
6.174700 0.516300
6.219700 0.527400
6.264700 0.540100
6.309700 0.552800
6.354600 0.565500
6.399600 0.578300
6.444600 0.591000
6.489600 0.603700
6.534500 0.616400
6.579500 0.629100
6.624500 0.641700
6.669500 0.654400
6.714500 0.667100
6.759400 0.679800
6.804400 0.692500
6.849400 0.705100
6.894400 0.720900
6.939300 0.758300
6.984300 0.837100
7.029300 0.940100
7.074300 1.030900
7.119200 1.183500
7.164200 1.305900
7.209200 1.300200
7.254200 1.233200
7.299200 1.165900
7.344100 1.098500
7.389100 1.042500
7.434100 1.009300
7.479100 0.986600
7.524000 0.974400
7.569000 0.975000
7.614000 1.001800
7.659000 1.093300
7.703900 1.233900
7.748900 1.569300
7.793900 1.993200
7.838900 2.490800
7.883900 64.637100
7.928800 3.311500
7.973800 2.595700
8.018800 2.061800
8.063800 1.761900
8.108700 1.552900
8.153700 1.394400
8.198700 1.266000
8.243700 1.050100
8.288700 0.852000
8.333600 0.711300
8.378600 0.630700
8.423600 0.663100
8.468600 0.722500
8.513500 0.796600
8.558500 0.880900
8.603500 1.298500
8.648500 3.571700
8.693400 4.323000
8.738400 5.382600
8.783400 5.641300
8.828400 4.295300
8.873400 1.934900
8.918300 1.377600
8.963300 1.177800
9.008300 1.161900
9.053300 1.191000
9.098200 1.254100
9.143200 1.397800
9.188200 1.594900
9.233200 1.765400
9.278200 1.876900
9.323100 1.726900
9.368100 1.673900
9.413100 1.656700
9.458100 1.662700
9.503000 1.676200
9.548000 1.658300
9.593000 1.656100
9.638000 1.702300
9.682900 1.816400
9.727900 1.943800
9.772900 2.077600
9.817900 2.237500
9.862900 2.530400
9.907800 3.061100
9.952800 2.939100
9.997800 1.927400
10.042800 0.789200
10.087700 0.863500
10.132700 1.023700
10.177700 1.189600
10.222700 1.251500
10.267600 1.288600
10.312600 1.433200
10.357600 1.802800
10.402600 2.075800
10.447600 2.355700
10.492500 2.535100
10.537500 2.542700
10.582500 2.587000
10.627500 2.516400
10.672400 2.460800
10.717400 2.402300
10.762400 2.337800
10.807400 2.393300
10.852400 2.333600
10.897300 2.203700
10.942300 2.157900
10.987300 1.458500
11.032300 1.266600
11.077200 1.169900
11.122200 1.089300
11.167200 1.011000
11.212200 1.022300
11.257100 1.096900
11.302100 1.098000
11.347100 0.813500
11.392100 0.511800
11.437100 0.577200
11.482000 0.633700
11.527000 0.691400
11.572000 0.756100
11.617000 0.828800
11.661900 0.915000
11.706900 1.018900
11.751900 1.221600
11.796900 1.529300
11.841900 2.009100
11.886800 3.020100
11.931800 4.814500
11.976800 4.612500
12.021800 4.062400
12.066700 3.544700
12.111700 1.899400
12.156700 1.346700
12.201700 1.113100
12.246600 0.986000
12.291600 0.892500
12.336600 0.873600
12.381600 0.920600
12.426600 0.967300
12.471500 1.065500
12.516500 1.258200
12.561500 1.436000
12.606500 1.570700
12.651400 1.707400
12.696400 1.845100
12.741400 2.017800
12.786400 2.397100
12.831300 2.638900
12.876300 2.279100
12.921300 1.516700
12.966300 1.494900
13.011300 1.464900
13.056200 1.427900
13.101200 1.598300
13.146200 1.105300
13.191200 1.081000
13.236100 1.046600
13.281100 1.033400
13.326100 1.021500
13.371100 1.011200
13.416100 1.002200
13.461000 1.217100
13.506000 1.685200
13.551000 1.888000
13.596000 1.928400
13.640900 1.960000
13.685900 2.069600
13.730900 2.201700
13.775900 2.315000
13.820800 2.519200
13.865800 2.617800
13.910800 2.679200
13.955800 2.640500
14.000800 2.543100
14.045700 2.186000
14.090700 2.046700
14.135700 3.035600
14.180700 3.921600
14.225600 4.607700
14.270600 5.883700
14.315600 4.411600
14.360600 2.881800
14.405500 1.166100
14.450500 0.924400
14.495500 0.939800
14.540500 1.373700
14.585500 1.750500
14.630400 1.845900
14.675400 1.899300
14.720400 1.920700
14.765400 1.874900
14.810300 1.662300
14.855300 1.609300
14.900300 1.563400
14.945300 1.508600
14.990300 1.448900
15.035200 1.502300
15.080200 1.546400
15.125200 1.584000
15.170200 1.590500
15.215100 1.647400
15.260100 1.744700
15.305100 2.091300
15.350100 2.022200
15.395000 2.090200
15.440000 2.215700
15.485000 2.527500
15.530000 2.134500
15.575000 1.952400
15.619900 1.835600
15.664900 1.767100
15.709900 1.666500
15.754900 1.583200
15.799800 1.552600
15.844800 1.585000
15.889800 1.798300
15.934800 1.604700
15.979800 1.571200
16.024700 1.538100
16.069700 1.517000
16.114700 1.515400
16.159700 1.512900
16.204600 1.510300
16.249600 1.507800
16.294600 1.505600
16.339600 1.513400
16.384500 1.504400
16.429500 1.510600
16.474500 1.526500
16.519500 1.525300
16.564500 1.512000
16.609400 1.479600
16.654400 1.427900
16.699400 1.357000
16.744400 1.266900
16.789300 1.154900
16.834300 1.210400
16.879300 0.860400
16.924300 0.713700
16.969200 0.634700
17.014200 0.603700
17.059200 0.660300
17.104200 0.726700
17.149200 0.790600
17.194100 0.851800
17.239100 1.094300
17.284100 1.055500
17.329100 1.062000
17.374000 1.100000
17.419000 1.134600
17.464000 1.187100
17.509000 1.270600
17.554000 1.411200
17.598900 1.901900
17.643900 2.606300
17.688900 2.957200
17.733900 3.042000
17.778800 2.823700
17.823800 2.695200
17.868800 2.543200
17.913800 2.192800
17.958700 2.019100
18.003700 1.951000
18.048700 1.936100
18.093700 1.950800
18.138700 1.977000
18.183600 1.942200
18.228600 1.860500
18.273600 1.876300
18.318600 1.905800
18.363500 1.946800
18.408500 1.928000
18.453500 1.837100
18.498500 1.767800
18.543500 1.743600
18.588400 1.744000
18.633400 1.717900
18.678400 1.637800
18.723400 1.702200
18.768300 1.718700
18.813300 1.715300
18.858300 1.768300
18.903300 1.977500
18.948200 2.284900
18.993200 2.452100
19.038200 2.707200
19.083200 2.957100
19.128200 3.100100
19.173100 3.303500
19.218100 3.255600
19.263100 3.003800
19.308100 2.671200
19.353000 2.287200
19.398000 2.124800
19.443000 2.040700
19.488000 1.999700
19.532900 2.065000
19.577900 1.908300
19.622900 1.997300
19.667900 2.240700
19.712900 2.471900
19.757800 2.621700
19.802800 2.546600
19.847800 2.417000
19.892800 2.460500
19.937700 2.679200
19.982700 3.102700
20.027700 2.989000
20.072700 2.934200
20.117700 2.589200
20.162600 2.457900
20.207600 2.437900
20.252600 2.416600
20.297600 2.426700
20.342500 2.484500
20.387500 2.508500
20.432500 2.422700
20.477500 2.194300
20.522400 1.983600
20.567400 1.957200
20.612400 1.977400
20.657400 2.033800
20.702400 2.125200
20.747300 2.236400
20.792300 2.631100
20.837300 2.898200
20.882300 2.878200
20.927200 2.788700
20.972200 2.627300
21.017200 2.466300
21.062200 2.442300
21.107200 2.470000
21.152100 2.528700
21.197100 2.658400
21.242100 2.474600
21.287100 2.226300
21.332000 2.018500
21.377000 1.904100
21.422000 1.929200
21.467000 2.027200
21.511900 2.154300
21.556900 2.297300
21.601900 2.466800
21.646900 2.919200
21.691900 2.966800
21.736800 2.867700
21.781800 2.867900
21.826800 2.560400
21.871800 2.468500
21.916700 2.322000
21.961700 2.111700
22.006700 2.128600
22.051700 2.155200
22.096600 2.241800
22.141600 2.459300
22.186600 2.766500
22.231600 3.183400
22.276600 3.365600
22.321500 3.821700
22.366500 4.305200
22.411500 4.408800
22.456500 3.324300
22.501400 3.463000
22.546400 2.505900
22.591400 2.309000
22.636400 2.228100
22.681400 2.236800
22.726300 2.385300
22.771300 2.512000
22.816300 2.695700
22.861300 2.894100
22.906200 3.078500
22.951200 3.264200
22.996200 3.396500
23.041200 3.194500
23.086100 2.974600
23.131100 2.519500
23.176100 2.234500
23.221100 1.959800
23.266100 1.818100
23.311000 1.965200
23.356000 2.260800
23.401000 2.412600
23.446000 2.533500
23.490900 2.458500
23.535900 2.406400
23.580900 2.300700
23.625900 2.226700
23.670800 2.182500
23.715800 2.370300
23.760800 2.469800
23.805800 2.471200
23.850800 2.528500
23.895700 2.563200
23.940700 2.533300
23.985700 2.452100
24.030700 2.362600
24.075600 2.294400
24.120600 2.277900
24.165600 2.217300
24.210600 2.016400
24.255600 1.983500
24.300500 1.938700
24.345500 1.880400
24.390500 1.806300
24.435500 1.760500
24.480400 1.815100
24.525400 1.917800
24.570400 1.959100
24.615400 1.874300
24.660300 1.675500
24.705300 1.509000
24.750300 1.431200
24.795300 1.411300
24.840300 1.443200
24.885200 1.570500
24.930200 1.610600
24.975200 1.566600
25.020200 1.463900
25.065100 1.413700
25.110100 1.354200
25.155100 1.338100
25.200100 1.307700
25.245100 1.316600
25.290000 1.427400
25.335000 1.644300
25.380000 2.006000
25.425000 2.658900
25.469900 2.990500
25.514900 3.222200
25.559900 3.303100
25.604900 3.156300
25.649800 2.864800
25.694800 2.571400
25.739800 2.056400
25.784800 1.987300
25.829800 1.991100
25.874700 2.161600
25.919700 2.406300
25.964700 2.520100
26.009700 2.371900
26.054600 1.994100
26.099600 1.926300
26.144600 2.000200
26.189600 1.922900
26.234500 2.081200
26.279500 2.121100
26.324500 1.979100
26.369500 1.960100
26.414500 1.975600
26.459400 2.053900
26.504400 2.088500
26.549400 2.106300
26.594400 2.120000
26.639300 2.129700
26.684300 2.135300
26.729300 2.215800
26.774300 2.314200
26.819300 2.307800
26.864200 2.334300
26.909200 2.098500
26.954200 2.128500
26.999200 2.210100
27.044100 2.341800
27.089100 2.482800
27.134100 2.630700
27.179100 2.799800
27.224000 3.094800
27.269000 3.102000
27.314000 2.982600
27.359000 2.854000
27.404000 2.863300
27.448900 2.621700
27.493900 2.566900
27.538900 2.533400
27.583900 2.599100
27.628800 2.685800
27.673800 2.727900
27.718800 2.633100
27.763800 2.616800
27.808800 2.743200
27.853700 3.339600
27.898700 3.776800
27.943700 4.887700
27.988700 3.951200
28.033600 3.249600
28.078600 2.756600
28.123600 2.523400
28.168600 2.277100
28.213500 2.322700
28.258500 2.551500
28.303500 2.785600
28.348500 2.835000
28.393500 2.997500
28.438400 3.505100
28.483400 3.576500
28.528400 4.010600
28.573400 3.639600
28.618300 3.546100
28.663300 2.787200
28.708300 2.477200
28.753300 2.168200
28.798200 1.991900
28.843200 1.939700
28.888200 2.070200
28.933200 2.285900
28.978200 2.482100
29.023100 2.470700
29.068100 2.356200
29.113100 2.281100
29.158100 2.256300
29.203000 2.279900
29.248000 2.350900
29.293000 2.500700
29.338000 2.749100
29.383000 3.199900
29.427900 1.975700
29.472900 1.983100
29.517900 2.056100
29.562900 2.254800
29.607800 2.507000
29.652800 2.787000
29.697800 2.967300
29.742800 2.929800
29.787700 2.881200
29.832700 2.778600
29.877700 2.475000
29.922700 2.146900
29.967700 1.956500
30.012600 1.809200
30.057600 1.869000
30.102600 2.029300
30.147600 2.122300
30.192500 2.334600
30.237500 2.565600
30.282500 2.532100
30.327500 2.475400
30.372400 2.584300
30.417400 2.737500
30.462400 2.852600
30.507400 2.892500
30.552400 2.935200
30.597300 3.076900
30.642300 3.569400
30.687300 3.616200
30.732300 3.382900
30.777200 3.091200
30.822200 2.836000
30.867200 2.625200
30.912200 2.576800
30.957200 2.625600
31.002100 2.608400
31.047100 2.521200
31.092100 2.394200
31.137100 2.270900
31.182000 2.217100
31.227000 2.357800
31.272000 2.447100
31.317000 2.516000
31.361900 2.370000
31.406900 2.022900
31.451900 1.747700
31.496900 1.659000
31.541900 1.623500
31.586800 1.603100
31.631800 1.597300
31.676800 1.605600
31.721800 1.637600
31.766700 1.779800
31.811700 2.005700
31.856700 2.331800
31.901700 3.684500
31.946700 2.669600
31.991600 2.712800
32.036600 2.250900
32.081600 2.238900
32.126600 2.185700
32.171500 2.039800
32.216500 2.083700
32.261500 2.194600
32.306500 2.283100
32.351400 2.235400
32.396400 2.175900
32.441400 2.262700
32.486400 2.345900
32.531400 2.347900
32.576300 2.329300
32.621300 2.349600
32.666300 2.475700
32.711300 2.160300
32.756200 2.469800
32.801200 2.772200
32.846200 3.444300
32.891200 3.995400
32.936100 3.770500
32.981100 3.174200
33.026100 2.750200
33.071100 2.482000
33.116100 2.380200
33.161000 2.379600
33.206000 2.035900
33.251000 2.004300
33.296000 1.979300
33.340900 1.997500
33.385900 2.026900
33.430900 2.024600
33.475900 2.036700
33.520900 2.058800
33.565800 2.095300
33.610800 2.155600
33.655800 2.315300
33.700800 2.331100
33.745700 2.091000
33.790700 2.194400
33.835700 2.334200
33.880700 2.486400
33.925600 2.564600
33.970600 2.307300
34.015600 2.094000
34.060600 1.975000
34.105600 1.942900
34.150500 2.708600
34.195500 2.210400
34.240500 2.200300
34.285500 2.290600
34.330400 2.479000
34.375400 2.486700
34.420400 2.227700
34.465400 2.105300
34.510400 2.104000
34.555300 2.260300
34.600300 2.606200
34.645300 2.699700
34.690300 2.791700
34.735200 2.925300
34.780200 3.059700
34.825200 3.052200
34.870200 3.028500
34.915100 3.138100
34.960100 3.155100
35.005100 3.114800
35.050100 3.047900
35.095100 2.990100
35.140000 2.951300
35.185000 2.891000
35.230000 2.647200
35.275000 2.649300
35.319900 2.730600
35.364900 2.798800
35.409900 2.862800
35.454900 2.894200
35.499800 2.987000
35.544800 3.129000
35.589800 3.323600
35.634800 3.469000
35.679800 3.527500
35.724700 3.452400
35.769700 3.236800
35.814700 3.035600
35.859700 2.811400
35.904600 2.634800
35.949600 2.532200
35.994600 2.433200
36.039600 2.429500
36.084600 2.436200
36.129500 2.407600
36.174500 2.353900
36.219500 2.306200
36.264500 2.322300
36.309400 2.536300
36.354400 2.728300
36.399400 2.793500
36.444400 2.746000
36.489300 3.107800
36.534300 2.971400
36.579300 2.987700
36.624300 2.886200
36.669300 2.782200
36.714200 2.674000
36.759200 2.555300
36.804200 2.436000
36.849200 2.758500
36.894100 2.555400
36.939100 2.638000
36.984100 2.667900
37.029100 2.825300
37.074000 2.996000
37.119000 3.163000
37.164000 3.283000
37.209000 3.388900
37.254000 3.333400
37.298900 3.218400
37.343900 3.180600
37.388900 3.189300
37.433900 3.319400
37.478800 3.476200
37.523800 3.444100
37.568800 2.926100
37.613800 2.812200
37.658800 2.867800
37.703700 2.923700
37.748700 2.964600
37.793700 3.021400
37.838700 3.111600
37.883600 3.188800
37.928600 3.178100
37.973600 3.171100
38.018600 3.169800
38.063500 3.107000
38.108500 2.962800
38.153500 2.937300
38.198500 2.833800
38.243500 2.806800
38.288400 2.826000
38.333400 2.687700
38.378400 2.883400
38.423400 3.062400
38.468300 3.294300
38.513300 3.633000
38.558300 3.681600
38.603300 3.705000
38.648300 3.580100
38.693200 3.387600
38.738200 2.848400
38.783200 2.666000
38.828200 2.633500
38.873100 2.608500
38.918100 2.526900
38.963100 2.429300
39.008100 2.426500
39.053000 2.341100
39.098000 2.254100
39.143000 2.151400
39.188000 2.065200
39.233000 2.098400
39.277900 2.176700
39.322900 2.283000
39.367900 2.400400
39.412900 2.594000
39.457800 2.838000
39.502800 3.121700
39.547800 3.422000
39.592800 3.334800
39.637700 3.128500
39.682700 2.843300
39.727700 2.527200
39.772700 2.518300
39.817700 2.546700
39.862600 2.593700
39.907600 2.512500
39.952600 2.739900
39.997600 2.824500
40.042500 2.841400
40.087500 2.807600
40.132500 2.815100
40.177500 2.967700
40.222500 3.938800
40.267400 3.227200
40.312400 2.261100
40.357400 2.381000
40.402400 2.512200
40.447300 2.671800
40.492300 2.893500
40.537300 3.041000
40.582300 3.176400
40.627200 3.261700
40.672200 3.287800
40.717200 3.274300
40.762200 3.331600
40.807200 3.248400
40.852100 3.065200
40.897100 2.707900
40.942100 2.460500
40.987100 2.297300
41.032000 2.242700
41.077000 2.213100
41.122000 2.225700
41.167000 2.274300
41.212000 2.334400
41.256900 2.396300
41.301900 2.847800
41.346900 2.911100
41.391900 3.196900
41.436800 3.409700
41.481800 3.553300
41.526800 3.757900
41.571800 4.118800
41.616700 4.455200
41.661700 4.139200
41.706700 2.831300
41.751700 2.573400
41.796700 2.474300
41.841600 2.449500
41.886600 2.486700
41.931600 2.658700
41.976600 2.973400
42.021500 2.902800
42.066500 3.023500
42.111500 3.122100
42.156500 3.177400
42.201400 3.029900
42.246400 3.126100
42.291400 3.494500
42.336400 3.849500
42.381400 3.738600
42.426300 3.026800
42.471300 2.888200
42.516300 2.764600
42.561300 2.673400
42.606200 4.586900
42.651200 3.887300
42.696200 5.056500
42.741200 4.693900
42.786200 4.449600
42.831100 4.112500
42.876100 3.760400
42.921100 3.422600
42.966100 3.123200
43.011000 2.941400
43.056000 2.850400
43.101000 2.803500
43.146000 2.749800
43.190900 2.878000
43.235900 3.288200
43.280900 4.447800
43.325900 4.438100
43.370900 4.323800
43.415800 3.920400
43.460800 3.387500
43.505800 3.117600
43.550800 3.067000
43.595700 3.028700
43.640700 3.014100
43.685700 2.984700
43.730700 2.979700
43.775600 3.012200
43.820600 3.314500
43.865600 3.459000
43.910600 3.410900
43.955600 3.225400
44.000500 3.488400
44.045500 3.779700
44.090500 3.952900
44.135500 3.919500
44.180400 4.843900
44.225400 4.081300
44.270400 3.344600
44.315400 2.797500
44.360400 2.434200
44.405300 2.072700
44.450300 1.835000
44.495300 2.751600
44.540300 3.095900
44.585200 3.255800
44.630200 3.305100
44.675200 3.370400
44.720200 3.157400
44.765100 3.041000
44.810100 2.786000
44.855100 2.584900
44.900100 2.624300
44.945100 2.698500
44.990000 2.813200
45.035000 2.954200
45.080000 3.094700
45.125000 3.289400
45.169900 3.537000
45.214900 4.216100
45.259900 5.606000
45.304900 4.886500
45.349900 4.005100
45.394800 3.525900
45.439800 3.243100
45.484800 3.172800
45.529800 3.158200
45.574700 3.301700
45.619700 3.312900
45.664700 2.912700
45.709700 2.654700
45.754600 2.531900
45.799600 2.536500
45.844600 2.546500
45.889600 2.570900
45.934600 2.621000
45.979500 2.674300
46.024500 2.747700
46.069500 2.910600
46.114500 3.101600
46.159400 3.296800
46.204400 3.371800
46.249400 3.390900
46.294400 3.587800
46.339300 3.724500
46.384300 3.725800
46.429300 3.626300
46.474300 3.528300
46.519300 3.448400
46.564200 3.273200
46.609200 3.043700
46.654200 2.733400
46.699200 2.497200
46.744100 2.664100
46.789100 2.786600
46.834100 2.839400
46.879100 2.879100
46.924100 2.583100
46.969000 2.446200
47.014000 2.353500
47.059000 2.319000
47.104000 2.475900
47.148900 2.660500
47.193900 2.977100
47.238900 3.340100
47.283900 3.788100
47.328800 4.131100
47.373800 4.563100
47.418800 4.167700
47.463800 3.494200
47.508800 3.313300
47.553700 3.123200
47.598700 2.963800
47.643700 2.821900
47.688700 2.805200
47.733600 2.905900
47.778600 3.214700
47.823600 3.426100
47.868600 3.456500
47.913600 3.564200
47.958500 3.481600
48.003500 3.936500
48.048500 4.440100
48.093500 4.047500
48.138400 3.356300
48.183400 2.927200
48.228400 2.785600
48.273400 2.845500
48.318300 3.032100
48.363300 3.127800
48.408300 3.638900
48.453300 3.309800
48.498300 3.090000
48.543200 2.880900
48.588200 2.685400
48.633200 2.639800
48.678200 2.647700
48.723100 2.631200
48.768100 2.612300
48.813100 2.563800
48.858100 2.506800
48.903000 2.442300
48.948000 2.374200
48.993000 2.301900
49.038000 2.297300
49.083000 2.338100
49.127900 2.340800
49.172900 2.321800
49.217900 2.373400
49.262900 2.432400
49.307800 2.212400
49.352800 2.263700
49.397800 2.342100
49.442800 2.439600
49.487800 2.585500
49.532700 2.741000
49.577700 2.582600
49.622700 2.573100
49.667700 2.581000
49.712600 2.601100
49.757600 2.602300
49.802600 2.592900
49.847600 2.618900
49.892500 2.690400
49.937500 2.792900
49.982500 3.101200
50.027500 3.460600
50.072500 3.728400
50.117400 3.743900
50.162400 3.503400
50.207400 3.372100
50.252400 3.107600
50.297300 2.748400
50.342300 2.748100
50.387300 2.824000
50.432300 2.901200
50.477200 2.952700
50.522200 2.997000
50.567200 3.054900
50.612200 3.109100
50.657200 3.129400
50.702100 3.127900
50.747100 3.182500
50.792100 3.163700
50.837100 3.362500
50.882000 3.408100
50.927000 3.412100
50.972000 3.406000
51.017000 3.448200
51.062000 3.597300
51.106900 3.845200
51.151900 4.001000
51.196900 4.194300
51.241900 4.181900
51.286800 3.976500
51.331800 3.707400
51.376800 3.526500
51.421800 3.216100
51.466700 3.026500
51.511700 3.040100
51.556700 2.849000
51.601700 2.887600
51.646700 3.072400
51.691600 3.376200
51.736600 3.612600
51.781600 3.432200
51.826600 3.540400
51.871500 3.382000
51.916500 2.903100
51.961500 2.523500
52.006500 2.633100
52.051500 2.710900
52.096400 2.747200
52.141400 2.754800
52.186400 2.732100
52.231400 2.608100
52.276300 2.522700
52.321300 2.484300
52.366300 2.441800
52.411300 2.400200
52.456200 2.397500
52.501200 2.461800
52.546200 2.564800
52.591200 2.813100
52.636200 3.010400
52.681100 3.191400
52.726100 3.350000
52.771100 3.429700
52.816100 3.196100
52.861000 3.115800
52.906000 3.128300
52.951000 3.374700
52.996000 3.485400
53.040900 3.516200
53.085900 3.472400
53.130900 3.456200
53.175900 3.382200
53.220900 3.335900
53.265800 3.284900
53.310800 3.220700
53.355800 3.204200
53.400800 3.188900
53.445700 3.169600
53.490700 3.340800
53.535700 4.311900
53.580700 3.744900
53.625700 3.261700
53.670600 2.915200
53.715600 2.818300
53.760600 2.836400
53.805600 2.953600
53.850500 3.153300
53.895500 3.326900
53.940500 3.479900
53.985500 3.651800
54.030400 3.181000
54.075400 3.074100
54.120400 2.908000
54.165400 2.775800
54.210400 2.678200
54.255300 2.606500
54.300300 2.603400
54.345300 2.826400
54.390300 3.071400
54.435200 3.102800
54.480200 2.878500
54.525200 2.773900
54.570200 2.749800
54.615200 2.762100
54.660100 2.746100
54.705100 2.793500
54.750100 2.874400
54.795100 2.936200
54.840000 3.010100
54.885000 3.098600
54.930000 3.178700
54.975000 3.218900
55.019900 3.219200
55.064900 3.209500
55.109900 3.213000
55.154900 3.081100
55.199900 2.955300
55.244800 2.915300
55.289800 2.892200
55.334800 2.901600
55.379800 2.961000
55.424700 3.055300
55.469700 3.225200
55.514700 3.790600
55.559700 3.652000
55.604600 3.417300
55.649600 3.401900
55.694600 3.441100
55.739600 3.409900
55.784600 3.452900
55.829500 3.602600
55.874500 3.761900
55.919500 3.905500
55.964500 4.018300
56.009400 3.892100
56.054400 3.382900
56.099400 3.163500
56.144400 3.195600
56.189400 3.170800
56.234300 3.055200
56.279300 2.901500
56.324300 2.865000
56.369300 2.914700
56.414200 2.984900
56.459200 3.020800
56.504200 3.080400
56.549200 3.072900
56.594100 3.027600
56.639100 2.952100
56.684100 2.860600
56.729100 2.819400
56.774100 2.696200
56.819000 2.573600
56.864000 2.513500
56.909000 2.561200
56.954000 2.586600
56.998900 2.615000
57.043900 2.648000
57.088900 2.685700
57.133900 2.746500
57.178800 2.855100
57.223800 3.037200
57.268800 3.292300
57.313800 3.338000
57.358800 3.360400
57.403700 3.341900
57.448700 3.298200
57.493700 3.252200
57.538700 3.122100
57.583600 2.978100
57.628600 2.831800
57.673600 2.721400
57.718600 2.612600
57.763600 2.485400
57.808500 2.400900
57.853500 2.337500
57.898500 2.286500
57.943500 2.314500
57.988400 2.390600
58.033400 2.442700
58.078400 2.402700
58.123400 2.344700
58.168300 2.275900
58.213300 2.138400
58.258300 1.931800
58.303300 1.702300
58.348300 1.552600
58.393200 1.487900
58.438200 1.615100
58.483200 1.766300
58.528200 1.779000
58.573100 1.582200
58.618100 1.285800
58.663100 0.653800
58.708100 0.413600
58.753100 0.249600
58.798000 0.151200
58.843000 0.114100
58.888000 0.117900
58.933000 0.115800
58.977900 0.101900
59.022900 0.076200
59.067900 0.038700
59.112900 0.011300
59.157800 0.001000
59.202800 0.000000
59.247800 0.000000
59.292800 0.000000
59.337800 0.000000
59.382700 0.000000
59.427700 0.000000
59.472700 0.000000
59.517700 0.000000
59.562600 0.000000
59.607600 0.000000
59.652600 0.000000
59.697600 0.000000
59.742500 0.000000
59.787500 0.000000
59.832500 0.000000
59.877500 0.000000
59.922500 0.000000
59.967400 0.000000
60.012400 0.000000
60.057400 0.000000
60.102400 0.000000
60.147300 0.000000
60.192300 0.000000
60.237300 0.000000
60.282300 0.000000
60.327300 0.000000
60.372200 0.000000
60.417200 0.000000
60.462200 0.000000
60.507200 0.000000
60.552100 0.000000
60.597100 0.000000
60.642100 0.000000
60.687100 0.000000
60.732000 0.000000
60.777000 0.000000
60.822000 0.000000
60.867000 0.000000
60.912000 0.000000
60.956900 0.000000
61.001900 0.000000
61.046900 0.000000
61.091900 0.000000
61.136800 0.000000
61.181800 0.000000
61.226800 0.000000
61.271800 0.000000
61.316800 0.000000
61.361700 0.000000
61.406700 0.000000
61.451700 0.000000
61.496700 0.000000
61.541600 0.000000
61.586600 0.000000
61.631600 0.000000
61.676600 0.000000
61.721500 0.000000
61.766500 0.000000
61.811500 0.000000
61.856500 0.000000
61.901500 0.000000
61.946400 0.000000
61.991400 0.000000
62.036400 0.000000
62.081400 0.000000
62.126300 0.000000
62.171300 0.000000
62.216300 0.000000
62.261300 0.000000
62.306200 0.000000
62.351200 0.000000
62.396200 0.000000
62.441200 0.000000
62.486200 0.000000
62.531100 0.000000
62.576100 0.000000
62.621100 0.000000
62.666100 0.000000
62.711000 0.000000
62.756000 0.000000
62.801000 0.000000
62.846000 0.000000
62.891000 0.000000
62.935900 0.000000
62.980900 0.000000
63.025900 0.000000
63.070900 0.000000
63.115800 0.000000
63.160800 0.000000
63.205800 0.000000
63.250800 0.000000
e
