set title 'mp-21377 - Density of States'
set xlabel 'Energy (eV)'
set ylabel 'DOS (states/eV)'
set grid
set xrange [-10:10]
set yrange [0:2.510]
set xzeroaxis lt -1
set terminal png size 800,600
set output 'mp-21377_dos_gnuplot.png'
plot '-' using 1:2 with lines title 'DOS'
-46.389400 0.000000
-46.294700 0.000000
-46.200100 0.000000
-46.105400 0.000000
-46.010800 0.000000
-45.916200 0.000000
-45.821500 0.000000
-45.726900 0.000000
-45.632200 0.000000
-45.537600 0.000000
-45.442900 0.000000
-45.348300 0.000000
-45.253700 0.000000
-45.159000 0.000000
-45.064400 0.000000
-44.969700 0.000000
-44.875100 0.000000
-44.780400 0.000000
-44.685800 0.000000
-44.591200 0.000000
-44.496500 0.000000
-44.401900 0.000000
-44.307200 0.000000
-44.212600 0.000000
-44.118000 0.000000
-44.023300 0.000000
-43.928700 0.000000
-43.834000 0.000000
-43.739400 0.000000
-43.644700 0.000000
-43.550100 0.000000
-43.455500 0.000000
-43.360800 0.000000
-43.266200 0.000000
-43.171500 0.000000
-43.076900 0.000000
-42.982200 0.000000
-42.887600 0.000000
-42.793000 0.000000
-42.698300 0.000000
-42.603700 0.000000
-42.509000 0.000000
-42.414400 0.000000
-42.319700 0.000000
-42.225100 0.000000
-42.130500 0.000000
-42.035800 0.000000
-41.941200 0.000000
-41.846500 0.000000
-41.751900 0.000000
-41.657300 0.000000
-41.562600 0.000000
-41.468000 0.000000
-41.373300 0.000000
-41.278700 0.000000
-41.184000 0.000000
-41.089400 0.000000
-40.994800 0.000000
-40.900100 0.000000
-40.805500 0.000000
-40.710800 0.000000
-40.616200 0.000000
-40.521500 0.000000
-40.426900 0.000000
-40.332300 0.000000
-40.237600 0.000000
-40.143000 0.000000
-40.048300 0.000000
-39.953700 0.000000
-39.859000 0.000000
-39.764400 0.000000
-39.669800 0.000000
-39.575100 0.000000
-39.480500 0.000000
-39.385800 0.000000
-39.291200 0.000000
-39.196500 0.000000
-39.101900 0.000000
-39.007300 0.000000
-38.912600 0.000000
-38.818000 0.000000
-38.723300 0.000000
-38.628700 0.000000
-38.534100 0.000000
-38.439400 0.000000
-38.344800 0.000000
-38.250100 0.000000
-38.155500 0.000000
-38.060800 0.000000
-37.966200 0.000000
-37.871600 0.000000
-37.776900 1.853700
-37.682300 39.059900
-37.587600 0.000000
-37.493000 0.000000
-37.398300 0.000000
-37.303700 0.000000
-37.209100 0.000000
-37.114400 0.000000
-37.019800 0.000000
-36.925100 0.000000
-36.830500 0.000000
-36.735800 0.000000
-36.641200 0.000000
-36.546600 0.000000
-36.451900 0.000000
-36.357300 0.000000
-36.262600 0.000000
-36.168000 0.000000
-36.073300 0.000000
-35.978700 0.000000
-35.884100 0.000000
-35.789400 0.000000
-35.694800 0.000000
-35.600100 0.000000
-35.505500 0.000000
-35.410900 0.000000
-35.316200 0.000000
-35.221600 0.000000
-35.126900 0.000000
-35.032300 0.000000
-34.937600 0.000000
-34.843000 0.000000
-34.748400 0.000000
-34.653700 0.000000
-34.559100 0.000000
-34.464400 0.000000
-34.369800 0.000000
-34.275100 0.000000
-34.180500 0.000000
-34.085900 0.000000
-33.991200 0.000000
-33.896600 0.000000
-33.801900 0.000000
-33.707300 0.000000
-33.612600 0.000000
-33.518000 0.000000
-33.423400 0.000000
-33.328700 0.000000
-33.234100 0.000000
-33.139400 0.000000
-33.044800 0.000000
-32.950100 0.000000
-32.855500 0.000000
-32.760900 0.000000
-32.666200 0.000000
-32.571600 0.000000
-32.476900 0.000000
-32.382300 0.000000
-32.287700 0.000000
-32.193000 0.000000
-32.098400 0.000000
-32.003700 0.000000
-31.909100 0.000000
-31.814400 0.000000
-31.719800 0.000000
-31.625200 0.000000
-31.530500 0.000000
-31.435900 0.000000
-31.341200 0.000000
-31.246600 0.000000
-31.151900 0.000000
-31.057300 0.000000
-30.962700 0.000000
-30.868000 0.000000
-30.773400 0.000000
-30.678700 0.000000
-30.584100 0.000000
-30.489400 0.000000
-30.394800 0.000000
-30.300200 0.000000
-30.205500 0.000000
-30.110900 0.000000
-30.016200 0.000000
-29.921600 0.000000
-29.826900 0.000000
-29.732300 0.000000
-29.637700 0.000000
-29.543000 0.000000
-29.448400 0.000000
-29.353700 0.000000
-29.259100 0.000000
-29.164500 0.000000
-29.069800 0.000000
-28.975200 0.000000
-28.880500 0.000000
-28.785900 0.000000
-28.691200 0.000000
-28.596600 0.000000
-28.502000 0.000000
-28.407300 0.000000
-28.312700 0.000000
-28.218000 0.000000
-28.123400 0.000000
-28.028700 0.000000
-27.934100 0.000000
-27.839500 0.000000
-27.744800 0.000000
-27.650200 0.000000
-27.555500 0.000000
-27.460900 0.000000
-27.366200 0.000000
-27.271600 0.000000
-27.177000 0.000000
-27.082300 0.000000
-26.987700 0.000000
-26.893000 0.000000
-26.798400 0.000000
-26.703700 0.000000
-26.609100 0.000000
-26.514500 0.000000
-26.419800 0.000000
-26.325200 0.000000
-26.230500 0.000000
-26.135900 0.000000
-26.041300 0.000000
-25.946600 0.000000
-25.852000 0.000000
-25.757300 0.000000
-25.662700 0.000000
-25.568000 0.000000
-25.473400 0.000000
-25.378800 0.000000
-25.284100 0.000000
-25.189500 0.000000
-25.094800 0.000000
-25.000200 0.000000
-24.905500 0.000000
-24.810900 0.000000
-24.716300 0.000000
-24.621600 0.000000
-24.527000 0.000000
-24.432300 0.000000
-24.337700 0.000000
-24.243000 0.000000
-24.148400 0.000000
-24.053800 0.000000
-23.959100 0.000000
-23.864500 0.000000
-23.769800 0.000000
-23.675200 0.000000
-23.580500 0.000000
-23.485900 0.000000
-23.391300 0.000000
-23.296600 0.000000
-23.202000 0.000000
-23.107300 0.000000
-23.012700 0.000000
-22.918100 0.000000
-22.823400 0.000000
-22.728800 0.000000
-22.634100 0.000000
-22.539500 0.000000
-22.444800 0.000000
-22.350200 0.000000
-22.255600 0.000000
-22.160900 0.000000
-22.066300 0.000000
-21.971600 0.000000
-21.877000 0.000000
-21.782300 0.000000
-21.687700 0.000000
-21.593100 0.000000
-21.498400 0.000000
-21.403800 0.000000
-21.309100 0.000000
-21.214500 0.000000
-21.119800 0.000000
-21.025200 0.000000
-20.930600 0.000000
-20.835900 0.000000
-20.741300 0.000000
-20.646600 0.000000
-20.552000 0.000000
-20.457300 0.000000
-20.362700 0.000000
-20.268100 0.000000
-20.173400 0.000000
-20.078800 0.000000
-19.984100 0.000000
-19.889500 0.000000
-19.794900 0.000000
-19.700200 0.000000
-19.605600 0.000000
-19.510900 0.000000
-19.416300 0.000000
-19.321600 0.000000
-19.227000 0.000000
-19.132400 0.000000
-19.037700 0.000000
-18.943100 0.000000
-18.848400 0.000000
-18.753800 0.000000
-18.659100 0.000000
-18.564500 0.000000
-18.469900 0.000000
-18.375200 0.000000
-18.280600 0.000000
-18.185900 0.000000
-18.091300 0.000000
-17.996600 0.000000
-17.902000 0.000000
-17.807400 0.000000
-17.712700 2.026800
-17.618100 11.237800
-17.523400 4.667000
-17.428800 4.439900
-17.334100 5.243500
-17.239500 6.438000
-17.144900 12.320700
-17.050200 13.993600
-16.955600 4.929900
-16.860900 0.000000
-16.766300 0.000000
-16.671700 0.000000
-16.577000 0.000000
-16.482400 0.000000
-16.387700 0.000000
-16.293100 0.000000
-16.198400 0.000000
-16.103800 0.000000
-16.009200 0.000000
-15.914500 0.000000
-15.819900 0.000000
-15.725200 0.000000
-15.630600 0.000000
-15.535900 0.000000
-15.441300 0.000000
-15.346700 0.000000
-15.252000 0.000000
-15.157400 0.000000
-15.062700 0.000000
-14.968100 0.000000
-14.873400 0.000000
-14.778800 0.000000
-14.684200 0.000000
-14.589500 0.000000
-14.494900 0.000000
-14.400200 0.000000
-14.305600 0.000000
-14.210900 0.000000
-14.116300 0.000000
-14.021700 0.000000
-13.927000 0.000000
-13.832400 0.000000
-13.737700 0.000000
-13.643100 0.000000
-13.548500 0.000000
-13.453800 0.000000
-13.359200 0.000000
-13.264500 0.000000
-13.169900 0.000000
-13.075200 0.000000
-12.980600 0.000000
-12.886000 0.000000
-12.791300 0.000000
-12.696700 0.000000
-12.602000 0.000000
-12.507400 0.000000
-12.412700 0.000000
-12.318100 0.000000
-12.223500 0.000000
-12.128800 0.000000
-12.034200 0.000000
-11.939500 0.000000
-11.844900 0.000000
-11.750200 0.000000
-11.655600 0.000000
-11.561000 0.000000
-11.466300 0.000000
-11.371700 0.000000
-11.277000 0.000000
-11.182400 0.000000
-11.087700 0.000000
-10.993100 0.000000
-10.898500 0.000000
-10.803800 0.000000
-10.709200 0.000000
-10.614500 0.000000
-10.519900 0.000000
-10.425300 0.000000
-10.330600 0.000000
-10.236000 0.000000
-10.141300 0.000000
-10.046700 0.000000
-9.952000 0.000000
-9.857400 0.000000
-9.762800 0.000000
-9.668100 0.000000
-9.573500 0.000000
-9.478800 0.000000
-9.384200 0.000000
-9.289500 0.000000
-9.194900 0.000000
-9.100300 0.000000
-9.005600 0.000000
-8.911000 0.000000
-8.816300 0.000000
-8.721700 0.000000
-8.627000 0.000000
-8.532400 0.000000
-8.437800 0.000000
-8.343100 0.000000
-8.248500 0.000000
-8.153800 0.000000
-8.059200 0.000000
-7.964600 0.000000
-7.869900 0.000000
-7.775300 0.000000
-7.680600 0.000000
-7.586000 0.000000
-7.491300 0.000000
-7.396700 0.000000
-7.302100 0.000000
-7.207400 0.000000
-7.112800 0.000000
-7.018100 0.000000
-6.923500 0.000000
-6.828800 0.000000
-6.734200 0.000000
-6.639600 0.000000
-6.544900 0.000000
-6.450300 0.000000
-6.355600 0.000000
-6.261000 0.000000
-6.166300 0.000000
-6.071700 0.000000
-5.977100 0.000000
-5.882400 0.000000
-5.787800 0.000000
-5.693100 0.000000
-5.598500 0.000000
-5.503800 0.000000
-5.409200 0.000000
-5.314600 0.000000
-5.219900 0.000000
-5.125300 0.000000
-5.030600 0.000000
-4.936000 0.000000
-4.841400 0.000000
-4.746700 0.000000
-4.652100 0.000000
-4.557400 0.000000
-4.462800 0.000000
-4.368100 0.000000
-4.273500 0.000000
-4.178900 0.000000
-4.084200 0.000000
-3.989600 0.000000
-3.894900 0.000000
-3.800300 0.000000
-3.705600 0.000000
-3.611000 0.000000
-3.516400 0.000000
-3.421700 0.000000
-3.327100 0.000000
-3.232400 0.000000
-3.137800 0.000000
-3.043100 0.000000
-2.948500 0.000000
-2.853900 0.000000
-2.759200 0.000000
-2.664600 0.000000
-2.569900 0.000000
-2.475300 0.000000
-2.380600 0.000000
-2.286000 0.000000
-2.191400 0.000000
-2.096700 0.000000
-2.002100 0.000000
-1.907400 0.000000
-1.812800 0.000000
-1.718200 0.000000
-1.623500 0.000000
-1.528900 0.000000
-1.434200 0.000000
-1.339600 0.000000
-1.244900 0.000000
-1.150300 0.005600
-1.055700 0.038800
-0.961000 0.048800
-0.866400 0.064800
-0.771700 0.075900
-0.677100 0.084700
-0.582400 0.096200
-0.487800 0.108300
-0.393200 0.118200
-0.298500 0.128500
-0.203900 0.139500
-0.109200 0.152000
-0.014600 0.165100
0.080100 0.177600
0.174700 0.191700
0.269300 0.207400
0.364000 0.225100
0.458600 0.244900
0.553300 0.266600
0.647900 0.290800
0.742600 0.323900
0.837200 0.365400
0.931800 0.416800
1.026500 0.489700
1.121100 0.706300
1.215800 0.913600
1.310400 1.177700
1.405000 1.200400
1.499700 1.223800
1.594300 1.202300
1.689000 1.227800
1.783600 1.229300
1.878300 1.195500
1.972900 1.313100
2.067500 1.384100
2.162200 1.431100
2.256800 1.505800
2.351500 1.508700
2.446100 1.330400
2.540800 1.076000
2.635400 0.786800
2.730000 0.987300
2.824700 1.724200
2.919300 2.162000
3.014000 1.521400
3.108600 1.303800
3.203300 1.226800
3.297900 1.139600
3.392500 1.356800
3.487200 1.339300
3.581800 1.790300
3.676500 1.847000
3.771100 1.860400
3.865800 1.787100
3.960400 1.801600
4.055000 2.110900
4.149700 2.282200
4.244300 1.787200
4.339000 1.612200
4.433600 1.460700
4.528200 1.413200
4.622900 1.107800
4.717500 1.205400
4.812200 1.393600
4.906800 1.556200
5.001500 1.866000
5.096100 1.356600
5.190700 1.231200
5.285400 1.161600
5.380000 1.086000
5.474700 1.106400
5.569300 1.158400
5.664000 1.092900
5.758600 1.086800
5.853200 1.146800
5.947900 1.712900
6.042500 1.591300
6.137200 1.304500
6.231800 1.262200
6.326500 1.178700
6.421100 1.039600
6.515700 0.944900
6.610400 0.890300
6.705000 0.839500
6.799700 0.822400
6.894300 0.892800
6.989000 0.996000
7.083600 0.970400
7.178200 0.943600
7.272900 0.955500
7.367500 0.930900
7.462200 0.935500
7.556800 0.952000
7.651400 0.980900
7.746100 1.024200
7.840700 1.110800
7.935400 1.174400
8.030000 1.241800
8.124700 1.292900
8.219300 1.539100
8.313900 1.546900
8.408600 1.566800
8.503200 1.707300
8.597900 1.403700
8.692500 1.169600
8.787200 1.207200
8.881800 1.114500
8.976400 1.052600
9.071100 1.275700
9.165700 0.707800
9.260400 0.867300
9.355000 1.097300
9.449700 1.285500
9.544300 1.571100
9.638900 1.275600
9.733600 1.030700
9.828200 0.815600
9.922900 0.660000
10.017500 0.564200
10.112200 0.475200
10.206800 0.436200
10.301400 0.364100
10.396100 0.218200
10.490700 0.175300
10.585400 0.133400
10.680000 0.308000
10.774600 0.210500
10.869300 0.251400
10.963900 0.859500
11.058600 1.220400
11.153200 0.981500
11.247900 1.096900
11.342500 1.525200
11.437100 1.358900
11.531800 0.927900
11.626400 0.783200
11.721100 0.801800
11.815700 0.819500
11.910400 0.932100
12.005000 0.930200
12.099600 0.936300
12.194300 0.905000
12.288900 0.938600
12.383600 0.942300
12.478200 0.895400
12.572900 0.869400
12.667500 0.852600
12.762100 0.859800
12.856800 0.926600
12.951400 0.879800
13.046100 0.909800
13.140700 0.897100
13.235400 0.890800
13.330000 0.827300
13.424600 0.877800
13.519300 0.868100
13.613900 0.895700
13.708600 0.950600
13.803200 1.096200
13.897800 1.269200
13.992500 1.384400
14.087100 1.566400
14.181800 1.684300
14.276400 1.316400
14.371100 1.136100
14.465700 1.085400
14.560300 0.991700
14.655000 1.173800
14.749600 1.706100
14.844300 1.999700
14.938900 2.265400
15.033600 1.884200
15.128200 1.372800
15.222800 1.243700
15.317500 1.195700
15.412100 1.109400
15.506800 1.026100
15.601400 1.113500
15.696100 1.004800
15.790700 0.747400
15.885300 0.677100
15.980000 0.896100
16.074600 0.916400
16.169300 1.043400
16.263900 1.211500
16.358600 1.209500
16.453200 1.091400
16.547800 1.043100
16.642500 1.023800
16.737100 1.034200
16.831800 1.077500
16.926400 1.103500
17.021000 1.138700
17.115700 1.199900
17.210300 1.317500
17.305000 1.579000
17.399600 1.817600
17.494300 1.731900
17.588900 1.143200
17.683500 0.851200
17.778200 0.705300
17.872800 0.617700
17.967500 0.486600
18.062100 0.338900
18.156800 0.269200
18.251400 0.336000
18.346000 0.438600
18.440700 0.400700
18.535300 0.476800
18.630000 0.573100
18.724600 0.678600
18.819300 0.744500
18.913900 0.808600
19.008500 0.913300
19.103200 0.990600
19.197800 1.255500
19.292500 1.379900
19.387100 1.107100
19.481800 1.066500
19.576400 1.108900
19.671000 1.206700
19.765700 1.166700
19.860300 1.123700
19.955000 1.131400
20.049600 1.110000
20.144200 1.064900
20.238900 1.058800
20.333500 1.040000
20.428200 1.133600
20.522800 1.136300
20.617500 1.136600
20.712100 1.707500
20.806700 1.370700
20.901400 1.440000
20.996000 1.364800
21.090700 1.230600
21.185300 1.226100
21.280000 1.406000
21.374600 1.411100
21.469200 1.409800
21.563900 1.440300
21.658500 1.542000
21.753200 1.645300
21.847800 1.655300
21.942500 1.720600
22.037100 1.850500
22.131700 1.722600
22.226400 1.304100
22.321000 1.061100
22.415700 1.062700
22.510300 1.192600
22.605000 1.145700
22.699600 1.399400
22.794200 1.300400
22.888900 1.600900
22.983500 1.104000
23.078200 1.073900
23.172800 1.004900
23.267400 0.928300
23.362100 0.945700
23.456700 1.001300
23.551400 1.084500
23.646000 1.055600
23.740700 0.899500
23.835300 0.984100
23.929900 1.238100
24.024600 1.671900
24.119200 1.810600
24.213900 1.653900
24.308500 1.256300
24.403200 1.112800
24.497800 0.961000
24.592400 0.850600
24.687100 0.776300
24.781700 0.743700
24.876400 0.999200
24.971000 1.250400
25.065700 1.474400
25.160300 1.564100
25.254900 1.583600
25.349600 1.474100
25.444200 1.433300
25.538900 1.638700
25.633500 1.642500
25.728100 1.573400
25.822800 1.312700
25.917400 1.136300
26.012100 1.234000
26.106700 1.494000
26.201400 1.758400
26.296000 1.743700
26.390600 1.680800
26.485300 1.586500
26.579900 1.519400
26.674600 1.477100
26.769200 1.467300
26.863900 1.546200
26.958500 1.525300
27.053100 1.269600
27.147800 1.257800
27.242400 1.304500
27.337100 1.305100
27.431700 1.248700
27.526400 1.269800
27.621000 1.168400
27.715600 1.027500
27.810300 0.928100
27.904900 0.770700
27.999600 0.766000
28.094200 0.889500
28.188900 1.234500
28.283500 1.244600
28.378100 1.405900
28.472800 1.785800
28.567400 2.052900
28.662100 1.976200
28.756700 1.812900
28.851300 1.621200
28.946000 1.426600
29.040600 1.392500
29.135300 1.409700
29.229900 1.400500
29.324600 1.400800
29.419200 1.400600
29.513800 1.418800
29.608500 1.408600
29.703100 1.370500
29.797800 1.580400
29.892400 1.865100
29.987100 1.682000
30.081700 1.547900
30.176300 1.451500
30.271000 1.352800
30.365600 1.249700
30.460300 1.207200
30.554900 1.134000
30.649600 1.067900
30.744200 1.026300
30.838800 0.982500
30.933500 0.983400
31.028100 1.009800
31.122800 1.097700
31.217400 1.322600
31.312100 1.615500
31.406700 1.670200
31.501300 1.673000
31.596000 1.642200
31.690600 1.625800
31.785300 1.682900
31.879900 1.612700
31.974500 1.436400
32.069200 1.432600
32.163800 1.527000
32.258500 1.592400
32.353100 1.596600
32.447800 1.637300
32.542400 1.611800
32.637000 1.580800
32.731700 1.540500
32.826300 1.584100
32.921000 1.562800
33.015600 1.473700
33.110300 1.387700
33.204900 1.349400
33.299500 1.301800
33.394200 1.125800
33.488800 1.066600
33.583500 1.241000
33.678100 1.515100
33.772800 1.591000
33.867400 1.549900
33.962000 1.550000
34.056700 1.617000
34.151300 1.573300
34.246000 1.376900
34.340600 1.368200
34.435300 1.507300
34.529900 1.669200
34.624500 1.701000
34.719200 1.606100
34.813800 1.594500
34.908500 1.508100
35.003100 1.465700
35.097700 1.398200
35.192400 1.329100
35.287000 1.301200
35.381700 1.353500
35.476300 1.474400
35.571000 1.497800
35.665600 1.495400
35.760200 1.485600
35.854900 1.524300
35.949500 1.521000
36.044200 1.492500
36.138800 1.505200
36.233500 1.452000
36.328100 1.512800
36.422700 1.575800
36.517400 1.915600
36.612000 1.669100
36.706700 1.681800
36.801300 1.759300
36.896000 1.735300
36.990600 1.885900
37.085200 1.776400
37.179900 1.828100
37.274500 1.709900
37.369200 1.593100
37.463800 1.467800
37.558500 1.427500
37.653100 1.397700
37.747700 1.314400
37.842400 1.297500
37.937000 1.305900
38.031700 1.393900
38.126300 1.491300
38.220900 1.596500
38.315600 1.651000
38.410200 1.673100
38.504900 1.705800
38.599500 1.683800
38.694200 1.521800
38.788800 1.452200
38.883400 1.380100
38.978100 1.361200
39.072700 1.448200
39.167400 2.179600
39.262000 1.934500
39.356700 1.755600
39.451300 1.682800
39.545900 1.698400
39.640600 1.861100
39.735200 1.754200
39.829900 1.652500
39.924500 1.739100
40.019200 1.735400
40.113800 1.645900
40.208400 1.508200
40.303100 1.481900
40.397700 1.508100
40.492400 1.511000
40.587000 1.531300
40.681700 1.629300
40.776300 1.742500
40.870900 1.932600
40.965600 1.764800
41.060200 1.583000
41.154900 1.594300
41.249500 1.557900
41.344100 1.601700
41.438800 1.674900
41.533400 1.377700
41.628100 1.297400
41.722700 1.304700
41.817400 1.330000
41.912000 1.358100
42.006600 1.441200
42.101300 1.642200
42.195900 2.078500
42.290600 1.974400
42.385200 1.949300
42.479900 1.866100
42.574500 1.787000
42.669100 1.702100
42.763800 1.607400
42.858400 1.458200
42.953100 1.352900
43.047700 1.386900
43.142400 1.418500
43.237000 1.290800
43.331600 1.275900
43.426300 1.285600
43.520900 1.384100
43.615600 1.470900
43.710200 1.514400
43.804900 1.556900
43.899500 1.572400
43.994100 1.684900
44.088800 1.682700
44.183400 1.786500
44.278100 2.017700
44.372700 1.997200
44.467300 1.913500
44.562000 1.984000
44.656600 1.933500
44.751300 1.902100
44.845900 1.980200
44.940600 1.884800
45.035200 2.044700
45.129800 2.028900
45.224500 2.005100
45.319100 1.857700
45.413800 1.867100
45.508400 1.926500
45.603100 1.640200
45.697700 1.489100
45.792300 1.458800
45.887000 1.502800
45.981600 1.601000
46.076300 1.650300
46.170900 1.598700
46.265600 1.620300
46.360200 1.735400
46.454800 1.944000
46.549500 1.903700
46.644100 1.484700
46.738800 1.523100
46.833400 1.578700
46.928100 1.659800
47.022700 1.700200
47.117300 1.752900
47.212000 1.723800
47.306600 1.656500
47.401300 1.636700
47.495900 1.736000
47.590500 1.938700
47.685200 1.961800
47.779800 1.857600
47.874500 1.606400
47.969100 1.481100
48.063800 1.368800
48.158400 1.426700
48.253000 1.632100
48.347700 1.679600
48.442300 1.819300
48.537000 1.894100
48.631600 1.985600
48.726300 1.875700
48.820900 1.672000
48.915500 1.682700
49.010200 1.529400
49.104800 1.497700
49.199500 1.588900
49.294100 1.555800
49.388800 1.633400
49.483400 1.909800
49.578000 1.849600
49.672700 1.821000
49.767300 1.750000
49.862000 1.825900
49.956600 2.208900
50.051300 2.145300
50.145900 2.039000
50.240500 1.771000
50.335200 1.602500
50.429800 1.481200
50.524500 1.442000
50.619100 1.509900
50.713700 1.624800
50.808400 1.575000
50.903000 1.535700
50.997700 1.590200
51.092300 1.624700
51.187000 1.778200
51.281600 1.829800
51.376200 1.752700
51.470900 1.612600
51.565500 1.754800
51.660200 2.019000
51.754800 2.162800
51.849500 2.312700
51.944100 2.163900
52.038700 2.010200
52.133400 1.881400
52.228000 1.888000
52.322700 1.741300
52.417300 1.778900
52.512000 1.817800
52.606600 1.862400
52.701200 1.735600
52.795900 1.746900
52.890500 1.874600
52.985200 1.805100
53.079800 1.816100
53.174500 1.984000
53.269100 2.096800
53.363700 1.884400
53.458400 1.792300
53.553000 1.826800
53.647700 1.918900
53.742300 1.803400
53.836900 1.690500
53.931600 1.572700
54.026200 1.476100
54.120900 1.468300
54.215500 1.532700
54.310200 1.610600
54.404800 1.660900
54.499400 1.666700
54.594100 1.742200
54.688700 1.912500
54.783400 1.960500
54.878000 2.084700
54.972700 2.077500
55.067300 2.132900
55.161900 2.074100
55.256600 2.018800
55.351200 2.013500
55.445900 2.132100
55.540500 2.017600
55.635200 1.967300
55.729800 1.899600
55.824400 1.952500
55.919100 1.982300
56.013700 1.885900
56.108400 1.881100
56.203000 1.781900
56.297700 1.665800
56.392300 1.603400
56.486900 1.573400
56.581600 1.606600
56.676200 1.686200
56.770900 1.583700
56.865500 1.491700
56.960100 1.460200
57.054800 1.451100
57.149400 1.400800
57.244100 1.457000
57.338700 1.597100
57.433400 1.617600
57.528000 1.624900
57.622600 1.653800
57.717300 1.655400
57.811900 1.655300
57.906600 1.690400
58.001200 1.700000
58.095900 1.792600
58.190500 2.071700
58.285100 2.220700
58.379800 2.268000
58.474400 2.276700
58.569100 2.289600
58.663700 2.137500
58.758400 2.053200
58.853000 2.068300
58.947600 1.874900
59.042300 1.846500
59.136900 1.795900
59.231600 1.739800
59.326200 1.686100
59.420800 1.685100
59.515500 1.659700
59.610100 1.683700
59.704800 1.835400
59.799400 2.130400
59.894100 2.094300
59.988700 2.020600
60.083300 2.071700
60.178000 2.106800
60.272600 2.011400
60.367300 2.072200
60.461900 1.934900
60.556600 1.865800
60.651200 2.063900
60.745800 2.097300
60.840500 2.306400
60.935100 2.170600
61.029800 2.077500
61.124400 2.015700
61.219100 1.946100
61.313700 1.944300
61.408300 1.969700
61.503000 2.093700
61.597600 1.979000
61.692300 1.887400
61.786900 1.955100
61.881600 2.005700
61.976200 2.042100
62.070800 1.990300
62.165500 1.956800
62.260100 1.902700
62.354800 1.844400
62.449400 1.731800
62.544000 1.684400
62.638700 1.782400
62.733300 2.240000
62.828000 2.088700
62.922600 1.980200
63.017300 1.839800
63.111900 1.612700
63.206500 1.548900
63.301200 1.545500
63.395800 1.870800
63.490500 2.173900
63.585100 2.824700
63.679800 2.778000
63.774400 2.259800
63.869000 2.093100
63.963700 1.998300
64.058300 1.873800
64.153000 1.882000
64.247600 1.910600
64.342300 1.899200
64.436900 2.015800
64.531500 2.117600
64.626200 1.873800
64.720800 1.927000
64.815500 2.088700
64.910100 1.890300
65.004800 1.776900
65.099400 1.701500
65.194000 1.710800
65.288700 1.996800
65.383300 1.985900
65.478000 1.966000
65.572600 1.847900
65.667200 1.726300
65.761900 1.613300
65.856500 1.794300
65.951200 1.917300
66.045800 1.910900
66.140500 1.867600
66.235100 1.863400
66.329700 1.923800
66.424400 1.998700
66.519000 1.996100
66.613700 2.088200
66.708300 2.147700
66.803000 2.468500
66.897600 2.297400
66.992200 2.130900
67.086900 2.144700
67.181500 2.279400
67.276200 2.277100
67.370800 2.354700
67.465500 2.236800
67.560100 2.148200
67.654700 2.076500
67.749400 1.980600
67.844000 2.048900
67.938700 2.098500
68.033300 2.103100
68.128000 2.054400
68.222600 1.945400
68.317200 1.868700
68.411900 1.856900
68.506500 1.900700
68.601200 1.958900
68.695800 2.026200
68.790400 1.857600
68.885100 1.903100
68.979700 1.932000
69.074400 1.992900
69.169000 2.156000
69.263700 2.059500
69.358300 1.971200
69.452900 1.805600
69.547600 1.736500
69.642200 1.736400
69.736900 1.853800
69.831500 1.915100
69.926200 1.844700
70.020800 1.767300
70.115400 1.745900
70.210100 1.803700
70.304700 1.862300
70.399400 1.934800
70.494000 2.077900
70.588700 2.048000
70.683300 1.888500
70.777900 1.930600
70.872600 1.953000
70.967200 2.062800
71.061900 2.086500
71.156500 2.068700
71.251200 2.226400
71.345800 2.123000
71.440400 2.123800
71.535100 2.112000
71.629700 2.141300
71.724400 2.089600
71.819000 2.083000
71.913600 2.103300
72.008300 2.154200
72.102900 2.081100
72.197600 2.333800
72.292200 2.346600
72.386900 2.534300
72.481500 2.482100
72.576100 2.303200
72.670800 2.208000
72.765400 2.151600
72.860100 2.066100
72.954700 1.993100
73.049400 2.065100
73.144000 2.280400
73.238600 2.267100
73.333300 2.064400
73.427900 1.858600
73.522600 1.871800
73.617200 2.266000
73.711900 2.166600
73.806500 2.155800
73.901100 2.135000
73.995800 1.863600
74.090400 1.936100
74.185100 2.003700
74.279700 2.077000
74.374400 2.173600
74.469000 2.213100
74.563600 2.254400
74.658300 2.052100
74.752900 1.887000
74.847600 1.862400
74.942200 1.883600
75.036800 1.893700
75.131500 1.859400
75.226100 2.015400
75.320800 1.966100
75.415400 1.959500
75.510100 2.093000
75.604700 2.192200
75.699300 2.332700
75.794000 2.228500
75.888600 2.156700
75.983300 2.221200
76.077900 2.316600
76.172600 2.487600
76.267200 2.237100
76.361800 2.204600
76.456500 2.078800
76.551100 2.054700
76.645800 2.084800
76.740400 2.083400
76.835100 2.164600
76.929700 2.249100
77.024300 2.300300
77.119000 2.351200
77.213600 2.288700
77.308300 2.262700
77.402900 2.237000
77.497600 2.160800
77.592200 2.237800
77.686800 2.293200
77.781500 2.399900
77.876100 2.296600
77.970800 2.236300
78.065400 2.091500
78.160000 1.882800
78.254700 1.737200
78.349300 1.698800
78.444000 1.783800
78.538600 1.864500
78.633300 1.994400
78.727900 2.058200
78.822500 2.015700
78.917200 1.966400
79.011800 1.962400
79.106500 2.089500
79.201100 2.019800
79.295800 2.117000
79.390400 2.084300
79.485000 2.024400
79.579700 1.994900
79.674300 1.984300
79.769000 2.033600
79.863600 2.144000
79.958300 2.194100
80.052900 2.176300
80.147500 2.164800
80.242200 2.355800
80.336800 2.608600
80.431500 2.580300
80.526100 2.254000
80.620800 2.102200
80.715400 2.177600
80.810000 2.369700
80.904700 2.501200
80.999300 2.679700
81.094000 2.968700
81.188600 2.809900
81.283200 2.379700
81.377900 2.292000
81.472500 2.251000
81.567200 2.180000
81.661800 2.141600
81.756500 2.129200
81.851100 2.159200
81.945700 2.566300
82.040400 2.060400
82.135000 1.995600
82.229700 2.063600
82.324300 2.072500
82.419000 2.002000
82.513600 1.995400
82.608200 2.067200
82.702900 2.087800
82.797500 1.837700
82.892200 1.753500
82.986800 1.825900
83.081500 1.982300
83.176100 2.097300
83.270700 2.034300
83.365400 2.099300
83.460000 2.217600
83.554700 2.141800
83.649300 1.940000
83.744000 1.916700
83.838600 1.974300
83.933200 2.015800
84.027900 2.076800
84.122500 2.186200
84.217200 2.386200
84.311800 2.540600
84.406400 2.455500
84.501100 2.604400
84.595700 2.792200
84.690400 2.847100
84.785000 2.781800
84.879700 2.659900
84.974300 2.516700
85.068900 2.575800
85.163600 2.542400
85.258200 2.404900
85.352900 2.362300
85.447500 2.303800
85.542200 2.175700
85.636800 2.112600
85.731400 2.113300
85.826100 2.135100
85.920700 2.196800
86.015400 2.222200
86.110000 2.260700
86.204700 2.238100
86.299300 2.186600
86.393900 2.118000
86.488600 2.126500
86.583200 2.173100
86.677900 2.143500
86.772500 2.127200
86.867200 2.226600
86.961800 2.246900
87.056400 2.258200
87.151100 2.241600
87.245700 2.188700
87.340400 2.129000
87.435000 2.156500
87.529600 2.179400
87.624300 2.276400
87.718900 2.497600
87.813600 2.576400
87.908200 2.362700
88.002900 2.243000
88.097500 2.283800
88.192100 2.191900
88.286800 2.165600
88.381400 2.024300
88.476100 2.053400
88.570700 2.103400
88.665400 2.171500
88.760000 2.041600
88.854600 1.958400
88.949300 1.891200
89.043900 1.893000
89.138600 1.972800
89.233200 2.068700
89.327900 2.117300
89.422500 2.237200
89.517100 2.079800
89.611800 2.021100
89.706400 1.960500
89.801100 1.975600
89.895700 2.121500
89.990400 2.014900
90.085000 2.071600
90.179600 2.253200
90.274300 2.338200
90.368900 2.351600
90.463600 2.430800
90.558200 2.356200
90.652800 2.413400
90.747500 2.327700
90.842100 2.350000
90.936800 2.392600
91.031400 2.382600
91.126100 2.506500
91.220700 2.481400
91.315300 2.466000
91.410000 2.372400
91.504600 2.293000
91.599300 2.224900
91.693900 2.341200
91.788600 2.318200
91.883200 2.178100
91.977800 2.146600
92.072500 2.235400
92.167100 2.270700
92.261800 2.306500
92.356400 2.315300
92.451100 2.216100
92.545700 2.133400
92.640300 2.055600
92.735000 2.032700
92.829600 2.117200
92.924300 2.174900
93.018900 2.225300
93.113500 2.272300
93.208200 2.331100
93.302800 2.417600
93.397500 2.484700
93.492100 2.411900
93.586800 2.369200
93.681400 2.395200
93.776000 2.517400
93.870700 2.391600
93.965300 2.399300
94.060000 2.418700
94.154600 2.535900
94.249300 2.701500
94.343900 2.963000
94.438500 2.626400
94.533200 2.685900
94.627800 2.656900
94.722500 2.721200
94.817100 2.421700
94.911800 2.328700
95.006400 2.355000
95.101000 2.448700
95.195700 2.676700
95.290300 2.935600
95.385000 2.949700
95.479600 2.603700
95.574300 2.532300
95.668900 2.383500
95.763500 2.253000
95.858200 2.135100
95.952800 2.050500
96.047500 2.007400
96.142100 2.032600
96.236700 2.090900
96.331400 2.202700
96.426000 2.249600
96.520700 2.251500
96.615300 2.193500
96.710000 2.188300
96.804600 2.145500
96.899200 2.162600
96.993900 2.241800
97.088500 2.203800
97.183200 2.204300
97.277800 2.325000
97.372500 2.215200
97.467100 2.199900
97.561700 2.300000
97.656400 2.224200
97.751000 2.124800
97.845700 2.175900
97.940300 2.124800
98.035000 2.136800
98.129600 2.170400
98.224200 2.162100
98.318900 2.225300
98.413500 2.275500
98.508200 2.300100
98.602800 2.341000
98.697500 2.415900
98.792100 2.530300
98.886700 2.731600
98.981400 2.749600
99.076000 2.778600
99.170700 2.556500
99.265300 2.538800
99.359900 2.657000
99.454600 2.799100
99.549200 2.992900
99.643900 3.083100
99.738500 3.059000
99.833200 3.017100
99.927800 2.809900
100.022400 2.538200
100.117100 2.367200
100.211700 2.319600
100.306400 2.274600
100.401000 2.338100
100.495700 2.740000
100.590300 2.593200
100.684900 2.718500
100.779600 2.506700
100.874200 2.455600
100.968900 2.395600
101.063500 2.322700
101.158200 2.271700
101.252800 2.190400
101.347400 2.175700
101.442100 2.133000
101.536700 2.112200
101.631400 2.129700
101.726000 2.139500
101.820700 2.096700
101.915300 2.054000
102.009900 1.984500
102.104600 2.012200
102.199200 1.960000
102.293900 1.947800
102.388500 2.007100
102.483100 2.029800
102.577800 1.990800
102.672400 1.990400
102.767100 2.006200
102.861700 2.054100
102.956400 2.088900
103.051000 2.212000
103.145600 2.327300
103.240300 2.469800
103.334900 2.569000
103.429600 2.716000
103.524200 2.795800
103.618900 2.766800
103.713500 2.706600
103.808100 2.774100
103.902800 2.946200
103.997400 2.885900
104.092100 2.866900
104.186700 2.812800
104.281400 2.819500
104.376000 2.812400
104.470600 2.870300
104.565300 2.868300
104.659900 2.934500
104.754600 2.901300
104.849200 2.816000
104.943900 2.685800
105.038500 2.661000
105.133100 2.692200
105.227800 2.782500
105.322400 2.631500
105.417100 2.541500
105.511700 2.530700
105.606300 2.618800
105.701000 2.574200
105.795600 2.520700
105.890300 2.531400
105.984900 2.497300
106.079600 2.459500
106.174200 2.342600
106.268800 2.353700
106.363500 2.384100
106.458100 2.424800
106.552800 2.371400
106.647400 2.369700
106.742100 2.305700
106.836700 2.276800
106.931300 2.253000
107.026000 2.199800
107.120600 2.136100
107.215300 2.056300
107.309900 2.036500
107.404600 1.846900
107.499200 1.780200
107.593800 1.789200
107.688500 1.745100
107.783100 1.768400
107.877800 2.151400
107.972400 1.991600
108.067100 2.090100
108.161700 2.178700
108.256300 2.296100
108.351000 2.447600
108.445600 2.646000
108.540300 2.713000
108.634900 2.921400
108.729500 2.849400
108.824200 2.861700
108.918800 3.002800
109.013500 2.985200
109.108100 3.130200
109.202800 3.170800
109.297400 2.993100
109.392000 2.933700
109.486700 2.812600
109.581300 2.754600
109.676000 2.748200
109.770600 2.910400
109.865300 2.877900
109.959900 2.776000
110.054500 2.641600
110.149200 2.807200
110.243800 3.017300
110.338500 3.067300
110.433100 2.727800
110.527800 2.577000
110.622400 2.363700
110.717000 2.132700
110.811700 2.168400
110.906300 2.227600
111.001000 2.279300
111.095600 2.328600
111.190300 2.423700
111.284900 2.506900
111.379500 2.535400
111.474200 2.407100
111.568800 2.327900
111.663500 2.330700
111.758100 2.328300
111.852700 2.366300
111.947400 2.208000
112.042000 2.144500
112.136700 2.155200
112.231300 2.139600
112.326000 2.175000
112.420600 2.313600
112.515200 2.343200
112.609900 2.315300
112.704500 2.310500
112.799200 2.233700
112.893800 2.212300
112.988500 2.259400
113.083100 2.314900
113.177700 2.355400
113.272400 2.397500
113.367000 2.509300
113.461700 2.910700
113.556300 2.500300
113.651000 2.526200
113.745600 2.773700
113.840200 2.712000
113.934900 2.785800
114.029500 2.897200
114.124200 2.924400
114.218800 2.862600
114.313500 2.920900
114.408100 2.872600
114.502700 2.812800
114.597400 2.863500
114.692000 2.839300
114.786700 2.916800
114.881300 3.086400
114.975900 3.621100
115.070600 3.134700
115.165200 2.925100
115.259900 3.028400
115.354500 2.787800
115.449200 2.826800
115.543800 2.697100
115.638400 2.453300
115.733100 2.384200
115.827700 2.355600
115.922400 2.301200
116.017000 2.313200
116.111700 2.273500
116.206300 2.303600
116.300900 2.323100
116.395600 2.351800
116.490200 2.364500
116.584900 2.413000
116.679500 2.398700
116.774200 2.381400
116.868800 2.376100
116.963400 2.308400
117.058100 2.327000
117.152700 2.336100
117.247400 2.354400
117.342000 2.444400
117.436700 2.502000
117.531300 2.433200
117.625900 2.399800
117.720600 2.404700
117.815200 2.388000
117.909900 2.344000
118.004500 2.340400
118.099100 2.385100
118.193800 2.450300
118.288400 2.725800
118.383100 2.906900
118.477700 2.807500
118.572400 2.815500
118.667000 2.765500
118.761600 2.717900
118.856300 2.754600
118.950900 2.786000
119.045600 2.699800
119.140200 2.677600
119.234900 2.658300
119.329500 2.726500
119.424100 2.853800
119.518800 3.006200
119.613400 3.002300
119.708100 2.972800
119.802700 3.160200
119.897400 3.141700
119.992000 3.134800
120.086600 3.073300
120.181300 2.905600
120.275900 2.772400
120.370600 2.787100
120.465200 2.726100
120.559900 2.615100
120.654500 2.694500
120.749100 2.630900
120.843800 2.679600
120.938400 2.693100
121.033100 2.755900
121.127700 2.658100
121.222300 2.579400
121.317000 2.507700
121.411600 2.447600
121.506300 2.393200
121.600900 2.345800
121.695600 2.247600
121.790200 2.180100
121.884800 2.158400
121.979500 2.151300
122.074100 2.344800
122.168800 2.383800
122.263400 2.424000
122.358100 2.442900
122.452700 2.454000
122.547300 2.448500
122.642000 2.442400
122.736600 2.399200
122.831300 2.417800
122.925900 2.416000
123.020600 2.448600
123.115200 2.519100
123.209800 2.519100
123.304500 2.629600
123.399100 2.664000
123.493800 2.727300
123.588400 2.753200
123.683100 2.791800
123.777700 2.810700
123.872300 2.869900
123.967000 2.878800
124.061600 2.931700
124.156300 2.922300
124.250900 2.913400
124.345500 2.928600
124.440200 2.865400
124.534800 2.850200
124.629500 3.029500
124.724100 3.010000
124.818800 3.072000
124.913400 3.154700
125.008000 3.209500
125.102700 3.210900
125.197300 3.250400
125.292000 3.226300
125.386600 3.196500
125.481300 3.119500
125.575900 3.029900
125.670500 2.835200
125.765200 2.618700
125.859800 2.486500
125.954500 2.495300
126.049100 2.508600
126.143800 2.539800
126.238400 2.589700
126.333000 2.565400
126.427700 2.527800
126.522300 2.355900
126.617000 2.210000
126.711600 2.062900
126.806200 1.952300
126.900900 1.895700
126.995500 1.867100
127.090200 1.852800
127.184800 1.811700
127.279500 1.783600
127.374100 1.739800
127.468700 1.751500
127.563400 1.755900
127.658000 1.799400
127.752700 1.835400
127.847300 1.821800
127.942000 1.826200
128.036600 1.868000
128.131200 1.986500
128.225900 1.974100
128.320500 1.921500
128.415200 1.863400
128.509800 1.789900
128.604500 1.830600
128.699100 1.746500
128.793700 1.717000
128.888400 1.703000
128.983000 1.658400
129.077700 1.684700
129.172300 1.718000
129.267000 1.724900
129.361600 1.703300
129.456200 1.669100
129.550900 1.664600
129.645500 1.656000
129.740200 1.581400
129.834800 1.480500
129.929400 1.455700
130.024100 1.454900
130.118700 1.463200
130.213400 1.454500
130.308000 1.424400
130.402700 1.365700
130.497300 1.297300
130.591900 1.359100
130.686600 1.368100
130.781200 1.251300
130.875900 1.120000
130.970500 1.029800
131.065200 0.789200
131.159800 0.769300
131.254400 0.884100
131.349100 0.700400
131.443700 0.529100
131.538400 0.430700
131.633000 0.351500
131.727700 0.284000
131.822300 0.245200
131.916900 0.230300
132.011600 0.228100
132.106200 0.158300
132.200900 0.102500
132.295500 0.098300
132.390200 0.077400
132.484800 0.058500
132.579400 0.041800
132.674100 0.027500
132.768700 0.017300
132.863400 0.013600
132.958000 0.012200
133.052600 0.010900
133.147300 0.009700
133.241900 0.008500
133.336600 0.007400
133.431200 0.006300
133.525900 0.005400
133.620500 0.004500
133.715100 0.003600
133.809800 0.002800
133.904400 0.002100
133.999100 0.001500
134.093700 0.000900
134.188400 0.000400
134.283000 0.000000
134.377600 0.000000
134.472300 0.000000
134.566900 0.000000
134.661600 0.000000
134.756200 0.000000
134.850900 0.000000
134.945500 0.000000
135.040100 0.000000
135.134800 0.000000
135.229400 0.000000
135.324100 0.000000
135.418700 0.000000
135.513400 0.000000
135.608000 0.000000
135.702600 0.000000
135.797300 0.000000
135.891900 0.000000
135.986600 0.000000
136.081200 0.000000
136.175800 0.000000
136.270500 0.000000
136.365100 0.000000
136.459800 0.000000
136.554400 0.000000
136.649100 0.000000
136.743700 0.000000
136.838300 0.000000
136.933000 0.000000
137.027600 0.000000
137.122300 0.000000
137.216900 0.000000
137.311600 0.000000
137.406200 0.000000
137.500800 0.000000
137.595500 0.000000
137.690100 0.000000
137.784800 0.000000
137.879400 0.000000
137.974100 0.000000
138.068700 0.000000
138.163300 0.000000
138.258000 0.000000
138.352600 0.000000
138.447300 0.000000
138.541900 0.000000
138.636600 0.000000
138.731200 0.000000
138.825800 0.000000
138.920500 0.000000
139.015100 0.000000
139.109800 0.000000
139.204400 0.000000
139.299000 0.000000
139.393700 0.000000
139.488300 0.000000
139.583000 0.000000
139.677600 0.000000
139.772300 0.000000
139.866900 0.000000
139.961500 0.000000
140.056200 0.000000
140.150800 0.000000
140.245500 0.000000
140.340100 0.000000
140.434800 0.000000
140.529400 0.000000
140.624000 0.000000
140.718700 0.000000
140.813300 0.000000
140.908000 0.000000
141.002600 0.000000
141.097300 0.000000
141.191900 0.000000
141.286500 0.000000
141.381200 0.000000
141.475800 0.000000
141.570500 0.000000
141.665100 0.000000
141.759800 0.000000
141.854400 0.000000
141.949000 0.000000
142.043700 0.000000
142.138300 0.000000
142.233000 0.000000
142.327600 0.000000
142.422200 0.000000
142.516900 0.000000
142.611500 0.000000
142.706200 0.000000
142.800800 0.000000
142.895500 0.000000
e
