set title 'mp-1226450 - Density of States'
set xlabel 'Energy (eV)'
set ylabel 'DOS (states/eV)'
set grid
set xrange [-10:10]
set yrange [0:7.481]
set xzeroaxis lt -1
set terminal png size 800,600
set output 'mp-1226450_dos_gnuplot.png'
plot '-' using 1:2 with lines title 'DOS'
-6.017900 0.000000
-5.994500 0.000000
-5.971200 0.000000
-5.947900 0.000000
-5.924500 0.000000
-5.901200 0.000000
-5.877900 0.000000
-5.854500 0.000000
-5.831200 0.000000
-5.807800 0.000000
-5.784500 0.000000
-5.761200 0.000000
-5.737800 0.000000
-5.714500 0.000000
-5.691200 0.000000
-5.667800 0.000000
-5.644500 0.000000
-5.621200 0.000000
-5.597800 0.000000
-5.574500 0.000000
-5.551200 0.000000
-5.527800 0.000000
-5.504500 0.000000
-5.481200 0.000000
-5.457800 0.000000
-5.434500 0.000000
-5.411200 0.000000
-5.387800 0.000000
-5.364500 0.000000
-5.341200 0.000000
-5.317800 0.000000
-5.294500 0.000000
-5.271200 0.000000
-5.247800 0.000000
-5.224500 0.000000
-5.201200 0.000000
-5.177800 0.000000
-5.154500 0.000000
-5.131200 0.000000
-5.107800 0.000000
-5.084500 0.000000
-5.061200 0.000000
-5.037800 0.000000
-5.014500 0.000000
-4.991200 0.000000
-4.967800 0.000000
-4.944500 0.000000
-4.921200 0.000000
-4.897800 0.000000
-4.874500 0.000000
-4.851200 0.000000
-4.827800 0.000000
-4.804500 0.000000
-4.781200 0.000000
-4.757800 0.000000
-4.734500 0.000000
-4.711200 0.000000
-4.687800 0.000000
-4.664500 0.000000
-4.641200 0.000000
-4.617800 0.000000
-4.594500 0.000000
-4.571200 0.000000
-4.547800 0.000000
-4.524500 0.000000
-4.501200 0.000000
-4.477800 0.000000
-4.454500 0.000000
-4.431200 0.000000
-4.407800 0.000000
-4.384500 0.000000
-4.361200 0.000000
-4.337800 0.000000
-4.314500 0.000000
-4.291200 0.000000
-4.267800 0.000000
-4.244500 0.000000
-4.221100 0.000000
-4.197800 0.000000
-4.174500 0.000000
-4.151100 0.000000
-4.127800 0.000000
-4.104500 0.000000
-4.081100 0.000000
-4.057800 0.000000
-4.034500 0.000000
-4.011100 0.000000
-3.987800 0.000000
-3.964500 0.000000
-3.941100 0.000000
-3.917800 0.000000
-3.894500 0.000000
-3.871100 0.003500
-3.847800 0.009600
-3.824500 0.018000
-3.801100 0.029300
-3.777800 0.042800
-3.754500 0.056300
-3.731100 0.069900
-3.707800 0.083400
-3.684500 0.096900
-3.661100 0.110500
-3.637800 0.105400
-3.614500 0.102200
-3.591100 0.098900
-3.567800 0.092400
-3.544500 0.078900
-3.521100 0.080300
-3.497800 0.081700
-3.474500 0.083100
-3.451100 0.084500
-3.427800 0.085900
-3.404500 0.087300
-3.381100 0.088700
-3.357800 0.090100
-3.334500 0.091500
-3.311100 0.092900
-3.287800 0.094300
-3.264500 0.095700
-3.241100 0.097100
-3.217800 0.098500
-3.194500 0.099900
-3.171100 0.101000
-3.147800 0.101700
-3.124500 0.102000
-3.101100 0.101900
-3.077800 0.101500
-3.054500 0.100600
-3.031100 0.099800
-3.007800 0.098900
-2.984500 0.098100
-2.961100 0.097400
-2.937800 0.097100
-2.914500 0.097000
-2.891100 0.097300
-2.867800 0.097800
-2.844500 0.098700
-2.821100 0.099700
-2.797800 0.100600
-2.774500 0.101600
-2.751100 0.102500
-2.727800 0.103500
-2.704500 0.104500
-2.681100 0.105400
-2.657800 0.106400
-2.634500 0.107300
-2.611100 0.108300
-2.587800 0.109200
-2.564400 0.110200
-2.541100 0.111200
-2.517800 0.112100
-2.494400 0.113100
-2.471100 0.114000
-2.447800 0.115000
-2.424400 0.116000
-2.401100 0.116900
-2.377800 0.117900
-2.354400 0.118800
-2.331100 0.118600
-2.307800 0.119000
-2.284400 0.119600
-2.261100 0.120200
-2.237800 0.120500
-2.214400 0.121900
-2.191100 0.123400
-2.167800 0.124900
-2.144400 0.126400
-2.121100 0.127900
-2.097800 0.129400
-2.074400 0.130800
-2.051100 0.132400
-2.027800 0.134400
-2.004400 0.136700
-1.981100 0.139300
-1.957800 0.142300
-1.934400 0.146100
-1.911100 0.154400
-1.887800 0.165500
-1.864400 0.178600
-1.841100 0.193500
-1.817800 0.210000
-1.794400 0.228000
-1.771100 0.242900
-1.747800 0.246200
-1.724400 0.256000
-1.701100 0.269300
-1.677800 0.364600
-1.654400 0.527100
-1.631100 0.589800
-1.607800 0.651000
-1.584400 0.710200
-1.561100 0.767100
-1.537800 0.822400
-1.514400 0.912600
-1.491100 1.015400
-1.467800 1.098000
-1.444400 1.089000
-1.421100 1.045600
-1.397800 0.971800
-1.374400 0.908200
-1.351100 0.844000
-1.327800 0.779200
-1.304400 0.713900
-1.281100 0.648200
-1.257800 0.582700
-1.234400 0.525700
-1.211100 0.522900
-1.187800 0.521500
-1.164400 0.519900
-1.141100 0.517900
-1.117800 0.516000
-1.094400 0.514200
-1.071100 0.512500
-1.047800 0.511100
-1.024400 0.509900
-1.001100 0.508900
-0.977700 0.508500
-0.954400 0.508100
-0.931100 0.507800
-0.907700 0.507500
-0.884400 0.507200
-0.861100 0.507000
-0.837700 0.492800
-0.814400 0.490300
-0.791100 0.487900
-0.767700 0.485500
-0.744400 0.483400
-0.721100 0.481600
-0.697700 0.485700
-0.674400 0.493800
-0.651100 0.504200
-0.627700 0.517000
-0.604400 0.532900
-0.581100 0.556700
-0.557700 0.559500
-0.534400 0.563000
-0.511100 0.569100
-0.487700 0.576000
-0.464400 0.584100
-0.441100 0.592900
-0.417700 0.827200
-0.394400 1.297900
-0.371100 1.302000
-0.347700 1.323900
-0.324400 1.361900
-0.301100 1.401400
-0.277700 1.445600
-0.254400 1.483800
-0.231100 1.552500
-0.207700 1.654900
-0.184400 1.777300
-0.161100 1.921800
-0.137700 2.007600
-0.114400 1.906600
-0.091100 1.820400
-0.067700 1.833000
-0.044400 1.885400
-0.021100 1.915300
0.002300 1.743500
0.025600 2.460400
0.048900 1.443300
0.072300 1.379900
0.095600 1.336800
0.118900 1.314800
0.142300 1.279400
0.165600 1.259400
0.188900 1.389100
0.212300 1.619300
0.235600 2.300500
0.258900 1.738300
0.282300 1.089800
0.305600 1.013000
0.328900 0.998400
0.352300 1.012500
0.375600 1.125100
0.398900 1.096200
0.422300 1.152100
0.445600 1.334700
0.468900 1.058900
0.492300 0.837500
0.515600 0.642000
0.538900 0.595800
0.562300 0.593000
0.585600 0.596500
0.608900 0.604500
0.632300 0.616000
0.655600 0.632600
0.679000 0.655500
0.702300 0.688900
0.725600 0.735000
0.749000 0.786400
0.772300 0.844400
0.795600 0.846100
0.819000 0.917100
0.842300 0.991000
0.865600 1.070000
0.889000 1.148300
0.912300 1.250500
0.935600 1.337400
0.959000 1.663500
0.982300 1.922800
1.005600 2.172300
1.029000 2.031500
1.052300 2.117000
1.075600 3.726700
1.099000 2.547400
1.122300 2.620600
1.145600 2.696000
1.169000 2.552900
1.192300 2.405800
1.215600 2.409000
1.239000 2.544700
1.262300 2.583100
1.285600 2.593000
1.309000 2.724400
1.332300 3.706400
1.355600 3.204700
1.379000 3.191000
1.402300 2.966000
1.425600 3.017300
1.449000 2.757100
1.472300 2.869400
1.495600 2.799900
1.519000 2.711800
1.542300 2.519100
1.565600 2.308700
1.589000 2.088200
1.612300 2.054400
1.635600 2.139800
1.659000 2.308700
1.682300 2.513200
1.705600 2.544900
1.729000 2.039400
1.752300 1.425100
1.775600 1.269400
1.799000 1.153100
1.822300 1.097000
1.845600 1.240600
1.869000 1.547500
1.892300 1.836400
1.915600 2.226400
1.939000 2.729800
1.962300 4.181000
1.985600 5.431600
2.009000 5.272200
2.032300 4.660200
2.055600 4.083100
2.079000 3.230700
2.102300 3.868300
2.125600 4.313700
2.149000 3.631700
2.172300 3.048200
2.195600 2.640600
2.219000 2.894500
2.242300 3.823100
2.265700 5.173800
2.289000 5.737800
2.312300 4.852700
2.335700 3.899100
2.359000 3.361000
2.382300 3.298800
2.405700 3.131900
2.429000 2.929000
2.452300 2.957500
2.475700 3.121800
2.499000 3.655800
2.522300 3.980000
2.545700 4.474100
2.569000 5.311500
2.592300 3.506200
2.615700 3.339300
2.639000 3.303500
2.662300 3.365500
2.685700 3.492700
2.709000 3.413400
2.732300 3.564200
2.755700 4.287900
2.779000 4.003500
2.802300 3.998800
2.825700 4.059900
2.849000 4.137800
2.872300 4.252600
2.895700 4.136800
2.919000 4.239100
2.942300 4.351100
2.965700 4.165300
2.989000 4.342600
3.012300 5.072300
3.035700 5.761900
3.059000 5.953400
3.082300 5.849500
3.105700 5.184300
3.129000 4.620200
3.152300 4.640700
3.175700 4.197500
3.199000 4.364500
3.222300 4.056900
3.245700 6.555400
3.269000 5.730200
3.292300 4.682700
3.315700 5.028600
3.339000 5.171200
3.362300 4.886400
3.385700 4.042400
3.409000 4.049900
3.432300 5.480800
3.455700 5.657000
3.479000 5.471200
3.502300 4.665800
3.525700 3.805300
3.549000 3.950700
3.572300 4.600400
3.595700 4.447500
3.619000 4.211000
3.642300 4.028500
3.665700 4.584300
3.689000 4.959000
3.712300 4.953600
3.735700 5.164600
3.759000 4.646200
3.782300 4.530800
3.805700 4.472600
3.829000 4.549500
3.852300 4.388100
3.875700 4.519300
3.899000 4.404800
3.922400 4.594100
3.945700 4.601700
3.969000 5.783200
3.992400 5.416600
4.015700 5.310700
4.039000 5.313900
4.062400 4.658000
4.085700 4.469800
4.109000 4.681200
4.132400 4.694700
4.155700 4.571200
4.179000 4.269700
4.202400 4.187600
4.225700 4.526700
4.249000 5.210500
4.272400 5.264900
4.295700 4.527000
4.319000 5.154900
4.342400 4.863300
4.365700 5.104500
4.389000 5.262400
4.412400 5.360200
4.435700 5.268200
4.459000 5.070000
4.482400 4.795000
4.505700 4.555000
4.529000 4.340600
4.552400 4.149800
4.575700 4.182100
4.599000 4.279200
4.622400 4.374400
4.645700 4.454800
4.669000 4.732300
4.692400 4.650900
4.715700 4.814200
4.739000 5.036200
4.762400 5.247600
4.785700 5.771500
4.809000 5.928400
4.832400 5.622500
4.855700 5.490800
4.879000 4.852000
4.902400 4.608700
4.925700 5.525700
4.949000 5.983200
4.972400 6.055700
4.995700 6.467000
5.019000 6.800700
5.042400 6.367200
5.065700 5.175500
5.089000 4.932700
5.112400 4.586000
5.135700 4.550000
5.159000 3.543000
5.182400 3.214300
5.205700 3.363500
5.229000 3.402600
5.252400 3.792700
5.275700 3.629800
5.299000 3.399900
5.322400 3.171200
5.345700 3.154300
5.369000 3.245100
5.392400 2.583500
5.415700 1.928600
5.439000 1.493600
5.462400 1.086400
5.485700 1.027900
5.509000 0.985400
5.532400 0.951300
5.555700 0.925900
5.579100 0.905700
5.602400 0.888300
5.625700 0.873600
5.649100 0.854400
5.672400 0.820700
5.695700 0.783900
5.719100 0.755100
5.742400 0.740600
5.765700 0.728500
5.789100 0.716800
5.812400 0.703000
5.835700 0.692300
5.859100 0.686500
5.882400 0.682900
5.905700 0.679200
5.929100 0.674800
5.952400 0.666800
5.975700 0.658600
5.999100 0.650300
6.022400 0.644200
6.045700 0.639500
6.069100 0.635100
6.092400 0.630900
6.115700 0.626400
6.139100 0.622700
6.162400 0.619700
6.185700 0.617500
6.209100 0.615500
6.232400 0.612600
6.255700 0.608200
6.279100 0.639300
6.302400 0.640700
6.325700 0.641100
6.349100 0.640800
6.372400 0.640100
6.395700 0.638000
6.419100 0.635100
6.442400 0.631400
6.465700 0.626800
6.489100 0.620700
6.512400 0.619600
6.535700 0.617400
6.559100 0.612900
6.582400 0.607300
6.605700 0.601100
6.629100 0.596000
6.652400 0.592000
6.675700 0.588600
6.699100 0.585500
6.722400 0.582800
6.745700 0.580300
6.769100 0.578100
6.792400 0.576000
6.815700 0.574000
6.839100 0.572200
6.862400 0.570600
6.885700 0.569300
6.909100 0.568100
6.932400 0.567100
6.955700 0.566900
6.979100 0.567800
7.002400 0.569700
7.025700 0.573000
7.049100 0.578500
7.072400 0.587800
7.095700 0.596800
7.119100 0.605800
7.142400 0.622400
7.165800 0.638200
7.189100 0.634900
7.212400 0.630800
7.235800 0.626700
7.259100 0.623300
7.282400 0.620000
7.305800 0.616300
7.329100 0.611500
7.352400 0.607100
7.375800 0.610300
7.399100 0.626700
7.422400 0.609700
7.445800 0.575500
7.469100 0.563800
7.492400 0.554200
7.515800 0.546500
7.539100 0.539100
7.562400 0.532600
7.585800 0.528000
7.609100 0.524600
7.632400 0.522000
7.655800 0.519800
7.679100 0.517800
7.702400 0.516000
7.725800 0.514300
7.749100 0.512700
7.772400 0.511100
7.795800 0.509900
7.819100 0.509200
7.842400 0.508700
7.865800 0.508300
7.889100 0.508100
7.912400 0.508000
7.935800 0.507900
7.959100 0.508000
7.982400 0.508100
8.005800 0.509400
8.029100 0.512900
8.052400 0.517000
8.075800 0.520500
8.099100 0.525100
8.122400 0.530700
8.145800 0.539700
8.169100 0.555900
8.192400 0.560300
8.215800 0.538000
8.239100 0.521500
8.262400 0.510900
8.285800 0.505700
8.309100 0.501900
8.332400 0.498900
8.355800 0.496600
8.379100 0.494600
8.402400 0.493000
8.425800 0.491900
8.449100 0.490900
8.472400 0.490600
8.495800 0.490400
8.519100 0.490700
8.542400 0.492200
8.565800 0.493800
8.589100 0.496700
8.612400 0.502100
8.635800 0.510000
8.659100 0.514300
8.682400 0.515000
8.705800 0.512100
8.729100 0.509200
8.752400 0.507800
8.775800 0.506700
8.799100 0.505200
8.822500 0.504500
8.845800 0.505500
8.869100 0.509400
8.892500 0.514000
8.915800 0.519200
8.939100 0.522400
8.962500 0.527500
8.985800 0.534800
9.009100 0.406000
9.032500 0.411300
9.055800 0.418000
9.079100 0.422800
9.102500 0.427900
9.125800 0.433600
9.149100 0.438900
9.172500 0.444300
9.195800 0.449000
9.219100 0.452800
9.242500 0.455900
9.265800 0.458500
9.289100 0.460700
9.312500 0.462500
9.335800 0.463600
9.359100 0.464100
9.382500 0.463300
9.405800 0.463000
9.429100 0.459900
9.452500 0.453000
9.475800 0.447500
9.499100 0.441700
9.522500 0.438100
9.545800 0.436000
9.569100 0.433700
9.592500 0.431500
9.615800 0.431400
9.639100 0.435900
9.662500 0.441400
9.685800 0.445100
9.709100 0.446800
9.732500 0.480300
9.755800 0.434400
9.779100 0.429500
9.802500 0.427100
9.825800 0.424600
9.849100 0.422100
9.872500 0.419900
9.895800 0.418800
9.919100 0.419600
9.942500 0.421400
9.965800 0.419600
9.989100 0.416600
10.012500 0.412500
10.035800 0.406400
10.059100 0.397100
10.082500 0.384400
10.105800 0.369800
10.129100 0.363000
10.152500 0.358500
10.175800 0.356300
10.199100 0.356800
10.222500 0.358600
10.245800 0.360900
10.269100 0.362600
10.292500 0.363400
10.315800 0.363300
10.339100 0.362500
10.362500 0.361300
10.385800 0.359900
10.409200 0.359200
10.432500 0.360300
10.455800 0.365800
10.479200 0.369100
10.502500 0.367000
10.525800 0.365100
10.549200 0.363400
10.572500 0.362200
10.595800 0.361400
10.619200 0.361300
10.642500 0.359400
10.665800 0.356200
10.689200 0.352800
10.712500 0.349300
10.735800 0.345700
10.759200 0.341800
10.782500 0.337600
10.805800 0.333000
10.829200 0.328800
10.852500 0.324600
10.875800 0.321400
10.899200 0.305800
10.922500 0.277300
10.945800 0.273700
10.969200 0.272200
10.992500 0.269200
11.015800 0.264700
11.039200 0.258800
11.062500 0.254400
11.085800 0.256800
11.109200 0.260400
11.132500 0.265300
11.155800 0.271400
11.179200 0.286100
11.202500 0.319700
11.225800 0.358200
11.249200 0.397800
11.272500 0.418200
11.295800 0.427800
11.319200 0.428500
11.342500 0.416700
11.365800 0.390100
11.389200 0.361000
11.412500 0.348300
11.435800 0.341000
11.459200 0.335000
11.482500 0.328900
11.505800 0.325500
11.529200 0.324100
11.552500 0.327900
11.575800 0.336100
11.599200 0.350200
11.622500 0.392200
11.645800 0.489200
11.669200 0.740000
11.692500 0.724300
11.715800 0.760800
11.739200 0.836200
11.762500 0.770600
11.785800 0.711900
11.809200 0.674700
11.832500 0.653300
11.855800 0.640900
11.879200 0.628000
11.902500 0.608800
11.925800 0.596300
11.949200 0.589300
11.972500 0.581300
11.995800 0.574000
12.019200 0.567200
12.042500 0.561400
12.065900 0.554700
12.089200 0.564400
12.112500 0.583800
12.135900 0.583000
12.159200 0.569600
12.182500 0.557900
12.205900 0.544400
12.229200 0.539200
12.252500 0.524900
12.275900 0.504700
12.299200 0.481600
12.322500 0.452400
12.345900 0.428600
12.369200 0.412900
12.392500 0.398100
12.415900 0.387100
12.439200 0.377100
12.462500 0.372200
12.485900 0.373200
12.509200 0.378800
12.532500 0.389500
12.555900 0.429400
12.579200 0.467200
12.602500 0.484200
12.625900 0.479200
12.649200 0.469400
12.672500 0.476800
12.695900 0.484900
12.719200 0.493800
12.742500 0.505200
12.765900 0.521900
12.789200 0.537400
12.812500 0.546300
12.835900 0.550700
12.859200 0.559200
12.882500 0.575100
12.905900 0.592700
12.929200 0.610700
12.952500 0.628800
12.975900 0.646800
12.999200 0.665800
13.022500 0.687200
13.045900 0.708600
13.069200 0.717400
13.092500 0.715300
13.115900 0.699500
13.139200 0.680000
13.162500 0.661900
13.185900 0.646800
13.209200 0.636300
13.232500 0.626400
13.255900 0.617300
13.279200 0.609000
13.302500 0.600700
13.325900 0.595300
13.349200 0.591200
13.372500 0.587500
13.395900 0.583900
13.419200 0.578100
13.442500 0.571600
13.465900 0.567300
13.489200 0.565300
13.512500 0.566500
13.535900 0.576100
13.559200 0.581200
13.582500 0.590500
13.605900 0.593600
13.629200 0.593400
13.652600 0.590700
13.675900 0.585000
13.699200 0.579500
13.722600 0.574700
13.745900 0.566500
13.769200 0.553700
13.792600 0.536500
13.815900 0.521500
13.839200 0.504400
13.862600 0.490100
13.885900 0.478800
13.909200 0.468700
13.932600 0.467300
13.955900 0.463000
13.979200 0.455000
14.002600 0.448000
14.025900 0.442100
14.049200 0.437200
14.072600 0.433300
14.095900 0.429500
14.119200 0.427300
14.142600 0.426700
14.165900 0.428400
14.189200 0.428900
14.212600 0.430300
14.235900 0.433600
14.259200 0.435900
14.282600 0.437600
14.305900 0.439300
14.329200 0.440800
14.352600 0.442200
14.375900 0.443400
14.399200 0.445000
14.422600 0.446800
14.445900 0.449000
14.469200 0.451200
14.492600 0.441500
14.515900 0.429800
14.539200 0.426600
14.562600 0.428900
14.585900 0.431600
14.609200 0.438900
14.632600 0.447300
14.655900 0.448500
14.679200 0.447700
14.702600 0.451600
14.725900 0.456500
14.749200 0.462400
14.772600 0.469000
14.795900 0.476400
14.819200 0.484800
14.842600 0.494400
14.865900 0.502900
14.889200 0.509500
14.912600 0.513700
14.935900 0.517300
14.959200 0.522400
14.982600 0.528800
15.005900 0.536100
15.029200 0.549500
15.052600 0.563200
15.075900 0.569400
15.099200 0.574600
15.122600 0.580500
15.145900 0.589800
15.169200 0.620800
15.192600 0.669100
15.215900 0.708700
15.239200 0.736600
15.262600 0.750400
15.285900 0.759300
15.309300 0.764700
15.332600 0.765000
15.355900 0.766700
15.379300 0.760900
15.402600 0.749000
15.425900 0.736500
15.449300 0.774200
15.472600 0.771700
15.495900 0.733800
15.519300 0.725500
15.542600 0.724100
15.565900 0.726600
15.589300 0.738500
15.612600 0.746800
15.635900 0.748700
15.659300 0.749000
15.682600 0.754100
15.705900 0.759900
15.729300 0.766500
15.752600 0.770400
15.775900 0.771800
15.799300 0.775300
15.822600 0.796400
15.845900 0.836000
15.869300 0.819500
15.892600 0.792500
15.915900 0.794500
15.939300 0.800300
15.962600 0.811000
15.985900 0.811800
16.009300 0.803900
16.032600 0.801100
16.055900 0.803300
16.079300 0.808100
16.102600 0.812800
16.125900 0.817900
16.149300 0.823500
16.172600 0.829400
16.195900 0.851500
16.219300 0.833900
16.242600 0.825400
16.265900 0.826200
16.289300 0.832200
16.312600 0.839400
16.335900 0.835700
16.359300 0.806800
16.382600 0.782700
16.405900 0.765600
16.429300 0.756600
16.452600 0.744400
16.475900 0.725700
16.499300 0.708300
16.522600 0.693700
16.545900 0.681500
16.569300 0.671800
16.592600 0.664500
16.615900 0.659500
16.639300 0.657400
16.662600 0.656200
16.685900 0.654800
16.709300 0.656200
16.732600 0.660200
16.755900 0.666900
16.779300 0.710700
16.802600 0.697100
16.825900 0.688600
16.849300 0.676100
16.872600 0.664900
16.895900 0.663500
16.919300 0.664200
16.942600 0.667700
16.966000 0.672200
16.989300 0.677100
17.012600 0.682200
17.036000 0.686900
17.059300 0.692800
17.082600 0.700400
17.106000 0.713100
17.129300 0.732400
17.152600 0.752700
17.176000 0.769700
17.199300 0.776800
17.222600 0.782500
17.246000 0.786000
17.269300 0.787400
17.292600 0.786100
17.316000 0.782600
17.339300 0.773400
17.362600 0.766700
17.386000 0.765400
17.409300 0.767400
17.432600 0.771900
17.456000 0.778800
17.479300 0.787300
17.502600 0.797200
17.526000 0.806500
17.549300 0.814800
17.572600 0.821400
17.596000 0.825000
17.619300 0.827000
17.642600 0.828600
17.666000 0.828700
17.689300 0.827800
17.712600 0.835800
17.736000 0.850100
17.759300 0.877800
17.782600 0.838600
17.806000 0.835200
17.829300 0.843400
17.852600 0.849500
17.876000 0.855700
17.899300 0.860400
17.922600 0.862900
17.946000 0.854800
17.969300 0.843500
17.992600 0.832800
18.016000 0.822800
18.039300 0.811200
18.062600 0.801800
18.086000 0.797000
18.109300 0.798000
18.132600 0.811200
18.156000 0.878700
18.179300 0.839800
18.202600 0.816400
18.226000 0.814500
18.249300 0.812800
18.272600 0.811400
18.296000 0.810500
18.319300 0.820100
18.342600 0.824500
18.366000 0.823400
18.389300 0.818400
18.412600 0.812000
18.436000 0.811800
18.459300 0.820600
18.482600 0.825500
18.506000 0.827700
18.529300 0.829300
18.552700 0.831900
18.576000 0.834200
18.599300 0.833400
18.622700 0.830700
18.646000 0.834000
18.669300 0.842200
18.692700 0.848900
18.716000 0.850600
18.739300 0.856900
18.762700 0.859800
18.786000 0.861000
18.809300 0.860800
18.832700 0.859600
18.856000 0.858600
18.879300 0.857400
18.902700 0.856000
18.926000 0.883100
18.949300 0.869000
18.972700 0.894800
18.996000 0.931000
19.019300 0.873600
19.042700 0.838100
19.066000 0.832000
19.089300 0.834400
19.112700 0.837700
19.136000 0.840300
19.159300 0.842600
19.182700 0.846700
19.206000 0.854600
19.229300 0.862400
19.252700 0.872700
19.276000 0.886200
19.299300 0.901600
19.322700 0.918800
19.346000 0.934000
19.369300 0.948700
19.392700 0.962000
19.416000 0.973300
19.439300 0.981400
19.462700 0.985100
19.486000 0.980500
19.509300 0.979700
19.532700 0.986000
19.556000 0.997200
19.579300 1.017000
19.602700 1.045300
19.626000 1.066200
19.649300 1.069000
19.672700 1.058700
19.696000 1.054900
19.719300 1.051500
19.742700 1.037500
19.766000 1.018000
19.789300 0.997500
19.812700 0.978200
19.836000 0.960400
19.859300 0.943000
19.882700 0.927200
19.906000 0.907700
19.929300 0.888600
19.952700 0.879500
19.976000 0.873500
19.999300 0.868400
20.022700 0.861000
20.046000 0.855200
20.069300 0.852600
20.092700 0.828800
20.116000 0.804300
20.139300 0.789500
20.162700 0.782400
20.186000 0.775300
20.209400 0.767500
20.232700 0.759700
20.256000 0.753300
20.279400 0.751200
20.302700 0.751000
20.326000 0.751900
20.349400 0.754600
20.372700 0.758400
20.396000 0.763300
20.419400 0.775100
20.442700 0.792500
20.466000 0.800400
20.489400 0.803400
20.512700 0.803200
20.536000 0.802000
20.559400 0.801400
20.582700 0.801800
20.606000 0.802900
20.629400 0.804700
20.652700 0.807400
20.676000 0.811900
20.699400 0.816800
20.722700 0.822000
20.746000 0.829000
20.769400 0.834800
20.792700 0.839200
20.816000 0.842300
20.839400 0.844500
20.862700 0.846300
20.886000 0.847800
20.909400 0.848600
20.932700 0.848900
20.956000 0.848700
20.979400 0.850000
21.002700 0.852900
21.026000 0.859200
21.049400 0.868800
21.072700 0.881800
21.096000 0.889500
21.119400 0.891600
21.142700 0.892800
21.166000 0.893700
21.189400 0.894500
21.212700 0.894300
21.236000 0.892500
21.259400 0.890000
21.282700 0.893900
21.306000 0.898000
21.329400 0.900000
21.352700 0.903900
21.376000 0.907300
21.399400 0.911200
21.422700 0.926100
21.446000 0.937300
21.469400 0.948600
21.492700 0.961300
21.516000 0.982700
21.539400 1.018000
21.562700 1.038000
21.586000 1.015400
21.609400 0.999400
21.632700 0.985400
21.656000 0.974400
21.679400 0.964700
21.702700 0.955500
21.726000 0.946400
21.749400 0.938200
21.772700 0.931000
21.796100 0.925100
21.819400 0.921600
21.842700 0.920100
21.866100 0.920100
21.889400 0.920500
21.912700 0.921000
21.936100 0.922100
21.959400 0.917800
21.982700 0.913000
22.006100 0.910400
22.029400 0.916900
22.052700 0.915000
22.076100 0.910300
22.099400 0.907100
22.122700 0.903800
22.146100 0.900500
22.169400 0.899200
22.192700 0.898900
22.216100 0.898800
22.239400 0.899100
22.262700 0.899500
22.286100 0.901900
22.309400 0.909400
22.332700 0.919700
22.356100 0.918900
22.379400 0.916500
22.402700 0.914200
22.426100 0.911200
22.449400 0.905300
22.472700 0.894900
22.496100 0.889900
22.519400 0.891000
22.542700 0.895200
22.566100 0.898000
22.589400 0.901100
22.612700 0.904000
22.636100 0.906600
22.659400 0.912800
22.682700 0.924400
22.706100 0.939900
22.729400 0.976600
22.752700 1.017400
22.776100 1.053200
22.799400 1.075400
22.822700 0.902700
22.846100 1.020900
22.869400 0.946100
22.892700 0.869500
22.916100 0.841600
22.939400 0.827000
22.962700 0.822100
22.986100 0.816800
23.009400 0.811300
23.032700 0.805300
23.056100 0.799400
23.079400 0.794600
23.102700 0.791400
23.126100 0.788800
23.149400 0.786100
23.172700 0.783600
23.196100 0.781900
23.219400 0.780700
23.242700 0.780000
23.266100 0.780000
23.289400 0.780500
23.312700 0.781700
23.336100 0.783700
23.359400 0.787200
23.382700 0.792100
23.406100 0.798400
23.429400 0.805800
23.452800 0.809800
23.476100 0.809200
23.499400 0.805400
23.522800 0.807100
23.546100 0.809600
23.569400 0.812600
23.592800 0.816200
23.616100 0.818200
23.639400 0.818300
23.662800 0.823100
23.686100 0.831300
23.709400 0.842000
23.732800 0.854200
23.756100 0.859600
23.779400 0.857500
23.802800 0.858200
23.826100 0.860800
23.849400 0.862700
23.872800 0.864800
23.896100 0.867200
23.919400 0.870000
23.942800 0.873500
23.966100 0.876600
23.989400 0.878700
24.012800 0.880000
24.036100 0.880800
24.059400 0.882000
24.082800 0.886800
24.106100 0.895900
24.129400 0.892600
24.152800 0.875700
24.176100 0.850500
24.199400 0.848300
24.222800 0.846800
24.246100 0.844300
24.269400 0.847800
24.292800 0.841600
24.316100 0.835300
24.339400 0.828700
24.362800 0.827600
24.386100 0.834000
24.409400 0.833500
24.432800 0.826500
24.456100 0.816400
24.479400 0.809300
24.502800 0.801200
24.526100 0.793600
24.549400 0.786500
24.572800 0.777600
24.596100 0.769600
24.619400 0.761900
24.642800 0.754000
24.666100 0.745800
24.689400 0.737600
24.712800 0.729400
24.736100 0.721500
24.759400 0.714100
24.782800 0.707500
24.806100 0.701400
24.829400 0.695500
24.852800 0.689900
24.876100 0.684700
24.899400 0.679800
24.922800 0.675200
24.946100 0.671300
24.969400 0.668000
24.992800 0.664800
25.016100 0.661800
25.039500 0.658700
25.062800 0.656400
25.086100 0.655000
25.109500 0.654000
25.132800 0.654000
25.156100 0.654600
25.179500 0.655500
25.202800 0.656400
25.226100 0.657300
25.249500 0.658500
25.272800 0.659000
25.296100 0.660600
25.319500 0.662700
25.342800 0.666800
25.366100 0.674300
25.389500 0.680500
25.412800 0.686300
25.436100 0.692000
25.459500 0.698100
25.482800 0.705800
25.506100 0.715800
25.529500 0.725300
25.552800 0.734000
25.576100 0.741300
25.599500 0.747800
25.622800 0.754300
25.646100 0.760600
25.669500 0.766500
25.692800 0.769700
25.716100 0.849800
25.739500 0.765200
25.762800 0.765700
25.786100 0.766900
25.809500 0.769400
25.832800 0.773200
25.856100 0.777400
25.879500 0.782300
25.902800 0.787600
25.926100 0.793300
25.949500 0.799300
25.972800 0.805700
25.996100 0.817800
26.019500 0.836300
26.042800 0.858900
26.066100 0.882100
26.089500 0.901800
26.112800 0.916500
26.136100 0.927000
26.159500 0.938000
26.182800 0.939900
26.206100 0.921500
26.229500 0.893000
26.252800 0.894100
26.276100 0.904700
26.299500 0.911900
26.322800 0.913700
26.346100 0.910600
26.369500 0.907800
26.392800 0.911700
26.416100 0.917500
26.439500 0.919100
26.462800 0.917900
26.486100 0.912500
26.509500 0.905300
26.532800 0.901400
26.556100 0.897200
26.579500 0.890500
26.602800 0.885200
26.626100 0.886600
26.649500 0.882100
26.672800 0.880100
26.696200 0.880600
26.719500 0.895000
26.742800 0.959700
26.766200 0.956000
26.789500 0.957000
26.812800 0.976700
26.836200 1.022500
26.859500 1.012600
26.882800 1.024400
26.906200 1.040100
26.929500 1.073500
26.952800 1.104400
26.976200 1.136000
26.999500 1.165600
27.022800 1.172400
27.046200 1.186200
27.069500 1.202800
27.092800 1.203700
27.116200 1.200300
27.139500 1.204800
27.162800 1.176400
27.186200 1.149500
27.209500 1.105400
27.232800 1.069100
27.256200 1.041500
27.279500 1.033300
27.302800 1.047600
27.326200 1.091200
27.349500 1.125600
27.372800 1.164500
27.396200 1.190300
27.419500 1.193600
27.442800 1.167700
27.466200 1.138100
27.489500 1.127500
27.512800 1.117300
27.536200 1.106700
27.559500 1.104200
27.582800 1.106600
27.606200 1.112200
27.629500 1.119200
27.652800 1.147800
27.676200 1.189200
27.699500 1.181400
27.722800 1.180000
27.746200 1.185200
27.769500 1.188100
27.792800 1.189200
27.816200 1.195100
27.839500 1.203900
27.862800 1.218100
27.886200 1.237400
27.909500 1.263800
27.932800 1.297600
27.956200 1.333300
27.979500 1.387700
28.002800 1.432900
28.026200 1.446900
28.049500 1.379100
28.072800 1.332000
28.096200 1.309800
28.119500 1.275000
28.142800 1.245500
28.166200 1.235900
28.189500 1.243000
28.212800 1.238300
28.236200 1.214800
28.259500 1.199900
28.282900 1.186800
28.306200 1.179000
28.329500 1.176400
28.352900 1.183000
28.376200 1.222600
28.399500 1.217300
28.422900 1.193500
28.446200 1.200900
28.469500 1.205000
28.492900 1.200000
28.516200 1.195600
28.539500 1.185600
28.562900 1.172900
28.586200 1.159500
28.609500 1.144400
28.632900 1.126900
28.656200 1.109600
28.679500 1.094600
28.702900 1.082600
28.726200 1.074100
28.749500 1.071200
28.772900 1.069500
28.796200 1.068600
28.819500 1.067700
28.842900 1.065100
28.866200 1.062300
28.889500 1.067500
28.912900 1.069700
28.936200 1.071900
28.959500 1.077900
28.982900 1.086200
29.006200 1.093400
29.029500 1.105800
29.052900 1.115500
29.076200 1.125900
29.099500 1.143000
29.122900 1.160500
29.146200 1.172700
29.169500 1.179100
29.192900 1.187200
29.216200 1.194200
29.239500 1.192300
29.262900 1.183500
29.286200 1.184500
29.309500 1.206400
29.332900 1.225200
29.356200 1.238800
29.379500 1.195200
29.402900 1.165200
29.426200 1.160300
29.449500 1.153600
29.472900 1.143600
29.496200 1.131500
29.519500 1.116400
29.542900 1.094400
29.566200 1.045300
29.589500 1.023500
29.612900 1.006600
29.636200 0.992000
29.659500 0.986900
29.682900 0.982100
29.706200 0.977700
29.729500 0.964500
29.752900 0.945400
29.776200 0.908600
29.799500 0.878700
29.822900 0.860300
29.846200 0.848100
29.869500 0.837300
29.892900 0.828200
29.916200 0.822000
29.939600 0.819200
29.962900 0.818200
29.986200 0.817600
30.009600 0.816500
30.032900 0.815400
30.056200 0.815300
30.079600 0.817000
30.102900 0.820400
30.126200 0.824800
30.149600 0.831100
30.172900 0.844600
30.196200 0.883700
30.219600 0.951500
30.242900 1.003000
30.266200 1.036600
30.289600 1.019500
30.312900 0.980000
30.336200 0.958800
30.359600 0.943900
30.382900 0.933200
30.406200 0.910600
30.429600 0.902900
30.452900 0.901100
30.476200 0.904400
30.499600 0.908800
30.522900 0.915000
30.546200 0.924700
30.569600 0.937300
30.592900 0.950300
30.616200 0.950500
30.639600 0.939400
30.662900 0.940700
30.686200 0.949300
30.709600 0.964400
30.732900 0.952600
30.756200 0.938000
30.779600 0.924000
30.802900 0.911600
30.826200 0.899600
30.849600 0.894500
30.872900 0.892900
30.896200 0.870400
30.919600 0.869400
30.942900 0.882100
30.966200 0.890000
30.989600 0.887300
31.012900 0.878900
31.036200 0.866700
31.059600 0.847400
31.082900 0.817600
31.106200 0.792500
31.129600 0.765800
31.152900 0.734400
31.176200 0.706700
31.199600 0.681500
31.222900 0.659300
31.246200 0.624500
31.269600 0.586700
31.292900 0.565800
31.316200 0.555000
31.339600 0.547600
31.362900 0.538300
31.386200 0.531100
31.409600 0.524500
31.432900 0.519200
31.456200 0.515100
31.479600 0.512700
31.502900 0.510200
31.526200 0.517800
31.549600 0.526800
31.572900 0.520300
31.596300 0.529300
31.619600 0.538400
31.642900 0.548000
31.666300 0.558400
31.689600 0.569200
31.712900 0.581900
31.736300 0.597400
31.759600 0.613900
31.782900 0.685000
31.806300 0.749700
31.829600 0.721100
31.852900 0.673100
31.876300 0.644200
31.899600 0.627800
31.922900 0.595700
31.946300 0.586700
31.969600 0.590200
31.992900 0.596900
32.016300 0.606600
32.039600 0.619100
32.062900 0.633900
32.086300 0.647600
32.109600 0.660400
32.132900 0.672700
32.156300 0.687300
32.179600 0.705100
32.202900 0.721900
32.226300 0.726100
32.249600 0.723900
32.272900 0.731400
32.296300 0.740800
32.319600 0.750400
32.342900 0.757100
32.366300 0.762000
32.389600 0.756300
32.412900 0.752300
32.436300 0.760400
32.459600 0.770100
32.482900 0.777700
32.506300 0.781600
32.529600 0.797900
32.552900 0.842100
32.576300 0.827700
32.599600 0.744000
32.622900 0.751600
32.646300 0.744700
32.669600 0.736700
32.692900 0.732700
32.716300 0.732900
32.739600 0.739300
32.762900 0.750000
32.786300 0.761700
32.809600 0.777200
32.832900 0.805200
32.856300 0.927700
32.879600 0.988100
32.902900 0.937100
32.926300 0.937300
32.949600 0.946400
32.972900 0.946600
32.996300 0.955500
33.019600 1.020400
33.042900 0.929900
33.066300 0.906500
33.089600 0.907700
33.112900 0.907000
33.136300 0.911600
33.159600 0.968700
33.183000 1.003900
33.206300 1.058300
33.229600 1.086500
33.253000 1.115900
33.276300 1.139700
33.299600 1.155300
33.323000 1.163200
33.346300 1.172500
33.369600 1.198000
33.393000 1.243700
33.416300 1.259300
33.439600 1.304000
33.463000 1.343200
33.486300 1.404400
33.509600 1.503300
33.533000 1.581700
33.556300 1.628000
33.579600 1.706600
33.603000 1.576000
33.626300 1.334200
33.649600 1.259000
33.673000 1.249200
33.696300 1.257800
33.719600 1.283200
33.743000 1.291900
33.766300 1.263600
33.789600 1.238200
33.813000 1.219200
33.836300 1.196400
33.859600 1.177900
33.883000 1.177500
33.906300 1.172800
33.929600 1.164900
33.953000 1.160800
33.976300 1.166800
33.999600 1.176800
34.023000 1.192300
34.046300 1.213800
34.069600 1.236700
34.093000 1.326900
34.116300 1.339200
34.139600 1.381500
34.163000 1.489100
34.186300 1.565200
34.209600 1.594700
34.233000 1.603700
34.256300 1.581100
34.279600 1.490400
34.303000 1.365100
34.326300 1.297800
34.349600 1.281900
34.373000 1.262200
34.396300 1.246000
34.419600 1.224200
34.443000 1.188600
34.466300 1.148100
34.489600 1.112200
34.513000 1.081700
34.536300 1.046500
34.559600 1.008800
34.583000 0.988500
34.606300 0.972800
34.629600 0.957100
34.653000 0.944300
34.676300 0.937200
34.699600 0.936200
34.723000 0.980300
34.746300 1.005200
34.769600 1.028800
34.793000 1.044500
34.816300 1.062000
34.839700 1.065300
34.863000 1.048600
34.886300 1.047700
34.909700 1.032300
34.933000 1.020700
34.956300 1.010300
34.979700 0.984400
35.003000 0.964000
35.026300 0.952200
35.049700 0.946500
35.073000 0.943400
35.096300 0.946800
35.119700 0.954600
35.143000 0.966900
35.166300 0.981100
35.189700 0.994700
35.213000 1.005000
35.236300 1.013000
35.259700 1.017400
35.283000 1.019900
35.306300 1.024600
35.329700 1.029400
35.353000 1.033700
35.376300 1.041500
35.399700 1.056500
35.423000 1.084200
35.446300 1.124900
35.469700 1.144800
35.493000 1.147500
35.516300 1.160400
35.539700 1.193400
35.563000 1.201500
35.586300 1.179600
35.609700 1.177100
35.633000 1.197400
35.656300 1.182100
35.679700 1.153400
35.703000 1.109300
35.726300 1.086900
35.749700 1.075300
35.773000 1.054500
35.796300 1.029100
35.819700 1.002300
35.843000 0.976300
35.866300 0.955300
35.889700 0.938800
35.913000 0.926000
35.936300 0.917600
35.959700 0.911200
35.983000 0.907900
36.006300 0.907200
36.029700 0.909900
36.053000 0.916300
36.076300 0.922300
36.099700 0.930900
36.123000 0.942900
36.146300 0.958400
36.169700 1.019200
36.193000 1.037800
36.216300 1.064000
36.239700 1.094900
36.263000 1.135700
36.286300 1.110900
36.309700 1.076200
36.333000 1.074700
36.356300 1.055300
36.379700 1.013600
36.403000 0.970700
36.426400 0.937500
36.449700 0.917900
36.473000 0.907000
36.496400 0.900000
36.519700 0.898400
36.543000 0.900100
36.566400 0.897400
36.589700 0.897100
36.613000 0.900400
36.636400 0.906000
36.659700 0.912500
36.683000 0.916900
36.706400 0.922500
36.729700 0.928200
36.753000 0.934100
36.776400 0.939500
36.799700 0.945500
36.823000 0.951100
36.846400 0.955700
36.869700 0.954300
36.893000 0.949200
36.916400 0.947400
36.939700 0.947400
36.963000 0.948700
36.986400 0.953400
37.009700 0.961700
37.033000 0.979200
37.056400 1.003300
37.079700 1.018800
37.103000 1.028800
37.126400 1.028900
37.149700 1.021300
37.173000 1.030900
37.196400 1.053500
37.219700 1.050200
37.243000 1.055200
37.266400 1.069600
37.289700 1.092200
37.313000 1.122400
37.336400 1.161400
37.359700 1.210300
37.383000 1.254300
37.406400 1.271900
37.429700 1.313000
37.453000 1.371500
37.476400 1.443300
37.499700 1.528000
37.523000 1.630200
37.546400 1.765400
37.569700 1.949400
37.593000 2.067500
37.616400 2.031200
37.639700 2.187700
37.663000 2.296200
37.686400 2.523900
37.709700 2.908100
37.733000 3.385000
37.756400 4.288600
37.779700 5.356300
37.803000 18.329500
37.826400 6.901700
37.849700 5.058100
37.873000 3.502300
37.896400 2.503000
37.919700 2.040300
37.943000 1.694600
37.966400 1.347800
37.989700 1.158300
38.013000 0.986300
38.036400 0.948300
38.059700 0.496100
38.083100 0.433000
38.106400 0.373700
38.129700 0.306400
38.153100 0.232700
38.176400 0.174700
38.199700 0.133000
38.223100 0.106100
38.246400 0.079000
38.269700 0.031200
38.293100 0.000000
38.316400 0.000000
38.339700 0.000000
38.363100 0.000000
38.386400 0.000000
38.409700 0.000000
38.433100 0.000000
38.456400 0.000000
38.479700 0.000000
38.503100 0.000000
38.526400 0.000000
38.549700 0.000000
38.573100 0.000000
38.596400 0.000000
38.619700 0.000000
38.643100 0.000000
38.666400 0.000000
38.689700 0.000000
38.713100 0.000000
38.736400 0.000000
38.759700 0.000000
38.783100 0.000000
38.806400 0.000000
38.829700 0.000000
38.853100 0.000000
38.876400 0.000000
38.899700 0.000000
38.923100 0.000000
38.946400 0.000000
38.969700 0.000000
38.993100 0.000000
39.016400 0.000000
39.039700 0.000000
39.063100 0.000000
39.086400 0.000000
39.109700 0.000000
39.133100 0.000000
39.156400 0.000000
39.179700 0.000000
39.203100 0.000000
39.226400 0.000000
39.249700 0.000000
39.273100 0.000000
39.296400 0.000000
39.319700 0.000000
39.343100 0.000000
39.366400 0.000000
39.389700 0.000000
39.413100 0.000000
39.436400 0.000000
39.459700 0.000000
39.483100 0.000000
39.506400 0.000000
39.529700 0.000000
39.553100 0.000000
39.576400 0.000000
39.599700 0.000000
39.623100 0.000000
39.646400 0.000000
39.669800 0.000000
39.693100 0.000000
39.716400 0.000000
39.739800 0.000000
39.763100 0.000000
39.786400 0.000000
39.809800 0.000000
39.833100 0.000000
39.856400 0.000000
39.879800 0.000000
39.903100 0.000000
39.926400 0.000000
39.949800 0.000000
39.973100 0.000000
39.996400 0.000000
40.019800 0.000000
40.043100 0.000000
40.066400 0.000000
40.089800 0.000000
40.113100 0.000000
40.136400 0.000000
40.159800 0.000000
40.183100 0.000000
40.206400 0.000000
40.229800 0.000000
40.253100 0.000000
40.276400 0.000000
40.299800 0.000000
40.323100 0.000000
40.346400 0.000000
40.369800 0.000000
40.393100 0.000000
40.416400 0.000000
40.439800 0.000000
40.463100 0.000000
40.486400 0.000000
40.509800 0.000000
40.533100 0.000000
40.556400 0.000000
40.579800 0.000000
40.603100 0.000000
40.626400 0.000000
40.649800 0.000000
e
