set title 'mp-20078 - Density of States'
set xlabel 'Energy (eV)'
set ylabel 'DOS (states/eV)'
set grid
set xrange [-10:10]
set yrange [0:99.592]
set xzeroaxis lt -1
set terminal png size 800,600
set output 'mp-20078_dos_gnuplot.png'
plot '-' using 1:2 with lines title 'DOS'
-15.167300 0.000000
-15.146900 0.000000
-15.126400 0.000000
-15.105900 0.000000
-15.085400 0.000000
-15.065000 0.000000
-15.044500 0.000000
-15.024000 0.000000
-15.003500 0.000000
-14.983100 0.000000
-14.962600 0.000000
-14.942100 0.000000
-14.921700 0.000000
-14.901200 0.000000
-14.880700 0.000000
-14.860200 0.000000
-14.839800 0.000000
-14.819300 0.000000
-14.798800 0.000000
-14.778300 0.000000
-14.757900 0.000000
-14.737400 0.000000
-14.716900 0.000000
-14.696500 0.000000
-14.676000 0.000000
-14.655500 0.000000
-14.635000 0.000000
-14.614600 0.000000
-14.594100 0.000000
-14.573600 0.000000
-14.553100 0.000000
-14.532700 0.000000
-14.512200 0.000000
-14.491700 0.000000
-14.471300 0.000000
-14.450800 0.000000
-14.430300 0.000000
-14.409800 0.000000
-14.389400 0.000000
-14.368900 0.000000
-14.348400 0.000000
-14.327900 0.000000
-14.307500 0.000000
-14.287000 0.000000
-14.266500 0.000000
-14.246100 0.000000
-14.225600 0.000000
-14.205100 0.000000
-14.184600 0.000000
-14.164200 0.000000
-14.143700 0.000000
-14.123200 0.000000
-14.102700 0.000000
-14.082300 0.000000
-14.061800 0.000000
-14.041300 0.000000
-14.020900 0.000000
-14.000400 0.000000
-13.979900 0.000000
-13.959400 0.000000
-13.939000 0.000000
-13.918500 0.000000
-13.898000 0.000000
-13.877500 0.000000
-13.857100 0.000000
-13.836600 0.000000
-13.816100 0.000000
-13.795700 0.000000
-13.775200 0.000000
-13.754700 0.000000
-13.734200 0.000000
-13.713800 0.000000
-13.693300 0.000000
-13.672800 0.000000
-13.652300 0.000000
-13.631900 0.000000
-13.611400 0.000000
-13.590900 0.000000
-13.570400 0.000000
-13.550000 0.000000
-13.529500 0.000000
-13.509000 0.000000
-13.488600 0.000000
-13.468100 0.000000
-13.447600 0.000000
-13.427100 0.000000
-13.406700 0.000000
-13.386200 0.000000
-13.365700 0.000000
-13.345200 0.000000
-13.324800 0.000000
-13.304300 0.842200
-13.283800 28.816700
-13.263400 28.789100
-13.242900 28.769400
-13.222400 28.757700
-13.201900 21.398000
-13.181500 14.042900
-13.161000 0.000000
-13.140500 0.000000
-13.120000 8.403800
-13.099600 59.831600
-13.079100 48.073700
-13.058600 44.681600
-13.038200 27.035400
-13.017700 3.759500
-12.997200 3.706600
-12.976700 19.030300
-12.956300 25.334300
-12.935800 20.473200
-12.915300 39.021300
-12.894800 36.892200
-12.874400 33.348800
-12.853900 11.974400
-12.833400 1.164500
-12.813000 0.000000
-12.792500 5.328900
-12.772000 6.629200
-12.751500 8.343000
-12.731100 35.672600
-12.710600 11.198000
-12.690100 19.580300
-12.669600 28.580000
-12.649200 19.756600
-12.628700 16.157700
-12.608200 10.858500
-12.587800 10.222200
-12.567300 8.784000
-12.546800 5.401000
-12.526300 1.293800
-12.505900 0.336500
-12.485400 0.000000
-12.464900 0.000000
-12.444400 1.198800
-12.424000 5.149100
-12.403500 41.500400
-12.383000 46.864500
-12.362600 36.732300
-12.342100 42.649300
-12.321600 27.764300
-12.301100 34.115900
-12.280700 51.036400
-12.260200 35.395000
-12.239700 30.393900
-12.219200 24.210800
-12.198800 13.646300
-12.178300 7.976300
-12.157800 4.178600
-12.137300 1.897500
-12.116900 0.694200
-12.096400 0.090600
-12.075900 0.000000
-12.055500 0.000000
-12.035000 0.000000
-12.014500 0.000000
-11.994000 0.000000
-11.973600 0.000000
-11.953100 0.000000
-11.932600 0.000000
-11.912100 0.000000
-11.891700 0.000000
-11.871200 0.000000
-11.850700 0.000000
-11.830300 0.000000
-11.809800 0.000000
-11.789300 0.000000
-11.768800 0.000000
-11.748400 0.000000
-11.727900 0.000000
-11.707400 0.000000
-11.686900 0.000000
-11.666500 0.000000
-11.646000 0.000000
-11.625500 0.000000
-11.605100 0.000000
-11.584600 0.000000
-11.564100 0.000000
-11.543600 0.000000
-11.523200 0.000000
-11.502700 0.000000
-11.482200 0.000000
-11.461700 0.000000
-11.441300 0.000000
-11.420800 0.000000
-11.400300 0.000000
-11.379900 0.000000
-11.359400 0.000000
-11.338900 0.000000
-11.318400 0.000000
-11.298000 0.000000
-11.277500 0.000000
-11.257000 0.000000
-11.236500 0.000000
-11.216100 0.000000
-11.195600 0.000000
-11.175100 0.000000
-11.154700 0.000000
-11.134200 0.000000
-11.113700 0.000000
-11.093200 0.000000
-11.072800 0.000000
-11.052300 0.000000
-11.031800 69.748900
-11.011300 126.000400
-10.990900 72.005300
-10.970400 102.794400
-10.949900 146.229600
-10.929500 87.561200
-10.909000 48.799700
-10.888500 224.871000
-10.868000 154.143900
-10.847600 211.447500
-10.827100 174.561600
-10.806600 18.085400
-10.786100 41.708800
-10.765700 75.425800
-10.745200 137.972600
-10.724700 88.162900
-10.704200 138.303800
-10.683800 187.340300
-10.663300 263.184700
-10.642800 192.230500
-10.622400 107.636200
-10.601900 114.619300
-10.581400 58.066800
-10.560900 41.772100
-10.540500 13.673000
-10.520000 21.591500
-10.499500 29.416200
-10.479000 15.752800
-10.458600 13.953600
-10.438100 13.373300
-10.417600 11.673000
-10.397200 12.452200
-10.376700 21.233900
-10.356200 21.689200
-10.335700 16.905800
-10.315300 17.679000
-10.294800 11.905800
-10.274300 14.728600
-10.253800 17.512400
-10.233400 15.903200
-10.212900 12.856400
-10.192400 8.672400
-10.172000 2.728600
-10.151500 1.897200
-10.131000 2.716100
-10.110500 5.805100
-10.090100 12.790500
-10.069600 28.163300
-10.049100 15.819100
-10.028600 18.297500
-10.008200 10.069000
-9.987700 2.391800
-9.967200 6.671900
-9.946800 14.574600
-9.926300 14.565600
-9.905800 10.172700
-9.885300 9.810600
-9.864900 9.153300
-9.844400 8.482300
-9.823900 10.147600
-9.803400 10.274900
-9.783000 10.745200
-9.762500 5.777800
-9.742000 17.356400
-9.721600 18.589900
-9.701100 17.333700
-9.680600 15.110100
-9.660100 6.513200
-9.639700 3.514800
-9.619200 2.708300
-9.598700 2.004400
-9.578200 1.403200
-9.557800 7.906500
-9.537300 8.786700
-9.516800 13.731200
-9.496400 13.410500
-9.475900 13.474000
-9.455400 11.120000
-9.434900 6.496700
-9.414500 5.915200
-9.394000 5.343200
-9.373500 4.780800
-9.353000 2.440300
-9.332600 1.213600
-9.312100 13.145900
-9.291600 28.953200
-9.271100 28.666700
-9.250700 32.946600
-9.230200 36.356600
-9.209700 27.273400
-9.189300 11.234300
-9.168800 3.825200
-9.148300 1.591400
-9.127800 0.000000
-9.107400 0.000000
-9.086900 0.000000
-9.066400 0.000000
-9.045900 0.000000
-9.025500 0.000000
-9.005000 0.000000
-8.984500 0.000000
-8.964100 0.000000
-8.943600 0.000000
-8.923100 0.000000
-8.902600 0.000000
-8.882200 0.000000
-8.861700 0.000000
-8.841200 0.000000
-8.820700 0.000000
-8.800300 0.000000
-8.779800 0.000000
-8.759300 0.000000
-8.738900 0.000000
-8.718400 0.000000
-8.697900 0.000000
-8.677400 0.000000
-8.657000 0.000000
-8.636500 0.000000
-8.616000 0.000000
-8.595500 0.000000
-8.575100 0.000000
-8.554600 0.000000
-8.534100 0.000000
-8.513700 0.000000
-8.493200 0.000000
-8.472700 0.000000
-8.452200 0.000000
-8.431800 0.000000
-8.411300 0.000000
-8.390800 0.000000
-8.370300 0.000000
-8.349900 0.000000
-8.329400 0.000000
-8.308900 0.000000
-8.288500 0.000000
-8.268000 0.000000
-8.247500 0.000000
-8.227000 0.000000
-8.206600 0.000000
-8.186100 0.000000
-8.165600 0.000000
-8.145100 0.000000
-8.124700 0.000000
-8.104200 0.000000
-8.083700 0.000000
-8.063300 0.000000
-8.042800 0.000000
-8.022300 0.000000
-8.001800 0.000000
-7.981400 0.000000
-7.960900 0.000000
-7.940400 0.000000
-7.919900 0.000000
-7.899500 0.000000
-7.879000 0.000000
-7.858500 0.000000
-7.838000 0.000000
-7.817600 0.000000
-7.797100 0.000000
-7.776600 0.000000
-7.756200 0.000000
-7.735700 0.000000
-7.715200 0.000000
-7.694700 0.000000
-7.674300 0.000000
-7.653800 0.000000
-7.633300 0.000000
-7.612800 0.000000
-7.592400 0.000000
-7.571900 0.000000
-7.551400 0.000000
-7.531000 0.000000
-7.510500 0.000000
-7.490000 0.000000
-7.469500 0.000000
-7.449100 0.000000
-7.428600 0.000000
-7.408100 0.000000
-7.387600 0.000000
-7.367200 0.000000
-7.346700 0.000000
-7.326200 0.000000
-7.305800 0.000000
-7.285300 0.000000
-7.264800 0.000000
-7.244300 0.000000
-7.223900 0.000000
-7.203400 0.000000
-7.182900 0.000000
-7.162400 0.000000
-7.142000 0.000000
-7.121500 0.000000
-7.101000 0.000000
-7.080600 0.000000
-7.060100 0.000000
-7.039600 0.000000
-7.019100 0.000000
-6.998700 0.000000
-6.978200 0.000000
-6.957700 0.000000
-6.937200 0.000000
-6.916800 0.000000
-6.896300 0.000000
-6.875800 0.000000
-6.855400 0.000000
-6.834900 0.000000
-6.814400 0.000000
-6.793900 0.000000
-6.773500 0.000000
-6.753000 0.000000
-6.732500 0.000000
-6.712000 0.000000
-6.691600 0.000000
-6.671100 0.000000
-6.650600 0.000000
-6.630100 0.000000
-6.609700 0.000000
-6.589200 0.000000
-6.568700 0.000000
-6.548300 0.000000
-6.527800 0.000000
-6.507300 0.000000
-6.486800 0.000000
-6.466400 0.000000
-6.445900 0.000000
-6.425400 0.000000
-6.404900 0.000000
-6.384500 0.000000
-6.364000 0.000000
-6.343500 0.000000
-6.323100 0.000000
-6.302600 0.000000
-6.282100 0.000000
-6.261600 0.000000
-6.241200 0.000000
-6.220700 0.000000
-6.200200 0.000000
-6.179700 0.000000
-6.159300 0.000000
-6.138800 0.000000
-6.118300 0.000000
-6.097900 0.000000
-6.077400 0.000000
-6.056900 0.000000
-6.036400 0.000000
-6.016000 0.000000
-5.995500 0.000000
-5.975000 0.000000
-5.954500 0.000000
-5.934100 0.000000
-5.913600 0.000000
-5.893100 0.000000
-5.872700 0.000000
-5.852200 0.000000
-5.831700 0.000000
-5.811200 0.000000
-5.790800 0.000000
-5.770300 0.000000
-5.749800 0.000000
-5.729300 0.000000
-5.708900 0.000000
-5.688400 0.000000
-5.667900 0.000000
-5.647500 0.000000
-5.627000 0.000000
-5.606500 0.000000
-5.586000 0.000000
-5.565600 0.000000
-5.545100 0.000000
-5.524600 0.000000
-5.504100 0.000000
-5.483700 0.000000
-5.463200 0.000000
-5.442700 0.000000
-5.422300 0.000000
-5.401800 0.000000
-5.381300 0.000000
-5.360800 0.000000
-5.340400 0.000000
-5.319900 0.000000
-5.299400 0.000000
-5.278900 0.000000
-5.258500 0.000000
-5.238000 0.000000
-5.217500 0.000000
-5.197000 0.000000
-5.176600 0.000000
-5.156100 0.000000
-5.135600 0.000000
-5.115200 0.000000
-5.094700 0.000000
-5.074200 0.000000
-5.053700 0.000000
-5.033300 0.000000
-5.012800 0.000000
-4.992300 0.000000
-4.971800 0.000000
-4.951400 0.000000
-4.930900 0.000000
-4.910400 0.000000
-4.890000 0.000000
-4.869500 0.000000
-4.849000 0.000000
-4.828500 0.000000
-4.808100 0.000000
-4.787600 0.000000
-4.767100 0.000000
-4.746600 0.000000
-4.726200 0.000000
-4.705700 0.000000
-4.685200 0.000000
-4.664800 0.000000
-4.644300 0.000000
-4.623800 0.000000
-4.603300 0.000000
-4.582900 0.000000
-4.562400 0.000000
-4.541900 0.000000
-4.521400 0.000000
-4.501000 0.000000
-4.480500 0.000000
-4.460000 0.000000
-4.439600 0.000000
-4.419100 0.000000
-4.398600 0.000000
-4.378100 0.000000
-4.357700 0.000000
-4.337200 0.000000
-4.316700 0.000000
-4.296200 0.000000
-4.275800 0.000000
-4.255300 0.000000
-4.234800 0.000000
-4.214400 0.000000
-4.193900 0.000000
-4.173400 0.000000
-4.152900 0.000000
-4.132500 0.000000
-4.112000 0.000000
-4.091500 0.000000
-4.071000 0.000000
-4.050600 0.000000
-4.030100 0.000000
-4.009600 0.000000
-3.989200 0.000000
-3.968700 0.000000
-3.948200 0.000000
-3.927700 0.000000
-3.907300 0.000000
-3.886800 0.000000
-3.866300 0.000000
-3.845800 0.000000
-3.825400 0.000000
-3.804900 0.000000
-3.784400 0.000000
-3.763900 0.000000
-3.743500 0.000000
-3.723000 0.000000
-3.702500 0.000000
-3.682100 0.000000
-3.661600 0.000000
-3.641100 0.000000
-3.620600 0.000000
-3.600200 0.000000
-3.579700 0.000000
-3.559200 0.000000
-3.538700 0.000000
-3.518300 0.000000
-3.497800 0.000000
-3.477300 0.000000
-3.456900 0.000000
-3.436400 0.000000
-3.415900 0.000000
-3.395400 0.000000
-3.375000 0.000000
-3.354500 0.000000
-3.334000 0.000000
-3.313500 0.000000
-3.293100 0.000000
-3.272600 0.000000
-3.252100 0.000000
-3.231700 0.000000
-3.211200 0.000000
-3.190700 0.000000
-3.170200 0.000000
-3.149800 0.000000
-3.129300 0.181800
-3.108800 1.517100
-3.088300 2.254200
-3.067900 3.318100
-3.047400 4.146400
-3.026900 4.745900
-3.006500 5.381600
-2.986000 6.319000
-2.965500 7.189800
-2.945000 7.889400
-2.924600 8.544500
-2.904100 8.918500
-2.883600 9.200200
-2.863100 10.203100
-2.842700 11.174400
-2.822200 11.649200
-2.801700 11.676800
-2.781300 11.466300
-2.760800 9.428700
-2.740300 9.036400
-2.719800 9.384900
-2.699400 11.205900
-2.678900 11.765400
-2.658400 6.822700
-2.637900 6.299300
-2.617500 5.775000
-2.597000 3.232400
-2.576500 2.401400
-2.556100 2.709000
-2.535600 2.902800
-2.515100 3.099100
-2.494600 3.297900
-2.474200 3.499200
-2.453700 3.703100
-2.433200 3.909500
-2.412700 4.118400
-2.392300 15.599700
-2.371800 11.810900
-2.351300 16.301700
-2.330800 18.596400
-2.310400 15.555300
-2.289900 10.312500
-2.269400 9.930800
-2.249000 9.388500
-2.228500 9.197400
-2.208000 9.854600
-2.187500 10.440900
-2.167100 11.560900
-2.146600 11.596900
-2.126100 11.272500
-2.105600 11.794100
-2.085200 10.782100
-2.064700 14.015800
-2.044200 14.703100
-2.023800 11.886300
-2.003300 10.285800
-1.982800 5.245700
-1.962300 2.926400
-1.941900 2.015000
-1.921400 3.539100
-1.900900 4.569300
-1.880400 5.268400
-1.860000 8.372500
-1.839500 15.620100
-1.819000 20.953000
-1.798600 13.437000
-1.778100 8.877500
-1.757600 6.197000
-1.737100 3.808600
-1.716700 2.782600
-1.696200 5.131600
-1.675700 5.725700
-1.655200 4.172300
-1.634800 4.240500
-1.614300 4.568600
-1.593800 5.209900
-1.573400 6.100900
-1.552900 4.486900
-1.532400 3.927600
-1.511900 4.001500
-1.491500 3.891800
-1.471000 3.831100
-1.450500 3.845800
-1.430000 3.936000
-1.409600 4.110600
-1.389100 4.355500
-1.368600 4.552400
-1.348200 4.742000
-1.327700 4.980800
-1.307200 5.184600
-1.286700 5.336100
-1.266300 5.435300
-1.245800 5.093700
-1.225300 5.024900
-1.204800 4.378600
-1.184400 3.773700
-1.163900 3.358700
-1.143400 3.013500
-1.123000 2.730300
-1.102500 2.344900
-1.082000 1.988100
-1.061500 1.981200
-1.041100 1.975100
-1.020600 1.970000
-1.000100 1.965800
-0.979600 1.962400
-0.959200 1.960000
-0.938700 1.958500
-0.918200 1.957900
-0.897700 1.958700
-0.877300 2.017600
-0.856800 2.109300
-0.836300 2.203900
-0.815900 2.249400
-0.795400 2.257300
-0.774900 2.227900
-0.754400 2.160900
-0.734000 2.056500
-0.713500 1.900200
-0.693000 1.743000
-0.672500 1.684300
-0.652100 1.624100
-0.631600 1.562300
-0.611100 1.499000
-0.590700 1.434100
-0.570200 1.367600
-0.549700 1.299600
-0.529200 1.230000
-0.508800 1.150600
-0.488300 1.074600
-0.467800 1.026700
-0.447300 0.977900
-0.426900 0.928200
-0.406400 0.877500
-0.385900 0.825900
-0.365500 0.773400
-0.345000 0.720000
-0.324500 0.665600
-0.304000 0.610300
-0.283600 0.554100
-0.263100 0.496900
-0.242600 0.438800
-0.222100 0.381100
-0.201700 0.341400
-0.181200 0.303500
-0.160700 0.267400
-0.140300 0.233600
-0.119800 0.202000
-0.099300 0.172800
-0.078800 0.145800
-0.058400 0.121100
-0.037900 0.098700
-0.017400 0.078600
0.003100 0.060800
0.023500 0.045200
0.044000 0.032000
0.064500 0.021000
0.084900 0.012400
0.105400 0.006000
0.125900 0.001900
0.146400 0.000100
0.166800 0.000000
0.187300 0.049700
0.207800 0.257300
0.228300 0.473500
0.248700 0.689500
0.269200 0.905300
0.289700 1.120900
0.310100 1.336200
0.330600 1.561900
0.351100 1.820500
0.371600 2.112600
0.392000 2.438300
0.412500 3.063200
0.433000 4.073900
0.453500 5.109700
0.473900 10.233100
0.494400 9.453100
0.514900 8.869800
0.535400 4.492900
0.555800 4.725000
0.576300 4.969100
0.596800 5.239600
0.617200 5.992000
0.637700 7.029000
0.658200 7.981900
0.678700 9.807700
0.699100 10.129300
0.719600 10.623700
0.740100 10.391000
0.760600 10.783900
0.781000 12.948500
0.801500 13.232300
0.822000 14.776700
0.842400 10.854500
0.862900 8.065800
0.883400 6.970800
0.903900 5.577700
0.924300 6.827300
0.944800 9.128400
0.965300 15.738000
0.985800 14.542500
1.006200 11.346700
1.026700 7.750800
1.047200 5.123800
1.067600 24.952300
1.088100 16.263800
1.108600 21.346900
1.129100 17.413600
1.149500 12.336800
1.170000 8.708900
1.190500 8.202800
1.211000 10.135100
1.231400 9.840200
1.251900 9.067600
1.272400 9.037400
1.292800 10.165300
1.313300 10.791400
1.333800 12.396000
1.354300 13.379100
1.374700 17.935800
1.395200 13.988200
1.415700 8.770300
1.436200 8.280600
1.456600 10.823600
1.477100 13.007400
1.497600 24.689900
1.518000 15.375400
1.538500 6.877900
1.559000 5.122800
1.579500 5.899900
1.599900 7.968500
1.620400 12.893900
1.640900 13.883700
1.661400 15.002700
1.681800 16.816800
1.702300 15.533400
1.722800 17.023500
1.743200 10.886100
1.763700 8.465100
1.784200 9.880000
1.804700 17.469500
1.825100 15.537400
1.845600 15.113800
1.866100 13.975900
1.886600 13.096000
1.907000 9.835800
1.927500 10.743600
1.948000 11.830200
1.968500 11.395100
1.988900 15.168300
2.009400 17.925300
2.029900 12.541900
2.050300 5.742500
2.070800 9.022900
2.091300 17.438300
2.111800 13.438300
2.132200 12.077200
2.152700 10.773300
2.173200 9.509000
2.193700 8.749000
2.214100 8.589600
2.234600 11.434700
2.255100 10.875100
2.275500 10.504500
2.296000 11.328500
2.316500 13.287900
2.337000 14.321600
2.357400 15.020100
2.377900 13.799200
2.398400 13.227600
2.418900 13.490200
2.439300 14.918700
2.459800 20.689100
2.480300 20.120700
2.500700 15.357100
2.521200 10.035400
2.541700 10.762700
2.562200 12.138300
2.582600 11.564500
2.603100 11.087700
2.623600 10.777900
2.644100 9.634700
2.664500 12.154600
2.685000 15.761800
2.705500 16.339500
2.725900 17.091800
2.746400 18.329300
2.766900 20.750900
2.787400 18.120200
2.807800 17.292600
2.828300 19.639200
2.848800 20.246200
2.869300 17.306600
2.889700 18.974300
2.910200 29.865400
2.930700 32.058200
2.951100 11.619400
2.971600 8.842600
2.992100 16.795400
3.012600 18.858200
3.033000 20.285400
3.053500 18.670700
3.074000 16.904200
3.094500 23.421300
3.114900 22.384700
3.135400 45.431500
3.155900 15.697100
3.176300 19.291200
3.196800 19.314500
3.217300 21.964300
3.237800 37.724200
3.258200 16.562600
3.278700 23.986700
3.299200 29.642000
3.319700 23.769400
3.340100 26.256000
3.360600 31.457400
3.381100 25.898900
3.401600 13.089700
3.422000 12.412600
3.442500 30.518200
3.463000 46.750700
3.483400 35.433900
3.503900 41.764800
3.524400 24.347200
3.544900 14.284600
3.565300 23.044600
3.585800 27.440800
3.606300 34.516200
3.626800 43.454400
3.647200 43.927200
3.667700 19.411800
3.688200 15.998600
3.708600 90.538400
3.729100 2.517500
3.749600 9.959600
3.770100 58.617000
3.790500 31.681300
3.811000 46.034300
3.831500 33.460700
3.852000 11.280400
3.872400 7.383100
3.892900 2.298000
3.913400 2.791000
3.933800 3.364400
3.954300 3.979400
3.974800 4.477200
3.995300 4.847100
4.015700 5.017200
4.036200 5.155500
4.056700 5.421200
4.077200 6.098300
4.097600 5.712500
4.118100 5.353500
4.138600 5.021200
4.159000 4.317600
4.179500 4.324600
4.200000 5.322800
4.220500 5.604400
4.240900 4.640100
4.261400 3.740400
4.281900 2.905400
4.302400 2.506500
4.322800 3.651000
4.343300 0.000000
4.363800 7.874000
4.384200 13.163600
4.404700 17.638400
4.425200 15.390500
4.445700 11.736100
4.466100 9.863600
4.486600 13.460400
4.507100 14.920500
4.527600 17.323500
4.548000 19.390100
4.568500 20.466200
4.589000 19.570900
4.609400 22.411300
4.629900 25.432500
4.650400 23.962000
4.670900 15.831500
4.691300 11.000200
4.711800 4.394100
4.732300 2.316000
4.752800 0.778900
4.773200 0.052100
4.793700 0.000000
4.814200 0.000000
4.834700 0.000000
4.855100 0.000000
4.875600 0.000000
4.896100 0.000000
4.916500 0.000000
4.937000 0.000000
4.957500 0.000000
4.978000 0.000000
4.998400 0.000000
5.018900 0.000000
5.039400 0.000000
5.059900 0.000000
5.080300 0.000000
5.100800 0.000000
5.121300 0.000000
5.141700 0.000000
5.162200 0.000000
5.182700 0.000000
5.203200 0.000000
5.223600 0.000000
5.244100 0.000000
5.264600 0.000000
5.285100 0.000000
5.305500 0.000000
5.326000 0.000000
5.346500 0.000000
5.366900 0.000000
5.387400 0.000000
5.407900 0.000000
5.428400 0.000000
5.448800 0.000000
5.469300 0.000000
5.489800 0.000000
5.510300 0.000000
5.530700 0.000000
5.551200 0.000000
5.571700 0.000000
5.592100 0.000000
5.612600 0.000000
5.633100 0.000000
5.653600 0.000000
5.674000 0.000000
5.694500 0.000000
5.715000 0.000000
5.735500 0.000000
5.755900 0.000000
5.776400 0.000000
5.796900 0.000000
5.817300 0.000000
5.837800 0.000000
5.858300 0.000000
5.878800 0.146100
5.899200 0.976200
5.919700 1.904500
5.940200 2.858700
5.960700 3.537700
5.981100 4.113200
6.001600 4.585200
6.022100 5.031400
6.042500 5.237800
6.063000 5.148300
6.083500 4.780500
6.104000 4.156800
6.124400 3.646600
6.144900 3.012200
6.165400 2.333500
6.185900 2.333000
6.206300 2.332400
6.226800 2.331700
6.247300 2.337300
6.267800 2.355500
6.288200 2.912000
6.308700 3.121900
6.329200 3.314400
6.349600 3.489300
6.370100 4.202100
6.390600 4.142700
6.411100 4.082000
6.431500 4.022100
6.452000 3.969800
6.472500 2.754800
6.493000 3.004800
6.513400 1.355500
6.533900 1.590300
6.554400 1.847600
6.574800 2.127400
6.595300 2.429500
6.615800 2.606200
6.636300 2.760600
6.656700 2.904400
6.677200 3.037500
6.697700 3.314400
6.718200 3.633900
6.738600 3.988900
6.759100 5.887900
6.779600 8.136800
6.800000 10.350800
6.820500 9.190300
6.841000 8.294500
6.861500 5.338300
6.881900 1.902600
6.902400 1.689700
6.922900 1.469500
6.943400 1.612800
6.963800 2.127400
6.984300 2.744200
7.004800 3.462900
7.025200 4.283800
7.045700 5.206600
7.066200 3.718800
7.086700 3.899500
7.107100 4.091800
7.127600 4.295600
7.148100 4.510900
7.168600 5.336200
7.189000 8.914600
7.209500 9.375500
7.230000 10.729700
7.250400 12.455200
7.270900 11.369400
7.291400 11.031400
7.311900 9.969000
7.332300 8.817700
7.352800 7.749300
7.373300 6.208700
7.393800 5.546100
7.414200 4.879800
7.434700 4.179100
7.455200 3.444200
7.475600 3.968000
7.496100 9.274500
7.516600 9.191000
7.537100 8.235300
7.557500 6.849400
7.578000 4.955600
7.598500 1.886200
7.619000 0.133100
7.639400 0.000000
7.659900 0.000000
7.680400 0.000000
7.700900 0.000000
7.721300 0.000000
7.741800 0.000000
7.762300 0.000000
7.782700 0.000000
7.803200 0.000000
7.823700 0.000000
7.844200 0.000000
7.864600 0.000000
7.885100 0.000000
7.905600 0.000000
7.926100 0.000000
7.946500 0.000000
7.967000 0.000000
7.987500 0.000000
8.007900 1.505600
8.028400 2.413800
8.048900 3.162000
8.069400 3.965600
8.089800 4.824500
8.110300 5.660400
8.130800 4.903000
8.151300 4.926300
8.171700 4.925800
8.192200 4.901400
8.212700 4.853100
8.233100 6.335000
8.253600 5.924300
8.274100 3.603200
8.294600 3.609700
8.315000 3.617000
8.335500 3.625100
8.356000 3.634000
8.376500 3.643700
8.396900 3.654200
8.417400 3.665400
8.437900 3.677500
8.458300 3.690400
8.478800 3.600000
8.499300 3.468800
8.519800 3.402900
8.540200 3.352100
8.560700 3.315600
8.581200 3.304400
8.601700 3.337400
8.622100 3.366300
8.642600 3.425000
8.663100 3.510200
8.683500 3.611000
8.704000 3.727400
8.724500 3.859900
8.745000 4.013700
8.765400 4.212800
8.785900 4.350900
8.806400 4.499700
8.826900 4.659000
8.847300 5.056600
8.867800 5.198000
8.888300 5.662800
8.908800 5.862300
8.929200 6.056800
8.949700 6.119900
8.970200 6.064800
8.990600 6.019800
9.011100 5.851500
9.031600 5.714600
9.052100 5.607700
9.072500 5.723700
9.093000 5.871300
9.113500 6.326400
9.134000 6.510100
9.154400 6.543200
9.174900 8.327000
9.195400 7.638300
9.215800 7.934000
9.236300 8.165000
9.256800 8.076800
9.277300 7.750200
9.297700 7.411200
9.318200 7.055600
9.338700 6.487400
9.359200 6.040800
9.379600 5.431000
9.400100 6.108900
9.420600 5.395400
9.441000 6.490300
9.461500 7.484900
9.482000 8.836500
9.502500 9.176000
9.522900 4.742100
9.543400 4.598200
9.563900 4.920000
9.584400 5.200600
9.604800 5.563400
9.625300 6.394400
9.645800 10.024300
9.666200 8.975000
9.686700 9.538000
9.707200 8.668100
9.727700 7.923900
9.748100 7.544800
9.768600 5.757000
9.789100 5.832800
9.809600 5.935500
9.830000 6.193100
9.850500 6.497400
9.871000 7.731700
9.891400 10.928600
9.911900 11.144200
9.932400 11.651700
9.952900 12.675200
9.973300 14.056600
9.993800 9.092100
10.014300 9.659900
10.034800 8.930700
10.055200 9.052100
10.075700 8.770900
10.096200 8.455300
10.116600 8.109000
10.137100 7.732000
10.157600 7.593000
10.178100 7.813600
10.198500 6.792800
10.219000 6.470900
10.239500 6.335800
10.260000 6.804800
10.280400 4.861800
10.300900 1.129500
10.321400 3.641400
10.341900 3.786700
10.362300 4.780600
10.382800 6.304200
10.403300 8.085800
10.423700 10.125300
10.444200 12.422700
10.464700 15.861900
10.485200 14.376000
10.505600 6.990100
10.526100 1.567200
10.546600 1.407600
10.567100 1.324400
10.587500 1.317500
10.608000 1.387000
10.628500 1.532800
10.648900 1.754900
10.669400 2.053300
10.689900 2.428100
10.710400 3.183000
10.730800 3.844100
10.751300 4.665300
10.771800 6.739500
10.792300 7.017800
10.812700 6.873800
10.833200 6.631300
10.853700 5.472500
10.874100 4.961800
10.894600 5.461100
10.915100 7.843300
10.935600 11.223800
10.956000 11.863900
10.976500 11.587600
10.997000 10.523500
11.017500 10.479500
11.037900 10.379300
11.058400 11.480500
11.078900 8.275700
11.099300 6.598200
11.119800 6.470900
11.140300 10.554500
11.160800 5.840300
11.181200 5.624900
11.201700 6.483400
11.222200 7.328800
11.242700 8.418500
11.263100 10.268400
11.283600 9.537300
11.304100 9.103300
11.324500 9.642900
11.345000 9.155200
11.365500 8.606100
11.386000 8.852700
11.406400 7.676400
11.426900 6.787900
11.447400 11.709100
11.467900 14.665100
11.488300 15.759600
11.508800 16.955100
11.529300 16.093100
11.549700 6.797900
11.570200 5.076700
11.590700 3.620300
11.611200 2.420200
11.631600 1.706400
11.652100 1.485700
11.672600 1.665100
11.693100 4.822100
11.713500 5.870100
11.734000 7.211100
11.754500 8.742400
11.775000 9.903000
11.795400 10.592900
11.815900 10.653900
11.836400 9.351700
11.856800 8.443100
11.877300 7.897000
11.897800 7.486700
11.918300 7.551800
11.938700 8.133100
11.959200 9.880000
11.979700 12.641900
12.000200 12.274900
12.020600 8.348100
12.041100 7.501900
12.061600 6.672000
12.082000 5.858500
12.102500 5.061300
12.123000 3.790600
12.143500 2.358100
12.163900 2.083200
12.184400 1.821700
12.204900 1.604600
12.225400 1.409500
12.245800 1.081500
12.266300 0.805500
12.286800 0.612200
12.307200 0.476000
12.327700 0.356500
12.348200 0.363100
12.368700 0.548300
12.389100 0.912100
12.409600 1.445200
12.430100 2.159300
12.450600 2.997000
12.471000 3.958500
12.491500 5.043600
12.512000 6.556300
12.532400 9.299500
12.552900 18.393400
12.573400 16.125400
12.593900 4.587300
12.614300 4.079100
12.634800 3.571200
12.655300 3.063800
12.675800 2.556700
12.696200 2.050100
12.716700 2.967100
12.737200 6.697800
12.757600 8.841000
12.778100 11.021700
12.798600 13.366300
12.819100 15.429300
12.839500 17.160700
12.860000 17.787300
12.880500 10.937400
12.901000 6.678400
12.921400 2.945100
12.941900 3.321300
12.962400 3.773200
12.982800 5.193300
13.003300 6.219200
13.023800 5.778100
13.044300 6.385100
13.064700 8.340900
13.085200 11.774200
13.105700 9.681800
13.126200 9.553700
13.146600 9.260300
13.167100 11.164100
13.187600 11.521600
13.208100 10.786900
13.228500 9.544200
13.249000 8.282200
13.269500 7.054600
13.289900 6.806600
13.310400 6.427800
13.330900 5.914700
13.351400 5.267300
13.371800 6.348800
13.392300 9.175100
13.412800 8.097600
13.433300 6.963700
13.453700 6.797700
13.474200 6.078600
13.494700 5.238500
13.515100 4.326700
13.535600 4.952700
13.556100 5.720200
13.576600 6.854400
13.597000 14.280600
13.617500 12.515000
13.638000 13.805800
13.658500 13.400900
13.678900 11.088200
13.699400 11.219300
13.719900 9.067300
13.740300 10.141000
13.760800 13.128500
13.781300 11.474900
13.801800 11.368700
13.822200 10.696900
13.842700 11.830500
13.863200 11.311400
13.883700 9.991500
13.904100 10.053300
13.924600 10.117600
13.945100 10.277300
13.965500 10.242000
13.986000 10.616200
14.006500 9.329300
14.027000 7.678700
14.047400 10.447100
14.067900 17.445200
14.088400 19.218500
14.108900 17.278400
14.129300 13.784100
14.149800 9.452400
14.170300 6.217800
14.190700 4.918400
14.211200 3.781600
14.231700 2.967400
14.252200 2.503300
14.272600 2.453000
14.293100 2.921600
14.313600 3.696900
14.334100 4.554400
14.354500 5.247700
14.375000 6.116000
14.395500 6.297100
14.415900 6.814900
14.436400 7.516200
14.456900 9.206300
14.477400 10.890900
14.497800 13.190900
14.518300 15.862700
14.538800 16.514300
14.559300 14.114200
14.579700 8.662400
14.600200 4.331500
14.620700 4.251500
14.641200 4.209700
14.661600 4.297000
14.682100 4.687600
14.702600 5.047300
14.723000 8.420600
14.743500 6.616000
14.764000 6.492200
14.784500 4.106900
14.804900 3.615900
14.825400 3.176300
14.845900 2.869000
14.866400 2.724900
14.886800 1.964200
14.907300 2.200900
14.927800 2.551100
14.948200 2.875700
14.968700 3.166100
14.989200 3.498700
15.009700 3.463900
15.030100 3.426000
15.050600 3.385000
15.071100 3.341000
15.091600 3.296500
15.112000 3.268900
15.132500 3.261700
15.153000 3.274900
15.173400 3.308600
15.193900 3.362600
15.214400 3.811400
15.234900 3.963200
15.255300 4.182400
15.275800 4.472100
15.296300 4.832300
15.316800 5.371200
15.337200 5.429800
15.357700 5.166400
15.378200 4.734400
15.398600 4.533400
15.419100 4.462900
15.439600 4.406300
15.460100 4.761000
15.480500 5.013700
15.501000 5.272200
15.521500 5.279800
15.542000 4.259000
15.562400 4.541200
15.582900 4.918900
15.603400 5.266400
15.623800 5.605300
15.644300 6.016000
15.664800 6.497400
15.685300 7.264600
15.705700 8.258900
15.726200 13.440900
15.746700 12.029400
15.767200 11.647100
15.787600 11.740400
15.808100 12.993400
15.828600 12.690900
15.849000 11.818000
15.869500 10.959600
15.890000 11.212300
15.910500 11.791400
15.930900 11.417400
15.951400 11.518600
15.971900 11.354900
15.992400 11.222000
16.012800 13.889500
16.033300 12.051200
16.053800 12.267300
16.074300 10.735000
16.094700 9.652600
16.115200 9.401500
16.135700 8.626500
16.156100 7.980100
16.176600 6.346500
16.197100 5.940100
16.217600 5.510300
16.238000 5.141600
16.258500 4.858000
16.279000 4.630000
16.299500 16.313800
16.319900 11.446000
16.340400 5.464300
16.360900 5.376400
16.381300 5.337000
16.401800 5.486900
16.422300 5.901100
16.442800 6.231500
16.463200 6.423500
16.483700 6.462500
16.504200 5.388800
16.524700 6.296800
16.545100 7.157000
16.565600 9.003500
16.586100 9.974100
16.606500 11.065300
16.627000 11.224700
16.647500 11.692600
16.668000 11.976000
16.688400 11.435100
16.708900 10.717500
16.729400 9.743600
16.749900 8.355800
16.770300 8.680600
16.790800 9.469400
16.811300 9.962200
16.831700 14.036500
16.852200 15.220600
16.872700 12.842000
16.893200 7.746200
16.913600 9.385200
16.934100 11.040300
16.954600 10.945400
16.975100 7.933500
16.995500 7.069400
17.016000 6.921300
17.036500 6.498800
17.056900 6.293700
17.077400 6.178500
17.097900 6.020200
17.118400 5.846900
17.138800 5.658700
17.159300 5.455600
17.179800 5.237500
17.200300 5.787100
17.220700 5.205500
17.241200 7.622400
17.261700 5.905700
17.282100 6.063400
17.302600 6.270100
17.323100 6.572600
17.343600 8.498000
17.364000 9.079100
17.384500 8.750600
17.405000 8.918200
17.425500 8.569000
17.445900 8.444800
17.466400 8.432600
17.486900 8.404100
17.507400 8.715500
17.527800 10.424700
17.548300 9.165700
17.568800 9.157900
17.589200 9.006600
17.609700 8.716400
17.630200 7.584600
17.650700 7.353200
17.671100 7.841500
17.691600 7.318300
17.712100 5.507000
17.732600 4.735400
17.753000 7.645500
17.773500 10.431500
17.794000 13.193600
17.814400 14.623000
17.834900 16.681800
17.855400 14.968200
17.875900 7.662100
17.896300 6.098500
17.916800 5.339400
17.937300 5.188800
17.957800 5.467600
17.978200 6.191400
17.998700 7.139300
18.019200 8.126000
18.039600 11.165000
18.060100 9.832500
18.080600 8.467400
18.101100 7.263200
18.121500 7.128700
18.142000 7.014200
18.162500 6.968700
18.183000 7.155800
18.203400 6.189300
18.223900 5.763400
18.244400 5.625300
18.264800 5.663600
18.285300 8.994000
18.305800 7.722200
18.326300 8.145600
18.346700 8.636100
18.367200 9.186700
18.387700 9.718600
18.408200 10.504200
18.428600 10.922200
18.449100 10.814200
18.469600 10.848400
18.490000 11.255300
18.510500 12.023400
18.531000 10.927700
18.551500 12.050500
18.571900 13.459500
18.592400 13.309000
18.612900 8.785300
18.633400 5.750300
18.653800 5.579800
18.674300 6.845900
18.694800 9.659600
18.715200 8.294500
18.735700 8.619300
18.756200 8.726600
18.776700 10.426400
18.797100 9.519900
18.817600 8.177100
18.838100 7.871800
18.858600 7.446700
18.879000 7.047300
18.899500 9.803300
18.920000 5.843600
18.940500 4.177900
18.960900 4.967200
18.981400 5.705600
19.001900 6.350400
19.022300 6.901600
19.042800 7.603300
19.063300 7.998400
19.083800 12.723300
19.104200 9.175900
19.124700 8.643300
19.145200 7.652200
19.165700 7.132500
19.186100 6.678400
19.206600 6.531800
19.227100 6.489000
19.247500 6.752500
19.268000 7.549100
19.288500 7.793300
19.309000 8.525600
19.329400 8.321600
19.349900 7.757900
19.370400 7.709900
19.390900 7.675200
19.411300 7.651500
19.431800 8.043700
19.452300 9.768800
19.472700 9.528400
19.493200 8.820200
19.513700 8.814100
19.534200 8.583900
19.554600 7.885400
19.575100 7.245200
19.595600 6.688400
19.616100 8.977900
19.636500 10.887900
19.657000 16.649400
19.677500 11.663600
19.697900 11.571200
19.718400 12.153500
19.738900 12.783200
19.759400 14.044400
19.779800 13.852400
19.800300 8.837100
19.820800 6.808000
19.841300 6.819000
19.861700 7.289900
19.882200 7.929400
19.902700 8.474400
19.923100 8.562600
19.943600 8.748800
19.964100 8.856400
19.984600 10.688100
20.005000 12.111000
20.025500 10.790900
20.046000 9.909100
20.066500 9.321500
20.086900 7.821900
20.107400 7.496000
20.127900 7.893700
20.148300 10.661500
20.168800 9.720000
20.189300 9.704100
20.209800 9.196200
20.230200 8.749700
20.250700 8.560400
20.271200 8.112900
20.291700 7.949800
20.312100 8.786200
20.332600 9.189500
20.353100 9.750600
20.373600 10.626600
20.394000 11.085600
20.414500 12.758900
20.435000 14.946100
20.455400 14.255200
20.475900 15.056200
20.496400 13.461000
20.516900 13.514400
20.537300 13.532900
20.557800 14.031400
20.578300 13.192500
20.598800 12.070700
20.619200 8.190300
20.639700 7.634200
20.660200 7.843200
20.680600 8.280500
20.701100 8.814900
20.721600 9.388500
20.742100 9.207600
20.762500 9.519300
20.783000 9.962300
20.803500 10.319900
20.824000 10.950400
20.844400 10.643900
20.864900 9.281400
20.885400 8.837600
20.905800 8.437900
20.926300 8.315200
20.946800 8.216800
20.967300 9.636900
20.987700 10.005000
21.008200 8.898300
21.028700 9.671300
21.049200 9.314100
21.069600 8.685900
21.090100 8.208100
21.110600 8.369400
21.131000 10.141700
21.151500 13.376500
21.172000 17.669500
21.192500 10.866700
21.212900 10.677900
21.233400 10.505700
21.253900 9.826500
21.274400 8.680300
21.294800 7.541800
21.315300 6.841600
21.335800 6.987300
21.356200 7.043300
21.376700 7.215800
21.397200 8.045300
21.417700 8.764000
21.438100 9.593000
21.458600 9.969800
21.479100 9.227700
21.499600 9.204100
21.520000 10.391500
21.540500 10.490400
21.561000 11.730600
21.581400 19.726400
21.601900 15.415000
21.622400 11.527900
21.642900 11.398800
21.663300 10.188400
21.683800 8.779900
21.704300 8.872800
21.724800 10.237800
21.745200 10.571200
21.765700 11.540200
21.786200 11.652600
21.806700 11.458300
21.827100 8.712000
21.847600 7.811500
21.868100 7.376000
21.888500 7.058000
21.909000 6.992700
21.929500 7.009900
21.950000 7.104100
21.970400 7.987200
21.990900 10.898100
22.011400 12.620000
22.031900 11.892800
22.052300 11.009100
22.072800 10.446700
22.093300 10.602200
22.113700 10.297500
22.134200 9.548800
22.154700 9.340500
22.175200 9.770200
22.195600 9.652600
22.216100 9.693700
22.236600 9.954200
22.257100 9.918900
22.277500 9.662900
22.298000 9.285000
22.318500 8.936200
22.338900 8.213600
22.359400 7.192500
22.379900 6.485900
22.400400 5.782800
22.420800 6.106700
22.441300 6.752000
22.461800 7.549300
22.482300 8.258700
22.502700 8.989600
22.523200 9.723000
22.543700 10.796600
22.564100 11.736900
22.584600 12.564600
22.605100 12.041400
22.625600 10.588400
22.646000 11.558300
22.666500 10.340000
22.687000 8.717400
22.707500 7.197700
22.727900 7.282400
22.748400 7.374600
22.768900 7.423000
22.789300 8.746000
22.809800 8.749800
22.830300 8.835300
22.850800 8.984000
22.871200 9.744900
22.891700 10.711500
22.912200 11.468500
22.932700 12.027100
22.953100 13.641200
22.973600 13.228500
22.994100 11.998700
23.014500 12.024600
23.035000 10.276300
23.055500 10.041000
23.076000 10.885300
23.096400 13.955300
23.116900 12.874000
23.137400 13.204700
23.157900 12.381500
23.178300 11.324000
23.198800 11.386600
23.219300 11.513000
23.239800 11.699900
23.260200 11.584700
23.280700 14.373400
23.301200 16.818700
23.321600 15.508400
23.342100 15.007600
23.362600 10.662400
23.383100 9.339400
23.403500 9.191200
23.424000 9.497500
23.444500 9.985700
23.465000 10.576100
23.485400 10.400900
23.505900 9.744700
23.526400 7.045900
23.546800 5.841800
23.567300 4.243600
23.587800 3.269800
23.608300 5.254900
23.628700 12.562400
23.649200 13.338900
23.669700 13.039500
23.690200 12.607800
23.710600 10.782100
23.731100 8.997400
23.751600 7.320100
23.772000 5.670400
23.792500 4.915700
23.813000 4.949100
23.833500 2.872100
23.853900 1.948200
23.874400 1.607700
23.894900 1.500400
23.915400 0.211700
23.935800 0.000000
23.956300 0.000000
23.976800 0.000000
23.997200 0.000000
24.017700 0.000000
24.038200 0.000000
24.058700 0.000000
24.079100 0.000000
24.099600 0.000000
24.120100 0.000000
24.140600 0.000000
24.161000 0.000000
24.181500 0.000000
24.202000 0.000000
24.222400 0.000000
24.242900 0.000000
24.263400 0.000000
24.283900 0.000000
24.304300 0.000000
24.324800 0.000000
24.345300 0.000000
24.365800 0.000000
24.386200 0.000000
24.406700 0.000000
24.427200 0.000000
24.447700 0.000000
24.468100 0.000000
24.488600 0.000000
24.509100 0.000000
24.529500 0.000000
24.550000 0.000000
24.570500 0.000000
24.591000 0.000000
24.611400 0.000000
24.631900 0.000000
24.652400 0.000000
24.672900 0.000000
24.693300 0.000000
24.713800 0.000000
24.734300 0.000000
24.754700 0.000000
24.775200 0.000000
24.795700 0.000000
24.816200 0.000000
24.836600 0.000000
24.857100 0.000000
24.877600 0.000000
24.898100 0.000000
24.918500 0.000000
24.939000 0.000000
24.959500 0.000000
24.979900 0.000000
25.000400 0.000000
25.020900 0.000000
25.041400 0.000000
25.061800 0.000000
25.082300 0.000000
25.102800 0.000000
25.123300 0.000000
25.143700 0.000000
25.164200 0.000000
25.184700 0.000000
25.205100 0.000000
25.225600 0.000000
25.246100 0.000000
25.266600 0.000000
25.287000 0.000000
25.307500 0.000000
25.328000 0.000000
25.348500 0.000000
25.368900 0.000000
25.389400 0.000000
25.409900 0.000000
25.430300 0.000000
25.450800 0.000000
25.471300 0.000000
25.491800 0.000000
25.512200 0.000000
25.532700 0.000000
25.553200 0.000000
25.573700 0.000000
25.594100 0.000000
25.614600 0.000000
25.635100 0.000000
25.655500 0.000000
25.676000 0.000000
25.696500 0.000000
25.717000 0.000000
25.737400 0.000000
25.757900 0.000000
25.778400 0.000000
e
