set title 'mp-1007660 - Density of States'
set xlabel 'Energy (eV)'
set ylabel 'DOS (states/eV)'
set grid
set xrange [-10:10]
set yrange [0:7.977]
set xzeroaxis lt -1
set terminal png size 800,600
set output 'mp-1007660_dos_gnuplot.png'
plot '-' using 1:2 with lines title 'DOS'
-12.119300 0.000000
-12.090200 0.000000
-12.061000 0.000000
-12.031800 0.000000
-12.002700 0.000000
-11.973500 0.000000
-11.944400 0.000000
-11.915200 0.000000
-11.886000 0.000000
-11.856900 0.000000
-11.827700 0.000000
-11.798600 0.000000
-11.769400 0.000000
-11.740300 0.000000
-11.711100 0.000000
-11.681900 0.000000
-11.652800 0.000000
-11.623600 0.000000
-11.594500 0.000000
-11.565300 0.000000
-11.536100 0.000000
-11.507000 0.000000
-11.477800 0.000000
-11.448700 0.000000
-11.419500 0.000000
-11.390300 0.000000
-11.361200 0.000000
-11.332000 0.000000
-11.302900 0.000000
-11.273700 0.000000
-11.244500 0.000000
-11.215400 0.000000
-11.186200 0.000000
-11.157100 0.000000
-11.127900 0.000000
-11.098800 0.000000
-11.069600 0.000000
-11.040400 0.000000
-11.011300 0.000000
-10.982100 0.000000
-10.953000 0.000000
-10.923800 0.000000
-10.894600 0.000000
-10.865500 0.000000
-10.836300 0.000000
-10.807200 0.000000
-10.778000 0.000000
-10.748800 0.000000
-10.719700 0.000000
-10.690500 0.000000
-10.661400 0.000000
-10.632200 0.000000
-10.603000 0.000000
-10.573900 0.000000
-10.544700 0.000000
-10.515600 0.000000
-10.486400 0.000000
-10.457300 0.000000
-10.428100 0.000000
-10.398900 0.000000
-10.369800 0.000000
-10.340600 0.000000
-10.311500 0.000000
-10.282300 0.000000
-10.253100 0.000000
-10.224000 0.000000
-10.194800 0.000000
-10.165700 0.000000
-10.136500 0.000000
-10.107300 0.000000
-10.078200 0.000000
-10.049000 0.000000
-10.019900 0.000000
-9.990700 0.000000
-9.961500 0.000000
-9.932400 0.000000
-9.903200 0.000000
-9.874100 0.000000
-9.844900 0.000000
-9.815700 0.000000
-9.786600 0.000000
-9.757400 0.000000
-9.728300 0.000000
-9.699100 0.000000
-9.670000 0.000000
-9.640800 0.000000
-9.611600 0.000000
-9.582500 0.000000
-9.553300 0.000000
-9.524200 0.000000
-9.495000 0.000000
-9.465800 0.052300
-9.436700 0.086600
-9.407500 0.127300
-9.378400 0.153100
-9.349200 0.176300
-9.320000 0.195100
-9.290900 0.211700
-9.261700 0.229700
-9.232600 0.253300
-9.203400 0.268900
-9.174200 0.286900
-9.145100 0.303800
-9.115900 0.318300
-9.086800 0.335400
-9.057600 0.353000
-9.028500 0.372000
-8.999300 0.391900
-8.970100 0.406900
-8.941000 0.422800
-8.911800 0.439200
-8.882700 0.462800
-8.853500 0.485800
-8.824300 0.510100
-8.795200 0.534300
-8.766000 0.619600
-8.736900 0.655800
-8.707700 0.661500
-8.678500 0.690100
-8.649400 0.717600
-8.620200 0.748200
-8.591100 0.773700
-8.561900 0.824600
-8.532700 0.888400
-8.503600 0.935700
-8.474400 1.040700
-8.445300 1.268900
-8.416100 2.027400
-8.387000 1.729900
-8.357800 1.793300
-8.328600 1.690800
-8.299500 1.618800
-8.270300 1.605100
-8.241200 1.611700
-8.212000 1.604800
-8.182800 1.569400
-8.153700 1.541900
-8.124500 1.522000
-8.095400 1.522400
-8.066200 1.531700
-8.037000 1.539400
-8.007900 1.525300
-7.978700 1.531800
-7.949600 1.536800
-7.920400 1.556100
-7.891200 1.581700
-7.862100 1.574500
-7.832900 1.568300
-7.803800 1.560700
-7.774600 1.606700
-7.745500 1.733100
-7.716300 1.792800
-7.687100 1.933400
-7.658000 2.045200
-7.628800 3.186700
-7.599700 5.102000
-7.570500 3.989200
-7.541300 2.991000
-7.512200 3.079300
-7.483000 7.251500
-7.453900 5.466600
-7.424700 3.828500
-7.395500 3.136600
-7.366400 2.565300
-7.337200 1.743500
-7.308100 1.659300
-7.278900 1.620300
-7.249700 1.542500
-7.220600 1.460400
-7.191400 1.387800
-7.162300 1.500900
-7.133100 1.409300
-7.104000 1.311600
-7.074800 1.298300
-7.045600 1.292500
-7.016500 1.287100
-6.987300 1.282700
-6.958200 1.388200
-6.929000 1.485900
-6.899800 1.557000
-6.870700 1.954500
-6.841500 1.793900
-6.812400 1.444500
-6.783200 1.077300
-6.754000 0.891900
-6.724900 0.751600
-6.695700 0.391100
-6.666600 0.367100
-6.637400 0.342700
-6.608200 0.319600
-6.579100 0.297700
-6.549900 0.275300
-6.520800 0.257700
-6.491600 0.244200
-6.462400 0.228800
-6.433300 0.213300
-6.404100 0.197900
-6.375000 0.181200
-6.345800 0.166100
-6.316700 0.154600
-6.287500 0.144400
-6.258300 0.133500
-6.229200 0.121900
-6.200000 0.109200
-6.170900 0.098900
-6.141700 0.079500
-6.112500 0.061900
-6.083400 0.046100
-6.054200 0.032100
-6.025100 0.000000
-5.995900 0.000000
-5.966700 0.000000
-5.937600 0.000000
-5.908400 0.000000
-5.879300 0.000000
-5.850100 0.000000
-5.820900 0.000000
-5.791800 0.000000
-5.762600 0.000000
-5.733500 0.000000
-5.704300 0.000000
-5.675200 0.000000
-5.646000 0.000000
-5.616800 0.000000
-5.587700 0.000000
-5.558500 0.000000
-5.529400 0.000000
-5.500200 0.000000
-5.471000 0.000000
-5.441900 0.000000
-5.412700 0.000000
-5.383600 0.000000
-5.354400 0.000000
-5.325200 0.000000
-5.296100 0.000000
-5.266900 0.000000
-5.237800 0.000000
-5.208600 0.000000
-5.179400 0.000000
-5.150300 0.000000
-5.121100 0.000000
-5.092000 0.000000
-5.062800 0.000000
-5.033700 0.000000
-5.004500 0.000000
-4.975300 0.000000
-4.946200 0.000000
-4.917000 0.000000
-4.887900 0.000000
-4.858700 0.000000
-4.829500 0.000000
-4.800400 0.000000
-4.771200 0.000000
-4.742100 0.000000
-4.712900 0.000000
-4.683700 0.000000
-4.654600 0.000000
-4.625400 0.000000
-4.596300 0.000000
-4.567100 0.000000
-4.537900 0.000000
-4.508800 0.000000
-4.479600 0.000000
-4.450500 0.000000
-4.421300 0.000000
-4.392200 0.000000
-4.363000 0.000000
-4.333800 0.000000
-4.304700 0.000000
-4.275500 0.000000
-4.246400 0.000000
-4.217200 0.000000
-4.188000 0.000000
-4.158900 0.000000
-4.129700 0.000000
-4.100600 0.000000
-4.071400 0.000000
-4.042200 0.000000
-4.013100 0.000000
-3.983900 0.000000
-3.954800 0.000000
-3.925600 0.000000
-3.896400 0.000000
-3.867300 0.000000
-3.838100 0.000000
-3.809000 0.000000
-3.779800 0.000000
-3.750700 0.000000
-3.721500 0.000000
-3.692300 0.000000
-3.663200 0.000000
-3.634000 0.000000
-3.604900 0.000000
-3.575700 0.000000
-3.546500 0.000000
-3.517400 0.000000
-3.488200 0.000000
-3.459100 0.000000
-3.429900 0.000000
-3.400700 0.000000
-3.371600 0.000000
-3.342400 0.000000
-3.313300 0.000000
-3.284100 0.000000
-3.254900 0.000000
-3.225800 0.000000
-3.196600 0.000000
-3.167500 0.000000
-3.138300 0.000000
-3.109200 0.000000
-3.080000 0.000000
-3.050800 0.000000
-3.021700 0.000000
-2.992500 0.000000
-2.963400 0.000000
-2.934200 0.000000
-2.905000 0.000000
-2.875900 0.000000
-2.846700 0.000000
-2.817600 0.000000
-2.788400 0.000000
-2.759200 0.000000
-2.730100 0.000000
-2.700900 0.000000
-2.671800 0.000000
-2.642600 0.000000
-2.613400 0.000000
-2.584300 0.000000
-2.555100 0.000000
-2.526000 0.000000
-2.496800 0.000000
-2.467600 0.000000
-2.438500 0.000000
-2.409300 0.000000
-2.380200 0.000000
-2.351000 0.000000
-2.321900 0.000000
-2.292700 0.000000
-2.263500 0.000000
-2.234400 0.000000
-2.205200 0.000000
-2.176100 0.000000
-2.146900 0.000000
-2.117700 0.000000
-2.088600 0.000000
-2.059400 0.000000
-2.030300 0.000000
-2.001100 0.033300
-1.971900 0.043700
-1.942800 0.055000
-1.913600 0.067300
-1.884500 0.068700
-1.855300 0.075800
-1.826100 0.083000
-1.797000 0.090400
-1.767800 0.098000
-1.738700 0.106400
-1.709500 0.115500
-1.680400 0.124900
-1.651200 0.131300
-1.622000 0.134500
-1.592900 0.140500
-1.563700 0.146300
-1.534600 0.152300
-1.505400 0.158200
-1.476200 0.164800
-1.447100 0.171100
-1.417900 0.177400
-1.388800 0.183800
-1.359600 0.191000
-1.330400 0.201400
-1.301300 0.210300
-1.272100 0.219300
-1.243000 0.228500
-1.213800 0.237500
-1.184600 0.246300
-1.155500 0.255300
-1.126300 0.264700
-1.097200 0.277600
-1.068000 0.291300
-1.038900 0.305800
-1.009700 0.321400
-0.980500 0.338200
-0.951400 0.356000
-0.922200 1.105800
-0.893100 0.726400
-0.863900 0.881700
-0.834700 1.056000
-0.805600 1.296600
-0.776400 1.283800
-0.747300 1.280400
-0.718100 1.256900
-0.688900 1.236700
-0.659800 1.202500
-0.630600 1.184800
-0.601500 1.180100
-0.572300 1.173300
-0.543100 1.161000
-0.514000 1.149100
-0.484800 1.140900
-0.455700 1.128500
-0.426500 1.195300
-0.397400 1.242700
-0.368200 1.289300
-0.339000 1.317300
-0.309900 1.347900
-0.280700 1.340500
-0.251600 1.282200
-0.222400 1.309200
-0.193200 1.351300
-0.164100 1.349900
-0.134900 1.615000
-0.105800 1.703800
-0.076600 1.872500
-0.047400 1.989500
-0.018300 2.282600
0.010900 2.401500
0.040000 2.578500
0.069200 2.840100
0.098400 3.259100
0.127500 3.672100
0.156700 3.793200
0.185800 3.371400
0.215000 2.989700
0.244100 2.772700
0.273300 2.626200
0.302500 2.333100
0.331600 2.080800
0.360800 1.934700
0.389900 1.842300
0.419100 1.814300
0.448300 1.881700
0.477400 2.237400
0.506600 2.169400
0.535700 2.291000
0.564900 2.141600
0.594100 2.275600
0.623200 2.426900
0.652400 2.552300
0.681500 2.574900
0.710700 2.367900
0.739900 2.081900
0.769000 1.903900
0.798200 2.011900
0.827300 1.771100
0.856500 1.644500
0.885600 1.505500
0.914800 1.657000
0.944000 1.890100
0.973100 2.137600
1.002300 2.225900
1.031400 2.400400
1.060600 2.735500
1.089800 3.226300
1.118900 3.358300
1.148100 3.181400
1.177200 3.205000
1.206400 3.171700
1.235600 3.032500
1.264700 2.950200
1.293900 2.771300
1.323000 2.456400
1.352200 2.186800
1.381400 1.833700
1.410500 1.745700
1.439700 1.621700
1.468800 1.579100
1.498000 1.571400
1.527200 1.607200
1.556300 1.705400
1.585500 1.811300
1.614600 1.906900
1.643800 2.086600
1.672900 2.242400
1.702100 2.297700
1.731300 2.349900
1.760400 2.365300
1.789600 2.401000
1.818700 2.477700
1.847900 2.550800
1.877100 2.629000
1.906200 2.731700
1.935400 2.774800
1.964500 2.767600
1.993700 2.712600
2.022900 2.727200
2.052000 2.759200
2.081200 3.166000
2.110300 2.906500
2.139500 3.020300
2.168700 3.142000
2.197800 3.253700
2.227000 3.508100
2.256100 4.827800
2.285300 5.280200
2.314400 5.870600
2.343600 5.923800
2.372800 4.707200
2.401900 6.628000
2.431100 6.463500
2.460200 4.316100
2.489400 2.565900
2.518600 2.742000
2.547700 2.842800
2.576900 2.209800
2.606000 2.085500
2.635200 2.155500
2.664400 2.064500
2.693500 2.024200
2.722700 2.390100
2.751800 2.324000
2.781000 2.594700
2.810200 2.659800
2.839300 2.661700
2.868500 2.636800
2.897600 2.636700
2.926800 2.633700
2.955900 2.571900
2.985100 2.767300
3.014300 2.950200
3.043400 2.791900
3.072600 2.577400
3.101700 2.545600
3.130900 2.616900
3.160100 2.627900
3.189200 2.674200
3.218400 2.880200
3.247500 3.097600
3.276700 2.579400
3.305900 2.575100
3.335000 2.476700
3.364200 2.424600
3.393300 2.397300
3.422500 2.518000
3.451700 2.464400
3.480800 2.216900
3.510000 2.123800
3.539100 2.100200
3.568300 2.064400
3.597400 2.043500
3.626600 2.037500
3.655800 2.084500
3.684900 2.151300
3.714100 2.264600
3.743200 2.230700
3.772400 2.267500
3.801600 2.309500
3.830700 2.499700
3.859900 2.651000
3.889000 2.599900
3.918200 2.640500
3.947400 2.112600
3.976500 1.856600
4.005700 2.014300
4.034800 2.184900
4.064000 2.453300
4.093200 2.880500
4.122300 4.232700
4.151500 3.917700
4.180600 3.492700
4.209800 3.318600
4.238900 3.092000
4.268100 3.028800
4.297300 2.214900
4.326400 2.111100
4.355600 1.993900
4.384700 1.889600
4.413900 1.879400
4.443100 1.872900
4.472200 2.012400
4.501400 2.079000
4.530500 2.116400
4.559700 2.052000
4.588900 2.174900
4.618000 2.691500
4.647200 2.500800
4.676300 2.474400
4.705500 2.404600
4.734700 2.300200
4.763800 2.144900
4.793000 2.510700
4.822100 2.637400
4.851300 2.847400
4.880400 2.988900
4.909600 3.256700
4.938800 3.722800
4.967900 3.656000
4.997100 3.575100
5.026200 3.342800
5.055400 3.247400
5.084600 3.061100
5.113700 3.140700
5.142900 3.114100
5.172000 3.087700
5.201200 3.120700
5.230400 3.174100
5.259500 3.040700
5.288700 3.068700
5.317800 2.983900
5.347000 3.020400
5.376200 3.104900
5.405300 3.272300
5.434500 3.269500
5.463600 3.369300
5.492800 3.717900
5.522000 3.746300
5.551100 3.634500
5.580300 4.002900
5.609400 3.757800
5.638600 3.933700
5.667700 4.381600
5.696900 4.511100
5.726100 4.594700
5.755200 3.938000
5.784400 4.081000
5.813500 4.001800
5.842700 4.113200
5.871900 4.132500
5.901000 4.588800
5.930200 3.867200
5.959300 3.960600
5.988500 3.851600
6.017700 3.695600
6.046800 3.796900
6.076000 3.977700
6.105100 4.169600
6.134300 4.604900
6.163500 4.849000
6.192600 4.328600
6.221800 3.701900
6.250900 3.369500
6.280100 3.221600
6.309200 3.156100
6.338400 3.167300
6.367600 3.149000
6.396700 3.144500
6.425900 3.399100
6.455000 3.788900
6.484200 3.153500
6.513400 3.153700
6.542500 3.096600
6.571700 3.133000
6.600800 3.220000
6.630000 3.541600
6.659200 3.618300
6.688300 3.339500
6.717500 3.421200
6.746600 3.228500
6.775800 3.247300
6.805000 3.182600
6.834100 3.367700
6.863300 3.457500
6.892400 3.868600
6.921600 3.649800
6.950700 3.961700
6.979900 4.191500
7.009100 3.554800
7.038200 3.274000
7.067400 3.180500
7.096500 2.818800
7.125700 2.518500
7.154900 2.558000
7.184000 2.603700
7.213200 2.548600
7.242300 2.547000
7.271500 2.555000
7.300700 2.633300
7.329800 2.316600
7.359000 2.351200
7.388100 2.399000
7.417300 2.466500
7.446500 2.517400
7.475600 2.507500
7.504800 2.422200
7.533900 2.408200
7.563100 2.391200
7.592200 2.361700
7.621400 2.350500
7.650600 2.338100
7.679700 2.282300
7.708900 2.230100
7.738000 2.189500
7.767200 2.054600
7.796400 1.937600
7.825500 1.962200
7.854700 1.988100
7.883800 2.070900
7.913000 2.125600
7.942200 2.119200
7.971300 2.067100
8.000500 2.115300
8.029600 2.196500
8.058800 2.367500
8.088000 2.287000
8.117100 2.258700
8.146300 2.068900
8.175400 2.039100
8.204600 2.013200
8.233700 1.953500
8.262900 1.872000
8.292100 1.888100
8.321200 1.938100
8.350400 2.084800
8.379500 2.170200
8.408700 2.561500
8.437900 2.566300
8.467000 2.676300
8.496200 2.831800
8.525300 3.002500
8.554500 3.336900
8.583700 3.991400
8.612800 4.023700
8.642000 3.696800
8.671100 3.561300
8.700300 2.919600
8.729500 2.723900
8.758600 2.568300
8.787800 2.198800
8.816900 2.063900
8.846100 1.938900
8.875300 1.801000
8.904400 1.805700
8.933600 1.848500
8.962700 1.912300
8.991900 1.946800
9.021000 1.939700
9.050200 1.926600
9.079400 1.913700
9.108500 1.742800
9.137700 1.721300
9.166800 1.728600
9.196000 1.660000
9.225200 1.547100
9.254300 0.861200
9.283500 0.823100
9.312600 0.784900
9.341800 0.715400
9.371000 0.641000
9.400100 0.597200
9.429300 0.588700
9.458400 0.582000
9.487600 0.575700
9.516800 0.570300
9.545900 0.565000
9.575100 0.560000
9.604200 0.564200
9.633400 0.561600
9.662500 0.558000
9.691700 0.553100
9.720900 0.548500
9.750000 0.536400
9.779200 0.529100
9.808300 0.521500
9.837500 0.496300
9.866700 0.643700
9.895800 1.102400
9.925000 0.676800
9.954100 0.645500
9.983300 0.617900
10.012500 0.580200
10.041600 0.557600
10.070800 0.548700
10.099900 0.540500
10.129100 0.532200
10.158300 0.524000
10.187400 0.523600
10.216600 0.521900
10.245700 0.518200
10.274900 0.511300
10.304000 0.531100
10.333200 0.537600
10.362400 0.561900
10.391500 0.594700
10.420700 0.598300
10.449800 0.610900
10.479000 0.529700
10.508200 0.661400
10.537300 0.768200
10.566500 0.486600
10.595600 0.447600
10.624800 0.427200
10.654000 0.446100
10.683100 0.539900
10.712300 0.538100
10.741400 0.702800
10.770600 0.599400
10.799800 0.630700
10.828900 0.695600
10.858100 0.760500
10.887200 0.889000
10.916400 1.002900
10.945500 1.003000
10.974700 0.872700
11.003900 0.909000
11.033000 0.960300
11.062200 1.037400
11.091300 1.103800
11.120500 1.217500
11.149700 1.302400
11.178800 1.424000
11.208000 1.514900
11.237100 1.602900
11.266300 1.800100
11.295500 2.209700
11.324600 2.070500
11.353800 2.141900
11.382900 2.148100
11.412100 2.207900
11.441300 2.269700
11.470400 2.231800
11.499600 2.263400
11.528700 2.275700
11.557900 2.271100
11.587000 2.282600
11.616200 2.282100
11.645400 2.255600
11.674500 2.231000
11.703700 2.201900
11.732800 2.176000
11.762000 2.147000
11.791200 2.152200
11.820300 2.137500
11.849500 2.149200
11.878600 2.166100
11.907800 2.061200
11.937000 2.063000
11.966100 2.090900
11.995300 2.198900
12.024400 2.188000
12.053600 2.284600
12.082800 2.604600
12.111900 2.952600
12.141100 3.174600
12.170200 2.889900
12.199400 2.533000
12.228500 2.377800
12.257700 2.256100
12.286900 2.250600
12.316000 2.150100
12.345200 2.115900
12.374300 2.159800
12.403500 1.739800
12.432700 1.590900
12.461800 1.406700
12.491000 1.162300
12.520100 1.105500
12.549300 0.877000
12.578500 0.848100
12.607600 0.823200
12.636800 0.796700
12.665900 0.781100
12.695100 0.775500
12.724300 0.772200
12.753400 0.772000
12.782600 0.777300
12.811700 0.784200
12.840900 0.810600
12.870100 0.842600
12.899200 0.882100
12.928400 0.922600
12.957500 0.807600
12.986700 0.718400
13.015800 0.870600
13.045000 1.223400
13.074200 1.090200
13.103300 0.980700
13.132500 0.896900
13.161600 0.794900
13.190800 0.793000
13.220000 0.816600
13.249100 0.845100
13.278300 0.873600
13.307400 0.926100
13.336600 0.921700
13.365800 1.033500
13.394900 0.956100
13.424100 0.955500
13.453200 0.969000
13.482400 0.974600
13.511600 0.987100
13.540700 1.251800
13.569900 0.960800
13.599000 0.946200
13.628200 0.937700
13.657300 0.928300
13.686500 0.917700
13.715700 0.906900
13.744800 0.900400
13.774000 0.897600
13.803100 0.949100
13.832300 0.912300
13.861500 0.915500
13.890600 0.920300
13.919800 0.943300
13.948900 0.952700
13.978100 0.963300
14.007300 0.979800
14.036400 0.958000
14.065600 0.976500
14.094700 0.979900
14.123900 0.989300
14.153100 0.998200
14.182200 1.006600
14.211400 1.015700
14.240500 1.028700
14.269700 1.035600
14.298800 1.045900
14.328000 1.043400
14.357200 1.061700
14.386300 1.057400
14.415500 1.059100
14.444600 1.058100
14.473800 1.076100
14.503000 1.071500
14.532100 1.065100
14.561300 1.341000
14.590400 1.224100
14.619600 1.246700
14.648800 1.286100
14.677900 1.307000
14.707100 1.328500
14.736200 1.354600
14.765400 1.366900
14.794600 1.381600
14.823700 1.416700
14.852900 1.437900
14.882000 1.462600
14.911200 1.489600
14.940300 1.516000
14.969500 1.640600
14.998700 1.565200
15.027800 1.598800
15.057000 1.616100
15.086100 1.693000
15.115300 1.744900
15.144500 1.788400
15.173600 1.818300
15.202800 1.877300
15.231900 1.913000
15.261100 2.186300
15.290300 2.072400
15.319400 2.051400
15.348600 2.038000
15.377700 1.971400
15.406900 2.063600
15.436100 2.121700
15.465200 2.167000
15.494400 2.246200
15.523500 2.249900
15.552700 2.243000
15.581800 2.253900
15.611000 2.417400
15.640200 2.368100
15.669300 2.347200
15.698500 2.342500
15.727600 2.251000
15.756800 2.166500
15.786000 2.070300
15.815100 2.331200
15.844300 1.815000
15.873400 1.646200
15.902600 1.598100
15.931800 1.263800
15.960900 1.118900
15.990100 0.983200
16.019200 0.807400
16.048400 0.627100
16.077600 0.515400
16.106700 0.463600
16.135900 0.419100
16.165000 0.376500
16.194200 0.335700
16.223300 0.306900
16.252500 0.278100
16.281700 0.246400
16.310800 0.187600
16.340000 0.143300
16.369100 0.102000
16.398300 0.072700
16.427500 0.047900
16.456600 0.132500
16.485800 0.167800
16.514900 0.167300
16.544100 0.179700
16.573300 0.208000
16.602400 0.225400
16.631600 0.243300
16.660700 0.263400
16.689900 0.371700
16.719100 0.403600
16.748200 0.434800
16.777400 0.470100
16.806500 0.458300
16.835700 0.513400
16.864900 0.548500
16.894000 0.558200
16.923200 0.575900
16.952300 0.612200
16.981500 0.655200
17.010600 0.696300
17.039800 0.704700
17.069000 0.709500
17.098100 0.684600
17.127300 0.703000
17.156400 0.720200
17.185600 0.744100
17.214800 0.792000
17.243900 0.778400
17.273100 0.772100
17.302200 0.734500
17.331400 0.701900
17.360600 0.647800
17.389700 0.618200
17.418900 0.593900
17.448000 0.571900
17.477200 0.568000
17.506400 0.566200
17.535500 0.568000
17.564700 0.571800
17.593800 0.576800
17.623000 0.582200
17.652100 0.589400
17.681300 0.598400
17.710500 0.608200
17.739600 0.618800
17.768800 0.629900
17.797900 0.641500
17.827100 0.653500
17.856300 0.695900
17.885400 0.763900
17.914600 0.816800
17.943700 0.793600
17.972900 0.759600
18.002100 0.771300
18.031200 0.731200
18.060400 0.727700
18.089500 0.724300
18.118700 0.707500
18.147900 0.699700
18.177000 0.721600
18.206200 0.732400
18.235300 0.737000
18.264500 0.739900
18.293600 0.744800
18.322800 0.744800
18.352000 0.760100
18.381100 0.778700
18.410300 0.798400
18.439400 0.819000
18.468600 1.112500
18.497800 0.905900
18.526900 0.920200
18.556100 0.931400
18.585200 0.920800
18.614400 0.927100
18.643600 0.943200
18.672700 1.026600
18.701900 1.043100
18.731000 1.056000
18.760200 1.066200
18.789400 1.082300
18.818500 1.092100
18.847700 1.091200
18.876800 1.055900
18.906000 1.047100
18.935100 1.023900
18.964300 1.007400
18.993500 0.991800
19.022600 0.977500
19.051800 0.967400
19.080900 0.993600
19.110100 1.002200
19.139300 1.010800
19.168400 1.018100
19.197600 1.027400
19.226700 1.021600
19.255900 1.025400
19.285100 1.033900
19.314200 1.086500
19.343400 1.101800
19.372500 1.118100
19.401700 1.132900
19.430900 1.151900
19.460000 1.165400
19.489200 1.211300
19.518300 1.225100
19.547500 1.248500
19.576600 1.244100
19.605800 1.266000
19.635000 1.285600
19.664100 1.312300
19.693300 1.369500
19.722400 1.432900
19.751600 1.472900
19.780800 1.481800
19.809900 1.487600
19.839100 1.556900
19.868200 1.572900
19.897400 1.532700
19.926600 1.552500
19.955700 1.549400
19.984900 1.579100
20.014000 1.546700
20.043200 1.517300
20.072400 1.511200
20.101500 1.500100
20.130700 1.542000
20.159800 1.552900
20.189000 1.553900
20.218100 1.543100
20.247300 1.562800
20.276500 1.657200
20.305600 1.722300
20.334800 1.770400
20.363900 1.702600
20.393100 1.643700
20.422300 1.680000
20.451400 1.732700
20.480600 1.786800
20.509700 1.703500
20.538900 1.662800
20.568100 1.749800
20.597200 1.723600
20.626400 1.890500
20.655500 1.785200
20.684700 1.780800
20.713900 1.771700
20.743000 1.784500
20.772200 1.924700
20.801300 1.708200
20.830500 1.732500
20.859700 1.758100
20.888800 1.747600
20.918000 1.647100
20.947100 1.506400
20.976300 1.415300
21.005400 1.425000
21.034600 1.390900
21.063800 1.404000
21.092900 1.409500
21.122100 1.407900
21.151200 1.396200
21.180400 1.384000
21.209600 1.388000
21.238700 1.426100
21.267900 1.431600
21.297000 1.407600
21.326200 1.439300
21.355400 1.476400
21.384500 1.594600
21.413700 1.651800
21.442800 1.714200
21.472000 1.553200
21.501200 1.470100
21.530300 1.383400
21.559500 1.359200
21.588600 1.311100
21.617800 1.257100
21.646900 1.209400
21.676100 1.181700
21.705300 1.179200
21.734400 1.174600
21.763600 1.171600
21.792700 1.202400
21.821900 1.294500
21.851100 1.312000
21.880200 1.337000
21.909400 1.362900
21.938500 1.380800
21.967700 1.421200
21.996900 1.491300
22.026000 1.620600
22.055200 1.680100
22.084300 1.746100
22.113500 1.953500
22.142700 1.800300
22.171800 1.952600
22.201000 2.147200
22.230100 2.082600
22.259300 2.058600
22.288400 2.048800
22.317600 2.014500
22.346800 1.969600
22.375900 1.917400
22.405100 1.886800
22.434200 1.893600
22.463400 1.922500
22.492600 1.916800
22.521700 1.878500
22.550900 1.861000
22.580000 1.995900
22.609200 2.117000
22.638400 2.039100
22.667500 1.818100
22.696700 1.727100
22.725800 1.581700
22.755000 1.500100
22.784200 1.400000
22.813300 1.343500
22.842500 1.330000
22.871600 1.030700
22.900800 0.934900
22.929900 0.858800
22.959100 0.770200
22.988300 0.695400
23.017400 0.671600
23.046600 0.671500
23.075700 0.685000
23.104900 0.724600
23.134100 0.761300
23.163200 0.796300
23.192400 0.769700
23.221500 0.788800
23.250700 0.816700
23.279900 0.858000
23.309000 0.860900
23.338200 0.858100
23.367300 0.866600
23.396500 0.965800
23.425700 0.955400
23.454800 0.867300
23.484000 0.938300
23.513100 1.119000
23.542300 1.149500
23.571400 1.173800
23.600600 1.210000
23.629800 1.230800
23.658900 1.288400
23.688100 1.372700
23.717200 1.409700
23.746400 1.488300
23.775600 1.625100
23.804700 1.524000
23.833900 1.579000
23.863000 1.668100
23.892200 1.770600
23.921400 1.979400
23.950500 2.194000
23.979700 2.019200
24.008800 1.770400
24.038000 1.750800
24.067200 1.790800
24.096300 1.861300
24.125500 1.943700
24.154600 2.023600
24.183800 2.048000
24.213000 2.127700
24.242100 2.144900
24.271300 2.153400
24.300400 2.135400
24.329600 2.130500
24.358700 2.114300
24.387900 2.092900
24.417100 2.050300
24.446200 2.058500
24.475400 2.057600
24.504500 2.083300
24.533700 2.174200
24.562900 2.907100
24.592000 2.133900
24.621200 2.141400
24.650300 2.128900
24.679500 2.171100
24.708700 2.159300
24.737800 2.321400
24.767000 2.083800
24.796100 1.307800
24.825300 1.203300
24.854500 1.467500
24.883600 1.603400
24.912800 1.764600
24.941900 1.944400
24.971100 2.193900
25.000200 2.240000
25.029400 2.063100
25.058600 2.006300
25.087700 2.090300
25.116900 2.185800
25.146000 2.240500
25.175200 2.170500
25.204400 2.140200
25.233500 2.186800
25.262700 2.288500
25.291800 2.673500
25.321000 2.516000
25.350200 2.588900
25.379300 2.693500
25.408500 2.778100
25.437600 2.905900
25.466800 2.940900
25.496000 3.053900
25.525100 3.093100
25.554300 2.905300
25.583400 2.937200
25.612600 2.947500
25.641700 2.837900
25.670900 2.840000
25.700100 2.796400
25.729200 2.808600
25.758400 2.777000
25.787500 2.834900
25.816700 2.900500
25.845900 2.937600
25.875000 3.017900
25.904200 2.936200
25.933300 2.996100
25.962500 3.170700
25.991700 3.383700
26.020800 3.659500
26.050000 3.644700
26.079100 3.867200
26.108300 3.202200
26.137500 2.807700
26.166600 2.570300
26.195800 2.366000
26.224900 2.749600
26.254100 2.040400
26.283200 1.905800
26.312400 1.684600
26.341600 1.660200
26.370700 1.618400
26.399900 1.578700
26.429000 1.540300
26.458200 1.492100
26.487400 1.475500
26.516500 1.414600
26.545700 1.435300
26.574800 1.433400
26.604000 1.441600
26.633200 1.455600
26.662300 1.465100
26.691500 1.521300
26.720600 1.569000
26.749800 1.620100
26.779000 1.684800
26.808100 1.763900
26.837300 1.899100
26.866400 1.953000
26.895600 2.134100
26.924700 2.346300
26.953900 2.018300
26.983100 1.925400
27.012200 1.887500
27.041400 1.879800
27.070500 2.024500
27.099700 1.723200
27.128900 1.683100
27.158000 1.646200
27.187200 1.506600
27.216300 1.470800
27.245500 1.435600
27.274700 1.410500
27.303800 1.391500
27.333000 1.388500
27.362100 1.403700
27.391300 1.453100
27.420500 1.466200
27.449600 1.506100
27.478800 1.513000
27.507900 1.507200
27.537100 1.479700
27.566200 1.457500
27.595400 1.419200
27.624600 1.375200
27.653700 1.308500
27.682900 1.226000
27.712000 1.155600
27.741200 1.113600
27.770400 1.045200
27.799500 0.987500
27.828700 0.931700
27.857800 0.910800
27.887000 0.927400
27.916200 0.912000
27.945300 0.909700
27.974500 0.854300
28.003600 0.843500
28.032800 0.834300
28.062000 0.869400
28.091100 0.876900
28.120300 0.879100
28.149400 0.865200
28.178600 0.931100
28.207800 1.031800
28.236900 1.223500
28.266100 1.215800
28.295200 1.224700
28.324400 1.233300
28.353500 1.234900
28.382700 1.202900
28.411900 1.223800
28.441000 1.245600
28.470200 1.280100
28.499300 1.371900
28.528500 1.340400
28.557700 1.321200
28.586800 1.292500
28.616000 1.264600
28.645100 1.220900
28.674300 1.298300
28.703500 1.397400
28.732600 2.490700
28.761800 2.040700
28.790900 1.809700
28.820100 1.785000
28.849300 1.790300
28.878400 1.796900
28.907600 1.766800
28.936700 1.758100
28.965900 1.778900
28.995000 1.823500
29.024200 1.819500
29.053400 1.832900
29.082500 1.837000
29.111700 2.013100
29.140800 1.803500
29.170000 1.793200
29.199200 1.782700
29.228300 1.813200
29.257500 2.434800
29.286600 1.967000
29.315800 2.023000
29.345000 2.045100
29.374100 2.057700
29.403300 2.041800
29.432400 2.019400
29.461600 1.995100
29.490800 1.933900
29.519900 1.906000
29.549100 1.898600
29.578200 1.866700
29.607400 1.843800
29.636500 1.822400
29.665700 1.797700
29.694900 1.773000
29.724000 1.762100
29.753200 1.755900
29.782300 1.789900
29.811500 1.690500
29.840700 1.628700
29.869800 1.536600
29.899000 1.502200
29.928100 1.420300
29.957300 1.381800
29.986500 1.357100
30.015600 1.357800
30.044800 1.344400
30.073900 1.345700
30.103100 1.371300
30.132300 1.398100
30.161400 1.371300
30.190600 1.442500
30.219700 1.536200
30.248900 1.560100
30.278000 1.622200
30.307200 1.617300
30.336400 1.559300
30.365500 1.694100
30.394700 1.601300
30.423800 1.480600
30.453000 1.351700
30.482200 1.290900
30.511300 1.269800
30.540500 1.228000
30.569600 1.239500
30.598800 1.311500
30.628000 1.419300
30.657100 1.490600
30.686300 1.576300
30.715400 1.718500
30.744600 1.872900
30.773800 2.130000
30.802900 2.274600
30.832100 2.364900
30.861200 2.587300
30.890400 2.385400
30.919500 2.481200
30.948700 2.383700
30.977900 2.239300
31.007000 1.928200
31.036200 1.590500
31.065300 1.390200
31.094500 1.321100
31.123700 1.240300
31.152800 1.196300
31.182000 1.151400
31.211100 1.105300
31.240300 1.102700
31.269500 1.097400
31.298600 1.073500
31.327800 1.078700
31.356900 1.060200
31.386100 1.039800
31.415300 1.023000
31.444400 1.005900
31.473600 0.989300
31.502700 0.963900
31.531900 0.943100
31.561000 0.926100
31.590200 0.916200
31.619400 0.887300
31.648500 0.889600
31.677700 0.913500
31.706800 0.944300
31.736000 1.043900
31.765200 1.053100
31.794300 0.975100
31.823500 0.977400
31.852600 0.937800
31.881800 0.943100
31.911000 0.961200
31.940100 1.001700
31.969300 0.992400
31.998400 1.007200
32.027600 1.114000
32.056800 1.183700
32.085900 1.225600
32.115100 1.234400
32.144200 1.255600
32.173400 1.275000
32.202600 1.304900
32.231700 1.302600
32.260900 1.236500
32.290000 1.273000
32.319200 1.269100
32.348300 1.245100
32.377500 1.242300
32.406700 1.227000
32.435800 1.209600
32.465000 1.193000
32.494100 1.169100
32.523300 1.146400
32.552500 1.128000
32.581600 1.239400
32.610800 1.049000
32.639900 1.005600
32.669100 0.982100
32.698300 0.958000
32.727400 0.932900
32.756600 0.905600
32.785700 0.832900
32.814900 0.796700
32.844100 0.809400
32.873200 0.784400
32.902400 0.787200
32.931500 0.769900
32.960700 0.673000
32.989800 0.657100
33.019000 0.621500
33.048200 0.643200
33.077300 0.617200
33.106500 0.662200
33.135600 0.694700
33.164800 0.730400
33.194000 0.766300
33.223100 0.804100
33.252300 0.867300
33.281400 0.923300
33.310600 0.962500
33.339800 1.129000
33.368900 1.252100
33.398100 1.338900
33.427200 1.409800
33.456400 1.452300
33.485600 1.477800
33.514700 1.394500
33.543900 1.346700
33.573000 1.299200
33.602200 1.284500
33.631300 1.267000
33.660500 1.249200
33.689700 1.248900
33.718800 1.255200
33.748000 2.092600
33.777100 1.328300
33.806300 1.332700
33.835500 1.271300
33.864600 1.180000
33.893800 1.090400
33.922900 1.064000
33.952100 1.073000
33.981300 1.091000
34.010400 1.138600
34.039600 1.152500
34.068700 1.173700
34.097900 1.202100
34.127100 1.300600
34.156200 1.401100
34.185400 1.457200
34.214500 1.483600
34.243700 1.522400
34.272800 1.511500
34.302000 1.543200
34.331200 1.569400
34.360300 1.580100
34.389500 1.578100
34.418600 1.607900
34.447800 1.568400
34.477000 1.605500
34.506100 1.698600
34.535300 1.709600
34.564400 1.721100
34.593600 1.772600
34.622800 1.803400
34.651900 1.837100
34.681100 1.866600
34.710200 1.897600
34.739400 1.933600
34.768600 1.996700
34.797700 2.093000
34.826900 2.143400
34.856000 2.173500
34.885200 2.190100
34.914300 2.182400
34.943500 2.125900
34.972700 2.037000
35.001800 2.103600
35.031000 2.191700
35.060100 2.210900
35.089300 2.199400
35.118500 2.231400
35.147600 2.258900
35.176800 2.285000
35.205900 2.305900
35.235100 2.319900
35.264300 2.330100
35.293400 2.481900
35.322600 2.326100
35.351700 2.239800
35.380900 2.193200
35.410100 2.204400
35.439200 2.284600
35.468400 2.370200
35.497500 2.356900
35.526700 2.428200
35.555900 2.355900
35.585000 2.449100
35.614200 2.557200
35.643300 2.579100
35.672500 2.568300
35.701600 2.527600
35.730800 2.570000
35.760000 2.483800
35.789100 2.396900
35.818300 2.331000
35.847400 2.286100
35.876600 2.258300
35.905800 2.198500
35.934900 2.074800
35.964100 1.985700
35.993200 1.988200
36.022400 1.978700
36.051600 1.904900
36.080700 1.764700
36.109900 1.691700
36.139000 1.654200
36.168200 1.653300
36.197400 1.663900
36.226500 1.685800
36.255700 1.974100
36.284800 2.016900
36.314000 1.972700
36.343100 1.951900
36.372300 2.319400
36.401500 2.128700
36.430600 2.259700
36.459800 2.237000
36.488900 2.186400
36.518100 2.047900
36.547300 2.021500
36.576400 1.974800
36.605600 2.185400
36.634700 2.100400
36.663900 2.288700
36.693100 2.293700
36.722200 2.386500
36.751400 2.435600
36.780500 2.546300
36.809700 2.583200
36.838900 2.780700
36.868000 2.805600
36.897200 2.835900
36.926300 2.851300
36.955500 2.826600
36.984600 2.818700
37.013800 2.680800
37.043000 2.776600
37.072100 2.757700
37.101300 2.818200
37.130400 2.804700
37.159600 2.795200
37.188800 2.749200
37.217900 2.613000
37.247100 2.449000
37.276200 2.451500
37.305400 2.462200
37.334600 2.619900
37.363700 2.477500
37.392900 2.515600
37.422000 2.693800
37.451200 2.623700
37.480400 2.608800
37.509500 2.599800
37.538700 2.647600
37.567800 2.577000
37.597000 2.515700
37.626100 2.471100
37.655300 2.404800
37.684500 2.259500
37.713600 2.226500
37.742800 2.222100
37.771900 2.214500
37.801100 2.251600
37.830300 2.218200
37.859400 2.162100
37.888600 2.164600
37.917700 2.159800
37.946900 2.196000
37.976100 2.217400
38.005200 2.230600
38.034400 2.331700
38.063500 2.555700
38.092700 2.632700
38.121900 2.400600
38.151000 2.478600
38.180200 2.536700
38.209300 2.521300
38.238500 2.519800
38.267600 2.511400
38.296800 2.413400
38.326000 2.430400
38.355100 2.398600
38.384300 2.452500
38.413400 2.726900
38.442600 2.847100
38.471800 2.981700
38.500900 2.843200
38.530100 2.837400
38.559200 2.838100
38.588400 2.844500
38.617600 3.059700
38.646700 2.821900
38.675900 2.839500
38.705000 2.549100
38.734200 2.442700
38.763400 2.403300
38.792500 2.392600
38.821700 2.458500
38.850800 2.505500
38.880000 2.538200
38.909100 2.526500
38.938300 2.668100
38.967500 2.699200
38.996600 2.779300
39.025800 2.945500
39.054900 2.992500
39.084100 3.111800
39.113300 3.309800
39.142400 3.563300
39.171600 3.857200
39.200700 4.275900
39.229900 4.489000
39.259100 4.541200
39.288200 4.705100
39.317400 4.973200
39.346500 5.351800
39.375700 5.587800
39.404900 5.786900
39.434000 6.632300
39.463200 7.147500
39.492300 7.432400
39.521500 9.187500
39.550700 14.779600
39.579800 11.167900
39.609000 11.908900
39.638100 18.855300
39.667300 24.843900
39.696400 22.707000
39.725600 22.547800
39.754800 18.275000
39.783900 17.725200
39.813100 14.461100
39.842200 12.848200
39.871400 10.311700
39.900600 9.771500
39.929700 9.728600
39.958900 9.569600
39.988000 9.932700
40.017200 10.164100
40.046400 9.440400
40.075500 9.007900
40.104700 11.971900
40.133800 22.751600
40.163000 20.640600
40.192200 11.862500
40.221300 8.942900
40.250500 8.227800
40.279600 7.329300
40.308800 7.602100
40.337900 5.725600
40.367100 6.016300
40.396300 6.033100
40.425400 6.270800
40.454600 5.497800
40.483700 4.127900
40.512900 3.541100
40.542100 3.152800
40.571200 2.823400
40.600400 2.531600
40.629500 2.328500
40.658700 2.156800
40.687900 2.048600
40.717000 1.988200
40.746200 1.936300
40.775300 1.961900
40.804500 1.935600
40.833700 1.948800
40.862800 1.960900
40.892000 2.093000
40.921100 2.084100
40.950300 2.124500
40.979400 2.086800
41.008600 2.041800
41.037800 2.075400
41.066900 2.115400
41.096100 2.060000
41.125200 2.270500
41.154400 2.300200
41.183600 2.268100
41.212700 2.362500
41.241900 2.403600
41.271000 2.383100
41.300200 2.387900
41.329400 2.395400
41.358500 2.421800
41.387700 2.417300
41.416800 2.505300
41.446000 2.746600
41.475200 2.688000
41.504300 2.637900
41.533500 2.593900
41.562600 2.570700
41.591800 2.548400
41.620900 2.463400
41.650100 2.346100
41.679300 2.430700
41.708400 2.277900
41.737600 2.233900
41.766700 2.217000
41.795900 2.222600
41.825100 2.234600
41.854200 2.244500
41.883400 2.320000
41.912500 2.396800
41.941700 2.460300
41.970900 2.484800
42.000000 2.451700
42.029200 2.585100
42.058300 2.654100
42.087500 2.665400
42.116700 2.353100
42.145800 2.054800
42.175000 1.858700
42.204100 1.813000
42.233300 1.821600
42.262400 1.772900
42.291600 1.845500
42.320800 1.838600
42.349900 1.812400
42.379100 1.890600
42.408200 1.910100
42.437400 1.934700
42.466600 1.913600
42.495700 1.935200
42.524900 2.087900
42.554000 2.172600
42.583200 1.937500
42.612400 1.693800
42.641500 1.565300
42.670700 1.527100
42.699800 1.221100
42.729000 0.956100
42.758200 0.808800
42.787300 0.692700
42.816500 0.585300
42.845600 0.483400
42.874800 0.442500
42.903900 0.459900
42.933100 0.366800
42.962300 0.335500
42.991400 0.306900
43.020600 0.281000
43.049700 0.267600
43.078900 0.341500
43.108100 0.247100
43.137200 0.233600
43.166400 0.203300
43.195500 0.195200
43.224700 0.187600
43.253900 0.180400
43.283000 0.173800
43.312200 0.241000
43.341300 0.271400
43.370500 0.141300
43.399700 0.089800
43.428800 0.072100
43.458000 0.056400
43.487100 0.042700
43.516300 0.030900
43.545500 0.021200
43.574600 0.000000
43.603800 0.000000
43.632900 0.000000
43.662100 0.000000
43.691200 0.000000
43.720400 0.000000
43.749600 0.000000
43.778700 0.000000
43.807900 0.000000
43.837000 0.000000
43.866200 0.000000
43.895400 0.000000
43.924500 0.000000
43.953700 0.000000
43.982800 0.000000
44.012000 0.000000
44.041200 0.000000
44.070300 0.000000
44.099500 0.000000
44.128600 0.000000
44.157800 0.000000
44.187000 0.000000
44.216100 0.000000
44.245300 0.000000
44.274400 0.000000
44.303600 0.000000
44.332700 0.000000
44.361900 0.000000
44.391100 0.000000
44.420200 0.000000
44.449400 0.000000
44.478500 0.000000
44.507700 0.000000
44.536900 0.000000
44.566000 0.000000
44.595200 0.000000
44.624300 0.000000
44.653500 0.000000
44.682700 0.000000
44.711800 0.000000
44.741000 0.000000
44.770100 0.000000
44.799300 0.000000
44.828500 0.000000
44.857600 0.000000
44.886800 0.000000
44.915900 0.000000
44.945100 0.000000
44.974200 0.000000
45.003400 0.000000
45.032600 0.000000
45.061700 0.000000
45.090900 0.000000
45.120000 0.000000
45.149200 0.000000
45.178400 0.000000
45.207500 0.000000
45.236700 0.000000
45.265800 0.000000
45.295000 0.000000
45.324200 0.000000
45.353300 0.000000
45.382500 0.000000
45.411600 0.000000
45.440800 0.000000
45.470000 0.000000
45.499100 0.000000
45.528300 0.000000
45.557400 0.000000
45.586600 0.000000
45.615700 0.000000
45.644900 0.000000
45.674100 0.000000
45.703200 0.000000
45.732400 0.000000
45.761500 0.000000
45.790700 0.000000
45.819900 0.000000
45.849000 0.000000
45.878200 0.000000
45.907300 0.000000
45.936500 0.000000
45.965700 0.000000
45.994800 0.000000
46.024000 0.000000
46.053100 0.000000
46.082300 0.000000
46.111500 0.000000
46.140600 0.000000
46.169800 0.000000
46.198900 0.000000
e
