set title 'mp-66 - Density of States'
set xlabel 'Energy (eV)'
set ylabel 'DOS (states/eV)'
set grid
set xrange [-10:10]
set yrange [0:0.901]
set xzeroaxis lt -1
set terminal png size 800,600
set output 'mp-66_dos_gnuplot.png'
plot '-' using 1:2 with lines title 'DOS'
-14.521300 0.000000
-14.490600 0.000000
-14.459800 0.000000
-14.429000 0.000000
-14.398300 0.000000
-14.367500 0.000000
-14.336700 0.000000
-14.306000 0.000000
-14.275200 0.000000
-14.244400 0.000000
-14.213700 0.000000
-14.182900 0.000000
-14.152100 0.000000
-14.121400 0.000000
-14.090600 0.000000
-14.059800 0.000000
-14.029100 0.000000
-13.998300 0.000000
-13.967500 0.000000
-13.936800 0.000000
-13.906000 0.000000
-13.875200 0.000000
-13.844500 0.000000
-13.813700 0.000000
-13.782900 0.000000
-13.752200 0.000000
-13.721400 0.000000
-13.690600 0.000000
-13.659900 0.000000
-13.629100 0.000000
-13.598300 0.000000
-13.567600 0.000000
-13.536800 0.000000
-13.506000 0.000000
-13.475300 0.000000
-13.444500 0.000000
-13.413700 0.000000
-13.383000 0.000000
-13.352200 0.000000
-13.321400 0.000000
-13.290700 0.000000
-13.259900 0.000000
-13.229100 0.000000
-13.198400 0.000000
-13.167600 0.000000
-13.136800 0.000000
-13.106100 0.000000
-13.075300 0.000000
-13.044500 0.000000
-13.013800 0.000000
-12.983000 0.000000
-12.952300 0.000000
-12.921500 0.000000
-12.890700 0.000000
-12.860000 0.000000
-12.829200 0.000000
-12.798400 0.000000
-12.767700 0.000000
-12.736900 0.000000
-12.706100 0.000000
-12.675400 0.000000
-12.644600 0.000000
-12.613800 0.000000
-12.583100 0.000000
-12.552300 0.000000
-12.521500 0.000000
-12.490800 0.000000
-12.460000 0.000000
-12.429200 0.000000
-12.398500 0.000000
-12.367700 0.000000
-12.336900 0.000000
-12.306200 0.000000
-12.275400 0.000000
-12.244600 0.000000
-12.213900 0.000000
-12.183100 0.000000
-12.152300 0.000000
-12.121600 0.000000
-12.090800 0.000000
-12.060000 0.000000
-12.029300 0.000000
-11.998500 0.000000
-11.967700 0.000000
-11.937000 0.000000
-11.906200 0.000000
-11.875400 0.000000
-11.844700 0.000000
-11.813900 0.000000
-11.783100 0.000000
-11.752400 0.000000
-11.721600 0.000100
-11.690800 0.019000
-11.660100 0.024200
-11.629300 0.032600
-11.598500 0.039100
-11.567800 0.041800
-11.537000 0.046600
-11.506200 0.051600
-11.475500 0.055400
-11.444700 0.058300
-11.413900 0.061000
-11.383200 0.064100
-11.352400 0.067700
-11.321600 0.071400
-11.290900 0.074000
-11.260100 0.075900
-11.229300 0.078300
-11.198600 0.080700
-11.167800 0.083200
-11.137000 0.085900
-11.106300 0.088700
-11.075500 0.091100
-11.044700 0.092900
-11.014000 0.094700
-10.983200 0.096500
-10.952400 0.098700
-10.921700 0.100800
-10.890900 0.102900
-10.860100 0.105100
-10.829400 0.107400
-10.798600 0.109500
-10.767900 0.110900
-10.737100 0.112500
-10.706300 0.114200
-10.675600 0.115800
-10.644800 0.117600
-10.614000 0.119400
-10.583300 0.121200
-10.552500 0.123100
-10.521700 0.125000
-10.491000 0.127000
-10.460200 0.128400
-10.429400 0.129800
-10.398700 0.131200
-10.367900 0.132700
-10.337100 0.134300
-10.306400 0.135800
-10.275600 0.137300
-10.244800 0.138900
-10.214100 0.140600
-10.183300 0.142200
-10.152500 0.143900
-10.121800 0.145600
-10.091000 0.147000
-10.060200 0.148200
-10.029500 0.149600
-9.998700 0.150900
-9.967900 0.152200
-9.937200 0.153600
-9.906400 0.155000
-9.875600 0.156500
-9.844900 0.157900
-9.814100 0.159300
-9.783300 0.160800
-9.752600 0.162300
-9.721800 0.163900
-9.691000 0.165400
-9.660300 0.166600
-9.629500 0.167800
-9.598700 0.169000
-9.568000 0.170200
-9.537200 0.171500
-9.506400 0.172700
-9.475700 0.174000
-9.444900 0.175300
-9.414100 0.176700
-9.383400 0.178000
-9.352600 0.179400
-9.321800 0.180800
-9.291100 0.182100
-9.260300 0.183500
-9.229500 0.184900
-9.198800 0.186100
-9.168000 0.187200
-9.137200 0.188400
-9.106500 0.189600
-9.075700 0.190800
-9.044900 0.192000
-9.014200 0.193200
-8.983400 0.194400
-8.952600 0.195700
-8.921900 0.196900
-8.891100 0.198200
-8.860300 0.199500
-8.829600 0.200800
-8.798800 0.202100
-8.768000 0.203400
-8.737300 0.204700
-8.706500 0.205900
-8.675800 0.207100
-8.645000 0.208200
-8.614200 0.209400
-8.583500 0.210500
-8.552700 0.211700
-8.521900 0.212900
-8.491200 0.214100
-8.460400 0.215300
-8.429600 0.216500
-8.398900 0.217700
-8.368100 0.219000
-8.337300 0.220200
-8.306600 0.221400
-8.275800 0.222700
-8.245000 0.224000
-8.214300 0.225300
-8.183500 0.226600
-8.152700 0.227800
-8.122000 0.229000
-8.091200 0.230100
-8.060400 0.231300
-8.029700 0.232500
-7.998900 0.233700
-7.968100 0.234900
-7.937400 0.236100
-7.906600 0.237300
-7.875800 0.238600
-7.845100 0.239800
-7.814300 0.241100
-7.783500 0.242400
-7.752800 0.243600
-7.722000 0.244900
-7.691200 0.246200
-7.660500 0.247500
-7.629700 0.248900
-7.598900 0.250200
-7.568200 0.251500
-7.537400 0.252800
-7.506600 0.254100
-7.475900 0.255300
-7.445100 0.256700
-7.414300 0.258000
-7.383600 0.259300
-7.352800 0.260600
-7.322000 0.262000
-7.291300 0.263400
-7.260500 0.264800
-7.229700 0.266200
-7.199000 0.267600
-7.168200 0.269000
-7.137400 0.270500
-7.106700 0.272000
-7.075900 0.273500
-7.045100 0.275000
-7.014400 0.276600
-6.983600 0.278100
-6.952800 0.279700
-6.922100 0.281300
-6.891300 0.282900
-6.860500 0.284600
-6.829800 0.286200
-6.799000 0.287900
-6.768200 0.289700
-6.737500 0.291500
-6.706700 0.293300
-6.675900 0.295100
-6.645200 0.297100
-6.614400 0.299100
-6.583600 0.301200
-6.552900 0.303300
-6.522100 0.305500
-6.491400 0.307800
-6.460600 0.310200
-6.429800 0.312700
-6.399100 0.315300
-6.368300 0.318000
-6.337500 0.320800
-6.306800 0.323800
-6.276000 0.327100
-6.245200 0.330700
-6.214500 0.334600
-6.183700 0.338900
-6.152900 0.343900
-6.122200 0.349800
-6.091400 0.356700
-6.060600 0.367000
-6.029900 0.377600
-5.999100 0.384400
-5.968300 0.426200
-5.937600 0.390200
-5.906800 0.384200
-5.876000 0.380500
-5.845300 0.380600
-5.814500 0.388500
-5.783700 0.378900
-5.753000 0.383800
-5.722200 0.380700
-5.691400 0.373200
-5.660700 0.368000
-5.629900 0.364600
-5.599100 0.361600
-5.568400 0.359500
-5.537600 0.359000
-5.506800 0.359800
-5.476100 0.360500
-5.445300 0.357600
-5.414500 0.352800
-5.383800 0.352300
-5.353000 0.350500
-5.322200 0.348400
-5.291500 0.346000
-5.260700 0.342300
-5.229900 0.337600
-5.199200 0.333900
-5.168400 0.331100
-5.137600 0.329200
-5.106900 0.327500
-5.076100 0.326400
-5.045300 0.324900
-5.014600 0.322500
-4.983800 0.321000
-4.953000 0.320400
-4.922300 0.318100
-4.891500 0.313200
-4.860700 0.311400
-4.830000 0.309600
-4.799200 0.307700
-4.768400 0.305700
-4.737700 0.303700
-4.706900 0.301200
-4.676100 0.298500
-4.645400 0.295200
-4.614600 0.291700
-4.583800 0.288800
-4.553100 0.286400
-4.522300 0.284300
-4.491500 0.282600
-4.460800 0.281000
-4.430000 0.278900
-4.399300 0.276600
-4.368500 0.274900
-4.337700 0.273400
-4.307000 0.271500
-4.276200 0.269100
-4.245400 0.266200
-4.214700 0.261600
-4.183900 0.259400
-4.153100 0.257200
-4.122400 0.255100
-4.091600 0.252900
-4.060800 0.250800
-4.030100 0.248500
-3.999300 0.246000
-3.968500 0.243500
-3.937800 0.241100
-3.907000 0.238800
-3.876200 0.236100
-3.845500 0.233300
-3.814700 0.230700
-3.783900 0.228500
-3.753200 0.226200
-3.722400 0.224200
-3.691600 0.221800
-3.660900 0.219400
-3.630100 0.217200
-3.599300 0.215200
-3.568600 0.231900
-3.537800 0.240300
-3.507000 0.243800
-3.476300 0.255400
-3.445500 0.271200
-3.414700 0.281100
-3.384000 0.267100
-3.353200 0.272000
-3.322400 0.278100
-3.291700 0.287400
-3.260900 0.294800
-3.230100 0.307200
-3.199400 0.305500
-3.168600 0.297200
-3.137800 0.288300
-3.107100 0.282100
-3.076300 0.273300
-3.045500 0.261300
-3.014800 0.251400
-2.984000 0.246300
-2.953200 0.240500
-2.922500 0.229200
-2.891700 0.225000
-2.860900 0.224200
-2.830200 0.224300
-2.799400 0.223300
-2.768600 0.221700
-2.737900 0.224200
-2.707100 0.228600
-2.676300 0.234800
-2.645600 0.243800
-2.614800 0.249000
-2.584000 0.252200
-2.553300 0.242800
-2.522500 0.250200
-2.491700 0.261400
-2.461000 0.271300
-2.430200 0.279700
-2.399400 0.289300
-2.368700 0.300000
-2.337900 0.309100
-2.307100 0.318700
-2.276400 0.329000
-2.245600 0.339200
-2.214900 0.351500
-2.184100 0.365700
-2.153300 0.379600
-2.122600 0.398000
-2.091800 0.415800
-2.061000 0.436600
-2.030300 0.458300
-1.999500 0.492200
-1.968700 0.509100
-1.938000 0.523500
-1.907200 0.544400
-1.876400 0.583300
-1.845700 0.643300
-1.814900 0.695000
-1.784100 0.700900
-1.753400 0.688400
-1.722600 0.696400
-1.691800 0.708800
-1.661100 0.709100
-1.630300 0.635500
-1.599500 0.590900
-1.568800 0.557100
-1.538000 0.534600
-1.507200 0.517000
-1.476500 0.503500
-1.445700 0.491700
-1.414900 0.480700
-1.384200 0.470300
-1.353400 0.460400
-1.322600 0.449000
-1.291900 0.438500
-1.261100 0.426500
-1.230300 0.417600
-1.199600 0.411000
-1.168800 0.406000
-1.138000 0.401600
-1.107300 0.397200
-1.076500 0.392800
-1.045700 0.388400
-1.015000 0.384000
-0.984200 0.379400
-0.953400 0.374000
-0.922700 0.367600
-0.891900 0.361200
-0.861100 0.354300
-0.830400 0.348200
-0.799600 0.343900
-0.768800 0.341000
-0.738100 0.338500
-0.707300 0.335900
-0.676500 0.333200
-0.645800 0.330600
-0.615000 0.327800
-0.584200 0.325100
-0.553500 0.322300
-0.522700 0.319400
-0.491900 0.315100
-0.461200 0.310700
-0.430400 0.303800
-0.399600 0.299200
-0.368900 0.295500
-0.338100 0.292700
-0.307300 0.290600
-0.276600 0.288800
-0.245800 0.287100
-0.215000 0.285400
-0.184300 0.283500
-0.153500 0.281600
-0.122800 0.279600
-0.092000 0.277400
-0.061200 0.275100
-0.030500 0.272600
0.000300 0.269400
0.031100 0.265400
0.061800 0.261100
0.092600 0.256800
0.123400 0.253400
0.154100 0.251000
0.184900 0.249400
0.215700 0.248100
0.246400 0.246800
0.277200 0.245400
0.308000 0.250600
0.338700 0.271000
0.369500 0.298600
0.400300 0.297000
0.431000 0.311000
0.461800 0.388600
0.492600 0.338500
0.523300 0.348400
0.554100 0.355700
0.584900 0.358800
0.615600 0.367100
0.646400 0.378200
0.677200 0.389400
0.707900 0.409500
0.738700 0.411000
0.769500 0.416900
0.800200 0.425800
0.831000 0.436700
0.861800 0.449400
0.892500 0.460900
0.923300 0.474200
0.954100 0.496900
0.984800 0.540100
1.015600 0.549700
1.046400 0.546300
1.077100 0.546100
1.107900 0.544800
1.138700 0.543500
1.169400 0.545600
1.200200 0.538900
1.231000 0.535800
1.261700 0.531400
1.292500 0.518500
1.323300 0.515500
1.354000 0.512500
1.384800 0.509800
1.415600 0.507100
1.446300 0.505600
1.477100 0.505600
1.507900 0.506100
1.538600 0.510100
1.569400 0.518800
1.600200 0.510900
1.630900 0.505700
1.661700 0.504400
1.692500 0.502600
1.723200 0.522300
1.754000 0.509900
1.784800 0.508400
1.815500 0.510100
1.846300 0.510400
1.877100 0.511700
1.907800 0.518300
1.938600 0.521000
1.969400 0.517200
2.000100 0.523900
2.030900 0.526900
2.061600 0.525800
2.092400 0.529000
2.123200 0.532000
2.153900 0.535800
2.184700 0.538900
2.215500 0.539600
2.246200 0.544300
2.277000 0.547700
2.307800 0.546300
2.338500 0.546400
2.369300 0.548900
2.400100 0.550600
2.430800 0.555200
2.461600 0.559800
2.492400 0.564000
2.523100 0.564300
2.553900 0.571300
2.584700 0.565600
2.615400 0.570100
2.646200 0.577300
2.677000 0.585900
2.707700 0.591200
2.738500 0.588000
2.769300 0.595100
2.800000 0.602000
2.830800 0.602400
2.861600 0.603000
2.892300 0.606800
2.923100 0.611200
2.953900 0.625800
2.984600 0.629100
3.015400 0.639300
3.046200 0.641400
3.076900 0.648900
3.107700 0.654700
3.138500 0.666200
3.169200 0.670900
3.200000 0.666000
3.230800 0.671400
3.261500 0.679700
3.292300 0.706800
3.323100 0.729600
3.353800 0.759300
3.384600 0.772500
3.415400 0.809000
3.446100 0.803100
3.476900 0.818900
3.507700 0.798400
3.538400 0.797600
3.569200 0.803700
3.600000 0.797800
3.630700 0.794100
3.661500 0.795500
3.692300 0.792500
3.723000 0.791900
3.753800 0.787900
3.784600 0.786900
3.815300 0.783700
3.846100 0.781400
3.876900 0.780900
3.907600 0.780800
3.938400 0.778300
3.969200 0.776200
3.999900 0.774500
4.030700 0.773300
4.061500 0.771500
4.092200 0.769400
4.123000 0.767100
4.153700 0.764800
4.184500 0.762300
4.215300 0.759900
4.246000 0.757500
4.276800 0.755200
4.307600 0.753000
4.338300 0.751800
4.369100 0.750700
4.399900 0.751000
4.430600 0.753400
4.461400 0.753400
4.492200 0.752100
4.522900 0.749600
4.553700 0.747100
4.584500 0.743700
4.615200 0.740300
4.646000 0.737000
4.676800 0.733900
4.707500 0.731500
4.738300 0.729300
4.769100 0.727400
4.799800 0.725500
4.830600 0.723800
4.861400 0.722600
4.892100 0.722500
4.922900 0.722500
4.953700 0.721800
4.984400 0.720900
5.015200 0.720100
5.046000 0.719200
5.076700 0.718300
5.107500 0.716800
5.138300 0.715100
5.169000 0.713500
5.199800 0.711900
5.230600 0.710000
5.261300 0.708000
5.292100 0.705500
5.322900 0.702800
5.353600 0.700000
5.384400 0.697600
5.415200 0.696000
5.445900 0.693900
5.476700 0.692300
5.507500 0.691600
5.538200 0.690600
5.569000 0.689000
5.599800 0.687600
5.630500 0.686600
5.661300 0.685700
5.692100 0.685200
5.722800 0.684100
5.753600 0.683300
5.784400 0.682100
5.815100 0.680600
5.845900 0.679300
5.876700 0.677900
5.907400 0.676800
5.938200 0.675500
5.969000 0.673100
5.999700 0.671000
6.030500 0.668700
6.061300 0.666400
6.092000 0.663800
6.122800 0.661000
6.153600 0.658400
6.184300 0.657300
6.215100 0.655900
6.245900 0.653600
6.276600 0.651600
6.307400 0.650100
6.338100 0.648800
6.368900 0.648000
6.399700 0.647600
6.430400 0.647100
6.461200 0.648300
6.492000 0.648000
6.522700 0.647900
6.553500 0.646500
6.584300 0.644400
6.615000 0.641200
6.645800 0.637400
6.676600 0.633700
6.707300 0.630300
6.738100 0.633400
6.768900 0.638900
6.799600 0.637300
6.830400 0.629500
6.861200 0.614000
6.891900 0.576600
6.922700 0.546400
6.953500 0.521700
6.984200 0.505800
7.015000 0.489700
7.045800 0.474300
7.076500 0.463000
7.107300 0.454100
7.138100 0.444200
7.168800 0.433700
7.199600 0.423000
7.230400 0.413300
7.261100 0.404900
7.291900 0.397100
7.322700 0.389300
7.353400 0.381100
7.384200 0.372800
7.415000 0.364700
7.445700 0.357100
7.476500 0.350300
7.507300 0.343400
7.538000 0.337300
7.568800 0.331100
7.599600 0.324700
7.630300 0.319300
7.661100 0.312400
7.691900 0.305800
7.722600 0.299700
7.753400 0.294300
7.784200 0.289300
7.814900 0.284300
7.845700 0.279100
7.876500 0.273900
7.907200 0.268900
7.938000 0.263800
7.968800 0.258700
7.999500 0.253600
8.030300 0.248500
8.061100 0.243600
8.091800 0.239000
8.122600 0.234500
8.153400 0.230000
8.184100 0.225500
8.214900 0.221200
8.245700 0.216700
8.276400 0.211900
8.307200 0.208100
8.338000 0.204500
8.368700 0.199800
8.399500 0.195300
8.430200 0.190900
8.461000 0.186600
8.491800 0.182500
8.522500 0.178500
8.553300 0.174400
8.584100 0.170400
8.614800 0.166600
8.645600 0.162900
8.676400 0.159200
8.707100 0.155300
8.737900 0.151300
8.768700 0.147100
8.799400 0.143200
8.830200 0.139600
8.861000 0.136200
8.891700 0.133100
8.922500 0.130000
8.953300 0.125500
8.984000 0.121600
9.014800 0.117400
9.045600 0.112800
9.076300 0.108200
9.107100 0.104200
9.137900 0.100300
9.168600 0.096500
9.199400 0.092500
9.230200 0.089000
9.260900 0.088700
9.291700 0.083200
9.322500 0.077400
9.353200 0.071900
9.384000 0.067100
9.414800 0.063500
9.445500 0.061300
9.476300 0.055200
9.507100 0.046100
9.537800 0.038900
9.568600 0.034500
9.599400 0.036500
9.630100 0.006900
9.660900 0.000700
9.691700 0.000000
9.722400 0.000000
9.753200 0.000000
9.784000 0.000000
9.814700 0.000000
9.845500 0.000000
9.876300 0.000000
9.907000 0.000000
9.937800 0.000000
9.968600 0.000000
9.999300 0.000000
10.030100 0.000000
10.060900 0.000000
10.091600 0.000000
10.122400 0.000000
10.153200 0.000000
10.183900 0.000000
10.214700 0.000000
10.245500 0.000000
10.276200 0.000000
10.307000 0.000000
10.337800 0.000000
10.368500 0.000000
10.399300 0.000000
10.430100 0.000000
10.460800 0.000000
10.491600 0.000000
10.522300 0.000000
10.553100 0.000000
10.583900 0.000000
10.614600 0.000000
10.645400 0.000000
10.676200 0.000000
10.706900 0.000000
10.737700 0.000000
10.768500 0.000000
10.799200 0.000000
10.830000 0.000000
10.860800 0.000000
10.891500 0.000000
10.922300 0.000000
10.953100 0.000000
10.983800 0.000000
11.014600 0.000000
11.045400 0.000000
11.076100 0.000000
11.106900 0.000000
11.137700 0.000000
11.168400 0.000000
11.199200 0.000000
11.230000 0.000000
11.260700 0.000000
11.291500 0.000000
11.322300 0.000000
11.353000 0.000000
11.383800 0.000000
11.414600 0.000000
11.445300 0.000000
11.476100 0.000000
11.506900 0.000000
11.537600 0.000000
11.568400 0.000000
11.599200 0.000000
11.629900 0.000000
11.660700 0.000000
11.691500 0.000000
11.722200 0.000000
11.753000 0.000000
11.783800 0.000000
11.814500 0.000000
11.845300 0.000000
11.876100 0.000000
11.906800 0.000000
11.937600 0.000000
11.968400 0.000000
11.999100 0.000000
12.029900 0.000000
12.060700 0.000000
12.091400 0.000000
12.122200 0.000000
12.153000 0.000000
12.183700 0.000000
12.214500 0.000000
12.245300 0.000000
12.276000 0.000000
12.306800 0.000000
12.337600 0.000000
12.368300 0.000000
12.399100 0.000000
12.429900 0.000000
12.460600 0.000000
12.491400 0.000000
12.522200 0.000000
12.552900 0.000000
12.583700 0.000000
12.614500 0.000000
12.645200 0.000000
12.676000 0.000000
12.706700 0.000000
12.737500 0.000000
12.768300 0.000000
12.799000 0.000000
12.829800 0.000000
12.860600 0.000000
12.891300 0.000000
12.922100 0.000000
12.952900 0.000000
12.983600 0.000000
13.014400 0.000000
13.045200 0.000000
13.075900 0.000000
13.106700 0.000000
13.137500 0.000000
13.168200 0.000000
13.199000 0.000000
13.229800 0.000000
13.260500 0.000000
13.291300 0.000000
13.322100 0.000000
13.352800 0.000000
13.383600 0.000000
13.414400 0.000000
13.445100 0.000000
13.475900 0.000000
13.506700 0.000000
13.537400 0.000000
13.568200 0.000000
13.599000 0.000000
13.629700 0.000000
13.660500 0.000000
13.691300 0.000000
13.722000 0.000000
13.752800 0.000000
13.783600 0.000000
13.814300 0.003900
13.845100 0.016900
13.875900 0.033900
13.906600 0.052300
13.937400 0.064000
13.968200 0.071800
13.998900 0.078600
14.029700 0.083100
14.060500 0.090100
14.091200 0.097400
14.122000 0.105000
14.152800 0.113500
14.183500 0.122100
14.214300 0.129100
14.245100 0.135800
14.275800 0.143600
14.306600 0.151600
14.337400 0.159600
14.368100 0.167800
14.398900 0.175900
14.429700 0.183900
14.460400 0.197700
14.491200 0.202300
14.522000 0.208800
14.552700 0.215800
14.583500 0.223500
14.614300 0.265100
14.645000 0.244100
14.675800 0.252100
14.706600 0.260300
14.737300 0.267700
14.768100 0.274100
14.798800 0.280300
14.829600 0.287200
14.860400 0.294300
14.891100 0.301600
14.921900 0.309700
14.952700 0.317800
14.983400 0.325800
15.014200 0.333700
15.045000 0.341700
15.075700 0.349800
15.106500 0.358300
15.137300 0.368800
15.168000 0.378200
15.198800 0.387000
15.229600 0.397800
15.260300 0.415600
15.291100 0.432700
15.321900 0.436600
15.352600 0.430600
15.383400 0.437500
15.414200 0.445100
15.444900 0.450200
15.475700 0.455100
15.506500 0.458200
15.537200 0.460100
15.568000 0.462900
15.598800 0.467000
15.629500 0.471500
15.660300 0.476400
15.691100 0.481700
15.721800 0.486900
15.752600 0.491900
15.783400 0.496800
15.814100 0.501500
15.844900 0.504700
15.875700 0.508600
15.906400 0.513300
15.937200 0.518500
15.968000 0.523600
15.998700 0.528800
16.029500 0.533600
16.060300 0.538600
16.091000 0.543500
16.121800 0.548200
16.152600 0.552900
16.183300 0.557500
16.214100 0.562000
16.244900 0.566400
16.275600 0.571100
16.306400 0.575600
16.337200 0.580300
16.367900 0.585100
16.398700 0.589800
16.429500 0.594500
16.460200 0.599300
16.491000 0.604200
16.521800 0.609200
16.552500 0.614400
16.583300 0.619700
16.614100 0.625100
16.644800 0.630900
16.675600 0.636900
16.706400 0.642900
16.737100 0.649000
16.767900 0.655100
16.798700 0.661200
16.829400 0.667400
16.860200 0.673700
16.891000 0.680000
16.921700 0.686500
16.952500 0.693200
16.983200 0.700000
17.014000 0.707000
17.044800 0.714700
17.075500 0.722000
17.106300 0.729400
17.137100 0.737400
17.167800 0.745700
17.198600 0.754200
17.229400 0.763100
17.260100 0.771800
17.290900 0.780800
17.321700 0.790400
17.352400 0.800900
17.383200 0.811900
17.414000 0.823000
17.444700 0.834700
17.475500 0.847000
17.506300 0.860400
17.537000 0.875900
17.567800 0.894200
17.598600 0.915600
17.629300 0.940400
17.660100 0.969100
17.690900 1.002800
17.721600 1.044300
17.752400 1.090700
17.783200 1.151700
17.813900 1.214500
17.844700 1.233800
17.875500 1.144800
17.906200 1.134300
17.937000 1.131900
17.967800 1.202100
17.998500 1.145100
18.029300 1.146800
18.060100 1.128500
18.090800 0.960800
18.121600 0.775100
18.152400 0.732000
18.183100 0.764300
18.213900 0.820400
18.244700 0.912300
18.275400 1.034400
18.306200 1.048200
18.337000 1.072600
18.367700 1.095300
18.398500 0.989300
18.429300 0.896700
18.460000 0.909400
18.490800 0.924900
18.521600 0.939700
18.552300 0.990900
18.583100 0.983100
18.613900 0.978400
18.644600 0.986300
18.675400 0.965000
18.706200 0.920800
18.736900 0.894300
18.767700 0.881300
18.798500 0.873400
18.829200 0.863500
18.860000 0.869800
18.890800 0.903100
18.921500 0.887300
18.952300 0.872100
18.983100 0.867600
19.013800 0.870000
19.044600 0.855900
19.075300 0.841700
19.106100 0.832800
19.136900 0.828900
19.167600 0.831000
19.198400 0.837500
19.229200 0.842700
19.259900 0.847200
19.290700 0.849800
19.321500 0.852300
19.352200 0.872800
19.383000 0.868500
19.413800 0.864900
19.444500 0.852400
19.475300 0.849600
19.506100 0.846500
19.536800 0.843400
19.567600 0.832800
19.598400 0.832100
19.629100 0.838700
19.659900 0.836700
19.690700 0.836500
19.721400 0.852100
19.752200 0.835200
19.783000 0.821000
19.813700 0.800900
19.844500 0.797700
19.875300 0.798000
19.906000 0.813500
19.936800 0.796000
19.967600 0.785200
19.998300 0.783600
20.029100 0.787100
20.059900 0.791200
20.090600 0.794000
20.121400 0.766900
20.152200 0.734600
20.182900 0.732300
20.213700 0.718800
20.244500 0.706400
20.275200 0.682100
20.306000 0.657500
20.336800 0.641100
20.367500 0.642900
20.398300 0.636000
20.429100 0.619300
20.459800 0.593100
20.490600 0.578200
20.521400 0.562000
20.552100 0.550400
20.582900 0.542500
20.613700 0.535600
20.644400 0.529500
20.675200 0.524400
20.706000 0.521100
20.736700 0.516300
20.767500 0.512700
20.798300 0.508800
20.829000 0.510400
20.859800 0.551600
20.890600 0.589300
20.921300 0.600600
20.952100 0.605200
20.982900 0.597600
21.013600 0.603900
21.044400 0.602800
21.075200 0.606000
21.105900 0.634200
21.136700 0.740300
21.167500 0.607400
21.198200 0.612100
21.229000 0.615000
21.259700 0.621600
21.290500 0.623500
21.321300 0.624000
21.352000 0.623200
21.382800 0.619600
21.413600 0.615300
21.444300 0.614700
21.475100 0.617000
21.505900 0.623000
21.536600 0.626700
21.567400 0.631700
21.598200 0.648200
21.628900 0.637100
21.659700 0.644000
21.690500 0.654800
21.721200 0.668700
21.752000 0.686400
21.782800 0.792000
21.813500 0.760900
21.844300 0.756500
21.875100 0.738700
21.905800 0.728200
21.936600 0.720000
21.967400 0.740400
21.998100 0.732100
22.028900 0.754000
22.059700 0.748100
22.090400 0.727200
22.121200 0.719600
22.152000 0.718700
22.182700 0.722800
22.213500 0.716800
22.244300 0.709000
22.275000 0.710100
22.305800 0.710900
22.336600 0.718900
22.367300 0.748100
22.398100 0.822500
22.428900 0.764500
22.459600 0.739600
22.490400 0.738600
22.521200 0.741300
22.551900 0.739700
22.582700 0.740400
22.613500 0.742900
22.644200 0.743900
22.675000 0.747800
22.705800 0.759100
22.736500 0.764100
22.767300 0.771400
22.798100 0.779000
22.828800 0.791400
22.859600 0.796600
22.890400 0.817200
22.921100 0.849300
22.951900 0.879100
22.982700 0.915600
23.013400 0.959600
23.044200 0.958800
23.075000 0.987100
23.105700 1.010900
23.136500 1.015500
23.167300 0.976500
23.198000 1.002300
23.228800 1.062300
23.259600 1.064300
23.290300 0.980000
23.321100 0.914000
23.351800 0.889500
23.382600 0.864000
23.413400 0.829300
23.444100 0.809000
23.474900 0.790200
23.505700 0.782800
23.536400 0.783900
23.567200 0.787300
23.598000 0.779300
23.628700 0.770500
23.659500 0.766500
23.690300 0.766500
23.721000 0.767300
23.751800 0.770000
23.782600 0.779400
23.813300 0.797200
23.844100 0.825100
23.874900 0.854900
23.905600 0.880700
23.936400 0.898000
23.967200 0.960700
23.997900 1.009700
24.028700 1.035800
24.059500 1.100300
24.090200 1.060800
24.121000 0.989900
24.151800 0.943200
24.182500 0.916600
24.213300 0.901000
24.244100 0.890200
24.274800 0.871800
24.305600 0.842000
24.336400 0.812300
24.367100 0.786200
24.397900 0.766100
24.428700 0.750300
24.459400 0.738600
24.490200 0.730400
24.521000 0.725600
24.551700 0.721200
24.582500 0.715300
24.613300 0.706000
24.644000 0.692900
24.674800 0.679400
24.705600 0.667100
24.736300 0.655000
24.767100 0.641900
24.797900 0.634500
24.828600 0.628600
24.859400 0.622400
24.890200 0.614400
24.920900 0.605000
24.951700 0.593100
24.982500 0.593100
25.013200 0.594600
25.044000 0.589700
25.074800 0.583700
25.105500 0.565500
25.136300 0.548500
25.167100 0.547500
25.197800 0.579000
25.228600 0.584900
25.259400 0.528000
25.290100 0.584600
25.320900 0.264700
25.351700 0.258200
25.382400 0.251700
25.413200 0.246100
25.444000 0.240500
25.474700 0.234300
25.505500 0.228000
25.536200 0.221500
25.567000 0.214700
25.597800 0.207600
25.628500 0.201700
25.659300 0.196500
25.690100 0.192000
25.720800 0.187600
25.751600 0.183000
25.782400 0.178200
25.813100 0.173300
25.843900 0.167500
25.874700 0.162800
25.905400 0.155600
25.936200 0.148000
25.967000 0.140300
25.997700 0.132400
26.028500 0.124600
26.059300 0.117400
26.090000 0.110200
26.120800 0.104400
26.151600 0.098900
26.182300 0.093800
26.213100 0.086000
26.243900 0.075400
26.274600 0.060900
26.305400 0.044600
26.336200 0.037800
26.366900 0.000000
26.397700 0.000000
26.428500 0.000000
26.459200 0.000000
26.490000 0.008400
26.520800 0.015300
26.551500 0.015100
26.582300 0.017800
26.613100 0.020700
26.643800 0.023500
26.674600 0.026400
26.705400 0.029300
26.736100 0.032300
26.766900 0.035200
26.797700 0.038100
26.828400 0.041200
26.859200 0.044400
26.890000 0.048000
26.920700 0.051700
26.951500 0.055600
26.982300 0.059400
27.013000 0.063100
27.043800 0.066700
27.074600 0.070200
27.105300 0.073600
27.136100 0.076900
27.166900 0.080300
27.197600 0.083700
27.228400 0.088200
27.259200 0.093800
27.289900 0.099700
27.320700 0.105700
27.351500 0.112000
27.382200 0.118500
27.413000 0.125200
27.443800 0.131900
27.474500 0.137400
27.505300 0.144400
27.536100 0.154200
27.566800 0.166700
27.597600 0.180400
27.628300 0.191800
27.659100 0.225700
27.689900 0.238800
27.720600 0.229400
27.751400 0.224600
27.782200 0.225100
27.812900 0.226700
27.843700 0.229500
27.874500 0.232400
27.905200 0.235300
27.936000 0.238000
27.966800 0.240700
27.997500 0.243400
28.028300 0.246000
28.059100 0.248400
28.089800 0.250400
28.120600 0.252300
28.151400 0.254100
28.182100 0.255900
28.212900 0.257700
28.243700 0.259300
28.274400 0.260800
28.305200 0.262500
28.336000 0.264300
28.366700 0.266200
28.397500 0.268000
28.428300 0.270100
28.459000 0.272200
28.489800 0.274400
28.520600 0.276400
28.551300 0.278400
28.582100 0.280400
28.612900 0.282200
28.643600 0.284000
28.674400 0.285800
28.705200 0.287600
28.735900 0.289300
28.766700 0.291100
28.797500 0.292800
28.828200 0.294400
28.859000 0.296100
28.889800 0.298100
28.920500 0.302700
28.951300 0.313300
28.982100 0.318300
29.012800 0.323400
29.043600 0.328900
29.074400 0.334600
29.105100 0.339600
29.135900 0.343500
29.166700 0.348000
29.197400 0.352600
29.228200 0.357100
29.259000 0.361500
29.289700 0.365900
29.320500 0.369600
29.351300 0.390900
29.382000 0.415000
29.412800 0.434100
29.443600 0.453500
29.474300 0.467200
29.505100 0.480200
29.535900 0.493000
29.566600 0.509700
29.597400 0.528100
29.628200 0.545600
29.658900 0.563100
29.689700 0.589200
29.720500 0.631400
29.751200 0.687500
29.782000 0.754000
29.812700 0.817800
29.843500 0.860400
29.874300 0.878400
29.905000 0.892800
29.935800 0.856500
29.966600 0.867300
29.997300 0.887700
30.028100 0.889500
30.058900 0.888300
30.089600 0.891400
30.120400 0.901700
30.151200 0.906000
30.181900 0.893600
30.212700 0.933000
30.243500 0.968300
30.274200 0.975900
30.305000 0.988800
30.335800 1.005300
30.366500 1.028500
30.397300 1.067000
30.428100 1.135900
30.458800 1.229600
30.489600 1.281900
30.520400 1.340500
30.551100 1.449400
30.581900 1.650900
30.612700 1.688600
30.643400 1.571200
30.674200 1.428900
30.705000 1.411400
30.735700 1.284700
30.766500 1.167100
30.797300 1.064900
30.828000 0.997000
30.858800 0.967900
30.889600 0.914500
30.920300 0.894300
30.951100 0.875100
30.981900 0.856500
31.012600 0.840300
31.043400 0.818900
31.074200 0.787900
31.104900 0.767200
31.135700 0.752800
31.166500 0.738000
31.197200 0.729100
31.228000 0.705700
31.258800 0.697700
31.289500 0.686500
31.320300 0.661500
31.351100 0.713500
31.381800 0.639400
31.412600 0.628600
31.443400 0.621400
31.474100 0.625300
31.504900 0.611300
31.535700 0.610000
31.566400 0.611100
31.597200 0.615200
31.628000 0.622200
31.658700 0.640100
31.689500 0.637400
31.720300 0.649900
31.751000 0.638000
31.781800 0.630300
31.812600 0.626600
31.843300 0.629300
31.874100 0.634300
31.904800 0.643400
31.935600 0.651500
31.966400 0.668400
31.997100 0.680700
32.027900 0.710900
32.058700 0.759900
32.089400 0.776600
32.120200 0.813700
32.151000 0.845000
32.181700 0.820700
32.212500 0.812100
32.243300 0.810000
32.274000 0.829300
32.304800 0.800000
32.335600 0.798700
32.366300 0.801400
32.397100 0.806300
32.427900 0.802400
32.458600 0.789400
32.489400 0.788000
32.520200 0.773000
32.550900 0.774200
32.581700 0.778800
32.612500 0.781000
32.643200 0.783400
32.674000 0.770600
32.704800 0.770100
32.735500 0.769800
32.766300 0.779400
32.797100 0.845800
32.827800 0.874900
32.858600 0.893200
32.889400 0.882000
32.920100 0.860700
32.950900 0.825000
32.981700 0.804800
33.012400 0.785300
33.043200 0.760100
33.074000 0.736200
33.104700 0.717400
33.135500 0.707600
33.166300 0.699600
33.197000 0.689400
33.227800 0.679400
33.258600 0.670900
33.289300 0.664300
33.320100 0.658100
33.350900 0.652000
33.381600 0.647000
33.412400 0.643000
33.443200 0.640800
33.473900 0.634900
33.504700 0.627900
33.535500 0.620100
33.566200 0.614700
33.597000 0.611600
33.627800 0.607000
33.658500 0.600700
33.689300 0.614800
33.720100 0.682700
33.750800 0.759300
33.781600 0.895000
33.812400 0.716400
33.843100 0.559500
33.873900 0.467100
33.904700 0.380600
33.935400 0.324100
33.966200 0.292800
33.997000 0.286000
34.027700 0.285300
34.058500 0.296300
34.089200 0.323000
34.120000 0.337700
34.150800 0.350200
34.181500 0.365500
34.212300 0.385600
34.243100 0.409700
34.273800 0.431800
34.304600 0.450700
34.335400 0.464300
34.366100 0.481300
34.396900 0.501500
34.427700 0.529200
34.458400 0.553200
34.489200 0.573200
34.520000 0.598200
34.550700 0.608300
34.581500 0.581600
34.612300 0.553200
34.643000 0.512900
34.673800 0.466800
34.704600 0.465000
34.735300 0.463500
34.766100 0.462100
34.796900 0.460500
34.827600 0.458700
34.858400 0.456100
34.889200 0.453200
34.919900 0.451000
34.950700 0.448700
34.981500 0.446100
35.012200 0.444200
35.043000 0.444400
35.073800 0.445900
35.104500 0.448100
35.135300 0.451600
35.166100 0.455200
35.196800 0.497800
35.227600 0.521100
35.258400 0.542500
35.289100 0.545300
35.319900 0.531300
35.350700 0.515300
35.381400 0.504300
35.412200 0.487000
35.443000 0.477000
35.473700 0.464500
35.504500 0.466400
35.535300 0.468900
35.566000 0.471700
35.596800 0.475200
35.627600 0.476900
35.658300 0.477800
35.689100 0.480600
35.719900 0.483300
35.750600 0.486100
35.781400 0.488800
35.812200 0.488800
35.842900 0.481400
35.873700 0.478200
35.904500 0.476800
35.935200 0.476000
35.966000 0.474700
35.996800 0.473500
36.027500 0.472400
36.058300 0.471200
36.089100 0.469600
36.119800 0.467800
36.150600 0.465600
36.181300 0.462200
36.212100 0.459000
36.242900 0.457300
36.273600 0.456200
36.304400 0.455400
36.335200 0.455000
36.365900 0.454300
36.396700 0.453100
36.427500 0.451800
36.458200 0.450500
36.489000 0.449100
36.519800 0.447600
36.550500 0.446300
36.581300 0.445500
36.612100 0.444800
36.642800 0.444000
36.673600 0.442600
36.704400 0.440800
36.735100 0.439400
36.765900 0.438500
36.796700 0.437800
36.827400 0.437100
36.858200 0.436500
36.889000 0.436100
36.919700 0.435700
36.950500 0.435400
36.981300 0.435100
37.012000 0.436900
37.042800 0.438000
37.073600 0.436700
37.104300 0.437700
37.135100 0.439700
37.165900 0.440000
37.196600 0.439300
37.227400 0.437100
37.258200 0.433800
37.288900 0.430800
37.319700 0.428600
37.350500 0.426900
37.381200 0.425600
37.412000 0.424300
37.442800 0.422500
37.473500 0.421500
37.504300 0.420400
37.535100 0.419400
37.565800 0.422700
37.596600 0.422800
37.627400 0.419200
37.658100 0.415100
37.688900 0.411600
37.719700 0.408500
37.750400 0.405800
37.781200 0.403200
37.812000 0.400900
37.842700 0.399200
37.873500 0.397400
37.904300 0.395900
37.935000 0.394600
37.965800 0.393400
37.996600 0.392300
38.027300 0.391300
38.058100 0.390200
38.088900 0.389900
38.119600 0.389500
38.150400 0.388900
38.181200 0.388300
38.211900 0.398500
38.242700 0.392100
38.273500 0.387000
38.304200 0.383300
38.335000 0.381100
38.365700 0.379400
38.396500 0.377600
38.427300 0.376200
38.458000 0.375000
38.488800 0.373700
38.519600 0.372200
38.550300 0.370600
38.581100 0.369000
38.611900 0.367400
38.642600 0.365800
38.673400 0.364400
38.704200 0.362900
38.734900 0.361500
38.765700 0.360100
38.796500 0.358700
38.827200 0.357400
38.858000 0.356100
38.888800 0.355100
38.919500 0.354300
38.950300 0.353500
38.981100 0.352600
39.011800 0.351800
39.042600 0.351300
39.073400 0.352800
39.104100 0.354600
39.134900 0.346200
39.165700 0.344300
39.196400 0.343100
39.227200 0.341900
39.258000 0.340600
39.288700 0.339400
39.319500 0.338100
39.350300 0.335900
39.381000 0.333700
39.411800 0.331700
39.442600 0.341800
39.473300 0.338900
39.504100 0.334600
39.534900 0.329500
39.565600 0.321900
39.596400 0.317700
39.627200 0.315800
39.657900 0.314300
39.688700 0.313500
39.719500 0.313200
39.750200 0.310400
39.781000 0.308000
39.811800 0.305700
39.842500 0.304400
39.873300 0.303300
39.904100 0.302500
39.934800 0.301600
39.965600 0.300600
39.996400 0.299700
40.027100 0.298700
40.057900 0.297800
40.088700 0.297600
40.119400 0.298400
40.150200 0.300100
40.181000 0.294900
40.211700 0.294100
40.242500 0.294000
40.273300 0.295500
40.304000 0.298600
40.334800 0.296000
40.365600 0.294300
40.396300 0.292800
40.427100 0.291400
40.457800 0.290100
40.488600 0.301100
40.519400 0.315200
40.550100 0.306500
40.580900 0.309000
40.611700 0.311200
40.642400 0.312900
40.673200 0.314300
40.704000 0.314800
40.734700 0.317500
40.765500 0.320600
40.796300 0.326100
40.827000 0.329700
40.857800 0.333200
40.888600 0.337400
40.919300 0.341500
40.950100 0.345400
40.980900 0.350300
41.011600 0.363300
41.042400 0.375500
41.073200 0.385100
41.103900 0.392300
41.134700 0.409100
41.165500 0.412200
41.196200 0.415900
41.227000 0.425100
41.257800 0.446700
41.288500 0.477400
41.319300 0.498000
41.350100 0.495200
41.380800 0.489600
41.411600 0.491700
41.442400 0.486900
41.473100 0.497500
41.503900 0.474400
41.534700 0.472200
41.565400 0.470400
41.596200 0.469800
41.627000 0.471400
41.657700 0.472000
41.688500 0.471400
41.719300 0.469300
41.750000 0.474900
41.780800 0.471200
41.811600 0.466500
41.842300 0.460300
41.873100 0.460200
41.903900 0.458200
41.934600 0.458600
41.965400 0.459900
41.996200 0.462500
42.026900 0.466400
42.057700 0.463100
42.088500 0.459000
42.119200 0.457600
42.150000 0.457300
42.180800 0.454700
42.211500 0.448600
42.242300 0.450800
42.273100 0.461500
42.303800 0.449700
42.334600 0.449300
42.365400 0.450900
42.396100 0.442900
42.426900 0.435900
42.457700 0.431400
42.488400 0.431900
42.519200 0.440600
42.549900 0.445900
42.580700 0.447700
42.611500 0.446900
42.642200 0.440900
42.673000 0.431300
42.703800 0.420500
42.734500 0.403500
42.765300 0.381400
42.796100 0.354700
42.826800 0.332200
42.857600 0.319400
42.888400 0.308000
42.919100 0.297600
42.949900 0.296100
42.980700 0.282600
43.011400 0.272200
43.042200 0.265300
43.073000 0.262500
43.103700 0.250500
43.134500 0.235600
43.165300 0.217700
43.196000 0.198400
43.226800 0.183300
43.257600 0.172400
43.288300 0.163900
43.319100 0.155100
43.349900 0.146400
43.380600 0.138100
43.411400 0.131500
43.442200 0.127900
43.472900 0.117900
43.503700 0.108500
43.534500 0.099000
43.565200 0.089600
43.596000 0.080400
43.626800 0.070300
43.657500 0.061200
43.688300 0.054000
43.719100 0.048000
43.749800 0.032700
43.780600 0.029300
43.811400 0.026700
43.842100 0.024200
43.872900 0.022000
43.903700 0.019900
43.934400 0.018000
43.965200 0.016300
43.996000 0.014400
44.026700 0.012200
44.057500 0.009900
44.088300 0.007300
44.119000 0.004400
44.149800 0.002000
44.180600 0.000600
44.211300 0.000000
44.242100 0.000000
44.272900 0.000000
44.303600 0.000000
44.334400 0.000000
44.365200 0.000000
44.395900 0.000000
44.426700 0.000000
44.457500 0.000000
44.488200 0.000000
44.519000 0.000000
44.549800 0.000000
44.580500 0.000000
44.611300 0.000000
44.642100 0.000000
44.672800 0.000000
44.703600 0.000000
44.734300 0.000000
44.765100 0.000000
44.795900 0.000000
44.826600 0.000000
44.857400 0.000000
44.888200 0.000000
44.918900 0.000000
44.949700 0.000000
44.980500 0.000000
45.011200 0.000000
45.042000 0.000000
45.072800 0.000000
45.103500 0.000000
45.134300 0.000000
45.165100 0.000000
45.195800 0.000000
45.226600 0.000000
45.257400 0.000000
45.288100 0.000000
45.318900 0.000000
45.349700 0.000000
45.380400 0.000000
45.411200 0.000000
45.442000 0.000000
45.472700 0.000000
45.503500 0.000000
45.534300 0.000000
45.565000 0.000000
45.595800 0.000000
45.626600 0.000000
45.657300 0.000000
45.688100 0.000000
45.718900 0.000000
45.749600 0.000000
45.780400 0.000000
45.811200 0.000000
45.841900 0.000000
45.872700 0.000000
45.903500 0.000000
45.934200 0.000000
45.965000 0.000000
45.995800 0.000000
46.026500 0.000000
46.057300 0.000000
46.088100 0.000000
46.118800 0.000000
46.149600 0.000000
46.180400 0.000000
46.211100 0.000000
46.241900 0.000000
46.272700 0.000000
46.303400 0.000000
46.334200 0.000000
46.365000 0.000000
46.395700 0.000000
46.426500 0.000000
46.457300 0.000000
46.488000 0.000000
46.518800 0.000000
46.549600 0.000000
46.580300 0.000000
46.611100 0.000000
46.641900 0.000000
46.672600 0.000000
46.703400 0.000000
46.734200 0.000000
46.764900 0.000000
46.795700 0.000000
46.826400 0.000000
46.857200 0.000000
46.888000 0.000000
46.918700 0.000000
46.949500 0.000000
46.980300 0.000000
47.011000 0.000000
e
