set title 'mp-27628 - Density of States'
set xlabel 'Energy (eV)'
set ylabel 'DOS (states/eV)'
set grid
set xrange [-10:10]
set yrange [0:112.584]
set xzeroaxis lt -1
set terminal png size 800,600
set output 'mp-27628_dos_gnuplot.png'
plot '-' using 1:2 with lines title 'DOS'
-13.409500 0.000000
-13.395300 0.000000
-13.381100 0.000000
-13.366800 0.000000
-13.352600 0.000000
-13.338400 0.000000
-13.324100 0.000000
-13.309900 0.000000
-13.295700 0.000000
-13.281400 0.000000
-13.267200 0.000000
-13.252900 0.000000
-13.238700 0.000000
-13.224500 0.000000
-13.210200 0.000000
-13.196000 0.000000
-13.181800 0.000000
-13.167500 0.000000
-13.153300 0.000000
-13.139100 0.000000
-13.124800 0.000000
-13.110600 0.000000
-13.096300 0.000000
-13.082100 0.000000
-13.067900 0.000000
-13.053600 0.000000
-13.039400 0.000000
-13.025200 0.000000
-13.010900 0.000000
-12.996700 0.000000
-12.982500 0.000000
-12.968200 0.000000
-12.954000 0.000000
-12.939700 0.000000
-12.925500 0.000000
-12.911300 0.000000
-12.897000 0.000000
-12.882800 0.000000
-12.868600 0.000000
-12.854300 0.000000
-12.840100 0.000000
-12.825900 0.000000
-12.811600 0.000000
-12.797400 0.000000
-12.783100 0.000000
-12.768900 0.000000
-12.754700 0.000000
-12.740400 0.000000
-12.726200 0.000000
-12.712000 0.000000
-12.697700 0.000000
-12.683500 0.000000
-12.669300 0.000000
-12.655000 0.000000
-12.640800 0.000000
-12.626600 0.000000
-12.612300 0.000000
-12.598100 0.000000
-12.583800 0.000000
-12.569600 0.000000
-12.555400 0.000000
-12.541100 0.000000
-12.526900 0.000000
-12.512700 0.000000
-12.498400 0.000000
-12.484200 0.000000
-12.470000 0.000000
-12.455700 0.000000
-12.441500 0.000000
-12.427200 0.000000
-12.413000 0.000000
-12.398800 0.000000
-12.384500 0.000000
-12.370300 0.000000
-12.356100 0.000000
-12.341800 0.000000
-12.327600 0.000000
-12.313400 0.000000
-12.299100 0.000000
-12.284900 0.000000
-12.270600 0.000000
-12.256400 0.000000
-12.242200 0.000000
-12.227900 0.000000
-12.213700 0.000000
-12.199500 0.000000
-12.185200 0.000000
-12.171000 0.000000
-12.156800 0.000000
-12.142500 0.000000
-12.128300 0.000000
-12.114100 0.008000
-12.099800 1.150000
-12.085600 4.254700
-12.071300 10.315300
-12.057100 18.983200
-12.042900 27.493400
-12.028600 33.346900
-12.014400 42.407300
-12.000200 30.491800
-11.985900 27.481900
-11.971700 41.988900
-11.957500 32.986100
-11.943200 11.589400
-11.929000 0.000000
-11.914700 0.000000
-11.900500 18.841600
-11.886300 49.869800
-11.872000 77.970500
-11.857800 30.140200
-11.843600 25.940500
-11.829300 21.723000
-11.815100 17.487400
-11.800900 13.563600
-11.786600 9.871900
-11.772400 5.267700
-11.758100 0.637900
-11.743900 0.000000
-11.729700 0.000000
-11.715400 0.000000
-11.701200 0.545700
-11.687000 4.775000
-11.672700 16.655300
-11.658500 23.135000
-11.644300 34.443100
-11.630000 51.377700
-11.615800 159.348600
-11.601500 6.453800
-11.587300 44.013700
-11.573100 69.163300
-11.558800 43.370100
-11.544600 85.253300
-11.530400 40.733500
-11.516100 0.000000
-11.501900 0.000000
-11.487700 0.000000
-11.473400 0.000000
-11.459200 0.000000
-11.445000 0.000000
-11.430700 0.000000
-11.416500 0.000000
-11.402200 0.000000
-11.388000 0.000000
-11.373800 0.000000
-11.359500 0.000000
-11.345300 0.000000
-11.331100 0.000000
-11.316800 0.000000
-11.302600 0.000000
-11.288400 0.000000
-11.274100 0.000000
-11.259900 0.000000
-11.245600 0.000000
-11.231400 0.000000
-11.217200 0.000000
-11.202900 0.000000
-11.188700 0.000000
-11.174500 0.000000
-11.160200 0.000000
-11.146000 0.000000
-11.131800 0.000000
-11.117500 0.000000
-11.103300 0.000000
-11.089000 0.000000
-11.074800 0.000000
-11.060600 0.000000
-11.046300 0.000000
-11.032100 0.000000
-11.017900 0.000000
-11.003600 0.000000
-10.989400 0.000000
-10.975200 0.000000
-10.960900 0.000000
-10.946700 0.000000
-10.932400 0.000000
-10.918200 0.000000
-10.904000 0.000000
-10.889700 0.000000
-10.875500 0.000000
-10.861300 0.000000
-10.847000 0.000000
-10.832800 0.000000
-10.818600 0.000000
-10.804300 0.000000
-10.790100 0.000000
-10.775900 0.000000
-10.761600 0.000000
-10.747400 0.000000
-10.733100 0.000000
-10.718900 0.000000
-10.704700 0.000000
-10.690400 0.000000
-10.676200 0.000000
-10.662000 0.000000
-10.647700 0.000000
-10.633500 0.000000
-10.619300 0.000000
-10.605000 0.000000
-10.590800 0.000000
-10.576500 0.000000
-10.562300 0.000000
-10.548100 0.000000
-10.533800 0.000000
-10.519600 0.000000
-10.505400 0.000000
-10.491100 0.000000
-10.476900 0.000000
-10.462700 0.000000
-10.448400 0.000000
-10.434200 0.000000
-10.419900 0.000000
-10.405700 0.000000
-10.391500 0.000000
-10.377200 0.000000
-10.363000 0.000000
-10.348800 0.000000
-10.334500 0.000000
-10.320300 0.000000
-10.306100 0.000000
-10.291800 0.000000
-10.277600 0.000000
-10.263300 0.000000
-10.249100 0.000000
-10.234900 0.000000
-10.220600 0.000000
-10.206400 0.000000
-10.192200 0.000000
-10.177900 0.000000
-10.163700 0.000000
-10.149500 0.000000
-10.135200 0.000000
-10.121000 0.000000
-10.106800 0.000000
-10.092500 0.000000
-10.078300 0.000000
-10.064000 0.000000
-10.049800 0.000000
-10.035600 0.000000
-10.021300 0.000000
-10.007100 0.000000
-9.992900 0.000000
-9.978600 0.000000
-9.964400 0.000000
-9.950200 0.000000
-9.935900 0.000000
-9.921700 0.000000
-9.907400 0.000000
-9.893200 0.000000
-9.879000 0.000000
-9.864700 0.000000
-9.850500 0.000000
-9.836300 0.000000
-9.822000 0.000000
-9.807800 0.000000
-9.793600 0.000000
-9.779300 0.000000
-9.765100 0.000000
-9.750800 0.000000
-9.736600 0.000000
-9.722400 0.000000
-9.708100 0.000000
-9.693900 0.000000
-9.679700 0.000000
-9.665400 0.000000
-9.651200 0.000000
-9.637000 0.000000
-9.622700 0.000000
-9.608500 0.000000
-9.594200 0.001200
-9.580000 0.755200
-9.565800 2.921500
-9.551500 8.492500
-9.537300 14.748600
-9.523100 23.257900
-9.508800 33.943500
-9.494600 28.041500
-9.480400 21.069700
-9.466100 13.963600
-9.451900 21.132300
-9.437700 23.126400
-9.423400 23.710000
-9.409200 11.063300
-9.394900 9.371000
-9.380700 8.191600
-9.366500 7.070800
-9.352200 6.008600
-9.338000 5.004900
-9.323800 4.059900
-9.309500 3.173500
-9.295300 2.345600
-9.281100 1.576400
-9.266800 0.865700
-9.252600 0.213600
-9.238300 0.000200
-9.224100 0.135600
-9.209900 0.721100
-9.195600 2.108400
-9.181400 7.672100
-9.167200 18.333600
-9.152900 17.170000
-9.138700 16.455800
-9.124500 16.191100
-9.110200 16.291100
-9.096000 11.564700
-9.081700 12.527600
-9.067500 18.044800
-9.053300 18.619000
-9.039000 17.046800
-9.024800 14.742000
-9.010600 12.400200
-8.996300 10.060500
-8.982100 8.311400
-8.967900 7.806700
-8.953600 7.344600
-8.939400 6.925300
-8.925100 6.548700
-8.910900 6.214800
-8.896700 5.625600
-8.882400 4.944700
-8.868200 4.288400
-8.854000 3.656600
-8.839700 3.049200
-8.825500 2.466300
-8.811300 1.908000
-8.797000 1.377600
-8.782800 0.915700
-8.768600 0.533600
-8.754300 0.231400
-8.740100 0.013200
-8.725800 0.028800
-8.711600 0.228900
-8.697400 0.619700
-8.683100 1.199400
-8.668900 1.892100
-8.654700 2.641500
-8.640400 3.443600
-8.626200 3.720800
-8.612000 3.834000
-8.597700 4.125600
-8.583500 4.587000
-8.569200 5.092200
-8.555000 5.599600
-8.540800 6.109300
-8.526500 6.582100
-8.512300 6.867700
-8.498100 7.029900
-8.483800 7.120300
-8.469600 7.142300
-8.455400 7.148100
-8.441100 7.155500
-8.426900 7.164400
-8.412600 7.175000
-8.398400 7.756800
-8.384200 8.419500
-8.369900 9.011700
-8.355700 9.533300
-8.341500 10.336100
-8.327200 11.289700
-8.313000 12.154500
-8.298800 12.930400
-8.284500 12.531500
-8.270300 9.064700
-8.256000 6.347500
-8.241800 4.943300
-8.227600 5.876800
-8.213300 7.764500
-8.199100 9.476300
-8.184900 9.167400
-8.170600 8.727100
-8.156400 8.215100
-8.142200 5.553800
-8.127900 3.083300
-8.113700 1.870600
-8.099500 0.731800
-8.085200 0.000000
-8.071000 0.000000
-8.056700 0.000000
-8.042500 0.000000
-8.028300 0.000000
-8.014000 0.000000
-7.999800 0.000000
-7.985600 0.000000
-7.971300 0.000000
-7.957100 0.000000
-7.942900 0.000000
-7.928600 0.486700
-7.914400 1.822300
-7.900100 3.435900
-7.885900 6.411100
-7.871700 8.676400
-7.857400 9.564900
-7.843200 10.474300
-7.829000 11.404800
-7.814700 11.307000
-7.800500 9.937600
-7.786300 8.209000
-7.772000 8.841200
-7.757800 9.804400
-7.743500 13.038700
-7.729300 16.229700
-7.715100 16.053800
-7.700800 15.592100
-7.686600 14.877300
-7.672400 13.593300
-7.658100 12.077300
-7.643900 10.770500
-7.629700 9.434500
-7.615400 8.057800
-7.601200 6.746200
-7.587000 6.240800
-7.572700 5.765600
-7.558500 5.327100
-7.544200 4.927300
-7.530000 4.513100
-7.515800 4.026500
-7.501500 3.467500
-7.487300 2.836200
-7.473100 2.132400
-7.458800 1.448300
-7.444600 1.101400
-7.430400 0.802000
-7.416100 0.550000
-7.401900 0.345300
-7.387600 0.188100
-7.373400 0.078200
-7.359200 0.015800
-7.344900 0.000000
-7.330700 0.000000
-7.316500 0.000000
-7.302200 0.000000
-7.288000 0.000000
-7.273800 0.000000
-7.259500 0.000000
-7.245300 0.000000
-7.231000 0.000000
-7.216800 0.000000
-7.202600 0.000000
-7.188300 0.000000
-7.174100 0.000000
-7.159900 0.000000
-7.145600 0.000000
-7.131400 0.000000
-7.117200 0.000000
-7.102900 0.000000
-7.088700 0.000000
-7.074400 0.000000
-7.060200 0.000000
-7.046000 0.000000
-7.031700 0.000000
-7.017500 0.000000
-7.003300 0.015600
-6.989000 0.163300
-6.974800 0.467800
-6.960600 0.931400
-6.946300 1.487500
-6.932100 2.059100
-6.917900 2.646300
-6.903600 3.248900
-6.889400 3.867100
-6.875100 4.500800
-6.860900 5.150000
-6.846700 5.814700
-6.832400 6.494900
-6.818200 7.458600
-6.804000 9.290200
-6.789700 10.628000
-6.775500 11.829100
-6.761300 12.296900
-6.747000 11.918700
-6.732800 11.518000
-6.718500 11.094800
-6.704300 10.649100
-6.690100 10.180900
-6.675800 9.690100
-6.661600 5.891800
-6.647400 6.078200
-6.633100 8.286100
-6.618900 8.236600
-6.604700 8.199200
-6.590400 8.173700
-6.576200 8.160300
-6.561900 8.158800
-6.547700 8.169300
-6.533500 8.191800
-6.519200 8.226300
-6.505000 8.272800
-6.490800 8.331300
-6.476500 8.401700
-6.462300 8.484200
-6.448100 5.076300
-6.433800 2.444100
-6.419600 0.851500
-6.405300 0.042200
-6.391100 0.000000
-6.376900 0.000000
-6.362600 0.000000
-6.348400 0.000000
-6.334200 0.000000
-6.319900 0.000000
-6.305700 0.000000
-6.291500 0.000000
-6.277200 0.645200
-6.263000 3.064800
-6.248800 7.240500
-6.234500 9.364900
-6.220300 9.284800
-6.206000 9.218500
-6.191800 9.166100
-6.177600 9.127700
-6.163300 9.103100
-6.149100 9.092400
-6.134900 9.095700
-6.120600 9.112800
-6.106400 9.143800
-6.092200 9.188700
-6.077900 9.069800
-6.063700 5.499200
-6.049400 10.529200
-6.035200 12.667900
-6.021000 13.502600
-6.006700 14.300400
-5.992500 15.061200
-5.978300 15.402100
-5.964000 13.673800
-5.949800 12.113200
-5.935600 10.054700
-5.921300 8.394200
-5.907100 7.235800
-5.892800 6.109200
-5.878600 5.014600
-5.864400 3.951900
-5.850100 2.921200
-5.835900 1.922400
-5.821700 1.032900
-5.807400 0.433400
-5.793200 0.102000
-5.779000 0.000000
-5.764700 0.000000
-5.750500 0.000000
-5.736200 0.000000
-5.722000 0.000000
-5.707800 0.000000
-5.693500 0.000000
-5.679300 0.000000
-5.665100 0.000000
-5.650800 0.000000
-5.636600 0.000000
-5.622400 0.000000
-5.608100 0.000000
-5.593900 0.000000
-5.579700 0.000000
-5.565400 0.000000
-5.551200 0.000000
-5.536900 0.000000
-5.522700 0.000000
-5.508500 0.000000
-5.494200 0.000000
-5.480000 0.000000
-5.465800 0.000000
-5.451500 0.000000
-5.437300 0.000000
-5.423100 0.000000
-5.408800 0.000000
-5.394600 0.000000
-5.380300 0.000000
-5.366100 0.000000
-5.351900 0.000000
-5.337600 0.000000
-5.323400 0.000000
-5.309200 0.000000
-5.294900 0.000000
-5.280700 0.000000
-5.266500 0.000000
-5.252200 0.000000
-5.238000 0.000000
-5.223700 0.000000
-5.209500 0.000000
-5.195300 0.000000
-5.181000 0.000000
-5.166800 0.000000
-5.152600 0.000000
-5.138300 0.000000
-5.124100 0.000000
-5.109900 0.000000
-5.095600 0.000000
-5.081400 0.000000
-5.067100 0.000000
-5.052900 0.000000
-5.038700 0.000000
-5.024400 0.000000
-5.010200 0.000000
-4.996000 0.000000
-4.981700 0.000000
-4.967500 0.000000
-4.953300 0.000000
-4.939000 0.000000
-4.924800 0.000000
-4.910600 0.000000
-4.896300 0.000000
-4.882100 0.000000
-4.867800 0.000000
-4.853600 0.000000
-4.839400 0.000000
-4.825100 0.000000
-4.810900 0.000000
-4.796700 0.000000
-4.782400 0.000000
-4.768200 0.000000
-4.754000 0.000000
-4.739700 0.000000
-4.725500 0.000000
-4.711200 0.000000
-4.697000 0.000000
-4.682800 0.000000
-4.668500 0.000000
-4.654300 0.000000
-4.640100 0.000000
-4.625800 0.000000
-4.611600 0.000000
-4.597400 0.000000
-4.583100 0.000000
-4.568900 0.000000
-4.554600 0.000000
-4.540400 0.000000
-4.526200 0.000000
-4.511900 0.000000
-4.497700 0.000000
-4.483500 0.000000
-4.469200 0.000000
-4.455000 0.000000
-4.440800 0.000000
-4.426500 0.000000
-4.412300 0.000000
-4.398000 0.000000
-4.383800 0.000000
-4.369600 0.000000
-4.355300 0.000000
-4.341100 0.000000
-4.326900 0.000000
-4.312600 0.000000
-4.298400 0.000000
-4.284200 0.000000
-4.269900 0.000000
-4.255700 0.000000
-4.241500 0.000000
-4.227200 0.000000
-4.213000 0.000000
-4.198700 0.000000
-4.184500 0.000000
-4.170300 0.000000
-4.156000 0.000000
-4.141800 0.000000
-4.127600 0.000000
-4.113300 0.000000
-4.099100 0.000000
-4.084900 0.000000
-4.070600 0.000000
-4.056400 0.000000
-4.042100 0.000000
-4.027900 0.000000
-4.013700 0.000000
-3.999400 0.000000
-3.985200 0.000000
-3.971000 0.000000
-3.956700 0.000000
-3.942500 0.000000
-3.928300 0.000000
-3.914000 0.000000
-3.899800 0.000000
-3.885500 0.000000
-3.871300 0.000000
-3.857100 0.000000
-3.842800 0.000000
-3.828600 0.000000
-3.814400 0.000000
-3.800100 0.000000
-3.785900 0.000000
-3.771700 0.000000
-3.757400 0.000000
-3.743200 0.000000
-3.729000 0.000000
-3.714700 0.000000
-3.700500 0.000000
-3.686200 0.000000
-3.672000 0.000000
-3.657800 0.000000
-3.643500 0.000000
-3.629300 0.000000
-3.615100 0.000000
-3.600800 0.000000
-3.586600 0.000000
-3.572400 0.000000
-3.558100 0.000000
-3.543900 0.000000
-3.529600 0.000000
-3.515400 0.000000
-3.501200 0.000000
-3.486900 0.000000
-3.472700 0.000000
-3.458500 0.000000
-3.444200 0.000000
-3.430000 0.000000
-3.415800 0.000000
-3.401500 0.000000
-3.387300 0.000000
-3.373000 0.000000
-3.358800 0.000000
-3.344600 0.000000
-3.330300 0.000000
-3.316100 0.000000
-3.301900 0.000000
-3.287600 0.000000
-3.273400 0.000000
-3.259200 0.000000
-3.244900 0.000000
-3.230700 0.000000
-3.216400 0.000000
-3.202200 0.000000
-3.188000 0.000000
-3.173700 0.000000
-3.159500 0.000000
-3.145300 0.000000
-3.131000 0.000000
-3.116800 0.000000
-3.102600 0.000000
-3.088300 0.000000
-3.074100 0.000000
-3.059900 0.000000
-3.045600 0.000000
-3.031400 0.000000
-3.017100 0.000000
-3.002900 0.000000
-2.988700 0.000000
-2.974400 0.000000
-2.960200 0.000000
-2.946000 0.000000
-2.931700 0.000000
-2.917500 0.000000
-2.903300 0.000000
-2.889000 0.000000
-2.874800 0.000000
-2.860500 0.000000
-2.846300 0.000000
-2.832100 0.000000
-2.817800 0.000000
-2.803600 0.000000
-2.789400 0.000000
-2.775100 0.000000
-2.760900 0.000000
-2.746700 0.000000
-2.732400 0.000000
-2.718200 0.000000
-2.703900 0.000000
-2.689700 0.000000
-2.675500 0.000000
-2.661200 0.000000
-2.647000 0.000000
-2.632800 0.000000
-2.618500 0.000000
-2.604300 0.000000
-2.590100 0.000000
-2.575800 0.000000
-2.561600 0.000000
-2.547300 0.000000
-2.533100 0.000000
-2.518900 0.000000
-2.504600 0.000000
-2.490400 0.000000
-2.476200 0.000000
-2.461900 0.000000
-2.447700 0.000000
-2.433500 0.000000
-2.419200 0.000000
-2.405000 0.000000
-2.390800 0.000000
-2.376500 0.000000
-2.362300 0.000000
-2.348000 0.000000
-2.333800 0.000000
-2.319600 0.000000
-2.305300 0.000000
-2.291100 0.000000
-2.276900 0.000000
-2.262600 0.000000
-2.248400 0.000000
-2.234200 0.000000
-2.219900 4.371800
-2.205700 9.992700
-2.191400 17.545900
-2.177200 18.356600
-2.163000 34.512600
-2.148700 47.697300
-2.134500 21.533100
-2.120300 102.349200
-2.106000 50.372200
-2.091800 38.905800
-2.077600 59.549100
-2.063300 52.830900
-2.049100 33.984500
-2.034800 31.777000
-2.020600 26.886500
-2.006400 22.725400
-1.992100 20.799100
-1.977900 12.751600
-1.963700 6.387600
-1.949400 0.000000
-1.935200 0.000000
-1.921000 0.000000
-1.906700 0.000000
-1.892500 0.000000
-1.878200 0.000000
-1.864000 0.000000
-1.849800 0.000000
-1.835500 0.000000
-1.821300 0.000000
-1.807100 0.000000
-1.792800 0.000000
-1.778600 0.000000
-1.764400 0.000000
-1.750100 0.000000
-1.735900 0.000000
-1.721700 0.000000
-1.707400 0.089500
-1.693200 0.541000
-1.678900 1.373200
-1.664700 2.724700
-1.650500 5.100900
-1.636200 8.254200
-1.622000 9.046500
-1.607800 9.798500
-1.593500 10.671700
-1.579300 11.666100
-1.565100 28.543800
-1.550800 19.841500
-1.536600 17.493200
-1.522300 15.895300
-1.508100 15.391800
-1.493900 16.219800
-1.479600 18.518500
-1.465400 19.407600
-1.451200 20.570800
-1.436900 20.031300
-1.422700 21.007200
-1.408500 21.484300
-1.394200 20.000300
-1.380000 15.652800
-1.365700 11.612100
-1.351500 12.722200
-1.337300 15.596000
-1.323000 13.233100
-1.308800 12.344200
-1.294600 12.393900
-1.280300 12.831700
-1.266100 13.874900
-1.251900 15.610500
-1.237600 16.459300
-1.223400 15.953400
-1.209100 18.541100
-1.194900 14.855600
-1.180700 11.628900
-1.166400 10.825800
-1.152200 11.230900
-1.138000 12.111800
-1.123700 12.618700
-1.109500 12.838100
-1.095300 12.219600
-1.081000 12.197400
-1.066800 12.788200
-1.052600 12.570200
-1.038300 12.673500
-1.024100 12.728400
-1.009800 12.616700
-0.995600 12.354900
-0.981400 12.065400
-0.967100 12.915700
-0.952900 13.852100
-0.938700 12.302900
-0.924400 13.593400
-0.910200 14.097300
-0.896000 13.851100
-0.881700 13.422400
-0.867500 12.974600
-0.853200 12.777400
-0.839000 11.901700
-0.824800 7.748400
-0.810500 9.457200
-0.796300 11.447900
-0.782100 13.650100
-0.767800 16.351900
-0.753600 21.034700
-0.739400 23.348600
-0.725100 22.839300
-0.710900 22.257500
-0.696600 15.964800
-0.682400 17.255000
-0.668200 17.630600
-0.653900 17.722500
-0.639700 15.351000
-0.625500 12.014600
-0.611200 15.064400
-0.597000 12.890400
-0.582800 9.836400
-0.568500 8.167100
-0.554300 7.234200
-0.540000 6.716800
-0.525800 6.577600
-0.511600 10.438500
-0.497300 14.868200
-0.483100 17.023400
-0.468900 19.735100
-0.454600 27.769200
-0.440400 27.952000
-0.426200 26.794700
-0.411900 23.633500
-0.397700 19.016000
-0.383500 13.383500
-0.369200 11.598600
-0.355000 12.185800
-0.340700 13.152300
-0.326500 13.999900
-0.312300 13.078000
-0.298000 9.996600
-0.283800 8.482500
-0.269600 8.010100
-0.255300 8.621800
-0.241100 9.915200
-0.226900 10.741000
-0.212600 11.359100
-0.198400 11.769700
-0.184100 11.696800
-0.169900 11.360500
-0.155700 10.988600
-0.141400 10.649100
-0.127200 10.362200
-0.113000 10.127800
-0.098700 9.946000
-0.084500 8.501600
-0.070300 9.212800
-0.056000 9.783900
-0.041800 10.136600
-0.027500 10.458700
-0.013300 10.707400
0.000900 10.767500
0.015200 11.184600
0.029400 11.680400
0.043600 12.030100
0.057900 11.455400
0.072100 12.159000
0.086300 12.642400
0.100600 12.673400
0.114800 12.660500
0.129100 12.203900
0.143300 11.976000
0.157500 12.229000
0.171800 12.701000
0.186000 13.073000
0.200200 13.852400
0.214500 15.347400
0.228700 17.055800
0.242900 20.097400
0.257200 33.549200
0.271400 37.109800
0.285600 27.861900
0.299900 9.756400
0.314100 4.835500
0.328400 2.346300
0.342600 5.663100
0.356800 14.757400
0.371100 41.676200
0.385300 58.756400
0.399500 38.796800
0.413800 25.727300
0.428000 24.704300
0.442200 23.991900
0.456500 27.453100
0.470700 25.778200
0.485000 24.585300
0.499200 23.351900
0.513400 25.209100
0.527700 25.880500
0.541900 24.529800
0.556100 34.149300
0.570400 41.704000
0.584600 36.815800
0.598800 34.863700
0.613100 46.630800
0.627300 46.032800
0.641600 50.907000
0.655800 34.210400
0.670000 35.757500
0.684300 40.358500
0.698500 39.129200
0.712700 33.394100
0.727000 33.100200
0.741200 33.644700
0.755400 32.020600
0.769700 41.529000
0.783900 44.666200
0.798100 46.491800
0.812400 47.713900
0.826600 42.725900
0.840900 33.730200
0.855100 26.824100
0.869300 26.520400
0.883600 42.099300
0.897800 41.261600
0.912000 41.950400
0.926300 41.124700
0.940500 39.421400
0.954700 40.518300
0.969000 43.651000
0.983200 41.218300
0.997500 30.487500
1.011700 28.138100
1.025900 26.528100
1.040200 29.676100
1.054400 38.321500
1.068600 46.966200
1.082900 40.821900
1.097100 31.044100
1.111300 29.724800
1.125600 24.170900
1.139800 21.246900
1.154100 30.971300
1.168300 39.880000
1.182500 32.811400
1.196800 29.217300
1.211000 31.263900
1.225200 33.154700
1.239500 28.755900
1.253700 12.103600
1.267900 7.833300
1.282200 6.374500
1.296400 12.036500
1.310700 24.130900
1.324900 37.864000
1.339100 21.282000
1.353400 15.576000
1.367600 17.109600
1.381800 18.764100
1.396100 20.097300
1.410300 21.303000
1.424500 22.162300
1.438800 21.500600
1.453000 23.242700
1.467200 18.327200
1.481500 13.188700
1.495700 4.193100
1.510000 0.016000
1.524200 0.085400
1.538400 0.209900
1.552700 0.389300
1.566900 0.623800
1.581100 0.913300
1.595400 1.257800
1.609600 1.657300
1.623800 2.111800
1.638100 2.621300
1.652300 3.185800
1.666600 4.829900
1.680800 25.580000
1.695000 39.501200
1.709300 28.286900
1.723500 12.260800
1.737700 10.183600
1.752000 10.826400
1.766200 11.680500
1.780400 13.812700
1.794700 15.689300
1.808900 15.527000
1.823200 15.079100
1.837400 19.683200
1.851600 19.881300
1.865900 17.604000
1.880100 2.778400
1.894300 0.049800
1.908600 0.000000
1.922800 0.000000
1.937000 3.360800
1.951300 5.791900
1.965500 8.720000
1.979800 11.928000
1.994000 14.446400
2.008200 16.557000
2.022500 18.072600
2.036700 18.171900
2.050900 16.389800
2.065200 14.790200
2.079400 15.723600
2.093600 18.827700
2.107900 28.305100
2.122100 36.662500
2.136300 34.656100
2.150600 14.082600
2.164800 1.513100
2.179100 2.508800
2.193300 12.363300
2.207500 15.212000
2.221800 14.177400
2.236000 12.662200
2.250200 11.999300
2.264500 12.951200
2.278700 13.859900
2.292900 14.697300
2.307200 15.369900
2.321400 19.932600
2.335700 22.175600
2.349900 20.387500
2.364100 17.241600
2.378400 16.196400
2.392600 14.666300
2.406800 12.857200
2.421100 11.582500
2.435300 10.663000
2.449500 9.451400
2.463800 10.162800
2.478000 13.075900
2.492300 48.025600
2.506500 40.200300
2.520700 41.176300
2.535000 22.558200
2.549200 20.304000
2.563400 19.852500
2.577700 20.074200
2.591900 15.890400
2.606100 11.319100
2.620400 6.823100
2.634600 3.687600
2.648900 2.110000
2.663100 0.938000
2.677300 0.094700
2.691600 0.000000
2.705800 0.000000
2.720000 0.000000
2.734300 0.000000
2.748500 0.000000
2.762700 0.000000
2.777000 0.000000
2.791200 0.000000
2.805400 0.000000
2.819700 0.000000
2.833900 0.000000
2.848200 0.000000
2.862400 0.000000
2.876600 0.000000
2.890900 0.000000
2.905100 0.000000
2.919300 0.000000
2.933600 0.000000
2.947800 0.000000
2.962000 0.000000
2.976300 0.000000
2.990500 0.000000
3.004800 0.000000
3.019000 0.000000
3.033200 0.000000
3.047500 0.000000
3.061700 0.000000
3.075900 0.000000
3.090200 0.000000
3.104400 0.000000
3.118600 0.000000
3.132900 0.000000
3.147100 0.000000
3.161400 0.000000
3.175600 0.000000
3.189800 0.000000
3.204100 0.000000
3.218300 0.000000
3.232500 0.000000
3.246800 0.000000
3.261000 0.000000
3.275200 0.000000
3.289500 0.000000
3.303700 0.000000
3.318000 0.000000
3.332200 0.000000
3.346400 0.000000
3.360700 0.000000
3.374900 0.000000
3.389100 0.000000
3.403400 0.000000
3.417600 0.000000
3.431800 0.000000
3.446100 0.000000
3.460300 0.000000
3.474500 0.000000
3.488800 0.000000
3.503000 0.000000
3.517300 0.000000
3.531500 0.000000
3.545700 0.000000
3.560000 0.000000
3.574200 0.000000
3.588400 0.000000
3.602700 0.000000
3.616900 0.000000
3.631100 0.000000
3.645400 0.000000
3.659600 0.000000
3.673900 0.000000
3.688100 0.000000
3.702300 0.000000
3.716600 0.000000
3.730800 0.000000
3.745000 0.000000
3.759300 0.000000
3.773500 0.000000
3.787700 0.000000
3.802000 0.000000
3.816200 0.000000
3.830500 0.000000
3.844700 0.000000
3.858900 0.000000
3.873200 0.000000
3.887400 0.000000
3.901600 0.000000
3.915900 0.000000
3.930100 0.000000
3.944300 0.000000
3.958600 0.000000
3.972800 0.000000
3.987100 0.000000
4.001300 0.000000
4.015500 0.000000
4.029800 0.000000
4.044000 0.000000
4.058200 0.559900
4.072500 2.703600
4.086700 7.986900
4.100900 17.693800
4.115200 27.462400
4.129400 31.047300
4.143600 27.685000
4.157900 24.191700
4.172100 21.195500
4.186400 21.708700
4.200600 23.534100
4.214800 29.765800
4.229100 26.945100
4.243300 17.518600
4.257500 10.752600
4.271800 9.516100
4.286000 17.640200
4.300200 57.103800
4.314500 50.606100
4.328700 27.193800
4.343000 32.160200
4.357200 30.764200
4.371400 24.336200
4.385700 19.214600
4.399900 15.662900
4.414100 10.665700
4.428400 23.419100
4.442600 24.367600
4.456800 19.962000
4.471100 17.246600
4.485300 14.674700
4.499600 13.023800
4.513800 12.717200
4.528000 12.152300
4.542300 11.109700
4.556500 10.536700
4.570700 14.832600
4.585000 13.800800
4.599200 12.675700
4.613400 11.980400
4.627700 11.269600
4.641900 10.366200
4.656200 9.469300
4.670400 8.704700
4.684600 9.720300
4.698900 11.131300
4.713100 11.002500
4.727300 10.450700
4.741600 9.851400
4.755800 9.260400
4.770000 8.641000
4.784300 8.026900
4.798500 7.437800
4.812700 6.873500
4.827000 6.851500
4.841200 13.343900
4.855500 13.005500
4.869700 21.274300
4.883900 20.904400
4.898200 20.105600
4.912400 18.751500
4.926600 16.561300
4.940900 14.486800
4.955100 13.932500
4.969300 13.400000
4.983600 12.628200
4.997800 11.628800
5.012100 11.191900
5.026300 11.897700
5.040500 13.149300
5.054800 14.948700
5.069000 17.406600
5.083200 22.402000
5.097500 22.635700
5.111700 23.165700
5.125900 23.987600
5.140200 27.216100
5.154400 23.517100
5.168700 13.706800
5.182900 11.987000
5.197100 10.428700
5.211400 9.851300
5.225600 9.473400
5.239800 9.416200
5.254100 9.920300
5.268300 15.327500
5.282500 15.117300
5.296800 15.455500
5.311000 15.739800
5.325200 18.493400
5.339500 20.865900
5.353700 21.461200
5.368000 21.819400
5.382200 21.932400
5.396400 20.710800
5.410700 19.125500
5.424900 15.159500
5.439100 13.044400
5.453400 11.725600
5.467600 10.360600
5.481800 7.077400
5.496100 3.744000
5.510300 1.725600
5.524600 0.521600
5.538800 0.031300
5.553000 0.000000
5.567300 0.000000
5.581500 0.000600
5.595700 4.004500
5.610000 4.962900
5.624200 5.363300
5.638400 5.864100
5.652700 6.465300
5.666900 7.166700
5.681200 7.923400
5.695400 8.702900
5.709600 9.698800
5.723900 10.660300
5.738100 11.279600
5.752300 11.583900
5.766600 11.790000
5.780800 12.094200
5.795000 12.849900
5.809300 14.104000
5.823500 15.648200
5.837800 16.325100
5.852000 16.633400
5.866200 12.849600
5.880500 12.862600
5.894700 12.814900
5.908900 12.706700
5.923200 12.538900
5.937400 12.337600
5.951600 12.114200
5.965900 14.782300
5.980100 14.353600
5.994300 13.903700
6.008600 13.469300
6.022800 13.053400
6.037100 12.656000
6.051300 12.277000
6.065500 10.936000
6.079800 7.910200
6.094000 6.913400
6.108200 6.535500
6.122500 6.538700
6.136700 6.542000
6.150900 7.606700
6.165200 8.951400
6.179400 13.943800
6.193700 19.526100
6.207900 13.233100
6.222100 10.596100
6.236400 8.107000
6.250600 5.765800
6.264800 3.655100
6.279100 9.573600
6.293300 14.978300
6.307500 15.942400
6.321800 8.796400
6.336000 4.331400
6.350300 0.910700
6.364500 0.000000
6.378700 0.000000
6.393000 0.000000
6.407200 0.000000
6.421400 0.000000
6.435700 0.000000
6.449900 0.000000
6.464100 0.000000
6.478400 0.000000
6.492600 0.000000
6.506900 0.000000
6.521100 0.000000
6.535300 0.000000
6.549600 0.000000
6.563800 0.000000
6.578000 0.000000
6.592300 0.000000
6.606500 0.000000
6.620700 0.000000
6.635000 0.000000
6.649200 0.000000
6.663400 0.000000
6.677700 0.000000
6.691900 0.000000
6.706200 0.000000
6.720400 0.000000
6.734600 0.000000
6.748900 0.000000
6.763100 0.000000
6.777300 0.000000
6.791600 0.000000
6.805800 0.000000
6.820000 0.000000
6.834300 0.000000
6.848500 0.000000
6.862800 0.000000
6.877000 0.000000
6.891200 0.000000
6.905500 0.000000
6.919700 0.000000
6.933900 0.000000
6.948200 0.000000
6.962400 0.000000
6.976600 0.000000
6.990900 0.000000
7.005100 0.000000
7.019400 0.000000
7.033600 0.000000
7.047800 0.000000
7.062100 0.000000
7.076300 0.000000
7.090500 0.000000
7.104800 0.000000
7.119000 0.000000
7.133200 0.000000
7.147500 0.000000
7.161700 0.000000
7.176000 0.000000
7.190200 0.000000
7.204400 0.000000
7.218700 0.000000
7.232900 0.000000
7.247100 0.000000
7.261400 0.000000
7.275600 0.000000
7.289800 0.000000
7.304100 0.000000
7.318300 0.000000
7.332500 0.000000
7.346800 0.000000
7.361000 0.000000
7.375300 0.000000
7.389500 0.000000
7.403700 0.000000
7.418000 0.000000
7.432200 0.000000
7.446400 0.000000
7.460700 0.000000
7.474900 0.000000
7.489100 0.000000
7.503400 0.000000
7.517600 0.000000
7.531900 0.000000
7.546100 0.000000
7.560300 0.000000
7.574600 0.000000
7.588800 0.000000
7.603000 0.000000
7.617300 0.000000
7.631500 0.000000
7.645700 0.000000
7.660000 0.000000
7.674200 0.000000
7.688500 0.000000
7.702700 0.000000
7.716900 0.000000
7.731200 0.000000
7.745400 0.000000
7.759600 0.000000
7.773900 0.000000
7.788100 0.000000
7.802300 0.001700
7.816600 0.008800
7.830800 0.021400
7.845100 0.039400
7.859300 0.062900
7.873500 0.091800
7.887800 0.126200
7.902000 0.166000
7.916200 0.211300
7.930500 0.262000
7.944700 0.318200
7.958900 0.379900
7.973200 0.447000
7.987400 0.519600
8.001600 0.597600
8.015900 0.681100
8.030100 0.770100
8.044400 0.885800
8.058600 1.045500
8.072800 1.207300
8.087100 1.371900
8.101300 1.544700
8.115500 1.727100
8.129800 1.918900
8.144000 2.120100
8.158200 2.330900
8.172500 2.551100
8.186700 2.780800
8.201000 3.019900
8.215200 3.268500
8.229400 3.526600
8.243700 3.794200
8.257900 4.067100
8.272100 4.326800
8.286400 4.570900
8.300600 4.799400
8.314800 5.037600
8.329100 5.550600
8.343300 5.895600
8.357600 6.224600
8.371800 6.564800
8.386000 6.308100
8.400300 6.075700
8.414500 5.960000
8.428700 5.961200
8.443000 6.078700
8.457200 6.302800
8.471400 6.948600
8.485700 8.323200
8.499900 9.614600
8.514200 10.822900
8.528400 11.948000
8.542600 11.918000
8.556900 12.099700
8.571100 18.125700
8.585300 22.723100
8.599600 23.887900
8.613800 21.590000
8.628000 0.483200
8.642300 1.056200
8.656500 2.141700
8.670700 3.774200
8.685000 5.953600
8.699200 8.668700
8.713500 11.467700
8.727700 17.536400
8.741900 21.351600
8.756200 20.188300
8.770400 19.805200
8.784600 19.226400
8.798900 18.614400
8.813100 18.024400
8.827300 17.315500
8.841600 16.714400
8.855800 17.127500
8.870100 17.260200
8.884300 17.377300
8.898500 17.090400
8.912800 13.740800
8.927000 10.225800
8.941200 10.436700
8.955500 11.161900
8.969700 12.453100
8.983900 13.741500
8.998200 15.027400
9.012400 16.157100
9.026700 16.506300
9.040900 16.126600
9.055100 15.675800
9.069400 12.482600
9.083600 10.922300
9.097800 12.811300
9.112100 19.456900
9.126300 21.223900
9.140500 17.465200
9.154800 14.948800
9.169000 13.309200
9.183300 11.943600
9.197500 10.330000
9.211700 9.061200
9.226000 8.137200
9.240200 7.613800
9.254400 8.287800
9.268700 11.119900
9.282900 20.061000
9.297100 37.065200
9.311400 33.220200
9.325600 31.870200
9.339800 28.379300
9.354100 21.449300
9.368300 15.859600
9.382600 11.307700
9.396800 7.627100
9.411000 8.040300
9.425300 10.379600
9.439500 18.868700
9.453700 26.369100
9.468000 25.773600
9.482200 23.209000
9.496400 21.148300
9.510700 19.775700
9.524900 19.856200
9.539200 20.207100
9.553400 20.270300
9.567600 20.229700
9.581900 20.228200
9.596100 21.096200
9.610300 12.953400
9.624600 9.863700
9.638800 9.084300
9.653000 9.629600
9.667300 11.542700
9.681500 13.872200
9.695800 16.206100
9.710000 18.582800
9.724200 21.613000
9.738500 23.696500
9.752700 25.056400
9.766900 26.854400
9.781200 27.831200
9.795400 26.601600
9.809600 28.602200
9.823900 16.557300
9.838100 11.271700
9.852300 10.609500
9.866600 11.764900
9.880800 13.103400
9.895100 14.673000
9.909300 16.104800
9.923500 17.167200
9.937800 18.702400
9.952000 19.742200
9.966200 19.211100
9.980500 18.016000
9.994700 16.157000
10.008900 32.259400
10.023200 31.640000
10.037400 12.146700
10.051700 9.712400
10.065900 7.054400
10.080100 5.179400
10.094400 6.910100
10.108600 9.832000
10.122800 10.986700
10.137100 11.617100
10.151300 12.727700
10.165500 13.298900
10.179800 13.751300
10.194000 14.079400
10.208300 14.283000
10.222500 15.148300
10.236700 17.690600
10.251000 15.598000
10.265200 15.365700
10.279400 15.341500
10.293700 13.942500
10.307900 12.034800
10.322100 11.762100
10.336400 15.385200
10.350600 25.380500
10.364900 31.557000
10.379100 24.070200
10.393300 24.305300
10.407600 23.253100
10.421800 21.280100
10.436000 19.674200
10.450300 18.391300
10.464500 17.548500
10.478700 17.630100
10.493000 18.444200
10.507200 19.223300
10.521400 19.575100
10.535700 20.068200
10.549900 20.417700
10.564200 20.449200
10.578400 20.421200
10.592600 23.223000
10.606900 10.894000
10.621100 11.783300
10.635300 13.984600
10.649600 14.342000
10.663800 14.669400
10.678000 15.471300
10.692300 15.965300
10.706500 16.168000
10.720800 16.460100
10.735000 17.317400
10.749200 18.626600
10.763500 18.905900
10.777700 18.113700
10.791900 16.561300
10.806200 8.812100
10.820400 9.009900
10.834600 9.965200
10.848900 11.671100
10.863100 13.739700
10.877400 17.119100
10.891600 19.626000
10.905800 17.975200
10.920100 12.252500
10.934300 11.470400
10.948500 11.054600
10.962800 11.053000
10.977000 11.693400
10.991200 12.769200
11.005500 15.560000
11.019700 26.225600
11.034000 24.654500
11.048200 25.533000
11.062400 22.953200
11.076700 15.755600
11.090900 7.503900
11.105100 9.483300
11.119400 14.317000
11.133600 20.626500
11.147800 29.516800
11.162100 33.622400
11.176300 26.085600
11.190500 19.000700
11.204800 20.808500
11.219000 22.194500
11.233300 23.464200
11.247500 22.809300
11.261700 21.047600
11.276000 17.801300
11.290200 18.560900
11.304400 19.465900
11.318700 19.997900
11.332900 19.499300
11.347100 16.074800
11.361400 13.308400
11.375600 12.636000
11.389900 12.477000
11.404100 12.451200
11.418300 12.445100
11.432600 13.040900
11.446800 12.984600
11.461000 13.091200
11.475300 13.447100
11.489500 13.022200
11.503700 12.730400
11.518000 14.379800
11.532200 15.656100
11.546500 20.127100
11.560700 22.157900
11.574900 23.558700
11.589200 23.848800
11.603400 24.868100
11.617600 26.155500
11.631900 39.506300
11.646100 33.851200
11.660300 27.463800
11.674600 15.933700
11.688800 8.854200
11.703100 7.673700
11.717300 8.707000
11.731500 12.745300
11.745800 17.366300
11.760000 21.810400
11.774200 30.593600
11.788500 23.135200
11.802700 24.078100
11.816900 25.662700
11.831200 33.965200
11.845400 26.946100
11.859600 20.870500
11.873900 13.548400
11.888100 13.174900
11.902400 14.342600
11.916600 16.379800
11.930800 18.755800
11.945100 21.367800
11.959300 23.493700
11.973500 22.286100
11.987800 21.827600
12.002000 21.512900
12.016200 17.723600
12.030500 18.443400
12.044700 18.115600
12.059000 17.156400
12.073200 16.369600
12.087400 16.919800
12.101700 14.309100
12.115900 13.239100
12.130100 15.089300
12.144400 17.066400
12.158600 19.155300
12.172800 21.395600
12.187100 22.505300
12.201300 14.634000
12.215600 13.791400
12.229800 13.438500
12.244000 13.789300
12.258300 14.931900
12.272500 17.799200
12.286700 21.182200
12.301000 20.879100
12.315200 18.741200
12.329400 26.787800
12.343700 31.559400
12.357900 31.390100
12.372200 29.887800
12.386400 23.868400
12.400600 23.457400
12.414900 21.915000
12.429100 20.405700
12.443300 19.967800
12.457600 19.776500
12.471800 16.920400
12.486000 14.137700
12.500300 13.369100
12.514500 15.316700
12.528700 14.641000
12.543000 14.748700
12.557200 18.393200
12.571500 18.712800
12.585700 22.684000
12.599900 27.129700
12.614200 30.190100
12.628400 27.965400
12.642600 25.653400
12.656900 22.981500
12.671100 20.750200
12.685300 22.101000
12.699600 17.145400
12.713800 14.660300
12.728100 16.752600
12.742300 20.149600
12.756500 23.171200
12.770800 23.681600
12.785000 28.452700
12.799200 27.823100
12.813500 50.949700
12.827700 34.057400
12.841900 18.952800
12.856200 16.146100
12.870400 17.390600
12.884700 26.953100
12.898900 29.029900
12.913100 27.312800
12.927400 19.274100
12.941600 17.253000
12.955800 16.296700
12.970100 15.258600
12.984300 14.472000
12.998500 14.177200
13.012800 14.028100
13.027000 14.004300
13.041300 20.237200
13.055500 23.870400
13.069700 23.036200
13.084000 22.444700
13.098200 21.241100
13.112400 20.837900
13.126700 18.958700
13.140900 17.065100
13.155100 15.738400
13.169400 15.037000
13.183600 14.611400
13.197800 14.314200
13.212100 14.102200
13.226300 13.892700
13.240600 13.679100
13.254800 13.941900
13.269000 14.708900
13.283300 15.989900
13.297500 18.772300
13.311700 21.659700
13.326000 23.785800
13.340200 27.324300
13.354400 30.224400
13.368700 31.577100
13.382900 32.107400
13.397200 29.632000
13.411400 23.584100
13.425600 17.198600
13.439900 14.398100
13.454100 11.540700
13.468300 35.731500
13.482600 29.262700
13.496800 23.114200
13.511000 19.453300
13.525300 19.697600
13.539500 21.125200
13.553800 21.235400
13.568000 21.098600
13.582200 20.834100
13.596500 20.294100
13.610700 19.478400
13.624900 12.112800
13.639200 9.606000
13.653400 8.742200
13.667600 7.716200
13.681900 6.391100
13.696100 4.675800
13.710300 2.996600
13.724600 1.622300
13.738800 0.672000
13.753100 0.182900
13.767300 0.001300
13.781500 0.000000
13.795800 0.000000
13.810000 0.000000
13.824200 0.000000
13.838500 0.000000
13.852700 0.000000
13.866900 0.000000
13.881200 0.000000
13.895400 0.000000
13.909700 0.000000
13.923900 0.000000
13.938100 0.000000
13.952400 0.000000
13.966600 0.000000
13.980800 0.000000
13.995100 0.000000
14.009300 0.000000
14.023500 0.000000
14.037800 0.000000
14.052000 0.000000
14.066300 0.000000
14.080500 0.000000
14.094700 0.000000
14.109000 0.000000
14.123200 0.000000
14.137400 0.000000
14.151700 0.000000
14.165900 0.000000
14.180100 0.000000
14.194400 0.000000
14.208600 0.000000
14.222900 0.000000
14.237100 0.000000
14.251300 0.000000
14.265600 0.000000
14.279800 0.000000
14.294000 0.000000
14.308300 0.000000
14.322500 0.000000
14.336700 0.000000
14.351000 0.000000
14.365200 0.000000
14.379400 0.000000
14.393700 0.000000
14.407900 0.000000
14.422200 0.000000
14.436400 0.000000
14.450600 0.000000
14.464900 0.000000
14.479100 0.000000
14.493300 0.000000
14.507600 0.000000
14.521800 0.000000
14.536000 0.000000
14.550300 0.000000
14.564500 0.000000
14.578800 0.000000
14.593000 0.000000
14.607200 0.000000
14.621500 0.000000
14.635700 0.000000
14.649900 0.000000
14.664200 0.000000
14.678400 0.000000
14.692600 0.000000
14.706900 0.000000
14.721100 0.000000
14.735400 0.000000
14.749600 0.000000
14.763800 0.000000
14.778100 0.000000
14.792300 0.000000
14.806500 0.000000
14.820800 0.000000
14.835000 0.000000
14.849200 0.000000
14.863500 0.000000
14.877700 0.000000
14.892000 0.000000
14.906200 0.000000
14.920400 0.000000
14.934700 0.000000
14.948900 0.000000
14.963100 0.000000
14.977400 0.000000
14.991600 0.000000
15.005800 0.000000
15.020100 0.000000
15.034300 0.000000
15.048500 0.000000
15.062800 0.000000
e
