set title 'mp-21042 - Density of States'
set xlabel 'Energy (eV)'
set ylabel 'DOS (states/eV)'
set grid
set xrange [-10:10]
set yrange [0:20.469]
set xzeroaxis lt -1
set terminal png size 800,600
set output 'mp-21042_dos_gnuplot.png'
plot '-' using 1:2 with lines title 'DOS'
-11.385000 0.000000
-11.367600 0.000000
-11.350200 0.000000
-11.332800 0.000000
-11.315400 0.000000
-11.298000 0.000000
-11.280600 0.000000
-11.263200 0.000000
-11.245800 0.000000
-11.228400 0.000000
-11.211000 0.000000
-11.193600 0.000000
-11.176200 0.000000
-11.158800 0.000000
-11.141400 0.000000
-11.124000 0.000000
-11.106600 0.000000
-11.089200 0.000000
-11.071800 0.000000
-11.054400 0.000000
-11.037000 0.000000
-11.019600 0.000000
-11.002200 0.000000
-10.984800 0.000000
-10.967400 0.000000
-10.950000 0.000000
-10.932600 0.000000
-10.915200 0.000000
-10.897800 0.000000
-10.880400 0.000000
-10.863000 0.000000
-10.845600 0.000000
-10.828200 0.000000
-10.810800 0.000000
-10.793400 0.000000
-10.776000 0.000000
-10.758600 0.000000
-10.741200 0.000000
-10.723800 0.000000
-10.706400 0.000000
-10.689000 0.000000
-10.671600 0.000000
-10.654200 0.000000
-10.636800 0.000000
-10.619400 0.000000
-10.602000 0.000000
-10.584600 0.000000
-10.567200 0.000000
-10.549800 0.000000
-10.532400 0.000000
-10.515000 0.000000
-10.497600 0.000000
-10.480200 0.000000
-10.462800 0.000000
-10.445400 0.000000
-10.428000 0.000000
-10.410600 0.000000
-10.393200 0.000000
-10.375800 0.000000
-10.358400 0.000000
-10.341000 0.000000
-10.323600 0.000000
-10.306200 0.000000
-10.288800 0.000000
-10.271400 0.000000
-10.254000 0.000000
-10.236600 0.000000
-10.219200 0.000000
-10.201800 0.000000
-10.184400 0.000000
-10.167000 0.000000
-10.149600 0.000000
-10.132200 0.000000
-10.114800 0.000000
-10.097400 0.000000
-10.080000 0.000000
-10.062600 0.000000
-10.045200 0.000000
-10.027800 0.000000
-10.010400 0.000000
-9.993000 0.000000
-9.975600 0.000000
-9.958200 0.000000
-9.940800 0.000000
-9.923400 0.000000
-9.906000 0.000000
-9.888600 0.000000
-9.871200 0.000000
-9.853800 0.000000
-9.836400 0.000000
-9.819000 0.000000
-9.801600 0.001400
-9.784200 0.200100
-9.766800 0.582600
-9.749400 0.872100
-9.732000 1.179400
-9.714600 1.360600
-9.697200 1.560300
-9.679800 1.734000
-9.662400 1.929100
-9.645000 2.222600
-9.627600 2.638700
-9.610200 2.893300
-9.592800 3.208100
-9.575400 3.311700
-9.558000 3.200400
-9.540600 3.143900
-9.523200 3.076900
-9.505800 3.025600
-9.488400 2.943400
-9.471000 2.887900
-9.453600 2.859300
-9.436200 2.815200
-9.418800 2.755200
-9.401400 2.708800
-9.384000 2.589100
-9.366600 2.737400
-9.349200 2.186800
-9.331800 2.135700
-9.314400 2.099400
-9.297000 2.072600
-9.279600 2.049200
-9.262200 2.090200
-9.244800 2.360100
-9.227400 3.043500
-9.210000 3.708800
-9.192600 3.928300
-9.175200 4.148100
-9.157800 4.203800
-9.140400 4.312000
-9.123000 4.470700
-9.105600 4.662000
-9.088200 4.911500
-9.070800 5.259100
-9.053400 5.689900
-9.036000 6.175200
-9.018600 6.799500
-9.001200 7.031500
-8.983800 3.744200
-8.966400 2.960400
-8.949000 3.124800
-8.931600 3.319400
-8.914200 3.574900
-8.896800 3.930000
-8.879400 4.592900
-8.862000 4.491800
-8.844600 4.065100
-8.827200 3.633900
-8.809800 3.334800
-8.792400 3.200100
-8.775000 3.125900
-8.757600 3.043900
-8.740200 2.986500
-8.722800 2.950000
-8.705400 2.911300
-8.688000 2.915200
-8.670600 3.024700
-8.653200 3.190100
-8.635800 3.936700
-8.618400 3.484700
-8.601000 3.535500
-8.583600 3.319600
-8.566200 2.278000
-8.548800 1.351500
-8.531400 0.681900
-8.514000 0.121200
-8.496600 0.000000
-8.479200 0.000000
-8.461800 0.000000
-8.444400 0.000000
-8.427000 0.000000
-8.409600 0.000000
-8.392200 0.000000
-8.374800 0.000000
-8.357400 0.000000
-8.340000 0.180100
-8.322600 0.490000
-8.305200 0.709300
-8.287800 0.926100
-8.270400 1.167500
-8.253100 1.515600
-8.235700 2.035400
-8.218300 2.239900
-8.200900 2.232200
-8.183500 2.219200
-8.166100 1.830000
-8.148700 1.690200
-8.131300 1.630000
-8.113900 1.569600
-8.096500 1.509100
-8.079100 1.448400
-8.061700 1.393700
-8.044300 1.355300
-8.026900 1.334600
-8.009500 1.316500
-7.992100 1.298400
-7.974700 1.280200
-7.957300 1.262100
-7.939900 1.244100
-7.922500 1.228700
-7.905100 1.216000
-7.887700 1.204100
-7.870300 1.192200
-7.852900 1.178600
-7.835500 1.160000
-7.818100 1.159400
-7.800700 1.163500
-7.783300 1.190900
-7.765900 1.241300
-7.748500 1.291900
-7.731100 1.338600
-7.713700 1.370800
-7.696300 1.385900
-7.678900 1.400900
-7.661500 1.415900
-7.644100 1.430800
-7.626700 1.445800
-7.609300 1.460700
-7.591900 1.475700
-7.574500 1.490100
-7.557100 1.504600
-7.539700 2.179700
-7.522300 2.104400
-7.504900 2.206300
-7.487500 2.346100
-7.470100 2.332200
-7.452700 2.320500
-7.435300 2.303800
-7.417900 2.280400
-7.400500 2.275100
-7.383100 2.295200
-7.365700 2.342100
-7.348300 2.324800
-7.330900 2.393500
-7.313500 2.583300
-7.296100 2.615300
-7.278700 2.388000
-7.261300 1.856900
-7.243900 1.686500
-7.226500 1.530300
-7.209100 1.761600
-7.191700 2.660600
-7.174300 3.649200
-7.156900 4.136400
-7.139500 3.874400
-7.122100 4.445400
-7.104700 5.012200
-7.087300 5.739500
-7.069900 5.887800
-7.052500 6.372900
-7.035100 6.072900
-7.017700 5.507500
-7.000300 7.402700
-6.982900 5.432600
-6.965500 5.158300
-6.948100 4.926000
-6.930700 4.704800
-6.913300 4.686500
-6.895900 4.760300
-6.878500 4.816700
-6.861100 5.038700
-6.843700 5.614100
-6.826300 9.674000
-6.808900 5.444600
-6.791500 3.883300
-6.774100 0.000000
-6.756700 0.000000
-6.739300 0.000000
-6.721900 0.000000
-6.704500 0.000000
-6.687100 0.000000
-6.669700 0.000000
-6.652300 0.000000
-6.634900 0.000000
-6.617500 0.000000
-6.600100 0.000000
-6.582700 0.000000
-6.565300 0.000000
-6.547900 0.000000
-6.530500 0.000000
-6.513100 0.000000
-6.495700 0.000000
-6.478300 0.000000
-6.460900 0.000000
-6.443500 0.000000
-6.426100 0.000000
-6.408700 0.000000
-6.391300 0.000000
-6.373900 0.000000
-6.356500 0.000000
-6.339100 0.000000
-6.321700 0.000000
-6.304300 0.000000
-6.286900 0.000000
-6.269500 0.000000
-6.252100 0.000000
-6.234700 0.000000
-6.217300 0.000000
-6.199900 0.000000
-6.182500 0.000000
-6.165100 0.000000
-6.147700 0.000000
-6.130300 0.000000
-6.112900 0.000000
-6.095500 0.000000
-6.078100 0.000000
-6.060700 0.000000
-6.043300 0.000000
-6.025900 0.000000
-6.008500 0.000000
-5.991100 0.000000
-5.973700 0.000000
-5.956300 0.000000
-5.938900 0.000000
-5.921500 0.000000
-5.904100 0.000000
-5.886700 0.000000
-5.869300 0.000000
-5.851900 0.000000
-5.834500 0.000000
-5.817100 0.000000
-5.799700 0.000000
-5.782300 0.000000
-5.764900 0.000000
-5.747500 0.000000
-5.730100 0.000000
-5.712700 0.000000
-5.695300 0.000000
-5.677900 0.000000
-5.660500 0.000000
-5.643100 0.000000
-5.625700 0.000000
-5.608300 0.000000
-5.590900 0.000000
-5.573500 0.000000
-5.556100 0.000000
-5.538700 0.000000
-5.521300 0.000000
-5.503900 0.000000
-5.486500 0.000000
-5.469100 0.000000
-5.451700 0.000000
-5.434300 0.000000
-5.416900 0.000000
-5.399500 0.000000
-5.382100 0.000000
-5.364700 0.000000
-5.347300 0.000000
-5.329900 0.000000
-5.312500 0.000000
-5.295100 0.000000
-5.277700 0.000000
-5.260300 0.000000
-5.242900 0.000000
-5.225500 0.000000
-5.208100 0.000000
-5.190700 0.000000
-5.173300 0.000000
-5.155900 0.000000
-5.138500 0.000000
-5.121100 0.000000
-5.103700 0.000000
-5.086300 0.000000
-5.068900 0.000000
-5.051500 0.000000
-5.034100 0.000000
-5.016700 0.000000
-4.999300 0.000000
-4.981900 0.000000
-4.964500 0.000000
-4.947100 0.000000
-4.929700 0.000000
-4.912300 0.000000
-4.894900 0.000000
-4.877500 0.000000
-4.860100 0.000000
-4.842700 0.000000
-4.825300 0.000000
-4.807900 0.000000
-4.790500 0.000000
-4.773100 0.000000
-4.755700 0.000000
-4.738300 0.000000
-4.720900 0.000000
-4.703500 0.000000
-4.686100 0.000000
-4.668700 0.000000
-4.651300 0.000000
-4.633900 0.000000
-4.616500 0.000000
-4.599100 0.000000
-4.581700 0.000000
-4.564300 0.000000
-4.546900 0.000000
-4.529500 0.000000
-4.512100 0.000000
-4.494700 0.000000
-4.477300 0.000000
-4.459900 0.000000
-4.442500 0.000000
-4.425100 0.000000
-4.407700 0.000000
-4.390300 0.000000
-4.372900 0.000000
-4.355500 0.000000
-4.338100 0.000000
-4.320700 0.000000
-4.303300 0.000000
-4.285900 0.000000
-4.268500 0.000000
-4.251100 0.000000
-4.233700 0.000000
-4.216300 0.000000
-4.198900 0.000000
-4.181500 0.000000
-4.164100 0.000000
-4.146700 0.000000
-4.129300 0.000000
-4.111900 0.000000
-4.094500 0.000000
-4.077100 0.000000
-4.059700 0.000000
-4.042300 0.000000
-4.024900 0.000000
-4.007500 0.000000
-3.990100 0.000000
-3.972700 0.000000
-3.955300 0.000000
-3.937900 0.000000
-3.920500 0.000000
-3.903100 0.000000
-3.885700 0.000000
-3.868300 0.000000
-3.850900 0.000000
-3.833500 0.000000
-3.816100 0.000000
-3.798700 0.000000
-3.781300 0.000000
-3.763900 0.000000
-3.746500 0.000000
-3.729100 0.000000
-3.711700 0.000000
-3.694300 0.000000
-3.676900 0.000000
-3.659500 0.000000
-3.642100 0.000000
-3.624700 0.000000
-3.607300 0.000000
-3.589900 0.000000
-3.572500 0.000000
-3.555100 0.000000
-3.537700 0.000000
-3.520300 0.000000
-3.502900 0.000000
-3.485500 0.000000
-3.468100 0.000000
-3.450700 0.000000
-3.433300 0.000000
-3.415900 0.000000
-3.398500 0.000000
-3.381100 0.000000
-3.363700 0.000000
-3.346300 0.000000
-3.328900 0.000000
-3.311500 0.000000
-3.294100 0.000000
-3.276700 0.000000
-3.259300 0.000000
-3.241900 0.001200
-3.224500 0.081200
-3.207100 0.268200
-3.189700 0.482900
-3.172300 0.703000
-3.154900 0.945300
-3.137500 1.218100
-3.120100 1.441000
-3.102700 1.608100
-3.085300 1.768500
-3.067900 1.875400
-3.050500 1.962100
-3.033100 2.047800
-3.015700 2.134100
-2.998300 2.319400
-2.980900 2.393400
-2.963500 2.363400
-2.946100 2.279400
-2.928700 2.202000
-2.911300 2.137400
-2.893900 2.079000
-2.876500 2.025200
-2.859100 1.973000
-2.841700 1.917700
-2.824300 1.861100
-2.806900 1.804500
-2.789500 1.880100
-2.772100 1.958500
-2.754700 2.017200
-2.737300 2.109100
-2.719900 2.219200
-2.702500 2.332600
-2.685100 2.436500
-2.667700 2.522700
-2.650300 2.568100
-2.632900 2.664200
-2.615500 2.787800
-2.598100 2.928000
-2.580700 3.111200
-2.563300 3.325000
-2.545900 3.404300
-2.528500 3.650400
-2.511100 3.856900
-2.493700 4.218600
-2.476300 4.523200
-2.458900 4.586100
-2.441500 4.494300
-2.424100 4.520700
-2.406700 4.631500
-2.389300 4.677900
-2.371900 4.457400
-2.354500 4.227000
-2.337100 4.019100
-2.319800 3.792500
-2.302400 3.553700
-2.285000 3.307300
-2.267600 3.032900
-2.250200 2.776300
-2.232800 2.562200
-2.215400 2.466000
-2.198000 2.389500
-2.180600 2.402600
-2.163200 2.499300
-2.145800 2.697300
-2.128400 2.914300
-2.111000 3.119600
-2.093600 3.245400
-2.076200 3.293700
-2.058800 3.334400
-2.041400 3.390100
-2.024000 3.462400
-2.006600 3.548600
-1.989200 3.659900
-1.971800 3.792700
-1.954400 3.968900
-1.937000 4.193400
-1.919600 4.491800
-1.902200 4.918600
-1.884800 5.562600
-1.867400 6.177100
-1.850000 6.919900
-1.832600 5.708300
-1.815200 5.586500
-1.797800 5.374900
-1.780400 5.234000
-1.763000 5.090900
-1.745600 5.348000
-1.728200 5.675600
-1.710800 7.126700
-1.693400 7.434500
-1.676000 6.697700
-1.658600 5.852200
-1.641200 4.901500
-1.623800 4.406500
-1.606400 3.934700
-1.589000 3.988200
-1.571600 3.882100
-1.554200 3.986100
-1.536800 4.062000
-1.519400 4.125100
-1.502000 4.190800
-1.484600 4.354000
-1.467200 4.526000
-1.449800 4.587900
-1.432400 4.510300
-1.415000 4.565200
-1.397600 4.302800
-1.380200 3.976100
-1.362800 4.078400
-1.345400 4.246000
-1.328000 4.221400
-1.310600 4.142200
-1.293200 4.188600
-1.275800 4.067700
-1.258400 4.132500
-1.241000 4.600800
-1.223600 4.631100
-1.206200 4.693700
-1.188800 4.967900
-1.171400 5.606900
-1.154000 6.952300
-1.136600 6.783100
-1.119200 6.484800
-1.101800 6.562400
-1.084400 6.636200
-1.067000 9.057600
-1.049600 6.131000
-1.032200 5.846500
-1.014800 6.065900
-0.997400 6.287600
-0.980000 6.628800
-0.962600 6.490100
-0.945200 6.841200
-0.927800 7.543500
-0.910400 9.396700
-0.893000 8.933700
-0.875600 8.219200
-0.858200 7.963400
-0.840800 7.793400
-0.823400 8.041100
-0.806000 8.936200
-0.788600 8.450000
-0.771200 7.712800
-0.753800 7.001900
-0.736400 6.852000
-0.719000 6.891000
-0.701600 6.954600
-0.684200 7.520200
-0.666800 7.878300
-0.649400 8.098600
-0.632000 7.787400
-0.614600 6.387500
-0.597200 6.545400
-0.579800 7.407100
-0.562400 10.442100
-0.545000 10.784700
-0.527600 10.098300
-0.510200 9.474300
-0.492800 9.840000
-0.475400 10.149900
-0.458000 10.444800
-0.440600 11.522900
-0.423200 10.643900
-0.405800 10.488700
-0.388400 9.910600
-0.371000 8.559600
-0.353600 7.521600
-0.336200 7.345000
-0.318800 6.908500
-0.301400 6.211600
-0.284000 6.533000
-0.266600 5.799100
-0.249200 5.114300
-0.231800 4.942000
-0.214400 5.103800
-0.197000 5.116700
-0.179600 5.400300
-0.162200 6.144700
-0.144800 7.157400
-0.127400 8.149900
-0.110000 8.787600
-0.092600 8.843800
-0.075200 7.894000
-0.057800 8.116800
-0.040400 9.255900
-0.023000 8.378000
-0.005600 8.044100
0.011800 7.928700
0.029200 8.523800
0.046600 8.277200
0.064000 7.747500
0.081400 7.551100
0.098800 7.049300
0.116200 6.494300
0.133600 5.299300
0.151000 5.045800
0.168400 5.417900
0.185800 5.605700
0.203200 6.494800
0.220600 7.047800
0.238000 8.906800
0.255400 10.308000
0.272800 12.873300
0.290200 14.276400
0.307600 12.693200
0.325000 11.053600
0.342400 9.314700
0.359800 7.456900
0.377200 5.832600
0.394600 5.907300
0.412000 5.993600
0.429400 5.903900
0.446800 6.243900
0.464200 7.281800
0.481600 9.476800
0.499000 10.780700
0.516400 10.261400
0.533800 9.885300
0.551200 10.234200
0.568600 9.967700
0.586000 9.800100
0.603400 11.223800
0.620800 14.892400
0.638200 15.402800
0.655600 13.399700
0.673000 11.562500
0.690400 9.969000
0.707800 8.017500
0.725200 7.640100
0.742600 7.629600
0.760000 7.947700
0.777400 8.552600
0.794800 9.281200
0.812200 10.349300
0.829600 10.207200
0.847000 9.202900
0.864400 9.420900
0.881800 8.944000
0.899200 8.668800
0.916600 8.648400
0.934000 7.779300
0.951400 7.289100
0.968800 7.044800
0.986200 8.114700
1.003600 9.202900
1.021000 15.596900
1.038400 18.608300
1.055800 15.355500
1.073200 16.357500
1.090600 16.121300
1.108000 14.112800
1.125400 11.609000
1.142800 11.028800
1.160200 10.466700
1.177600 9.594900
1.195000 9.062700
1.212400 9.084700
1.229800 8.749700
1.247200 9.094700
1.264600 10.929300
1.282000 11.721900
1.299400 12.208400
1.316800 10.762000
1.334200 9.913100
1.351600 9.296700
1.369000 9.522700
1.386400 10.508000
1.403800 9.531200
1.421200 8.593900
1.438600 8.308900
1.456000 8.726900
1.473400 8.971600
1.490800 7.905200
1.508200 6.884500
1.525600 6.588800
1.543000 6.594500
1.560400 6.992000
1.577800 8.022300
1.595200 11.299800
1.612600 10.684300
1.630000 11.798000
1.647400 12.350600
1.664800 11.767900
1.682200 9.828100
1.699600 9.051400
1.717000 10.580500
1.734400 10.255200
1.751800 10.654400
1.769200 10.837000
1.786600 10.020900
1.804000 9.549100
1.821400 9.787400
1.838800 10.677400
1.856200 10.455600
1.873600 10.170700
1.891000 11.191600
1.908400 10.713800
1.925800 10.351300
1.943200 10.213400
1.960600 9.539400
1.978000 10.473000
1.995400 10.273000
2.012800 10.963200
2.030200 11.567500
2.047600 8.605100
2.065000 9.251500
2.082400 9.321800
2.099800 8.843100
2.117200 8.436700
2.134600 8.726000
2.152000 8.877200
2.169400 9.613400
2.186800 8.823600
2.204200 9.051700
2.221600 9.733100
2.239000 9.578300
2.256400 9.392800
2.273800 10.307800
2.291200 11.226600
2.308600 11.788800
2.326000 10.546700
2.343400 11.195000
2.360800 11.740700
2.378200 11.967200
2.395600 8.711800
2.413000 8.628600
2.430400 9.965200
2.447800 10.402500
2.465200 8.910500
2.482600 8.995300
2.500000 10.779900
2.517400 10.764800
2.534800 9.296600
2.552200 8.076300
2.569600 7.752600
2.587000 7.568300
2.604400 8.545800
2.621800 8.431200
2.639200 7.834300
2.656600 7.406100
2.674000 7.218000
2.691400 7.499900
2.708800 7.634900
2.726200 7.283400
2.743600 7.362200
2.761000 7.281800
2.778400 6.679400
2.795800 6.304700
2.813200 6.099900
2.830600 6.015500
2.848000 7.213900
2.865400 6.456200
2.882800 6.312000
2.900200 6.229600
2.917600 6.153000
2.935000 6.155700
2.952400 6.907700
2.969800 7.290100
2.987200 6.793000
3.004600 6.489100
3.022000 6.381800
3.039400 6.072200
3.056800 5.663600
3.074200 4.615300
3.091600 3.644700
3.109000 3.319200
3.126400 3.292000
3.143800 3.271700
3.161200 3.271200
3.178600 3.303700
3.196000 3.386300
3.213400 3.524400
3.230800 3.714700
3.248200 3.967300
3.265600 4.284200
3.283000 4.577100
3.300400 4.996700
3.317800 5.261500
3.335200 5.208300
3.352600 5.430900
3.370000 5.828600
3.387400 6.039300
3.404800 6.065600
3.422200 6.146100
3.439600 5.947700
3.457000 5.704600
3.474400 5.537200
3.491800 5.397100
3.509200 5.325700
3.526600 5.277000
3.544000 5.178100
3.561400 5.061900
3.578800 4.948300
3.596200 4.789500
3.613500 4.618100
3.630900 4.565000
3.648300 4.610800
3.665700 4.832400
3.683100 5.300200
3.700500 5.503100
3.717900 5.887400
3.735300 6.029200
3.752700 6.083500
3.770100 5.884100
3.787500 5.457700
3.804900 5.080600
3.822300 4.357100
3.839700 3.758100
3.857100 3.523700
3.874500 3.368900
3.891900 3.262200
3.909300 3.181300
3.926700 3.115200
3.944100 3.058200
3.961500 3.040600
3.978900 3.042400
3.996300 3.072700
4.013700 2.994600
4.031100 2.864700
4.048500 2.797500
4.065900 2.856800
4.083300 2.986000
4.100700 3.030100
4.118100 3.057500
4.135500 3.278200
4.152900 3.300800
4.170300 3.160300
4.187700 3.089700
4.205100 3.086900
4.222500 2.994600
4.239900 2.960100
4.257300 2.997400
4.274700 3.057700
4.292100 3.083900
4.309500 2.810500
4.326900 2.745600
4.344300 2.760900
4.361700 2.708700
4.379100 2.674700
4.396500 2.680100
4.413900 2.778100
4.431300 2.734600
4.448700 2.663500
4.466100 2.633100
4.483500 2.540400
4.500900 2.451500
4.518300 2.375600
4.535700 2.337000
4.553100 2.314500
4.570500 2.318000
4.587900 2.347800
4.605300 2.385800
4.622700 2.430200
4.640100 2.469000
4.657500 2.495600
4.674900 2.518400
4.692300 2.536100
4.709700 2.637200
4.727100 2.894000
4.744500 2.598000
4.761900 2.514600
4.779300 2.488800
4.796700 2.489800
4.814100 2.536300
4.831500 2.632300
4.848900 2.711200
4.866300 2.771700
4.883700 2.982100
4.901100 5.837400
4.918500 4.443800
4.935900 4.079900
4.953300 4.152300
4.970700 4.279900
4.988100 4.392800
5.005500 4.496900
5.022900 4.595400
5.040300 4.648800
5.057700 4.678200
5.075100 4.670300
5.092500 4.625600
5.109900 4.707600
5.127300 4.801300
5.144700 4.792400
5.162100 4.930400
5.179500 5.214000
5.196900 5.172100
5.214300 4.359000
5.231700 3.971500
5.249100 3.616300
5.266500 3.443700
5.283900 3.128400
5.301300 2.943700
5.318700 2.780800
5.336100 2.714200
5.353500 2.807700
5.370900 2.937900
5.388300 3.049500
5.405700 3.187700
5.423100 3.340200
5.440500 3.462700
5.457900 3.573800
5.475300 3.621700
5.492700 3.513200
5.510100 3.384400
5.527500 3.469300
5.544900 3.598800
5.562300 3.733500
5.579700 3.862300
5.597100 3.993600
5.614500 4.579200
5.631900 4.035800
5.649300 3.948200
5.666700 3.858200
5.684100 3.824000
5.701500 3.804300
5.718900 4.101400
5.736300 3.520300
5.753700 3.622000
5.771100 3.752600
5.788500 3.814300
5.805900 3.792000
5.823300 3.870700
5.840700 3.496500
5.858100 3.093900
5.875500 2.783000
5.892900 2.535800
5.910300 2.332400
5.927700 2.162000
5.945100 2.006400
5.962500 1.867400
5.979900 1.686800
5.997300 1.624700
6.014700 1.405400
6.032100 1.151000
6.049500 0.989600
6.066900 0.879200
6.084300 0.791100
6.101700 0.750300
6.119100 0.733600
6.136500 0.717800
6.153900 0.702900
6.171300 0.689000
6.188700 0.693200
6.206100 0.731300
6.223500 0.804300
6.240900 0.913100
6.258300 1.023300
6.275700 1.116900
6.293100 1.193400
6.310500 1.253000
6.327900 1.307600
6.345300 1.365600
6.362700 1.434800
6.380100 1.568600
6.397500 1.732200
6.414900 1.867900
6.432300 1.980300
6.449700 2.067900
6.467100 2.131300
6.484500 2.181900
6.501900 2.206100
6.519300 2.272000
6.536700 2.355100
6.554100 2.462300
6.571500 2.590600
6.588900 2.733200
6.606300 2.891700
6.623700 3.048200
6.641100 3.215600
6.658500 3.379100
6.675900 3.540600
6.693300 3.713800
6.710700 3.802900
6.728100 4.007200
6.745500 4.374400
6.762900 3.881700
6.780300 3.832700
6.797700 3.857000
6.815100 4.015200
6.832500 4.118600
6.849900 4.172500
6.867300 4.279300
6.884700 4.367100
6.902100 4.341600
6.919500 4.268500
6.936900 4.088900
6.954300 3.927900
6.971700 3.765900
6.989100 3.626800
7.006500 3.583500
7.023900 3.587700
7.041300 3.583900
7.058700 3.553000
7.076100 3.484200
7.093500 3.369900
7.110900 3.253200
7.128300 3.245000
7.145700 3.849800
7.163100 3.723800
7.180500 3.681500
7.197900 3.633200
7.215300 3.661700
7.232700 3.743600
7.250100 3.841500
7.267500 3.966200
7.284900 4.037900
7.302300 4.155000
7.319700 4.223500
7.337100 4.259000
7.354500 4.450400
7.371900 4.624400
7.389300 4.499600
7.406700 4.199800
7.424100 4.149400
7.441500 4.135200
7.458900 4.225500
7.476300 4.619000
7.493700 4.033600
7.511100 3.874700
7.528500 3.765800
7.545900 3.688100
7.563300 3.613100
7.580700 3.532100
7.598100 3.439900
7.615500 3.318400
7.632900 3.190800
7.650300 3.090900
7.667700 3.075100
7.685100 3.090800
7.702500 3.126400
7.719900 3.142400
7.737300 3.154500
7.754700 3.137200
7.772100 3.086800
7.789500 2.919600
7.806900 2.807000
7.824300 2.738900
7.841700 2.676200
7.859100 2.661100
7.876500 2.696600
7.893900 2.535200
7.911300 2.463700
7.928700 2.438300
7.946100 2.449800
7.963500 2.518700
7.980900 2.603500
7.998300 2.743100
8.015700 2.899500
8.033100 2.990400
8.050500 3.095800
8.067900 3.336300
8.085300 3.267500
8.102700 3.331200
8.120100 3.364400
8.137500 3.410700
8.154900 3.574200
8.172300 3.476500
8.189700 3.421900
8.207100 3.350400
8.224500 3.255300
8.241900 3.262100
8.259300 3.281100
8.276700 3.447900
8.294100 3.670400
8.311500 3.785200
8.328900 3.638600
8.346300 3.863400
8.363700 4.097900
8.381100 4.230600
8.398500 4.385800
8.415900 4.824300
8.433300 4.917900
8.450700 4.903300
8.468100 4.816900
8.485500 4.701400
8.502900 4.594800
8.520300 4.492700
8.537700 4.413200
8.555100 4.675200
8.572500 3.860300
8.589900 3.465700
8.607300 3.339900
8.624700 3.172100
8.642100 3.153100
8.659500 3.704900
8.676900 6.948700
8.694300 5.344600
8.711700 5.114500
8.729100 5.007300
8.746500 4.591400
8.763900 4.309500
8.781300 4.318000
8.798700 4.356900
8.816100 4.661700
8.833500 4.438900
8.850900 4.354000
8.868300 4.327500
8.885700 4.273900
8.903100 4.211500
8.920500 4.262800
8.937900 4.335600
8.955300 4.400600
8.972700 4.465800
8.990100 4.514600
9.007500 4.503000
9.024900 4.495700
9.042300 4.553200
9.059700 4.778400
9.077100 5.193900
9.094500 5.403600
9.111900 5.500700
9.129300 5.677300
9.146700 5.983000
9.164100 5.982600
9.181500 6.145700
9.198900 6.212900
9.216300 5.780200
9.233700 5.413000
9.251100 5.222900
9.268500 5.032400
9.285900 4.774200
9.303300 4.526000
9.320700 4.404500
9.338100 4.309400
9.355500 4.407600
9.372900 4.335100
9.390300 4.139100
9.407700 3.683200
9.425100 3.022000
9.442500 2.813100
9.459900 2.878000
9.477300 2.969200
9.494700 3.237100
9.512100 3.292200
9.529500 3.517500
9.546800 3.884100
9.564200 4.358400
9.581600 4.819000
9.599000 4.737600
9.616400 4.662100
9.633800 4.739200
9.651200 4.936800
9.668600 5.116400
9.686000 5.302300
9.703400 5.396800
9.720800 5.477000
9.738200 5.554200
9.755600 5.692600
9.773000 5.766300
9.790400 5.885200
9.807800 5.928100
9.825200 5.707600
9.842600 5.806100
9.860000 5.553600
9.877400 5.297700
9.894800 4.863700
9.912200 4.467700
9.929600 4.076900
9.947000 3.845600
9.964400 3.638600
9.981800 3.423700
9.999200 3.283500
10.016600 3.278500
10.034000 3.423500
10.051400 3.454600
10.068800 3.505200
10.086200 3.587300
10.103600 3.688500
10.121000 3.731900
10.138400 3.768900
10.155800 3.871400
10.173200 4.045300
10.190600 4.210700
10.208000 4.375500
10.225400 4.591900
10.242800 4.847100
10.260200 5.076400
10.277600 5.209100
10.295000 5.075900
10.312400 5.244900
10.329800 5.340000
10.347200 5.371900
10.364600 5.112400
10.382000 4.708300
10.399400 4.683000
10.416800 4.653000
10.434200 4.613100
10.451600 4.106400
10.469000 3.973400
10.486400 3.944500
10.503800 3.972100
10.521200 4.215900
10.538600 4.433400
10.556000 4.604500
10.573400 4.819900
10.590800 4.951100
10.608200 5.067200
10.625600 5.135600
10.643000 5.190100
10.660400 5.214000
10.677800 5.152800
10.695200 5.200000
10.712600 5.317700
10.730000 5.662400
10.747400 6.020200
10.764800 6.014800
10.782200 5.915400
10.799600 6.021300
10.817000 5.911800
10.834400 5.619800
10.851800 5.012200
10.869200 4.840600
10.886600 5.184700
10.904000 5.200500
10.921400 5.219800
10.938800 5.226500
10.956200 5.184700
10.973600 5.056000
10.991000 5.113300
11.008400 5.345800
11.025800 5.480800
11.043200 5.879200
11.060600 6.391300
11.078000 6.341500
11.095400 6.315200
11.112800 6.476200
11.130200 6.302100
11.147600 6.242500
11.165000 6.276700
11.182400 6.613300
11.199800 6.533000
11.217200 5.953100
11.234600 5.546000
11.252000 5.558000
11.269400 5.724900
11.286800 5.847100
11.304200 6.545100
11.321600 6.752000
11.339000 6.917400
11.356400 7.178500
11.373800 7.427400
11.391200 7.646800
11.408600 7.930800
11.426000 8.140300
11.443400 7.496400
11.460800 6.306000
11.478200 5.945000
11.495600 5.761500
11.513000 5.668400
11.530400 5.624200
11.547800 5.760000
11.565200 5.887600
11.582600 5.999700
11.600000 5.833700
11.617400 5.735000
11.634800 5.757600
11.652200 5.910600
11.669600 6.200900
11.687000 6.960500
11.704400 6.945300
11.721800 6.610900
11.739200 6.165400
11.756600 6.084100
11.774000 6.101600
11.791400 6.206900
11.808800 6.475600
11.826200 6.628800
11.843600 6.568800
11.861000 6.442700
11.878400 6.344200
11.895800 6.188000
11.913200 6.059600
11.930600 5.996400
11.948000 6.005700
11.965400 5.957300
11.982800 5.913300
12.000200 6.017600
12.017600 6.039500
12.035000 6.076700
12.052400 6.204700
12.069800 6.187500
12.087200 6.234200
12.104600 6.358500
12.122000 6.348800
12.139400 6.429400
12.156800 6.242100
12.174200 5.919900
12.191600 5.787900
12.209000 5.620300
12.226400 5.456300
12.243800 5.910600
12.261200 5.635400
12.278600 5.473300
12.296000 5.494400
12.313400 5.495900
12.330800 5.449200
12.348200 5.381600
12.365600 5.433700
12.383000 5.528800
12.400400 5.673200
12.417800 5.753700
12.435200 5.840600
12.452600 5.788400
12.470000 5.628900
12.487400 5.576200
12.504800 5.552900
12.522200 5.577300
12.539600 5.665300
12.557000 5.863300
12.574400 6.154300
12.591800 6.135800
12.609200 6.152700
12.626600 6.115300
12.644000 6.072400
12.661400 5.934900
12.678800 5.876900
12.696200 5.843600
12.713600 5.805400
12.731000 5.726000
12.748400 6.128400
12.765800 6.062000
12.783200 5.787900
12.800600 5.453100
12.818000 5.289000
12.835400 5.215600
12.852800 5.431200
12.870200 5.523900
12.887600 5.788300
12.905000 6.162100
12.922400 6.412900
12.939800 6.603700
12.957200 6.627000
12.974600 6.354100
12.992000 6.279800
13.009400 6.321600
13.026800 6.280900
13.044200 6.408100
13.061600 5.955300
13.079000 5.833600
13.096400 5.785900
13.113800 5.717300
13.131200 5.698400
13.148600 5.797900
13.166000 5.558500
13.183400 5.368100
13.200800 5.322300
13.218200 5.486400
13.235600 5.748400
13.253000 5.982100
13.270400 6.234100
13.287800 6.309500
13.305200 6.504000
13.322600 6.610700
13.340000 6.507800
13.357400 6.436300
13.374800 6.573400
13.392200 7.071000
13.409600 6.969800
13.427000 7.214800
13.444400 7.456000
13.461800 7.740700
13.479200 7.611000
13.496600 7.181100
13.514000 7.106600
13.531400 7.113600
13.548800 7.513700
13.566200 8.471300
13.583600 8.204000
13.601000 8.153400
13.618400 8.688800
13.635800 8.683200
13.653200 8.280900
13.670600 7.925600
13.688000 7.586500
13.705400 7.369600
13.722800 6.983900
13.740200 6.832000
13.757600 6.762700
13.775000 7.590800
13.792400 7.244900
13.809800 6.894800
13.827200 6.649300
13.844600 6.564000
13.862000 6.636800
13.879400 6.721900
13.896800 6.697900
13.914200 6.700500
13.931600 6.865100
13.949000 6.984100
13.966400 7.365800
13.983800 7.149900
14.001200 6.720200
14.018600 6.408400
14.036000 6.171600
14.053400 5.872100
14.070800 5.500800
14.088200 5.005400
14.105600 5.122500
14.123000 5.366000
14.140400 5.859500
14.157800 6.250200
14.175200 7.307900
14.192600 7.622000
14.210000 7.557900
14.227400 7.544600
14.244800 7.428300
14.262200 6.915500
14.279600 6.679600
14.297000 6.578200
14.314400 6.368000
14.331800 6.369100
14.349200 6.544700
14.366600 6.739600
14.384000 7.061700
14.401400 7.261200
14.418800 7.506600
14.436200 7.562300
14.453600 7.309400
14.471000 7.036800
14.488400 6.909400
14.505800 6.909300
14.523200 6.992300
14.540600 7.045600
14.558000 7.511600
14.575400 7.813400
14.592800 7.859700
14.610200 7.263700
14.627600 6.711100
14.645000 6.569500
14.662400 6.637000
14.679800 7.189000
14.697200 7.456900
14.714600 7.867300
14.732000 8.827500
14.749400 8.893100
14.766800 8.971900
14.784200 8.904900
14.801600 7.817100
14.819000 7.606100
14.836400 7.366600
14.853800 7.106000
14.871200 6.899200
14.888600 6.707300
14.906000 6.516000
14.923400 6.321000
14.940800 6.434200
14.958200 6.944700
14.975600 7.116800
14.993000 7.478400
15.010400 7.909900
15.027800 8.195400
15.045200 8.399400
15.062600 8.488200
15.080000 8.407000
15.097400 8.149900
15.114800 7.849500
15.132200 7.533100
15.149600 7.257800
15.167000 6.878800
15.184400 7.295900
15.201800 6.863600
15.219200 6.457500
15.236600 6.738200
15.254000 6.991200
15.271400 7.091400
15.288800 7.174600
15.306200 7.119800
15.323600 7.753000
15.341000 8.148100
15.358400 8.119800
15.375800 8.057700
15.393200 8.096500
15.410600 8.452900
15.428000 8.407800
15.445400 7.908000
15.462800 7.326500
15.480100 7.005300
15.497500 6.628800
15.514900 6.735200
15.532300 6.810300
15.549700 7.098300
15.567100 7.525200
15.584500 7.793900
15.601900 7.859900
15.619300 7.972200
15.636700 8.195900
15.654100 7.731500
15.671500 7.338000
15.688900 7.128300
15.706300 6.846100
15.723700 6.471600
15.741100 6.300000
15.758500 6.042600
15.775900 5.626600
15.793300 5.547900
15.810700 6.105700
15.828100 5.945100
15.845500 6.307700
15.862900 7.095900
15.880300 7.625700
15.897700 7.641200
15.915100 7.684000
15.932500 7.633800
15.949900 7.644100
15.967300 8.006100
15.984700 8.089100
16.002100 7.955300
16.019500 7.798200
16.036900 7.453800
16.054300 7.054100
16.071700 7.233300
16.089100 7.789400
16.106500 7.909000
16.123900 8.220700
16.141300 8.322900
16.158700 8.375700
16.176100 8.332900
16.193500 8.198800
16.210900 8.045600
16.228300 7.554800
16.245700 7.168100
16.263100 6.850300
16.280500 6.439900
16.297900 6.311100
16.315300 6.440600
16.332700 6.137500
16.350100 6.040600
16.367500 6.072500
16.384900 6.402400
16.402300 6.485300
16.419700 6.866400
16.437100 6.974900
16.454500 6.896300
16.471900 6.879300
16.489300 6.995400
16.506700 7.141200
16.524100 7.572500
16.541500 7.435200
16.558900 7.131400
16.576300 6.924300
16.593700 6.850400
16.611100 6.863300
16.628500 6.930700
16.645900 6.990100
16.663300 7.199100
16.680700 7.266400
16.698100 7.422500
16.715500 7.455200
16.732900 7.607700
16.750300 7.615600
16.767700 7.471600
16.785100 7.483800
16.802500 7.488200
16.819900 7.521300
16.837300 6.906100
16.854700 6.371500
16.872100 6.182300
16.889500 6.266000
16.906900 6.625200
16.924300 7.070700
16.941700 7.406800
16.959100 8.169300
16.976500 8.458500
16.993900 8.714900
17.011300 8.741700
17.028700 8.677600
17.046100 8.653800
17.063500 8.505400
17.080900 7.897900
17.098300 7.025600
17.115700 6.776600
17.133100 6.565700
17.150500 6.594400
17.167900 6.802500
17.185300 7.066700
17.202700 7.256400
17.220100 7.511900
17.237500 7.677200
17.254900 7.876700
17.272300 8.221300
17.289700 7.998600
17.307100 7.642800
17.324500 7.841100
17.341900 7.814600
17.359300 7.619200
17.376700 7.484000
17.394100 7.819700
17.411500 8.293300
17.428900 8.226500
17.446300 7.951100
17.463700 8.052500
17.481100 8.109900
17.498500 8.174900
17.515900 8.358000
17.533300 8.450500
17.550700 8.559900
17.568100 8.635500
17.585500 8.746000
17.602900 8.489900
17.620300 8.110600
17.637700 7.994200
17.655100 8.051300
17.672500 8.102600
17.689900 8.209400
17.707300 8.341600
17.724700 8.363100
17.742100 8.384600
17.759500 8.189800
17.776900 8.042300
17.794300 7.765100
17.811700 7.267300
17.829100 6.849300
17.846500 6.899300
17.863900 7.046300
17.881300 7.268600
17.898700 7.656100
17.916100 7.910700
17.933500 8.101800
17.950900 8.334300
17.968300 8.232100
17.985700 8.091100
18.003100 8.280400
18.020500 8.179500
18.037900 7.524800
18.055300 7.189600
18.072700 7.066100
18.090100 7.208500
18.107500 7.510300
18.124900 7.382700
18.142300 7.504600
18.159700 7.500300
18.177100 7.385200
18.194500 7.615200
18.211900 7.636100
18.229300 7.535000
18.246700 7.666500
18.264100 7.883100
18.281500 7.270000
18.298900 7.193800
18.316300 7.037900
18.333700 7.102800
18.351100 7.110500
18.368500 7.457000
18.385900 7.418500
18.403300 7.333300
18.420700 7.335600
18.438100 7.358200
18.455500 7.463100
18.472900 7.461100
18.490300 7.639100
18.507700 7.666500
18.525100 7.408700
18.542500 6.932400
18.559900 6.485300
18.577300 6.795300
18.594700 6.821300
18.612100 7.167900
18.629500 7.612700
18.646900 7.858900
18.664300 8.162400
18.681700 8.345400
18.699100 8.432500
18.716500 8.507000
18.733900 8.166800
18.751300 8.500800
18.768700 8.629900
18.786100 7.972000
18.803500 7.844300
18.820900 7.665500
18.838300 7.348900
18.855700 6.966800
18.873100 7.311000
18.890500 7.624700
18.907900 7.976800
18.925300 8.904800
18.942700 8.385700
18.960100 8.350100
18.977500 8.193100
18.994900 7.840300
19.012300 7.786900
19.029700 7.603600
19.047100 7.346700
19.064500 7.763400
19.081900 7.895400
19.099300 7.754000
19.116700 8.112200
19.134100 8.439000
19.151500 8.298500
19.168900 7.985000
19.186300 7.981000
19.203700 8.252100
19.221100 8.151200
19.238500 8.253600
19.255900 8.319800
19.273300 8.101600
19.290700 7.685100
19.308100 7.202500
19.325500 6.666200
19.342900 6.323200
19.360300 6.324800
19.377700 6.349300
19.395100 6.464600
19.412500 6.889700
19.429900 7.546300
19.447300 8.130500
19.464700 8.794000
19.482100 8.839300
19.499500 8.830300
19.516900 8.431000
19.534300 7.862700
19.551700 7.446600
19.569100 7.245900
19.586500 7.227200
19.603900 7.883200
19.621300 8.445600
19.638700 10.057100
19.656100 10.163400
19.673500 9.732700
19.690900 9.435200
19.708300 9.077400
19.725700 8.869800
19.743100 8.987800
19.760500 8.907200
19.777900 7.603000
19.795300 7.269800
19.812700 7.084000
19.830100 7.138900
19.847500 7.389800
19.864900 7.475200
19.882300 7.530200
19.899700 7.532700
19.917100 7.634900
19.934500 7.459500
19.951900 9.277700
19.969300 9.087900
19.986700 8.812100
20.004100 9.676900
20.021500 10.403800
20.038900 10.240700
20.056300 9.577100
20.073700 10.500300
20.091100 10.573000
20.108500 10.614600
20.125900 10.093600
20.143300 9.578300
20.160700 9.290700
20.178100 9.443500
20.195500 9.392000
20.212900 9.260300
20.230300 9.533000
20.247700 9.300800
20.265100 9.168400
20.282500 9.096200
20.299900 9.149500
20.317300 9.024800
20.334700 8.671000
20.352100 8.615500
20.369500 8.338700
20.386900 7.945000
20.404300 8.146200
20.421700 7.980600
20.439100 7.889100
20.456500 7.899500
20.473900 8.535800
20.491300 8.843900
20.508700 9.268800
20.526100 9.287400
20.543500 9.163600
20.560900 9.029800
20.578300 8.818900
20.595700 8.563800
20.613100 8.641600
20.630500 8.984000
20.647900 9.158700
20.665300 9.012000
20.682700 8.777500
20.700100 8.752600
20.717500 9.661100
20.734900 9.684300
20.752300 9.464500
20.769700 9.018400
20.787100 8.361800
20.804500 7.959000
20.821900 7.798000
20.839300 7.861800
20.856700 8.214000
20.874100 8.541400
20.891500 8.944600
20.908900 9.252200
20.926300 9.652400
20.943700 9.603500
20.961100 8.721600
20.978500 8.447000
20.995900 8.316000
21.013300 7.553500
21.030700 7.220300
21.048100 7.122100
21.065500 6.965700
21.082900 7.133000
21.100300 7.304500
21.117700 7.628900
21.135100 8.266600
21.152500 9.094600
21.169900 9.576600
21.187300 9.246800
21.204700 8.805000
21.222100 8.244400
21.239500 7.831800
21.256900 7.744600
21.274300 7.782400
21.291700 8.133200
21.309100 7.626300
21.326500 7.211800
21.343900 7.019200
21.361300 6.709600
21.378700 6.203100
21.396100 6.129300
21.413400 6.128100
21.430800 5.994700
21.448200 5.667900
21.465600 5.222600
21.483000 4.617200
21.500400 3.998600
21.517800 3.369100
21.535200 2.918100
21.552600 2.836100
21.570000 2.334400
21.587400 1.943400
21.604800 1.579900
21.622200 1.202900
21.639600 0.919400
21.657000 0.697100
21.674400 0.396700
21.691800 0.253900
21.709200 0.183100
21.726600 0.123000
21.744000 0.076700
21.761400 0.043800
21.778800 0.021600
21.796200 0.007700
21.813600 0.001100
21.831000 0.000000
21.848400 0.000000
21.865800 0.000000
21.883200 0.000000
21.900600 0.000000
21.918000 0.000000
21.935400 0.000000
21.952800 0.000000
21.970200 0.000000
21.987600 0.000000
22.005000 0.000000
22.022400 0.000000
22.039800 0.000000
22.057200 0.000000
22.074600 0.000000
22.092000 0.000000
22.109400 0.000000
22.126800 0.000000
22.144200 0.000000
22.161600 0.000000
22.179000 0.000000
22.196400 0.000000
22.213800 0.000000
22.231200 0.000000
22.248600 0.000000
22.266000 0.000000
22.283400 0.000000
22.300800 0.000000
22.318200 0.000000
22.335600 0.000000
22.353000 0.000000
22.370400 0.000000
22.387800 0.000000
22.405200 0.000000
22.422600 0.000000
22.440000 0.000000
22.457400 0.000000
22.474800 0.000000
22.492200 0.000000
22.509600 0.000000
22.527000 0.000000
22.544400 0.000000
22.561800 0.000000
22.579200 0.000000
22.596600 0.000000
22.614000 0.000000
22.631400 0.000000
22.648800 0.000000
22.666200 0.000000
22.683600 0.000000
22.701000 0.000000
22.718400 0.000000
22.735800 0.000000
22.753200 0.000000
22.770600 0.000000
22.788000 0.000000
22.805400 0.000000
22.822800 0.000000
22.840200 0.000000
22.857600 0.000000
22.875000 0.000000
22.892400 0.000000
22.909800 0.000000
22.927200 0.000000
22.944600 0.000000
22.962000 0.000000
22.979400 0.000000
22.996800 0.000000
23.014200 0.000000
23.031600 0.000000
23.049000 0.000000
23.066400 0.000000
23.083800 0.000000
23.101200 0.000000
23.118600 0.000000
23.136000 0.000000
23.153400 0.000000
23.170800 0.000000
23.188200 0.000000
23.205600 0.000000
23.223000 0.000000
23.240400 0.000000
23.257800 0.000000
23.275200 0.000000
23.292600 0.000000
23.310000 0.000000
23.327400 0.000000
23.344800 0.000000
23.362200 0.000000
23.379600 0.000000
23.397000 0.000000
23.414400 0.000000
e
