set title 'mp-23933 - Density of States'
set xlabel 'Energy (eV)'
set ylabel 'DOS (states/eV)'
set grid
set xrange [-10:10]
set yrange [0:5.230]
set xzeroaxis lt -1
set terminal png size 800,600
set output 'mp-23933_dos_gnuplot.png'
plot '-' using 1:2 with lines title 'DOS'
-9.077700 0.000000
-9.063400 0.000000
-9.049000 0.000000
-9.034600 0.000000
-9.020200 0.000000
-9.005900 0.000000
-8.991500 0.000000
-8.977100 0.000000
-8.962700 0.000000
-8.948400 0.000000
-8.934000 0.000000
-8.919600 0.000000
-8.905200 0.000000
-8.890900 0.000000
-8.876500 0.000000
-8.862100 0.000000
-8.847700 0.000000
-8.833400 0.000000
-8.819000 0.000000
-8.804600 0.000000
-8.790200 0.000000
-8.775900 0.000000
-8.761500 0.000000
-8.747100 0.000000
-8.732700 0.000000
-8.718400 0.000000
-8.704000 0.000000
-8.689600 0.000000
-8.675200 0.000000
-8.660900 0.000000
-8.646500 0.000000
-8.632100 0.000000
-8.617700 0.000000
-8.603400 0.000000
-8.589000 0.000000
-8.574600 0.000000
-8.560200 0.000000
-8.545900 0.000000
-8.531500 0.000000
-8.517100 0.000000
-8.502800 0.000000
-8.488400 0.000000
-8.474000 0.000000
-8.459600 0.000000
-8.445300 0.000000
-8.430900 0.000000
-8.416500 0.000000
-8.402100 0.000000
-8.387800 0.000000
-8.373400 0.000000
-8.359000 0.000000
-8.344600 0.000000
-8.330300 0.000000
-8.315900 0.000000
-8.301500 0.000000
-8.287100 0.000000
-8.272800 0.000000
-8.258400 0.000000
-8.244000 0.000000
-8.229600 0.000000
-8.215300 0.000000
-8.200900 0.000000
-8.186500 0.000000
-8.172100 0.000000
-8.157800 0.000000
-8.143400 0.000000
-8.129000 0.000000
-8.114600 0.000000
-8.100300 0.000000
-8.085900 0.000000
-8.071500 0.000000
-8.057100 0.000000
-8.042800 0.000000
-8.028400 0.000000
-8.014000 0.000000
-7.999600 0.000000
-7.985300 0.000000
-7.970900 0.000000
-7.956500 0.000000
-7.942100 0.000000
-7.927800 0.000000
-7.913400 0.000000
-7.899000 0.000000
-7.884700 0.000000
-7.870300 0.000000
-7.855900 0.000000
-7.841500 0.000000
-7.827200 0.000000
-7.812800 0.000000
-7.798400 0.000000
-7.784000 0.000000
-7.769700 0.000100
-7.755300 0.017000
-7.740900 0.062400
-7.726500 0.128200
-7.712200 0.114200
-7.697800 0.130900
-7.683400 0.148600
-7.669000 0.167300
-7.654700 0.186900
-7.640300 0.203500
-7.625900 0.213200
-7.611500 0.216900
-7.597200 0.223500
-7.582800 0.234000
-7.568400 0.244800
-7.554000 0.255700
-7.539700 0.266900
-7.525300 0.278200
-7.510900 0.289800
-7.496500 0.299900
-7.482200 0.304800
-7.467800 0.311000
-7.453400 0.317700
-7.439000 0.324200
-7.424700 0.330500
-7.410300 0.336900
-7.395900 0.343900
-7.381500 0.351400
-7.367200 0.359400
-7.352800 0.367700
-7.338400 0.376000
-7.324000 0.384300
-7.309700 0.392500
-7.295300 0.399700
-7.280900 0.405200
-7.266600 0.409400
-7.252200 0.414100
-7.237800 0.419300
-7.223400 0.424900
-7.209100 0.430600
-7.194700 0.436300
-7.180300 0.442000
-7.165900 0.447800
-7.151600 0.453600
-7.137200 0.459700
-7.122800 0.466000
-7.108400 0.472400
-7.094100 0.478900
-7.079700 0.485400
-7.065300 0.492000
-7.050900 0.498300
-7.036600 0.503900
-7.022200 0.508500
-7.007800 0.513500
-6.993400 0.517800
-6.979100 0.522300
-6.964700 0.526700
-6.950300 0.531300
-6.935900 0.536100
-6.921600 0.541100
-6.907200 0.546200
-6.892800 0.551400
-6.878400 0.556600
-6.864100 0.561900
-6.849700 0.567200
-6.835300 0.572400
-6.820900 0.577800
-6.806600 0.583100
-6.792200 0.588600
-6.777800 0.594200
-6.763400 0.599900
-6.749100 0.605400
-6.734700 0.610700
-6.720300 0.615400
-6.705900 0.619700
-6.691600 0.624200
-6.677200 0.628700
-6.662800 0.633100
-6.648500 0.637400
-6.634100 0.641900
-6.619700 0.646300
-6.605300 0.650800
-6.591000 0.655400
-6.576600 0.660000
-6.562200 0.664800
-6.547800 0.669600
-6.533500 0.674500
-6.519100 0.679400
-6.504700 0.684400
-6.490300 0.689500
-6.476000 0.694600
-6.461600 0.699700
-6.447200 0.704800
-6.432800 0.710000
-6.418500 0.715200
-6.404100 0.720400
-6.389700 0.725500
-6.375300 0.730500
-6.361000 0.735100
-6.346600 0.739700
-6.332200 0.744300
-6.317800 0.748900
-6.303500 0.753500
-6.289100 0.758000
-6.274700 0.762600
-6.260300 0.767300
-6.246000 0.772100
-6.231600 0.776900
-6.217200 0.781700
-6.202800 0.786600
-6.188500 0.791500
-6.174100 0.796500
-6.159700 0.801500
-6.145300 0.806600
-6.131000 0.811800
-6.116600 0.817000
-6.102200 0.822400
-6.087800 0.827800
-6.073500 0.833300
-6.059100 0.838800
-6.044700 0.844500
-6.030400 0.850300
-6.016000 0.856200
-6.001600 0.862400
-5.987200 0.868700
-5.972900 0.875100
-5.958500 0.881800
-5.944100 0.888700
-5.929700 0.895900
-5.915400 0.903600
-5.901000 0.911700
-5.886600 0.920500
-5.872200 0.930000
-5.857900 0.939500
-5.843500 0.947900
-5.829100 0.954800
-5.814700 0.960300
-5.800400 0.966000
-5.786000 0.971900
-5.771600 0.978300
-5.757200 0.985100
-5.742900 0.993700
-5.728500 1.005200
-5.714100 1.020900
-5.699700 1.037800
-5.685400 1.044500
-5.671000 1.049400
-5.656600 1.054900
-5.642200 1.061500
-5.627900 1.068500
-5.613500 1.085600
-5.599100 1.111100
-5.584700 1.135500
-5.570400 1.157000
-5.556000 1.173900
-5.541600 1.184900
-5.527200 1.189700
-5.512900 1.191400
-5.498500 1.194500
-5.484100 1.210600
-5.469700 1.234500
-5.455400 1.266800
-5.441000 1.304100
-5.426600 1.303100
-5.412200 1.305600
-5.397900 1.305000
-5.383500 1.265700
-5.369100 1.258400
-5.354800 1.257600
-5.340400 1.243100
-5.326000 1.249000
-5.311600 1.221500
-5.297300 1.157000
-5.282900 1.154300
-5.268500 1.148600
-5.254100 1.150400
-5.239800 1.146600
-5.225400 1.146200
-5.211000 1.144300
-5.196600 1.141900
-5.182300 1.121100
-5.167900 1.111200
-5.153500 1.119800
-5.139100 1.136400
-5.124800 1.154200
-5.110400 1.179100
-5.096000 1.209300
-5.081600 1.236200
-5.067300 1.247100
-5.052900 1.189400
-5.038500 1.167900
-5.024100 1.193200
-5.009800 1.213700
-4.995400 1.080300
-4.981000 1.091300
-4.966600 1.100400
-4.952300 1.152900
-4.937900 1.019900
-4.923500 0.939200
-4.909100 0.976200
-4.894800 0.921900
-4.880400 0.929500
-4.866000 0.963700
-4.851600 1.015100
-4.837300 1.036700
-4.822900 1.042700
-4.808500 1.029600
-4.794100 1.003300
-4.779800 0.998500
-4.765400 1.006200
-4.751000 1.011900
-4.736700 1.009000
-4.722300 1.011600
-4.707900 1.017400
-4.693500 1.025700
-4.679200 1.036600
-4.664800 1.049600
-4.650400 1.066600
-4.636000 1.086800
-4.621700 1.110300
-4.607300 1.153300
-4.592900 1.198400
-4.578500 1.221900
-4.564200 1.225800
-4.549800 1.201000
-4.535400 1.133700
-4.521000 1.060600
-4.506700 1.023500
-4.492300 1.003800
-4.477900 0.989800
-4.463500 0.980500
-4.449200 0.972300
-4.434800 0.965100
-4.420400 0.958700
-4.406000 0.953100
-4.391700 0.948200
-4.377300 0.941000
-4.362900 0.935600
-4.348500 0.929700
-4.334200 0.922900
-4.319800 0.917100
-4.305400 0.911900
-4.291000 0.907200
-4.276700 0.902800
-4.262300 0.897700
-4.247900 0.892200
-4.233500 0.888500
-4.219200 0.883600
-4.204800 0.879300
-4.190400 0.875700
-4.176000 0.872300
-4.161700 0.868900
-4.147300 0.865300
-4.132900 0.861500
-4.118600 0.857400
-4.104200 0.852200
-4.089800 0.845600
-4.075400 0.839100
-4.061100 0.833400
-4.046700 0.828500
-4.032300 0.823800
-4.017900 0.819500
-4.003600 0.816200
-3.989200 0.813600
-3.974800 0.810600
-3.960400 0.806800
-3.946100 0.802300
-3.931700 0.797000
-3.917300 0.791500
-3.902900 0.786200
-3.888600 0.780900
-3.874200 0.776100
-3.859800 0.771500
-3.845400 0.767300
-3.831100 0.763600
-3.816700 0.760100
-3.802300 0.756400
-3.787900 0.751800
-3.773600 0.748100
-3.759200 0.747000
-3.744800 0.744700
-3.730400 0.741400
-3.716100 0.737200
-3.701700 0.732600
-3.687300 0.728100
-3.672900 0.723500
-3.658600 0.719300
-3.644200 0.715900
-3.629800 0.713100
-3.615400 0.709700
-3.601100 0.708700
-3.586700 0.709700
-3.572300 0.731000
-3.557900 0.817700
-3.543600 0.882400
-3.529200 0.907700
-3.514800 0.866900
-3.500500 0.812800
-3.486100 0.767100
-3.471700 0.751500
-3.457300 0.786700
-3.443000 0.869500
-3.428600 0.942800
-3.414200 0.967200
-3.399800 0.960900
-3.385500 0.971100
-3.371100 0.986200
-3.356700 1.007900
-3.342300 1.034100
-3.328000 1.072600
-3.313600 1.065600
-3.299200 1.083800
-3.284800 1.106600
-3.270500 1.113300
-3.256100 1.113700
-3.241700 1.114400
-3.227300 1.115100
-3.213000 1.119400
-3.198600 1.129100
-3.184200 1.141100
-3.169800 1.154300
-3.155500 1.166200
-3.141100 1.179900
-3.126700 1.195900
-3.112300 1.234800
-3.098000 1.305900
-3.083600 1.330300
-3.069200 1.306000
-3.054800 1.312400
-3.040500 1.316200
-3.026100 1.312600
-3.011700 1.299600
-2.997300 1.303000
-2.983000 1.284500
-2.968600 1.277100
-2.954200 1.278800
-2.939800 1.283700
-2.925500 1.289800
-2.911100 1.292400
-2.896700 1.292700
-2.882400 1.298200
-2.868000 1.307700
-2.853600 1.322500
-2.839200 1.346100
-2.824900 1.369200
-2.810500 1.380800
-2.796100 1.389800
-2.781700 1.397100
-2.767400 1.408300
-2.753000 1.418000
-2.738600 1.420600
-2.724200 1.429300
-2.709900 1.440000
-2.695500 1.450400
-2.681100 1.459900
-2.666700 1.468500
-2.652400 1.478300
-2.638000 1.486900
-2.623600 1.496800
-2.609200 1.507500
-2.594900 1.519200
-2.580500 1.532900
-2.566100 1.549300
-2.551700 1.568400
-2.537400 1.592500
-2.523000 1.612200
-2.508600 1.635600
-2.494200 1.651500
-2.479900 1.674600
-2.465500 1.689000
-2.451100 1.704900
-2.436700 1.722900
-2.422400 1.742600
-2.408000 1.766300
-2.393600 1.793000
-2.379200 1.820500
-2.364900 1.849100
-2.350500 1.878600
-2.336100 1.911900
-2.321700 1.949500
-2.307400 1.992700
-2.293000 2.049500
-2.278600 2.275300
-2.264200 2.365100
-2.249900 2.385500
-2.235500 2.389200
-2.221100 2.395300
-2.206800 2.428800
-2.192400 2.438000
-2.178000 2.448500
-2.163600 2.451800
-2.149300 2.444600
-2.134900 2.426500
-2.120500 2.400100
-2.106100 2.371800
-2.091800 2.350200
-2.077400 2.339400
-2.063000 2.338100
-2.048600 2.344000
-2.034300 2.344000
-2.019900 2.341500
-2.005500 2.338400
-1.991100 2.332100
-1.976800 2.325300
-1.962400 2.319200
-1.948000 2.315300
-1.933600 2.316200
-1.919300 2.321800
-1.904900 2.330900
-1.890500 2.339000
-1.876100 2.343500
-1.861800 2.344000
-1.847400 2.338500
-1.833000 2.333200
-1.818600 2.336300
-1.804300 2.345000
-1.789900 2.347300
-1.775500 2.332300
-1.761100 2.312200
-1.746800 2.295100
-1.732400 2.282500
-1.718000 2.277300
-1.703600 2.275400
-1.689300 2.277700
-1.674900 2.282200
-1.660500 2.287800
-1.646100 2.293400
-1.631800 2.296700
-1.617400 2.304300
-1.603000 2.322300
-1.588700 2.351700
-1.574300 2.372200
-1.559900 2.369700
-1.545500 2.300400
-1.531200 2.241600
-1.516800 2.197600
-1.502400 2.178400
-1.488000 2.178800
-1.473700 2.185400
-1.459300 2.195800
-1.444900 2.205700
-1.430500 2.213600
-1.416200 2.217800
-1.401800 2.223400
-1.387400 2.213600
-1.373000 2.179200
-1.358700 2.126500
-1.344300 2.067700
-1.329900 2.029900
-1.315500 2.013600
-1.301200 2.003600
-1.286800 1.996500
-1.272400 1.991700
-1.258000 1.963100
-1.243700 1.960600
-1.229300 1.960200
-1.214900 1.961200
-1.200500 1.963100
-1.186200 1.967300
-1.171800 1.978000
-1.157400 1.995000
-1.143000 2.021700
-1.128700 2.060400
-1.114300 2.107500
-1.099900 2.163600
-1.085500 2.229800
-1.071200 2.304800
-1.056800 2.380200
-1.042400 2.399100
-1.028000 2.396700
-1.013700 2.429300
-0.999300 2.449500
-0.984900 2.505700
-0.970600 2.502200
-0.956200 2.517900
-0.941800 2.531200
-0.927400 2.436800
-0.913100 2.451200
-0.898700 2.414200
-0.884300 2.376800
-0.869900 2.381300
-0.855600 2.284200
-0.841200 2.192200
-0.826800 2.134500
-0.812400 2.077800
-0.798100 2.003200
-0.783700 1.956400
-0.769300 1.929900
-0.754900 1.906600
-0.740600 1.896900
-0.726200 1.894600
-0.711800 1.898800
-0.697400 1.916600
-0.683100 1.958400
-0.668700 2.030400
-0.654300 2.160500
-0.639900 2.279600
-0.625600 2.402000
-0.611200 2.484300
-0.596800 2.548700
-0.582400 2.620300
-0.568100 2.701800
-0.553700 2.712800
-0.539300 2.675800
-0.524900 2.692900
-0.510600 2.732900
-0.496200 2.608400
-0.481800 2.308300
-0.467400 2.090400
-0.453100 1.993600
-0.438700 1.951100
-0.424300 1.919600
-0.409900 1.877500
-0.395600 1.843100
-0.381200 1.827700
-0.366800 1.828900
-0.352500 1.815100
-0.338100 1.787400
-0.323700 1.777400
-0.309300 1.759200
-0.295000 1.726700
-0.280600 1.679800
-0.266200 1.635900
-0.251800 1.642800
-0.237500 1.619600
-0.223100 1.562100
-0.208700 1.525000
-0.194300 1.522300
-0.180000 1.499200
-0.165600 1.489600
-0.151200 1.488100
-0.136800 1.482300
-0.122500 1.479400
-0.108100 1.473400
-0.093700 1.476400
-0.079300 1.456000
-0.065000 1.439300
-0.050600 1.455500
-0.036200 1.479200
-0.021800 1.527300
-0.007500 1.511600
0.006900 1.454100
0.021300 1.389100
0.035700 1.360000
0.050000 1.340100
0.064400 1.337300
0.078800 1.321600
0.093200 1.310800
0.107500 1.303600
0.121900 1.299600
0.136300 1.303100
0.150700 1.328800
0.165000 1.368100
0.179400 1.400600
0.193800 1.435000
0.208200 1.475300
0.222500 1.500600
0.236900 1.542300
0.251300 1.580300
0.265700 1.638400
0.280000 1.699200
0.294400 1.756100
0.308800 1.806500
0.323100 1.859100
0.337500 1.924400
0.351900 2.001400
0.366300 2.083300
0.380600 2.174900
0.395000 2.268000
0.409400 2.365600
0.423800 2.457500
0.438100 2.562600
0.452500 2.658600
0.466900 2.731400
0.481300 2.796200
0.495600 2.911100
0.510000 3.145500
0.524400 3.204000
0.538800 3.016700
0.553100 2.893200
0.567500 2.841100
0.581900 2.846700
0.596300 2.858700
0.610600 2.869100
0.625000 2.884100
0.639400 2.909500
0.653800 2.950500
0.668100 3.033900
0.682500 3.159400
0.696900 3.263600
0.711300 3.393300
0.725600 3.527000
0.740000 3.696400
0.754400 3.802300
0.768800 3.551600
0.783100 3.709600
0.797500 4.135100
0.811900 4.754100
0.826300 4.462400
0.840600 2.238300
0.855000 0.000000
0.869400 0.000000
0.883800 0.000000
0.898100 0.000000
0.912500 0.000000
0.926900 0.000000
0.941200 0.000000
0.955600 0.000000
0.970000 0.000000
0.984400 0.000000
0.998700 0.000000
1.013100 0.000000
1.027500 0.000000
1.041900 0.000000
1.056200 0.000000
1.070600 0.000000
1.085000 0.000000
1.099400 0.000000
1.113700 0.000000
1.128100 0.000000
1.142500 0.000000
1.156900 0.000000
1.171200 0.000000
1.185600 0.000000
1.200000 0.000000
1.214400 0.000000
1.228700 0.000000
1.243100 0.000000
1.257500 0.000000
1.271900 0.000000
1.286200 0.000000
1.300600 0.000000
1.315000 0.000000
1.329400 0.000000
1.343700 0.000000
1.358100 0.000000
1.372500 0.000000
1.386900 0.000000
1.401200 0.000000
1.415600 0.000000
1.430000 0.000000
1.444400 0.000000
1.458700 0.000000
1.473100 0.000000
1.487500 0.000000
1.501900 0.000000
1.516200 0.000000
1.530600 0.000000
1.545000 0.000000
1.559300 0.000000
1.573700 0.000000
1.588100 0.000000
1.602500 0.000000
1.616800 0.000000
1.631200 0.000000
1.645600 0.000000
1.660000 0.000000
1.674300 0.000000
1.688700 0.000000
1.703100 0.000000
1.717500 0.000000
1.731800 0.000000
1.746200 0.000000
1.760600 0.000000
1.775000 0.000000
1.789300 0.000000
1.803700 0.000000
1.818100 0.000000
1.832500 0.000000
1.846800 0.000000
1.861200 0.000000
1.875600 0.000000
1.890000 0.000000
1.904300 0.000000
1.918700 0.000000
1.933100 0.000000
1.947500 0.000000
1.961800 0.000000
1.976200 0.000000
1.990600 0.000000
2.005000 0.000000
2.019300 0.000000
2.033700 0.000000
2.048100 0.000000
2.062500 0.000000
2.076800 0.000000
2.091200 0.000000
2.105600 0.000000
2.120000 0.000000
2.134300 0.000000
2.148700 0.000000
2.163100 0.000000
2.177400 0.000000
2.191800 0.000000
2.206200 0.000000
2.220600 0.000000
2.234900 0.000000
2.249300 0.000000
2.263700 0.000000
2.278100 0.000000
2.292400 0.000000
2.306800 0.000000
2.321200 0.000000
2.335600 0.000000
2.349900 0.000000
2.364300 0.000000
2.378700 0.000000
2.393100 0.000000
2.407400 0.000000
2.421800 0.000000
2.436200 0.000000
2.450600 0.000000
2.464900 0.000000
2.479300 0.000000
2.493700 0.000000
2.508100 0.000000
2.522400 0.000000
2.536800 0.000000
2.551200 0.000000
2.565600 0.000000
2.579900 0.000000
2.594300 0.000000
2.608700 0.000000
2.623100 0.000000
2.637400 0.000000
2.651800 0.000000
2.666200 0.000000
2.680600 0.000000
2.694900 0.000000
2.709300 0.000000
2.723700 0.000000
2.738100 0.000000
2.752400 0.000000
2.766800 0.000000
2.781200 0.000000
2.795500 0.000000
2.809900 0.000000
2.824300 0.000000
2.838700 0.000000
2.853000 0.000000
2.867400 0.000000
2.881800 0.000000
2.896200 0.000000
2.910500 0.000000
2.924900 0.000000
2.939300 0.000000
2.953700 0.000000
2.968000 0.000000
2.982400 0.000000
2.996800 0.000000
3.011200 0.000000
3.025500 0.000000
3.039900 0.000000
3.054300 0.000600
3.068700 0.001800
3.083000 0.003700
3.097400 0.006300
3.111800 0.009500
3.126200 0.013500
3.140500 0.018100
3.154900 0.023400
3.169300 0.029200
3.183700 0.033000
3.198000 0.035800
3.212400 0.037900
3.226800 0.039200
3.241200 0.039900
3.255500 0.041000
3.269900 0.043000
3.284300 0.044900
3.298700 0.047000
3.313000 0.049100
3.327400 0.051200
3.341800 0.053400
3.356200 0.055700
3.370500 0.058000
3.384900 0.060300
3.399300 0.062700
3.413700 0.065100
3.428000 0.067600
3.442400 0.070100
3.456800 0.072700
3.471100 0.075300
3.485500 0.077900
3.499900 0.080000
3.514300 0.082200
3.528600 0.084300
3.543000 0.086400
3.557400 0.088600
3.571800 0.090900
3.586100 0.093100
3.600500 0.095400
3.614900 0.097700
3.629300 0.100000
3.643600 0.102400
3.658000 0.104700
3.672400 0.107100
3.686800 0.109600
3.701100 0.112200
3.715500 0.114900
3.729900 0.117600
3.744300 0.120400
3.758600 0.123300
3.773000 0.126200
3.787400 0.129100
3.801800 0.132000
3.816100 0.135000
3.830500 0.138100
3.844900 0.141300
3.859300 0.144500
3.873600 0.147700
3.888000 0.151000
3.902400 0.154300
3.916800 0.157600
3.931100 0.161000
3.945500 0.164400
3.959900 0.167800
3.974300 0.171200
3.988600 0.174600
4.003000 0.178100
4.017400 0.181700
4.031800 0.185200
4.046100 0.188900
4.060500 0.193000
4.074900 0.197200
4.089200 0.201400
4.103600 0.205600
4.118000 0.209800
4.132400 0.214200
4.146700 0.218800
4.161100 0.223400
4.175500 0.228300
4.189900 0.233300
4.204200 0.238500
4.218600 0.243900
4.233000 0.249400
4.247400 0.254900
4.261700 0.260500
4.276100 0.266200
4.290500 0.272000
4.304900 0.277800
4.319200 0.283700
4.333600 0.290700
4.348000 0.297500
4.362400 0.304300
4.376700 0.311400
4.391100 0.318700
4.405500 0.326100
4.419900 0.333700
4.434200 0.341500
4.448600 0.349400
4.463000 0.357500
4.477400 0.365700
4.491700 0.373900
4.506100 0.382500
4.520500 0.392100
4.534900 0.402100
4.549200 0.412200
4.563600 0.422100
4.578000 0.431900
4.592400 0.441600
4.606700 0.451200
4.621100 0.460800
4.635500 0.470400
4.649900 0.480000
4.664200 0.489800
4.678600 0.499800
4.693000 0.509800
4.707300 0.519600
4.721700 0.531900
4.736100 0.549300
4.750500 0.564300
4.764800 0.577000
4.779200 0.587500
4.793600 0.595800
4.808000 0.602700
4.822300 0.609800
4.836700 0.616400
4.851100 0.620200
4.865500 0.621600
4.879800 0.623700
4.894200 0.627000
4.908600 0.630900
4.923000 0.636400
4.937300 0.644500
4.951700 0.653200
4.966100 0.663400
4.980500 0.675200
4.994800 0.688300
5.009200 0.702700
5.023600 0.716900
5.038000 0.729100
5.052300 0.739500
5.066700 0.748200
5.081100 0.755500
5.095500 0.761300
5.109800 0.767500
5.124200 0.775400
5.138600 0.783900
5.153000 0.792300
5.167300 0.800600
5.181700 0.808800
5.196100 0.816900
5.210500 0.824800
5.224800 0.831800
5.239200 0.839300
5.253600 0.847300
5.268000 0.855300
5.282300 0.863900
5.296700 0.873900
5.311100 0.884700
5.325400 0.895300
5.339800 0.904500
5.354200 0.913300
5.368600 0.922300
5.382900 0.931600
5.397300 0.941300
5.411700 0.951400
5.426100 0.961400
5.440400 0.971400
5.454800 0.981400
5.469200 0.991400
5.483600 1.001700
5.497900 1.012100
5.512300 1.022600
5.526700 1.033100
5.541100 1.043200
5.555400 1.052900
5.569800 1.062800
5.584200 1.073500
5.598600 1.084500
5.612900 1.095400
5.627300 1.107300
5.641700 1.121900
5.656100 1.140100
5.670400 1.162000
5.684800 1.187200
5.699200 1.179800
5.713600 1.178200
5.727900 1.190500
5.742300 1.202900
5.756700 1.214800
5.771100 1.227400
5.785400 1.240200
5.799800 1.253800
5.814200 1.268200
5.828600 1.283800
5.842900 1.300400
5.857300 1.317000
5.871700 1.333800
5.886100 1.351500
5.900400 1.372300
5.914800 1.395400
5.929200 1.417600
5.943600 1.438800
5.957900 1.459400
5.972300 1.479600
5.986700 1.499800
6.001000 1.520900
6.015400 1.542900
6.029800 1.566300
6.044200 1.591100
6.058500 1.617900
6.072900 1.646600
6.087300 1.678400
6.101700 1.714800
6.116000 1.757400
6.130400 1.807800
6.144800 1.871100
6.159200 1.956300
6.173500 2.063300
6.187900 2.269300
6.202300 2.488700
6.216700 2.502600
6.231000 2.542900
6.245400 2.644300
6.259800 2.735100
6.274200 2.785000
6.288500 2.780900
6.302900 2.740500
6.317300 2.695900
6.331700 2.722200
6.346000 2.763700
6.360400 2.812000
6.374800 2.860100
6.389200 2.906700
6.403500 2.973200
6.417900 3.119600
6.432300 3.294500
6.446700 3.307100
6.461000 3.296700
6.475400 3.188700
6.489800 3.092800
6.504200 2.888200
6.518500 2.615600
6.532900 2.326400
6.547300 2.130800
6.561700 2.049200
6.576000 2.041100
6.590400 2.058200
6.604800 2.110200
6.619100 2.177300
6.633500 2.401500
6.647900 2.428900
6.662300 2.433500
6.676600 2.438200
6.691000 2.404000
6.705400 2.368400
6.719800 2.421500
6.734100 2.284300
6.748500 2.171500
6.762900 2.025000
6.777300 1.904300
6.791600 1.814800
6.806000 1.742300
6.820400 1.685300
6.834800 1.641200
6.849100 1.596800
6.863500 1.573300
6.877900 1.578700
6.892300 1.599100
6.906600 1.628800
6.921000 1.673700
6.935400 1.730100
6.949800 1.786100
6.964100 1.844000
6.978500 1.882300
6.992900 1.901000
7.007300 1.920000
7.021600 1.937700
7.036000 1.956000
7.050400 1.972400
7.064800 1.995100
7.079100 2.026600
7.093500 2.069500
7.107900 2.118500
7.122300 2.180100
7.136600 2.266100
7.151000 2.346700
7.165400 2.449200
7.179800 2.474100
7.194100 2.463800
7.208500 2.471800
7.222900 2.467200
7.237200 2.452400
7.251600 2.428500
7.266000 2.405600
7.280400 2.371600
7.294700 2.313800
7.309100 2.252300
7.323500 2.136200
7.337900 2.075500
7.352200 2.025300
7.366600 1.993400
7.381000 1.977300
7.395400 1.966800
7.409700 1.968500
7.424100 1.986200
7.438500 2.002800
7.452900 2.005600
7.467200 2.019400
7.481600 2.037400
7.496000 2.047400
7.510400 2.063400
7.524700 2.084600
7.539100 2.113000
7.553500 2.175400
7.567900 2.210200
7.582200 2.229000
7.596600 2.243700
7.611000 2.251000
7.625400 2.253700
7.639700 2.254800
7.654100 2.253900
7.668500 2.253100
7.682900 2.255800
7.697200 2.263500
7.711600 2.272500
7.726000 2.288100
7.740400 2.320200
7.754700 2.364400
7.769100 2.403700
7.783500 2.444400
7.797900 2.484100
7.812200 2.512700
7.826600 2.536600
7.841000 2.585100
7.855300 2.643400
7.869700 2.685800
7.884100 2.709900
7.898500 2.732600
7.912800 2.768200
7.927200 2.796600
7.941600 2.804900
7.956000 2.799100
7.970300 2.786500
7.984700 2.766100
7.999100 2.728300
8.013500 2.672600
8.027800 2.604400
8.042200 2.546100
8.056600 2.497900
8.071000 2.455700
8.085300 2.416900
8.099700 2.388200
8.114100 2.344800
8.128500 2.334200
8.142800 2.264200
8.157200 2.232200
8.171600 2.225500
8.186000 2.190800
8.200300 2.139400
8.214700 2.107000
8.229100 2.029000
8.243500 1.976100
8.257800 1.953700
8.272200 1.943000
8.286600 1.936500
8.301000 1.932900
8.315300 1.935300
8.329700 1.945300
8.344100 1.978400
8.358500 2.033600
8.372800 2.067000
8.387200 2.083200
8.401600 2.095900
8.416000 2.098000
8.430300 2.093900
8.444700 2.083600
8.459100 2.089000
8.473400 2.115300
8.487800 2.135100
8.502200 2.146900
8.516600 2.155100
8.530900 2.182300
8.545300 2.199000
8.559700 2.192900
8.574100 2.209100
8.588400 2.222500
8.602800 2.231900
8.617200 2.221400
8.631600 2.206500
8.645900 2.187500
8.660300 2.146600
8.674700 2.117600
8.689100 2.113600
8.703400 2.123400
8.717800 2.133500
8.732200 2.150400
8.746600 2.160400
8.760900 2.163300
8.775300 2.167000
8.789700 2.172700
8.804100 2.185200
8.818400 2.197200
8.832800 2.198500
8.847200 2.201700
8.861600 2.209000
8.875900 2.200700
8.890300 2.183900
8.904700 2.173000
8.919100 2.153700
8.933400 2.130400
8.947800 2.104900
8.962200 2.093400
8.976600 2.068900
8.990900 2.038400
9.005300 2.003600
9.019700 1.996000
9.034100 1.994300
9.048400 1.997200
9.062800 2.002200
9.077200 2.005600
9.091600 2.003200
9.105900 1.995100
9.120300 1.971600
9.134700 1.955400
9.149000 1.944100
9.163400 1.936300
9.177800 1.928600
9.192200 1.932900
9.206500 1.946300
9.220900 1.948300
9.235300 1.951900
9.249700 1.957200
9.264000 1.963700
9.278400 1.981000
9.292800 1.991300
9.307200 1.983800
9.321500 1.966100
9.335900 1.940800
9.350300 1.906300
9.364700 1.874300
9.379000 1.844800
9.393400 1.822200
9.407800 1.811000
9.422200 1.806000
9.436500 1.806500
9.450900 1.812700
9.465300 1.828000
9.479700 1.859000
9.494000 1.897300
9.508400 1.942500
9.522800 1.989000
9.537200 2.028900
9.551500 2.062400
9.565900 2.095500
9.580300 2.128700
9.594700 2.160400
9.609000 2.187200
9.623400 2.211100
9.637800 2.244000
9.652200 2.270300
9.666500 2.281300
9.680900 2.281300
9.695300 2.265000
9.709700 2.258600
9.724000 2.262800
9.738400 2.275700
9.752800 2.288500
9.767100 2.318000
9.781500 2.295600
9.795900 2.287500
9.810300 2.285600
9.824600 2.284000
9.839000 2.290900
9.853400 2.317100
9.867800 2.314200
9.882100 2.249200
9.896500 2.225000
9.910900 2.206000
9.925300 2.146200
9.939600 1.997800
9.954000 1.942400
9.968400 1.919000
9.982800 1.889100
9.997100 1.859700
10.011500 1.827600
10.025900 1.793500
10.040300 1.761100
10.054600 1.734000
10.069000 1.737000
10.083400 1.726300
10.097800 1.697800
10.112100 1.680700
10.126500 1.649100
10.140900 1.609500
10.155300 1.569400
10.169600 1.544500
10.184000 1.533400
10.198400 1.518300
10.212800 1.518100
10.227100 1.523800
10.241500 1.534600
10.255900 1.553900
10.270300 1.571900
10.284600 1.578900
10.299000 1.587800
10.313400 1.599400
10.327800 1.613900
10.342100 1.631000
10.356500 1.652500
10.370900 1.680600
10.385200 1.709800
10.399600 1.740800
10.414000 1.782700
10.428400 1.810100
10.442700 1.820700
10.457100 1.842900
10.471500 1.878500
10.485900 1.926100
10.500200 1.976400
10.514600 2.017900
10.529000 2.063700
10.543400 2.104200
10.557700 2.136700
10.572100 2.157100
10.586500 2.196500
10.600900 2.252100
10.615200 2.293200
10.629600 2.322000
10.644000 2.353300
10.658400 2.372300
10.672700 2.377800
10.687100 2.376500
10.701500 2.367900
10.715900 2.354100
10.730200 2.339300
10.744600 2.320200
10.759000 2.312900
10.773400 2.302600
10.787700 2.300200
10.802100 2.290100
10.816500 2.289300
10.830900 2.295700
10.845200 2.294400
10.859600 2.286400
10.874000 2.222000
10.888400 2.164400
10.902700 2.103500
10.917100 2.067600
10.931500 2.047700
10.945900 2.036900
10.960200 2.028100
10.974600 1.983900
10.989000 1.901700
11.003300 1.847300
11.017700 1.811900
11.032100 1.785100
11.046500 1.784400
11.060800 1.763500
11.075200 1.731100
11.089600 1.701200
11.104000 1.667500
11.118300 1.626300
11.132700 1.581300
11.147100 1.539000
11.161500 1.507600
11.175800 1.479900
11.190200 1.454700
11.204600 1.429900
11.219000 1.420000
11.233300 1.452900
11.247700 1.442600
11.262100 1.450400
11.276500 1.459500
11.290800 1.465700
11.305200 1.469700
11.319600 1.480900
11.334000 1.514000
11.348300 1.546400
11.362700 1.548300
11.377100 1.569500
11.391500 1.599900
11.405800 1.630200
11.420200 1.677300
11.434600 1.734000
11.449000 1.778100
11.463300 1.829500
11.477700 1.855400
11.492100 1.872500
11.506500 1.926400
11.520800 2.028000
11.535200 2.142700
11.549600 2.269500
11.564000 2.396600
11.578300 2.520300
11.592700 2.666600
11.607100 2.834500
11.621400 2.947100
11.635800 2.990200
11.650200 3.017000
11.664600 3.016400
11.678900 2.984200
11.693300 2.917800
11.707700 2.830100
11.722100 2.739700
11.736400 2.677400
11.750800 2.563700
11.765200 2.508100
11.779600 2.460200
11.793900 2.416500
11.808300 2.370400
11.822700 2.322700
11.837100 2.287700
11.851400 2.264100
11.865800 2.244800
11.880200 2.228800
11.894600 2.221600
11.908900 2.234400
11.923300 2.263200
11.937700 2.287100
11.952100 2.254300
11.966400 2.226300
11.980800 2.147200
11.995200 2.079700
12.009600 2.020800
12.023900 1.980200
12.038300 1.934200
12.052700 1.880500
12.067100 1.809800
12.081400 1.745100
12.095800 1.702700
12.110200 1.682600
12.124600 1.679300
12.138900 1.686900
12.153300 1.705400
12.167700 1.726000
12.182100 1.740200
12.196400 1.752700
12.210800 1.770300
12.225200 1.790600
12.239600 1.815000
12.253900 1.847900
12.268300 1.984000
12.282700 1.949100
12.297000 1.987100
12.311400 2.018200
12.325800 2.047000
12.340200 2.081500
12.354500 2.126600
12.368900 2.192000
12.383300 2.257900
12.397700 2.352500
12.412000 2.600200
12.426400 2.561400
12.440800 2.499200
12.455200 2.455700
12.469500 2.415900
12.483900 2.408600
12.498300 2.387500
12.512700 2.333700
12.527000 2.275400
12.541400 2.196200
12.555800 2.124100
12.570200 2.062000
12.584500 2.026200
12.598900 2.001000
12.613300 1.977200
12.627700 1.952500
12.642000 1.922400
12.656400 1.887000
12.670800 1.842400
12.685200 1.789700
12.699500 1.723600
12.713900 1.665300
12.728300 1.620200
12.742700 1.569200
12.757000 1.537000
12.771400 1.498600
12.785800 1.468200
12.800200 1.452500
12.814500 1.443700
12.828900 1.436300
12.843300 1.426400
12.857700 1.413800
12.872000 1.399500
12.886400 1.392500
12.900800 1.398200
12.915100 1.406200
12.929500 1.415000
12.943900 1.421800
12.958300 1.421300
12.972600 1.412400
12.987000 1.414000
13.001400 1.413400
13.015800 1.419100
13.030100 1.423400
13.044500 1.430700
13.058900 1.447800
13.073300 1.459700
13.087600 1.485800
13.102000 1.529600
13.116400 1.586200
13.130800 1.644200
13.145100 1.700300
13.159500 1.736400
13.173900 1.774300
13.188300 1.826100
13.202600 1.868900
13.217000 1.924600
13.231400 1.979800
13.245800 2.040500
13.260100 2.103200
13.274500 2.154900
13.288900 2.199300
13.303300 2.266200
13.317600 2.313600
13.332000 2.283400
13.346400 2.280500
13.360800 2.280300
13.375100 2.279600
13.389500 2.284500
13.403900 2.244400
13.418300 2.233000
13.432600 2.095100
13.447000 1.997900
13.461400 1.941700
13.475800 1.889900
13.490100 1.859200
13.504500 1.843300
13.518900 1.833300
13.533200 1.827400
13.547600 1.834000
13.562000 1.879900
13.576400 1.929600
13.590700 1.936500
13.605100 1.925400
13.619500 1.918400
13.633900 1.920100
13.648200 1.927800
13.662600 1.936500
13.677000 1.944800
13.691400 1.950400
13.705700 1.958700
13.720100 1.971100
13.734500 1.960300
13.748900 1.920400
13.763200 1.877800
13.777600 1.851000
13.792000 1.837400
13.806400 1.833000
13.820700 1.845900
13.835100 1.864900
13.849500 1.883800
13.863900 1.904700
13.878200 1.924200
13.892600 1.947600
13.907000 1.978100
13.921400 2.009100
13.935700 2.044900
13.950100 2.089500
13.964500 2.133900
13.978900 2.172100
13.993200 2.197200
14.007600 2.215700
14.022000 2.233600
14.036400 2.250400
14.050700 2.269300
14.065100 2.298000
14.079500 2.330800
14.093900 2.356800
14.108200 2.354400
14.122600 2.358200
14.137000 2.377500
14.151300 2.393600
14.165700 2.363700
14.180100 2.368800
14.194500 2.368700
14.208800 2.373000
14.223200 2.374800
14.237600 2.371400
14.252000 2.370900
14.266300 2.379000
14.280700 2.368700
14.295100 2.318600
14.309500 2.253400
14.323800 2.205900
14.338200 2.196800
14.352600 2.131900
14.367000 2.026200
14.381300 1.909900
14.395700 1.820300
14.410100 1.761200
14.424500 1.715100
14.438800 1.684700
14.453200 1.675500
14.467600 1.678000
14.482000 1.662400
14.496300 1.661100
14.510700 1.672200
14.525100 1.685700
14.539500 1.707800
14.553800 1.692800
14.568200 1.688200
14.582600 1.700100
14.597000 1.710800
14.611300 1.714500
14.625700 1.714800
14.640100 1.699000
14.654500 1.681300
14.668800 1.660100
14.683200 1.634100
14.697600 1.606200
14.712000 1.580800
14.726300 1.552700
14.740700 1.538200
14.755100 1.538500
14.769500 1.481100
14.783800 1.412800
14.798200 1.333900
14.812600 1.260500
14.826900 1.174700
14.841300 1.104800
14.855700 1.041800
14.870100 0.985100
14.884400 0.932800
14.898800 0.896300
14.913200 0.863700
14.927600 0.836900
14.941900 0.816200
14.956300 0.789700
14.970700 0.757800
14.985100 0.732300
14.999400 0.710600
15.013800 0.686500
15.028200 0.660100
15.042600 0.643400
15.056900 0.624800
15.071300 0.566100
15.085700 0.528800
15.100100 0.496700
15.114400 0.468900
15.128800 0.444600
15.143200 0.426400
15.157600 0.413100
15.171900 0.399800
15.186300 0.383900
15.200700 0.366900
15.215100 0.348600
15.229400 0.327600
15.243800 0.303700
15.258200 0.279500
15.272600 0.253500
15.286900 0.233800
15.301300 0.216700
15.315700 0.199700
15.330100 0.182800
15.344400 0.165900
15.358800 0.148500
15.373200 0.129000
15.387600 0.110900
15.401900 0.097400
15.416300 0.084800
15.430700 0.073200
15.445000 0.063500
15.459400 0.057000
15.473800 0.053000
15.488200 0.050500
15.502500 0.049200
15.516900 0.048500
15.531300 0.047900
15.545700 0.047400
15.560000 0.046800
15.574400 0.046200
15.588800 0.045700
15.603200 0.045100
15.617500 0.044600
15.631900 0.044000
15.646300 0.043500
15.660700 0.043000
15.675000 0.042500
15.689400 0.042000
15.703800 0.041500
15.718200 0.041000
15.732500 0.040500
15.746900 0.040000
15.761300 0.039500
15.775700 0.039100
15.790000 0.038600
15.804400 0.038200
15.818800 0.037700
15.833200 0.037300
15.847500 0.036900
15.861900 0.036500
15.876300 0.036100
15.890700 0.035700
15.905000 0.035400
15.919400 0.035000
15.933800 0.034700
15.948200 0.034300
15.962500 0.034000
15.976900 0.033600
15.991300 0.033200
16.005700 0.032900
16.020000 0.032500
16.034400 0.032100
16.048800 0.031800
16.063100 0.031400
16.077500 0.031000
16.091900 0.030600
16.106300 0.030300
16.120600 0.029900
16.135000 0.029500
16.149400 0.029100
16.163800 0.028700
16.178100 0.028300
16.192500 0.028000
16.206900 0.027600
16.221300 0.027200
16.235600 0.026800
16.250000 0.026400
16.264400 0.026100
16.278800 0.025700
16.293100 0.025300
16.307500 0.025000
16.321900 0.024600
16.336300 0.024200
16.350600 0.023900
16.365000 0.023500
16.379400 0.023200
16.393800 0.022900
16.408100 0.022500
16.422500 0.022200
16.436900 0.021800
16.451300 0.021500
16.465600 0.021200
16.480000 0.020900
16.494400 0.020600
16.508800 0.020200
16.523100 0.019900
16.537500 0.019600
16.551900 0.019300
16.566300 0.019000
16.580600 0.018700
16.595000 0.018500
16.609400 0.018200
16.623800 0.017900
16.638100 0.017600
16.652500 0.017400
16.666900 0.017100
16.681200 0.016900
16.695600 0.016600
16.710000 0.016400
16.724400 0.016200
16.738700 0.016000
16.753100 0.015700
16.767500 0.015500
16.781900 0.015300
16.796200 0.015100
16.810600 0.014900
16.825000 0.014700
16.839400 0.014500
16.853700 0.014400
16.868100 0.014200
16.882500 0.014000
16.896900 0.013900
16.911200 0.013700
16.925600 0.013600
16.940000 0.013400
16.954400 0.013300
16.968700 0.013200
16.983100 0.013000
16.997500 0.012900
17.011900 0.012700
17.026200 0.012500
17.040600 0.012400
17.055000 0.012200
17.069400 0.012000
17.083700 0.011800
17.098100 0.011600
17.112500 0.011300
17.126900 0.011100
17.141200 0.010900
17.155600 0.010600
17.170000 0.010300
17.184400 0.010100
17.198700 0.009800
17.213100 0.009500
17.227500 0.009100
17.241900 0.008800
17.256200 0.008400
17.270600 0.008100
17.285000 0.007700
17.299300 0.007300
17.313700 0.006900
17.328100 0.006500
17.342500 0.006100
17.356800 0.005700
17.371200 0.005400
17.385600 0.005100
17.400000 0.004800
17.414300 0.004600
17.428700 0.004500
17.443100 0.004300
17.457500 0.004200
17.471800 0.004100
17.486200 0.003900
17.500600 0.003800
17.515000 0.003700
17.529300 0.003600
17.543700 0.003400
17.558100 0.003300
17.572500 0.003200
17.586800 0.003100
17.601200 0.003000
17.615600 0.002900
17.630000 0.002800
17.644300 0.002700
17.658700 0.002500
17.673100 0.002400
17.687500 0.002300
17.701800 0.002200
17.716200 0.002100
17.730600 0.002100
17.745000 0.002000
17.759300 0.001900
17.773700 0.001800
17.788100 0.001700
17.802500 0.001600
17.816800 0.001500
17.831200 0.001500
17.845600 0.001400
17.860000 0.001300
17.874300 0.001200
17.888700 0.001200
17.903100 0.001100
17.917500 0.001000
17.931800 0.001000
17.946200 0.000900
17.960600 0.000800
17.974900 0.000800
17.989300 0.000700
18.003700 0.000700
18.018100 0.000600
18.032400 0.000600
18.046800 0.000500
18.061200 0.000500
18.075600 0.000400
18.089900 0.000400
18.104300 0.000300
18.118700 0.000300
18.133100 0.000300
18.147400 0.000200
18.161800 0.000200
18.176200 0.000200
18.190600 0.000200
18.204900 0.000100
18.219300 0.000100
18.233700 0.000100
18.248100 0.000100
18.262400 0.000100
18.276800 0.000000
18.291200 0.000000
18.305600 0.000000
18.319900 0.000000
18.334300 0.000000
18.348700 0.000000
18.363100 0.000000
18.377400 0.000000
18.391800 0.000000
18.406200 0.000000
18.420600 0.000000
18.434900 0.000000
18.449300 0.000000
18.463700 0.000000
18.478100 0.000000
18.492400 0.000000
18.506800 0.000000
18.521200 0.000000
18.535600 0.000000
18.549900 0.000000
18.564300 0.000000
18.578700 0.000000
18.593000 0.000000
18.607400 0.000000
18.621800 0.000000
18.636200 0.000000
18.650500 0.000000
18.664900 0.000000
18.679300 0.000000
18.693700 0.000000
18.708000 0.000000
18.722400 0.000000
18.736800 0.000000
18.751200 0.000000
18.765500 0.000000
18.779900 0.000000
18.794300 0.000000
18.808700 0.000000
18.823000 0.000000
18.837400 0.000000
18.851800 0.000000
18.866200 0.000000
18.880500 0.000000
18.894900 0.000000
18.909300 0.000000
18.923700 0.000000
18.938000 0.000000
18.952400 0.000000
18.966800 0.000000
18.981200 0.000000
18.995500 0.000000
19.009900 0.000000
19.024300 0.000000
19.038700 0.000000
19.053000 0.000000
19.067400 0.000000
19.081800 0.000000
19.096200 0.000000
19.110500 0.000000
19.124900 0.000000
19.139300 0.000000
19.153700 0.000000
19.168000 0.000000
19.182400 0.000000
19.196800 0.000000
19.211100 0.000000
19.225500 0.000000
19.239900 0.000000
19.254300 0.000000
19.268600 0.000000
19.283000 0.000000
19.297400 0.000000
19.311800 0.000000
19.326100 0.000000
19.340500 0.000000
19.354900 0.000000
19.369300 0.000000
19.383600 0.000000
19.398000 0.000000
19.412400 0.000000
19.426800 0.000000
19.441100 0.000000
19.455500 0.000000
19.469900 0.000000
19.484300 0.000000
19.498600 0.000000
19.513000 0.000000
19.527400 0.000000
19.541800 0.000000
19.556100 0.000000
19.570500 0.000000
19.584900 0.000000
19.599300 0.000000
19.613600 0.000000
19.628000 0.000000
19.642400 0.000000
19.656800 0.000000
19.671100 0.000000
e
