set title 'mp-1187951 - Density of States'
set xlabel 'Energy (eV)'
set ylabel 'DOS (states/eV)'
set grid
set xrange [-10:10]
set yrange [0:23.426]
set xzeroaxis lt -1
set terminal png size 800,600
set output 'mp-1187951_dos_gnuplot.png'
plot '-' using 1:2 with lines title 'DOS'
-7.138500 0.000000
-7.111700 0.000000
-7.084900 0.000000
-7.058100 0.000000
-7.031300 0.000000
-7.004500 0.000000
-6.977700 0.000000
-6.950900 0.000000
-6.924100 0.000000
-6.897300 0.000000
-6.870500 0.000000
-6.843800 0.000000
-6.817000 0.000000
-6.790200 0.000000
-6.763400 0.000000
-6.736600 0.000000
-6.709800 0.000000
-6.683000 0.000000
-6.656200 0.000000
-6.629400 0.000000
-6.602600 0.000000
-6.575800 0.000000
-6.549000 0.000000
-6.522200 0.000000
-6.495400 0.000000
-6.468600 0.000000
-6.441900 0.000000
-6.415100 0.000000
-6.388300 0.000000
-6.361500 0.000000
-6.334700 0.000000
-6.307900 0.000000
-6.281100 0.000000
-6.254300 0.000000
-6.227500 0.000000
-6.200700 0.000000
-6.173900 0.000000
-6.147100 0.000000
-6.120300 0.000000
-6.093500 0.000000
-6.066700 0.000000
-6.040000 0.000000
-6.013200 0.000000
-5.986400 0.000000
-5.959600 0.000000
-5.932800 0.000000
-5.906000 0.000000
-5.879200 0.000000
-5.852400 0.000000
-5.825600 0.000000
-5.798800 0.000000
-5.772000 0.000000
-5.745200 0.000000
-5.718400 0.000000
-5.691600 0.000000
-5.664900 0.000000
-5.638100 0.000000
-5.611300 0.000000
-5.584500 0.000000
-5.557700 0.000000
-5.530900 0.000000
-5.504100 0.000000
-5.477300 0.000000
-5.450500 0.000000
-5.423700 0.000000
-5.396900 0.000000
-5.370100 0.000000
-5.343300 0.000000
-5.316500 0.000000
-5.289700 0.000000
-5.263000 0.000000
-5.236200 0.000000
-5.209400 0.000000
-5.182600 0.000000
-5.155800 0.000000
-5.129000 0.000000
-5.102200 0.000000
-5.075400 0.000000
-5.048600 0.000000
-5.021800 0.000000
-4.995000 0.000000
-4.968200 0.000000
-4.941400 0.000000
-4.914600 0.000000
-4.887800 0.000000
-4.861100 0.000000
-4.834300 0.000000
-4.807500 0.000000
-4.780700 0.000000
-4.753900 0.000000
-4.727100 0.000000
-4.700300 0.000000
-4.673500 0.004300
-4.646700 0.016000
-4.619900 0.033000
-4.593100 0.043100
-4.566300 0.045600
-4.539500 0.049800
-4.512700 0.055100
-4.485900 0.061100
-4.459200 0.065100
-4.432400 0.070500
-4.405600 0.076300
-4.378800 0.081100
-4.352000 0.084000
-4.325200 0.085300
-4.298400 0.089100
-4.271600 0.092900
-4.244800 0.096600
-4.218000 0.099900
-4.191200 0.102800
-4.164400 0.105500
-4.137600 0.108600
-4.110800 0.111900
-4.084000 0.115500
-4.057300 0.119400
-4.030500 0.123600
-4.003700 0.126600
-3.976900 0.129500
-3.950100 0.132300
-3.923300 0.135100
-3.896500 0.137600
-3.869700 0.140200
-3.842900 0.142900
-3.816100 0.145700
-3.789300 0.148500
-3.762500 0.151400
-3.735700 0.154800
-3.708900 0.158100
-3.682100 0.161500
-3.655400 0.165000
-3.628600 0.168700
-3.601800 0.172400
-3.575000 0.176200
-3.548200 0.180000
-3.521400 0.183600
-3.494600 0.187000
-3.467800 0.190700
-3.441000 0.194500
-3.414200 0.198400
-3.387400 0.202700
-3.360600 0.207200
-3.333800 0.212000
-3.307000 0.217100
-3.280200 0.222300
-3.253500 0.227900
-3.226700 0.233600
-3.199900 0.239600
-3.173100 0.245700
-3.146300 0.252100
-3.119500 0.258800
-3.092700 0.265900
-3.065900 0.274700
-3.039100 0.285200
-3.012300 0.296800
-2.985500 0.311300
-2.958700 0.327400
-2.931900 0.345400
-2.905100 0.365400
-2.878400 0.387500
-2.851600 0.415100
-2.824800 0.446900
-2.798000 0.487900
-2.771200 0.522400
-2.744400 0.565100
-2.717600 0.596700
-2.690800 0.675600
-2.664000 0.752600
-2.637200 0.854200
-2.610400 1.203500
-2.583600 1.555400
-2.556800 2.169600
-2.530000 6.274300
-2.503200 7.113500
-2.476500 7.000700
-2.449700 6.166500
-2.422900 7.238000
-2.396100 11.799400
-2.369300 12.244100
-2.342500 12.411000
-2.315700 12.976900
-2.288900 15.571200
-2.262100 21.296200
-2.235300 17.551000
-2.208500 11.682900
-2.181700 9.715400
-2.154900 3.948200
-2.128100 2.624600
-2.101300 2.325900
-2.074600 2.047300
-2.047800 1.951700
-2.021000 1.700700
-1.994200 0.579000
-1.967400 0.550400
-1.940600 0.530100
-1.913800 0.519600
-1.887000 0.518200
-1.860200 0.512000
-1.833400 0.498000
-1.806600 0.487300
-1.779800 0.481000
-1.753000 0.476000
-1.726200 0.472300
-1.699400 0.481600
-1.672700 0.471800
-1.645900 0.460400
-1.619100 0.451800
-1.592300 0.449600
-1.565500 0.450000
-1.538700 0.451600
-1.511900 0.454100
-1.485100 0.458400
-1.458300 0.468300
-1.431500 0.480700
-1.404700 0.491100
-1.377900 0.505200
-1.351100 0.520200
-1.324300 0.536000
-1.297500 0.552100
-1.270800 0.573000
-1.244000 0.582700
-1.217200 0.592200
-1.190400 0.604800
-1.163600 0.632300
-1.136800 0.680500
-1.110000 0.731900
-1.083200 0.730300
-1.056400 0.706800
-1.029600 0.587400
-1.002800 0.568400
-0.976000 0.543500
-0.949200 0.529100
-0.922400 0.518800
-0.895600 0.507300
-0.868900 0.511700
-0.842100 0.517800
-0.815300 0.507800
-0.788500 0.495800
-0.761700 0.534600
-0.734900 0.636500
-0.708100 0.359200
-0.681300 0.159300
-0.654500 0.184700
-0.627700 0.200500
-0.600900 0.212600
-0.574100 0.226900
-0.547300 0.241300
-0.520500 0.255900
-0.493700 0.272000
-0.467000 0.290200
-0.440200 0.310600
-0.413400 0.328900
-0.386600 0.343800
-0.359800 0.377400
-0.333000 0.415200
-0.306200 0.459100
-0.279400 0.509600
-0.252600 0.589500
-0.225800 0.631500
-0.199000 0.660100
-0.172200 0.674300
-0.145400 0.690600
-0.118600 0.675300
-0.091800 0.674800
-0.065100 0.691900
-0.038300 0.717800
-0.011500 0.742000
0.015300 0.769900
0.042100 0.805000
0.068900 0.843000
0.095700 0.898800
0.122500 1.172000
0.149300 1.275500
0.176100 1.260400
0.202900 1.268100
0.229700 1.269800
0.256500 1.277400
0.283300 1.258400
0.310000 1.230300
0.336800 1.199900
0.363600 1.182800
0.390400 1.218900
0.417200 1.220100
0.444000 0.998300
0.470800 0.959700
0.497600 0.928600
0.524400 0.889200
0.551200 0.857300
0.578000 0.842100
0.604800 0.825200
0.631600 0.832400
0.658400 0.907000
0.685200 1.174900
0.711900 1.171300
0.738700 1.186500
0.765500 1.203200
0.792300 1.321400
0.819100 1.343400
0.845900 1.572600
0.872700 1.654600
0.899500 1.663300
0.926300 1.634400
0.953100 1.669500
0.979900 1.737300
1.006700 1.826900
1.033500 2.093700
1.060300 2.442300
1.087100 2.675500
1.113800 2.249400
1.140600 2.415300
1.167400 2.339000
1.194200 3.376400
1.221000 4.193100
1.247800 4.313100
1.274600 4.713000
1.301400 5.308700
1.328200 4.326700
1.355000 4.097300
1.381800 4.448000
1.408600 4.930700
1.435400 7.144800
1.462200 6.771400
1.489000 5.479100
1.515700 4.413600
1.542500 3.935400
1.569300 5.809400
1.596100 5.985500
1.622900 4.499800
1.649700 4.195100
1.676500 4.841900
1.703300 4.385300
1.730100 4.301500
1.756900 4.010100
1.783700 3.348300
1.810500 3.484200
1.837300 4.478600
1.864100 4.737100
1.890900 4.728300
1.917600 4.359600
1.944400 3.161800
1.971200 3.079500
1.998000 3.530200
2.024800 3.195500
2.051600 2.679700
2.078400 2.474000
2.105200 2.488600
2.132000 2.645000
2.158800 2.641000
2.185600 3.669500
2.212400 3.971000
2.239200 3.630500
2.266000 3.611100
2.292800 3.194600
2.319500 4.215200
2.346300 5.648600
2.373100 5.638700
2.399900 5.175700
2.426700 4.595700
2.453500 4.304200
2.480300 4.152200
2.507100 4.119100
2.533900 4.487000
2.560700 3.836900
2.587500 3.660900
2.614300 3.279300
2.641100 3.003400
2.667900 3.525400
2.694700 4.260000
2.721400 4.284600
2.748200 4.041100
2.775000 3.641100
2.801800 3.364600
2.828600 3.216800
2.855400 3.246900
2.882200 3.228400
2.909000 3.122800
2.935800 3.474900
2.962600 3.271500
2.989400 2.873100
3.016200 2.859300
3.043000 3.507800
3.069800 4.968400
3.096500 5.387300
3.123300 7.434300
3.150100 6.381200
3.176900 5.869200
3.203700 5.833100
3.230500 7.621600
3.257300 6.752700
3.284100 6.946600
3.310900 7.217600
3.337700 9.586400
3.364500 5.975700
3.391300 4.620300
3.418100 4.888800
3.444900 5.589600
3.471700 4.987600
3.498400 4.505000
3.525200 4.411500
3.552000 4.242100
3.578800 4.677400
3.605600 4.800100
3.632400 4.492000
3.659200 3.979900
3.686000 3.539800
3.712800 2.662100
3.739600 2.805200
3.766400 2.867900
3.793200 2.863800
3.820000 3.249000
3.846800 3.179200
3.873600 3.129900
3.900300 2.968400
3.927100 2.558200
3.953900 2.555800
3.980700 6.518300
4.007500 4.241100
4.034300 5.052200
4.061100 4.946500
4.087900 4.605300
4.114700 4.217800
4.141500 3.328100
4.168300 2.500000
4.195100 1.857100
4.221900 1.616000
4.248700 1.670200
4.275500 1.842400
4.302200 1.746700
4.329000 1.605400
4.355800 1.481700
4.382600 1.482500
4.409400 1.495000
4.436200 1.503600
4.463000 1.357600
4.489800 1.155400
4.516600 0.882000
4.543400 0.837600
4.570200 0.818500
4.597000 0.796500
4.623800 0.784900
4.650600 0.775900
4.677400 0.764700
4.704100 0.750400
4.730900 0.736800
4.757700 0.722400
4.784500 0.707100
4.811300 0.695300
4.838100 0.686200
4.864900 0.672100
4.891700 0.657200
4.918500 0.643000
4.945300 0.629400
4.972100 0.619500
4.998900 0.610300
5.025700 0.602400
5.052500 0.596000
5.079300 0.591700
5.106000 0.587900
5.132800 0.583800
5.159600 0.579700
5.186400 0.575500
5.213200 0.570300
5.240000 0.565800
5.266800 0.559600
5.293600 0.559900
5.320400 0.574600
5.347200 0.560000
5.374000 0.546400
5.400800 0.539500
5.427600 0.535700
5.454400 0.533000
5.481200 0.530800
5.507900 0.529200
5.534700 0.531300
5.561500 0.534000
5.588300 0.537700
5.615100 0.542400
5.641900 0.548400
5.668700 0.557600
5.695500 0.554600
5.722300 0.566100
5.749100 0.573100
5.775900 0.577500
5.802700 0.580800
5.829500 0.585600
5.856300 0.593800
5.883000 0.600800
5.909800 0.607100
5.936600 0.611100
5.963400 0.604900
5.990200 0.601800
6.017000 0.598000
6.043800 0.604800
6.070600 0.611200
6.097400 0.617800
6.124200 0.621900
6.151000 0.635800
6.177800 0.621000
6.204600 0.608300
6.231400 0.582000
6.258200 0.581400
6.284900 0.581100
6.311700 0.579300
6.338500 0.578000
6.365300 0.576900
6.392100 0.576000
6.418900 0.571800
6.445700 0.568500
6.472500 0.570700
6.499300 0.573700
6.526100 0.573600
6.552900 0.573000
6.579700 0.571300
6.606500 0.570300
6.633300 0.568200
6.660100 0.568000
6.686800 0.567800
6.713600 0.566700
6.740400 0.564900
6.767200 0.563400
6.794000 0.561700
6.820800 0.560800
6.847600 0.560100
6.874400 0.560100
6.901200 0.560000
6.928000 0.559600
6.954800 0.560300
6.981600 0.561700
7.008400 0.563400
7.035200 0.564900
7.062000 0.564800
7.088700 0.570200
7.115500 0.573700
7.142300 0.574400
7.169100 0.571600
7.195900 0.566500
7.222700 0.560900
7.249500 0.555600
7.276300 0.550000
7.303100 0.543400
7.329900 0.535700
7.356700 0.526100
7.383500 0.514500
7.410300 0.501000
7.437100 0.487500
7.463900 0.474400
7.490600 0.463000
7.517400 0.452600
7.544200 0.442400
7.571000 0.433200
7.597800 0.426500
7.624600 0.417800
7.651400 0.404300
7.678200 0.395700
7.705000 0.384500
7.731800 0.372700
7.758600 0.361600
7.785400 0.346100
7.812200 0.331900
7.839000 0.319500
7.865800 0.309100
7.892500 0.303100
7.919300 0.299700
7.946100 0.297400
7.972900 0.295900
7.999700 0.294700
8.026500 0.294900
8.053300 0.296300
8.080100 0.297400
8.106900 0.299200
8.133700 0.302400
8.160500 0.307200
8.187300 0.313000
8.214100 0.315700
8.240900 0.319300
8.267700 0.326100
8.294400 0.334200
8.321200 0.342900
8.348000 0.352900
8.374800 0.364000
8.401600 0.374600
8.428400 0.391500
8.455200 0.414400
8.482000 0.421500
8.508800 0.425300
8.535600 0.425700
8.562400 0.423500
8.589200 0.419800
8.616000 0.414500
8.642800 0.409100
8.669500 0.403300
8.696300 0.397100
8.723100 0.390600
8.749900 0.384000
8.776700 0.377200
8.803500 0.369800
8.830300 0.361700
8.857100 0.353000
8.883900 0.340800
8.910700 0.334000
8.937500 0.319500
8.964300 0.313700
8.991100 0.308800
9.017900 0.304300
9.044700 0.300200
9.071400 0.296300
9.098200 0.292500
9.125000 0.288700
9.151800 0.288800
9.178600 0.291400
9.205400 0.296500
9.232200 0.304200
9.259000 0.314700
9.285800 0.329000
9.312600 0.336900
9.339400 0.339500
9.366200 0.347700
9.393000 0.352800
9.419800 0.356500
9.446600 0.361800
9.473300 0.376900
9.500100 0.415300
9.526900 0.456400
9.553700 0.534900
9.580500 0.604200
9.607300 0.633500
9.634100 0.654800
9.660900 0.660400
9.687700 0.660500
9.714500 0.670600
9.741300 0.608600
9.768100 0.578100
9.794900 0.545800
9.821700 0.510400
9.848500 0.479500
9.875200 0.450800
9.902000 0.410600
9.928800 0.404000
9.955600 0.403900
9.982400 0.413300
10.009200 0.410500
10.036000 0.417400
10.062800 0.420900
10.089600 0.425400
10.116400 0.423800
10.143200 0.423100
10.170000 0.419100
10.196800 0.417200
10.223600 0.416400
10.250400 0.418400
10.277100 0.419200
10.303900 0.424700
10.330700 0.423500
10.357500 0.437600
10.384300 0.456800
10.411100 0.476100
10.437900 0.495700
10.464700 0.519600
10.491500 0.544500
10.518300 0.570200
10.545100 0.601900
10.571900 0.622800
10.598700 0.626900
10.625500 0.628900
10.652300 0.636200
10.679000 0.635900
10.705800 0.623000
10.732600 0.611300
10.759400 0.608100
10.786200 0.610200
10.813000 0.612600
10.839800 0.609000
10.866600 0.608600
10.893400 0.606400
10.920200 0.603500
10.947000 0.593700
10.973800 0.585900
11.000600 0.579100
11.027400 0.574000
11.054200 0.571200
11.080900 0.562800
11.107700 0.564300
11.134500 0.558900
11.161300 0.553800
11.188100 0.549500
11.214900 0.546000
11.241700 0.544900
11.268500 0.546100
11.295300 0.543900
11.322100 0.542100
11.348900 0.538400
11.375700 0.534200
11.402500 0.529700
11.429300 0.526800
11.456100 0.525400
11.482800 0.523500
11.509600 0.520300
11.536400 0.517300
11.563200 0.514900
11.590000 0.512900
11.616800 0.511200
11.643600 0.510400
11.670400 0.510000
11.697200 0.510100
11.724000 0.510400
11.750800 0.511000
11.777600 0.507700
11.804400 0.507500
11.831200 0.507300
11.857900 0.505800
11.884700 0.503700
11.911500 0.501000
11.938300 0.497700
11.965100 0.493800
11.991900 0.490300
12.018700 0.487300
12.045500 0.486100
12.072300 0.484400
12.099100 0.481200
12.125900 0.477500
12.152700 0.474500
12.179500 0.472800
12.206300 0.471600
12.233100 0.468500
12.259800 0.461300
12.286600 0.458500
12.313400 0.455200
12.340200 0.451800
12.367000 0.451500
12.393800 0.458000
12.420600 0.466600
12.447400 0.476700
12.474200 0.457200
12.501000 0.457500
12.527800 0.457400
12.554600 0.457000
12.581400 0.459300
12.608200 0.464300
12.635000 0.471500
12.661700 0.479800
12.688500 0.518400
12.715300 0.507100
12.742100 0.513000
12.768900 0.523100
12.795700 0.531400
12.822500 0.543400
12.849300 0.556900
12.876100 0.595600
12.902900 0.615500
12.929700 0.639100
12.956500 0.664600
12.983300 0.675300
13.010100 0.657800
13.036900 0.643800
13.063600 0.640600
13.090400 0.638000
13.117200 0.634300
13.144000 0.632900
13.170800 0.627700
13.197600 0.625800
13.224400 0.624600
13.251200 0.622800
13.278000 0.620500
13.304800 0.629400
13.331600 0.625500
13.358400 0.625200
13.385200 0.632200
13.412000 0.644600
13.438800 0.664400
13.465500 0.682200
13.492300 0.695900
13.519100 0.704300
13.545900 0.702300
13.572700 0.708500
13.599500 0.719900
13.626300 0.739700
13.653100 0.745100
13.679900 0.749700
13.706700 0.744200
13.733500 0.728900
13.760300 0.711200
13.787100 0.695500
13.813900 0.677900
13.840700 0.673100
13.867400 0.672400
13.894200 0.672600
13.921000 0.682500
13.947800 0.676400
13.974600 0.672500
14.001400 0.675400
14.028200 0.693800
14.055000 0.675200
14.081800 0.660700
14.108600 0.658900
14.135400 0.657800
14.162200 0.658800
14.189000 0.662200
14.215800 0.665800
14.242600 0.667200
14.269300 0.664100
14.296100 0.667600
14.322900 0.671500
14.349700 0.676300
14.376500 0.685100
14.403300 0.691300
14.430100 0.696800
14.456900 0.701200
14.483700 0.705200
14.510500 0.707700
14.537300 0.711700
14.564100 0.724100
14.590900 0.734700
14.617700 0.749100
14.644400 0.768500
14.671200 0.780700
14.698000 0.877000
14.724800 0.741600
14.751600 0.715400
14.778400 0.701500
14.805200 0.699800
14.832000 0.699400
14.858800 0.697000
14.885600 0.699500
14.912400 0.698500
14.939200 0.693300
14.966000 0.686900
14.992800 0.682100
15.019600 0.679300
15.046300 0.678800
15.073100 0.681800
15.099900 0.681100
15.126700 0.679500
15.153500 0.681100
15.180300 0.684100
15.207100 0.687500
15.233900 0.690200
15.260700 0.692000
15.287500 0.694200
15.314300 0.696000
15.341100 0.693200
15.367900 0.701100
15.394700 0.716500
15.421500 0.731200
15.448200 0.737000
15.475000 0.739400
15.501800 0.742200
15.528600 0.739600
15.555400 0.724800
15.582200 0.718400
15.609000 0.714300
15.635800 0.714800
15.662600 0.712900
15.689400 0.705100
15.716200 0.693200
15.743000 0.682100
15.769800 0.674900
15.796600 0.672700
15.823400 0.673700
15.850100 0.681200
15.876900 0.695800
15.903700 0.721000
15.930500 0.754400
15.957300 0.741200
15.984100 0.733000
16.010900 0.735700
16.037700 0.733000
16.064500 0.729600
16.091300 0.728000
16.118100 0.727700
16.144900 0.726700
16.171700 0.723300
16.198500 0.717300
16.225300 0.708600
16.252000 0.705200
16.278800 0.702700
16.305600 0.709300
16.332400 0.717500
16.359200 0.726000
16.386000 0.735600
16.412800 0.739600
16.439600 0.741600
16.466400 0.742400
16.493200 0.742300
16.520000 0.744100
16.546800 0.732000
16.573600 0.713100
16.600400 0.705900
16.627200 0.706200
16.653900 0.705300
16.680700 0.703000
16.707500 0.709300
16.734300 0.731000
16.761100 0.740000
16.787900 0.747300
16.814700 0.757200
16.841500 0.767800
16.868300 0.780600
16.895100 0.799300
16.921900 0.821100
16.948700 0.827700
16.975500 0.814100
17.002300 0.809000
17.029100 0.804100
17.055800 0.798000
17.082600 0.794200
17.109400 0.791900
17.136200 0.793300
17.163000 0.767800
17.189800 0.841400
17.216600 0.759300
17.243400 0.756300
17.270200 0.754700
17.297000 0.754300
17.323800 0.751700
17.350600 0.757700
17.377400 0.755500
17.404200 0.748800
17.430900 0.741800
17.457700 0.738800
17.484500 0.750200
17.511300 0.752000
17.538100 0.759000
17.564900 0.764700
17.591700 0.772000
17.618500 0.779600
17.645300 0.786800
17.672100 0.794300
17.698900 0.807800
17.725700 0.807500
17.752500 0.809600
17.779300 0.814400
17.806100 0.820200
17.832800 0.827000
17.859600 0.840300
17.886400 0.868800
17.913200 0.881000
17.940000 0.889600
17.966800 0.894800
17.993600 0.893400
18.020400 0.895200
18.047200 0.899000
18.074000 0.903400
18.100800 0.897300
18.127600 0.880300
18.154400 0.853700
18.181200 0.835700
18.208000 0.829700
18.234700 0.826500
18.261500 0.825100
18.288300 0.822100
18.315100 0.817200
18.341900 0.814400
18.368700 0.813500
18.395500 0.819700
18.422300 0.827500
18.449100 0.840800
18.475900 0.856300
18.502700 0.871100
18.529500 0.877800
18.556300 0.897200
18.583100 0.899300
18.609900 0.875300
18.636600 0.886800
18.663400 0.901100
18.690200 0.916600
18.717000 0.935200
18.743800 0.981500
18.770600 0.998800
18.797400 0.990900
18.824200 0.978300
18.851000 0.972900
18.877800 0.967500
18.904600 0.973900
18.931400 1.012400
18.958200 0.998900
18.985000 0.965200
19.011800 0.926200
19.038500 0.895100
19.065300 0.873800
19.092100 0.859000
19.118900 0.847100
19.145700 0.837400
19.172500 0.830100
19.199300 0.825900
19.226100 0.822800
19.252900 0.823900
19.279700 0.826700
19.306500 0.832600
19.333300 0.844000
19.360100 0.856500
19.386900 0.859000
19.413700 0.874000
19.440400 0.907100
19.467200 0.920400
19.494000 0.934000
19.520800 0.941500
19.547600 0.947900
19.574400 0.925200
19.601200 0.827500
19.628000 0.759900
19.654800 0.738700
19.681600 0.729100
19.708400 0.719400
19.735200 0.711200
19.762000 0.706100
19.788800 0.704800
19.815600 0.704000
19.842300 0.703800
19.869100 0.703300
19.895900 0.708800
19.922700 0.733100
19.949500 0.736500
19.976300 0.739000
20.003100 0.743000
20.029900 0.745800
20.056700 0.751200
20.083500 0.758600
20.110300 0.760700
20.137100 0.757000
20.163900 0.764600
20.190700 0.778600
20.217500 0.790500
20.244200 0.799500
20.271000 0.805200
20.297800 0.807200
20.324600 0.805800
20.351400 0.805100
20.378200 0.807100
20.405000 0.812300
20.431800 0.820200
20.458600 0.828700
20.485400 0.832200
20.512200 0.832700
20.539000 0.837000
20.565800 0.846900
20.592600 0.857400
20.619300 0.867700
20.646100 0.868800
20.672900 0.869100
20.699700 0.842300
20.726500 0.836800
20.753300 0.829100
20.780100 0.817700
20.806900 0.803900
20.833700 0.790000
20.860500 0.784200
20.887300 0.772600
20.914100 0.767800
20.940900 0.769900
20.967700 0.777000
20.994500 0.779600
21.021200 0.781000
21.048000 0.783000
21.074800 0.788700
21.101600 0.780600
21.128400 0.770300
21.155200 0.772300
21.182000 0.749900
21.208800 0.756100
21.235600 0.734100
21.262400 0.735300
21.289200 0.732000
21.316000 0.724900
21.342800 0.715600
21.369600 0.708000
21.396400 0.702400
21.423100 0.700300
21.449900 0.698800
21.476700 0.697300
21.503500 0.695600
21.530300 0.693900
21.557100 0.691700
21.583900 0.689400
21.610700 0.686700
21.637500 0.683800
21.664300 0.680700
21.691100 0.678800
21.717900 0.678900
21.744700 0.678500
21.771500 0.677900
21.798300 0.679200
21.825000 0.682100
21.851800 0.685800
21.878600 0.690700
21.905400 0.696700
21.932200 0.702100
21.959000 0.705700
21.985800 0.711200
22.012600 0.716700
22.039400 0.720000
22.066200 0.721300
22.093000 0.720100
22.119800 0.718500
22.146600 0.715900
22.173400 0.717100
22.200200 0.719300
22.226900 0.736200
22.253700 0.779400
22.280500 0.779400
22.307300 0.782700
22.334100 0.781700
22.360900 0.775600
22.387700 0.775000
22.414500 0.771600
22.441300 0.761200
22.468100 0.759600
22.494900 0.759800
22.521700 0.750800
22.548500 0.740900
22.575300 0.730400
22.602100 0.720300
22.628800 0.709400
22.655600 0.699000
22.682400 0.689400
22.709200 0.678400
22.736000 0.659400
22.762800 0.643400
22.789600 0.631500
22.816400 0.621800
22.843200 0.614800
22.870000 0.610400
22.896800 0.608000
22.923600 0.607700
22.950400 0.601800
22.977200 0.593100
23.004000 0.590700
23.030700 0.594100
23.057500 0.591000
23.084300 0.588900
23.111100 0.584000
23.137900 0.580400
23.164700 0.580500
23.191500 0.581600
23.218300 0.595200
23.245100 0.596100
23.271900 0.598300
23.298700 0.600600
23.325500 0.602000
23.352300 0.603700
23.379100 0.604600
23.405800 0.602800
23.432600 0.603800
23.459400 0.605900
23.486200 0.609700
23.513000 0.613200
23.539800 0.619000
23.566600 0.625700
23.593400 0.633500
23.620200 0.644400
23.647000 0.656600
23.673800 0.669300
23.700600 0.675000
23.727400 0.684500
23.754200 0.692000
23.781000 0.700200
23.807700 0.704700
23.834500 0.712300
23.861300 0.720700
23.888100 0.729400
23.914900 0.734200
23.941700 0.734600
23.968500 0.734900
23.995300 0.735100
24.022100 0.727300
24.048900 0.729600
24.075700 0.714200
24.102500 0.723800
24.129300 0.730000
24.156100 0.734800
24.182900 0.747300
24.209600 0.737600
24.236400 0.739700
24.263200 0.741400
24.290000 0.742500
24.316800 0.744400
24.343600 0.715600
24.370400 0.716400
24.397200 0.721200
24.424000 0.731400
24.450800 0.746400
24.477600 0.759200
24.504400 0.774200
24.531200 0.791200
24.558000 0.806500
24.584800 0.818000
24.611500 0.829900
24.638300 0.840100
24.665100 0.842400
24.691900 0.848300
24.718700 0.850500
24.745500 0.855900
24.772300 0.854900
24.799100 0.864200
24.825900 0.863200
24.852700 0.860800
24.879500 0.848000
24.906300 0.828000
24.933100 0.818600
24.959900 0.813400
24.986700 0.815500
25.013400 0.826200
25.040200 0.845500
25.067000 0.861900
25.093800 0.882200
25.120600 0.857400
25.147400 0.854500
25.174200 0.856000
25.201000 0.849800
25.227800 0.844500
25.254600 0.842400
25.281400 0.832000
25.308200 0.827200
25.335000 0.822400
25.361800 0.807300
25.388600 0.794100
25.415300 0.791700
25.442100 0.794600
25.468900 0.800400
25.495700 0.822200
25.522500 0.827300
25.549300 0.838400
25.576100 0.852500
25.602900 0.872500
25.629700 0.898500
25.656500 0.917400
25.683300 0.936300
25.710100 0.949800
25.736900 0.950500
25.763700 0.955000
25.790500 0.961700
25.817200 0.968600
25.844000 0.968700
25.870800 0.979900
25.897600 0.993700
25.924400 1.008500
25.951200 1.024800
25.978000 1.050000
26.004800 1.064300
26.031600 1.059800
26.058400 1.053800
26.085200 1.055900
26.112000 1.064600
26.138800 1.020300
26.165600 0.999000
26.192300 0.967400
26.219100 0.941700
26.245900 0.922000
26.272700 0.909800
26.299500 0.900100
26.326300 0.897800
26.353100 0.897900
26.379900 0.900200
26.406700 0.904000
26.433500 0.906600
26.460300 0.909900
26.487100 0.914900
26.513900 0.926500
26.540700 0.962400
26.567500 0.982900
26.594200 1.007000
26.621000 1.027900
26.647800 1.047200
26.674600 1.063100
26.701400 1.097600
26.728200 1.256900
26.755000 1.207800
26.781800 1.211700
26.808600 1.217100
26.835400 1.207900
26.862200 1.211200
26.889000 1.179800
26.915800 1.159200
26.942600 1.164400
26.969400 1.172900
26.996100 1.172100
27.022900 1.167600
27.049700 1.141800
27.076500 1.092600
27.103300 1.060400
27.130100 1.071900
27.156900 1.068000
27.183700 1.065100
27.210500 1.079200
27.237300 1.103200
27.264100 1.226100
27.290900 1.280300
27.317700 1.094500
27.344500 0.998200
27.371300 0.983700
27.398000 0.972800
27.424800 0.962400
27.451600 0.966500
27.478400 0.977600
27.505200 0.987400
27.532000 1.000400
27.558800 1.014800
27.585600 1.050400
27.612400 1.063800
27.639200 1.064000
27.666000 1.088100
27.692800 1.094200
27.719600 1.039200
27.746400 1.010800
27.773200 0.993600
27.799900 0.989000
27.826700 1.000200
27.853500 0.983000
27.880300 0.967400
27.907100 0.980300
27.933900 0.999500
27.960700 1.012300
27.987500 1.022000
28.014300 1.016700
28.041100 1.022200
28.067900 1.028100
28.094700 1.040100
28.121500 1.062500
28.148300 1.068200
28.175100 1.081500
28.201800 1.090700
28.228600 1.099900
28.255400 1.111100
28.282200 1.125000
28.309000 1.134100
28.335800 1.138400
28.362600 1.139600
28.389400 1.145000
28.416200 1.140900
28.443000 1.070200
28.469800 1.060400
28.496600 1.083200
28.523400 1.084900
28.550200 1.043600
28.577000 0.989600
28.603700 0.970800
28.630500 0.971500
28.657300 0.975600
28.684100 0.990300
28.710900 0.993800
28.737700 0.999400
28.764500 1.006000
28.791300 1.008100
28.818100 1.006800
28.844900 0.995100
28.871700 0.971000
28.898500 0.950100
28.925300 0.934500
28.952100 0.930400
28.978800 0.938900
29.005600 0.928100
29.032400 0.896900
29.059200 0.888500
29.086000 0.888400
29.112800 0.881600
29.139600 0.883100
29.166400 0.879600
29.193200 0.872400
29.220000 0.868900
29.246800 0.868300
29.273600 0.868600
29.300400 0.869500
29.327200 0.871800
29.354000 0.880700
29.380700 0.886400
29.407500 0.892500
29.434300 0.895600
29.461100 0.897100
29.487900 0.899100
29.514700 0.959000
29.541500 0.929100
29.568300 0.922800
29.595100 0.914600
29.621900 0.911800
29.648700 0.907000
29.675500 0.900800
29.702300 0.898200
29.729100 0.895800
29.755900 0.975400
29.782600 0.892500
29.809400 0.887000
29.836200 0.879500
29.863000 0.874100
29.889800 0.866700
29.916600 0.864600
29.943400 0.864700
29.970200 0.857100
29.997000 0.846700
30.023800 0.830900
30.050600 0.813200
30.077400 0.804100
30.104200 0.794900
30.131000 0.785000
30.157800 0.773900
30.184500 0.762800
30.211300 0.751000
30.238100 0.743900
30.264900 0.732800
30.291700 0.724900
30.318500 0.719700
30.345300 0.715600
30.372100 0.713300
30.398900 0.714500
30.425700 0.710900
30.452500 0.706100
30.479300 0.715100
30.506100 0.711000
30.532900 0.707300
30.559700 0.708700
30.586400 0.714100
30.613200 0.718500
30.640000 0.722200
30.666800 0.725500
30.693600 0.711900
30.720400 0.681600
30.747200 0.652100
30.774000 0.630300
30.800800 0.612600
30.827600 0.602400
30.854400 0.587000
30.881200 0.585100
30.908000 0.574100
30.934800 0.566400
30.961600 0.561200
30.988300 0.558700
31.015100 0.562400
31.041900 0.569600
31.068700 0.573000
31.095500 0.575900
31.122300 0.580200
31.149100 0.591000
31.175900 0.599200
31.202700 0.606600
31.229500 0.615700
31.256300 0.625100
31.283100 0.634000
31.309900 0.643100
31.336700 0.654000
31.363500 0.660600
31.390200 0.657300
31.417000 0.651900
31.443800 0.649100
31.470600 0.649200
31.497400 0.661100
31.524200 0.653600
31.551000 0.651700
31.577800 0.646200
31.604600 0.669800
31.631400 0.659700
31.658200 0.652900
31.685000 0.655500
31.711800 0.657000
31.738600 0.658800
31.765400 0.661800
31.792100 0.664800
31.818900 0.675600
31.845700 0.683300
31.872500 0.689000
31.899300 0.691800
31.926100 0.692400
31.952900 0.701800
31.979700 0.709700
32.006500 0.718900
32.033300 0.726400
32.060100 0.739500
32.086900 0.745100
32.113700 0.778200
32.140500 0.784300
32.167200 0.785300
32.194000 0.796700
32.220800 0.809100
32.247600 0.828600
32.274400 0.853700
32.301200 0.902000
32.328000 0.936000
32.354800 0.983400
32.381600 1.042800
32.408400 1.074400
32.435200 1.085400
32.462000 1.088100
32.488800 1.085100
32.515600 1.070300
32.542400 1.063600
32.569100 1.044900
32.595900 1.042600
32.622700 1.044400
32.649500 1.050400
32.676300 1.053000
32.703100 1.044500
32.729900 1.024600
32.756700 0.979500
32.783500 0.969000
32.810300 0.976300
32.837100 1.002100
32.863900 1.035900
32.890700 1.062700
32.917500 1.097400
32.944300 1.134700
32.971000 1.137700
32.997800 1.130700
33.024600 1.133200
33.051400 1.144000
33.078200 1.153100
33.105000 1.176400
33.131800 1.196600
33.158600 1.224300
33.185400 1.243500
33.212200 1.278800
33.239000 1.293600
33.265800 1.302600
33.292600 1.263700
33.319400 1.229000
33.346200 1.233000
33.372900 1.254500
33.399700 1.215400
33.426500 1.199500
33.453300 1.184300
33.480100 1.169500
33.506900 1.156800
33.533700 1.146500
33.560500 1.138600
33.587300 1.124800
33.614100 1.116300
33.640900 1.113000
33.667700 1.104700
33.694500 1.105800
33.721300 1.108300
33.748100 1.113700
33.774800 1.113300
33.801600 1.105800
33.828400 1.096200
33.855200 1.115600
33.882000 1.106400
33.908800 1.095400
33.935600 1.085600
33.962400 1.077800
33.989200 1.084900
34.016000 1.085100
34.042800 1.087500
34.069600 1.093100
34.096400 1.144000
34.123200 1.139900
34.150000 1.096800
34.176700 1.052700
34.203500 1.013000
34.230300 0.984900
34.257100 0.972300
34.283900 0.947300
34.310700 0.963400
34.337500 0.972100
34.364300 0.975000
34.391100 0.969500
34.417900 0.945400
34.444700 0.924700
34.471500 0.915100
34.498300 0.907800
34.525100 0.898700
34.551900 0.887700
34.578600 0.884500
34.605400 0.876600
34.632200 0.873800
34.659000 0.871900
34.685800 0.867200
34.712600 0.871200
34.739400 0.880200
34.766200 0.863700
34.793000 0.858400
34.819800 0.851700
34.846600 0.845500
34.873400 0.840700
34.900200 0.835500
34.927000 0.831000
34.953700 0.826900
34.980500 0.821200
35.007300 0.813300
35.034100 0.805900
35.060900 0.799000
35.087700 0.792400
35.114500 0.791600
35.141300 0.792400
35.168100 0.799100
35.194900 0.809100
35.221700 0.831400
35.248500 0.841900
35.275300 0.830700
35.302100 0.833800
35.328900 0.839000
35.355600 0.842400
35.382400 0.848300
35.409200 0.854400
35.436000 0.856200
35.462800 0.859400
35.489600 0.868600
35.516400 0.878200
35.543200 0.882000
35.570000 0.884200
35.596800 0.887800
35.623600 0.894000
35.650400 0.898000
35.677200 0.893100
35.704000 0.893400
35.730800 0.895300
35.757500 0.897500
35.784300 0.902100
35.811100 0.897400
35.837900 0.895300
35.864700 0.903100
35.891500 0.902800
35.918300 0.903100
35.945100 0.890700
35.971900 0.875700
35.998700 0.869600
36.025500 0.863600
36.052300 0.860100
36.079100 0.867800
36.105900 0.874100
36.132700 0.875300
36.159400 0.893200
36.186200 0.910600
36.213000 0.931000
36.239800 0.957800
36.266600 0.979200
36.293400 0.985100
36.320200 0.991900
36.347000 1.019700
36.373800 1.046400
36.400600 1.071900
36.427400 1.098000
36.454200 1.124000
36.481000 1.149600
36.507800 1.078700
36.534600 1.047000
36.561300 1.030000
36.588100 1.022800
36.614900 1.026500
36.641700 1.028900
36.668500 1.028900
36.695300 1.029400
36.722100 1.030400
36.748900 1.032600
36.775700 1.039400
36.802500 1.054300
36.829300 1.080900
36.856100 1.100200
36.882900 1.124200
36.909700 1.143700
36.936500 1.160500
36.963200 1.187000
36.990000 1.190300
37.016800 1.163800
37.043600 1.154300
37.070400 1.145000
37.097200 1.125400
37.124000 1.103300
37.150800 1.075500
37.177600 1.042300
37.204400 1.022000
37.231200 1.018600
37.258000 1.000700
37.284800 0.973600
37.311600 0.935600
37.338400 0.919900
37.365100 0.895200
37.391900 0.874600
37.418700 0.863200
37.445500 0.854700
37.472300 0.851400
37.499100 0.850700
37.525900 0.859000
37.552700 0.878200
37.579500 0.917800
37.606300 0.942100
37.633100 0.962100
37.659900 0.961600
37.686700 0.961400
37.713500 0.962500
37.740200 0.966200
37.767000 0.978800
37.793800 0.995600
37.820600 1.017700
37.847400 1.058300
37.874200 1.059000
37.901000 1.067800
37.927800 1.072800
37.954600 1.070700
37.981400 1.066600
38.008200 1.063500
38.035000 1.056700
38.061800 1.044700
38.088600 1.033200
38.115400 0.999700
38.142100 0.990100
38.168900 0.980000
38.195700 0.962100
38.222500 0.940400
38.249300 0.921700
38.276100 0.900500
38.302900 0.875200
38.329700 0.847000
38.356500 0.800200
38.383300 0.766400
38.410100 0.734700
38.436900 0.707400
38.463700 0.682800
38.490500 0.661500
38.517300 0.642600
38.544000 0.629300
38.570800 0.614400
38.597600 0.600400
38.624400 0.588600
38.651200 0.579400
38.678000 0.572300
38.704800 0.565300
38.731600 0.557700
38.758400 0.549800
38.785200 0.541500
38.812000 0.533900
38.838800 0.526400
38.865600 0.517800
38.892400 0.506400
38.919200 0.493500
38.945900 0.479900
38.972700 0.467300
38.999500 0.455600
39.026300 0.443800
39.053100 0.425800
39.079900 0.407400
39.106700 0.389000
39.133500 0.370900
39.160300 0.352900
39.187100 0.334900
39.213900 0.317100
39.240700 0.304300
39.267500 0.294900
39.294300 0.287300
39.321100 0.280400
39.347800 0.273400
39.374600 0.266100
39.401400 0.258400
39.428200 0.250600
39.455000 0.243200
39.481800 0.237900
39.508600 0.237600
39.535400 0.234400
39.562200 0.202700
39.589000 0.192400
39.615800 0.181900
39.642600 0.171100
39.669400 0.160200
39.696200 0.153800
39.723000 0.151500
39.749700 0.149000
39.776500 0.146600
39.803300 0.144000
39.830100 0.141600
39.856900 0.139300
39.883700 0.137000
39.910500 0.134700
39.937300 0.132400
39.964100 0.130100
39.990900 0.127600
40.017700 0.125000
40.044500 0.122300
40.071300 0.119600
40.098100 0.117100
40.124900 0.115000
40.151600 0.113300
40.178400 0.111800
40.205200 0.110300
40.232000 0.109000
40.258800 0.107200
40.285600 0.104800
40.312400 0.102600
40.339200 0.100900
40.366000 0.099300
40.392800 0.097900
40.419600 0.096600
40.446400 0.094400
40.473200 0.092200
40.500000 0.089900
40.526700 0.087600
40.553500 0.085300
40.580300 0.084100
40.607100 0.083300
40.633900 0.081800
40.660700 0.079900
40.687500 0.077500
40.714300 0.075300
40.741100 0.073200
40.767900 0.071400
40.794700 0.069700
40.821500 0.068200
40.848300 0.066900
40.875100 0.065800
40.901900 0.064800
40.928600 0.064100
40.955400 0.063900
40.982200 0.063700
41.009000 0.063500
41.035800 0.063300
41.062600 0.063100
41.089400 0.062800
41.116200 0.062500
41.143000 0.062100
41.169800 0.061800
41.196600 0.061400
41.223400 0.061000
41.250200 0.059900
41.277000 0.058200
41.303800 0.056700
41.330500 0.055300
41.357300 0.054000
41.384100 0.052900
41.410900 0.051900
41.437700 0.051200
41.464500 0.050800
41.491300 0.050400
41.518100 0.050000
41.544900 0.049400
41.571700 0.048800
41.598500 0.048200
41.625300 0.047500
41.652100 0.046700
41.678900 0.045900
41.705700 0.045000
41.732400 0.044100
41.759200 0.043100
41.786000 0.042100
41.812800 0.041400
41.839600 0.041500
41.866400 0.043400
41.893200 0.043900
41.920000 0.043800
41.946800 0.043900
41.973600 0.043500
42.000400 0.042700
42.027200 0.041500
42.054000 0.039800
42.080800 0.037600
42.107600 0.035000
42.134300 0.032000
42.161100 0.026500
42.187900 0.025700
42.214700 0.024900
42.241500 0.024200
42.268300 0.023400
42.295100 0.022700
42.321900 0.022100
42.348700 0.021400
42.375500 0.020800
42.402300 0.020300
42.429100 0.019700
42.455900 0.019200
42.482700 0.018700
42.509500 0.018200
42.536200 0.017700
42.563000 0.017300
42.589800 0.016900
42.616600 0.016500
42.643400 0.016100
42.670200 0.015700
42.697000 0.015400
42.723800 0.015000
42.750600 0.014700
42.777400 0.014300
42.804200 0.014000
42.831000 0.013700
42.857800 0.013400
42.884600 0.013100
42.911400 0.012800
42.938100 0.012500
42.964900 0.012200
42.991700 0.011900
43.018500 0.011600
43.045300 0.011400
43.072100 0.011100
43.098900 0.010800
43.125700 0.010500
43.152500 0.010300
43.179300 0.010000
43.206100 0.009700
43.232900 0.009400
43.259700 0.009100
43.286500 0.008800
43.313300 0.008500
43.340000 0.008100
43.366800 0.007800
43.393600 0.007400
43.420400 0.007100
43.447200 0.006700
43.474000 0.006400
43.500800 0.006000
43.527600 0.005700
43.554400 0.005300
43.581200 0.005000
43.608000 0.004700
43.634800 0.004300
43.661600 0.004000
43.688400 0.003600
43.715100 0.003200
43.741900 0.002900
43.768700 0.002500
43.795500 0.002200
43.822300 0.001700
43.849100 0.001300
43.875900 0.000900
43.902700 0.000600
43.929500 0.000300
43.956300 0.000100
43.983100 0.000000
44.009900 0.000000
44.036700 0.000000
44.063500 0.000000
44.090300 0.000000
44.117000 0.000000
44.143800 0.000000
44.170600 0.000000
44.197400 0.000000
44.224200 0.000000
44.251000 0.000000
44.277800 0.000000
44.304600 0.000000
44.331400 0.000000
44.358200 0.000000
44.385000 0.000000
44.411800 0.000000
44.438600 0.000000
44.465400 0.000000
44.492200 0.000000
44.518900 0.000000
44.545700 0.000000
44.572500 0.000000
44.599300 0.000000
44.626100 0.000000
44.652900 0.000000
44.679700 0.000000
44.706500 0.000000
44.733300 0.000000
44.760100 0.000000
44.786900 0.000000
44.813700 0.000000
44.840500 0.000000
44.867300 0.000000
44.894100 0.000000
44.920800 0.000000
44.947600 0.000000
44.974400 0.000000
45.001200 0.000000
45.028000 0.000000
45.054800 0.000000
45.081600 0.000000
45.108400 0.000000
45.135200 0.000000
45.162000 0.000000
45.188800 0.000000
45.215600 0.000000
45.242400 0.000000
45.269200 0.000000
45.296000 0.000000
45.322700 0.000000
45.349500 0.000000
45.376300 0.000000
45.403100 0.000000
45.429900 0.000000
45.456700 0.000000
45.483500 0.000000
45.510300 0.000000
45.537100 0.000000
45.563900 0.000000
45.590700 0.000000
45.617500 0.000000
45.644300 0.000000
45.671100 0.000000
45.697900 0.000000
45.724600 0.000000
45.751400 0.000000
45.778200 0.000000
45.805000 0.000000
45.831800 0.000000
45.858600 0.000000
45.885400 0.000000
45.912200 0.000000
45.939000 0.000000
45.965800 0.000000
45.992600 0.000000
46.019400 0.000000
46.046200 0.000000
46.073000 0.000000
46.099800 0.000000
46.126500 0.000000
46.153300 0.000000
46.180100 0.000000
46.206900 0.000000
46.233700 0.000000
46.260500 0.000000
46.287300 0.000000
46.314100 0.000000
46.340900 0.000000
46.367700 0.000000
46.394500 0.000000
46.421300 0.000000
46.448100 0.000000
e
