set title 'mp-1079661 - Density of States'
set xlabel 'Energy (eV)'
set ylabel 'DOS (states/eV)'
set grid
set xrange [-10:10]
set yrange [0:3.601]
set xzeroaxis lt -1
set terminal png size 800,600
set output 'mp-1079661_dos_gnuplot.png'
plot '-' using 1:2 with lines title 'DOS'
-14.857800 0.000000
-14.827500 0.000000
-14.797300 0.000000
-14.767000 0.000000
-14.736800 0.000000
-14.706500 0.000000
-14.676300 0.000000
-14.646000 0.000000
-14.615800 0.000000
-14.585500 0.000000
-14.555300 0.000000
-14.525000 0.000000
-14.494800 0.000000
-14.464500 0.000000
-14.434300 0.000000
-14.404000 0.000000
-14.373800 0.000000
-14.343500 0.000000
-14.313300 0.000000
-14.283000 0.000000
-14.252800 0.000000
-14.222500 0.000000
-14.192300 0.000000
-14.162000 0.000000
-14.131800 0.000000
-14.101500 0.000000
-14.071300 0.000000
-14.041000 0.000000
-14.010800 0.000000
-13.980500 0.000000
-13.950300 0.000000
-13.920000 0.000000
-13.889800 0.000000
-13.859500 0.000000
-13.829300 0.000000
-13.799000 0.000000
-13.768800 0.000000
-13.738500 0.000000
-13.708300 0.000000
-13.678000 0.000000
-13.647800 0.000000
-13.617500 0.000000
-13.587300 0.000000
-13.557000 0.000000
-13.526800 0.000000
-13.496500 0.000000
-13.466300 0.000000
-13.436000 0.000000
-13.405800 0.000000
-13.375500 0.000000
-13.345300 0.000000
-13.315000 0.000000
-13.284800 0.000000
-13.254500 0.000000
-13.224300 0.000000
-13.194000 0.000000
-13.163800 0.000000
-13.133500 0.000000
-13.103300 0.000000
-13.073000 0.000000
-13.042800 0.000000
-13.012500 0.000000
-12.982300 0.000000
-12.952000 0.000000
-12.921800 0.000000
-12.891500 0.000000
-12.861300 0.000000
-12.831000 0.000000
-12.800800 0.000000
-12.770500 0.000000
-12.740300 0.000000
-12.710000 0.000000
-12.679800 0.000000
-12.649500 0.000000
-12.619300 0.000000
-12.589000 0.000000
-12.558800 0.000000
-12.528500 0.000000
-12.498300 0.000000
-12.468000 0.000000
-12.437800 0.000000
-12.407500 0.000000
-12.377300 0.000000
-12.347000 0.000000
-12.316800 0.000000
-12.286500 0.000000
-12.256300 0.000000
-12.226000 0.000000
-12.195800 0.000000
-12.165500 0.000000
-12.135300 0.000000
-12.105000 0.000700
-12.074800 0.042500
-12.044500 0.130100
-12.014300 0.234700
-11.984000 0.339300
-11.953800 0.362000
-11.923500 0.319800
-11.893300 0.261900
-11.863000 0.270700
-11.832800 0.279600
-11.802500 0.288400
-11.772300 0.297200
-11.742000 0.306000
-11.711800 0.314800
-11.681500 0.323600
-11.651300 0.326500
-11.621000 0.320400
-11.590800 0.309700
-11.560500 0.299000
-11.530300 0.288700
-11.500000 0.284100
-11.469800 0.285700
-11.439500 0.288800
-11.409300 0.292000
-11.379000 0.295100
-11.348800 0.298200
-11.318500 0.301400
-11.288300 0.304500
-11.258000 0.307700
-11.227800 0.310800
-11.197500 0.314000
-11.167300 0.317100
-11.137000 0.320300
-11.106800 0.319200
-11.076500 0.310100
-11.046300 0.300900
-11.016000 0.300300
-10.985800 0.299800
-10.955500 0.299300
-10.925300 0.298700
-10.895000 0.298200
-10.864800 0.297600
-10.834500 0.297100
-10.804300 0.305200
-10.774000 0.333100
-10.743800 0.371900
-10.713500 0.419000
-10.683300 0.473300
-10.653000 0.467100
-10.622800 0.483900
-10.592500 0.506100
-10.562300 0.532100
-10.532000 0.568600
-10.501800 0.601200
-10.471500 0.625500
-10.441300 0.639000
-10.411000 0.618000
-10.380800 0.619400
-10.350500 0.621200
-10.320300 0.619700
-10.290000 0.616700
-10.259800 0.612400
-10.229500 0.610400
-10.199300 0.610700
-10.169000 0.611000
-10.138800 0.610500
-10.108500 0.607800
-10.078300 0.605800
-10.048000 0.604700
-10.017800 0.604800
-9.987500 0.606700
-9.957300 0.610400
-9.927000 0.614200
-9.896800 0.617900
-9.866500 0.621600
-9.836300 0.624300
-9.806000 0.623200
-9.775800 0.623900
-9.745500 0.624900
-9.715300 0.625700
-9.685000 0.626300
-9.654700 0.626500
-9.624500 0.626400
-9.594200 0.625300
-9.564000 0.622000
-9.533700 0.622900
-9.503500 0.624100
-9.473200 0.625400
-9.443000 0.627000
-9.412700 0.624600
-9.382500 0.621700
-9.352200 0.622300
-9.322000 0.623100
-9.291700 0.624200
-9.261500 0.625600
-9.231200 0.626900
-9.201000 0.628300
-9.170700 0.629700
-9.140500 0.631900
-9.110200 0.645300
-9.080000 0.667100
-9.049700 0.692500
-9.019500 0.721600
-8.989200 0.726900
-8.959000 0.734100
-8.928700 0.741300
-8.898500 0.751000
-8.868200 0.761100
-8.838000 0.770900
-8.807700 0.780500
-8.777500 0.791100
-8.747200 0.802800
-8.717000 0.815000
-8.686700 0.825300
-8.656500 0.834800
-8.626200 0.843900
-8.596000 0.852600
-8.565700 0.862000
-8.535500 0.872600
-8.505200 0.886200
-8.475000 0.901500
-8.444700 0.917900
-8.414500 0.940000
-8.384200 0.959900
-8.354000 0.976100
-8.323700 0.978000
-8.293500 0.962100
-8.263200 0.966700
-8.233000 0.971000
-8.202700 0.975500
-8.172500 0.977900
-8.142200 0.979300
-8.112000 0.980800
-8.081700 0.981800
-8.051500 0.982200
-8.021200 0.981100
-7.991000 0.979400
-7.960700 0.977700
-7.930500 0.975900
-7.900200 0.976600
-7.870000 0.978800
-7.839700 0.981500
-7.809500 0.985200
-7.779200 0.990000
-7.749000 0.994900
-7.718700 0.999900
-7.688500 1.004900
-7.658200 1.010100
-7.628000 1.015100
-7.597700 1.020000
-7.567500 1.024800
-7.537200 1.029300
-7.507000 1.032700
-7.476700 1.035800
-7.446500 1.040200
-7.416200 1.044300
-7.386000 1.048500
-7.355700 1.052600
-7.325500 1.057100
-7.295200 1.061900
-7.265000 1.068200
-7.234700 1.181800
-7.204500 1.190200
-7.174200 1.179800
-7.144000 1.169500
-7.113700 1.159100
-7.083500 1.148700
-7.053200 1.140000
-7.023000 1.133700
-6.992700 1.128000
-6.962500 1.122600
-6.932200 1.118000
-6.902000 1.126000
-6.871700 1.217900
-6.841500 1.624000
-6.811200 1.499900
-6.781000 1.358100
-6.750700 1.215600
-6.720500 1.088900
-6.690200 1.067600
-6.660000 1.078100
-6.629700 1.090700
-6.599500 1.105300
-6.569200 1.120600
-6.539000 1.137700
-6.508700 1.156800
-6.478500 1.178700
-6.448200 1.206400
-6.418000 1.234500
-6.387700 1.262400
-6.357500 1.291000
-6.327200 1.320100
-6.297000 1.355500
-6.266700 1.425600
-6.236500 1.601200
-6.206200 1.671300
-6.176000 1.542800
-6.145700 1.407900
-6.115500 1.195500
-6.085200 1.139600
-6.055000 1.142600
-6.024700 1.151000
-5.994500 1.158600
-5.964200 1.181900
-5.934000 1.280800
-5.903700 1.366700
-5.873500 1.436400
-5.843200 1.494700
-5.813000 1.922500
-5.782700 1.156200
-5.752500 1.207600
-5.722200 1.205100
-5.692000 1.188000
-5.661700 1.144300
-5.631500 1.119000
-5.601200 1.095600
-5.571000 1.072400
-5.540700 1.050200
-5.510500 1.028700
-5.480200 1.013200
-5.450000 1.007900
-5.419700 1.008700
-5.389500 1.014800
-5.359200 1.027800
-5.329000 1.044600
-5.298700 1.064800
-5.268500 1.098400
-5.238200 1.226700
-5.208000 1.446800
-5.177700 1.573300
-5.147500 1.543900
-5.117200 1.514900
-5.087000 1.531900
-5.056700 1.561900
-5.026500 1.650600
-4.996200 1.684600
-4.966000 1.670600
-4.935700 1.502500
-4.905500 1.326900
-4.875200 1.256600
-4.845000 1.209100
-4.814700 1.119600
-4.784500 1.039700
-4.754200 0.981100
-4.724000 0.937900
-4.693700 0.915500
-4.663500 0.913900
-4.633200 1.109400
-4.603000 1.350200
-4.572700 1.695200
-4.542500 1.878700
-4.512200 1.334900
-4.482000 1.084300
-4.451700 0.920700
-4.421500 0.752500
-4.391200 0.656200
-4.361000 0.592100
-4.330700 0.535400
-4.300500 0.484500
-4.270200 0.421700
-4.240000 0.384600
-4.209700 0.388700
-4.179500 0.393500
-4.149200 0.399600
-4.119000 0.406500
-4.088700 0.414300
-4.058500 0.422800
-4.028200 0.432100
-3.998000 0.442300
-3.967700 0.460300
-3.937500 0.497400
-3.907200 0.550000
-3.877000 0.623800
-3.846700 0.741900
-3.816500 1.486100
-3.786200 1.529500
-3.756000 1.532200
-3.725700 1.416900
-3.695500 1.338300
-3.665200 1.245100
-3.635000 1.132800
-3.604700 1.157900
-3.574500 1.213600
-3.544200 1.304700
-3.514000 1.511700
-3.483700 1.500500
-3.453500 1.553000
-3.423200 1.673200
-3.393000 2.405300
-3.362700 2.319300
-3.332500 2.167700
-3.302200 2.093100
-3.272000 2.208100
-3.241700 2.326800
-3.211500 2.381100
-3.181200 2.324300
-3.151000 1.852600
-3.120700 1.396900
-3.090500 1.265300
-3.060200 1.293000
-3.030000 1.430700
-2.999700 1.422400
-2.969500 1.081300
-2.939200 0.902500
-2.909000 0.828300
-2.878700 0.793100
-2.848500 0.768400
-2.818200 0.758600
-2.788000 0.761400
-2.757700 0.773600
-2.727500 0.796100
-2.697200 0.823100
-2.667000 0.853600
-2.636700 0.890300
-2.606400 0.934000
-2.576200 0.987500
-2.545900 1.065300
-2.515700 1.195200
-2.485400 1.499000
-2.455200 1.880200
-2.424900 1.746100
-2.394700 1.198200
-2.364400 1.141000
-2.334200 1.148400
-2.303900 1.249400
-2.273700 1.454300
-2.243400 1.520300
-2.213200 1.590300
-2.182900 1.838300
-2.152700 1.820200
-2.122400 1.856600
-2.092200 1.972900
-2.061900 2.088500
-2.031700 2.169900
-2.001400 2.178400
-1.971200 2.118200
-1.940900 2.117800
-1.910700 2.131200
-1.880400 2.151100
-1.850200 2.163400
-1.819900 2.080300
-1.789700 1.914000
-1.759400 1.756300
-1.729200 1.648500
-1.698900 1.579100
-1.668700 1.527900
-1.638400 1.520100
-1.608200 1.488500
-1.577900 1.491200
-1.547700 1.448400
-1.517400 1.332000
-1.487200 1.320700
-1.456900 1.341600
-1.426700 1.388300
-1.396400 1.440800
-1.366200 1.545900
-1.335900 1.487500
-1.305700 1.537800
-1.275400 1.733000
-1.245200 1.823800
-1.214900 1.924300
-1.184700 1.992200
-1.154400 2.023500
-1.124200 2.033200
-1.093900 2.146500
-1.063700 2.234800
-1.033400 2.082500
-1.003200 2.189300
-0.972900 1.850600
-0.942700 1.508500
-0.912400 1.313600
-0.882200 1.159900
-0.851900 1.061400
-0.821700 1.037700
-0.791400 1.017300
-0.761200 1.018200
-0.730900 0.996100
-0.700700 0.965700
-0.670400 0.935900
-0.640200 0.906800
-0.609900 0.878300
-0.579700 0.848700
-0.549400 0.816900
-0.519200 0.769800
-0.488900 0.771100
-0.458700 0.771200
-0.428400 0.770100
-0.398200 0.769400
-0.367900 0.769400
-0.337700 0.769500
-0.307400 0.770000
-0.277200 0.771400
-0.246900 0.919800
-0.216700 1.213500
-0.186400 1.098400
-0.156200 1.091400
-0.125900 1.088900
-0.095700 1.090900
-0.065400 1.102600
-0.035200 1.121900
-0.004900 1.144800
0.025300 1.168600
0.055600 1.193000
0.085800 1.216700
0.116100 1.241700
0.146300 1.275400
0.176600 1.302800
0.206800 1.330700
0.237100 1.359700
0.267300 1.388300
0.297600 1.396800
0.327800 1.386400
0.358100 1.382300
0.388300 1.478500
0.418600 1.848100
0.448800 2.102100
0.479100 2.268800
0.509300 2.461400
0.539600 2.420800
0.569800 2.357900
0.600100 2.424400
0.630300 2.623300
0.660600 2.662800
0.690800 2.534000
0.721100 2.396800
0.751300 2.320100
0.781600 2.270000
0.811800 2.271900
0.842100 2.237400
0.872300 2.203200
0.902600 2.167900
0.932800 2.138300
0.963100 2.108700
0.993300 2.054300
1.023600 1.990200
1.053800 1.896000
1.084100 1.887700
1.114300 1.886000
1.144600 1.892800
1.174800 1.914400
1.205100 1.960500
1.235300 2.053300
1.265600 2.200600
1.295800 2.298600
1.326100 2.418500
1.356300 2.552800
1.386600 2.364100
1.416800 2.242400
1.447100 2.189000
1.477300 2.155000
1.507600 2.161100
1.537800 2.186300
1.568100 2.215400
1.598300 2.151000
1.628600 2.130300
1.658800 2.226000
1.689100 2.103500
1.719300 1.980400
1.749600 1.979400
1.779800 2.120700
1.810100 2.295900
1.840300 2.432300
1.870600 2.512800
1.900800 2.474100
1.931100 2.350600
1.961300 2.307800
1.991600 2.270000
2.021800 2.255100
2.052100 2.261900
2.082300 2.272800
2.112600 2.273000
2.142800 2.227200
2.173100 2.152900
2.203300 2.051100
2.233600 2.033500
2.263800 2.007000
2.294100 2.013600
2.324300 2.042000
2.354600 2.109600
2.384800 2.298800
2.415100 2.333400
2.445300 2.411800
2.475600 2.491600
2.505800 2.596200
2.536100 2.809300
2.566300 2.838400
2.596600 2.831400
2.626800 2.946100
2.657100 2.961700
2.687300 3.014900
2.717600 3.015200
2.747800 2.976200
2.778100 2.983500
2.808300 3.058400
2.838600 3.123400
2.868800 3.116600
2.899100 3.076800
2.929300 2.813900
2.959600 2.621900
2.989800 2.546300
3.020100 2.520900
3.050300 2.453800
3.080600 2.425100
3.110800 2.410700
3.141100 2.408400
3.171300 2.446900
3.201600 2.494700
3.231800 2.417100
3.262100 2.392000
3.292300 2.391800
3.322600 2.421200
3.352800 2.469900
3.383100 2.520300
3.413300 2.573000
3.443600 2.619400
3.473800 2.658600
3.504100 2.692200
3.534300 2.663500
3.564600 2.628700
3.594800 2.626300
3.625100 2.639200
3.655300 2.689300
3.685600 2.740900
3.715800 2.853500
3.746100 2.928700
3.776300 2.991200
3.806600 3.080000
3.836800 3.115700
3.867100 3.169600
3.897300 3.211700
3.927600 3.228900
3.957800 3.191400
3.988100 3.061600
4.018300 3.020500
4.048600 2.992600
4.078800 2.983800
4.109100 2.967600
4.139300 2.961100
4.169600 2.967900
4.199800 2.935500
4.230100 2.860500
4.260300 2.840000
4.290600 2.832200
4.320800 2.835100
4.351100 2.825900
4.381300 2.791600
4.411600 2.821500
4.441800 2.923900
4.472100 3.035000
4.502400 3.084400
4.532600 3.035900
4.562900 2.942900
4.593100 2.850400
4.623400 2.803300
4.653600 2.766900
4.683900 2.736800
4.714100 2.724500
4.744400 2.707600
4.774600 2.687700
4.804900 2.674100
4.835100 2.662500
4.865400 2.652400
4.895600 2.649200
4.925900 2.653100
4.956100 2.665300
4.986400 2.694300
5.016600 2.708200
5.046900 2.713100
5.077100 2.709200
5.107400 2.704400
5.137600 2.691300
5.167900 2.684800
5.198100 2.689100
5.228400 2.690900
5.258600 2.689500
5.288900 2.683000
5.319100 2.647000
5.349400 2.612000
5.379600 2.579900
5.409900 2.546600
5.440100 2.530000
5.470400 2.553700
5.500600 2.611900
5.530900 2.816300
5.561100 2.970200
5.591400 3.273800
5.621600 2.975400
5.651900 2.973700
5.682100 2.998900
5.712400 3.051600
5.742600 3.008800
5.772900 2.984400
5.803100 2.978600
5.833400 2.965900
5.863600 2.963900
5.893900 2.947200
5.924100 3.095300
5.954400 3.217800
5.984600 3.090600
6.014900 2.931300
6.045100 2.714100
6.075400 2.604300
6.105600 2.510600
6.135900 2.433500
6.166100 2.366900
6.196400 2.294900
6.226600 2.228000
6.256900 2.176600
6.287100 2.140500
6.317400 2.104200
6.347600 2.067600
6.377900 2.030100
6.408100 1.990500
6.438400 1.948200
6.468600 1.915000
6.498900 1.890300
6.529100 1.873800
6.559400 1.868500
6.589600 1.863400
6.619900 1.848900
6.650100 1.828900
6.680400 1.805900
6.710600 1.782000
6.740900 1.757800
6.771100 1.733100
6.801400 1.709400
6.831600 1.686400
6.861900 1.664100
6.892100 1.661300
6.922400 1.684000
6.952600 1.683800
6.982900 1.691400
7.013100 1.678300
7.043400 1.631500
7.073600 1.580800
7.103900 1.528600
7.134100 1.524800
7.164400 1.465400
7.194600 1.424700
7.224900 1.392700
7.255100 1.367500
7.285400 1.359800
7.315600 1.373400
7.345900 1.397700
7.376100 1.440700
7.406400 1.485900
7.436600 1.517600
7.466900 1.541200
7.497100 1.558000
7.527400 1.559700
7.557600 1.557600
7.587900 1.557000
7.618100 1.542200
7.648400 1.526600
7.678600 1.511500
7.708900 1.492000
7.739100 1.463300
7.769400 1.437700
7.799600 1.378200
7.829900 1.331500
7.860100 1.284000
7.890400 1.231000
7.920600 1.154100
7.950900 1.109300
7.981100 1.063500
8.011400 1.033800
8.041600 1.052100
8.071900 1.045700
8.102100 1.020500
8.132400 0.987300
8.162600 0.965900
8.192900 0.933000
8.223100 0.881000
8.253400 0.829700
8.283600 0.784400
8.313900 0.737900
8.344100 0.701100
8.374400 0.670800
8.404600 0.645800
8.434900 0.628600
8.465100 0.610900
8.495400 0.592200
8.525600 0.574900
8.555900 0.557000
8.586100 0.539400
8.616400 0.526000
8.646600 0.500300
8.676900 0.476900
8.707100 0.454900
8.737400 0.436600
8.767600 0.425400
8.797900 0.419200
8.828100 0.413100
8.858400 0.407100
8.888600 0.401000
8.918900 0.394900
8.949100 0.388900
8.979400 0.382800
9.009600 0.376700
9.039900 0.370600
9.070100 0.364500
9.100400 0.358500
9.130600 0.352400
9.160900 0.352500
9.191100 0.359200
9.221400 0.365600
9.251600 0.365300
9.281900 0.362200
9.312100 0.357700
9.342400 0.352900
9.372600 0.348200
9.402900 0.343400
9.433100 0.338600
9.463400 0.333800
9.493600 0.329000
9.523900 0.324300
9.554100 0.319500
9.584400 0.314700
9.614600 0.309900
9.644900 0.305200
9.675100 0.300400
9.705400 0.295600
9.735600 0.290800
9.765900 0.286000
9.796100 0.281300
9.826400 0.276500
9.856600 0.271700
9.886900 0.267500
9.917100 0.267700
9.947400 0.271900
9.977600 0.282100
10.007900 0.293400
10.038100 0.304700
10.068400 0.301600
10.098600 0.300200
10.128900 0.299800
10.159100 0.296700
10.189400 0.293200
10.219600 0.291100
10.249900 0.287100
10.280100 0.275900
10.310400 0.264700
10.340600 0.253500
10.370900 0.242300
10.401100 0.231100
10.431400 0.219900
10.461600 0.208700
10.491900 0.205600
10.522100 0.236900
10.552400 0.239800
10.582600 0.235500
10.612900 0.238900
10.643100 0.207600
10.673400 0.164700
10.703600 0.121900
10.733900 0.082400
10.764100 0.053300
10.794400 0.030700
10.824600 0.013600
10.854900 0.002300
10.885100 0.000000
10.915400 0.000000
10.945600 0.000000
10.975900 0.000000
11.006100 0.000000
11.036400 0.000000
11.066600 0.000000
11.096900 0.000000
11.127100 0.000000
11.157400 0.000000
11.187600 0.000000
11.217900 0.000000
11.248100 0.000000
11.278400 0.000000
11.308600 0.000000
11.338900 0.000000
11.369100 0.000000
11.399400 0.000000
11.429600 0.000000
11.459900 0.000000
11.490100 0.000000
11.520400 0.000000
11.550700 0.000000
11.580900 0.000000
11.611200 0.000000
11.641400 0.000000
11.671700 0.000000
11.701900 0.000000
11.732200 0.000000
11.762400 0.000000
11.792700 0.000000
11.822900 0.000000
11.853200 0.000000
11.883400 0.000000
11.913700 0.000000
11.943900 0.000000
11.974200 0.000000
12.004400 0.000000
12.034700 0.000000
12.064900 0.000000
12.095200 0.000000
12.125400 0.000000
12.155700 0.000000
12.185900 0.000000
12.216200 0.000000
12.246400 0.000000
12.276700 0.000000
12.306900 0.000000
12.337200 0.000000
12.367400 0.000000
12.397700 0.000000
12.427900 0.000000
12.458200 0.000000
12.488400 0.000000
12.518700 0.000000
12.548900 0.000000
12.579200 0.000000
12.609400 0.000000
12.639700 0.000000
12.669900 0.000000
12.700200 0.000000
12.730400 0.000000
12.760700 0.000000
12.790900 0.000000
12.821200 0.000000
12.851400 0.000000
12.881700 0.000000
12.911900 0.000000
12.942200 0.000000
12.972400 0.000000
13.002700 0.000000
13.032900 0.000000
13.063200 0.000000
13.093400 0.000000
13.123700 0.000000
13.153900 0.000000
13.184200 0.000000
13.214400 0.000000
13.244700 0.000000
13.274900 0.000000
13.305200 0.000000
13.335400 0.000000
13.365700 0.000000
13.395900 0.000000
13.426200 0.000000
13.456400 0.000000
13.486700 0.000000
13.516900 0.000000
13.547200 0.000000
13.577400 0.000000
13.607700 0.000100
13.637900 0.060700
13.668200 0.424600
13.698400 0.565000
13.728700 0.717700
13.758900 0.921500
13.789200 1.000800
13.819400 1.028100
13.849700 1.069800
13.879900 1.110600
13.910200 1.150900
13.940400 1.192100
13.970700 1.229800
14.000900 1.260600
14.031200 1.284000
14.061400 1.310600
14.091700 1.338000
14.121900 1.366100
14.152200 1.393400
14.182400 1.457900
14.212700 1.580500
14.242900 1.686800
14.273200 1.722700
14.303400 1.744000
14.333700 1.747300
14.363900 1.736800
14.394200 1.717100
14.424400 1.685100
14.454700 1.641800
14.484900 1.582300
14.515200 1.591800
14.545400 1.488500
14.575700 1.512500
14.605900 1.545300
14.636200 1.721400
14.666400 1.893800
14.696700 2.203000
14.726900 2.264900
14.757200 2.280200
14.787400 2.330000
14.817700 2.377600
14.847900 2.370700
14.878200 2.274900
14.908400 2.095100
14.938700 1.954000
14.968900 1.835200
14.999200 1.686400
15.029400 1.650900
15.059700 1.723300
15.089900 1.778600
15.120200 1.777000
15.150400 1.720900
15.180700 1.715900
15.210900 1.863200
15.241200 1.927100
15.271400 1.998200
15.301700 2.025500
15.331900 2.078400
15.362200 2.124900
15.392400 2.161700
15.422700 2.178200
15.452900 2.200800
15.483200 2.205600
15.513400 2.227200
15.543700 2.269300
15.573900 2.363300
15.604200 2.606600
15.634400 2.647400
15.664700 2.564700
15.694900 2.538400
15.725200 2.511100
15.755400 2.560900
15.785700 2.631300
15.815900 2.722600
15.846200 2.657300
15.876400 2.614400
15.906700 2.605700
15.936900 2.580700
15.967200 2.572800
15.997400 2.546600
16.027700 2.594500
16.057900 2.735300
16.088200 2.827400
16.118400 2.946300
16.148700 3.117100
16.178900 3.142100
16.209200 3.038300
16.239400 2.800200
16.269700 2.851500
16.299900 2.937400
16.330200 2.777100
16.360400 2.635800
16.390700 2.638300
16.420900 2.725100
16.451200 2.721500
16.481400 2.633000
16.511700 2.608900
16.541900 2.685900
16.572200 2.769100
16.602400 2.843300
16.632700 2.861500
16.662900 2.929000
16.693200 3.010100
16.723400 3.068600
16.753700 3.127100
16.783900 3.163900
16.814200 3.192700
16.844400 3.426200
16.874700 3.334100
16.904900 3.125700
16.935200 3.161100
16.965400 3.240000
16.995700 3.340000
17.025900 3.534200
17.056200 3.708300
17.086400 3.868700
17.116700 3.643500
17.146900 3.709300
17.177200 3.657300
17.207400 3.584500
17.237700 3.486000
17.267900 3.324800
17.298200 3.301800
17.328400 3.383800
17.358700 3.270600
17.388900 3.231800
17.419200 3.185300
17.449400 3.115500
17.479700 2.981300
17.509900 2.938900
17.540200 2.939500
17.570400 2.945800
17.600700 2.964700
17.630900 2.988000
17.661200 2.995400
17.691400 3.047900
17.721700 2.962100
17.751900 2.936400
17.782200 2.938900
17.812400 2.999200
17.842700 3.115800
17.872900 3.221100
17.903200 3.285700
17.933400 3.267100
17.963700 3.266000
17.993900 3.169100
18.024200 3.036100
18.054400 2.884500
18.084700 2.734500
18.114900 2.633400
18.145200 2.592300
18.175400 2.616600
18.205700 2.721400
18.235900 2.890000
18.266200 3.210500
18.296400 3.155200
18.326700 3.010200
18.356900 3.065600
18.387200 3.163300
18.417400 3.269700
18.447700 3.397000
18.477900 3.498300
18.508200 3.651800
18.538400 3.474000
18.568700 3.302800
18.599000 3.135900
18.629200 3.045200
18.659500 3.037900
18.689700 3.043200
18.720000 3.120600
18.750200 3.199300
18.780500 3.320300
18.810700 3.414100
18.841000 3.547500
18.871200 3.675900
18.901500 3.737600
18.931700 3.945400
18.962000 3.919000
18.992200 3.973200
19.022500 4.048100
19.052700 3.979000
19.083000 3.835400
19.113200 3.671600
19.143500 3.504700
19.173700 3.353300
19.204000 3.134200
19.234200 2.974500
19.264500 2.828100
19.294700 2.758800
19.325000 2.705000
19.355200 2.637500
19.385500 2.596400
19.415700 2.563500
19.446000 2.532600
19.476200 2.473100
19.506500 2.442500
19.536700 2.456600
19.567000 2.411400
19.597200 2.456200
19.627500 2.570900
19.657700 3.174000
19.688000 3.039300
19.718200 3.126000
19.748500 3.277100
19.778700 3.195000
19.809000 3.362700
19.839200 3.563300
19.869500 3.681700
19.899700 3.623200
19.930000 3.555100
19.960200 3.498400
19.990500 3.437200
20.020700 3.358700
20.051000 3.163400
20.081200 3.038500
20.111500 2.927500
20.141700 2.761800
20.172000 2.741700
20.202200 2.754600
20.232500 2.690600
20.262700 2.617500
20.293000 2.385400
20.323200 2.291400
20.353500 2.274000
20.383700 2.266000
20.414000 2.272200
20.444200 2.323800
20.474500 2.423500
20.504700 2.539300
20.535000 2.512100
20.565200 2.470300
20.595500 2.559000
20.625700 2.639300
20.656000 2.732200
20.686200 2.888600
20.716500 3.020700
20.746700 3.174600
20.777000 3.634400
20.807200 3.317100
20.837500 3.298000
20.867700 3.232800
20.898000 3.100500
20.928200 3.038600
20.958500 3.022700
20.988700 3.072200
21.019000 3.259300
21.049200 3.245200
21.079500 3.081000
21.109700 2.970400
21.140000 2.956200
21.170200 2.923300
21.200500 2.960000
21.230700 2.983400
21.261000 2.900700
21.291200 2.787600
21.321500 2.952600
21.351700 2.816100
21.382000 2.874100
21.412200 2.892000
21.442500 2.880400
21.472700 2.770900
21.503000 2.701800
21.533200 2.671200
21.563500 2.623100
21.593700 2.651700
21.624000 2.652400
21.654200 2.696900
21.684500 2.515700
21.714700 2.323800
21.745000 2.292000
21.775200 2.424300
21.805500 2.515300
21.835700 2.586100
21.866000 2.644000
21.896200 2.721200
21.926500 2.787700
21.956700 3.106900
21.987000 2.905500
22.017200 2.847500
22.047500 2.641500
22.077700 2.598600
22.108000 2.654300
22.138200 2.790600
22.168500 3.227200
22.198700 3.414300
22.229000 3.224500
22.259200 3.029900
22.289500 2.831700
22.319700 2.661300
22.350000 3.015000
22.380200 2.898800
22.410500 2.585500
22.440700 2.559000
22.471000 2.569200
22.501200 2.645800
22.531500 2.718100
22.561700 2.795500
22.592000 2.632900
22.622200 2.619600
22.652500 2.626500
22.682700 2.646700
22.713000 2.672300
22.743200 2.856500
22.773500 2.892200
22.803700 2.838500
22.834000 2.715700
22.864200 2.651900
22.894500 2.547800
22.924700 2.501100
22.955000 2.481100
22.985200 2.495900
23.015500 2.690900
23.045700 2.802600
23.076000 2.458700
23.106200 2.361700
23.136500 2.219400
23.166700 2.106300
23.197000 2.051800
23.227200 2.059200
23.257500 2.153900
23.287700 2.105700
23.318000 2.050000
23.348200 2.044800
23.378500 2.042000
23.408700 2.058000
23.439000 2.114900
23.469200 2.211000
23.499500 2.260600
23.529700 2.305800
23.560000 2.345800
23.590200 2.402400
23.620500 2.473300
23.650700 2.516000
23.681000 2.558100
23.711200 2.618200
23.741500 2.610300
23.771700 2.508800
23.802000 2.427400
23.832200 2.451000
23.862500 2.385200
23.892700 2.306300
23.923000 2.295900
23.953200 2.198600
23.983500 2.180700
24.013700 2.198000
24.044000 2.259200
24.074200 2.340200
24.104500 2.449000
24.134700 2.841400
24.165000 3.082300
24.195200 3.052400
24.225500 2.970100
24.255700 2.899700
24.286000 2.821300
24.316200 2.646200
24.346500 2.664300
24.376700 2.837200
24.407000 2.955000
24.437200 2.836100
24.467500 2.723400
24.497700 2.560000
24.528000 2.641800
24.558200 2.862900
24.588500 3.233100
24.618700 2.210700
24.649000 1.662100
24.679200 1.702800
24.709500 1.786900
24.739700 1.491000
24.770000 1.466900
24.800200 1.494100
24.830500 1.517900
24.860700 1.493800
24.891000 1.452300
24.921200 1.408100
24.951500 1.335800
24.981700 1.305100
25.012000 1.310800
25.042200 1.378300
25.072500 1.506400
25.102700 1.728700
25.133000 1.556300
25.163200 1.657900
25.193500 1.828000
25.223700 2.266500
25.254000 2.263800
25.284200 1.983700
25.314500 1.682000
25.344700 1.669700
25.375000 1.668000
25.405200 1.661400
25.435500 1.666100
25.465700 1.655100
25.496000 1.658400
25.526200 1.666600
25.556500 1.721700
25.586700 1.610400
25.617000 1.698300
25.647300 1.919700
25.677500 2.247600
25.707800 2.165400
25.738000 2.121700
25.768300 2.027600
25.798500 1.783100
25.828800 1.579200
25.859000 1.465300
25.889300 1.430700
25.919500 1.457700
25.949800 1.432900
25.980000 1.368600
26.010300 1.340000
26.040500 1.905300
26.070800 1.425000
26.101000 1.440100
26.131300 1.459500
26.161500 1.478500
26.191800 1.501400
26.222000 1.536800
26.252300 1.567200
26.282500 1.514000
26.312800 1.461900
26.343000 1.406200
26.373300 1.424800
26.403500 1.470300
26.433800 1.528100
26.464000 1.585500
26.494300 1.637400
26.524500 1.677600
26.554800 1.746400
26.585000 1.812300
26.615300 2.075300
26.645500 1.854900
26.675800 1.724200
26.706000 1.688200
26.736300 1.646100
26.766500 1.588500
26.796800 1.504200
26.827000 1.535400
26.857300 1.620000
26.887500 1.614000
26.917800 1.421800
26.948000 1.458800
26.978300 1.275900
27.008500 1.233400
27.038800 1.182600
27.069000 1.177000
27.099300 1.182600
27.129500 1.196500
27.159800 1.218800
27.190000 1.245900
27.220300 1.269200
27.250500 1.290700
27.280800 1.308900
27.311000 1.326600
27.341300 1.343600
27.371500 1.359300
27.401800 1.375500
27.432000 1.400700
27.462300 1.423900
27.492500 1.448000
27.522800 1.641900
27.553000 1.730400
27.583300 1.649000
27.613500 1.700200
27.643800 1.757000
27.674000 1.828300
27.704300 1.970900
27.734500 2.016500
27.764800 1.982700
27.795000 2.009200
27.825300 2.058200
27.855500 2.127500
27.885800 2.231500
27.916000 2.284100
27.946300 2.279800
27.976500 2.228600
28.006800 2.165100
28.037000 2.097400
28.067300 2.045000
28.097500 1.987800
28.127800 1.933100
28.158000 1.877400
28.188300 1.846500
28.218500 1.805100
28.248800 1.828200
28.279000 1.720600
28.309300 1.667200
28.339500 1.635100
28.369800 1.582800
28.400000 1.543000
28.430300 1.519800
28.460500 1.498300
28.490800 1.475200
28.521000 1.500200
28.551300 1.516500
28.581500 1.412700
28.611800 1.259000
28.642000 1.222800
28.672300 1.246400
28.702500 1.291200
28.732800 1.378600
28.763000 1.753800
28.793300 1.860200
28.823500 1.965300
28.853800 2.237800
28.884000 2.507800
28.914300 2.830800
28.944500 3.692200
28.974800 4.269100
29.005000 3.943000
29.035300 3.017000
29.065500 2.795100
29.095800 2.757300
29.126000 2.741500
29.156300 2.796100
29.186500 2.909800
29.216800 2.928300
29.247000 2.900500
29.277300 2.857200
29.307500 2.952000
29.337800 2.925900
29.368000 2.887000
29.398300 2.873800
29.428500 3.089600
29.458800 3.059900
29.489000 3.165900
29.519300 3.406800
29.549500 3.641000
29.579800 3.772600
29.610000 3.695400
29.640300 3.605800
29.670500 3.319700
29.700800 3.174800
29.731000 3.394400
29.761300 3.499500
29.791500 3.678100
29.821800 3.794300
29.852000 4.039900
29.882300 4.057600
29.912500 3.247900
29.942800 2.920800
29.973000 2.684100
30.003300 2.641900
30.033500 2.744400
30.063800 2.880200
30.094000 3.352800
30.124300 3.953000
30.154500 4.256500
30.184800 4.113200
30.215000 3.641300
30.245300 3.501400
30.275500 3.508800
30.305800 3.188200
30.336000 3.118700
30.366300 2.903600
30.396500 2.836100
30.426800 2.747000
30.457000 2.832400
30.487300 2.828000
30.517500 2.777700
30.547800 2.690700
30.578000 2.628400
30.608300 2.599300
30.638500 2.559500
30.668800 2.542800
30.699000 2.558300
30.729300 2.599500
30.759500 2.783300
30.789800 2.865200
30.820000 2.925300
30.850300 2.952000
30.880500 2.868900
30.910800 2.907000
30.941000 2.944900
30.971300 2.947900
31.001500 3.076600
31.031800 3.152600
31.062000 3.162900
31.092300 2.978300
31.122500 2.828800
31.152800 2.759700
31.183000 2.710600
31.213300 2.629400
31.243500 2.570300
31.273800 2.571700
31.304000 2.623000
31.334300 2.686600
31.364500 2.744400
31.394800 2.806100
31.425000 2.896900
31.455300 2.918800
31.485500 2.926400
31.515800 2.870800
31.546000 2.937600
31.576300 2.966200
31.606500 3.002000
31.636800 3.018700
31.667000 3.003300
31.697300 3.091500
31.727500 3.020000
31.757800 2.921400
31.788000 2.828800
31.818300 2.764900
31.848500 2.771300
31.878800 2.837700
31.909000 2.847100
31.939300 2.738300
31.969500 2.419200
31.999800 2.213000
32.030000 2.101200
32.060300 1.839000
32.090500 1.846300
32.120800 1.870700
32.151000 1.898800
32.181300 1.903100
32.211500 1.961500
32.241800 2.024000
32.272000 2.161200
32.302300 2.038800
32.332500 1.966600
32.362800 1.899500
32.393000 1.862200
32.423300 2.097800
32.453500 2.289900
32.483800 2.273800
32.514000 2.302800
32.544300 2.371300
32.574500 2.622200
32.604800 2.875400
32.635000 3.062800
32.665300 3.523400
32.695600 3.772600
32.725800 3.842600
32.756100 4.362300
32.786300 4.705500
32.816600 4.727900
32.846800 4.404300
32.877100 3.613000
32.907300 2.905100
32.937600 2.234400
32.967800 1.579200
32.998100 1.156500
33.028300 0.960300
33.058600 0.847100
33.088800 0.758400
33.119100 0.699300
33.149300 0.676900
33.179600 0.662700
33.209800 0.663400
33.240100 0.671000
33.270300 0.686400
33.300600 0.710300
33.330800 0.742700
33.361100 0.791500
33.391300 0.874500
33.421600 1.073400
33.451800 1.318700
33.482100 1.537400
33.512300 1.666700
33.542600 1.666800
33.572800 1.705900
33.603100 1.736900
33.633300 1.620800
33.663600 1.585800
33.693800 1.596500
33.724100 1.626800
33.754300 1.676600
33.784600 1.733600
33.814800 1.796500
33.845100 1.936800
33.875300 2.153100
33.905600 2.416600
33.935800 2.469000
33.966100 2.507400
33.996300 2.449900
34.026600 2.284600
34.056800 2.333100
34.087100 2.207300
34.117300 2.148000
34.147600 2.139700
34.177800 2.149300
34.208100 2.141400
34.238300 2.083100
34.268600 2.060200
34.298800 1.934700
34.329100 1.833100
34.359300 1.751600
34.389600 1.695000
34.419800 1.649300
34.450100 1.612700
34.480300 1.581600
34.510600 1.558600
34.540800 1.581300
34.571100 1.611000
34.601300 1.661300
34.631600 1.683200
34.661800 1.683800
34.692100 1.660300
34.722300 1.624500
34.752600 1.576300
34.782800 1.534900
34.813100 1.499300
34.843300 1.462500
34.873600 1.428900
34.903800 1.399800
34.934100 1.360100
34.964300 1.320300
34.994600 1.316800
35.024800 1.332000
35.055100 1.408500
35.085300 1.493900
35.115600 1.569400
35.145800 1.716600
35.176100 1.828900
35.206300 1.938200
35.236600 2.051600
35.266800 2.220200
35.297100 2.377200
35.327300 2.539800
35.357600 2.497300
35.387800 2.478000
35.418100 2.534400
35.448300 2.518300
35.478600 2.471000
35.508800 2.466600
35.539100 2.498200
35.569300 2.496100
35.599600 2.517700
35.629800 2.528200
35.660100 2.504100
35.690300 2.351400
35.720600 1.994200
35.750800 1.877600
35.781100 1.723300
35.811300 1.599000
35.841600 1.483200
35.871800 1.406400
35.902100 1.369000
35.932300 1.359000
35.962600 1.392900
35.992800 1.456100
36.023100 1.555500
36.053300 1.566100
36.083600 1.600500
36.113800 1.641900
36.144100 1.693900
36.174300 1.746100
36.204600 1.787600
36.234800 1.833200
36.265100 1.915500
36.295300 2.027200
36.325600 2.115400
36.355800 2.181500
36.386100 2.186100
36.416300 2.174400
36.446600 2.176200
36.476800 2.160000
36.507100 2.128000
36.537300 2.091800
36.567600 2.071000
36.597800 2.057600
36.628100 2.038600
36.658300 2.019600
36.688600 2.017800
36.718800 2.201200
36.749100 2.166300
36.779300 1.988300
36.809600 1.937100
36.839800 1.774600
36.870100 1.673700
36.900300 1.610500
36.930600 1.561800
36.960800 1.524300
36.991100 1.505200
37.021300 1.650000
37.051600 1.731700
37.081800 1.708400
37.112100 1.649600
37.142300 1.642800
37.172600 1.643500
37.202800 1.652400
37.233100 1.668200
37.263300 1.688700
37.293600 1.707500
37.323800 1.727300
37.354100 1.752800
37.384300 1.791000
37.414600 1.856400
37.444800 1.959300
37.475100 2.096300
37.505300 2.208900
37.535600 2.227100
37.565800 2.213100
37.596100 2.118300
37.626300 1.910800
37.656600 1.795600
37.686800 1.719600
37.717100 1.700500
37.747300 1.647000
37.777600 1.596800
37.807800 1.575400
37.838100 1.562500
37.868300 1.559200
37.898600 1.534600
37.928800 1.501700
37.959100 1.439500
37.989300 1.368200
38.019600 1.320300
38.049800 1.312500
38.080100 1.373900
38.110300 1.474900
38.140600 1.495900
38.170800 1.633200
38.201100 1.633900
38.231300 1.609900
38.261600 1.578300
38.291800 1.525900
38.322100 1.494600
38.352300 1.489100
38.382600 1.525500
38.412800 1.580100
38.443100 1.614600
38.473300 1.626000
38.503600 1.626200
38.533800 1.590900
38.564100 1.533200
38.594300 1.549900
38.624600 1.469200
38.654800 1.388900
38.685100 1.348500
38.715300 1.426500
38.745600 1.389100
38.775800 1.339400
38.806100 1.333000
38.836300 1.319500
38.866600 1.301000
38.896800 1.282100
38.927100 1.267600
38.957300 1.255100
38.987600 1.244600
39.017800 1.239400
39.048100 1.234400
39.078300 1.231000
39.108600 1.229600
39.138800 1.232500
39.169100 1.241800
39.199300 1.257200
39.229600 1.279100
39.259800 1.317400
39.290100 1.343500
39.320300 1.376500
39.350600 1.374400
39.380800 1.401100
39.411100 1.484000
39.441300 1.595100
39.471600 1.720300
39.501800 1.796400
39.532100 1.972100
39.562300 2.122300
39.592600 2.238300
39.622800 2.305100
39.653100 2.333100
39.683300 2.311700
39.713600 2.284500
39.743900 2.235200
39.774100 2.199400
39.804400 2.145200
39.834600 2.098400
39.864900 2.067600
39.895100 1.978000
39.925400 1.875400
39.955600 1.811300
39.985900 1.751700
40.016100 1.705100
40.046400 1.687600
40.076600 1.674500
40.106900 1.661200
40.137100 1.667100
40.167400 1.666100
40.197600 1.665400
40.227900 1.674300
40.258100 1.675200
40.288400 1.743500
40.318600 1.839100
40.348900 2.102900
40.379100 2.306200
40.409400 2.445000
40.439600 2.552400
40.469900 2.632100
40.500100 2.722700
40.530400 2.682500
40.560600 2.686100
40.590900 2.472300
40.621100 2.316100
40.651400 2.335300
40.681600 2.073200
40.711900 1.908000
40.742100 1.789500
40.772400 1.712300
40.802600 1.651700
40.832900 1.583800
40.863100 1.545700
40.893400 1.462100
40.923600 1.427200
40.953900 1.372300
40.984100 1.313000
41.014400 1.251500
41.044600 1.198900
41.074900 1.159600
41.105100 1.130900
41.135400 1.132000
41.165600 1.188300
41.195900 1.262700
41.226100 1.311700
41.256400 1.308300
41.286600 1.261200
41.316900 1.240400
41.347100 1.220600
41.377400 1.232800
41.407600 1.259500
41.437900 1.288700
41.468100 1.297600
41.498400 1.294900
41.528600 1.290600
41.558900 1.304200
41.589100 1.315600
41.619400 1.339500
41.649600 1.373700
41.679900 1.408100
41.710100 1.449600
41.740400 1.483200
41.770600 1.479400
41.800900 1.448300
41.831100 1.435100
41.861400 1.536800
41.891600 1.395500
41.921900 1.341400
41.952100 1.293100
41.982400 1.269200
42.012600 1.256600
42.042900 1.224200
42.073100 1.146200
42.103400 1.031500
42.133600 0.924900
42.163900 0.849500
42.194100 0.802500
42.224400 0.775200
42.254600 0.752200
42.284900 0.727800
42.315100 0.703100
42.345400 0.688900
42.375600 0.687500
42.405900 0.834700
42.436100 0.745000
42.466400 0.513100
42.496600 0.407200
42.526900 0.347100
42.557100 0.293100
42.587400 0.245900
42.617600 0.205400
42.647900 0.171700
42.678100 0.143700
42.708400 0.119000
42.738600 0.095600
42.768900 0.068700
42.799100 0.030700
42.829400 0.006800
42.859600 0.001800
42.889900 0.000000
42.920100 0.000000
42.950400 0.000000
42.980600 0.000000
43.010900 0.000000
43.041100 0.000000
43.071400 0.000000
43.101600 0.000000
43.131900 0.000000
43.162100 0.000000
43.192400 0.000000
43.222600 0.000000
43.252900 0.000000
43.283100 0.000000
43.313400 0.000000
43.343600 0.000000
43.373900 0.000000
43.404100 0.000000
43.434400 0.000000
43.464600 0.000000
43.494900 0.000000
43.525100 0.000000
43.555400 0.000000
43.585600 0.000000
43.615900 0.000000
43.646100 0.000000
43.676400 0.000000
43.706600 0.000000
43.736900 0.000000
43.767100 0.000000
43.797400 0.000000
43.827600 0.000000
43.857900 0.000000
43.888100 0.000000
43.918400 0.000000
43.948600 0.000000
43.978900 0.000000
44.009100 0.000000
44.039400 0.000000
44.069600 0.000000
44.099900 0.000000
44.130100 0.000000
44.160400 0.000000
44.190600 0.000000
44.220900 0.000000
44.251100 0.000000
44.281400 0.000000
44.311600 0.000000
44.341900 0.000000
44.372100 0.000000
44.402400 0.000000
44.432600 0.000000
44.462900 0.000000
44.493100 0.000000
44.523400 0.000000
44.553600 0.000000
44.583900 0.000000
44.614100 0.000000
44.644400 0.000000
44.674600 0.000000
44.704900 0.000000
44.735100 0.000000
44.765400 0.000000
44.795600 0.000000
44.825900 0.000000
44.856100 0.000000
44.886400 0.000000
44.916600 0.000000
44.946900 0.000000
44.977100 0.000000
45.007400 0.000000
45.037600 0.000000
45.067900 0.000000
45.098100 0.000000
45.128400 0.000000
45.158600 0.000000
45.188900 0.000000
45.219100 0.000000
45.249400 0.000000
45.279600 0.000000
45.309900 0.000000
45.340100 0.000000
45.370400 0.000000
45.400600 0.000000
45.430900 0.000000
45.461100 0.000000
45.491400 0.000000
45.521600 0.000000
45.551900 0.000000
45.582100 0.000000
45.612400 0.000000
45.642600 0.000000
e
