set title 'mp-999498 - Density of States'
set xlabel 'Energy (eV)'
set ylabel 'DOS (states/eV)'
set grid
set xrange [-10:10]
set yrange [0:5.863]
set xzeroaxis lt -1
set terminal png size 800,600
set output 'mp-999498_dos_gnuplot.png'
plot '-' using 1:2 with lines title 'DOS'
-23.681400 0.000000
-23.632100 0.000000
-23.582800 0.000000
-23.533600 0.000000
-23.484300 0.000000
-23.435000 0.000000
-23.385700 0.000000
-23.336500 0.000000
-23.287200 0.000000
-23.237900 0.000000
-23.188600 0.000000
-23.139300 0.000000
-23.090100 0.000000
-23.040800 0.000000
-22.991500 0.000000
-22.942200 0.000000
-22.893000 0.000000
-22.843700 0.000000
-22.794400 0.000000
-22.745100 0.000000
-22.695900 0.000000
-22.646600 0.000000
-22.597300 0.000000
-22.548000 0.000000
-22.498800 0.000000
-22.449500 0.000000
-22.400200 0.000000
-22.350900 0.000000
-22.301700 0.000000
-22.252400 0.000000
-22.203100 0.000000
-22.153800 0.000000
-22.104600 0.000000
-22.055300 0.000000
-22.006000 0.000000
-21.956700 0.000000
-21.907500 0.000000
-21.858200 0.000000
-21.808900 0.000000
-21.759600 0.000000
-21.710400 0.000000
-21.661100 0.000000
-21.611800 0.000000
-21.562500 0.000000
-21.513200 0.000000
-21.464000 0.000000
-21.414700 0.000000
-21.365400 0.000000
-21.316100 0.000000
-21.266900 0.000000
-21.217600 0.000000
-21.168300 0.000000
-21.119000 0.000000
-21.069800 0.000000
-21.020500 0.000000
-20.971200 0.000000
-20.921900 0.000000
-20.872700 0.000000
-20.823400 0.000000
-20.774100 0.000000
-20.724800 0.000000
-20.675600 0.000000
-20.626300 0.000000
-20.577000 0.000000
-20.527700 0.000000
-20.478500 0.000000
-20.429200 0.000000
-20.379900 0.000000
-20.330600 0.000000
-20.281400 0.000000
-20.232100 0.000000
-20.182800 0.000000
-20.133500 0.000000
-20.084200 0.000000
-20.035000 0.000000
-19.985700 0.000000
-19.936400 0.000000
-19.887100 0.000000
-19.837900 0.000000
-19.788600 0.000000
-19.739300 0.000000
-19.690000 0.000000
-19.640800 0.000000
-19.591500 0.000000
-19.542200 0.000000
-19.492900 0.000000
-19.443700 0.000000
-19.394400 0.000000
-19.345100 0.000000
-19.295800 0.000000
-19.246600 0.000000
-19.197300 0.000100
-19.148000 0.017200
-19.098700 0.063300
-19.049500 0.133100
-19.000200 0.153600
-18.950900 0.179500
-18.901600 0.210900
-18.852400 0.241600
-18.803100 0.267400
-18.753800 0.296100
-18.704500 0.303400
-18.655200 0.315400
-18.606000 0.332100
-18.556700 0.352100
-18.507400 0.375100
-18.458100 0.389600
-18.408900 0.411000
-18.359600 0.432900
-18.310300 0.452300
-18.261000 0.464100
-18.211800 0.480300
-18.162500 0.498800
-18.113200 0.518200
-18.063900 0.538600
-18.014700 0.558700
-17.965400 0.576900
-17.916100 0.594600
-17.866800 0.615800
-17.817600 0.641700
-17.768300 0.670200
-17.719000 0.697600
-17.669700 0.726500
-17.620500 0.753900
-17.571200 0.781200
-17.521900 0.815300
-17.472600 0.880400
-17.423400 0.940900
-17.374100 1.006600
-17.324800 1.083100
-17.275500 1.187600
-17.226200 1.284800
-17.177000 1.395400
-17.127700 1.400000
-17.078400 1.358600
-17.029100 1.430500
-16.979900 1.326100
-16.930600 1.276200
-16.881300 1.218600
-16.832000 1.157800
-16.782800 1.134800
-16.733500 1.058500
-16.684200 0.972600
-16.634900 0.777300
-16.585700 0.626500
-16.536400 0.540800
-16.487100 0.458300
-16.437800 0.378900
-16.388600 0.282100
-16.339300 0.252400
-16.290000 0.236600
-16.240700 0.219300
-16.191500 0.202300
-16.142200 0.185500
-16.092900 0.168900
-16.043600 0.140600
-15.994400 0.129100
-15.945100 0.118000
-15.895800 0.107400
-15.846500 0.097200
-15.797200 0.087500
-15.748000 0.078300
-15.698700 0.069400
-15.649400 0.061100
-15.600100 0.056800
-15.550900 0.053300
-15.501600 0.113800
-15.452300 0.134700
-15.403000 0.154600
-15.353800 0.173300
-15.304500 0.191000
-15.255200 0.191600
-15.205900 0.202700
-15.156700 0.233300
-15.107400 0.263700
-15.058100 0.299600
-15.008800 0.341400
-14.959600 0.389100
-14.910300 0.442800
-14.861000 0.502500
-14.811700 0.568100
-14.762500 0.639600
-14.713200 1.045200
-14.663900 1.016800
-14.614600 1.139200
-14.565400 1.332600
-14.516100 1.510100
-14.466800 1.671400
-14.417500 1.811600
-14.368300 1.876100
-14.319000 1.352500
-14.269700 1.205500
-14.220400 1.077000
-14.171100 0.966900
-14.121900 0.875800
-14.072600 0.796600
-14.023300 0.717000
-13.974000 0.681300
-13.924800 0.648600
-13.875500 0.618900
-13.826200 0.591100
-13.776900 0.564100
-13.727700 0.542600
-13.678400 0.522100
-13.629100 0.517800
-13.579800 0.501900
-13.530600 0.486800
-13.481300 0.472700
-13.432000 0.459600
-13.382700 0.438500
-13.333500 0.427000
-13.284200 0.417800
-13.234900 0.409300
-13.185600 0.400700
-13.136400 0.392000
-13.087100 0.383300
-13.037800 0.374500
-12.988500 0.365600
-12.939300 0.358700
-12.890000 0.353900
-12.840700 0.348900
-12.791400 0.343600
-12.742100 0.334700
-12.692900 0.332200
-12.643600 0.329300
-12.594300 0.326000
-12.545000 0.323100
-12.495800 0.320500
-12.446500 0.318300
-12.397200 0.316400
-12.347900 0.315000
-12.298700 0.313900
-12.249400 0.313100
-12.200100 0.312700
-12.150800 0.312700
-12.101600 0.313100
-12.052300 0.313700
-12.003000 0.314500
-11.953700 0.313300
-11.904500 0.313800
-11.855200 0.315200
-11.805900 0.316900
-11.756600 0.323100
-11.707400 0.329300
-11.658100 0.335400
-11.608800 0.339400
-11.559500 0.343400
-11.510300 0.347300
-11.461000 0.351000
-11.411700 0.354700
-11.362400 0.352000
-11.313100 0.356900
-11.263900 0.362900
-11.214600 0.369600
-11.165300 0.377100
-11.116000 0.386200
-11.066800 0.393700
-11.017500 0.401500
-10.968200 0.409600
-10.918900 0.418000
-10.869700 0.426700
-10.820400 0.437400
-10.771100 0.448500
-10.721800 0.460000
-10.672600 0.471800
-10.623300 0.485900
-10.574000 0.504700
-10.524700 0.524100
-10.475500 0.541700
-10.426200 0.560000
-10.376900 0.579100
-10.327600 0.599000
-10.278400 0.619600
-10.229100 0.627700
-10.179800 0.651200
-10.130500 0.676200
-10.081300 0.708700
-10.032000 0.748300
-9.982700 0.796100
-9.933400 0.856000
-9.884100 0.922000
-9.834900 0.998400
-9.785600 1.085100
-9.736300 1.182100
-9.687000 1.398800
-9.637800 1.592600
-9.588500 1.634900
-9.539200 1.499500
-9.489900 1.432900
-9.440700 1.377400
-9.391400 1.529100
-9.342100 1.423800
-9.292800 1.179100
-9.243600 0.933800
-9.194300 0.707600
-9.145000 0.606600
-9.095700 0.526800
-9.046500 0.534100
-8.997200 0.297100
-8.947900 0.206600
-8.898600 0.153500
-8.849400 0.111000
-8.800100 0.062800
-8.750800 0.008700
-8.701500 0.000000
-8.652300 0.000100
-8.603000 0.000200
-8.553700 0.000300
-8.504400 0.000600
-8.455100 0.000900
-8.405900 0.001200
-8.356600 0.001600
-8.307300 0.002100
-8.258000 0.002600
-8.208800 0.003200
-8.159500 0.025400
-8.110200 0.032200
-8.060900 0.039600
-8.011700 0.047700
-7.962400 0.056400
-7.913100 0.065700
-7.863800 0.075600
-7.814600 0.086100
-7.765300 0.097300
-7.716000 0.109000
-7.666700 0.121400
-7.617500 0.134500
-7.568200 0.148100
-7.518900 0.188200
-7.469600 0.207500
-7.420400 0.250600
-7.371100 0.252800
-7.321800 0.276100
-7.272500 0.300600
-7.223300 0.326400
-7.174000 0.353400
-7.124700 0.381700
-7.075400 0.411300
-7.026100 0.442200
-6.976900 0.472600
-6.927600 0.530800
-6.878300 0.595600
-6.829000 0.773200
-6.779800 0.813700
-6.730500 0.842300
-6.681200 0.875900
-6.631900 0.914000
-6.582700 0.952200
-6.533400 0.988500
-6.484100 1.019800
-6.434800 1.041400
-6.385600 1.087500
-6.336300 1.114400
-6.287000 1.336000
-6.237700 1.184100
-6.188500 1.077200
-6.139200 0.997200
-6.089900 0.946900
-6.040600 0.899500
-5.991400 0.855300
-5.942100 0.814300
-5.892800 0.776600
-5.843500 0.742100
-5.794300 0.710800
-5.745000 0.686900
-5.695700 0.679300
-5.646400 0.681300
-5.597200 0.699600
-5.547900 0.731400
-5.498600 0.809400
-5.449300 0.797400
-5.400000 0.787400
-5.350800 0.780200
-5.301500 0.775800
-5.252200 0.774400
-5.202900 0.775900
-5.153700 5.330100
-5.104400 0.750000
-5.055100 0.218400
-5.005800 0.180300
-4.956600 0.520000
-4.907300 1.279000
-4.858000 2.362100
-4.808700 3.429700
-4.759500 1.943600
-4.710200 1.630300
-4.660900 1.520900
-4.611600 1.779400
-4.562400 1.675300
-4.513100 1.211800
-4.463800 1.297600
-4.414500 1.406200
-4.365300 1.534300
-4.316000 1.708100
-4.266700 1.998900
-4.217400 2.059700
-4.168200 2.071100
-4.118900 1.613900
-4.069600 0.889600
-4.020300 0.864200
-3.971000 0.858300
-3.921800 0.861000
-3.872500 0.856400
-3.823200 0.864700
-3.773900 0.886000
-3.724700 0.920300
-3.675400 1.053500
-3.626100 0.993700
-3.576800 1.061600
-3.527600 1.131900
-3.478300 1.201400
-3.429000 1.315900
-3.379700 1.716800
-3.330500 1.902000
-3.281200 2.207000
-3.231900 2.417800
-3.182600 2.596800
-3.133400 2.846900
-3.084100 3.520400
-3.034800 3.861400
-2.985500 2.929000
-2.936300 2.268300
-2.887000 1.745200
-2.837700 1.480600
-2.788400 1.303900
-2.739200 1.144000
-2.689900 1.053300
-2.640600 0.870400
-2.591300 0.747000
-2.542000 0.655500
-2.492800 0.576300
-2.443500 0.924700
-2.394200 0.000200
-2.344900 0.000000
-2.295700 0.000000
-2.246400 0.000000
-2.197100 0.000000
-2.147800 0.000000
-2.098600 0.000000
-2.049300 0.000000
-2.000000 0.000000
-1.950700 0.000000
-1.901500 0.000000
-1.852200 0.000000
-1.802900 0.000000
-1.753600 0.000000
-1.704400 0.000000
-1.655100 0.000000
-1.605800 0.000000
-1.556500 0.000000
-1.507300 0.000000
-1.458000 0.000000
-1.408700 0.000000
-1.359400 0.000000
-1.310200 0.000000
-1.260900 0.000000
-1.211600 0.000000
-1.162300 0.000000
-1.113000 0.000000
-1.063800 0.000000
-1.014500 0.000000
-0.965200 0.000000
-0.915900 0.000000
-0.866700 0.000000
-0.817400 0.000000
-0.768100 0.000000
-0.718800 0.000000
-0.669600 0.000000
-0.620300 0.000000
-0.571000 0.000000
-0.521700 0.000000
-0.472500 0.000000
-0.423200 0.000000
-0.373900 0.000000
-0.324600 0.000000
-0.275400 0.000000
-0.226100 0.000000
-0.176800 0.000000
-0.127500 0.000000
-0.078300 0.000000
-0.029000 0.000000
0.020300 0.000000
0.069600 0.000000
0.118800 0.000000
0.168100 0.000000
0.217400 0.000000
0.266700 0.000000
0.316000 0.000000
0.365200 0.000000
0.414500 0.000000
0.463800 0.000000
0.513100 0.000000
0.562300 0.000000
0.611600 0.000000
0.660900 0.000000
0.710200 0.000000
0.759400 0.000000
0.808700 0.000000
0.858000 0.000000
0.907300 0.000000
0.956500 0.000000
1.005800 0.002300
1.055100 0.069500
1.104400 0.230100
1.153600 0.531200
1.202900 0.788100
1.252200 1.360400
1.301500 1.525200
1.350700 1.710200
1.400000 1.834200
1.449300 1.914700
1.498600 2.062400
1.547800 2.266200
1.597100 2.278800
1.646400 2.418400
1.695700 2.650300
1.744900 2.394700
1.794200 2.378700
1.843500 1.696900
1.892800 1.505800
1.942100 1.414900
1.991300 1.392100
2.040600 1.377000
2.089900 1.347500
2.139200 1.339500
2.188400 1.306200
2.237700 1.246700
2.287000 1.166000
2.336300 1.119500
2.385500 1.075800
2.434800 1.040800
2.484100 1.060400
2.533400 1.133100
2.582600 1.200000
2.631900 1.368000
2.681200 1.509800
2.730500 1.649400
2.779700 1.808100
2.829000 1.925400
2.878300 2.089100
2.927600 2.295500
2.976800 3.379300
3.026100 3.132700
3.075400 3.146000
3.124700 3.075300
3.173900 3.190600
3.223200 2.726200
3.272500 2.173400
3.321800 1.820800
3.371100 1.601700
3.420300 1.408500
3.469600 1.242500
3.518900 1.127100
3.568200 0.994800
3.617400 0.967100
3.666700 0.987200
3.716000 1.009600
3.765300 1.052000
3.814500 1.114100
3.863800 1.190700
3.913100 1.298100
3.962400 1.477800
4.011600 1.765600
4.060900 1.791800
4.110200 1.651400
4.159500 1.641700
4.208700 1.635600
4.258000 1.635800
4.307300 1.680400
4.356600 1.661900
4.405800 1.484700
4.455100 1.264700
4.504400 1.114100
4.553700 1.016200
4.602900 0.866100
4.652200 0.852300
4.701500 0.761800
4.750800 0.664100
4.800100 0.632500
4.849300 0.559500
4.898600 0.486700
4.947900 0.491800
4.997200 0.054200
5.046400 0.083800
5.095700 0.113000
5.145000 0.141900
5.194300 0.179600
5.243500 0.241600
5.292800 0.303500
5.342100 0.452000
5.391400 0.610300
5.440600 0.754800
5.489900 0.906400
5.539200 1.192700
5.588500 1.547300
5.637700 2.046800
5.687000 2.936000
5.736300 4.123100
5.785600 4.133400
5.834800 2.761600
5.884100 2.238800
5.933400 1.989900
5.982700 1.878400
6.031900 1.831400
6.081200 1.972800
6.130500 2.065600
6.179800 2.333700
6.229100 3.560600
6.278300 0.527400
6.327600 0.000000
6.376900 0.000000
6.426200 0.000000
6.475400 0.000000
6.524700 0.000000
6.574000 0.000000
6.623300 0.000000
6.672500 0.000000
6.721800 0.000000
6.771100 0.000000
6.820400 0.000000
6.869600 0.000000
6.918900 0.000000
6.968200 0.000000
7.017500 0.000000
7.066700 0.000000
7.116000 0.000000
7.165300 0.000000
7.214600 0.000000
7.263800 0.000000
7.313100 0.000000
7.362400 0.000000
7.411700 0.000000
7.460900 0.000000
7.510200 0.000000
7.559500 0.000000
7.608800 0.000000
7.658100 0.000000
7.707300 0.000000
7.756600 0.000000
7.805900 0.000000
7.855200 0.000000
7.904400 0.000000
7.953700 0.000000
8.003000 0.000000
8.052300 0.000000
8.101500 0.000000
8.150800 0.000000
8.200100 0.000000
8.249400 0.000000
8.298600 0.000000
8.347900 0.000000
8.397200 0.000000
8.446500 0.000000
8.495700 0.000000
8.545000 0.000000
8.594300 0.000000
8.643600 0.000000
8.692800 0.000000
8.742100 0.000000
8.791400 0.000000
8.840700 0.000000
8.889900 0.000000
8.939200 0.000000
8.988500 0.000000
9.037800 0.000000
9.087100 0.000000
9.136300 0.000000
9.185600 0.000000
9.234900 0.000000
9.284200 0.000000
9.333400 0.000000
9.382700 0.000000
9.432000 0.000000
9.481300 0.000000
9.530500 0.000000
9.579800 0.000000
9.629100 0.000000
9.678400 0.000000
9.727600 0.000000
9.776900 0.000000
9.826200 0.000000
9.875500 0.000000
9.924700 0.000000
9.974000 0.000000
10.023300 0.000000
10.072600 0.000000
10.121800 0.000000
10.171100 0.000000
10.220400 0.000000
10.269700 0.000000
10.318900 0.000000
10.368200 0.627500
10.417500 1.861300
10.466800 1.823300
10.516000 1.479200
10.565300 1.214800
10.614600 1.101200
10.663900 1.026700
10.713200 0.984000
10.762400 1.043800
10.811700 1.111900
10.861000 1.210600
10.910300 1.360900
10.959500 1.594400
11.008800 2.027800
11.058100 1.965400
11.107400 1.879500
11.156600 1.688400
11.205900 1.617800
11.255200 1.577200
11.304500 1.527100
11.353700 1.468500
11.403000 1.358600
11.452300 1.242500
11.501600 1.118100
11.550800 0.990400
11.600100 1.022300
11.649400 0.661300
11.698700 0.571400
11.747900 0.536700
11.797200 0.493400
11.846500 0.455600
11.895800 0.423400
11.945000 0.396800
11.994300 0.375300
12.043600 0.365600
12.092900 0.354500
12.142200 0.347100
12.191400 0.334400
12.240700 0.324700
12.290000 0.317900
12.339300 0.314100
12.388500 0.292100
12.437800 0.311500
12.487100 0.333300
12.536400 0.357100
12.585600 0.378100
12.634900 0.402300
12.684200 0.427700
12.733500 0.468000
12.782700 0.511700
12.832000 0.571600
12.881300 0.633000
12.930600 0.703700
12.979800 1.355100
13.029100 1.697500
13.078400 2.061700
13.127700 2.314900
13.176900 2.749200
13.226200 3.167000
13.275500 3.404900
13.324800 3.429800
13.374000 2.701400
13.423300 2.290800
13.472600 2.619700
13.521900 2.561500
13.571200 1.928300
13.620400 1.068800
13.669700 0.616900
13.719000 0.442800
13.768300 0.347700
13.817500 0.313800
13.866800 0.325000
13.916100 0.351600
13.965400 0.380200
14.014600 0.416000
14.063900 0.471900
14.113200 0.556800
14.162500 0.670800
14.211700 0.920700
14.261000 1.068700
14.310300 1.112100
14.359600 1.236900
14.408800 1.650600
14.458100 2.042300
14.507400 2.182000
14.556700 2.462900
14.605900 3.010900
14.655200 3.919300
14.704500 4.917400
14.753800 4.567100
14.803000 3.382400
14.852300 1.950100
14.901600 1.153200
14.950900 0.676300
15.000200 0.741500
15.049400 0.888700
15.098700 0.565200
15.148000 0.593400
15.197300 0.622500
15.246500 0.652500
15.295800 0.683300
15.345100 0.715000
15.394400 0.747700
15.443600 0.781200
15.492900 0.849200
15.542200 0.854000
15.591500 0.878300
15.640700 0.920900
15.690000 1.032600
15.739300 1.152300
15.788600 1.191000
15.837800 1.246200
15.887100 1.409400
15.936400 1.581100
15.985700 1.732400
16.034900 1.891600
16.084200 3.074800
16.133500 1.388200
16.182800 1.076800
16.232000 0.838900
16.281300 0.706700
16.330600 0.640400
16.379900 0.581500
16.429200 0.532100
16.478400 0.495800
16.527700 0.468400
16.577000 0.425600
16.626300 0.380100
16.675500 0.320000
16.724800 0.287000
16.774100 0.276700
16.823400 0.331600
16.872600 0.729700
16.921900 1.371300
16.971200 2.590000
17.020500 2.476500
17.069700 1.998500
17.119000 1.829900
17.168300 1.767000
17.217600 1.764300
17.266800 1.776400
17.316100 1.787800
17.365400 1.856400
17.414700 2.050300
17.463900 3.464900
17.513200 1.633800
17.562500 1.479000
17.611800 1.455700
17.661000 2.389200
17.710300 2.724400
17.759600 3.613200
17.808900 3.001400
17.858100 2.696400
17.907400 2.638300
17.956700 2.499200
18.006000 2.293500
18.055300 2.134400
18.104500 2.019000
18.153800 2.600700
18.203100 1.724800
18.252400 1.478800
18.301600 1.405000
18.350900 1.403400
18.400200 1.389900
18.449500 1.345600
18.498700 1.278600
18.548000 1.182600
18.597300 1.069000
18.646600 0.995100
18.695800 0.944800
18.745100 0.912500
18.794400 0.895900
18.843700 1.046900
18.892900 1.177300
18.942200 1.224200
18.991500 1.117500
19.040800 0.974600
19.090000 0.841100
19.139300 0.712400
19.188600 0.590700
19.237900 0.524300
19.287100 0.448200
19.336400 0.402700
19.385700 0.371700
19.435000 0.320300
19.484300 0.305100
19.533500 0.591500
19.582800 1.255700
19.632100 1.712200
19.681400 2.005500
19.730600 2.578100
19.779900 5.593600
19.829200 5.850500
19.878500 4.777500
19.927700 2.755800
19.977000 1.829300
20.026300 1.509500
20.075600 1.126600
20.124800 0.854100
20.174100 0.803000
20.223400 0.756000
20.272700 0.701300
20.321900 0.451400
20.371200 0.421600
20.420500 0.394600
20.469800 0.561900
20.519000 0.763800
20.568300 1.009400
20.617600 1.295200
20.666900 1.577800
20.716100 2.127000
20.765400 3.061100
20.814700 4.084100
20.864000 4.388700
20.913300 3.917000
20.962500 2.841300
21.011800 2.069300
21.061100 1.786400
21.110400 1.539100
21.159600 1.350000
21.208900 1.213000
21.258200 1.081500
21.307500 0.955800
21.356700 0.850900
21.406000 0.775700
21.455300 0.707700
21.504600 0.645400
21.553800 0.588100
21.603100 0.534600
21.652400 0.490600
21.701700 0.462800
21.750900 0.436200
21.800200 0.410600
21.849500 0.385900
21.898800 0.362300
21.948000 0.339200
21.997300 0.314700
22.046600 0.294200
22.095900 0.264100
22.145100 0.246600
22.194400 0.215100
22.243700 0.181500
22.293000 0.168100
22.342300 0.154300
22.391500 0.120200
22.440800 0.112700
22.490100 0.105600
22.539400 0.098900
22.588600 0.092400
22.637900 0.086200
22.687200 0.080200
22.736500 0.074400
22.785700 0.068700
22.835000 0.063300
22.884300 0.058000
22.933600 0.053000
22.982800 0.105500
23.032100 0.161300
23.081400 0.239000
23.130700 0.394700
23.179900 0.694000
23.229200 0.909000
23.278500 1.055900
23.327800 0.981600
23.377000 0.929500
23.426300 0.919500
23.475600 0.940500
23.524900 0.968100
23.574100 1.010100
23.623400 0.989600
23.672700 0.956200
23.722000 0.938600
23.771300 0.948900
23.820500 0.959300
23.869800 0.969600
23.919100 0.980000
23.968400 0.994100
24.017600 1.030300
24.066900 1.072400
24.116200 1.118300
24.165500 1.158300
24.214700 1.194400
24.264000 1.249000
24.313300 1.426800
24.362600 1.742400
24.411800 1.963800
24.461100 1.582000
24.510400 1.387900
24.559700 1.149700
24.608900 1.012100
24.658200 0.905600
24.707500 0.808400
24.756800 0.720300
24.806000 0.641400
24.855300 0.571600
24.904600 0.499800
24.953900 0.503600
25.003100 0.631000
25.052400 0.587000
25.101700 0.189600
25.151000 0.164900
25.200300 0.160800
25.249500 0.161800
25.298800 0.167900
25.348100 0.179100
25.397400 0.197500
25.446600 0.232200
25.495900 0.276700
25.545200 0.335600
25.594500 0.409900
25.643700 0.494300
25.693000 0.552900
25.742300 0.588700
25.791600 0.629000
25.840800 0.688400
25.890100 0.768900
25.939400 0.909400
25.988700 1.107700
26.037900 1.247600
26.087200 1.376600
26.136500 1.493100
26.185800 1.541800
26.235000 1.525800
26.284300 1.164700
26.333600 0.994300
26.382900 0.911700
26.432100 0.871400
26.481400 0.835800
26.530700 0.801500
26.580000 0.892800
26.629200 0.886900
26.678500 0.884100
26.727800 0.883800
26.777100 0.884800
26.826400 0.883000
26.875600 0.883800
26.924900 0.897700
26.974200 0.911900
27.023500 0.923300
27.072700 0.934600
27.122000 0.967800
27.171300 0.972600
27.220600 0.974800
27.269800 0.978900
27.319100 1.006200
27.368400 1.019500
27.417700 1.013700
27.466900 1.013300
27.516200 1.018100
27.565500 1.028200
27.614800 1.042500
27.664000 1.058300
27.713300 1.085400
27.762600 1.097600
27.811900 1.141300
27.861100 1.116600
27.910400 1.170900
27.959700 1.246800
28.009000 1.342300
28.058200 1.484300
28.107500 1.530000
28.156800 1.565800
28.206100 1.548600
28.255400 1.448400
28.304600 1.449200
28.353900 1.426300
28.403200 1.332600
28.452500 1.276400
28.501700 1.192200
28.551000 1.130000
28.600300 1.097700
28.649600 1.077100
28.698800 1.294600
28.748100 1.277000
28.797400 1.280600
28.846700 1.316500
28.895900 1.429900
28.945200 1.496300
28.994500 1.408000
29.043800 1.299500
29.093000 1.164100
29.142300 1.044700
29.191600 0.939000
29.240900 0.860600
29.290100 0.836000
29.339400 0.817700
29.388700 0.811600
29.438000 1.006600
29.487200 0.985400
29.536500 0.953200
29.585800 0.913100
29.635100 0.931800
29.684400 0.997000
29.733600 1.054000
29.782900 1.105400
29.832200 1.129200
29.881500 1.137100
29.930700 1.123100
29.980000 1.176300
30.029300 1.210100
30.078600 1.211300
30.127800 1.122100
30.177100 0.990700
30.226400 0.942200
30.275700 0.901300
30.324900 0.868800
30.374200 0.843800
30.423500 0.826200
30.472800 0.817700
30.522000 0.818200
30.571300 0.832700
30.620600 0.868100
30.669900 0.969500
30.719100 0.997100
30.768400 1.066200
30.817700 1.117100
30.867000 1.018800
30.916200 0.967500
30.965500 0.884300
31.014800 0.805400
31.064100 0.758300
31.113400 0.748000
31.162600 0.754700
31.211900 0.778500
31.261200 0.819300
31.310500 0.875800
31.359700 0.911900
31.409000 0.935100
31.458300 0.962100
31.507600 1.027100
31.556800 1.066800
31.606100 1.099300
31.655400 1.140200
31.704700 1.169800
31.753900 1.170500
31.803200 1.133500
31.852500 0.991200
31.901800 0.937700
31.951000 0.921700
32.000300 0.908900
32.049600 0.899300
32.098900 0.888900
32.148100 0.841900
32.197400 0.827500
32.246700 0.822600
32.296000 0.818400
32.345200 0.812500
32.394500 0.806700
32.443800 0.799800
32.493100 0.795900
32.542400 0.817200
32.591600 0.819400
32.640900 0.822100
32.690200 0.826700
32.739500 0.834600
32.788700 0.844200
32.838000 0.853200
32.887300 0.860300
32.936600 0.870800
32.985800 0.865500
33.035100 0.860700
33.084400 0.856900
33.133700 0.854500
33.182900 0.853500
33.232200 0.855700
33.281500 0.861500
33.330800 0.871800
33.380000 0.885200
33.429300 0.903700
33.478600 0.939500
33.527900 0.935900
33.577100 0.930400
33.626400 0.911300
33.675700 0.887300
33.725000 0.836800
33.774200 0.800000
33.823500 0.771200
33.872800 0.749000
33.922100 0.735700
33.971300 0.741100
34.020600 0.741500
34.069900 0.743600
34.119200 0.747300
34.168500 0.759200
34.217700 0.785600
34.267000 0.818000
34.316300 0.849100
34.365600 0.880000
34.414800 0.935800
34.464100 1.082300
34.513400 1.227800
34.562700 1.356600
34.611900 1.452300
34.661200 1.539700
34.710500 1.655300
34.759800 1.755900
34.809000 1.810600
34.858300 1.833600
34.907600 1.776700
34.956900 1.703400
35.006100 1.652200
35.055400 2.118400
35.104700 2.084500
35.154000 1.844500
35.203200 1.745900
35.252500 1.636500
35.301800 1.528300
35.351100 1.397100
35.400300 1.264700
35.449600 1.117800
35.498900 0.982000
35.548200 0.875000
35.597500 0.784500
35.646700 0.709900
35.696000 0.634900
35.745300 0.629300
35.794600 0.663700
35.843800 0.704900
35.893100 0.748400
35.942400 0.781200
35.991700 0.822000
36.040900 0.869700
36.090200 0.920000
36.139500 0.974000
36.188800 1.033500
36.238000 1.098200
36.287300 1.170600
36.336600 1.393100
36.385900 1.973400
36.435100 1.803400
36.484400 1.655000
36.533700 1.525300
36.583000 1.329300
36.632200 1.129300
36.681500 0.952500
36.730800 0.820900
36.780100 0.628900
36.829300 0.470600
36.878600 0.331000
36.927900 0.223500
36.977200 0.179300
37.026500 0.207600
37.075700 0.258600
37.125000 0.323900
37.174300 0.415800
37.223600 0.564200
37.272800 0.919500
37.322100 1.304300
37.371400 1.580800
37.420700 1.697400
37.469900 1.560000
37.519200 1.510200
37.568500 1.495300
37.617800 1.471700
37.667000 1.443100
37.716300 1.424600
37.765600 1.388600
37.814900 1.347700
37.864100 1.300400
37.913400 1.234400
37.962700 1.174400
38.012000 1.120300
38.061200 1.077800
38.110500 1.022900
38.159800 0.962900
38.209100 0.922100
38.258300 0.857200
38.307600 0.967300
38.356900 1.042800
38.406200 1.091300
38.455500 1.105400
38.504700 1.032800
38.554000 1.039300
38.603300 1.078200
38.652600 1.101200
38.701800 1.124500
38.751100 1.143400
38.800400 1.161400
38.849700 1.192800
38.898900 1.228900
38.948200 1.312700
38.997500 1.349700
39.046800 1.301400
39.096000 1.266400
39.145300 1.217600
39.194600 1.169100
39.243900 1.140600
39.293100 1.127400
39.342400 1.119200
39.391700 1.086600
39.441000 1.066500
39.490200 1.049600
39.539500 1.055100
39.588800 1.050400
39.638100 1.050800
39.687300 1.057100
39.736600 1.080100
39.785900 1.128200
39.835200 1.161900
39.884500 1.193600
39.933700 1.233400
39.983000 1.292900
40.032300 1.344000
40.081600 1.435300
40.130800 1.500100
40.180100 1.565800
40.229400 1.634800
40.278700 1.719200
40.327900 1.762700
40.377200 1.857500
40.426500 2.064400
40.475800 1.640400
40.525000 1.642000
40.574300 1.685200
40.623600 1.902600
40.672900 2.307900
40.722100 2.610000
40.771400 2.913700
40.820700 3.328900
40.870000 3.547700
40.919200 3.710800
40.968500 3.333300
41.017800 2.930500
41.067100 2.353300
41.116300 1.583100
41.165600 1.013600
41.214900 0.645800
41.264200 0.453800
41.313500 0.341000
41.362700 0.308800
41.412000 0.294100
41.461300 0.285100
41.510600 0.275600
41.559800 0.284700
41.609100 0.309700
41.658400 0.286200
41.707700 0.307200
41.756900 0.362400
41.806200 0.483300
41.855500 0.653900
41.904800 1.186200
41.954000 1.659000
42.003300 1.993100
42.052600 2.325600
42.101900 2.494100
42.151100 2.531600
42.200400 2.486800
42.249700 2.359300
42.299000 2.181900
42.348200 1.738000
42.397500 1.504500
42.446800 1.317000
42.496100 1.212800
42.545300 1.129400
42.594600 1.066300
42.643900 1.094400
42.693200 1.024000
42.742400 0.943400
42.791700 0.939700
42.841000 0.945600
42.890300 0.960100
42.939600 0.975400
42.988800 0.986000
43.038100 1.016100
43.087400 1.072300
43.136700 1.106500
43.185900 1.143700
43.235200 1.174300
43.284500 1.292300
43.333800 1.395300
43.383000 1.451900
43.432300 1.486800
43.481600 1.506200
43.530900 1.525000
43.580100 1.516000
43.629400 1.283200
43.678700 1.255800
43.728000 1.242100
43.777200 1.259900
43.826500 1.268300
43.875800 1.283500
43.925100 1.305100
43.974300 1.320200
44.023600 1.331000
44.072900 1.402700
44.122200 1.480500
44.171400 1.565900
44.220700 1.636300
44.270000 1.670500
44.319300 1.654700
44.368600 1.587000
44.417800 1.458200
44.467100 1.395000
44.516400 1.343200
44.565700 1.188000
44.614900 1.160700
44.664200 1.181700
44.713500 1.217000
44.762800 1.107200
44.812000 0.988400
44.861300 1.028000
44.910600 1.068000
44.959900 1.110100
45.009100 1.154200
45.058400 1.299300
45.107700 1.443600
45.157000 1.461100
45.206200 1.345300
45.255500 1.234900
45.304800 1.116500
45.354100 1.122600
45.403300 1.117900
45.452600 1.145300
45.501900 1.182200
45.551200 1.329400
45.600400 1.520900
45.649700 1.885500
45.699000 1.996600
45.748300 1.930400
45.797600 1.798800
45.846800 1.854000
45.896100 1.822800
45.945400 1.718600
45.994700 1.504600
46.043900 1.342300
46.093200 1.167600
46.142500 1.108300
46.191800 1.047400
46.241000 0.992300
46.290300 0.915900
46.339600 0.923500
46.388900 0.926100
46.438100 0.970000
46.487400 1.019500
46.536700 1.072500
46.586000 1.135100
46.635200 1.207400
46.684500 1.283100
46.733800 1.372100
46.783100 1.447500
46.832300 1.464100
46.881600 1.481100
46.930900 1.480400
46.980200 1.463800
47.029400 1.435000
47.078700 1.389000
47.128000 1.337800
47.177300 1.336700
47.226600 1.287700
47.275800 1.240800
47.325100 1.196100
47.374400 1.154400
47.423700 1.116800
47.472900 1.084900
47.522200 1.049200
47.571500 1.002700
47.620800 0.954900
47.670000 0.913000
47.719300 0.877700
47.768600 0.859200
47.817900 0.843800
47.867100 0.831200
47.916400 0.820300
47.965700 0.822500
48.015000 0.832700
48.064200 0.825000
48.113500 0.828200
48.162800 0.836100
48.212100 0.830100
48.261300 0.828000
48.310600 0.835800
48.359900 0.851700
48.409200 0.856900
48.458400 0.863000
48.507700 0.862100
48.557000 0.865300
48.606300 0.869900
48.655600 0.877300
48.704800 0.875100
48.754100 0.889500
48.803400 0.906300
48.852700 0.928800
48.901900 0.958900
48.951200 0.992600
49.000500 1.024400
49.049800 1.056200
49.099000 1.087900
49.148300 1.110200
49.197600 1.127200
49.246900 1.144400
49.296100 1.168500
49.345400 1.182700
49.394700 1.201900
49.444000 1.224700
49.493200 1.242700
49.542500 1.266800
49.591800 1.279900
49.641100 1.298000
49.690300 1.317600
49.739600 1.374000
49.788900 1.341500
49.838200 1.151400
49.887400 1.226100
49.936700 1.203500
49.986000 0.904200
50.035300 0.787000
50.084500 0.768700
50.133800 0.776300
50.183100 0.832700
50.232400 0.866300
50.281700 0.895700
50.330900 0.927300
50.380200 0.981300
50.429500 1.072200
50.478800 1.168900
50.528000 1.125500
50.577300 1.099000
50.626600 1.165900
50.675900 1.237200
50.725100 1.361000
50.774400 1.435700
50.823700 1.503600
50.873000 1.554700
50.922200 1.586900
50.971500 1.572400
51.020800 1.537800
51.070100 1.537600
51.119300 1.486300
51.168600 1.432500
51.217900 1.397800
51.267200 1.293400
51.316400 1.289000
51.365700 1.296400
51.415000 1.312400
51.464300 1.298200
51.513500 1.369500
51.562800 1.434200
51.612100 1.660500
51.661400 1.639200
51.710700 1.677800
51.759900 1.611900
51.809200 1.519300
51.858500 1.399300
51.907800 1.244500
51.957000 1.154400
52.006300 1.103500
52.055600 1.232600
52.104900 1.306100
52.154100 1.372800
52.203400 1.442000
52.252700 1.499500
52.302000 1.553900
52.351200 1.640800
52.400500 1.762000
52.449800 1.839900
52.499100 1.897900
52.548300 1.852200
52.597600 1.906500
52.646900 1.937300
52.696200 1.870900
52.745400 1.745300
52.794700 1.600300
52.844000 1.500800
52.893300 1.386600
52.942500 1.303100
52.991800 1.203600
53.041100 1.091100
53.090400 1.047300
53.139700 1.035000
53.188900 1.054800
53.238200 1.097400
53.287500 1.261300
53.336800 1.420800
53.386000 1.616900
53.435300 1.871200
53.484600 2.131000
53.533900 2.485600
53.583100 2.752000
53.632400 2.985800
53.681700 3.171500
53.731000 3.053500
53.780200 2.889800
53.829500 2.471900
53.878800 1.938700
53.928100 1.779500
53.977300 1.505900
54.026600 1.339300
54.075900 1.210000
54.125200 1.158800
54.174400 1.083300
54.223700 1.028700
54.273000 1.049500
54.322300 1.099800
54.371500 1.143000
54.420800 1.174200
54.470100 1.249500
54.519400 1.343600
54.568700 1.420900
54.617900 1.527900
54.667200 1.630000
54.716500 1.744300
54.765800 1.866000
54.815000 1.967400
54.864300 2.049400
54.913600 2.262400
54.962900 1.974400
55.012100 1.881300
55.061400 1.802800
55.110700 1.703900
55.160000 1.622300
55.209200 1.559800
55.258500 1.546700
55.307800 1.499100
55.357100 1.412100
55.406300 1.364800
55.455600 0.995100
55.504900 0.855400
55.554200 0.828200
55.603400 0.909100
55.652700 1.012800
55.702000 1.149100
55.751300 1.297900
55.800500 1.494600
55.849800 1.667900
55.899100 1.912600
55.948400 2.396200
55.997700 2.714700
56.046900 2.843900
56.096200 2.822300
56.145500 2.705200
56.194800 2.454800
56.244000 2.114200
56.293300 1.731700
56.342600 1.405300
56.391900 1.276400
56.441100 1.371700
56.490400 1.527000
56.539700 1.682900
56.589000 1.759900
56.638200 1.784700
56.687500 1.834900
56.736800 1.827400
56.786100 1.936000
56.835300 2.071500
56.884600 2.209500
56.933900 2.275000
56.983200 2.165000
57.032400 2.095400
57.081700 2.056900
57.131000 2.029100
57.180300 1.950100
57.229500 1.831700
57.278800 1.644100
57.328100 1.407700
57.377400 1.237500
57.426700 1.224300
57.475900 1.246500
57.525200 1.305400
57.574500 1.251300
57.623800 1.519800
57.673000 1.698400
57.722300 1.854300
57.771600 2.037300
57.820900 2.231900
57.870100 2.394500
57.919400 2.568000
57.968700 2.699200
58.018000 2.983000
58.067200 3.151100
58.116500 2.914400
58.165800 2.265000
58.215100 2.052700
58.264300 1.876200
58.313600 1.642300
58.362900 1.350200
58.412200 1.019700
58.461400 0.749200
58.510700 0.559300
58.560000 0.403200
58.609300 0.345200
58.658500 0.322000
58.707800 0.369900
58.757100 0.433300
58.806400 0.529400
58.855600 0.705400
58.904900 0.983800
58.954200 1.342500
59.003500 1.501400
59.052800 1.623500
59.102000 1.797800
59.151300 1.950500
59.200600 2.141300
59.249900 2.346400
59.299100 2.500500
59.348400 2.635800
59.397700 2.737800
59.447000 2.716400
59.496200 2.674000
59.545500 2.601400
59.594800 2.505200
59.644100 2.271800
59.693300 1.960800
59.742600 1.540600
59.791900 1.310400
59.841200 0.907600
59.890400 0.528400
59.939700 0.453900
59.989000 0.513300
60.038300 0.628400
60.087500 0.829000
60.136800 1.258800
60.186100 2.078000
60.235400 3.432500
60.284600 4.507300
60.333900 4.828000
60.383200 3.995500
60.432500 3.208200
60.481800 2.687300
60.531000 2.229600
60.580300 1.963400
60.629600 1.712500
60.678900 1.537700
60.728100 1.268600
60.777400 0.984500
60.826700 0.713500
60.876000 0.565000
60.925200 0.442200
60.974500 0.348300
61.023800 0.279500
61.073100 0.372000
61.122300 0.432500
61.171600 0.576000
61.220900 0.924800
61.270200 1.110100
61.319400 1.291900
61.368700 1.489100
61.418000 1.752300
61.467300 1.858900
61.516500 2.200300
61.565800 2.294000
61.615100 2.428600
61.664400 2.559600
61.713600 2.689600
61.762900 2.824400
61.812200 2.889200
61.861500 2.150200
61.910800 1.674800
61.960000 1.310700
62.009300 0.934600
62.058600 0.698300
62.107900 0.568800
62.157100 0.507500
62.206400 0.468900
62.255700 0.449700
62.305000 0.510000
62.354200 0.626500
62.403500 0.791100
62.452800 1.322900
62.502100 1.719100
62.551300 2.017000
62.600600 2.427700
62.649900 2.527000
62.699200 2.703200
62.748400 2.788700
62.797700 2.963500
62.847000 2.658200
62.896300 2.523500
62.945500 2.379600
62.994800 2.301400
63.044100 2.344100
63.093400 2.286400
63.142600 2.149600
63.191900 1.975800
63.241200 1.755100
63.290500 1.509000
63.339800 1.229100
63.389000 1.055400
63.438300 0.933200
63.487600 0.974200
63.536900 1.027400
63.586100 1.092500
63.635400 1.204100
63.684700 1.711600
63.734000 1.656200
63.783200 1.658700
63.832500 1.780000
63.881800 1.918400
63.931100 2.090600
63.980300 2.039700
64.029600 2.075300
64.078900 2.113100
64.128200 2.150300
64.177400 2.149700
64.226700 2.157500
64.276000 2.227700
64.325300 2.422400
64.374500 2.221300
64.423800 1.823500
64.473100 1.322100
64.522400 1.083200
64.571600 0.939400
64.620900 0.919300
64.670200 0.911700
64.719500 0.906700
64.768800 0.908400
64.818000 0.930900
64.867300 0.962300
64.916600 1.036500
64.965900 1.114400
65.015100 1.207000
65.064400 1.324400
65.113700 1.404100
65.163000 1.516900
65.212200 1.649200
65.261500 1.789300
65.310800 2.102000
65.360100 2.341100
65.409300 2.272600
65.458600 2.347500
65.507900 2.408700
65.557200 2.435100
65.606400 2.401600
65.655700 2.256100
65.705000 2.006000
65.754300 1.806200
65.803500 1.623600
65.852800 1.454000
65.902100 1.299800
65.951400 1.272200
66.000600 1.251800
66.049900 1.282700
66.099200 1.404000
66.148500 1.492100
66.197700 1.589200
66.247000 1.688800
66.296300 1.773300
66.345600 1.766000
66.394900 2.014800
66.444100 2.061200
66.493400 2.039100
66.542700 1.869000
66.592000 1.798900
66.641200 1.732900
66.690500 1.672100
66.739800 1.624500
66.789100 1.592400
66.838300 1.565700
66.887600 1.604900
66.936900 1.707500
66.986200 1.647800
67.035400 1.649500
67.084700 1.753500
67.134000 1.830700
67.183300 1.843600
67.232500 1.861500
67.281800 1.875400
67.331100 1.811800
67.380400 1.742100
67.429600 1.683200
67.478900 1.625000
67.528200 1.626400
67.577500 1.702400
67.626700 1.761900
67.676000 1.772500
67.725300 1.737100
67.774600 1.578400
67.823900 1.551400
67.873100 1.645800
67.922400 1.152000
67.971700 0.899800
68.021000 0.686100
68.070200 0.510900
68.119500 0.375000
68.168800 0.285300
68.218100 0.214200
68.267300 0.159100
68.316600 0.139400
68.365900 0.128200
68.415200 0.118000
68.464400 0.111100
68.513700 0.105400
68.563000 0.099700
68.612300 0.092700
68.661500 0.085600
68.710800 0.079200
68.760100 0.073600
68.809400 0.068800
68.858600 0.064700
68.907900 0.061600
68.957200 0.059100
69.006500 0.056600
69.055700 0.054100
69.105000 0.051700
69.154300 0.049300
69.203600 0.046900
69.252900 0.044500
69.302100 0.042100
69.351400 0.039700
69.400700 0.037400
69.450000 0.035100
69.499200 0.032800
69.548500 0.031100
69.597800 0.030100
69.647100 0.029100
69.696300 0.028000
69.745600 0.026900
69.794900 0.025700
69.844200 0.024600
69.893400 0.023400
69.942700 0.022100
69.992000 0.020900
70.041300 0.019600
70.090500 0.018300
70.139800 0.017000
70.189100 0.015600
70.238400 0.014200
70.287600 0.012800
70.336900 0.011300
70.386200 0.009800
70.435500 0.000000
70.484700 0.000000
70.534000 0.000000
70.583300 0.000000
70.632600 0.000000
70.681900 0.000000
70.731100 0.000000
70.780400 0.000000
70.829700 0.000000
70.879000 0.000000
70.928200 0.000000
70.977500 0.000000
71.026800 0.000000
71.076100 0.000000
71.125300 0.000000
71.174600 0.000000
71.223900 0.000000
71.273200 0.000000
71.322400 0.000000
71.371700 0.000000
71.421000 0.000000
71.470300 0.000000
71.519500 0.000000
71.568800 0.000000
71.618100 0.000000
71.667400 0.000000
71.716600 0.000000
71.765900 0.000000
71.815200 0.000000
71.864500 0.000000
71.913700 0.000000
71.963000 0.000000
72.012300 0.000000
72.061600 0.000000
72.110900 0.000000
72.160100 0.000000
72.209400 0.000000
72.258700 0.000000
72.308000 0.000000
72.357200 0.000000
72.406500 0.000000
72.455800 0.000000
72.505100 0.000000
72.554300 0.000000
72.603600 0.000000
72.652900 0.000000
72.702200 0.000000
72.751400 0.000000
72.800700 0.000000
72.850000 0.000000
72.899300 0.000000
72.948500 0.000000
72.997800 0.000000
73.047100 0.000000
73.096400 0.000000
73.145600 0.000000
73.194900 0.000000
73.244200 0.000000
73.293500 0.000000
73.342700 0.000000
73.392000 0.000000
73.441300 0.000000
73.490600 0.000000
73.539900 0.000000
73.589100 0.000000
73.638400 0.000000
73.687700 0.000000
73.737000 0.000000
73.786200 0.000000
73.835500 0.000000
73.884800 0.000000
73.934100 0.000000
73.983300 0.000000
74.032600 0.000000
74.081900 0.000000
74.131200 0.000000
74.180400 0.000000
74.229700 0.000000
74.279000 0.000000
74.328300 0.000000
74.377500 0.000000
74.426800 0.000000
74.476100 0.000000
74.525400 0.000000
74.574600 0.000000
74.623900 0.000000
74.673200 0.000000
74.722500 0.000000
74.771700 0.000000
74.821000 0.000000
74.870300 0.000000
e
