set title 'mp-1186450 - Density of States'
set xlabel 'Energy (eV)'
set ylabel 'DOS (states/eV)'
set grid
set xrange [-10:10]
set yrange [0:6.552]
set xzeroaxis lt -1
set terminal png size 800,600
set output 'mp-1186450_dos_gnuplot.png'
plot '-' using 1:2 with lines title 'DOS'
-4.303900 0.000000
-4.283200 0.000000
-4.262500 0.000000
-4.241800 0.000000
-4.221100 0.000000
-4.200400 0.000000
-4.179700 0.000000
-4.159000 0.000000
-4.138300 0.000000
-4.117600 0.000000
-4.096800 0.000000
-4.076100 0.000000
-4.055400 0.000000
-4.034700 0.000000
-4.014000 0.000000
-3.993300 0.000000
-3.972600 0.000000
-3.951900 0.000000
-3.931200 0.000000
-3.910500 0.000000
-3.889800 0.000000
-3.869100 0.000000
-3.848400 0.000000
-3.827700 0.000000
-3.807000 0.000000
-3.786200 0.000000
-3.765500 0.000000
-3.744800 0.000000
-3.724100 0.000000
-3.703400 0.000000
-3.682700 0.000000
-3.662000 0.000000
-3.641300 0.000000
-3.620600 0.000000
-3.599900 0.000000
-3.579200 0.000000
-3.558500 0.000000
-3.537800 0.000000
-3.517100 0.000000
-3.496300 0.000000
-3.475600 0.000000
-3.454900 0.000000
-3.434200 0.000000
-3.413500 0.000000
-3.392800 0.000000
-3.372100 0.000000
-3.351400 0.000000
-3.330700 0.000000
-3.310000 0.000000
-3.289300 0.000000
-3.268600 0.000000
-3.247900 0.000000
-3.227200 0.000000
-3.206500 0.000000
-3.185700 0.000000
-3.165000 0.000000
-3.144300 0.000000
-3.123600 0.000000
-3.102900 0.000000
-3.082200 0.000000
-3.061500 0.000000
-3.040800 0.000000
-3.020100 0.000000
-2.999400 0.000000
-2.978700 0.000000
-2.958000 0.000000
-2.937300 0.000000
-2.916600 0.000000
-2.895900 0.000000
-2.875100 0.000000
-2.854400 0.000000
-2.833700 0.000000
-2.813000 0.000000
-2.792300 0.000000
-2.771600 0.000000
-2.750900 0.000000
-2.730200 0.000000
-2.709500 0.000000
-2.688800 0.000000
-2.668100 0.000000
-2.647400 0.000000
-2.626700 0.000000
-2.606000 0.000000
-2.585300 0.000000
-2.564500 0.000000
-2.543800 0.000000
-2.523100 0.000100
-2.502400 0.000500
-2.481700 0.001900
-2.461000 0.005000
-2.440300 0.010000
-2.419600 0.015600
-2.398900 0.020700
-2.378200 0.025700
-2.357500 0.030200
-2.336800 0.033600
-2.316100 0.041100
-2.295400 0.061200
-2.274700 0.091000
-2.253900 0.110600
-2.233200 0.101900
-2.212500 0.069600
-2.191800 0.035300
-2.171100 0.014900
-2.150400 0.012300
-2.129700 0.027700
-2.109000 0.060400
-2.088300 0.100200
-2.067600 0.129800
-2.046900 0.142100
-2.026200 0.142000
-2.005500 0.132700
-1.984800 0.121500
-1.964100 0.126400
-1.943300 0.150800
-1.922600 0.166900
-1.901900 0.146200
-1.881200 0.096000
-1.860500 0.047200
-1.839800 0.020700
-1.819100 0.019600
-1.798400 0.041600
-1.777700 0.080700
-1.757000 0.122300
-1.736300 0.152300
-1.715600 0.166900
-1.694900 0.167400
-1.674200 0.159700
-1.653400 0.167400
-1.632700 0.213300
-1.612000 0.275800
-1.591300 0.295800
-1.570600 0.242400
-1.549900 0.148600
-1.529200 0.070700
-1.508500 0.037600
-1.487800 0.047600
-1.467100 0.084900
-1.446400 0.125700
-1.425700 0.151000
-1.405000 0.163800
-1.384300 0.183600
-1.363600 0.225900
-1.342800 0.286300
-1.322100 0.327600
-1.301400 0.302700
-1.280700 0.212600
-1.260000 0.112000
-1.239300 0.051200
-1.218600 0.045100
-1.197900 0.090500
-1.177200 0.175000
-1.156500 0.266800
-1.135800 0.321500
-1.115100 0.313900
-1.094400 0.260300
-1.073700 0.207500
-1.053000 0.195900
-1.032200 0.226400
-1.011500 0.257900
-0.990800 0.247500
-0.970100 0.199600
-0.949400 0.158800
-0.928700 0.155900
-0.908000 0.188200
-0.887300 0.247200
-0.866600 0.326300
-0.845900 0.397600
-0.825200 0.424900
-0.804500 0.411100
-0.783800 0.391500
-0.763100 0.375100
-0.742400 0.335000
-0.721600 0.258500
-0.700900 0.169500
-0.680200 0.102600
-0.659500 0.075700
-0.638800 0.086700
-0.618100 0.133200
-0.597400 0.219900
-0.576700 0.333000
-0.556000 0.425000
-0.535300 0.456600
-0.514600 0.446500
-0.493900 0.452600
-0.473200 0.489000
-0.452500 0.493500
-0.431800 0.416200
-0.411000 0.304700
-0.390300 0.255900
-0.369600 0.313800
-0.348900 0.447100
-0.328200 0.586000
-0.307500 0.653500
-0.286800 0.601200
-0.266100 0.454900
-0.245400 0.307700
-0.224700 0.256400
-0.204000 0.342400
-0.183300 0.516400
-0.162600 0.652200
-0.141900 0.652600
-0.121200 0.557900
-0.100400 0.509800
-0.079700 0.607000
-0.059000 0.813700
-0.038300 1.006100
-0.017600 1.100200
0.003100 1.117400
0.023800 1.120600
0.044500 1.134400
0.065200 1.162200
0.085900 1.219600
0.106600 1.295800
0.127300 1.337700
0.148000 1.337800
0.168700 1.375800
0.189500 1.503000
0.210200 1.646100
0.230900 1.692800
0.251600 1.608400
0.272300 1.437700
0.293000 1.267400
0.313700 1.180200
0.334400 1.188400
0.355100 1.235000
0.375800 1.269700
0.396500 1.288900
0.417200 1.310000
0.437900 1.330100
0.458600 1.331600
0.479300 1.329700
0.500100 1.366500
0.520800 1.444400
0.541500 1.520900
0.562200 1.574200
0.582900 1.629900
0.603600 1.727700
0.624300 1.874800
0.645000 2.021800
0.665700 2.104300
0.686400 2.114000
0.707100 2.100700
0.727800 2.136200
0.748500 2.299800
0.769200 2.619300
0.789900 2.994200
0.810700 3.261100
0.831400 3.339400
0.852100 3.264600
0.872800 3.127300
0.893500 3.012400
0.914200 2.952100
0.934900 2.921600
0.955600 2.901600
0.976300 2.932400
0.997000 3.065000
1.017700 3.269300
1.038400 3.457900
1.059100 3.587800
1.079800 3.662200
1.100500 3.651000
1.121300 3.522200
1.142000 3.342800
1.162700 3.210100
1.183400 3.104300
1.204100 2.967200
1.224800 2.886400
1.245500 3.017600
1.266200 3.314200
1.286900 3.507100
1.307600 3.440900
1.328300 3.277000
1.349000 3.244400
1.369700 3.341000
1.390400 3.401500
1.411100 3.334800
1.431900 3.185100
1.452600 3.039800
1.473300 2.974800
1.494000 3.040300
1.514700 3.199700
1.535400 3.294700
1.556100 3.174800
1.576800 2.904500
1.597500 2.729300
1.618200 2.769800
1.638900 2.875600
1.659600 2.850100
1.680300 2.694800
1.701000 2.545000
1.721700 2.466200
1.742500 2.414500
1.763200 2.315500
1.783900 2.141300
1.804600 1.962800
1.825300 1.878700
1.846000 1.886000
1.866700 1.935000
1.887400 2.075300
1.908100 2.404700
1.928800 2.880400
1.949500 3.302800
1.970200 3.503400
1.990900 3.454300
2.011600 3.205000
2.032400 2.851300
2.053100 2.561600
2.073800 2.478600
2.094500 2.567400
2.115200 2.673600
2.135900 2.741200
2.156600 2.856700
2.177300 3.073800
2.198000 3.304600
2.218700 3.407300
2.239400 3.321300
2.260100 3.100700
2.280800 2.858300
2.301500 2.688800
2.322200 2.628000
2.343000 2.702100
2.363700 2.969000
2.384400 3.409400
2.405100 3.814700
2.425800 3.919800
2.446500 3.660600
2.467200 3.221800
2.487900 2.854700
2.508600 2.725700
2.529300 2.871600
2.550000 3.186700
2.570700 3.481000
2.591400 3.615600
2.612100 3.570300
2.632800 3.398400
2.653600 3.178300
2.674300 2.993100
2.695000 2.897200
2.715700 2.911700
2.736400 3.038000
2.757100 3.227300
2.777800 3.381600
2.798500 3.440500
2.819200 3.420000
2.839900 3.357700
2.860600 3.279100
2.881300 3.214900
2.902000 3.200000
2.922700 3.250200
2.943400 3.377600
2.964200 3.612000
2.984900 3.941200
3.005600 4.269500
3.026300 4.504000
3.047000 4.620200
3.067700 4.605300
3.088400 4.466600
3.109100 4.303000
3.129800 4.199500
3.150500 4.092300
3.171200 3.909700
3.191900 3.768100
3.212600 3.872900
3.233300 4.266200
3.254000 4.752700
3.274800 5.088900
3.295500 5.214000
3.316200 5.255300
3.336900 5.336800
3.357600 5.473600
3.378300 5.638200
3.399000 5.817400
3.419700 5.956500
3.440400 5.927400
3.461100 5.652200
3.481800 5.230100
3.502500 4.819100
3.523200 4.444000
3.543900 4.054600
3.564600 3.688700
3.585400 3.448500
3.606100 3.385300
3.626800 3.467200
3.647500 3.577900
3.668200 3.555100
3.688900 3.334100
3.709600 3.047900
3.730300 2.906800
3.751000 2.981400
3.771700 3.144100
3.792400 3.200600
3.813100 3.061600
3.833800 2.818800
3.854500 2.655000
3.875300 2.681800
3.896000 2.874700
3.916700 3.120200
3.937400 3.279900
3.958100 3.248100
3.978800 3.035700
3.999500 2.800100
4.020200 2.702300
4.040900 2.747900
4.061600 2.851500
4.082300 2.992900
4.103000 3.184700
4.123700 3.338500
4.144400 3.314800
4.165100 3.096600
4.185900 2.803700
4.206600 2.565800
4.227300 2.467600
4.248000 2.557900
4.268700 2.827300
4.289400 3.166700
4.310100 3.399700
4.330800 3.433100
4.351500 3.342300
4.372200 3.245500
4.392900 3.174500
4.413600 3.124500
4.434300 3.133700
4.455000 3.234500
4.475700 3.362000
4.496500 3.380200
4.517200 3.214400
4.537900 2.932800
4.558600 2.678500
4.579300 2.531700
4.600000 2.465600
4.620700 2.446000
4.641400 2.505400
4.662100 2.659400
4.682800 2.830000
4.703500 2.958100
4.724200 3.103400
4.744900 3.296200
4.765600 3.402000
4.786300 3.285600
4.807100 3.016200
4.827800 2.808800
4.848500 2.833600
4.869200 3.097100
4.889900 3.433100
4.910600 3.618800
4.931300 3.535600
4.952000 3.232800
4.972700 2.881100
4.993400 2.660800
5.014100 2.640500
5.034800 2.746400
5.055500 2.849800
5.076200 2.883700
5.096900 2.879900
5.117700 2.912900
5.138400 3.024000
5.159100 3.160700
5.179800 3.181800
5.200500 2.993300
5.221200 2.684100
5.241900 2.462100
5.262600 2.464300
5.283300 2.667600
5.304000 2.942900
5.324700 3.139900
5.345400 3.151400
5.366100 2.981500
5.386800 2.757500
5.407500 2.634600
5.428300 2.673400
5.449000 2.798200
5.469700 2.868600
5.490400 2.800800
5.511100 2.627700
5.531800 2.469600
5.552500 2.468300
5.573200 2.700200
5.593900 3.082000
5.614600 3.388200
5.635300 3.433600
5.656000 3.234600
5.676700 2.964300
5.697400 2.784200
5.718200 2.740500
5.738900 2.777200
5.759600 2.813500
5.780300 2.821400
5.801000 2.829400
5.821700 2.854600
5.842400 2.884600
5.863100 2.911500
5.883800 2.906300
5.904500 2.809000
5.925200 2.630000
5.945900 2.515300
5.966600 2.637800
5.987300 2.999500
6.008000 3.375300
6.028800 3.512400
6.049500 3.382100
6.070200 3.192500
6.090900 3.149700
6.111600 3.253000
6.132300 3.336900
6.153000 3.262500
6.173700 3.048900
6.194400 2.847800
6.215100 2.800800
6.235800 2.932800
6.256500 3.162600
6.277200 3.372400
6.297900 3.507700
6.318600 3.626500
6.339400 3.804000
6.360100 4.028500
6.380800 4.227700
6.401500 4.346400
6.422200 4.374500
6.442900 4.315900
6.463600 4.149500
6.484300 3.845000
6.505000 3.424200
6.525700 2.974800
6.546400 2.588100
6.567100 2.306800
6.587800 2.127700
6.608500 2.027100
6.629200 2.005200
6.650000 2.102300
6.670700 2.320200
6.691400 2.534900
6.712100 2.564500
6.732800 2.345300
6.753500 1.990900
6.774200 1.654200
6.794900 1.389400
6.815600 1.174600
6.836300 1.000600
6.857000 0.880500
6.877700 0.821400
6.898400 0.821700
6.919100 0.875400
6.939800 0.976200
6.960600 1.121200
6.981300 1.276300
7.002000 1.349700
7.022700 1.268500
7.043400 1.070100
7.064100 0.859800
7.084800 0.701300
7.105500 0.586100
7.126200 0.487200
7.146900 0.405900
7.167600 0.361200
7.188300 0.351700
7.209000 0.348700
7.229700 0.328600
7.250400 0.303800
7.271200 0.318500
7.291900 0.412600
7.312600 0.575100
7.333300 0.719400
7.354000 0.742000
7.374700 0.627700
7.395400 0.460900
7.416100 0.329900
7.436800 0.258700
7.457500 0.229100
7.478200 0.230300
7.498900 0.268800
7.519600 0.343400
7.540300 0.448000
7.561000 0.587200
7.581800 0.740400
7.602500 0.824500
7.623200 0.763900
7.643900 0.593600
7.664600 0.439400
7.685300 0.402600
7.706000 0.484900
7.726700 0.595400
7.747400 0.633700
7.768100 0.586600
7.788800 0.527000
7.809500 0.519600
7.830200 0.566600
7.850900 0.631700
7.871700 0.679700
7.892400 0.695400
7.913100 0.686900
7.933800 0.664900
7.954500 0.622400
7.975200 0.565700
7.995900 0.552300
8.016600 0.623900
8.037300 0.715500
8.058000 0.718100
8.078700 0.619800
8.099400 0.512900
8.120100 0.479500
8.140800 0.512300
8.161500 0.542000
8.182300 0.529900
8.203000 0.505700
8.223700 0.497900
8.244400 0.478300
8.265100 0.412600
8.285800 0.328000
8.306500 0.293500
8.327200 0.334600
8.347900 0.399600
8.368600 0.430600
8.389300 0.429300
8.410000 0.424200
8.430700 0.420100
8.451400 0.413300
8.472100 0.412600
8.492900 0.433900
8.513600 0.489800
8.534300 0.568400
8.555000 0.618700
8.575700 0.593300
8.596400 0.510500
8.617100 0.441700
8.637800 0.430600
8.658500 0.453900
8.679200 0.467900
8.699900 0.462300
8.720600 0.458400
8.741300 0.479500
8.762000 0.533600
8.782700 0.602500
8.803500 0.644700
8.824200 0.629700
8.844900 0.574100
8.865600 0.523600
8.886300 0.498500
8.907000 0.481000
8.927700 0.462100
8.948400 0.479500
8.969100 0.591100
8.989800 0.798000
9.010500 0.993200
9.031200 1.039900
9.051900 0.914000
9.072600 0.708700
9.093300 0.510700
9.114100 0.349000
9.134800 0.236500
9.155500 0.194900
9.176200 0.235400
9.196900 0.335900
9.217600 0.452200
9.238300 0.551400
9.259000 0.629500
9.279700 0.693800
9.300400 0.731300
9.321100 0.718100
9.341800 0.663100
9.362500 0.608200
9.383200 0.576900
9.403900 0.552200
9.424700 0.518900
9.445400 0.498300
9.466100 0.510100
9.486800 0.521300
9.507500 0.477000
9.528200 0.380500
9.548900 0.303000
9.569600 0.310600
9.590300 0.398900
9.611000 0.495200
9.631700 0.525200
9.652400 0.484600
9.673100 0.436700
9.693800 0.435400
9.714600 0.470200
9.735300 0.491300
9.756000 0.474900
9.776700 0.449900
9.797400 0.458300
9.818100 0.500400
9.838800 0.544100
9.859500 0.581400
9.880200 0.631000
9.900900 0.695200
9.921600 0.753400
9.942300 0.784100
9.963000 0.766100
9.983700 0.684000
10.004400 0.552800
10.025200 0.421200
10.045900 0.334100
10.066600 0.299100
10.087300 0.294100
10.108000 0.295800
10.128700 0.296200
10.149400 0.299400
10.170100 0.309300
10.190800 0.326500
10.211500 0.354100
10.232200 0.390300
10.252900 0.417700
10.273600 0.414800
10.294300 0.381100
10.315000 0.339900
10.335800 0.326900
10.356500 0.383300
10.377200 0.525400
10.397900 0.704000
10.418600 0.831100
10.439300 0.861800
10.460000 0.816200
10.480700 0.725200
10.501400 0.603800
10.522100 0.481700
10.542800 0.411000
10.563500 0.412000
10.584200 0.440800
10.604900 0.445000
10.625600 0.434900
10.646400 0.465800
10.667100 0.555400
10.687800 0.648000
10.708500 0.667700
10.729200 0.595800
10.749900 0.480100
10.770600 0.382700
10.791300 0.338600
10.812000 0.344000
10.832700 0.359900
10.853400 0.345900
10.874100 0.310500
10.894800 0.305800
10.915500 0.367600
10.936200 0.480400
10.957000 0.592900
10.977700 0.648200
10.998400 0.616700
11.019100 0.524200
11.039800 0.430900
11.060500 0.378700
11.081200 0.379700
11.101900 0.421300
11.122600 0.454200
11.143300 0.417500
11.164000 0.303500
11.184700 0.168100
11.205400 0.069900
11.226100 0.023300
11.246800 0.013600
11.267600 0.029200
11.288300 0.071600
11.309000 0.141200
11.329700 0.221800
11.350400 0.288100
11.371100 0.342400
11.391800 0.430800
11.412500 0.586800
11.433200 0.759800
11.453900 0.840300
11.474600 0.773700
11.495300 0.609000
11.516000 0.437900
11.536700 0.322600
11.557500 0.275900
11.578200 0.276100
11.598900 0.302200
11.619600 0.345300
11.640300 0.387600
11.661000 0.409700
11.681700 0.421900
11.702400 0.453800
11.723100 0.508100
11.743800 0.553800
11.764500 0.577600
11.785200 0.617700
11.805900 0.728000
11.826600 0.900900
11.847300 1.040000
11.868100 1.035000
11.888800 0.865100
11.909500 0.605800
11.930200 0.355300
11.950900 0.182200
11.971600 0.115000
11.992300 0.146300
12.013000 0.242200
12.033700 0.358000
12.054400 0.457100
12.075100 0.513300
12.095800 0.512800
12.116500 0.479500
12.137200 0.465200
12.157900 0.491300
12.178700 0.541800
12.199400 0.597500
12.220100 0.632000
12.240800 0.612600
12.261500 0.549300
12.282200 0.507200
12.302900 0.537000
12.323600 0.612500
12.344300 0.668800
12.365000 0.679800
12.385700 0.660500
12.406400 0.624600
12.427100 0.583600
12.447800 0.558700
12.468500 0.567000
12.489300 0.611600
12.510000 0.684700
12.530700 0.763000
12.551400 0.804200
12.572100 0.771200
12.592800 0.675100
12.613500 0.577400
12.634200 0.537900
12.654900 0.566700
12.675600 0.625000
12.696300 0.664500
12.717000 0.671300
12.737700 0.667400
12.758400 0.674000
12.779100 0.686300
12.799900 0.679200
12.820600 0.636900
12.841300 0.573900
12.862000 0.508700
12.882700 0.433300
12.903400 0.346700
12.924100 0.297200
12.944800 0.344600
12.965500 0.484100
12.986200 0.634900
13.006900 0.701500
13.027600 0.644800
13.048300 0.504100
13.069000 0.359500
13.089700 0.273400
13.110500 0.265000
13.131200 0.317100
13.151900 0.397400
13.172600 0.475200
13.193300 0.523000
13.214000 0.534500
13.234700 0.546000
13.255400 0.597900
13.276100 0.675200
13.296800 0.721200
13.317500 0.698300
13.338200 0.612300
13.358900 0.501100
13.379600 0.430500
13.400400 0.465800
13.421100 0.601800
13.441800 0.751300
13.462500 0.840700
13.483200 0.873900
13.503900 0.874600
13.524600 0.836600
13.545300 0.764600
13.566000 0.700400
13.586700 0.676500
13.607400 0.677400
13.628100 0.671300
13.648800 0.651900
13.669500 0.621500
13.690200 0.572000
13.711000 0.521500
13.731700 0.516100
13.752400 0.555100
13.773100 0.578300
13.793800 0.555900
13.814500 0.519100
13.835200 0.492700
13.855900 0.463700
13.876600 0.422200
13.897300 0.389800
13.918000 0.397700
13.938700 0.450900
13.959400 0.519500
13.980100 0.567800
14.000800 0.588500
14.021600 0.604900
14.042300 0.641600
14.063000 0.698700
14.083700 0.757200
14.104400 0.796600
14.125100 0.799000
14.145800 0.748200
14.166500 0.642000
14.187200 0.506000
14.207900 0.383700
14.228600 0.308200
14.249300 0.299100
14.270000 0.371100
14.290700 0.510800
14.311400 0.655500
14.332200 0.721300
14.352900 0.666200
14.373600 0.536700
14.394300 0.439900
14.415000 0.452500
14.435700 0.551100
14.456400 0.645200
14.477100 0.687100
14.497800 0.713800
14.518500 0.762200
14.539200 0.800200
14.559900 0.787700
14.580600 0.749600
14.601300 0.731400
14.622000 0.728300
14.642800 0.715300
14.663500 0.703000
14.684200 0.708500
14.704900 0.711000
14.725600 0.687800
14.746300 0.657900
14.767000 0.650900
14.787700 0.667200
14.808400 0.694500
14.829100 0.729000
14.849800 0.764400
14.870500 0.782200
14.891200 0.761700
14.911900 0.702800
14.932600 0.633600
14.953400 0.576500
14.974100 0.525600
14.994800 0.480800
15.015500 0.466900
15.036200 0.503700
15.056900 0.581000
15.077600 0.668500
15.098300 0.741200
15.119000 0.791500
15.139700 0.809900
15.160400 0.769000
15.181100 0.653300
15.201800 0.496600
15.222500 0.365700
15.243300 0.313200
15.264000 0.343400
15.284700 0.412600
15.305400 0.466900
15.326100 0.487700
15.346800 0.496700
15.367500 0.513000
15.388200 0.528300
15.408900 0.536200
15.429600 0.551200
15.450300 0.570700
15.471000 0.560400
15.491700 0.507700
15.512400 0.453700
15.533100 0.441800
15.553900 0.457400
15.574600 0.454700
15.595300 0.431700
15.616000 0.432300
15.636700 0.480500
15.657400 0.545000
15.678100 0.567000
15.698800 0.519200
15.719500 0.451300
15.740200 0.459300
15.760900 0.583700
15.781600 0.754500
15.802300 0.858400
15.823000 0.843400
15.843700 0.741900
15.864500 0.620800
15.885200 0.536400
15.905900 0.517900
15.926600 0.566000
15.947300 0.653900
15.968000 0.726200
15.988700 0.722200
16.009400 0.625000
16.030100 0.487500
16.050800 0.396600
16.071500 0.411300
16.092200 0.537100
16.112900 0.735400
16.133600 0.936300
16.154300 1.067700
16.175100 1.092000
16.195800 1.008900
16.216500 0.843500
16.237200 0.649500
16.257900 0.486100
16.278600 0.378500
16.299300 0.325600
16.320000 0.335600
16.340700 0.419400
16.361400 0.553100
16.382100 0.679500
16.402800 0.754100
16.423500 0.763800
16.444200 0.717200
16.464900 0.649200
16.485700 0.607200
16.506400 0.608900
16.527100 0.638800
16.547800 0.683400
16.568500 0.736300
16.589200 0.771200
16.609900 0.749000
16.630600 0.673800
16.651300 0.600200
16.672000 0.574100
16.692700 0.600900
16.713400 0.656400
16.734100 0.693500
16.754800 0.669700
16.775500 0.598900
16.796300 0.555400
16.817000 0.602300
16.837700 0.721900
16.858400 0.827300
16.879100 0.841400
16.899800 0.763000
16.920500 0.664600
16.941200 0.632100
16.961900 0.695800
16.982600 0.809300
17.003300 0.898200
17.024000 0.938100
17.044700 0.969600
17.065400 1.019000
17.086200 1.048200
17.106900 1.011500
17.127600 0.914000
17.148300 0.801800
17.169000 0.726100
17.189700 0.729400
17.210400 0.840100
17.231100 1.046000
17.251800 1.270900
17.272500 1.408700
17.293200 1.397400
17.313900 1.246900
17.334600 1.010100
17.355300 0.769100
17.376000 0.616000
17.396800 0.589200
17.417500 0.639200
17.438200 0.684900
17.458900 0.683300
17.479600 0.630100
17.500300 0.540500
17.521000 0.453800
17.541700 0.409200
17.562400 0.400200
17.583100 0.392300
17.603800 0.373400
17.624500 0.358900
17.645200 0.370300
17.665900 0.426800
17.686600 0.522500
17.707400 0.604200
17.728100 0.618000
17.748800 0.580500
17.769500 0.571500
17.790200 0.663100
17.810900 0.863200
17.831600 1.098300
17.852300 1.255500
17.873000 1.277300
17.893700 1.196300
17.914400 1.068600
17.935100 0.926800
17.955800 0.794500
17.976500 0.692500
17.997200 0.631500
18.018000 0.615300
18.038700 0.647200
18.059400 0.735400
18.080100 0.886100
18.100800 1.074300
18.121500 1.220000
18.142200 1.224500
18.162900 1.061200
18.183600 0.818100
18.204300 0.621800
18.225000 0.537500
18.245700 0.552900
18.266400 0.615600
18.287100 0.663100
18.307800 0.657800
18.328600 0.625900
18.349300 0.634100
18.370000 0.703500
18.390700 0.783700
18.411400 0.826000
18.432100 0.830600
18.452800 0.816800
18.473500 0.806000
18.494200 0.831500
18.514900 0.913200
18.535600 1.028200
18.556300 1.122600
18.577000 1.145600
18.597700 1.082500
18.618400 0.966400
18.639200 0.859900
18.659900 0.814000
18.680600 0.827200
18.701300 0.864500
18.722000 0.911600
18.742700 0.970200
18.763400 1.009600
18.784100 0.984000
18.804800 0.899900
18.825500 0.816600
18.846200 0.778400
18.866900 0.779300
18.887600 0.786500
18.908300 0.787300
18.929000 0.816900
18.949800 0.915800
18.970500 1.066000
18.991200 1.201700
19.011900 1.272600
19.032600 1.274100
19.053300 1.224400
19.074000 1.133700
19.094700 1.008000
19.115400 0.877000
19.136100 0.796300
19.156800 0.809900
19.177500 0.911000
19.198200 1.041200
19.218900 1.134800
19.239700 1.173700
19.260400 1.183900
19.281100 1.180800
19.301800 1.163700
19.322500 1.160800
19.343200 1.215100
19.363900 1.314300
19.384600 1.384300
19.405300 1.369100
19.426000 1.285600
19.446700 1.188000
19.467400 1.099500
19.488100 0.995700
19.508800 0.860600
19.529500 0.739500
19.550300 0.705100
19.571000 0.773100
19.591700 0.871000
19.612400 0.901000
19.633100 0.836800
19.653800 0.746000
19.674500 0.718800
19.695200 0.774700
19.715900 0.847400
19.736600 0.882900
19.757300 0.917200
19.778000 1.007700
19.798700 1.140000
19.819400 1.256900
19.840100 1.316900
19.860900 1.293700
19.881600 1.178400
19.902300 0.999100
19.923000 0.809300
19.943700 0.660800
19.964400 0.604800
19.985100 0.692000
20.005800 0.921000
20.026500 1.178400
20.047200 1.288700
20.067900 1.177600
20.088600 0.954100
20.109300 0.784300
20.130000 0.726800
20.150700 0.746400
20.171500 0.815700
20.192200 0.923400
20.212900 1.032600
20.233600 1.097400
20.254300 1.113000
20.275000 1.124200
20.295700 1.176800
20.316400 1.256400
20.337100 1.296400
20.357800 1.253600
20.378500 1.149200
20.399200 1.034200
20.419900 0.941800
20.440600 0.880900
20.461300 0.847800
20.482100 0.831700
20.502800 0.835700
20.523500 0.881800
20.544200 0.967000
20.564900 1.052000
20.585600 1.125200
20.606300 1.211800
20.627000 1.297200
20.647700 1.313200
20.668400 1.215800
20.689100 1.037300
20.709800 0.861200
20.730500 0.769600
20.751200 0.800200
20.771900 0.915300
20.792700 1.016900
20.813400 1.025800
20.834100 0.947400
20.854800 0.846900
20.875500 0.776800
20.896200 0.746500
20.916900 0.759300
20.937600 0.854600
20.958300 1.077600
20.979000 1.393600
20.999700 1.656400
21.020400 1.713300
21.041100 1.560200
21.061800 1.346100
21.082600 1.217400
21.103300 1.209100
21.124000 1.262500
21.144700 1.287800
21.165400 1.215500
21.186100 1.039800
21.206800 0.834400
21.227500 0.700600
21.248200 0.682500
21.268900 0.747600
21.289600 0.838000
21.310300 0.910300
21.331000 0.940500
21.351700 0.935900
21.372400 0.938600
21.393200 0.980800
21.413900 1.052300
21.434600 1.124700
21.455300 1.164300
21.476000 1.124000
21.496700 0.980900
21.517400 0.781800
21.538100 0.617800
21.558800 0.559700
21.579500 0.610800
21.600200 0.700600
21.620900 0.736200
21.641600 0.677000
21.662300 0.558300
21.683000 0.450600
21.703800 0.405800
21.724500 0.424100
21.745200 0.459900
21.765900 0.476400
21.786600 0.495100
21.807300 0.567200
21.828000 0.709000
21.848700 0.881200
21.869400 1.018200
21.890100 1.090000
21.910800 1.140200
21.931500 1.228900
21.952200 1.346300
21.972900 1.430300
21.993600 1.461500
22.014400 1.487600
22.035100 1.544800
22.055800 1.609900
22.076500 1.633100
22.097200 1.580200
22.117900 1.463800
22.138600 1.344100
22.159300 1.268000
22.180000 1.230200
22.200700 1.224300
22.221400 1.290300
22.242100 1.461300
22.262800 1.681200
22.283500 1.827200
22.304200 1.820200
22.325000 1.694000
22.345700 1.558200
22.366400 1.520100
22.387100 1.625200
22.407800 1.822200
22.428500 1.977500
22.449200 1.980000
22.469900 1.854700
22.490600 1.716900
22.511300 1.612600
22.532000 1.490300
22.552700 1.340500
22.573400 1.263200
22.594100 1.351700
22.614800 1.561000
22.635600 1.730500
22.656300 1.731100
22.677000 1.571900
22.697700 1.365300
22.718400 1.212800
22.739100 1.138600
22.759800 1.115900
22.780500 1.116200
22.801200 1.120600
22.821900 1.107900
22.842600 1.050300
22.863300 0.950200
22.884000 0.872300
22.904700 0.883300
22.925500 0.961000
22.946200 1.012400
22.966900 0.979600
22.987600 0.893500
23.008300 0.823700
23.029000 0.805100
23.049700 0.837400
23.070400 0.923400
23.091100 1.055900
23.111800 1.198100
23.132500 1.320700
23.153200 1.411400
23.173900 1.443100
23.194600 1.410700
23.215300 1.367100
23.236100 1.352700
23.256800 1.349400
23.277500 1.335900
23.298200 1.308500
23.318900 1.233100
23.339600 1.073500
23.360300 0.871300
23.381000 0.721500
23.401700 0.682100
23.422400 0.767400
23.443100 0.973400
23.463800 1.241300
23.484500 1.460200
23.505200 1.563900
23.525900 1.572100
23.546700 1.522600
23.567400 1.440000
23.588100 1.375000
23.608800 1.393500
23.629500 1.494600
23.650200 1.587500
23.670900 1.595100
23.691600 1.550300
23.712300 1.542800
23.733000 1.588100
23.753700 1.604000
23.774400 1.515500
23.795100 1.341300
23.815800 1.167600
23.836500 1.067300
23.857300 1.053200
23.878000 1.087500
23.898700 1.120300
23.919400 1.127600
23.940100 1.139900
23.960800 1.215200
23.981500 1.348500
24.002200 1.446400
24.022900 1.436000
24.043600 1.348100
24.064300 1.254400
24.085000 1.176500
24.105700 1.106500
24.126400 1.063300
24.147100 1.068400
24.167900 1.096900
24.188600 1.106100
24.209300 1.103000
24.230000 1.128200
24.250700 1.179600
24.271400 1.207600
24.292100 1.181900
24.312800 1.119600
24.333500 1.047900
24.354200 0.965200
24.374900 0.862100
24.395600 0.759600
24.416300 0.692300
24.437000 0.688800
24.457700 0.770300
24.478500 0.913900
24.499200 1.027800
24.519900 1.024400
24.540600 0.905900
24.561300 0.739700
24.582000 0.583100
24.602700 0.480100
24.623400 0.487400
24.644100 0.630700
24.664800 0.842700
24.685500 1.000000
24.706200 1.036800
24.726900 0.987400
24.747600 0.909200
24.768400 0.819900
24.789100 0.738200
24.809800 0.722300
24.830500 0.811800
24.851200 0.966500
24.871900 1.092000
24.892600 1.105000
24.913300 0.987800
24.934000 0.821400
24.954700 0.727200
24.975400 0.736600
24.996100 0.771000
25.016800 0.760300
25.037500 0.711900
25.058200 0.665500
25.079000 0.649000
25.099700 0.672900
25.120400 0.720300
25.141100 0.749100
25.161800 0.722600
25.182500 0.641300
25.203200 0.549100
25.223900 0.503900
25.244600 0.528400
25.265300 0.589500
25.286000 0.627300
25.306700 0.608800
25.327400 0.549500
25.348100 0.489200
25.368800 0.467800
25.389600 0.519800
25.410300 0.652500
25.431000 0.826900
25.451700 0.977600
25.472400 1.047100
25.493100 1.020800
25.513800 0.952600
25.534500 0.924400
25.555200 0.957500
25.575900 0.992700
25.596600 0.975800
25.617300 0.938600
25.638000 0.955000
25.658700 1.031700
25.679400 1.100100
25.700200 1.106400
25.720900 1.046200
25.741600 0.931700
25.762300 0.796100
25.783000 0.699100
25.803700 0.674700
25.824400 0.698800
25.845100 0.735600
25.865800 0.780900
25.886500 0.837400
25.907200 0.889600
25.927900 0.937800
25.948600 1.016000
25.969300 1.129500
25.990000 1.230100
26.010800 1.303700
26.031500 1.419300
26.052200 1.617900
26.072900 1.803000
26.093600 1.833100
26.114300 1.700400
26.135000 1.532200
26.155700 1.424600
26.176400 1.349600
26.197100 1.260900
26.217800 1.214200
26.238500 1.281600
26.259200 1.401000
26.279900 1.435700
26.300600 1.353900
26.321400 1.260600
26.342100 1.271100
26.362800 1.404700
26.383500 1.590500
26.404200 1.732500
26.424900 1.783500
26.445600 1.781900
26.466300 1.801300
26.487000 1.871000
26.507700 1.977900
26.528400 2.099900
26.549100 2.165500
26.569800 2.062600
26.590500 1.782500
26.611300 1.474200
26.632000 1.287400
26.652700 1.229100
26.673400 1.198100
26.694100 1.120700
26.714800 1.031700
26.735500 1.011700
26.756200 1.081300
26.776900 1.211200
26.797600 1.390700
26.818300 1.608600
26.839000 1.809400
26.859700 1.945800
26.880400 2.051200
26.901100 2.196100
26.921900 2.373100
26.942600 2.478800
26.963300 2.425700
26.984000 2.233300
27.004700 1.991000
27.025400 1.769800
27.046100 1.594500
27.066800 1.461500
27.087500 1.365300
27.108200 1.323100
27.128900 1.358500
27.149600 1.455300
27.170300 1.565000
27.191000 1.656100
27.211700 1.726300
27.232500 1.778500
27.253200 1.805400
27.273900 1.787600
27.294600 1.704200
27.315300 1.569300
27.336000 1.445200
27.356700 1.394900
27.377400 1.441400
27.398100 1.566900
27.418800 1.732600
27.439500 1.904000
27.460200 2.045200
27.480900 2.111200
27.501600 2.086700
27.522300 2.002600
27.543100 1.898100
27.563800 1.805500
27.584500 1.761800
27.605200 1.835800
27.625900 2.170700
27.646600 2.954600
27.667300 4.272700
27.688000 6.015900
27.708700 8.052900
27.729400 10.446500
27.750100 13.219100
27.770800 15.828200
27.791500 17.209600
27.812200 16.610100
27.832900 14.277400
27.853700 11.213400
27.874400 8.339300
27.895100 6.013000
27.915800 4.236000
27.936500 2.991000
27.957200 2.243500
27.977900 1.856200
27.998600 1.665300
28.019300 1.576600
28.040000 1.561800
28.060700 1.599100
28.081400 1.637100
28.102100 1.616000
28.122800 1.504800
28.143500 1.334200
28.164300 1.212000
28.185000 1.251500
28.205700 1.444600
28.226400 1.641900
28.247100 1.693200
28.267800 1.596300
28.288500 1.479900
28.309200 1.437600
28.329900 1.429200
28.350600 1.364000
28.371300 1.229500
28.392000 1.098300
28.412700 1.053300
28.433400 1.130900
28.454200 1.287800
28.474900 1.413400
28.495600 1.427100
28.516300 1.362400
28.537000 1.310000
28.557700 1.299000
28.578400 1.288500
28.599100 1.250800
28.619800 1.195400
28.640500 1.127200
28.661200 1.041200
28.681900 0.951100
28.702600 0.882000
28.723300 0.848800
28.744000 0.849800
28.764800 0.864400
28.785500 0.880300
28.806200 0.922000
28.826900 1.003500
28.847600 1.071700
28.868300 1.061100
28.889000 0.984200
28.909700 0.915300
28.930400 0.899000
28.951100 0.920200
28.971800 0.950600
28.992500 0.977400
29.013200 0.993700
29.033900 0.992400
29.054600 0.962700
29.075400 0.894100
29.096100 0.806600
29.116800 0.762100
29.137500 0.816400
29.158200 0.963400
29.178900 1.128700
29.199600 1.219400
29.220300 1.198100
29.241000 1.114900
29.261700 1.048300
29.282400 1.021500
29.303100 1.010300
29.323800 1.003200
29.344500 0.993100
29.365200 0.947500
29.386000 0.850700
29.406700 0.740300
29.427400 0.661500
29.448100 0.619700
29.468800 0.599200
29.489500 0.598300
29.510200 0.623400
29.530900 0.661600
29.551600 0.685800
29.572300 0.690400
29.593000 0.696700
29.613700 0.711600
29.634400 0.696800
29.655100 0.607300
29.675800 0.461500
29.696600 0.338100
29.717300 0.294000
29.738000 0.325700
29.758700 0.409800
29.779400 0.529600
29.800100 0.658200
29.820800 0.765100
29.841500 0.844100
29.862200 0.906500
29.882900 0.953300
29.903600 0.976500
29.924300 0.971200
29.945000 0.920700
29.965700 0.796600
29.986400 0.607300
30.007200 0.422700
30.027900 0.321100
30.048600 0.323200
30.069300 0.386000
30.090000 0.451100
30.110700 0.503000
30.131400 0.574500
30.152100 0.677700
30.172800 0.753900
30.193500 0.740400
30.214200 0.657600
30.234900 0.568600
30.255600 0.502300
30.276300 0.464400
30.297100 0.459300
30.317800 0.471600
30.338500 0.483100
30.359200 0.507600
30.379900 0.569000
30.400600 0.663500
30.421300 0.769800
30.442000 0.867300
30.462700 0.930200
30.483400 0.939200
30.504100 0.905000
30.524800 0.856600
30.545500 0.815000
30.566200 0.797400
30.586900 0.823600
30.607700 0.894800
30.628400 0.972400
30.649100 1.003000
30.669800 0.968800
30.690500 0.885000
30.711200 0.772200
30.731900 0.664300
30.752600 0.601100
30.773300 0.598900
30.794000 0.659700
30.814700 0.770000
30.835400 0.868300
30.856100 0.878400
30.876800 0.798800
30.897500 0.707500
30.918300 0.660800
30.939000 0.634000
30.959700 0.601500
30.980400 0.617400
31.001100 0.752600
31.021800 0.987800
31.042500 1.213400
31.063200 1.315900
31.083900 1.263100
31.104600 1.121600
31.125300 0.977900
31.146000 0.859000
31.166700 0.767800
31.187400 0.748700
31.208100 0.846600
31.228900 1.024500
31.249600 1.183300
31.270300 1.258900
31.291000 1.266000
31.311700 1.250500
31.332400 1.234700
31.353100 1.210700
31.373800 1.160700
31.394500 1.080100
31.415200 0.987100
31.435900 0.899100
31.456600 0.820100
31.477300 0.765700
31.498000 0.766100
31.518700 0.832000
31.539500 0.927900
31.560200 0.985000
31.580900 0.965400
31.601600 0.911400
31.622300 0.897700
31.643000 0.935800
31.663700 0.962800
31.684400 0.914400
31.705100 0.790300
31.725800 0.666900
31.746500 0.650600
31.767200 0.774300
31.787900 0.941100
31.808600 1.016400
31.829300 0.975700
31.850100 0.921700
31.870800 0.959000
31.891500 1.095300
31.912200 1.249700
31.932900 1.330600
31.953600 1.320100
31.974300 1.289500
31.995000 1.316000
32.015700 1.385200
32.036400 1.404000
32.057100 1.328000
32.077800 1.214400
32.098500 1.125100
32.119200 1.072600
32.139900 1.078900
32.160700 1.170500
32.181400 1.296900
32.202100 1.349400
32.222800 1.278100
32.243500 1.137600
32.264200 1.017700
32.284900 0.964500
32.305600 0.965900
32.326300 0.983400
32.347000 0.992100
32.367700 0.996100
32.388400 1.009900
32.409100 1.033100
32.429800 1.047300
32.450600 1.036200
32.471300 1.000300
32.492000 0.946600
32.512700 0.872000
32.533400 0.777900
32.554100 0.695800
32.574800 0.656000
32.595500 0.650200
32.616200 0.668600
32.636900 0.750500
32.657600 0.940900
32.678300 1.199400
32.699000 1.406400
32.719700 1.470300
32.740400 1.399500
32.761200 1.285200
32.781900 1.239700
32.802600 1.310000
32.823300 1.415100
32.844000 1.421400
32.864700 1.309100
32.885400 1.187900
32.906100 1.142200
32.926800 1.155000
32.947500 1.174900
32.968200 1.186600
32.988900 1.227100
33.009600 1.335700
33.030300 1.478500
33.051000 1.569000
33.071800 1.573400
33.092500 1.541300
33.113200 1.532000
33.133900 1.540100
33.154600 1.494300
33.175300 1.343300
33.196000 1.146800
33.216700 1.041200
33.237400 1.094800
33.258100 1.224500
33.278800 1.302900
33.299500 1.323800
33.320200 1.382300
33.340900 1.504000
33.361600 1.593100
33.382400 1.551400
33.403100 1.382100
33.423800 1.196300
33.444500 1.137100
33.465200 1.252100
33.485900 1.430800
33.506600 1.508000
33.527300 1.414000
33.548000 1.216900
33.568700 1.051800
33.589400 1.015200
33.610100 1.104900
33.630800 1.253900
33.651500 1.384300
33.672200 1.422900
33.693000 1.346000
33.713700 1.209700
33.734400 1.073200
33.755100 0.943200
33.775800 0.832000
33.796500 0.782900
33.817200 0.810400
33.837900 0.872000
33.858600 0.916900
33.879300 0.932000
33.900000 0.937400
33.920700 0.949200
33.941400 0.965200
33.962100 0.991300
33.982800 1.035300
34.003600 1.063000
34.024300 1.018700
34.045000 0.899700
34.065700 0.782900
34.086400 0.762300
34.107100 0.849200
34.127800 0.953300
34.148500 0.978700
34.169200 0.910500
34.189900 0.798900
34.210600 0.696800
34.231300 0.627000
34.252000 0.588100
34.272700 0.574400
34.293500 0.579800
34.314200 0.589300
34.334900 0.585800
34.355600 0.560400
34.376300 0.508800
34.397000 0.433700
34.417700 0.351800
34.438400 0.288300
34.459100 0.259900
34.479800 0.257300
34.500500 0.251100
34.521200 0.231800
34.541900 0.227500
34.562600 0.258800
34.583300 0.300000
34.604100 0.314200
34.624800 0.302100
34.645500 0.283600
34.666200 0.259600
34.686900 0.225400
34.707600 0.200800
34.728300 0.213900
34.749000 0.257600
34.769700 0.286700
34.790400 0.270700
34.811100 0.228200
34.831800 0.192500
34.852500 0.170900
34.873200 0.155900
34.893900 0.150700
34.914700 0.162500
34.935400 0.182400
34.956100 0.189200
34.976800 0.170200
34.997500 0.132100
35.018200 0.096100
35.038900 0.074600
35.059600 0.062500
35.080300 0.055200
35.101000 0.061900
35.121700 0.090100
35.142400 0.127000
35.163100 0.147700
35.183800 0.139700
35.204500 0.114500
35.225300 0.088300
35.246000 0.064600
35.266700 0.040900
35.287400 0.020300
35.308100 0.007500
35.328800 0.002000
35.349500 0.000400
35.370200 0.000100
35.390900 0.000000
35.411600 0.000000
35.432300 0.000000
35.453000 0.000000
35.473700 0.000000
35.494400 0.000000
35.515100 0.000000
35.535900 0.000000
35.556600 0.000000
35.577300 0.000000
35.598000 0.000000
35.618700 0.000000
35.639400 0.000000
35.660100 0.000000
35.680800 0.000000
35.701500 0.000000
35.722200 0.000000
35.742900 0.000000
35.763600 0.000000
35.784300 0.000000
35.805000 0.000000
35.825700 0.000000
35.846500 0.000000
35.867200 0.000000
35.887900 0.000000
35.908600 0.000000
35.929300 0.000000
35.950000 0.000000
35.970700 0.000000
35.991400 0.000000
36.012100 0.000000
36.032800 0.000000
36.053500 0.000000
36.074200 0.000000
36.094900 0.000000
36.115600 0.000000
36.136400 0.000000
36.157100 0.000000
36.177800 0.000000
36.198500 0.000000
36.219200 0.000000
36.239900 0.000000
36.260600 0.000000
36.281300 0.000000
36.302000 0.000000
36.322700 0.000000
36.343400 0.000000
36.364100 0.000000
36.384800 0.000000
36.405500 0.000000
36.426200 0.000000
36.447000 0.000000
36.467700 0.000000
36.488400 0.000000
36.509100 0.000000
36.529800 0.000000
36.550500 0.000000
36.571200 0.000000
36.591900 0.000000
36.612600 0.000000
36.633300 0.000000
36.654000 0.000000
36.674700 0.000000
36.695400 0.000000
36.716100 0.000000
36.736800 0.000000
36.757600 0.000000
36.778300 0.000000
36.799000 0.000000
36.819700 0.000000
36.840400 0.000000
36.861100 0.000000
36.881800 0.000000
36.902500 0.000000
36.923200 0.000000
36.943900 0.000000
36.964600 0.000000
36.985300 0.000000
37.006000 0.000000
37.026700 0.000000
37.047400 0.000000
37.068200 0.000000
37.088900 0.000000
37.109600 0.000000
e
