set title 'mp-1184646 - Density of States'
set xlabel 'Energy (eV)'
set ylabel 'DOS (states/eV)'
set grid
set xrange [-10:10]
set yrange [0:14.682]
set xzeroaxis lt -1
set terminal png size 800,600
set output 'mp-1184646_dos_gnuplot.png'
plot '-' using 1:2 with lines title 'DOS'
-20.529500 0.000000
-20.503400 0.000000
-20.477300 0.000000
-20.451200 0.000000
-20.425100 0.000000
-20.399000 0.000000
-20.372900 0.000000
-20.346800 0.000000
-20.320700 0.000000
-20.294600 0.000000
-20.268500 0.000000
-20.242400 0.000000
-20.216300 0.000000
-20.190200 0.000000
-20.164100 0.000000
-20.138000 0.000000
-20.111900 0.000000
-20.085800 0.000000
-20.059700 0.000000
-20.033600 0.000000
-20.007500 0.000000
-19.981400 0.000000
-19.955300 0.000000
-19.929200 0.000000
-19.903100 0.000000
-19.877000 0.000000
-19.850900 0.000000
-19.824800 0.000000
-19.798700 0.000000
-19.772600 0.000000
-19.746500 0.000000
-19.720400 0.000000
-19.694300 0.000000
-19.668200 0.000000
-19.642100 0.000000
-19.616000 0.000000
-19.589900 0.000000
-19.563800 0.000000
-19.537700 0.000000
-19.511600 0.000000
-19.485500 0.000000
-19.459400 0.000000
-19.433300 0.000000
-19.407200 0.000000
-19.381100 0.000000
-19.355000 0.000000
-19.328900 0.000000
-19.302800 0.000000
-19.276700 0.000000
-19.250600 0.000000
-19.224500 0.000000
-19.198400 0.000000
-19.172300 0.000000
-19.146200 0.000000
-19.120100 0.000000
-19.094000 0.000000
-19.067900 0.000000
-19.041800 0.000000
-19.015700 0.000000
-18.989600 0.000000
-18.963500 0.000000
-18.937400 0.000000
-18.911300 0.000000
-18.885200 0.000000
-18.859100 0.000000
-18.833000 0.000000
-18.806900 0.000000
-18.780900 0.000000
-18.754800 0.000000
-18.728700 0.000000
-18.702600 0.000000
-18.676500 0.000000
-18.650400 0.000000
-18.624300 0.000000
-18.598200 0.000000
-18.572100 0.000000
-18.546000 0.000000
-18.519900 0.000000
-18.493800 0.000000
-18.467700 0.000000
-18.441600 0.000000
-18.415500 0.000000
-18.389400 0.000000
-18.363300 0.000000
-18.337200 0.000000
-18.311100 0.000000
-18.285000 0.000000
-18.258900 0.000000
-18.232800 0.000000
-18.206700 0.000000
-18.180600 0.000000
-18.154500 7.285500
-18.128400 180.734900
-18.102300 206.784800
-18.076200 128.188900
-18.050100 355.279200
-18.024000 79.288100
-17.997900 15.186800
-17.971800 0.000000
-17.945700 0.000000
-17.919600 0.000000
-17.893500 0.000000
-17.867400 0.000000
-17.841300 0.000000
-17.815200 0.000000
-17.789100 0.000000
-17.763000 0.000000
-17.736900 0.000000
-17.710800 0.000000
-17.684700 0.000000
-17.658600 0.000000
-17.632500 0.000000
-17.606400 0.000000
-17.580300 0.000000
-17.554200 0.000000
-17.528100 0.000000
-17.502000 0.000000
-17.475900 0.000000
-17.449800 0.000000
-17.423700 0.000000
-17.397600 0.000000
-17.371500 0.000000
-17.345400 0.000000
-17.319300 0.000000
-17.293200 0.000000
-17.267100 0.000000
-17.241000 0.000000
-17.214900 0.000000
-17.188800 0.000000
-17.162700 0.000000
-17.136600 0.000000
-17.110500 0.000000
-17.084400 0.000000
-17.058300 0.000000
-17.032200 0.000000
-17.006100 0.000000
-16.980000 0.000000
-16.953900 0.000000
-16.927800 0.000000
-16.901700 0.000000
-16.875600 0.000000
-16.849500 0.000000
-16.823400 0.000000
-16.797300 0.000000
-16.771200 0.000000
-16.745100 0.000000
-16.719000 0.000000
-16.692900 0.000000
-16.666800 0.000000
-16.640700 0.000000
-16.614600 0.000000
-16.588500 0.000000
-16.562400 0.000000
-16.536300 0.000000
-16.510200 0.000000
-16.484100 0.000000
-16.458000 0.000000
-16.431900 0.000000
-16.405800 0.000000
-16.379700 0.000000
-16.353600 0.000000
-16.327500 0.000000
-16.301400 0.000000
-16.275300 0.000000
-16.249200 0.000000
-16.223100 0.000000
-16.197000 0.000000
-16.171000 0.000000
-16.144900 0.000000
-16.118800 0.000000
-16.092700 0.000000
-16.066600 0.000000
-16.040500 0.000000
-16.014400 0.000000
-15.988300 0.000000
-15.962200 0.000000
-15.936100 0.000000
-15.910000 0.000000
-15.883900 0.000000
-15.857800 0.000000
-15.831700 0.000000
-15.805600 0.000000
-15.779500 0.000000
-15.753400 0.000000
-15.727300 0.000000
-15.701200 0.000000
-15.675100 0.000000
-15.649000 0.000000
-15.622900 0.000000
-15.596800 0.000000
-15.570700 0.000000
-15.544600 0.000000
-15.518500 0.000000
-15.492400 0.000000
-15.466300 0.000000
-15.440200 0.000000
-15.414100 0.000000
-15.388000 0.000000
-15.361900 0.000000
-15.335800 0.000000
-15.309700 0.000000
-15.283600 0.000000
-15.257500 0.000000
-15.231400 0.000000
-15.205300 0.000000
-15.179200 0.000000
-15.153100 0.000000
-15.127000 0.000000
-15.100900 0.000000
-15.074800 0.000000
-15.048700 0.000000
-15.022600 0.000000
-14.996500 0.000000
-14.970400 0.000000
-14.944300 0.000000
-14.918200 0.000000
-14.892100 0.000000
-14.866000 0.000000
-14.839900 0.000000
-14.813800 0.000000
-14.787700 0.000000
-14.761600 0.000000
-14.735500 0.000000
-14.709400 0.000000
-14.683300 0.000000
-14.657200 0.000000
-14.631100 0.000000
-14.605000 0.000000
-14.578900 0.000000
-14.552800 0.000000
-14.526700 0.000000
-14.500600 0.000000
-14.474500 0.000000
-14.448400 0.000000
-14.422300 0.000000
-14.396200 0.000000
-14.370100 0.000000
-14.344000 0.000000
-14.317900 0.000000
-14.291800 0.000000
-14.265700 0.000000
-14.239600 0.000000
-14.213500 0.000000
-14.187400 0.000000
-14.161300 0.000000
-14.135200 0.000000
-14.109100 0.000000
-14.083000 0.000000
-14.056900 0.000000
-14.030800 0.000000
-14.004700 0.000000
-13.978600 0.000000
-13.952500 0.000000
-13.926400 0.000000
-13.900300 0.000000
-13.874200 0.000000
-13.848100 0.000000
-13.822000 0.000000
-13.795900 0.000000
-13.769800 0.000000
-13.743700 0.000000
-13.717600 0.000000
-13.691500 0.000000
-13.665400 0.000000
-13.639300 0.000000
-13.613200 0.000000
-13.587100 0.000000
-13.561100 0.000000
-13.535000 0.000000
-13.508900 0.000000
-13.482800 0.000000
-13.456700 0.000000
-13.430600 0.000000
-13.404500 0.000000
-13.378400 0.000000
-13.352300 0.000000
-13.326200 0.000000
-13.300100 0.000000
-13.274000 0.000000
-13.247900 0.000000
-13.221800 0.000000
-13.195700 0.000000
-13.169600 0.000000
-13.143500 0.000000
-13.117400 0.000000
-13.091300 0.000000
-13.065200 0.000000
-13.039100 0.000000
-13.013000 0.000000
-12.986900 0.000000
-12.960800 0.000000
-12.934700 0.000000
-12.908600 0.000000
-12.882500 0.000000
-12.856400 0.000000
-12.830300 0.000000
-12.804200 0.000000
-12.778100 0.000000
-12.752000 0.000000
-12.725900 0.000000
-12.699800 0.000000
-12.673700 0.000000
-12.647600 0.000000
-12.621500 0.000000
-12.595400 0.000000
-12.569300 0.000000
-12.543200 0.000000
-12.517100 0.000000
-12.491000 0.000000
-12.464900 0.000000
-12.438800 0.000000
-12.412700 0.000000
-12.386600 0.000000
-12.360500 0.000000
-12.334400 0.000000
-12.308300 0.000000
-12.282200 0.000000
-12.256100 0.000000
-12.230000 0.000000
-12.203900 0.000000
-12.177800 0.000000
-12.151700 0.000000
-12.125600 0.000000
-12.099500 0.000000
-12.073400 0.000000
-12.047300 0.000000
-12.021200 0.000000
-11.995100 0.000000
-11.969000 0.000000
-11.942900 0.000000
-11.916800 0.000000
-11.890700 0.000000
-11.864600 0.000000
-11.838500 0.000000
-11.812400 0.000000
-11.786300 0.000000
-11.760200 0.000000
-11.734100 0.000000
-11.708000 0.000000
-11.681900 0.000000
-11.655800 0.000000
-11.629700 0.000000
-11.603600 0.000000
-11.577500 0.000000
-11.551400 0.000000
-11.525300 0.000000
-11.499200 0.000000
-11.473100 0.000000
-11.447000 0.000000
-11.420900 0.000000
-11.394800 0.000000
-11.368700 0.000000
-11.342600 0.000000
-11.316500 0.000000
-11.290400 0.000000
-11.264300 0.000000
-11.238200 0.000000
-11.212100 0.000000
-11.186000 0.000000
-11.159900 0.000000
-11.133800 0.000000
-11.107700 0.000000
-11.081600 0.000000
-11.055500 0.000000
-11.029400 0.000000
-11.003300 0.000000
-10.977200 0.000000
-10.951200 0.000000
-10.925100 0.000000
-10.899000 0.000000
-10.872900 0.000000
-10.846800 0.000000
-10.820700 0.000000
-10.794600 0.000000
-10.768500 0.000000
-10.742400 0.000000
-10.716300 0.000000
-10.690200 0.000000
-10.664100 0.000000
-10.638000 0.000000
-10.611900 0.000000
-10.585800 0.000000
-10.559700 0.000000
-10.533600 0.000000
-10.507500 0.000000
-10.481400 0.000000
-10.455300 0.000000
-10.429200 0.000000
-10.403100 0.000000
-10.377000 0.000000
-10.350900 0.000000
-10.324800 0.000000
-10.298700 0.000000
-10.272600 0.000000
-10.246500 0.000000
-10.220400 0.000000
-10.194300 0.000000
-10.168200 0.000000
-10.142100 0.000000
-10.116000 0.000000
-10.089900 0.000000
-10.063800 0.000000
-10.037700 0.000000
-10.011600 0.000000
-9.985500 0.000000
-9.959400 0.000000
-9.933300 0.000000
-9.907200 0.000000
-9.881100 0.000000
-9.855000 0.000000
-9.828900 0.000000
-9.802800 0.000000
-9.776700 0.000000
-9.750600 0.000000
-9.724500 0.000000
-9.698400 0.000000
-9.672300 0.000000
-9.646200 0.000000
-9.620100 0.000000
-9.594000 0.000000
-9.567900 0.000000
-9.541800 0.000000
-9.515700 0.000000
-9.489600 0.000000
-9.463500 0.000000
-9.437400 0.000000
-9.411300 0.000000
-9.385200 0.000000
-9.359100 0.000000
-9.333000 0.000000
-9.306900 0.000000
-9.280800 0.000000
-9.254700 0.000000
-9.228600 0.000000
-9.202500 0.000000
-9.176400 0.000000
-9.150300 0.000000
-9.124200 0.000000
-9.098100 0.000000
-9.072000 0.000000
-9.045900 0.000000
-9.019800 0.000000
-8.993700 0.000000
-8.967600 0.000000
-8.941500 0.000000
-8.915400 0.000000
-8.889300 0.000000
-8.863200 0.000000
-8.837100 0.000000
-8.811000 0.000000
-8.784900 0.000000
-8.758800 0.000000
-8.732700 0.000000
-8.706600 0.000000
-8.680500 0.000000
-8.654400 0.000000
-8.628300 0.000000
-8.602200 0.000000
-8.576100 0.000000
-8.550000 0.000000
-8.523900 0.000000
-8.497800 0.000000
-8.471700 0.000000
-8.445600 0.000000
-8.419500 0.000000
-8.393400 0.000000
-8.367300 0.000000
-8.341300 0.000000
-8.315200 0.000000
-8.289100 0.000000
-8.263000 0.000000
-8.236900 0.000000
-8.210800 0.000000
-8.184700 0.000000
-8.158600 0.000000
-8.132500 0.000000
-8.106400 0.000000
-8.080300 0.000000
-8.054200 0.000000
-8.028100 0.000000
-8.002000 0.000000
-7.975900 0.000000
-7.949800 0.000000
-7.923700 0.000000
-7.897600 0.000000
-7.871500 0.000000
-7.845400 0.000000
-7.819300 0.000000
-7.793200 0.000000
-7.767100 0.000000
-7.741000 0.000000
-7.714900 0.000000
-7.688800 0.000000
-7.662700 0.000000
-7.636600 0.000000
-7.610500 0.000000
-7.584400 0.000000
-7.558300 0.000000
-7.532200 0.000000
-7.506100 0.000000
-7.480000 0.000000
-7.453900 0.000000
-7.427800 0.000000
-7.401700 0.000000
-7.375600 0.000000
-7.349500 0.000000
-7.323400 0.000000
-7.297300 0.000000
-7.271200 0.000000
-7.245100 0.000000
-7.219000 0.000000
-7.192900 0.000000
-7.166800 0.000000
-7.140700 0.000000
-7.114600 0.000000
-7.088500 0.000000
-7.062400 0.000000
-7.036300 0.000000
-7.010200 0.000000
-6.984100 0.000000
-6.958000 0.000000
-6.931900 0.000000
-6.905800 0.000000
-6.879700 0.000000
-6.853600 0.000000
-6.827500 0.000000
-6.801400 0.000000
-6.775300 0.000000
-6.749200 0.000000
-6.723100 0.000000
-6.697000 0.000000
-6.670900 0.000000
-6.644800 0.000000
-6.618700 0.000000
-6.592600 0.000000
-6.566500 0.000000
-6.540400 0.000000
-6.514300 0.000000
-6.488200 0.000000
-6.462100 0.000000
-6.436000 0.000000
-6.409900 0.000000
-6.383800 0.000000
-6.357700 0.000000
-6.331600 0.000000
-6.305500 0.000000
-6.279400 0.007800
-6.253300 0.045200
-6.227200 0.107200
-6.201100 0.155800
-6.175000 0.168800
-6.148900 0.184700
-6.122800 0.204000
-6.096700 0.226600
-6.070600 0.237000
-6.044500 0.258200
-6.018400 0.280300
-5.992300 0.300000
-5.966200 0.311800
-5.940100 0.317800
-5.914000 0.331300
-5.887900 0.343500
-5.861800 0.353800
-5.835700 0.364200
-5.809600 0.374400
-5.783500 0.385400
-5.757400 0.397700
-5.731400 0.410300
-5.705300 0.423500
-5.679200 0.437800
-5.653100 0.452800
-5.627000 0.463900
-5.600900 0.472700
-5.574800 0.479800
-5.548700 0.486700
-5.522600 0.494400
-5.496500 0.503600
-5.470400 0.513000
-5.444300 0.522300
-5.418200 0.531500
-5.392100 0.540700
-5.366000 0.551100
-5.339900 0.561500
-5.313800 0.572500
-5.287700 0.584000
-5.261600 0.595900
-5.235500 0.606700
-5.209400 0.618300
-5.183300 0.630200
-5.157200 0.641500
-5.131100 0.650900
-5.105000 0.659600
-5.078900 0.671000
-5.052800 0.682800
-5.026700 0.695100
-5.000600 0.708000
-4.974500 0.723900
-4.948400 0.745800
-4.922300 0.763300
-4.896200 0.776300
-4.870100 0.785000
-4.844000 0.826800
-4.817900 0.803200
-4.791800 0.808900
-4.765700 0.812300
-4.739600 0.813400
-4.713500 0.812700
-4.687400 0.812600
-4.661300 0.813200
-4.635200 0.814600
-4.609100 0.816900
-4.583000 0.819900
-4.556900 0.828000
-4.530800 0.834900
-4.504700 0.840700
-4.478600 0.845500
-4.452500 0.850900
-4.426400 0.858500
-4.400300 0.867300
-4.374200 0.877400
-4.348100 0.886800
-4.322000 0.895100
-4.295900 0.922200
-4.269800 0.960300
-4.243700 0.985400
-4.217600 1.007000
-4.191500 1.024000
-4.165400 1.036100
-4.139300 1.043300
-4.113200 1.045900
-4.087100 1.021400
-4.061000 1.015300
-4.034900 1.022300
-4.008800 1.024500
-3.982700 1.032700
-3.956600 1.069800
-3.930500 1.125300
-3.904400 1.079300
-3.878300 0.973200
-3.852200 0.893000
-3.826100 0.867300
-3.800000 0.847800
-3.773900 0.833000
-3.747800 0.822500
-3.721700 0.793900
-3.695600 0.761600
-3.669500 0.734500
-3.643400 0.718600
-3.617300 0.710100
-3.591200 0.701600
-3.565100 0.693900
-3.539000 0.687000
-3.512900 0.682200
-3.486800 0.692400
-3.460700 0.768700
-3.434600 0.861500
-3.408500 0.991300
-3.382400 1.142000
-3.356300 1.677300
-3.330200 1.362600
-3.304100 1.368600
-3.278000 1.390500
-3.251900 1.401800
-3.225800 1.403100
-3.199700 1.404200
-3.173600 1.406300
-3.147500 1.388600
-3.121500 1.476800
-3.095400 1.396100
-3.069300 1.379200
-3.043200 1.383200
-3.017100 1.414300
-2.991000 1.360700
-2.964900 1.267200
-2.938800 1.232300
-2.912700 1.206000
-2.886600 1.174700
-2.860500 1.140200
-2.834400 1.110800
-2.808300 1.102200
-2.782200 1.095200
-2.756100 1.096500
-2.730000 1.105900
-2.703900 1.115100
-2.677800 1.124800
-2.651700 1.135200
-2.625600 1.157800
-2.599500 1.166100
-2.573400 1.173300
-2.547300 1.175200
-2.521200 1.172100
-2.495100 1.163600
-2.469000 1.154300
-2.442900 1.150700
-2.416800 1.149000
-2.390700 1.160800
-2.364600 1.196300
-2.338500 1.311100
-2.312400 1.459800
-2.286300 1.377000
-2.260200 1.371000
-2.234100 1.344400
-2.208000 1.172900
-2.181900 1.158200
-2.155800 1.124800
-2.129700 1.231000
-2.103600 1.293800
-2.077500 1.326200
-2.051400 1.348000
-2.025300 1.392500
-1.999200 1.477900
-1.973100 1.606300
-1.947000 1.679000
-1.920900 1.707500
-1.894800 1.712900
-1.868700 1.680100
-1.842600 1.655400
-1.816500 1.687300
-1.790400 1.647500
-1.764300 1.653100
-1.738200 1.657700
-1.712100 1.653300
-1.686000 1.648700
-1.659900 1.650200
-1.633800 1.653600
-1.607700 1.652300
-1.581600 1.651200
-1.555500 1.641300
-1.529400 1.649500
-1.503300 1.652100
-1.477200 1.615500
-1.451100 1.589800
-1.425000 1.576800
-1.398900 1.563500
-1.372800 1.552400
-1.346700 1.535700
-1.320600 1.514700
-1.294500 1.495500
-1.268400 1.466800
-1.242300 1.458500
-1.216200 1.452300
-1.190100 1.441000
-1.164000 1.430400
-1.137900 1.425800
-1.111800 1.424100
-1.085700 1.425900
-1.059600 1.426400
-1.033500 1.412600
-1.007400 1.416200
-0.981300 1.429600
-0.955200 1.446300
-0.929100 1.436400
-0.903000 1.421700
-0.876900 1.482000
-0.850800 1.401700
-0.824700 1.367100
-0.798600 1.319500
-0.772500 1.292400
-0.746400 1.160400
-0.720300 1.063200
-0.694200 0.870400
-0.668100 0.737000
-0.642000 0.618300
-0.615900 0.565100
-0.589800 0.544500
-0.563700 0.523700
-0.537600 0.502500
-0.511500 0.481000
-0.485500 0.459300
-0.459400 0.437100
-0.433300 0.408300
-0.407200 0.368700
-0.381100 0.341300
-0.355000 0.323700
-0.328900 0.320100
-0.302800 0.325800
-0.276700 0.326300
-0.250600 0.314900
-0.224500 0.302700
-0.198400 0.288800
-0.172300 0.271900
-0.146200 0.251600
-0.120100 0.229900
-0.094000 0.209700
-0.067900 0.194600
-0.041800 0.181700
-0.015700 0.170800
0.010400 0.171300
0.036500 0.185300
0.062600 0.202900
0.088700 0.225200
0.114800 0.252300
0.140900 0.307800
0.167000 0.357400
0.193100 0.394000
0.219200 0.546400
0.245300 0.609300
0.271400 0.681600
0.297500 0.823300
0.323600 0.945300
0.349700 1.063500
0.375800 1.207700
0.401900 1.357100
0.428000 1.521600
0.454100 1.695700
0.480200 1.891200
0.506300 2.158400
0.532400 2.454200
0.558500 2.586400
0.584600 2.883800
0.610700 2.964500
0.636800 3.164400
0.662900 3.268300
0.689000 3.401300
0.715100 3.644100
0.741200 4.296200
0.767300 4.227400
0.793400 3.356500
0.819500 2.548000
0.845600 2.023900
0.871700 1.628300
0.897800 1.494700
0.923900 1.444100
0.950000 1.894700
0.976100 1.975400
1.002200 2.366300
1.028300 3.594800
1.054400 5.131500
1.080500 6.588500
1.106600 7.677300
1.132700 8.933300
1.158800 8.999900
1.184900 8.706600
1.211000 8.486000
1.237100 8.064200
1.263200 8.533300
1.289300 11.170600
1.315400 11.434700
1.341500 9.682100
1.367600 8.178700
1.393700 8.366700
1.419800 7.716500
1.445900 8.082900
1.472000 6.626700
1.498100 4.811000
1.524200 3.546000
1.550300 3.425700
1.576400 5.721200
1.602500 6.727000
1.628600 8.211700
1.654700 8.366600
1.680800 6.745700
1.706900 5.031800
1.733000 4.809100
1.759100 5.262200
1.785200 4.358300
1.811300 3.611400
1.837400 3.201700
1.863500 2.809400
1.889600 2.342800
1.915700 2.018100
1.941800 1.790800
1.967900 3.019500
1.994000 7.821800
2.020100 13.347000
2.046200 9.340600
2.072300 6.109400
2.098400 5.687400
2.124400 5.615000
2.150500 5.287600
2.176600 4.193300
2.202700 3.270600
2.228800 2.925800
2.254900 2.949600
2.281000 3.011700
2.307100 3.090900
2.333200 3.006900
2.359300 2.818300
2.385400 2.486900
2.411500 2.365300
2.437600 4.342100
2.463700 4.187800
2.489800 3.151500
2.515900 2.814800
2.542000 2.613000
2.568100 2.563900
2.594200 2.635900
2.620300 2.838800
2.646400 2.412400
2.672500 1.938400
2.698600 1.908200
2.724700 2.135100
2.750800 2.516200
2.776900 2.633800
2.803000 2.748600
2.829100 2.805500
2.855200 2.807900
2.881300 2.865600
2.907400 2.955000
2.933500 3.087300
2.959600 3.344300
2.985700 3.513500
3.011800 2.938200
3.037900 2.802600
3.064000 2.695900
3.090100 2.561500
3.116200 2.486100
3.142300 2.443000
3.168400 2.455200
3.194500 2.382500
3.220600 2.341300
3.246700 1.488300
3.272800 1.223200
3.298900 1.154600
3.325000 1.050500
3.351100 0.975200
3.377200 0.943900
3.403300 0.915100
3.429400 0.904200
3.455500 0.880100
3.481600 0.902600
3.507700 0.929400
3.533800 0.971900
3.559900 1.039700
3.586000 1.224400
3.612100 1.310700
3.638200 1.495700
3.664300 1.452600
3.690400 1.480700
3.716500 1.490700
3.742600 1.448800
3.768700 1.442600
3.794800 1.485100
3.820900 1.559900
3.847000 1.628400
3.873100 1.679300
3.899200 1.712900
3.925300 1.742400
3.951400 1.739400
3.977500 1.762200
4.003600 1.770800
4.029700 1.805400
4.055800 1.856800
4.081900 1.893400
4.108000 1.931400
4.134100 1.982600
4.160200 2.045500
4.186300 2.139500
4.212400 2.154700
4.238500 2.208100
4.264600 2.295200
4.290700 2.360900
4.316800 2.422500
4.342900 2.406600
4.369000 2.376400
4.395100 2.326700
4.421200 2.250300
4.447300 2.199100
4.473400 2.127900
4.499500 2.087700
4.525600 2.069200
4.551700 2.094000
4.577800 2.140400
4.603900 2.168200
4.630000 2.230000
4.656100 2.201000
4.682200 2.189500
4.708300 2.169000
4.734300 2.142200
4.760400 2.109300
4.786500 2.077500
4.812600 2.044000
4.838700 1.990400
4.864800 1.934600
4.890900 1.898400
4.917000 1.857700
4.943100 1.827000
4.969200 1.820400
4.995300 1.818200
5.021400 1.798700
5.047500 1.802200
5.073600 1.762300
5.099700 1.723600
5.125800 1.690800
5.151900 1.670800
5.178000 1.634700
5.204100 1.592600
5.230200 1.567300
5.256300 1.562500
5.282400 1.579300
5.308500 1.618200
5.334600 1.658300
5.360700 1.674400
5.386800 1.692000
5.412900 1.660300
5.439000 1.617700
5.465100 1.598600
5.491200 1.587600
5.517300 1.593100
5.543400 1.631500
5.569500 1.676300
5.595600 1.597400
5.621700 1.579300
5.647800 1.573700
5.673900 1.571300
5.700000 1.547600
5.726100 1.514400
5.752200 1.507700
5.778300 1.503100
5.804400 1.500500
5.830500 1.889600
5.856600 1.507500
5.882700 1.519700
5.908800 1.540000
5.934900 1.527800
5.961000 1.546400
5.987100 1.566800
6.013200 1.580500
6.039300 1.602900
6.065400 1.622000
6.091500 1.646500
6.117600 1.668100
6.143700 1.684400
6.169800 1.700900
6.195900 1.690300
6.222000 1.666400
6.248100 1.636100
6.274200 1.629000
6.300300 1.614800
6.326400 1.615600
6.352500 1.636700
6.378600 1.698400
6.404700 1.753100
6.430800 1.798400
6.456900 1.835000
6.483000 1.888100
6.509100 1.955500
6.535200 1.992700
6.561300 2.021000
6.587400 1.936800
6.613500 1.888300
6.639600 1.861900
6.665700 1.862400
6.691800 1.852600
6.717900 1.852600
6.744000 1.832400
6.770100 1.763000
6.796200 1.712200
6.822300 1.694500
6.848400 1.687000
6.874500 1.654000
6.900600 1.644600
6.926700 1.637400
6.952800 1.631900
6.978900 1.628400
7.005000 1.633700
7.031100 1.648400
7.057200 1.673100
7.083300 1.714100
7.109400 1.740600
7.135500 1.712900
7.161600 1.685100
7.187700 1.661200
7.213800 1.635200
7.239900 1.646500
7.266000 1.643000
7.292100 1.655100
7.318200 1.684600
7.344200 1.728600
7.370300 1.796200
7.396400 1.849400
7.422500 1.937500
7.448600 2.082600
7.474700 2.191500
7.500800 2.267300
7.526900 2.328600
7.553000 2.392800
7.579100 2.467600
7.605200 2.477100
7.631300 2.401400
7.657400 2.220000
7.683500 2.112000
7.709600 2.104800
7.735700 2.092500
7.761800 2.084400
7.787900 2.056700
7.814000 2.009800
7.840100 2.042300
7.866200 2.010100
7.892300 1.991300
7.918400 1.963400
7.944500 1.931300
7.970600 1.905500
7.996700 1.832000
8.022800 1.755200
8.048900 1.736800
8.075000 1.705100
8.101100 1.683200
8.127200 1.682200
8.153300 1.671200
8.179400 1.655900
8.205500 1.650600
8.231600 1.644300
8.257700 1.680800
8.283800 1.694800
8.309900 1.716200
8.336000 1.754600
8.362100 1.759900
8.388200 1.721000
8.414300 1.765400
8.440400 1.856300
8.466500 2.074300
8.492600 2.314300
8.518700 2.516700
8.544800 2.625700
8.570900 2.687900
8.597000 2.707100
8.623100 2.701500
8.649200 2.736400
8.675300 2.365800
8.701400 2.402800
8.727500 2.604900
8.753600 2.199400
8.779700 2.203300
8.805800 2.238500
8.831900 2.282000
8.858000 2.346500
8.884100 2.450500
8.910200 2.658000
8.936300 2.874900
8.962400 2.896700
8.988500 3.036200
9.014600 3.067100
9.040700 2.996400
9.066800 3.024500
9.092900 2.634300
9.119000 2.346000
9.145100 2.241000
9.171200 2.218900
9.197300 2.181000
9.223400 2.165100
9.249500 2.152700
9.275600 2.209000
9.301700 2.182200
9.327800 2.160700
9.353900 2.089300
9.380000 2.134700
9.406100 1.939000
9.432200 1.884500
9.458300 1.955100
9.484400 2.128700
9.510500 2.333800
9.536600 2.528600
9.562700 2.690500
9.588800 2.811400
9.614900 2.871700
9.641000 2.897200
9.667100 2.833000
9.693200 2.735500
9.719300 2.613300
9.745400 2.503300
9.771500 2.475200
9.797600 2.424200
9.823700 2.355300
9.849800 2.322100
9.875900 2.333100
9.902000 2.346800
9.928100 2.272900
9.954100 2.226200
9.980200 2.231200
10.006300 2.261700
10.032400 2.465300
10.058500 2.456900
10.084600 2.361300
10.110700 2.340000
10.136800 2.338800
10.162900 2.339700
10.189000 2.419700
10.215100 2.453000
10.241200 2.447900
10.267300 2.474200
10.293400 2.502600
10.319500 2.551000
10.345600 2.599500
10.371700 2.627600
10.397800 2.619000
10.423900 2.606000
10.450000 2.558000
10.476100 2.494600
10.502200 2.500200
10.528300 2.533000
10.554400 2.583100
10.580500 2.562500
10.606600 2.575800
10.632700 2.618400
10.658800 2.530600
10.684900 2.421100
10.711000 2.342700
10.737100 2.309500
10.763200 2.311900
10.789300 2.328800
10.815400 2.342100
10.841500 2.463200
10.867600 2.410400
10.893700 2.390200
10.919800 2.368600
10.945900 2.344000
10.972000 2.314500
10.998100 2.276100
11.024200 2.294400
11.050300 2.227800
11.076400 2.184000
11.102500 2.159200
11.128600 2.000600
11.154700 1.903700
11.180800 1.849900
11.206900 1.768600
11.233000 1.738200
11.259100 1.673500
11.285200 1.634300
11.311300 1.599400
11.337400 1.557600
11.363500 1.510200
11.389600 1.453500
11.415700 1.433700
11.441800 1.412800
11.467900 1.416300
11.494000 1.406600
11.520100 1.390700
11.546200 1.377100
11.572300 1.366200
11.598400 1.367600
11.624500 1.376000
11.650600 1.380300
11.676700 1.406300
11.702800 1.455900
11.728900 1.483100
11.755000 1.563500
11.781100 1.662700
11.807200 1.665800
11.833300 1.664000
11.859400 1.688400
11.885500 1.731200
11.911600 1.663200
11.937700 1.619000
11.963800 1.618900
11.989900 1.626200
12.016000 1.610400
12.042100 1.535700
12.068200 1.454100
12.094300 1.401200
12.120400 1.368300
12.146500 1.329500
12.172600 1.313200
12.198700 1.323700
12.224800 1.331500
12.250900 1.337400
12.277000 1.280400
12.303100 1.306200
12.329200 1.365700
12.355300 1.384100
12.381400 1.376000
12.407500 1.376200
12.433600 1.373200
12.459700 1.407400
12.485800 1.353000
12.511900 1.309300
12.538000 1.294700
12.564000 1.294700
12.590100 1.302100
12.616200 1.340900
12.642300 1.379400
12.668400 1.491900
12.694500 1.657700
12.720600 1.766300
12.746700 1.852500
12.772800 1.886400
12.798900 1.863600
12.825000 1.885500
12.851100 1.842300
12.877200 1.793900
12.903300 1.752300
12.929400 1.719000
12.955500 1.724000
12.981600 1.829400
13.007700 1.729700
13.033800 1.771300
13.059900 1.883100
13.086000 1.883600
13.112100 2.086400
13.138200 2.116000
13.164300 2.124500
13.190400 2.030800
13.216500 1.788300
13.242600 1.762700
13.268700 1.748200
13.294800 1.740700
13.320900 1.731000
13.347000 1.717900
13.373100 1.848000
13.399200 1.883300
13.425300 1.666500
13.451400 1.666400
13.477500 1.670400
13.503600 1.679800
13.529700 1.710400
13.555800 1.739300
13.581900 1.759500
13.608000 1.762200
13.634100 1.745200
13.660200 1.667200
13.686300 1.593500
13.712400 1.495100
13.738500 1.408600
13.764600 1.360600
13.790700 1.340600
13.816800 1.328700
13.842900 1.322300
13.869000 1.326700
13.895100 1.340000
13.921200 1.358800
13.947300 1.376600
13.973400 1.391600
13.999500 1.397200
14.025600 1.403500
14.051700 1.411800
14.077800 1.421800
14.103900 1.447300
14.130000 1.470200
14.156100 1.498600
14.182200 1.527900
14.208300 1.562100
14.234400 1.598500
14.260500 1.625200
14.286600 1.612700
14.312700 1.588200
14.338800 1.572500
14.364900 1.567600
14.391000 1.565600
14.417100 1.564900
14.443200 1.572800
14.469300 1.590400
14.495400 1.611600
14.521500 1.595500
14.547600 1.575300
14.573700 1.566100
14.599800 1.550200
14.625900 1.523700
14.652000 1.501200
14.678100 1.477000
14.704200 1.451300
14.730300 1.416100
14.756400 1.372600
14.782500 1.338800
14.808600 1.349200
14.834700 1.366300
14.860800 1.343100
14.886900 1.361700
14.913000 1.386800
14.939100 1.415300
14.965200 1.435600
14.991300 1.470100
15.017400 1.534200
15.043500 1.548800
15.069600 1.544700
15.095700 1.560200
15.121800 1.591300
15.147900 1.665800
15.173900 1.749800
15.200000 1.824900
15.226100 1.899900
15.252200 1.996000
15.278300 2.108600
15.304400 2.213000
15.330500 2.260800
15.356600 2.359200
15.382700 2.441400
15.408800 2.539100
15.434900 2.557700
15.461000 2.348000
15.487100 2.202200
15.513200 2.114100
15.539300 2.042900
15.565400 1.990100
15.591500 1.951900
15.617600 1.921900
15.643700 1.901000
15.669800 1.902300
15.695900 1.902100
15.722000 1.920400
15.748100 1.921800
15.774200 1.918600
15.800300 1.929300
15.826400 1.953100
15.852500 1.985900
15.878600 2.017800
15.904700 2.039400
15.930800 2.053000
15.956900 2.086900
15.983000 2.138200
16.009100 2.168000
16.035200 2.196500
16.061300 2.222000
16.087400 2.241700
16.113500 2.259900
16.139600 2.226800
16.165700 2.222500
16.191800 2.237700
16.217900 2.266200
16.244000 2.248100
16.270100 2.233700
16.296200 2.218700
16.322300 2.271400
16.348400 2.292300
16.374500 2.388500
16.400600 2.475600
16.426700 2.526500
16.452800 2.537900
16.478900 2.617700
16.505000 2.610000
16.531100 2.584800
16.557200 2.565800
16.583300 2.584700
16.609400 2.592400
16.635500 2.605100
16.661600 2.622700
16.687700 2.629100
16.713800 2.726900
16.739900 2.636100
16.766000 2.576200
16.792100 2.538700
16.818200 2.531400
16.844300 2.722500
16.870400 2.576800
16.896500 2.430700
16.922600 2.325200
16.948700 2.324100
16.974800 2.319400
17.000900 2.289800
17.027000 2.254300
17.053100 2.203200
17.079200 2.189700
17.105300 2.178800
17.131400 2.191600
17.157500 2.165800
17.183600 2.155200
17.209700 2.136700
17.235800 2.113700
17.261900 2.146100
17.288000 2.131300
17.314100 2.117900
17.340200 2.178000
17.366300 2.208300
17.392400 2.242000
17.418500 2.277700
17.444600 2.331400
17.470700 2.363400
17.496800 2.392400
17.522900 2.416200
17.549000 2.423400
17.575100 2.410500
17.601200 2.412000
17.627300 2.441900
17.653400 2.456300
17.679500 2.454900
17.705600 2.457300
17.731700 2.467200
17.757800 2.479200
17.783800 2.495000
17.809900 2.488800
17.836000 2.486500
17.862100 2.473300
17.888200 2.414400
17.914300 2.352900
17.940400 2.295500
17.966500 2.250000
17.992600 2.181100
18.018700 2.252800
18.044800 2.333500
18.070900 2.394500
18.097000 2.498500
18.123100 2.715100
18.149200 2.960700
18.175300 2.881200
18.201400 3.020600
18.227500 2.997200
18.253600 2.877100
18.279700 2.767100
18.305800 2.670400
18.331900 2.548500
18.358000 2.471100
18.384100 2.501800
18.410200 2.426600
18.436300 2.429700
18.462400 2.289600
18.488500 2.176900
18.514600 2.082000
18.540700 1.999500
18.566800 1.915500
18.592900 1.902000
18.619000 1.885200
18.645100 1.875500
18.671200 1.933700
18.697300 2.021500
18.723400 2.118700
18.749500 2.214300
18.775600 2.363500
18.801700 2.478200
18.827800 2.600200
18.853900 2.685800
18.880000 2.764100
18.906100 2.884800
18.932200 3.114200
18.958300 2.986100
18.984400 2.985800
19.010500 3.015400
19.036600 3.043600
19.062700 2.999900
19.088800 2.952400
19.114900 3.066200
19.141000 3.205400
19.167100 3.373300
19.193200 3.324800
19.219300 2.919500
19.245400 2.700400
19.271500 2.376800
19.297600 2.127000
19.323700 1.925800
19.349800 1.787300
19.375900 1.698500
19.402000 2.102900
19.428100 1.655000
19.454200 1.823000
19.480300 1.734000
19.506400 1.787200
19.532500 1.822300
19.558600 1.841200
19.584700 1.866400
19.610800 1.910700
19.636900 1.940600
19.663000 1.987600
19.689100 2.061400
19.715200 2.106500
19.741300 2.103500
19.767400 2.027800
19.793500 2.061700
19.819600 2.092000
19.845700 2.121100
19.871800 2.177500
19.897900 2.309600
19.924000 2.555800
19.950100 2.874800
19.976200 2.999000
20.002300 3.057900
20.028400 3.045600
20.054500 2.922900
20.080600 2.912300
20.106700 2.853300
20.132800 2.884600
20.158900 3.048800
20.185000 3.222800
20.211100 3.353100
20.237200 3.399100
20.263300 3.346400
20.289400 3.361900
20.315500 3.355400
20.341600 3.331400
20.367700 3.325500
20.393700 3.359000
20.419800 3.438800
20.445900 3.445800
20.472000 3.503300
20.498100 3.611200
20.524200 3.618800
20.550300 3.505200
20.576400 3.440400
20.602500 3.341000
20.628600 3.225200
20.654700 3.054400
20.680800 2.928400
20.706900 2.890700
20.733000 2.826300
20.759100 2.726500
20.785200 2.630800
20.811300 2.303400
20.837400 2.190900
20.863500 2.106100
20.889600 2.049300
20.915700 2.026700
20.941800 2.039700
20.967900 2.072000
20.994000 2.120500
21.020100 2.191400
21.046200 2.323300
21.072300 2.459500
21.098400 2.518600
21.124500 2.471800
21.150600 2.525800
21.176700 2.640600
21.202800 2.600100
21.228900 2.581300
21.255000 2.574700
21.281100 2.585000
21.307200 2.536200
21.333300 2.532900
21.359400 2.549100
21.385500 2.555500
21.411600 2.565100
21.437700 2.590700
21.463800 2.557500
21.489900 2.508700
21.516000 2.452400
21.542100 2.401100
21.568200 2.374500
21.594300 2.623500
21.620400 2.141800
21.646500 2.120700
21.672600 2.108900
21.698700 2.093300
21.724800 2.107200
21.750900 2.202500
21.777000 2.138900
21.803100 2.160400
21.829200 2.228600
21.855300 2.237000
21.881400 2.135700
21.907500 2.123500
21.933600 2.116700
21.959700 2.065900
21.985800 1.955500
22.011900 1.913200
22.038000 1.893000
22.064100 1.893500
22.090200 1.874700
22.116300 1.849900
22.142400 1.837000
22.168500 1.850300
22.194600 1.864400
22.220700 1.961700
22.246800 2.088200
22.272900 2.128400
22.299000 2.147400
22.325100 2.148100
22.351200 2.144200
22.377300 2.169400
22.403400 2.249100
22.429500 2.422800
22.455600 2.331200
22.481700 2.481500
22.507800 2.492200
22.533900 2.454100
22.560000 2.486700
22.586100 2.489400
22.612200 2.510900
22.638300 2.578800
22.664400 2.630600
22.690500 2.644600
22.716600 2.612800
22.742700 2.514800
22.768800 2.520700
22.794900 2.551700
22.821000 2.625900
22.847100 2.752400
22.873200 2.853700
22.899300 2.957500
22.925400 2.957500
22.951500 2.916800
22.977600 2.885200
23.003600 2.897400
23.029700 2.820400
23.055800 2.800100
23.081900 2.859100
23.108000 3.010600
23.134100 2.958900
23.160200 2.919500
23.186300 2.942100
23.212400 2.852700
23.238500 2.860500
23.264600 2.895500
23.290700 2.980900
23.316800 2.917800
23.342900 2.928300
23.369000 2.920600
23.395100 2.839700
23.421200 2.775900
23.447300 2.602700
23.473400 2.425400
23.499500 2.327600
23.525600 2.269700
23.551700 2.285800
23.577800 2.321700
23.603900 2.363300
23.630000 2.443500
23.656100 2.512800
23.682200 2.601100
23.708300 2.669500
23.734400 2.675300
23.760500 2.637700
23.786600 2.596900
23.812700 2.625700
23.838800 2.665900
23.864900 2.683500
23.891000 2.723100
23.917100 2.818800
23.943200 2.947500
23.969300 3.150400
23.995400 2.940800
24.021500 2.648600
24.047600 2.508100
24.073700 2.499000
24.099800 2.584100
24.125900 2.613500
24.152000 2.641100
24.178100 2.657800
24.204200 2.674800
24.230300 2.700100
24.256400 2.751900
24.282500 2.758400
24.308600 2.758200
24.334700 2.769100
24.360800 2.759900
24.386900 2.743000
24.413000 2.728500
24.439100 2.645800
24.465200 2.528600
24.491300 2.525500
24.517400 2.580300
24.543500 2.670700
24.569600 2.782200
24.595700 2.844800
24.621800 2.874500
24.647900 2.804300
24.674000 2.745800
24.700100 2.685100
24.726200 2.839700
24.752300 2.285700
24.778400 2.063500
24.804500 1.961600
24.830600 1.858000
24.856700 1.746300
24.882800 1.690400
24.908900 1.561900
24.935000 1.624100
24.961100 1.702300
24.987200 1.808600
25.013300 1.927900
25.039400 2.037700
25.065500 2.282200
25.091600 2.350700
25.117700 2.392400
25.143800 2.418600
25.169900 2.658700
25.196000 2.284000
25.222100 2.169900
25.248200 2.061700
25.274300 1.973500
25.300400 1.911800
25.326500 1.864100
25.352600 1.810900
25.378700 1.711600
25.404800 1.591700
25.430900 1.453900
25.457000 1.316900
25.483100 1.195800
25.509200 1.084200
25.535300 0.977400
25.561400 0.887700
25.587500 0.818300
25.613600 0.749800
25.639600 0.695000
25.665700 0.639600
25.691800 0.586400
25.717900 0.539300
25.744000 0.498400
25.770100 0.461900
25.796200 0.429600
25.822300 0.401600
25.848400 0.377800
25.874500 0.357500
25.900600 0.338700
25.926700 0.322300
25.952800 0.306700
25.978900 0.292300
26.005000 0.280700
26.031100 0.271200
26.057200 0.263300
26.083300 0.256500
26.109400 0.249700
26.135500 0.242500
26.161600 0.235300
26.187700 0.230600
26.213800 0.226400
26.239900 0.222400
26.266000 0.218400
26.292100 0.214700
26.318200 0.211000
26.344300 0.207500
26.370400 0.204100
26.396500 0.200800
26.422600 0.198300
26.448700 0.195800
26.474800 0.193300
26.500900 0.190900
26.527000 0.188500
26.553100 0.186100
26.579200 0.183700
26.605300 0.181400
26.631400 0.179000
26.657500 0.176700
26.683600 0.173000
26.709700 0.169500
26.735800 0.166700
26.761900 0.164500
26.788000 0.162700
26.814100 0.159500
26.840200 0.155900
26.866300 0.153200
26.892400 0.150500
26.918500 0.148000
26.944600 0.145600
26.970700 0.143200
26.996800 0.140700
27.022900 0.138100
27.049000 0.135500
27.075100 0.133200
27.101200 0.131500
27.127300 0.129600
27.153400 0.127500
27.179500 0.125100
27.205600 0.122700
27.231700 0.120400
27.257800 0.118300
27.283900 0.115800
27.310000 0.113100
27.336100 0.110100
27.362200 0.106700
27.388300 0.103100
27.414400 0.099300
27.440500 0.098800
27.466600 0.104500
27.492700 0.091300
27.518800 0.083600
27.544900 0.082800
27.571000 0.081900
27.597100 0.080900
27.623200 0.079500
27.649300 0.077900
27.675400 0.076000
27.701500 0.073800
27.727600 0.071300
27.753700 0.068400
27.779800 0.065300
27.805900 0.061800
27.832000 0.058800
27.858100 0.056200
27.884200 0.055600
27.910300 0.052800
27.936400 0.050100
27.962500 0.047400
27.988600 0.044800
28.014700 0.042300
28.040800 0.039800
28.066900 0.037400
28.093000 0.035000
28.119100 0.032700
28.145200 0.030500
28.171300 0.028400
28.197400 0.026300
28.223500 0.024300
28.249500 0.022300
28.275600 0.020400
28.301700 0.018600
28.327800 0.016800
28.353900 0.015300
28.380000 0.014000
28.406100 0.013000
28.432200 0.012400
28.458300 0.011800
28.484400 0.011100
28.510500 0.010600
28.536600 0.010000
28.562700 0.009400
28.588800 0.008900
28.614900 0.008300
28.641000 0.007800
28.667100 0.007300
28.693200 0.006800
28.719300 0.006400
28.745400 0.005900
28.771500 0.005500
28.797600 0.005100
28.823700 0.004600
28.849800 0.004300
28.875900 0.003900
28.902000 0.003500
28.928100 0.003200
28.954200 0.002900
28.980300 0.002500
29.006400 0.002200
29.032500 0.002000
29.058600 0.001700
29.084700 0.001400
29.110800 0.001200
29.136900 0.001000
29.163000 0.000800
29.189100 0.000600
29.215200 0.000400
29.241300 0.000300
29.267400 0.000100
29.293500 0.000000
29.319600 0.000000
29.345700 0.000000
29.371800 0.000000
29.397900 0.000000
29.424000 0.000000
29.450100 0.000000
29.476200 0.000000
29.502300 0.000000
29.528400 0.000000
29.554500 0.000000
29.580600 0.000000
29.606700 0.000000
29.632800 0.000000
29.658900 0.000000
29.685000 0.000000
29.711100 0.000000
29.737200 0.000000
29.763300 0.000000
29.789400 0.000000
29.815500 0.000000
29.841600 0.000000
29.867700 0.000000
29.893800 0.000000
29.919900 0.000000
29.946000 0.000000
29.972100 0.000000
29.998200 0.000000
30.024300 0.000000
30.050400 0.000000
30.076500 0.000000
30.102600 0.000000
30.128700 0.000000
30.154800 0.000000
30.180900 0.000000
30.207000 0.000000
30.233100 0.000000
30.259200 0.000000
30.285300 0.000000
30.311400 0.000000
30.337500 0.000000
30.363600 0.000000
30.389700 0.000000
30.415800 0.000000
30.441900 0.000000
30.468000 0.000000
30.494100 0.000000
30.520200 0.000000
30.546300 0.000000
30.572400 0.000000
30.598500 0.000000
30.624600 0.000000
30.650700 0.000000
30.676800 0.000000
30.702900 0.000000
30.729000 0.000000
30.755100 0.000000
30.781200 0.000000
30.807300 0.000000
30.833400 0.000000
30.859400 0.000000
30.885500 0.000000
30.911600 0.000000
30.937700 0.000000
30.963800 0.000000
30.989900 0.000000
31.016000 0.000000
31.042100 0.000000
31.068200 0.000000
31.094300 0.000000
31.120400 0.000000
31.146500 0.000000
31.172600 0.000000
31.198700 0.000000
31.224800 0.000000
31.250900 0.000000
31.277000 0.000000
31.303100 0.000000
31.329200 0.000000
31.355300 0.000000
31.381400 0.000000
31.407500 0.000000
31.433600 0.000000
31.459700 0.000000
31.485800 0.000000
31.511900 0.000000
31.538000 0.000000
31.564100 0.000000
31.590200 0.000000
31.616300 0.000000
31.642400 0.000000
31.668500 0.000000
e
