set title 'mp-1183990 - Density of States'
set xlabel 'Energy (eV)'
set ylabel 'DOS (states/eV)'
set grid
set xrange [-10:10]
set yrange [0:8.513]
set xzeroaxis lt -1
set terminal png size 800,600
set output 'mp-1183990_dos_gnuplot.png'
plot '-' using 1:2 with lines title 'DOS'
-19.292300 0.000000
-19.262400 0.000000
-19.232400 0.000000
-19.202500 0.000000
-19.172500 0.000000
-19.142500 0.000000
-19.112600 0.000000
-19.082600 0.000000
-19.052700 0.000000
-19.022700 0.000000
-18.992800 0.000000
-18.962800 0.000000
-18.932900 0.000000
-18.902900 0.000000
-18.873000 0.000000
-18.843000 0.000000
-18.813100 0.000000
-18.783100 0.000000
-18.753200 0.000000
-18.723200 0.000000
-18.693200 0.000000
-18.663300 0.000000
-18.633300 0.000000
-18.603400 0.000000
-18.573400 0.000000
-18.543500 0.000000
-18.513500 0.000000
-18.483600 0.000000
-18.453600 0.000000
-18.423700 0.000000
-18.393700 0.000000
-18.363800 0.000000
-18.333800 0.000000
-18.303900 0.000000
-18.273900 0.000000
-18.244000 0.000000
-18.214000 0.000000
-18.184000 0.000000
-18.154100 0.000000
-18.124100 0.000000
-18.094200 0.000000
-18.064200 0.000000
-18.034300 0.000000
-18.004300 0.000000
-17.974400 0.000000
-17.944400 0.000000
-17.914500 0.000000
-17.884500 0.000000
-17.854600 0.000000
-17.824600 0.000000
-17.794700 0.000000
-17.764700 0.000000
-17.734700 0.000000
-17.704800 0.000000
-17.674800 0.000000
-17.644900 0.000000
-17.614900 0.000000
-17.585000 0.000000
-17.555000 0.000000
-17.525100 0.000000
-17.495100 0.000000
-17.465200 0.000000
-17.435200 0.000000
-17.405300 0.000000
-17.375300 0.000000
-17.345400 0.000000
-17.315400 0.000000
-17.285500 0.000000
-17.255500 0.000000
-17.225500 0.000000
-17.195600 0.000000
-17.165600 0.000000
-17.135700 0.000000
-17.105700 0.000000
-17.075800 0.000000
-17.045800 0.000000
-17.015900 0.000000
-16.985900 0.000000
-16.956000 0.000000
-16.926000 0.000000
-16.896100 0.000000
-16.866100 0.000000
-16.836200 0.000000
-16.806200 0.000000
-16.776200 0.000000
-16.746300 0.000000
-16.716300 0.000000
-16.686400 0.000000
-16.656400 0.000000
-16.626500 0.000000
-16.596500 0.000000
-16.566600 0.008600
-16.536600 0.544200
-16.506700 0.905300
-16.476700 1.135600
-16.446800 1.424600
-16.416800 1.697900
-16.386900 1.989400
-16.356900 2.329900
-16.327000 2.702500
-16.297000 3.133600
-16.267000 3.647000
-16.237100 4.315800
-16.207100 5.095800
-16.177200 6.282800
-16.147200 8.111500
-16.117300 9.583200
-16.087300 13.621400
-16.057400 15.146200
-16.027400 16.515500
-15.997500 18.740300
-15.967500 34.433100
-15.937600 0.000000
-15.907600 0.000000
-15.877700 0.000000
-15.847700 0.000000
-15.817700 0.000000
-15.787800 0.000000
-15.757800 0.000000
-15.727900 0.000000
-15.697900 0.000000
-15.668000 0.000000
-15.638000 0.000000
-15.608100 0.000000
-15.578100 0.000000
-15.548200 0.000000
-15.518200 0.000000
-15.488300 0.000000
-15.458300 0.000000
-15.428400 0.000000
-15.398400 0.000000
-15.368400 0.000000
-15.338500 0.000000
-15.308500 0.000000
-15.278600 0.000000
-15.248600 0.000000
-15.218700 0.000000
-15.188700 0.000000
-15.158800 0.000000
-15.128800 0.000000
-15.098900 0.000000
-15.068900 0.000000
-15.039000 0.000000
-15.009000 0.000000
-14.979100 0.000000
-14.949100 0.000000
-14.919200 0.000000
-14.889200 0.000000
-14.859200 0.000000
-14.829300 0.000000
-14.799300 0.000000
-14.769400 0.000000
-14.739400 0.000000
-14.709500 0.000000
-14.679500 0.000000
-14.649600 0.000000
-14.619600 0.000000
-14.589700 0.000000
-14.559700 0.000000
-14.529800 0.000000
-14.499800 0.000000
-14.469900 0.000000
-14.439900 0.000000
-14.409900 0.000000
-14.380000 0.000000
-14.350000 0.000000
-14.320100 0.000000
-14.290100 0.000000
-14.260200 0.000000
-14.230200 0.000000
-14.200300 0.000000
-14.170300 0.000000
-14.140400 0.000000
-14.110400 0.000000
-14.080500 0.000000
-14.050500 0.000000
-14.020600 0.000000
-13.990600 0.000000
-13.960700 0.000000
-13.930700 0.000000
-13.900700 0.000000
-13.870800 0.000000
-13.840800 0.000000
-13.810900 0.000000
-13.780900 0.000000
-13.751000 0.000000
-13.721000 0.000000
-13.691100 0.000000
-13.661100 0.000000
-13.631200 0.000000
-13.601200 0.000000
-13.571300 0.000000
-13.541300 0.000000
-13.511400 0.000000
-13.481400 0.000000
-13.451400 0.000000
-13.421500 0.000000
-13.391500 0.000000
-13.361600 0.000000
-13.331600 0.000000
-13.301700 0.000000
-13.271700 0.000000
-13.241800 0.000000
-13.211800 0.000000
-13.181900 0.000000
-13.151900 0.000000
-13.122000 0.000000
-13.092000 0.000000
-13.062100 0.000000
-13.032100 0.000000
-13.002200 0.000000
-12.972200 0.000000
-12.942200 0.000000
-12.912300 0.000000
-12.882300 0.000000
-12.852400 0.000000
-12.822400 0.000000
-12.792500 0.000000
-12.762500 0.000000
-12.732600 0.000000
-12.702600 0.000000
-12.672700 0.000000
-12.642700 0.000000
-12.612800 0.000000
-12.582800 0.000000
-12.552900 0.000000
-12.522900 0.000000
-12.492900 0.000000
-12.463000 0.000000
-12.433000 0.000000
-12.403100 0.000000
-12.373100 0.000000
-12.343200 0.000000
-12.313200 0.000000
-12.283300 0.000000
-12.253300 0.000000
-12.223400 0.000000
-12.193400 0.000000
-12.163500 0.000000
-12.133500 0.000000
-12.103600 0.000000
-12.073600 0.000000
-12.043600 0.000000
-12.013700 0.000000
-11.983700 0.000000
-11.953800 0.000000
-11.923800 0.000000
-11.893900 0.000000
-11.863900 0.000000
-11.834000 0.000000
-11.804000 0.000000
-11.774100 0.000000
-11.744100 2.162300
-11.714200 49.599100
-11.684200 112.561900
-11.654300 80.446000
-11.624300 73.451600
-11.594400 99.094900
-11.564400 137.495300
-11.534400 6.544400
-11.504500 5.627300
-11.474500 6.069600
-11.444600 6.855200
-11.414600 8.216500
-11.384700 9.691900
-11.354700 11.698600
-11.324800 15.692300
-11.294800 16.446800
-11.264900 19.542600
-11.234900 12.775500
-11.205000 0.000000
-11.175000 0.000000
-11.145100 0.000000
-11.115100 0.000000
-11.085100 0.000000
-11.055200 0.000000
-11.025200 0.000000
-10.995300 0.000000
-10.965300 0.000000
-10.935400 0.000000
-10.905400 0.000000
-10.875500 0.000000
-10.845500 0.000000
-10.815600 0.000000
-10.785600 0.000000
-10.755700 0.000000
-10.725700 0.000000
-10.695800 0.000000
-10.665800 0.000000
-10.635900 0.000000
-10.605900 0.000000
-10.575900 0.000000
-10.546000 0.000000
-10.516000 0.000000
-10.486100 0.000000
-10.456100 0.000000
-10.426200 0.000000
-10.396200 0.000000
-10.366300 0.000000
-10.336300 0.000000
-10.306400 0.000000
-10.276400 0.000000
-10.246500 0.000000
-10.216500 0.000000
-10.186600 0.000000
-10.156600 0.000000
-10.126600 0.000000
-10.096700 0.000000
-10.066700 0.000000
-10.036800 0.000000
-10.006800 0.000000
-9.976900 0.000000
-9.946900 0.000000
-9.917000 0.000000
-9.887000 0.000000
-9.857100 0.000000
-9.827100 0.000000
-9.797200 0.000000
-9.767200 0.000000
-9.737300 0.000000
-9.707300 0.000000
-9.677400 0.000000
-9.647400 0.000000
-9.617400 0.000000
-9.587500 0.000000
-9.557500 0.000000
-9.527600 0.000000
-9.497600 0.000000
-9.467700 0.000000
-9.437700 0.000000
-9.407800 0.000000
-9.377800 0.000000
-9.347900 0.000000
-9.317900 0.000000
-9.288000 0.000000
-9.258000 0.000000
-9.228100 0.000000
-9.198100 0.000000
-9.168100 0.000000
-9.138200 0.000000
-9.108200 0.000000
-9.078300 0.000000
-9.048300 0.000000
-9.018400 0.000000
-8.988400 0.000000
-8.958500 0.000000
-8.928500 0.000000
-8.898600 0.000000
-8.868600 0.000000
-8.838700 0.000000
-8.808700 0.000000
-8.778800 0.000000
-8.748800 0.000000
-8.718800 0.000000
-8.688900 0.000000
-8.658900 0.000000
-8.629000 0.000000
-8.599000 0.000000
-8.569100 0.000000
-8.539100 0.000000
-8.509200 0.000000
-8.479200 0.000000
-8.449300 0.000000
-8.419300 0.000000
-8.389400 0.000000
-8.359400 0.000000
-8.329500 0.000000
-8.299500 0.000000
-8.269600 0.000000
-8.239600 0.000000
-8.209600 0.000000
-8.179700 0.000000
-8.149700 0.000000
-8.119800 0.000000
-8.089800 0.000000
-8.059900 0.000000
-8.029900 0.000000
-8.000000 0.000000
-7.970000 0.000000
-7.940100 0.000000
-7.910100 0.000000
-7.880200 0.000000
-7.850200 0.000000
-7.820300 0.000000
-7.790300 0.000000
-7.760300 0.000000
-7.730400 0.000000
-7.700400 0.000000
-7.670500 0.000000
-7.640500 0.000000
-7.610600 0.000000
-7.580600 0.000000
-7.550700 0.000000
-7.520700 0.000000
-7.490800 0.000000
-7.460800 0.000000
-7.430900 0.000000
-7.400900 0.000000
-7.371000 0.000000
-7.341000 0.000000
-7.311100 0.000000
-7.281100 0.000000
-7.251100 0.000000
-7.221200 0.000000
-7.191200 0.000000
-7.161300 0.000000
-7.131300 0.000000
-7.101400 0.000000
-7.071400 0.000000
-7.041500 0.000000
-7.011500 0.000000
-6.981600 0.000000
-6.951600 0.000000
-6.921700 0.000000
-6.891700 0.000000
-6.861800 0.000000
-6.831800 0.000000
-6.801800 0.000000
-6.771900 0.000000
-6.741900 0.000000
-6.712000 0.000000
-6.682000 0.000000
-6.652100 0.000000
-6.622100 0.000000
-6.592200 0.000000
-6.562200 0.000000
-6.532300 0.000000
-6.502300 0.000000
-6.472400 0.000000
-6.442400 0.000000
-6.412500 0.000000
-6.382500 0.000000
-6.352600 0.000000
-6.322600 0.000000
-6.292600 0.000000
-6.262700 0.000000
-6.232700 0.000000
-6.202800 0.000000
-6.172800 0.000000
-6.142900 0.000000
-6.112900 0.000000
-6.083000 0.000000
-6.053000 0.000000
-6.023100 0.000000
-5.993100 0.000000
-5.963200 0.000000
-5.933200 0.000000
-5.903300 0.000000
-5.873300 0.000000
-5.843300 0.000000
-5.813400 0.000000
-5.783400 0.000000
-5.753500 0.000000
-5.723500 0.000000
-5.693600 0.000000
-5.663600 0.000000
-5.633700 0.000000
-5.603700 0.000000
-5.573800 0.000000
-5.543800 0.000000
-5.513900 0.000000
-5.483900 0.000000
-5.454000 0.000000
-5.424000 0.000000
-5.394000 0.000000
-5.364100 0.000000
-5.334100 0.000000
-5.304200 0.000000
-5.274200 0.000000
-5.244300 0.000000
-5.214300 0.000000
-5.184400 0.000000
-5.154400 0.000000
-5.124500 0.000000
-5.094500 0.000000
-5.064600 0.000000
-5.034600 0.000000
-5.004700 0.000000
-4.974700 0.000000
-4.944800 0.000000
-4.914800 0.000000
-4.884800 0.003600
-4.854900 0.052700
-4.824900 0.106700
-4.795000 0.160400
-4.765000 0.200600
-4.735100 0.224700
-4.705100 0.249000
-4.675200 0.270200
-4.645200 0.293100
-4.615300 0.324900
-4.585300 0.358400
-4.555400 0.389300
-4.525400 0.420200
-4.495500 1.320100
-4.465500 1.627900
-4.435500 2.278600
-4.405600 2.545300
-4.375600 2.801800
-4.345700 3.043500
-4.315700 3.341700
-4.285800 3.717100
-4.255800 4.203300
-4.225900 4.939800
-4.195900 6.153700
-4.166000 7.024400
-4.136000 7.329200
-4.106100 6.842500
-4.076100 5.441800
-4.046200 4.577200
-4.016200 3.974200
-3.986300 3.672800
-3.956300 3.281900
-3.926300 3.323100
-3.896400 3.492100
-3.866400 3.903900
-3.836500 4.033000
-3.806500 2.613500
-3.776600 2.035600
-3.746600 1.746300
-3.716700 1.608200
-3.686700 1.483600
-3.656800 1.369300
-3.626800 1.259700
-3.596900 1.158100
-3.566900 1.074900
-3.537000 1.013300
-3.507000 0.963200
-3.477000 0.912100
-3.447100 0.863900
-3.417100 0.820500
-3.387200 0.778000
-3.357200 0.738000
-3.327300 0.702700
-3.297300 0.671200
-3.267400 0.640800
-3.237400 0.608400
-3.207500 0.582000
-3.177500 0.561200
-3.147600 0.540400
-3.117600 0.519500
-3.087700 0.504200
-3.057700 0.503800
-3.027800 0.514900
-2.997800 0.533800
-2.967800 0.559200
-2.937900 0.591200
-2.907900 0.615500
-2.878000 0.619500
-2.848000 0.632600
-2.818100 0.644300
-2.788100 0.821300
-2.758200 1.067700
-2.728200 1.347700
-2.698300 1.707200
-2.668300 2.103000
-2.638400 2.598300
-2.608400 2.983000
-2.578500 2.655500
-2.548500 2.269100
-2.518500 2.039500
-2.488600 1.920500
-2.458600 1.883800
-2.428700 1.879500
-2.398700 1.877800
-2.368800 1.863300
-2.338800 1.864700
-2.308900 1.872500
-2.278900 1.905900
-2.249000 2.003000
-2.219000 2.143700
-2.189100 2.276900
-2.159100 2.326000
-2.129200 2.477700
-2.099200 2.560500
-2.069200 2.638400
-2.039300 2.789000
-2.009300 2.971900
-1.979400 3.120100
-1.949400 2.885700
-1.919500 2.754300
-1.889500 2.668900
-1.859600 2.650900
-1.829600 2.668400
-1.799700 2.853000
-1.769700 3.294500
-1.739800 3.290200
-1.709800 3.427000
-1.679900 3.684200
-1.649900 3.936000
-1.620000 4.418400
-1.590000 4.660200
-1.560000 4.705800
-1.530100 4.812000
-1.500100 4.822100
-1.470200 5.034000
-1.440200 5.343000
-1.410300 5.694800
-1.380300 5.958800
-1.350400 6.799600
-1.320400 7.739200
-1.290500 7.052900
-1.260500 6.710300
-1.230600 6.182200
-1.200600 5.899900
-1.170700 5.780300
-1.140700 5.456100
-1.110700 5.261600
-1.080800 5.076200
-1.050800 4.908100
-1.020900 4.831900
-0.990900 4.791600
-0.961000 4.785500
-0.931000 4.703800
-0.901100 4.559600
-0.871100 4.381000
-0.841200 4.073600
-0.811200 3.845000
-0.781300 3.640600
-0.751300 3.477100
-0.721400 3.127900
-0.691400 2.776600
-0.661500 2.543700
-0.631500 2.385900
-0.601500 2.067900
-0.571600 1.859700
-0.541600 1.678200
-0.511700 1.450400
-0.481700 1.281900
-0.451800 1.076400
-0.421800 0.887400
-0.391900 0.780500
-0.361900 0.571700
-0.332000 0.410500
-0.302000 0.000500
-0.272100 0.000000
-0.242100 0.000200
-0.212200 0.000400
-0.182200 0.000700
-0.152200 0.001100
-0.122300 0.001600
-0.092300 0.002200
-0.062400 0.002800
-0.032400 0.003600
-0.002500 0.004400
0.027500 0.005300
0.057400 0.006400
0.087400 0.007500
0.117300 0.008700
0.147300 0.010000
0.177200 0.011300
0.207200 0.012900
0.237100 0.015300
0.267100 0.019000
0.297100 0.022000
0.327000 0.024600
0.357000 0.027100
0.386900 0.029500
0.416900 0.031900
0.446800 0.034200
0.476800 0.036400
0.506700 0.038600
0.536700 0.040600
0.566600 0.042800
0.596600 0.045400
0.626500 0.048100
0.656500 0.050900
0.686400 0.053700
0.716400 0.056600
0.746300 0.059500
0.776300 0.062500
0.806300 0.065600
0.836200 0.068800
0.866200 0.072100
0.896100 0.075600
0.926100 0.079100
0.956000 0.082800
0.986000 0.086500
1.015900 0.090200
1.045900 0.094200
1.075800 0.098300
1.105800 0.102600
1.135700 0.107100
1.165700 0.111700
1.195600 0.115800
1.225600 0.119900
1.255600 0.124100
1.285500 0.128400
1.315500 0.132700
1.345400 0.137000
1.375400 0.141400
1.405300 0.145900
1.435300 0.150500
1.465200 0.155300
1.495200 0.160200
1.525100 0.165400
1.555100 0.171500
1.585000 0.177600
1.615000 0.183400
1.644900 0.189200
1.674900 0.195100
1.704800 0.201000
1.734800 0.206900
1.764800 0.212900
1.794700 0.219000
1.824700 0.225100
1.854600 0.231200
1.884600 0.237300
1.914500 0.243500
1.944500 0.249700
1.974400 0.256100
2.004400 0.263200
2.034300 0.270600
2.064300 0.278300
2.094200 0.286300
2.124200 0.294500
2.154100 0.302600
2.184100 0.310500
2.214100 0.318400
2.244000 0.326300
2.274000 0.334200
2.303900 0.342300
2.333900 0.350500
2.363800 0.358900
2.393800 0.367600
2.423700 0.376400
2.453700 0.385600
2.483600 0.395900
2.513600 0.406700
2.543500 0.417300
2.573500 0.428000
2.603400 0.439000
2.633400 0.450300
2.663300 0.461600
2.693300 0.473100
2.723300 0.484600
2.753200 0.496100
2.783200 0.507700
2.813100 0.519400
2.843100 0.531300
2.873000 0.543500
2.903000 0.556200
2.932900 0.571600
2.962900 0.589900
2.992800 0.606400
3.022800 0.623100
3.052700 0.640400
3.082700 0.658100
3.112600 0.675700
3.142600 0.693500
3.172600 0.711800
3.202500 0.730400
3.232500 0.749500
3.262400 0.769600
3.292400 0.790500
3.322300 0.814300
3.352300 0.844200
3.382200 0.879600
3.412200 0.918900
3.442100 0.955700
3.472100 0.992800
3.502000 1.033900
3.532000 1.079200
3.561900 1.127600
3.591900 1.177800
3.621900 1.239100
3.651800 1.324400
3.681800 1.479400
3.711700 1.547300
3.741700 1.574800
3.771600 1.575500
3.801600 1.556300
3.831500 1.572300
3.861500 1.563300
3.891400 1.528300
3.921400 1.499500
3.951300 1.474600
3.981300 1.448000
4.011200 1.427400
4.041200 1.415300
4.071100 1.405400
4.101100 1.391500
4.131100 1.383300
4.161000 1.376700
4.191000 1.370700
4.220900 1.362400
4.250900 1.353500
4.280800 1.348100
4.310800 1.350800
4.340700 1.354500
4.370700 1.359000
4.400600 1.363100
4.430600 1.364400
4.460500 1.362000
4.490500 1.356700
4.520400 1.350300
4.550400 1.344300
4.580400 1.339700
4.610300 1.333900
4.640300 1.328200
4.670200 1.324600
4.700200 1.323700
4.730100 1.325100
4.760100 1.327200
4.790000 1.328900
4.820000 1.330100
4.849900 1.330700
4.879900 1.331200
4.909800 1.336100
4.939800 1.337300
4.969700 1.336300
4.999700 1.345800
5.029600 1.343000
5.059600 1.322600
5.089600 1.297700
5.119500 1.266400
5.149500 1.237200
5.179400 1.222000
5.209400 1.178200
5.239300 1.170900
5.269300 1.169500
5.299200 1.172200
5.329200 1.177600
5.359100 1.172800
5.389100 1.164600
5.419000 1.161500
5.449000 1.175400
5.478900 1.192100
5.508900 1.197900
5.538900 1.196000
5.568800 1.166300
5.598800 1.128500
5.628700 1.086100
5.658700 1.057500
5.688600 1.056300
5.718600 0.988600
5.748500 0.849100
5.778500 0.519800
5.808400 0.364800
5.838400 0.240800
5.868300 0.103500
5.898300 0.008000
5.928200 0.000000
5.958200 0.048700
5.988100 0.089400
6.018100 0.133400
6.048100 0.184800
6.078000 0.243600
6.108000 0.284700
6.137900 0.349700
6.167900 0.439000
6.197800 0.588500
6.227800 0.722400
6.257700 0.890800
6.287700 0.983800
6.317600 1.028400
6.347600 1.048200
6.377500 1.125400
6.407500 1.214200
6.437400 1.305900
6.467400 1.402900
6.497400 1.509400
6.527300 1.594700
6.557300 1.667700
6.587200 1.841800
6.617200 2.002700
6.647100 2.178700
6.677100 2.367000
6.707000 2.749300
6.737000 2.866000
6.766900 2.941600
6.796900 2.910300
6.826800 2.884800
6.856800 2.934200
6.886700 3.224900
6.916700 3.526900
6.946700 3.738300
6.976600 3.999400
7.006600 4.214800
7.036500 4.151800
7.066500 3.970000
7.096400 3.905900
7.126400 3.816800
7.156300 3.719700
7.186300 3.934500
7.216200 2.887900
7.246200 2.632700
7.276100 2.605600
7.306100 2.438700
7.336000 1.820000
7.366000 1.656500
7.395900 1.518000
7.425900 1.419500
7.455900 1.298700
7.485800 1.199700
7.515800 1.123700
7.545700 1.061000
7.575700 1.004800
7.605600 0.957600
7.635600 0.924900
7.665500 0.893800
7.695500 0.862400
7.725400 0.827500
7.755400 0.794600
7.785300 0.768000
7.815300 0.750100
7.845200 0.744200
7.875200 0.751000
7.905200 0.762600
7.935100 0.769800
7.965100 0.801000
7.995000 0.809800
8.025000 0.789500
8.054900 0.797700
8.084900 0.806800
8.114800 0.816300
8.144800 0.830000
8.174700 0.842200
8.204700 0.852300
8.234600 0.861200
8.264600 0.872400
8.294500 0.884700
8.324500 0.898400
8.354400 0.913600
8.384400 0.931800
8.414400 0.951200
8.444300 0.972200
8.474300 0.992900
8.504200 1.015000
8.534200 1.039300
8.564100 1.069100
8.594100 1.104100
8.624000 1.154600
8.654000 1.216700
8.683900 1.285800
8.713900 1.362700
8.743800 1.440000
8.773800 1.524700
8.803700 1.602600
8.833700 1.674500
8.863700 1.839800
8.893600 2.696300
8.923600 4.012700
8.953500 4.758200
8.983500 5.533300
9.013400 3.943000
9.043400 2.935000
9.073300 2.447400
9.103300 2.178800
9.133200 2.085800
9.163200 2.019900
9.193100 1.958400
9.223100 1.900700
9.253000 1.844500
9.283000 1.789600
9.312900 1.743100
9.342900 1.708300
9.372900 1.680300
9.402800 1.659700
9.432800 1.641300
9.462700 1.625700
9.492700 1.613600
9.522600 1.597600
9.552600 1.581400
9.582500 1.565700
9.612500 1.551900
9.642400 1.537700
9.672400 1.522000
9.702300 1.506200
9.732300 1.491200
9.762200 1.472000
9.792200 1.472400
9.822200 1.470200
9.852100 1.459900
9.882100 1.447500
9.912000 1.452300
9.942000 1.456000
9.971900 1.458900
10.001900 1.469900
10.031800 1.449700
10.061800 1.446400
10.091700 1.443300
10.121700 1.442600
10.151600 1.451700
10.181600 1.482000
10.211500 1.506000
10.241500 1.512700
10.271500 1.501800
10.301400 1.474800
10.331400 1.459700
10.361300 1.451900
10.391300 1.444000
10.421200 1.451800
10.451200 1.463400
10.481100 1.478500
10.511100 1.507600
10.541000 1.553500
10.571000 1.586800
10.600900 1.614400
10.630900 1.638600
10.660800 1.670900
10.690800 1.696000
10.720700 1.717600
10.750700 1.743400
10.780700 1.753300
10.810600 1.752500
10.840600 1.745800
10.870500 1.717600
10.900500 1.646700
10.930400 1.568800
10.960400 1.561400
10.990300 1.626700
11.020300 1.765000
11.050200 1.917600
11.080200 2.147400
11.110100 2.721900
11.140100 3.333500
11.170000 3.484800
11.200000 3.372500
11.230000 2.928100
11.259900 2.842000
11.289900 2.793500
11.319800 2.908800
11.349800 2.802500
11.379700 2.734700
11.409700 2.755700
11.439600 2.765300
11.469600 2.631600
11.499500 2.454000
11.529500 2.381600
11.559400 2.409300
11.589400 2.418900
11.619300 2.446200
11.649300 2.516700
11.679200 2.605800
11.709200 2.708600
11.739200 2.809100
11.769100 2.951600
11.799100 3.558900
11.829000 4.357700
11.859000 4.788800
11.888900 4.998000
11.918900 4.712400
11.948800 4.612200
11.978800 4.277300
12.008700 3.974900
12.038700 3.916000
12.068600 2.629800
12.098600 1.805000
12.128500 1.305800
12.158500 1.084300
12.188500 0.971800
12.218400 0.868600
12.248400 0.773400
12.278300 0.574400
12.308300 0.499700
12.338200 0.432000
12.368200 0.370500
12.398100 0.315400
12.428100 0.302000
12.458000 0.565600
12.488000 0.508000
12.517900 0.651300
12.547900 0.731400
12.577800 0.820400
12.607800 0.949900
12.637700 1.045100
12.667700 1.103200
12.697700 1.186300
12.727600 1.481500
12.757600 1.281200
12.787500 1.268400
12.817500 1.249500
12.847400 1.218200
12.877400 1.169600
12.907300 1.110200
12.937300 1.081700
12.967200 1.075400
12.997200 1.054200
13.027100 1.041900
13.057100 1.033900
13.087000 1.022500
13.117000 1.016400
13.147000 1.012200
13.176900 1.008600
13.206900 0.999200
13.236800 0.985600
13.266800 0.970200
13.296700 0.957100
13.326700 0.950900
13.356600 0.945200
13.386600 0.938300
13.416500 0.927100
13.446500 0.910600
13.476400 0.907700
13.506400 0.906900
13.536300 0.906200
13.566300 0.905600
13.596300 0.905100
13.626200 0.904700
13.656200 0.904200
13.686100 0.907900
13.716100 0.929300
13.746000 0.971700
13.776000 0.957300
13.805900 0.919300
13.835900 0.911900
13.865800 0.907900
13.895800 0.906900
13.925700 0.911600
13.955700 0.912600
13.985600 0.909100
14.015600 0.900600
14.045500 0.890900
14.075500 0.876700
14.105500 0.866300
14.135400 0.848900
14.165400 0.833900
14.195300 0.822300
14.225300 0.817800
14.255200 0.816600
14.285200 0.817400
14.315100 0.818000
14.345100 0.822300
14.375000 0.824900
14.405000 0.824400
14.434900 0.824200
14.464900 0.824500
14.494800 0.825300
14.524800 0.826900
14.554800 0.830200
14.584700 0.836000
14.614700 0.850100
14.644600 0.894100
14.674600 0.935800
14.704500 1.020500
14.734500 1.205800
14.764400 1.319700
14.794400 1.248700
14.824300 1.276500
14.854300 1.297400
14.884200 1.312000
14.914200 1.330000
14.944100 1.341600
14.974100 1.309100
15.004000 1.284200
15.034000 1.259900
15.064000 1.242000
15.093900 1.230800
15.123900 1.226600
15.153800 1.228200
15.183800 1.238500
15.213700 1.284000
15.243700 1.511700
15.273600 1.655500
15.303600 1.778500
15.333500 1.816100
15.363500 1.859500
15.393400 1.890600
15.423400 1.899100
15.453300 1.861600
15.483300 1.777800
15.513300 1.388200
15.543200 1.190400
15.573200 1.106600
15.603100 1.038600
15.633100 0.985100
15.663000 0.932700
15.693000 0.884100
15.722900 0.840400
15.752900 0.805700
15.782800 0.768800
15.812800 0.737100
15.842700 0.712200
15.872700 0.687000
15.902600 0.665600
15.932600 0.647200
15.962600 0.631200
15.992500 0.617700
16.022500 0.607500
16.052400 0.598800
16.082400 0.591400
16.112300 0.585700
16.142300 0.581600
16.172200 0.576300
16.202200 0.569900
16.232100 0.564000
16.262100 0.557400
16.292000 0.549800
16.322000 0.542000
16.351900 0.537900
16.381900 0.534500
16.411800 0.529300
16.441800 0.522500
16.471800 0.515700
16.501700 0.543500
16.531700 0.534700
16.561600 0.525300
16.591600 0.519300
16.621500 0.548200
16.651500 0.572800
16.681400 0.588000
16.711400 0.606900
16.741300 0.630800
16.771300 0.631700
16.801200 0.659600
16.831200 0.694000
16.861100 0.731700
16.891100 0.774500
16.921100 0.844600
16.951000 0.950000
16.981000 1.019000
17.010900 1.071000
17.040900 1.156300
17.070800 1.246600
17.100800 1.359300
17.130700 1.294500
17.160700 1.405700
17.190600 1.507800
17.220600 1.569900
17.250500 1.648100
17.280500 1.726000
17.310400 1.798000
17.340400 1.869700
17.370300 1.958800
17.400300 2.025800
17.430300 2.339800
17.460200 2.574200
17.490200 2.570500
17.520100 2.451400
17.550100 2.395200
17.580000 2.418900
17.610000 2.388700
17.639900 2.446400
17.669900 2.646200
17.699800 2.505400
17.729800 2.371100
17.759700 2.215000
17.789700 2.122600
17.819600 2.130500
17.849600 2.235400
17.879600 2.338400
17.909500 2.406800
17.939500 2.527400
17.969400 2.605200
17.999400 2.613300
18.029300 2.638100
18.059300 2.704400
18.089200 2.839700
18.119200 3.034000
18.149100 3.233300
18.179100 3.311900
18.209000 3.327700
18.239000 3.394300
18.268900 3.408900
18.298900 3.311700
18.328800 3.099400
18.358800 2.845000
18.388800 2.641000
18.418700 2.425200
18.448700 2.203500
18.478600 1.920000
18.508600 1.769900
18.538500 1.713200
18.568500 1.674000
18.598400 1.633800
18.628400 1.769200
18.658300 1.302500
18.688300 1.063900
18.718200 0.959300
18.748200 0.924400
18.778100 0.909100
18.808100 0.900200
18.838100 0.922900
18.868000 1.061100
18.898000 1.233900
18.927900 1.416600
18.957900 1.632400
18.987800 1.984100
19.017800 2.176100
19.047700 2.287300
19.077700 2.343000
19.107600 2.314700
19.137600 2.326300
19.167500 2.363500
19.197500 2.662400
19.227400 2.274500
19.257400 2.133400
19.287400 2.053100
19.317300 1.998700
19.347300 1.925200
19.377200 1.860500
19.407200 1.777900
19.437100 1.700700
19.467100 1.646100
19.497000 1.646800
19.527000 1.704000
19.556900 1.688800
19.586900 1.684700
19.616800 1.662900
19.646800 1.709800
19.676700 1.770800
19.706700 1.828800
19.736600 1.777500
19.766600 1.761200
19.796600 1.697200
19.826500 1.692500
19.856500 1.698700
19.886400 1.695900
19.916400 1.691000
19.946300 1.688500
19.976300 1.695500
20.006200 1.702800
20.036200 1.721500
20.066100 1.774500
20.096100 1.782700
20.126000 1.831300
20.156000 1.837700
20.185900 1.836900
20.215900 1.844500
20.245900 1.839100
20.275800 1.835900
20.305800 1.884700
20.335700 1.961700
20.365700 1.993000
20.395600 1.868000
20.425600 1.716800
20.455500 1.631400
20.485500 1.566900
20.515400 1.484900
20.545400 1.478100
20.575300 1.308300
20.605300 1.299100
20.635200 1.286900
20.665200 1.271800
20.695100 1.245800
20.725100 1.226300
20.755100 1.217500
20.785000 1.287900
20.815000 1.321000
20.844900 1.314000
20.874900 1.316100
20.904800 1.359900
20.934800 1.392100
20.964700 1.410300
20.994700 1.394100
21.024600 1.342700
21.054600 1.213600
21.084500 1.108400
21.114500 1.062500
21.144400 1.037800
21.174400 1.020000
21.204400 1.004300
21.234300 0.991500
21.264300 0.965900
21.294200 0.953800
21.324200 0.950300
21.354100 0.947600
21.384100 0.945500
21.414000 0.944300
21.444000 0.956100
21.473900 0.975000
21.503900 1.000700
21.533800 1.032100
21.563800 1.067200
21.593700 1.143800
21.623700 1.214200
21.653600 1.270500
21.683600 1.320700
21.713600 1.376300
21.743500 1.424000
21.773500 1.492200
21.803400 1.526300
21.833400 1.532000
21.863300 1.510400
21.893300 1.465400
21.923200 1.422100
21.953200 1.405400
21.983100 1.411600
22.013100 1.452900
22.043000 1.562000
22.073000 1.695600
22.102900 1.871300
22.132900 2.059800
22.162900 2.110400
22.192800 2.131000
22.222800 2.196500
22.252700 2.255200
22.282700 2.312800
22.312600 2.349000
22.342600 2.559700
22.372500 2.846500
22.402500 2.515600
22.432400 2.279400
22.462400 2.221100
22.492300 2.180800
22.522300 2.169500
22.552200 2.158000
22.582200 2.142700
22.612200 2.105500
22.642100 2.194000
22.672100 2.305900
22.702000 2.418600
22.732000 2.531800
22.761900 2.667100
22.791900 2.829700
22.821800 3.008600
22.851800 3.169400
22.881700 3.099300
22.911700 2.948900
22.941600 2.919500
22.971600 2.982800
23.001500 3.049200
23.031500 3.112300
23.061400 3.506900
23.091400 2.844700
23.121400 2.509400
23.151300 2.415700
23.181300 2.362000
23.211200 2.327500
23.241200 2.358900
23.271100 2.408000
23.301100 2.346300
23.331000 2.374500
23.361000 2.398100
23.390900 2.394400
23.420900 2.319800
23.450800 2.270300
23.480800 2.223900
23.510700 2.185900
23.540700 2.172700
23.570700 2.416600
23.600600 2.551700
23.630600 2.040000
23.660500 1.934400
23.690500 2.006200
23.720400 1.753100
23.750400 1.688500
23.780300 1.700100
23.810300 1.729600
23.840200 1.788400
23.870200 1.851400
23.900100 1.929300
23.930100 1.965900
23.960000 1.984100
23.990000 1.951300
24.019900 1.948400
24.049900 1.950300
24.079900 1.960700
24.109800 2.008200
24.139800 2.086600
24.169700 2.157200
24.199700 2.210200
24.229600 2.255500
24.259600 2.689300
24.289500 3.400800
24.319500 3.155500
24.349400 2.595900
24.379400 2.585700
24.409300 2.628900
24.439300 2.724500
24.469200 2.825100
24.499200 2.912700
24.529200 3.564800
24.559100 3.654100
24.589100 3.650200
24.619000 3.575700
24.649000 3.584600
24.678900 3.472100
24.708900 3.428300
24.738800 3.442500
24.768800 3.522000
24.798700 3.573400
24.828700 3.644900
24.858600 3.756000
24.888600 3.909800
24.918500 3.894400
24.948500 4.172400
24.978400 4.196300
25.008400 4.008600
25.038400 3.898100
25.068300 3.979700
25.098300 4.098800
25.128200 4.183500
25.158200 4.213900
25.188100 4.143000
25.218100 3.932300
25.248000 3.776900
25.278000 3.773200
25.307900 3.708000
25.337900 3.594700
25.367800 3.601300
25.397800 3.667900
25.427700 3.283900
25.457700 3.143400
25.487700 2.975100
25.517600 2.968300
25.547600 3.036800
25.577500 3.100900
25.607500 3.321700
25.637400 3.496500
25.667400 3.550000
25.697300 3.387000
25.727300 3.537200
25.757200 3.619900
25.787200 3.540700
25.817100 3.403600
25.847100 3.283100
25.877000 3.276100
25.907000 3.268600
25.937000 3.226300
25.966900 3.164200
25.996900 3.105600
26.026800 2.880800
26.056800 2.731800
26.086700 2.589900
26.116700 2.461400
26.146600 2.332100
26.176600 2.169600
26.206500 1.993500
26.236500 1.844000
26.266400 1.736600
26.296400 1.671100
26.326300 1.625400
26.356300 1.592200
26.386200 1.542700
26.416200 1.455400
26.446200 1.520100
26.476100 1.614500
26.506100 1.678500
26.536000 1.678400
26.566000 1.666400
26.595900 1.649200
26.625900 1.619900
26.655800 1.575000
26.685800 1.514600
26.715700 1.441700
26.745700 1.375400
26.775600 1.324700
26.805600 1.323000
26.835500 1.367600
26.865500 1.437500
26.895500 1.517100
26.925400 1.566100
26.955400 1.601400
26.985300 1.639900
27.015300 1.682300
27.045200 1.726100
27.075200 1.766800
27.105100 1.816900
27.135100 1.877000
27.165000 1.937900
27.195000 1.999000
27.224900 2.053200
27.254900 2.098000
27.284800 2.153200
27.314800 2.219700
27.344700 2.263100
27.374700 2.261100
27.404700 2.212900
27.434600 2.167800
27.464600 2.133100
27.494500 2.092500
27.524500 2.051300
27.554400 1.998400
27.584400 1.954000
27.614300 1.929900
27.644300 1.922100
27.674200 1.911000
27.704200 1.899700
27.734100 1.891800
27.764100 1.892900
27.794000 1.892300
27.824000 1.889000
27.854000 1.888500
27.883900 1.889400
27.913900 1.891400
27.943800 1.885600
27.973800 1.868800
28.003700 1.840400
28.033700 1.810500
28.063600 1.780100
28.093600 1.754300
28.123500 1.736200
28.153500 1.715100
28.183400 1.708500
28.213400 1.679300
28.243300 1.634100
28.273300 1.620800
28.303200 1.648100
28.333200 1.673200
28.363200 1.683600
28.393100 1.683200
28.423100 1.701100
28.453000 1.732700
28.483000 1.779100
28.512900 1.795100
28.542900 1.813000
28.572800 1.815200
28.602800 1.845800
28.632700 1.881300
28.662700 1.919300
28.692600 1.980400
28.722600 2.042500
28.752500 2.083200
28.782500 2.124600
28.812500 2.097300
28.842400 2.030400
28.872400 1.990100
28.902300 1.974900
28.932300 1.966800
28.962200 1.964300
28.992200 1.965900
29.022100 1.972200
29.052100 1.970900
29.082000 1.976400
29.112000 1.981700
29.141900 1.968700
29.171900 1.940000
29.201800 1.911200
29.231800 1.877500
29.261800 1.895500
29.291700 1.886100
29.321700 1.913400
29.351600 1.947800
29.381600 1.987600
29.411500 2.011100
29.441500 2.020900
29.471400 2.033600
29.501400 2.031500
29.531300 2.040100
29.561300 2.050800
29.591200 2.069500
29.621200 2.072400
29.651100 2.048600
29.681100 2.032700
29.711000 2.001600
29.741000 1.968500
29.771000 1.948200
29.800900 1.940400
29.830900 1.950300
29.860800 1.966300
29.890800 1.976700
29.920700 1.985500
29.950700 1.992600
29.980600 2.016100
30.010600 2.050800
30.040500 2.080800
30.070500 2.103000
30.100400 2.157800
30.130400 2.240100
30.160300 2.300600
30.190300 2.269900
30.220300 2.221600
30.250200 2.201300
30.280200 2.176300
30.310100 2.145900
30.340100 2.128100
30.370000 2.112700
30.400000 2.094500
30.429900 2.093400
30.459900 2.106400
30.489800 2.115400
30.519800 2.118900
30.549700 2.102200
30.579700 2.086600
30.609600 2.057800
30.639600 2.038200
30.669500 2.040500
30.699500 2.043900
30.729500 2.085200
30.759400 2.145200
30.789400 2.282300
30.819300 2.295500
30.849300 2.309000
30.879200 2.324200
30.909200 2.343100
30.939100 2.387700
30.969100 2.465600
30.999000 2.555900
31.029000 2.722600
31.058900 2.820300
31.088900 2.921100
31.118800 3.047900
31.148800 3.047000
31.178800 2.950600
31.208700 2.862100
31.238700 2.760300
31.268600 2.726300
31.298600 2.683600
31.328500 2.640800
31.358500 2.644400
31.388400 2.646600
31.418400 2.541300
31.448300 2.434800
31.478300 2.382500
31.508200 2.394000
31.538200 2.452600
31.568100 2.515200
31.598100 2.612300
31.628100 2.690300
31.658000 2.759000
31.688000 2.718500
31.717900 2.694400
31.747900 2.680600
31.777800 2.666900
31.807800 2.635200
31.837700 2.538500
31.867700 2.449200
31.897600 2.369300
31.927600 2.311500
31.957500 2.199500
31.987500 2.156700
32.017400 2.141700
32.047400 2.160700
32.077300 2.206400
32.107300 2.232600
32.137300 2.355700
32.167200 2.544500
32.197200 2.700200
32.227100 2.724500
32.257100 2.760700
32.287000 2.824100
32.317000 2.829600
32.346900 2.822700
32.376900 2.792500
32.406800 2.733500
32.436800 2.724700
32.466700 2.567400
32.496700 2.393200
32.526600 2.287200
32.556600 2.199700
32.586600 2.112900
32.616500 2.037200
32.646500 1.947800
32.676400 1.860300
32.706400 1.809500
32.736300 1.763300
32.766300 1.718500
32.796200 1.698800
32.826200 1.699700
32.856100 1.735200
32.886100 1.867600
32.916000 2.031800
32.946000 2.198200
32.975900 2.287900
33.005900 2.259200
33.035800 2.108300
33.065800 2.074400
33.095800 2.129100
33.125700 2.178700
33.155700 2.219600
33.185600 2.209000
33.215600 2.229300
33.245500 2.215200
33.275500 2.239500
33.305400 2.083000
33.335400 1.973200
33.365300 1.916500
33.395300 1.872900
33.425200 1.882200
33.455200 2.026400
33.485100 2.338000
33.515100 2.619800
33.545100 2.736800
33.575000 2.979100
33.605000 3.279400
33.634900 3.061600
33.664900 2.967700
33.694800 2.979400
33.724800 2.958800
33.754700 2.967600
33.784700 3.002000
33.814600 2.981700
33.844600 2.929100
33.874500 2.860900
33.904500 2.804800
33.934400 2.736700
33.964400 2.661100
33.994300 2.621100
34.024300 2.558700
34.054300 2.477400
34.084200 2.404100
34.114200 2.337500
34.144100 2.287600
34.174100 2.245700
34.204000 2.209600
34.234000 2.184700
34.263900 2.183800
34.293900 2.210400
34.323800 2.213100
34.353800 2.240600
34.383700 2.245800
34.413700 2.259300
34.443600 2.362400
34.473600 2.337600
34.503600 2.304000
34.533500 2.267300
34.563500 2.235200
34.593400 2.222400
34.623400 2.191100
34.653300 2.187000
34.683300 2.131100
34.713200 2.114200
34.743200 2.080200
34.773100 1.994400
34.803100 1.948300
34.833000 1.637000
34.863000 1.458000
34.892900 1.318100
34.922900 1.177000
34.952900 1.046900
34.982800 0.929900
35.012800 0.853800
35.042700 0.817900
35.072700 0.785200
35.102600 0.760900
35.132600 0.745400
35.162500 0.740400
35.192500 0.718100
35.222400 0.671700
35.252400 0.617900
35.282300 0.566200
35.312300 0.516200
35.342200 0.467500
35.372200 0.421900
35.402100 0.378800
35.432100 0.334700
35.462100 0.308000
35.492000 0.284800
35.522000 0.263900
35.551900 0.244400
35.581900 0.231200
35.611800 0.219300
35.641800 0.208800
35.671700 0.199500
35.701700 0.191300
35.731600 0.183400
35.761600 0.175900
35.791500 0.168600
35.821500 0.161600
35.851400 0.154800
35.881400 0.148100
35.911400 0.141600
35.941300 0.136600
35.971300 0.142500
36.001200 0.139700
36.031200 0.132300
36.061100 0.125100
36.091100 0.118100
36.121000 0.111400
36.151000 0.104800
36.180900 0.098400
36.210900 0.092300
36.240800 0.086400
36.270800 0.081100
36.300700 0.076600
36.330700 0.072300
36.360600 0.068300
36.390600 0.064400
36.420600 0.060800
36.450500 0.057400
36.480500 0.054200
36.510400 0.051300
36.540400 0.048500
36.570300 0.045900
36.600300 0.043600
36.630200 0.041500
36.660200 0.039500
36.690100 0.037800
36.720100 0.036300
36.750000 0.035000
36.780000 0.033900
36.809900 0.032800
36.839900 0.031800
36.869900 0.030800
36.899800 0.029700
36.929800 0.028700
36.959700 0.027700
36.989700 0.026700
37.019600 0.025700
37.049600 0.024800
37.079500 0.023800
37.109500 0.022900
37.139400 0.021900
37.169400 0.021000
37.199300 0.020100
37.229300 0.019200
37.259200 0.018300
37.289200 0.017400
37.319100 0.016500
37.349100 0.015700
37.379100 0.014800
37.409000 0.014000
37.439000 0.013200
37.468900 0.012300
37.498900 0.011300
37.528800 0.010200
37.558800 0.009200
37.588700 0.008300
37.618700 0.007100
37.648600 0.005600
37.678600 0.004300
37.708500 0.003200
37.738500 0.002200
37.768400 0.001400
37.798400 0.000800
37.828400 0.000400
37.858300 0.000100
37.888300 0.000000
37.918200 0.000000
37.948200 0.000000
37.978100 0.000000
38.008100 0.000000
38.038000 0.000000
38.068000 0.000000
38.097900 0.000000
38.127900 0.000000
38.157800 0.000000
38.187800 0.000000
38.217700 0.000000
38.247700 0.000000
38.277700 0.000000
38.307600 0.000000
38.337600 0.000000
38.367500 0.000000
38.397500 0.000000
38.427400 0.000000
38.457400 0.000000
38.487300 0.000000
38.517300 0.000000
38.547200 0.000000
38.577200 0.000000
38.607100 0.000000
38.637100 0.000000
38.667000 0.000000
38.697000 0.000000
38.726900 0.000000
38.756900 0.000000
38.786900 0.000000
38.816800 0.000000
38.846800 0.000000
38.876700 0.000000
38.906700 0.000000
38.936600 0.000000
38.966600 0.000000
38.996500 0.000000
39.026500 0.000000
39.056400 0.000000
39.086400 0.000000
39.116300 0.000000
39.146300 0.000000
39.176200 0.000000
39.206200 0.000000
39.236200 0.000000
39.266100 0.000000
39.296100 0.000000
39.326000 0.000000
39.356000 0.000000
39.385900 0.000000
39.415900 0.000000
39.445800 0.000000
39.475800 0.000000
39.505700 0.000000
39.535700 0.000000
39.565600 0.000000
39.595600 0.000000
39.625500 0.000000
39.655500 0.000000
39.685400 0.000000
39.715400 0.000000
39.745400 0.000000
39.775300 0.000000
39.805300 0.000000
39.835200 0.000000
39.865200 0.000000
39.895100 0.000000
39.925100 0.000000
39.955000 0.000000
39.985000 0.000000
40.014900 0.000000
40.044900 0.000000
40.074800 0.000000
40.104800 0.000000
40.134700 0.000000
40.164700 0.000000
40.194700 0.000000
40.224600 0.000000
40.254600 0.000000
40.284500 0.000000
40.314500 0.000000
40.344400 0.000000
40.374400 0.000000
40.404300 0.000000
40.434300 0.000000
40.464200 0.000000
40.494200 0.000000
40.524100 0.000000
40.554100 0.000000
40.584000 0.000000
40.614000 0.000000
e
