set title 'mp-1194 - Density of States'
set xlabel 'Energy (eV)'
set ylabel 'DOS (states/eV)'
set grid
set xrange [-10:10]
set yrange [0:15.841]
set xzeroaxis lt -1
set terminal png size 800,600
set output 'mp-1194_dos_gnuplot.png'
plot '-' using 1:2 with lines title 'DOS'
-6.267600 0.000000
-6.250200 0.000000
-6.232700 0.000000
-6.215200 0.000000
-6.197700 0.000000
-6.180200 0.000000
-6.162700 0.000000
-6.145200 0.000000
-6.127700 0.000000
-6.110200 0.000000
-6.092700 0.000000
-6.075200 0.000000
-6.057800 0.000000
-6.040300 0.000000
-6.022800 0.000000
-6.005300 0.000000
-5.987800 0.000000
-5.970300 0.000000
-5.952800 0.000000
-5.935300 0.000000
-5.917800 0.000000
-5.900300 0.000000
-5.882800 0.000000
-5.865400 0.000000
-5.847900 0.000000
-5.830400 0.000000
-5.812900 0.000000
-5.795400 0.000000
-5.777900 0.000000
-5.760400 0.000000
-5.742900 0.000000
-5.725400 0.000000
-5.707900 0.000000
-5.690400 0.000000
-5.673000 0.000000
-5.655500 0.000000
-5.638000 0.000000
-5.620500 0.000000
-5.603000 0.000000
-5.585500 0.000000
-5.568000 0.000000
-5.550500 0.000000
-5.533000 0.000000
-5.515500 0.000000
-5.498000 0.000000
-5.480600 0.000000
-5.463100 0.000000
-5.445600 0.000000
-5.428100 0.000000
-5.410600 0.000000
-5.393100 0.000000
-5.375600 0.000000
-5.358100 0.000000
-5.340600 0.000000
-5.323100 0.000000
-5.305700 0.000000
-5.288200 0.000000
-5.270700 0.000000
-5.253200 0.000000
-5.235700 0.000000
-5.218200 0.000000
-5.200700 0.000000
-5.183200 0.000000
-5.165700 0.000000
-5.148200 0.000000
-5.130700 0.000000
-5.113300 0.000000
-5.095800 0.000000
-5.078300 0.000000
-5.060800 0.000000
-5.043300 0.000000
-5.025800 0.000000
-5.008300 0.000000
-4.990800 0.000000
-4.973300 0.000000
-4.955800 0.000000
-4.938300 0.000000
-4.920900 0.000000
-4.903400 0.000000
-4.885900 0.000000
-4.868400 0.000000
-4.850900 0.000000
-4.833400 0.000000
-4.815900 0.000000
-4.798400 0.000000
-4.780900 0.000000
-4.763400 0.000000
-4.745900 0.000000
-4.728500 0.000000
-4.711000 0.000000
-4.693500 0.000000
-4.676000 0.068600
-4.658500 0.154000
-4.641000 0.229500
-4.623500 0.259000
-4.606000 0.299900
-4.588500 0.345400
-4.571000 0.680200
-4.553500 0.884300
-4.536100 1.057400
-4.518600 1.270200
-4.501100 1.499200
-4.483600 2.163300
-4.466100 2.523800
-4.448600 2.752500
-4.431100 3.052200
-4.413600 3.381900
-4.396100 3.746400
-4.378600 4.161000
-4.361100 4.560300
-4.343700 5.006800
-4.326200 5.587900
-4.308700 5.726900
-4.291200 7.249700
-4.273700 7.558900
-4.256200 7.636800
-4.238700 7.747100
-4.221200 7.652800
-4.203700 7.375500
-4.186200 7.264700
-4.168800 7.371600
-4.151300 7.522500
-4.133800 8.237100
-4.116300 9.003400
-4.098800 10.357100
-4.081300 10.795300
-4.063800 11.138600
-4.046300 10.180400
-4.028800 9.428300
-4.011300 9.347600
-3.993800 9.788500
-3.976400 10.498400
-3.958900 10.089000
-3.941400 7.610600
-3.923900 7.130800
-3.906400 7.196400
-3.888900 6.715800
-3.871400 5.754900
-3.853900 9.253000
-3.836400 11.362900
-3.818900 10.406200
-3.801400 9.635700
-3.784000 8.609700
-3.766500 11.297300
-3.749000 10.781000
-3.731500 9.795600
-3.714000 8.916400
-3.696500 9.073800
-3.679000 8.894200
-3.661500 8.893300
-3.644000 9.009300
-3.626500 8.452600
-3.609000 8.047600
-3.591600 9.535100
-3.574100 10.565600
-3.556600 11.461600
-3.539100 12.890100
-3.521600 14.400800
-3.504100 13.726100
-3.486600 11.514500
-3.469100 9.483900
-3.451600 7.673500
-3.434100 7.997000
-3.416600 6.918700
-3.399200 5.869700
-3.381700 5.192400
-3.364200 4.689700
-3.346700 4.424000
-3.329200 4.543500
-3.311700 4.890200
-3.294200 4.313300
-3.276700 3.944800
-3.259200 2.957000
-3.241700 2.322700
-3.224300 1.450600
-3.206800 1.311200
-3.189300 1.190700
-3.171800 1.115200
-3.154300 1.035300
-3.136800 0.965800
-3.119300 0.940100
-3.101800 0.914800
-3.084300 0.889400
-3.066800 0.870600
-3.049300 0.859800
-3.031900 0.853100
-3.014400 0.851300
-2.996900 0.818200
-2.979400 0.786100
-2.961900 0.771600
-2.944400 0.764400
-2.926900 0.757300
-2.909400 0.852600
-2.891900 0.757500
-2.874400 0.662000
-2.856900 4.291400
-2.839500 0.236800
-2.822000 0.237800
-2.804500 0.238800
-2.787000 0.239800
-2.769500 0.240900
-2.752000 0.241900
-2.734500 0.243000
-2.717000 0.244200
-2.699500 0.245500
-2.682000 0.246800
-2.664500 0.248200
-2.647100 0.249500
-2.629600 0.250900
-2.612100 0.252200
-2.594600 0.253600
-2.577100 0.255100
-2.559600 0.256600
-2.542100 0.258100
-2.524600 0.259700
-2.507100 0.261300
-2.489600 0.262900
-2.472100 0.264600
-2.454700 0.266300
-2.437200 0.268100
-2.419700 0.270000
-2.402200 0.271800
-2.384700 0.273700
-2.367200 0.275700
-2.349700 0.277600
-2.332200 0.279600
-2.314700 0.281300
-2.297200 0.283200
-2.279700 0.285000
-2.262300 0.286900
-2.244800 0.288700
-2.227300 0.290700
-2.209800 0.292600
-2.192300 0.294500
-2.174800 0.296500
-2.157300 0.298500
-2.139800 0.300600
-2.122300 0.302700
-2.104800 0.304700
-2.087400 0.306800
-2.069900 0.309000
-2.052400 0.311100
-2.034900 0.313300
-2.017400 0.315400
-1.999900 0.317600
-1.982400 0.319800
-1.964900 0.322000
-1.947400 0.324200
-1.929900 0.326300
-1.912400 0.328500
-1.895000 0.330800
-1.877500 0.333000
-1.860000 0.335200
-1.842500 0.344700
-1.825000 0.347500
-1.807500 0.350300
-1.790000 0.353100
-1.772500 0.355800
-1.755000 0.358500
-1.737500 0.361300
-1.720000 0.364000
-1.702600 0.363800
-1.685100 0.365900
-1.667600 0.368000
-1.650100 0.370100
-1.632600 0.372200
-1.615100 0.374400
-1.597600 0.376500
-1.580100 0.378700
-1.562600 0.381000
-1.545100 0.383600
-1.527600 0.386100
-1.510200 0.388700
-1.492700 0.391200
-1.475200 0.393700
-1.457700 0.396300
-1.440200 0.398400
-1.422700 0.400700
-1.405200 0.403500
-1.387700 0.406400
-1.370200 0.409600
-1.352700 0.412700
-1.335200 0.417000
-1.317800 0.420400
-1.300300 0.423800
-1.282800 0.427300
-1.265300 0.430900
-1.247800 0.434500
-1.230300 0.438200
-1.212800 0.441800
-1.195300 0.445500
-1.177800 0.450400
-1.160300 0.455200
-1.142900 0.462200
-1.125400 0.467800
-1.107900 0.473300
-1.090400 0.478200
-1.072900 0.482700
-1.055400 0.487100
-1.037900 0.491800
-1.020400 0.497300
-1.002900 0.505700
-0.985400 0.512300
-0.967900 0.518800
-0.950500 0.525300
-0.933000 0.533300
-0.915500 0.539800
-0.898000 0.544900
-0.880500 0.550100
-0.863000 0.555000
-0.845500 0.558900
-0.828000 0.637500
-0.810500 0.651600
-0.793000 0.662300
-0.775500 0.667600
-0.758100 0.675900
-0.740600 0.664200
-0.723100 0.666800
-0.705600 0.667800
-0.688100 0.673900
-0.670600 0.679400
-0.653100 0.680800
-0.635600 0.681900
-0.618100 0.685600
-0.600600 0.689200
-0.583100 0.686800
-0.565700 0.688000
-0.548200 0.689400
-0.530700 0.691500
-0.513200 0.695300
-0.495700 0.700000
-0.478200 0.704900
-0.460700 0.709800
-0.443200 0.714900
-0.425700 0.719800
-0.408200 0.724900
-0.390700 0.730200
-0.373300 0.734900
-0.355800 0.741400
-0.338300 0.747500
-0.320800 0.754100
-0.303300 0.760800
-0.285800 0.767600
-0.268300 0.773700
-0.250800 0.781400
-0.233300 0.789400
-0.215800 0.797200
-0.198400 0.805700
-0.180900 0.814700
-0.163400 0.852400
-0.145900 0.884400
-0.128400 0.904800
-0.110900 0.924300
-0.093400 0.942500
-0.075900 0.957400
-0.058400 1.049700
-0.040900 1.085000
-0.023400 1.048200
-0.006000 1.031800
0.011500 1.019200
0.029000 1.001700
0.046500 0.994800
0.064000 0.989800
0.081500 0.984900
0.099000 0.973400
0.116500 0.935800
0.134000 0.909800
0.151500 0.886400
0.169000 0.881500
0.186400 0.873700
0.203900 0.864300
0.221400 0.852200
0.238900 0.896700
0.256400 0.939800
0.273900 0.982300
0.291400 1.037900
0.308900 1.090600
0.326400 1.161400
0.343900 1.256100
0.361400 1.407700
0.378800 1.447600
0.396300 1.450600
0.413800 1.435400
0.431300 1.205500
0.448800 1.202300
0.466300 1.207200
0.483800 1.229000
0.501300 1.337100
0.518800 1.477600
0.536300 1.684500
0.553800 1.337600
0.571200 1.104900
0.588700 1.055300
0.606200 1.020100
0.623700 0.987700
0.641200 0.878100
0.658700 0.922800
0.676200 0.947800
0.693700 0.995700
0.711200 1.086900
0.728700 1.169100
0.746200 1.262800
0.763600 1.493600
0.781100 1.600000
0.798600 1.709600
0.816100 1.815200
0.833600 1.878200
0.851100 1.906600
0.868600 1.966000
0.886100 2.054000
0.903600 2.150400
0.921100 2.261200
0.938500 2.365600
0.956000 2.527600
0.973500 2.640400
0.991000 2.886800
1.008500 2.839200
1.026000 2.892600
1.043500 2.985500
1.061000 3.051300
1.078500 3.172400
1.096000 3.269400
1.113500 3.376100
1.130900 3.511600
1.148400 3.710500
1.165900 3.315200
1.183400 3.216200
1.200900 2.955700
1.218400 2.937200
1.235900 2.822800
1.253400 2.808800
1.270900 2.790200
1.288400 2.794300
1.305900 2.802600
1.323300 2.784100
1.340800 2.760000
1.358300 2.803800
1.375800 2.836700
1.393300 2.885500
1.410800 2.899900
1.428300 2.859800
1.445800 2.865200
1.463300 2.903700
1.480800 2.938600
1.498300 2.959100
1.515700 3.184300
1.533200 3.135100
1.550700 3.141900
1.568200 3.125200
1.585700 3.075900
1.603200 3.065300
1.620700 3.060100
1.638200 3.081400
1.655700 3.137100
1.673200 3.166100
1.690700 3.258500
1.708100 3.206100
1.725600 3.202000
1.743100 3.185900
1.760600 3.226700
1.778100 3.283800
1.795600 3.232100
1.813100 3.041100
1.830600 2.974200
1.848100 2.865600
1.865600 2.859500
1.883000 2.697800
1.900500 2.719400
1.918000 2.777300
1.935500 2.865100
1.953000 2.973900
1.970500 2.964400
1.988000 3.041400
2.005500 4.088000
2.023000 4.218800
2.040500 3.745300
2.058000 3.564600
2.075400 3.330600
2.092900 3.249600
2.110400 3.125900
2.127900 3.084500
2.145400 3.019600
2.162900 2.965000
2.180400 2.917400
2.197900 2.860600
2.215400 2.802600
2.232900 2.746700
2.250400 2.687000
2.267800 2.592600
2.285300 2.526900
2.302800 2.442900
2.320300 2.363400
2.337800 2.256300
2.355300 2.196900
2.372800 2.130500
2.390300 2.060300
2.407800 2.004100
2.425300 1.956600
2.442800 1.922300
2.460200 1.903400
2.477700 1.842500
2.495200 1.790800
2.512700 1.778400
2.530200 1.776000
2.547700 1.815800
2.565200 1.776900
2.582700 1.870700
2.600200 1.986200
2.617700 1.927000
2.635200 1.923100
2.652600 2.219700
2.670100 2.529000
2.687600 2.721300
2.705100 2.930800
2.722600 2.852600
2.740100 2.834900
2.757600 3.074100
2.775100 3.266300
2.792600 3.254700
2.810100 3.391300
2.827600 3.654800
2.845000 3.863700
2.862500 4.133500
2.880000 4.534900
2.897500 4.663700
2.915000 4.726100
2.932500 4.790200
2.950000 4.688600
2.967500 4.770000
2.985000 4.839900
3.002500 4.926400
3.019900 5.103100
3.037400 5.149000
3.054900 4.898700
3.072400 4.577800
3.089900 4.402300
3.107400 4.326000
3.124900 4.347900
3.142400 4.392000
3.159900 4.481000
3.177400 4.497200
3.194900 4.748900
3.212300 4.809900
3.229800 5.332600
3.247300 5.315200
3.264800 5.200500
3.282300 5.120500
3.299800 5.276700
3.317300 4.318700
3.334800 3.817000
3.352300 3.548900
3.369800 3.348500
3.387300 2.961200
3.404700 2.753400
3.422200 2.544200
3.439700 1.991900
3.457200 1.834200
3.474700 1.756200
3.492200 1.683500
3.509700 1.623200
3.527200 1.562100
3.544700 1.562900
3.562200 1.558000
3.579700 1.559300
3.597100 1.570700
3.614600 1.577000
3.632100 1.522700
3.649600 1.496200
3.667100 1.491500
3.684600 1.516900
3.702100 1.493800
3.719600 1.466200
3.737100 1.520300
3.754600 1.473400
3.772100 1.411800
3.789500 1.384300
3.807000 1.249400
3.824500 1.128600
3.842000 1.055700
3.859500 0.862500
3.877000 0.848600
3.894500 0.834800
3.912000 0.821400
3.929500 0.804800
3.947000 0.797500
3.964400 0.790400
3.981900 0.783700
3.999400 0.777400
4.016900 0.771500
4.034400 0.765700
4.051900 0.755200
4.069400 0.748100
4.086900 0.740900
4.104400 0.734900
4.121900 0.728900
4.139400 0.722600
4.156800 0.716000
4.174300 0.709300
4.191800 0.703300
4.209300 0.698200
4.226800 0.692400
4.244300 0.686800
4.261800 0.681400
4.279300 0.676100
4.296800 0.670700
4.314300 0.665800
4.331800 0.660500
4.349200 0.656100
4.366700 0.651900
4.384200 0.648000
4.401700 0.644500
4.419200 0.643200
4.436700 0.640300
4.454200 0.638300
4.471700 0.635400
4.489200 0.632400
4.506700 0.629100
4.524200 0.626300
4.541600 0.623300
4.559100 0.625200
4.576600 0.623800
4.594100 0.615400
4.611600 0.607100
4.629100 0.599000
4.646600 0.594300
4.664100 0.588500
4.681600 0.579900
4.699100 0.571200
4.716600 0.573400
4.734000 0.562400
4.751500 0.569200
4.769000 0.478900
4.786500 0.477100
4.804000 0.475200
4.821500 0.473600
4.839000 0.471900
4.856500 0.465100
4.874000 0.463200
4.891500 0.461300
4.909000 0.459500
4.926400 0.457700
4.943900 0.455900
4.961400 0.455900
4.978900 0.454700
4.996400 0.453600
5.013900 0.452400
5.031400 0.451300
5.048900 0.450200
5.066400 0.449200
5.083900 0.448200
5.101300 0.447500
5.118800 0.447600
5.136300 0.447900
5.153800 0.447700
5.171300 0.447300
5.188800 0.446900
5.206300 0.446100
5.223800 0.446000
5.241300 0.445900
5.258800 0.452900
5.276300 0.453100
5.293700 0.457000
5.311200 0.459600
5.328700 0.462300
5.346200 0.465300
5.363700 0.468400
5.381200 0.475400
5.398700 0.479200
5.416200 0.483100
5.433700 0.487300
5.451200 0.491600
5.468700 0.496100
5.486100 0.513600
5.503600 0.525600
5.521100 0.541200
5.538600 0.564300
5.556100 0.580200
5.573600 0.629600
5.591100 0.683200
5.608600 0.813500
5.626100 1.065200
5.643600 0.965500
5.661100 0.936700
5.678500 0.977600
5.696000 1.007700
5.713500 0.975800
5.731000 0.942400
5.748500 0.925500
5.766000 0.905500
5.783500 0.883000
5.801000 0.851300
5.818500 0.811600
5.836000 0.794700
5.853500 0.780600
5.870900 0.765600
5.888400 0.752000
5.905900 0.744700
5.923400 0.738100
5.940900 0.731600
5.958400 0.725600
5.975900 0.719400
5.993400 0.713500
6.010900 0.708100
6.028400 0.701900
6.045800 0.695700
6.063300 0.690700
6.080800 0.686600
6.098300 0.682200
6.115800 0.677700
6.133300 0.673200
6.150800 0.669600
6.168300 0.666000
6.185800 0.661100
6.203300 0.656500
6.220800 0.651500
6.238200 0.646200
6.255700 0.640900
6.273200 0.634500
6.290700 0.628700
6.308200 0.622900
6.325700 0.617900
6.343200 0.613400
6.360700 0.609000
6.378200 0.604600
6.395700 0.600200
6.413200 0.596300
6.430600 0.592600
6.448100 0.589000
6.465600 0.585600
6.483100 0.582400
6.500600 0.579400
6.518100 0.579200
6.535600 0.576200
6.553100 0.573600
6.570600 0.570600
6.588100 0.567400
6.605600 0.564200
6.623000 0.560900
6.640500 0.558200
6.658000 0.555500
6.675500 0.552100
6.693000 0.548900
6.710500 0.546500
6.728000 0.544200
6.745500 0.541800
6.763000 0.539500
6.780500 0.537100
6.798000 0.534800
6.815400 0.532500
6.832900 0.528900
6.850400 0.526100
6.867900 0.523700
6.885400 0.521200
6.902900 0.518700
6.920400 0.516200
6.937900 0.513500
6.955400 0.510600
6.972900 0.507800
6.990400 0.505000
7.007800 0.502200
7.025300 0.499400
7.042800 0.496300
7.060300 0.493100
7.077800 0.490200
7.095300 0.485300
7.112800 0.481700
7.130300 0.478200
7.147800 0.475100
7.165300 0.472200
7.182700 0.469500
7.200200 0.466900
7.217700 0.464300
7.235200 0.461700
7.252700 0.459200
7.270200 0.456800
7.287700 0.454400
7.305200 0.452100
7.322700 0.539900
7.340200 0.517400
7.357700 0.525300
7.375100 0.522100
7.392600 0.527600
7.410100 0.533300
7.427600 0.539200
7.445100 0.536700
7.462600 0.535200
7.480100 0.530600
7.497600 0.532700
7.515100 0.535000
7.532600 0.539000
7.550100 0.543300
7.567500 0.547900
7.585000 0.552600
7.602500 0.558200
7.620000 0.562100
7.637500 0.572700
7.655000 0.591700
7.672500 0.615600
7.690000 0.638200
7.707500 0.654800
7.725000 0.666800
7.742500 0.677700
7.759900 0.688600
7.777400 0.698500
7.794900 0.706900
7.812400 0.712900
7.829900 0.720100
7.847400 0.727400
7.864900 0.735600
7.882400 0.738800
7.899900 0.740100
7.917400 0.738900
7.934900 0.737400
7.952300 0.731800
7.969800 0.728600
7.987300 0.726200
8.004800 0.723700
8.022300 0.720700
8.039800 0.718100
8.057300 0.715500
8.074800 0.712900
8.092300 0.712200
8.109800 0.701100
8.127200 0.695200
8.144700 0.689200
8.162200 0.686000
8.179700 0.681200
8.197200 0.677500
8.214700 0.672000
8.232200 0.666600
8.249700 0.661300
8.267200 0.656200
8.284700 0.651300
8.302200 0.646600
8.319600 0.642000
8.337100 0.640200
8.354600 0.637200
8.372100 0.633100
8.389600 0.866400
8.407100 0.800500
8.424600 0.685400
8.442100 0.681900
8.459600 0.678800
8.477100 0.665200
8.494600 0.648500
8.512000 0.636100
8.529500 0.631900
8.547000 0.628200
8.564500 0.625200
8.582000 0.623100
8.599500 0.621400
8.617000 0.619400
8.634500 0.619300
8.652000 0.619700
8.669500 0.621500
8.687000 0.620200
8.704400 0.619600
8.721900 0.621600
8.739400 0.616400
8.756900 0.633700
8.774400 0.628100
8.791900 0.625100
8.809400 0.626300
8.826900 0.630800
8.844400 0.637000
8.861900 0.642900
8.879400 0.646000
8.896800 0.650600
8.914300 0.654600
8.931800 0.658600
8.949300 0.662900
8.966800 0.691900
8.984300 0.703200
9.001800 0.693800
9.019300 0.699800
9.036800 0.700600
9.054300 0.707600
9.071800 0.713000
9.089200 0.717900
9.106700 0.722300
9.124200 0.726500
9.141700 0.730400
9.159200 0.733700
9.176700 0.732000
9.194200 0.729900
9.211700 0.726400
9.229200 0.727000
9.246700 0.727600
9.264100 0.729400
9.281600 0.729100
9.299100 0.771000
9.316600 0.759200
9.334100 0.765500
9.351600 0.782200
9.369100 0.786200
9.386600 0.767200
9.404100 0.766200
9.421600 0.765600
9.439100 0.765700
9.456500 0.766800
9.474000 0.768900
9.491500 0.771800
9.509000 0.775600
9.526500 0.780500
9.544000 0.788100
9.561500 0.805100
9.579000 0.823100
9.596500 0.840600
9.614000 0.851600
9.631500 0.852800
9.648900 0.844200
9.666400 0.828400
9.683900 0.805900
9.701400 0.802800
9.718900 0.799800
9.736400 0.792800
9.753900 0.790600
9.771400 0.788500
9.788900 0.796600
9.806400 0.782900
9.823900 0.776200
9.841300 0.771200
9.858800 0.764200
9.876300 0.770600
9.893800 0.758900
9.911300 0.755400
9.928800 0.753400
9.946300 0.751600
9.963800 0.750000
9.981300 0.745100
9.998800 0.743000
10.016300 0.740700
10.033700 0.738300
10.051200 0.735600
10.068700 0.732700
10.086200 0.738600
10.103700 0.732500
10.121200 0.727800
10.138700 0.710900
10.156200 0.711600
10.173700 0.718500
10.191200 0.696000
10.208600 0.692800
10.226100 0.689700
10.243600 0.682800
10.261100 0.681000
10.278600 0.677600
10.296100 0.673500
10.313600 0.670100
10.331100 0.667500
10.348600 0.665900
10.366100 0.664800
10.383600 0.659100
10.401000 0.647000
10.418500 0.641700
10.436000 0.639600
10.453500 0.637600
10.471000 0.641000
10.488500 0.641800
10.506000 0.641200
10.523500 0.641100
10.541000 0.640900
10.558500 0.640800
10.576000 0.656600
10.593400 0.640000
10.610900 0.641900
10.628400 0.644500
10.645900 0.648100
10.663400 0.652200
10.680900 0.656600
10.698400 0.659400
10.715900 0.664200
10.733400 0.668800
10.750900 0.673100
10.768400 0.677200
10.785800 0.681000
10.803300 0.683900
10.820800 0.692300
10.838300 0.696900
10.855800 0.696000
10.873300 0.701400
10.890800 0.705000
10.908300 0.706400
10.925800 0.711300
10.943300 0.713700
10.960800 0.714300
10.978200 0.717900
10.995700 0.724100
11.013200 0.731200
11.030700 0.731600
11.048200 0.729100
11.065700 0.720600
11.083200 0.720200
11.100700 0.719400
11.118200 0.718700
11.135700 0.742400
11.153100 0.716700
11.170600 0.715200
11.188100 0.713800
11.205600 0.712700
11.223100 0.713300
11.240600 0.713000
11.258100 0.712500
11.275600 0.712200
11.293100 0.712100
11.310600 0.712200
11.328100 0.712400
11.345500 0.712700
11.363000 0.713400
11.380500 0.714500
11.398000 0.715800
11.415500 0.720000
11.433000 0.727400
11.450500 0.722000
11.468000 0.727400
11.485500 0.733100
11.503000 0.721000
11.520500 0.723300
11.537900 0.723200
11.555400 0.735800
11.572900 0.755800
11.590400 0.743800
11.607900 0.737300
11.625400 0.732100
11.642900 0.732600
11.660400 0.733500
11.677900 0.734400
11.695400 0.735500
11.712900 0.736500
11.730300 0.737400
11.747800 0.738600
11.765300 0.733300
11.782800 0.729700
11.800300 0.731000
11.817800 0.732800
11.835300 0.732000
11.852800 0.733100
11.870300 0.734800
11.887800 0.736900
11.905300 0.737700
11.922700 0.737500
11.940200 0.740000
11.957700 0.742800
11.975200 0.744500
11.992700 0.745300
12.010200 0.746200
12.027700 0.747100
12.045200 0.748400
12.062700 0.749300
12.080200 0.750200
12.097700 0.750800
12.115100 0.751500
12.132600 0.751900
12.150100 0.752800
12.167600 0.753800
12.185100 0.754700
12.202600 0.755400
12.220100 0.756300
12.237600 0.757300
12.255100 0.758600
12.272600 0.760000
12.290000 0.762900
12.307500 0.767100
12.325000 0.772900
12.342500 0.780600
12.360000 0.789400
12.377500 0.799700
12.395000 0.815900
12.412500 0.825400
12.430000 0.819700
12.447500 0.824200
12.465000 0.826700
12.482400 0.829600
12.499900 0.834800
12.517400 0.841500
12.534900 0.846600
12.552400 0.955200
12.569900 0.868200
12.587400 0.865500
12.604900 0.861700
12.622400 0.848700
12.639900 0.849100
12.657400 0.847000
12.674800 0.838000
12.692300 0.837000
12.709800 0.835800
12.727300 0.834600
12.744800 0.834000
12.762300 0.831300
12.779800 0.832800
12.797300 0.834400
12.814800 0.836100
12.832300 0.837700
12.849800 0.857900
12.867200 0.858200
12.884700 0.859000
12.902200 0.860300
12.919700 0.856300
12.937200 0.859000
12.954700 0.861100
12.972200 0.865200
12.989700 0.841500
13.007200 0.851600
13.024700 0.846600
13.042200 0.846800
13.059600 0.847100
13.077100 0.846800
13.094600 0.850000
13.112100 0.852400
13.129600 0.847400
13.147100 0.848300
13.164600 0.850100
13.182100 0.852000
13.199600 0.854100
13.217100 0.856100
13.234500 0.853300
13.252000 0.850900
13.269500 0.850100
13.287000 0.859600
13.304500 0.863700
13.322000 0.854600
13.339500 0.866400
13.357000 0.872600
13.374500 0.882800
13.392000 0.917100
13.409500 0.945200
13.426900 0.978600
13.444400 1.003900
13.461900 1.016600
13.479400 1.008500
13.496900 0.978400
13.514400 0.977500
13.531900 0.949100
13.549400 0.949900
13.566900 0.948400
13.584400 0.947500
13.601900 0.948900
13.619300 0.951300
13.636800 0.958500
13.654300 0.959300
13.671800 0.960000
13.689300 0.961700
13.706800 0.961400
13.724300 0.960900
13.741800 0.962800
13.759300 0.966100
13.776800 0.993600
13.794300 0.991100
13.811700 0.985000
13.829200 0.961100
13.846700 0.974000
13.864200 0.978600
13.881700 0.973700
13.899200 0.966100
13.916700 0.958200
13.934200 0.956700
13.951700 0.980200
13.969200 0.969100
13.986700 0.994200
14.004100 1.007600
14.021600 1.015900
14.039100 1.026600
14.056600 1.008500
14.074100 0.999100
14.091600 1.065000
14.109100 0.906800
14.126600 0.911500
14.144100 0.917400
14.161600 0.921700
14.179100 0.926100
14.196500 0.964500
14.214000 0.970000
14.231500 0.973200
14.249000 0.934700
14.266500 0.933400
14.284000 0.932800
14.301500 0.932100
14.319000 0.934800
14.336500 0.941700
14.354000 0.931600
14.371400 0.922500
14.388900 0.914300
14.406400 0.913700
14.423900 0.917000
14.441400 0.919700
14.458900 0.923000
14.476400 0.926600
14.493900 0.930500
14.511400 0.934900
14.528900 0.939600
14.546400 0.945500
14.563800 0.950400
14.581300 0.955100
14.598800 0.959800
14.616300 0.975100
14.633800 1.044000
14.651300 1.051000
14.668800 1.049500
14.686300 1.039000
14.703800 1.039100
14.721300 1.039400
14.738800 1.067500
14.756200 1.081100
14.773700 1.096400
14.791200 1.114400
14.808700 1.113300
14.826200 1.110500
14.843700 1.126800
14.861200 1.113500
14.878700 1.084000
14.896200 1.061700
14.913700 1.038400
14.931200 1.019200
14.948600 0.995900
14.966100 0.987400
14.983600 0.983800
15.001100 0.978800
15.018600 0.956800
15.036100 0.956000
15.053600 0.955000
15.071100 0.955800
15.088600 1.041100
15.106100 0.997600
15.123600 1.020400
15.141000 1.028600
15.158500 1.036300
15.176000 1.043400
15.193500 1.200400
15.211000 1.022800
15.228500 1.022900
15.246000 1.015800
15.263500 1.015300
15.281000 1.020900
15.298500 1.017700
15.315900 1.014000
15.333400 1.010900
15.350900 1.007500
15.368400 1.003600
15.385900 1.000600
15.403400 1.001300
15.420900 1.011300
15.438400 1.012800
15.455900 1.016500
15.473400 1.003600
15.490900 1.025600
15.508300 0.980500
15.525800 0.972300
15.543300 0.962700
15.560800 0.948400
15.578300 0.947700
15.595800 0.950000
15.613300 0.972100
15.630800 0.949700
15.648300 0.942200
15.665800 0.944700
15.683300 0.943400
15.700700 0.939700
15.718200 0.940800
15.735700 0.944200
15.753200 0.948600
15.770700 0.948800
15.788200 0.961500
15.805700 0.928000
15.823200 0.928600
15.840700 0.930400
15.858200 0.933500
15.875700 0.936600
15.893100 0.939400
15.910600 0.941900
15.928100 0.944800
15.945600 0.948300
15.963100 0.991100
15.980600 1.197500
15.998100 1.122100
16.015600 1.101600
16.033100 1.071000
16.050600 1.056000
16.068100 1.015500
16.085500 1.013600
16.103000 1.014700
16.120500 1.016100
16.138000 1.016400
16.155500 1.015800
16.173000 1.021100
16.190500 1.030400
16.208000 1.028400
16.225500 1.024300
16.243000 1.020900
16.260500 1.013300
16.277900 1.010400
16.295400 1.008600
16.312900 1.007700
16.330400 1.006700
16.347900 1.005600
16.365400 1.001100
16.382900 0.998000
16.400400 0.997700
16.417900 0.998600
16.435400 1.000400
16.452800 1.002600
16.470300 1.005000
16.487800 1.007000
16.505300 1.008500
16.522800 1.009300
16.540300 1.010400
16.557800 1.015100
16.575300 1.017300
16.592800 1.018800
16.610300 1.019700
16.627800 1.021200
16.645200 1.024500
16.662700 1.029500
16.680200 1.035700
16.697700 1.040900
16.715200 1.047000
16.732700 1.042800
16.750200 1.036100
16.767700 1.031200
16.785200 1.027600
16.802700 1.023600
16.820200 1.021400
16.837600 1.020400
16.855100 1.015100
16.872600 1.007100
16.890100 1.009000
16.907600 1.014600
16.925100 1.019500
16.942600 1.026900
16.960100 1.012600
16.977600 1.009000
16.995100 1.004900
17.012600 1.000100
17.030000 0.995600
17.047500 0.989900
17.065000 0.981600
17.082500 0.974700
17.100000 0.968500
17.117500 0.963500
17.135000 0.959800
17.152500 0.957100
17.170000 0.954700
17.187500 0.952300
17.205000 0.950300
17.222400 0.949100
17.239900 0.948400
17.257400 0.947800
17.274900 0.943400
17.292400 0.930100
17.309900 0.935100
17.327400 0.942700
17.344900 0.945000
17.362400 0.947000
17.379900 0.948400
17.397300 0.949200
17.414800 0.962800
17.432300 0.963400
17.449800 0.965500
17.467300 0.969900
17.484800 0.985700
17.502300 0.996500
17.519800 0.977200
17.537300 0.977500
17.554800 0.978100
17.572300 0.978400
17.589700 0.984400
17.607200 0.987300
17.624700 0.973800
17.642200 0.957500
17.659700 0.968700
17.677200 0.952800
17.694700 0.951000
17.712200 0.950300
17.729700 0.949600
17.747200 0.949000
17.764700 0.947000
17.782100 0.946000
17.799600 0.945800
17.817100 0.945800
17.834600 0.945900
17.852100 0.946000
17.869600 0.945900
17.887100 0.945700
17.904600 0.945200
17.922100 0.942900
17.939600 0.942400
17.957100 0.942100
17.974500 0.943600
17.992000 0.944100
18.009500 0.945000
18.027000 0.946300
18.044500 0.947200
18.062000 0.947700
18.079500 0.947900
18.097000 0.949000
18.114500 0.953300
18.132000 0.953700
18.149500 0.955300
18.166900 0.955800
18.184400 0.956600
18.201900 0.957900
18.219400 0.973200
18.236900 0.976500
18.254400 0.979800
18.271900 0.984100
18.289400 0.987200
18.306900 0.990200
18.324400 0.993700
18.341900 0.985400
18.359300 0.985800
18.376800 0.982100
18.394300 0.987600
18.411800 1.006400
18.429300 1.037900
18.446800 1.042700
18.464300 1.046700
18.481800 1.049800
18.499300 1.052900
18.516800 1.062600
18.534200 1.058700
18.551700 1.057000
18.569200 1.049900
18.586700 1.029000
18.604200 1.010500
18.621700 0.987600
18.639200 0.981700
18.656700 0.976700
18.674200 0.975100
18.691700 0.982800
18.709200 0.987500
18.726600 0.987200
18.744100 0.986900
18.761600 0.985800
18.779100 0.984300
18.796600 0.982700
18.814100 0.978300
18.831600 0.974100
18.849100 0.970500
18.866600 0.967800
18.884100 0.967100
18.901600 0.986000
18.919000 0.996100
18.936500 0.994100
18.954000 0.990600
18.971500 0.964200
18.989000 0.969700
19.006500 0.975800
19.024000 0.994200
19.041500 1.007600
19.059000 1.019400
19.076500 1.031800
19.094000 1.051000
19.111400 1.108000
19.128900 1.132100
19.146400 1.159200
19.163900 1.160100
19.181400 1.163300
19.198900 1.166500
19.216400 1.168300
19.233900 1.348800
19.251400 1.203800
19.268900 1.028400
19.286400 1.034600
19.303800 1.040400
19.321300 1.040900
19.338800 1.043600
19.356300 1.046600
19.373800 1.043900
19.391300 1.049000
19.408800 1.057100
19.426300 1.058200
19.443800 1.084800
19.461300 1.084000
19.478700 1.078600
19.496200 1.155800
19.513700 1.091800
19.531200 1.106500
19.548700 1.121400
19.566200 1.137900
19.583700 1.157000
19.601200 1.168200
19.618700 1.186000
19.636200 1.212800
19.653700 1.271500
19.671100 1.326600
19.688600 1.390700
19.706100 1.484100
19.723600 1.438500
19.741100 1.172400
19.758600 1.116100
19.776100 1.070400
19.793600 1.036100
19.811100 1.005400
19.828600 0.989900
19.846100 0.973900
19.863500 1.024400
19.881000 1.049500
19.898500 1.041500
19.916000 0.973600
19.933500 1.056400
19.951000 0.987200
19.968500 0.973800
19.986000 0.969500
20.003500 0.965800
20.021000 0.963100
20.038500 0.960600
20.055900 0.956500
20.073400 0.942900
20.090900 0.936100
20.108400 0.931200
20.125900 0.933500
20.143400 0.939300
20.160900 0.940900
20.178400 0.936000
20.195900 0.943800
20.213400 0.941800
20.230900 0.936000
20.248300 0.937300
20.265800 0.927200
20.283300 0.931200
20.300800 0.937600
20.318300 0.944700
20.335800 0.950300
20.353300 0.958200
20.370800 0.970800
20.388300 0.986700
20.405800 1.002900
20.423200 1.009900
20.440700 1.015100
20.458200 1.021900
20.475700 1.029300
20.493200 1.003700
20.510700 0.994100
20.528200 0.990600
20.545700 0.980400
20.563200 0.967900
20.580700 0.959400
20.598200 0.957300
20.615600 0.957200
20.633100 0.955600
20.650600 0.957800
20.668100 0.959900
20.685600 0.962400
20.703100 0.957100
20.720600 0.954000
20.738100 0.959000
20.755600 0.965100
20.773100 0.981700
20.790600 0.987700
20.808000 0.989700
20.825500 1.026400
20.843000 1.032500
20.860500 1.037700
20.878000 1.050500
20.895500 1.014300
20.913000 1.022500
20.930500 1.038900
20.948000 1.030600
20.965500 1.022700
20.983000 1.045300
21.000400 1.055600
21.017900 1.062900
21.035400 1.071000
21.052900 1.091500
21.070400 1.131600
21.087900 1.209000
21.105400 1.204800
21.122900 1.217400
21.140400 1.201300
21.157900 1.140300
21.175400 1.121300
21.192800 1.111300
21.210300 1.096200
21.227800 1.074800
21.245300 1.039300
21.262800 1.011400
21.280300 0.999900
21.297800 0.997600
21.315300 0.999900
21.332800 0.997800
21.350300 0.997400
21.367800 1.004800
21.385200 1.017500
21.402700 1.038400
21.420200 1.084900
21.437700 1.114800
21.455200 1.153000
21.472700 1.198300
21.490200 1.236100
21.507700 1.293200
21.525200 1.336800
21.542700 1.400500
21.560100 1.464400
21.577600 1.566900
21.595100 1.627000
21.612600 1.687700
21.630100 1.663100
21.647600 1.675900
21.665100 1.705300
21.682600 1.744600
21.700100 1.801900
21.717600 1.785600
21.735100 1.729500
21.752500 1.740000
21.770000 1.752100
21.787500 1.750400
21.805000 1.758800
21.822500 1.761500
21.840000 1.763600
21.857500 1.759600
21.875000 1.768500
21.892500 1.822900
21.910000 1.750700
21.927500 1.712700
21.944900 1.669200
21.962400 1.631900
21.979900 1.605700
21.997400 1.584200
22.014900 1.550800
22.032400 1.523600
22.049900 1.504400
22.067400 1.489500
22.084900 1.482300
22.102400 1.481100
22.119900 1.485100
22.137300 1.484200
22.154800 1.486200
22.172300 1.478000
22.189800 1.473900
22.207300 1.476300
22.224800 1.462800
22.242300 1.457400
22.259800 1.451500
22.277300 1.469700
22.294800 1.477000
22.312300 1.472100
22.329700 1.479600
22.347200 1.479400
22.364700 1.489200
22.382200 1.463700
22.399700 1.484000
22.417200 1.499100
22.434700 1.504400
22.452200 1.496600
22.469700 1.499100
22.487200 1.501700
22.504600 1.512700
22.522100 1.632100
22.539600 1.600300
22.557100 1.599900
22.574600 1.744900
22.592100 1.541100
22.609600 1.521600
22.627100 1.507200
22.644600 1.506500
22.662100 1.499800
22.679600 1.491200
22.697000 1.898800
22.714500 1.501400
22.732000 1.458700
22.749500 1.434700
22.767000 1.391300
22.784500 1.360700
22.802000 1.327700
22.819500 1.312200
22.837000 1.305200
22.854500 1.288100
22.872000 1.266300
22.889400 1.252300
22.906900 1.240500
22.924400 1.230400
22.941900 1.223400
22.959400 1.218700
22.976900 1.215100
22.994400 1.207600
23.011900 1.197800
23.029400 1.187100
23.046900 1.180700
23.064400 1.178300
23.081800 1.186100
23.099300 1.182500
23.116800 1.178200
23.134300 1.172000
23.151800 1.161300
23.169300 1.147500
23.186800 1.154000
23.204300 1.139800
23.221800 1.104600
23.239300 1.098500
23.256800 1.091500
23.274200 1.089400
23.291700 1.082300
23.309200 1.067700
23.326700 1.119300
23.344200 1.117000
23.361700 1.114900
23.379200 1.113000
23.396700 1.113000
23.414200 1.090100
23.431700 1.062700
23.449200 1.068900
23.466600 1.046700
23.484100 1.022400
23.501600 1.017800
23.519100 1.018400
23.536600 1.022000
23.554100 1.030900
23.571600 1.032100
23.589100 0.994700
23.606600 0.993800
23.624100 0.994700
23.641500 0.998100
23.659000 0.998900
23.676500 0.999900
23.694000 1.018800
23.711500 1.063900
23.729000 0.962100
23.746500 0.919400
23.764000 0.888700
23.781500 0.865200
23.799000 0.846200
23.816500 0.828800
23.833900 0.812800
23.851400 0.798900
23.868900 0.786400
23.886400 0.779500
23.903900 0.773500
23.921400 0.765200
23.938900 0.755600
23.956400 0.750400
23.973900 0.733300
23.991400 0.719400
24.008900 0.709600
24.026300 0.700100
24.043800 0.689300
24.061300 0.677000
24.078800 0.671900
24.096300 0.671800
24.113800 0.679200
24.131300 0.671900
24.148800 0.671200
24.166300 0.664800
24.183800 0.658500
24.201300 0.650100
24.218700 0.641600
24.236200 0.629500
24.253700 0.608700
24.271200 0.590900
24.288700 0.586600
24.306200 0.555500
24.323700 0.523500
24.341200 0.509700
24.358700 0.499500
24.376200 0.489400
24.393700 0.479500
24.411100 0.470100
24.428600 0.460600
24.446100 0.451200
24.463600 0.441800
24.481100 0.431900
24.498600 0.419800
24.516100 0.403800
24.533600 0.390300
24.551100 0.376700
24.568600 0.363100
24.586000 0.350900
24.603500 0.334600
24.621000 0.326700
24.638500 0.319900
24.656000 0.291300
24.673500 0.286400
24.691000 0.281500
24.708500 0.276800
24.726000 0.272200
24.743500 0.267700
24.761000 0.263100
24.778400 0.258200
24.795900 0.253200
24.813400 0.248000
24.830900 0.242700
24.848400 0.237200
24.865900 0.231300
24.883400 0.225700
24.900900 0.219900
24.918400 0.213900
24.935900 0.207700
24.953400 0.201900
24.970800 0.196200
24.988300 0.190700
25.005800 0.185300
25.023300 0.180200
25.040800 0.174700
25.058300 0.166600
25.075800 0.156900
25.093300 0.151300
25.110800 0.147300
25.128300 0.143500
25.145800 0.139900
25.163200 0.136300
25.180700 0.132900
25.198200 0.129600
25.215700 0.126400
25.233200 0.124600
25.250700 0.123000
25.268200 0.121300
25.285700 0.119500
25.303200 0.117700
25.320700 0.115900
25.338200 0.114000
25.355600 0.111300
25.373100 0.108200
25.390600 0.105400
25.408100 0.102700
25.425600 0.099600
25.443100 0.097400
25.460600 0.095400
25.478100 0.093600
25.495600 0.092000
25.513100 0.090500
25.530600 0.089100
25.548000 0.087800
25.565500 0.086500
25.583000 0.085200
25.600500 0.083900
25.618000 0.082600
25.635500 0.081400
25.653000 0.080100
25.670500 0.078800
25.688000 0.077500
25.705500 0.076200
25.722900 0.074900
25.740400 0.073700
25.757900 0.072500
25.775400 0.070900
25.792900 0.069300
25.810400 0.067700
25.827900 0.066200
25.845400 0.064800
25.862900 0.063500
25.880400 0.062200
25.897900 0.061000
25.915300 0.059900
25.932800 0.058800
25.950300 0.057900
25.967800 0.057000
25.985300 0.056200
26.002800 0.055500
26.020300 0.054700
26.037800 0.053900
26.055300 0.053000
26.072800 0.052300
26.090300 0.051500
26.107700 0.050900
26.125200 0.050300
26.142700 0.049800
26.160200 0.049400
26.177700 0.048900
26.195200 0.048500
26.212700 0.047900
26.230200 0.047300
26.247700 0.046700
26.265200 0.046000
26.282700 0.045400
26.300100 0.044600
26.317600 0.043700
26.335100 0.042800
26.352600 0.041800
26.370100 0.040700
26.387600 0.039700
26.405100 0.038700
26.422600 0.037700
26.440100 0.036800
26.457600 0.035900
26.475100 0.035000
26.492500 0.034100
26.510000 0.033300
26.527500 0.032600
26.545000 0.031800
26.562500 0.031200
26.580000 0.030500
26.597500 0.030300
26.615000 0.030500
26.632500 0.030700
26.650000 0.032200
26.667400 0.031500
26.684900 0.030700
26.702400 0.029900
26.719900 0.026400
26.737400 0.025800
26.754900 0.025200
26.772400 0.024700
26.789900 0.024100
26.807400 0.023500
26.824900 0.023000
26.842400 0.022400
26.859800 0.021900
26.877300 0.021300
26.894800 0.020800
26.912300 0.020300
26.929800 0.019800
26.947300 0.019200
26.964800 0.018700
26.982300 0.063300
26.999800 0.078900
27.017300 0.021100
27.034800 0.017300
27.052200 0.013600
27.069700 0.010000
27.087200 0.006700
27.104700 0.003400
27.122200 0.000300
27.139700 0.000000
27.157200 0.000000
27.174700 0.000000
27.192200 0.000000
27.209700 0.000000
27.227200 0.000000
27.244600 0.000000
27.262100 0.000000
27.279600 0.000000
27.297100 0.000000
27.314600 0.000000
27.332100 0.000000
27.349600 0.000000
27.367100 0.000000
27.384600 0.000000
27.402100 0.000000
27.419600 0.000000
27.437000 0.000000
27.454500 0.000000
27.472000 0.000000
27.489500 0.000000
27.507000 0.000000
27.524500 0.000000
27.542000 0.000000
27.559500 0.000000
27.577000 0.000000
27.594500 0.000000
27.612000 0.000000
27.629400 0.000000
27.646900 0.000000
27.664400 0.000000
27.681900 0.000000
27.699400 0.000000
27.716900 0.000000
27.734400 0.000000
27.751900 0.000000
27.769400 0.000000
27.786900 0.000000
27.804300 0.000000
27.821800 0.000000
27.839300 0.000000
27.856800 0.000000
27.874300 0.000000
27.891800 0.000000
27.909300 0.000000
27.926800 0.000000
27.944300 0.000000
27.961800 0.000000
27.979300 0.000000
27.996700 0.000000
28.014200 0.000000
28.031700 0.000000
28.049200 0.000000
28.066700 0.000000
28.084200 0.000000
28.101700 0.000000
28.119200 0.000000
28.136700 0.000000
28.154200 0.000000
28.171700 0.000000
28.189100 0.000000
28.206600 0.000000
28.224100 0.000000
28.241600 0.000000
28.259100 0.000000
28.276600 0.000000
28.294100 0.000000
28.311600 0.000000
28.329100 0.000000
28.346600 0.000000
28.364100 0.000000
28.381500 0.000000
28.399000 0.000000
28.416500 0.000000
28.434000 0.000000
28.451500 0.000000
28.469000 0.000000
28.486500 0.000000
28.504000 0.000000
28.521500 0.000000
28.539000 0.000000
28.556500 0.000000
28.573900 0.000000
28.591400 0.000000
28.608900 0.000000
28.626400 0.000000
28.643900 0.000000
28.661400 0.000000
28.678900 0.000000
28.696400 0.000000
28.713900 0.000000
e
