set title 'mp-999200 - Density of States'
set xlabel 'Energy (eV)'
set ylabel 'DOS (states/eV)'
set grid
set xrange [-10:10]
set yrange [0:3.966]
set xzeroaxis lt -1
set terminal png size 800,600
set output 'mp-999200_dos_gnuplot.png'
plot '-' using 1:2 with lines title 'DOS'
-8.642800 0.000000
-8.620800 0.000000
-8.598800 0.000000
-8.576800 0.000000
-8.554800 0.000000
-8.532800 0.000000
-8.510800 0.000000
-8.488900 0.000000
-8.466900 0.000000
-8.444900 0.000000
-8.422900 0.000000
-8.400900 0.000000
-8.378900 0.000000
-8.356900 0.000000
-8.334900 0.000000
-8.312900 0.000000
-8.290900 0.000000
-8.268900 0.000000
-8.247000 0.000000
-8.225000 0.000000
-8.203000 0.000000
-8.181000 0.000000
-8.159000 0.000000
-8.137000 0.000000
-8.115000 0.000000
-8.093000 0.000000
-8.071000 0.000000
-8.049000 0.000000
-8.027000 0.000000
-8.005000 0.000000
-7.983100 0.000000
-7.961100 0.000000
-7.939100 0.000000
-7.917100 0.000000
-7.895100 0.000000
-7.873100 0.000000
-7.851100 0.000000
-7.829100 0.000000
-7.807100 0.000000
-7.785100 0.000000
-7.763100 0.000000
-7.741100 0.000000
-7.719200 0.000000
-7.697200 0.000000
-7.675200 0.000000
-7.653200 0.000000
-7.631200 0.000000
-7.609200 0.000000
-7.587200 0.000000
-7.565200 0.000000
-7.543200 0.000000
-7.521200 0.000000
-7.499200 0.000000
-7.477300 0.000000
-7.455300 0.000000
-7.433300 0.000000
-7.411300 0.000000
-7.389300 0.000000
-7.367300 0.000000
-7.345300 0.000000
-7.323300 0.000000
-7.301300 0.000000
-7.279300 0.000000
-7.257300 0.000000
-7.235300 0.000000
-7.213400 0.000000
-7.191400 0.000000
-7.169400 0.000000
-7.147400 0.000000
-7.125400 0.000000
-7.103400 0.000000
-7.081400 0.000000
-7.059400 0.000000
-7.037400 0.000000
-7.015400 0.000000
-6.993400 0.000000
-6.971500 0.000000
-6.949500 0.000000
-6.927500 0.000000
-6.905500 0.000000
-6.883500 0.000000
-6.861500 0.000000
-6.839500 0.000000
-6.817500 0.000000
-6.795500 0.000000
-6.773500 0.000000
-6.751500 0.000000
-6.729500 0.000000
-6.707600 0.000000
-6.685600 0.000000
-6.663600 0.000000
-6.641600 0.000200
-6.619600 0.025000
-6.597600 0.092900
-6.575600 0.179600
-6.553600 0.229500
-6.531600 0.231300
-6.509600 0.265900
-6.487600 0.298800
-6.465700 0.330000
-6.443700 0.338400
-6.421700 0.366300
-6.399700 0.384700
-6.377700 0.406200
-6.355700 0.428900
-6.333700 0.448300
-6.311700 0.466900
-6.289700 0.489800
-6.267700 0.506800
-6.245700 0.521300
-6.223700 0.532800
-6.201800 0.541700
-6.179800 0.558200
-6.157800 0.577200
-6.135800 0.596100
-6.113800 0.615400
-6.091800 0.635300
-6.069800 0.655200
-6.047800 0.673300
-6.025800 0.688100
-6.003800 0.703700
-5.981800 0.718700
-5.959800 0.734200
-5.937900 0.750300
-5.915900 0.767700
-5.893900 0.785800
-5.871900 0.804500
-5.849900 0.823700
-5.827900 0.842600
-5.805900 0.861900
-5.783900 0.882200
-5.761900 0.904100
-5.739900 0.935900
-5.717900 0.988300
-5.696000 1.054800
-5.674000 1.108600
-5.652000 1.163100
-5.630000 1.147200
-5.608000 1.134300
-5.586000 1.124000
-5.564000 1.123200
-5.542000 1.124600
-5.520000 1.123800
-5.498000 1.137400
-5.476000 1.113600
-5.454000 1.115000
-5.432100 1.105000
-5.410100 1.096700
-5.388100 1.095200
-5.366100 1.093500
-5.344100 1.091700
-5.322100 1.089900
-5.300100 1.087500
-5.278100 1.093100
-5.256100 1.087100
-5.234100 1.084700
-5.212100 1.085600
-5.190200 1.087200
-5.168200 1.088600
-5.146200 1.089800
-5.124200 1.091500
-5.102200 1.093400
-5.080200 1.095400
-5.058200 1.097800
-5.036200 1.102100
-5.014200 1.109800
-4.992200 1.123100
-4.970200 1.139600
-4.948200 1.151400
-4.926300 1.168200
-4.904300 1.191000
-4.882300 1.219200
-4.860300 1.262200
-4.838300 1.313800
-4.816300 1.371300
-4.794300 1.440400
-4.772300 1.559900
-4.750300 1.679700
-4.728300 1.777600
-4.706300 1.840600
-4.684400 1.784500
-4.662400 2.013700
-4.640400 1.890200
-4.618400 1.317500
-4.596400 1.188000
-4.574400 1.097600
-4.552400 0.949000
-4.530400 0.925500
-4.508400 0.954100
-4.486400 0.980800
-4.464400 1.090500
-4.442400 1.265200
-4.420500 1.164200
-4.398500 1.110800
-4.376500 1.102000
-4.354500 1.062500
-4.332500 1.036300
-4.310500 1.015400
-4.288500 1.021000
-4.266500 0.975400
-4.244500 0.963800
-4.222500 0.950200
-4.200500 0.931600
-4.178500 0.895600
-4.156600 0.861700
-4.134600 0.859000
-4.112600 0.857300
-4.090600 0.856600
-4.068600 0.857000
-4.046600 0.857200
-4.024600 0.858000
-4.002600 0.861400
-3.980600 0.867700
-3.958600 0.873600
-3.936600 0.875700
-3.914700 0.855100
-3.892700 0.853700
-3.870700 0.850900
-3.848700 0.846300
-3.826700 0.837600
-3.804700 0.832000
-3.782700 0.827900
-3.760700 0.825400
-3.738700 0.825900
-3.716700 0.827000
-3.694700 0.834100
-3.672700 0.843300
-3.650800 0.854600
-3.628800 0.868100
-3.606800 0.884200
-3.584800 0.902100
-3.562800 0.918800
-3.540800 0.939400
-3.518800 0.950900
-3.496800 0.954800
-3.474800 0.959100
-3.452800 0.959000
-3.430800 0.958400
-3.408900 0.960300
-3.386900 0.964600
-3.364900 0.969800
-3.342900 0.981700
-3.320900 1.001700
-3.298900 1.018400
-3.276900 1.035100
-3.254900 1.031400
-3.232900 1.043600
-3.210900 1.055300
-3.188900 1.067600
-3.166900 1.080900
-3.145000 1.095100
-3.123000 1.115200
-3.101000 1.134200
-3.079000 1.154100
-3.057000 1.175200
-3.035000 1.197200
-3.013000 1.222600
-2.991000 1.252000
-2.969000 1.280800
-2.947000 1.310400
-2.925000 1.341100
-2.903100 1.544800
-2.881100 1.670900
-2.859100 1.895100
-2.837100 1.891500
-2.815100 1.911000
-2.793100 1.870500
-2.771100 1.805000
-2.749100 1.713600
-2.727100 1.530700
-2.705100 1.468400
-2.683100 1.406900
-2.661100 1.367600
-2.639200 1.373500
-2.617200 1.372900
-2.595200 1.344900
-2.573200 1.305200
-2.551200 1.287200
-2.529200 1.273400
-2.507200 1.304500
-2.485200 1.252100
-2.463200 1.261400
-2.441200 1.281700
-2.419200 1.312600
-2.397200 1.349700
-2.375300 1.394500
-2.353300 1.463100
-2.331300 1.545100
-2.309300 1.614300
-2.287300 1.641400
-2.265300 1.650800
-2.243300 1.642700
-2.221300 1.861000
-2.199300 1.413400
-2.177300 1.303000
-2.155300 1.239800
-2.133400 1.184900
-2.111400 1.138300
-2.089400 1.099300
-2.067400 1.082100
-2.045400 1.048500
-2.023400 1.010100
-2.001400 0.987900
-1.979400 0.969100
-1.957400 0.950000
-1.935400 0.931900
-1.913400 0.914700
-1.891400 0.897600
-1.869500 0.881200
-1.847500 0.865400
-1.825500 0.850300
-1.803500 0.835800
-1.781500 0.821600
-1.759500 0.806700
-1.737500 0.790800
-1.715500 0.774200
-1.693500 0.757100
-1.671500 0.746000
-1.649500 0.735100
-1.627600 0.724800
-1.605600 0.715100
-1.583600 0.705200
-1.561600 0.695400
-1.539600 0.688300
-1.517600 0.682300
-1.495600 0.677300
-1.473600 0.671900
-1.451600 0.666600
-1.429600 0.777200
-1.407600 0.793600
-1.385600 0.783500
-1.363700 0.759600
-1.341700 0.769000
-1.319700 0.779200
-1.297700 0.790500
-1.275700 0.802700
-1.253700 0.817000
-1.231700 0.830300
-1.209700 0.844100
-1.187700 0.854800
-1.165700 0.868200
-1.143700 0.884400
-1.121800 0.903200
-1.099800 0.924600
-1.077800 0.945200
-1.055800 0.956700
-1.033800 0.973000
-1.011800 0.989800
-0.989800 1.014300
-0.967800 1.074600
-0.945800 1.132100
-0.923800 1.211800
-0.901800 1.234200
-0.879800 1.242000
-0.857900 1.248600
-0.835900 1.296700
-0.813900 1.345900
-0.791900 1.396300
-0.769900 1.456300
-0.747900 1.447800
-0.725900 1.411100
-0.703900 1.370400
-0.681900 1.327600
-0.659900 1.229300
-0.637900 1.187400
-0.615900 1.167800
-0.594000 1.158300
-0.572000 1.151800
-0.550000 1.148400
-0.528000 1.148000
-0.506000 1.187600
-0.484000 1.221500
-0.462000 1.222300
-0.440000 1.214800
-0.418000 1.202100
-0.396000 1.186000
-0.374000 1.180500
-0.352100 1.227300
-0.330100 1.122700
-0.308100 0.961200
-0.286100 0.905300
-0.264100 0.856800
-0.242100 0.836200
-0.220100 0.821400
-0.198100 0.795800
-0.176100 0.773700
-0.154100 0.769100
-0.132100 0.772400
-0.110100 0.735700
-0.088200 0.731700
-0.066200 0.730100
-0.044200 0.731100
-0.022200 0.771200
-0.000200 0.855700
0.021800 0.869300
0.043800 0.868100
0.065800 0.853600
0.087800 0.831100
0.109800 0.814600
0.131800 0.790800
0.153700 0.787600
0.175700 0.803200
0.197700 0.827200
0.219700 0.847800
0.241700 0.863800
0.263700 0.880600
0.285700 0.900200
0.307700 0.922800
0.329700 0.943200
0.351700 0.948200
0.373700 0.963400
0.395700 0.976100
0.417600 0.985900
0.439600 0.997100
0.461600 1.068000
0.483600 1.109400
0.505600 1.169600
0.527600 1.216100
0.549600 1.253800
0.571600 1.289100
0.593600 1.325200
0.615600 1.344600
0.637600 1.353300
0.659600 1.346800
0.681500 1.346400
0.703500 1.347700
0.725500 1.327400
0.747500 1.331700
0.769500 1.340000
0.791500 1.351700
0.813500 1.365500
0.835500 1.381400
0.857500 1.399400
0.879500 1.423200
0.901500 1.446300
0.923400 1.475700
0.945400 1.517200
0.967400 1.610600
0.989400 1.671700
1.011400 1.722800
1.033400 1.790200
1.055400 1.836200
1.077400 1.905300
1.099400 1.928400
1.121400 1.874300
1.143400 1.853200
1.165400 1.828100
1.187300 1.810300
1.209300 1.810600
1.231300 1.821100
1.253300 1.827200
1.275300 1.839300
1.297300 1.855000
1.319300 1.871800
1.341300 1.888300
1.363300 1.907000
1.385300 1.905000
1.407300 1.896700
1.429200 1.885500
1.451200 1.854600
1.473200 1.835800
1.495200 1.791100
1.517200 1.754900
1.539200 1.702600
1.561200 1.617100
1.583200 1.516200
1.605200 1.421300
1.627200 1.388200
1.649200 1.445100
1.671200 1.447900
1.693100 1.480200
1.715100 1.477700
1.737100 1.467200
1.759100 1.581000
1.781100 1.494300
1.803100 1.419300
1.825100 1.375600
1.847100 1.349500
1.869100 1.216600
1.891100 1.285800
1.913100 1.592000
1.935000 1.683100
1.957000 1.805900
1.979000 1.911600
2.001000 2.008500
2.023000 2.114000
2.045000 2.222600
2.067000 2.374600
2.089000 2.455900
2.111000 2.554100
2.133000 2.671000
2.155000 2.895200
2.177000 2.996700
2.198900 3.184800
2.220900 3.349700
2.242900 3.477100
2.264900 3.561800
2.286900 3.577500
2.308900 3.523200
2.330900 3.511900
2.352900 3.345800
2.374900 3.152200
2.396900 2.993300
2.418900 2.923300
2.440900 2.896800
2.462800 2.889600
2.484800 2.866700
2.506800 2.828200
2.528800 2.792700
2.550800 2.533500
2.572800 2.390700
2.594800 2.278500
2.616800 2.189300
2.638800 2.149800
2.660800 2.120200
2.682800 2.112800
2.704700 2.143200
2.726700 2.166000
2.748700 2.186100
2.770700 2.212700
2.792700 2.224200
2.814700 2.259800
2.836700 2.323900
2.858700 2.398300
2.880700 2.501800
2.902700 2.599300
2.924700 2.685600
2.946700 2.801200
2.968600 2.963400
2.990600 3.101200
3.012600 3.116400
3.034600 3.202700
3.056600 3.142500
3.078600 3.151200
3.100600 3.088800
3.122600 3.039600
3.144600 2.941100
3.166600 2.803300
3.188600 2.581500
3.210500 2.378900
3.232500 2.409000
3.254500 1.884800
3.276500 1.875800
3.298500 1.902100
3.320500 2.082300
3.342500 2.430200
3.364500 3.008900
3.386500 3.275700
3.408500 3.384300
3.430500 3.605400
3.452500 3.260600
3.474400 3.209600
3.496400 3.215500
3.518400 3.305200
3.540400 3.295900
3.562400 3.352500
3.584400 3.446900
3.606400 3.418200
3.628400 3.394600
3.650400 3.255800
3.672400 3.180400
3.694400 3.093500
3.716300 3.016400
3.738300 2.953300
3.760300 2.880600
3.782300 2.784200
3.804300 2.666500
3.826300 2.563500
3.848300 2.443600
3.870300 2.250200
3.892300 2.160900
3.914300 2.084700
3.936300 2.005700
3.958300 1.923900
3.980200 1.848200
4.002200 1.775700
4.024200 1.716600
4.046200 1.651600
4.068200 1.589300
4.090200 1.534000
4.112200 1.484500
4.134200 1.438700
4.156200 1.393700
4.178200 1.348900
4.200200 1.305700
4.222200 1.256600
4.244100 1.210800
4.266100 1.166600
4.288100 1.131000
4.310100 1.098800
4.332100 1.065300
4.354100 1.028700
4.376100 0.990000
4.398100 0.952900
4.420100 0.918900
4.442100 0.885100
4.464100 0.855200
4.486000 0.825800
4.508000 0.795200
4.530000 0.763400
4.552000 0.706600
4.574000 0.686400
4.596000 0.664800
4.618000 0.641300
4.640000 0.617200
4.662000 0.590600
4.684000 0.565400
4.706000 0.541600
4.728000 0.521200
4.749900 0.509300
4.771900 0.489500
4.793900 0.468400
4.815900 0.446600
4.837900 0.421000
4.859900 0.396100
4.881900 0.373300
4.903900 0.366900
4.925900 0.344500
4.947900 0.320900
4.969900 0.296100
4.991800 0.274900
5.013800 0.252000
5.035800 0.227400
5.057800 0.196800
5.079800 0.183300
5.101800 0.148200
5.123800 0.126000
5.145800 0.102900
5.167800 0.077000
5.189800 0.056600
5.211800 0.000000
5.233800 0.000000
5.255700 0.000000
5.277700 0.000000
5.299700 0.000000
5.321700 0.000000
5.343700 0.000000
5.365700 0.000000
5.387700 0.000000
5.409700 0.000000
5.431700 0.000000
5.453700 0.000000
5.475700 0.000000
5.497600 0.000000
5.519600 0.000000
5.541600 0.000000
5.563600 0.000000
5.585600 0.000000
5.607600 0.000000
5.629600 0.000000
5.651600 0.000000
5.673600 0.033700
5.695600 0.084400
5.717600 0.106000
5.739600 0.125900
5.761500 0.151700
5.783500 0.173300
5.805500 0.194000
5.827500 0.221400
5.849500 0.251600
5.871500 0.280800
5.893500 0.310600
5.915500 0.340900
5.937500 0.371300
5.959500 0.400700
5.981500 0.448000
6.003500 0.510100
6.025400 0.570800
6.047400 0.630200
6.069400 0.703200
6.091400 0.790400
6.113400 0.898300
6.135400 1.084300
6.157400 1.285400
6.179400 1.427800
6.201400 1.570300
6.223400 1.533700
6.245400 1.683700
6.267300 1.976700
6.289300 2.308500
6.311300 2.388900
6.333300 2.364200
6.355300 2.099800
6.377300 1.985300
6.399300 1.905100
6.421300 1.842200
6.443300 1.791000
6.465300 1.768900
6.487300 1.761100
6.509300 1.781800
6.531200 1.800000
6.553200 1.908700
6.575200 1.931900
6.597200 1.947900
6.619200 1.904900
6.641200 1.867100
6.663200 1.804000
6.685200 1.766700
6.707200 1.733700
6.729200 1.693500
6.751200 1.657000
6.773100 1.622200
6.795100 1.602100
6.817100 1.627700
6.839100 1.659900
6.861100 1.705000
6.883100 1.760000
6.905100 1.789100
6.927100 1.814100
6.949100 1.882400
6.971100 1.929500
6.993100 1.979400
7.015100 2.042100
7.037000 2.133200
7.059000 2.290400
7.081000 2.559700
7.103000 2.782700
7.125000 2.828500
7.147000 2.718600
7.169000 2.655400
7.191000 2.629900
7.213000 2.650900
7.235000 2.672600
7.257000 2.672600
7.278900 2.651500
7.300900 2.625000
7.322900 2.661600
7.344900 2.680800
7.366900 2.702400
7.388900 2.726600
7.410900 2.761600
7.432900 2.790400
7.454900 2.807200
7.476900 2.809500
7.498900 2.828300
7.520900 2.887700
7.542800 2.935600
7.564800 2.953200
7.586800 2.969100
7.608800 2.957400
7.630800 2.940300
7.652800 2.920100
7.674800 2.915900
7.696800 2.891100
7.718800 2.877500
7.740800 2.884800
7.762800 2.879100
7.784800 2.884000
7.806700 2.926200
7.828700 2.965600
7.850700 2.984700
7.872700 2.963900
7.894700 2.995800
7.916700 3.010200
7.938700 3.000500
7.960700 2.923500
7.982700 2.843600
8.004700 2.798000
8.026700 2.788000
8.048600 2.798900
8.070600 2.797700
8.092600 2.799400
8.114600 2.843900
8.136600 2.887500
8.158600 2.888500
8.180600 2.832500
8.202600 2.775500
8.224600 2.735100
8.246600 2.680200
8.268600 2.603200
8.290600 2.556300
8.312500 2.550000
8.334500 2.581200
8.356500 2.620600
8.378500 2.660100
8.400500 2.697100
8.422500 2.759400
8.444500 2.608800
8.466500 2.559900
8.488500 2.524800
8.510500 2.485000
8.532500 2.443700
8.554400 2.419400
8.576400 2.426000
8.598400 2.441300
8.620400 2.448800
8.642400 2.465100
8.664400 2.493500
8.686400 2.557200
8.708400 2.716200
8.730400 3.319200
8.752400 3.427200
8.774400 3.354000
8.796400 3.232700
8.818300 3.168200
8.840300 3.066800
8.862300 3.008500
8.884300 2.983200
8.906300 2.953700
8.928300 2.935800
8.950300 2.892400
8.972300 2.869400
8.994300 2.880600
9.016300 2.683700
9.038300 2.575700
9.060200 2.502400
9.082200 2.443900
9.104200 2.415900
9.126200 2.387000
9.148200 2.384200
9.170200 2.308600
9.192200 2.226900
9.214200 2.155800
9.236200 2.094400
9.258200 2.225400
9.280200 2.336700
9.302200 2.491800
9.324100 2.584300
9.346100 2.745900
9.368100 3.035100
9.390100 3.091300
9.412100 3.086900
9.434100 3.109500
9.456100 3.090800
9.478100 3.134300
9.500100 3.186000
9.522100 3.217500
9.544100 3.171600
9.566100 3.190100
9.588000 3.321800
9.610000 3.130400
9.632000 3.077200
9.654000 3.027500
9.676000 3.012300
9.698000 2.938200
9.720000 2.855300
9.742000 2.755600
9.764000 2.691800
9.786000 2.634600
9.808000 2.612200
9.829900 2.595200
9.851900 2.381700
9.873900 2.257500
9.895900 2.196600
9.917900 2.125500
9.939900 2.163400
9.961900 2.189200
9.983900 2.233100
10.005900 2.226700
10.027900 2.218200
10.049900 2.048600
10.071900 1.946100
10.093800 1.933000
10.115800 1.979100
10.137800 2.047900
10.159800 2.098700
10.181800 2.154300
10.203800 2.279000
10.225800 2.369700
10.247800 2.433600
10.269800 2.482500
10.291800 2.517200
10.313800 2.530300
10.335700 2.525900
10.357700 2.523100
10.379700 2.580700
10.401700 2.572400
10.423700 2.603200
10.445700 2.629900
10.467700 2.685200
10.489700 2.697300
10.511700 2.757500
10.533700 2.810300
10.555700 2.833800
10.577700 2.778000
10.599600 2.854500
10.621600 2.918100
10.643600 2.942900
10.665600 2.860000
10.687600 2.786500
10.709600 2.745100
10.731600 2.592000
10.753600 2.429500
10.775600 2.312900
10.797600 2.224700
10.819600 2.147200
10.841500 2.154400
10.863500 2.190100
10.885500 2.232200
10.907500 2.272300
10.929500 2.326000
10.951500 2.399000
10.973500 2.497300
10.995500 2.600000
11.017500 2.681800
11.039500 2.754500
11.061500 2.858700
11.083500 2.930200
11.105400 2.976700
11.127400 3.178200
11.149400 3.092200
11.171400 3.014800
11.193400 2.962000
11.215400 2.907700
11.237400 2.909600
11.259400 2.943200
11.281400 3.051300
11.303400 3.116200
11.325400 2.859800
11.347400 2.701300
11.369300 2.628000
11.391300 2.567200
11.413300 2.514200
11.435300 2.468700
11.457300 2.405200
11.479300 2.407100
11.501300 2.459200
11.523300 2.526400
11.545300 2.587900
11.567300 2.678300
11.589300 2.870300
11.611200 2.990900
11.633200 2.882700
11.655200 2.571100
11.677200 2.438900
11.699200 2.350800
11.721200 2.268100
11.743200 2.190500
11.765200 2.122700
11.787200 2.046900
11.809200 1.980300
11.831200 1.926000
11.853200 1.882800
11.875100 1.869000
11.897100 1.882500
11.919100 1.868600
11.941100 1.866300
11.963100 1.881200
11.985100 1.931500
12.007100 2.092600
12.029100 2.121700
12.051100 2.165200
12.073100 2.192700
12.095100 2.212900
12.117000 2.216800
12.139000 2.195700
12.161000 2.099000
12.183000 2.069000
12.205000 1.952500
12.227000 1.896300
12.249000 1.868800
12.271000 1.832200
12.293000 1.811900
12.315000 1.836900
12.337000 1.865400
12.359000 1.897200
12.380900 1.918800
12.402900 1.922400
12.424900 1.919400
12.446900 2.015000
12.468900 2.128000
12.490900 2.334100
12.512900 2.544900
12.534900 2.690300
12.556900 2.706000
12.578900 2.731400
12.600900 2.828000
12.622800 2.741100
12.644800 2.694300
12.666800 2.684700
12.688800 2.639400
12.710800 2.618500
12.732800 2.579500
12.754800 2.546500
12.776800 2.519000
12.798800 2.541000
12.820800 2.528700
12.842800 2.483400
12.864800 2.456300
12.886700 2.433500
12.908700 2.417600
12.930700 2.419400
12.952700 2.415900
12.974700 2.393000
12.996700 2.415600
13.018700 2.355800
13.040700 2.279300
13.062700 2.416300
13.084700 2.454100
13.106700 2.503400
13.128700 2.557300
13.150600 2.636400
13.172600 2.729200
13.194600 2.829000
13.216600 2.886700
13.238600 2.983600
13.260600 3.050700
13.282600 3.092000
13.304600 3.146200
13.326600 3.143500
13.348600 3.100400
13.370600 3.024700
13.392500 2.957700
13.414500 2.893100
13.436500 2.832200
13.458500 2.770500
13.480500 2.713600
13.502500 2.665200
13.524500 2.632600
13.546500 2.629800
13.568500 2.653200
13.590500 2.698600
13.612500 2.711400
13.634500 2.709300
13.656400 2.694800
13.678400 2.709700
13.700400 2.689300
13.722400 2.657400
13.744400 2.576500
13.766400 2.488300
13.788400 2.455400
13.810400 2.433000
13.832400 2.439000
13.854400 2.447800
13.876400 2.455100
13.898300 2.467700
13.920300 2.500700
13.942300 2.531900
13.964300 2.569800
13.986300 2.556300
14.008300 2.582100
14.030300 2.590400
14.052300 2.611100
14.074300 2.629400
14.096300 2.665200
14.118300 2.704400
14.140300 2.742200
14.162200 2.837800
14.184200 2.886900
14.206200 2.991200
14.228200 3.114000
14.250200 3.116200
14.272200 3.038000
14.294200 2.992400
14.316200 2.932100
14.338200 2.922400
14.360200 2.927500
14.382200 2.959000
14.404200 2.941800
14.426100 3.000000
14.448100 3.034300
14.470100 3.069900
14.492100 3.000300
14.514100 2.947900
14.536100 2.916600
14.558100 2.875300
14.580100 2.823500
14.602100 2.778600
14.624100 2.742800
14.646100 2.751100
14.668000 2.733800
14.690000 2.782800
14.712000 2.770500
14.734000 2.778300
14.756000 2.786300
14.778000 2.761400
14.800000 2.747500
14.822000 2.739400
14.844000 2.704900
14.866000 2.657800
14.888000 2.598500
14.910000 2.602700
14.931900 2.592400
14.953900 2.573700
14.975900 2.552800
14.997900 2.512700
15.019900 2.497600
15.041900 2.476500
15.063900 2.495500
15.085900 2.485400
15.107900 2.467300
15.129900 2.495900
15.151900 2.587100
15.173800 2.573500
15.195800 2.589900
15.217800 2.616500
15.239800 2.647100
15.261800 2.678000
15.283800 2.731100
15.305800 2.831900
15.327800 2.867800
15.349800 2.869500
15.371800 2.805800
15.393800 2.733000
15.415800 2.727100
15.437700 2.910100
15.459700 3.101200
15.481700 3.131900
15.503700 3.110200
15.525700 3.020600
15.547700 3.071500
15.569700 3.142900
15.591700 3.210600
15.613700 3.198500
15.635700 3.087100
15.657700 2.866700
15.679600 2.672400
15.701600 2.568900
15.723600 2.611200
15.745600 2.465900
15.767600 2.365900
15.789600 2.291200
15.811600 2.260500
15.833600 2.245200
15.855600 2.238200
15.877600 2.245600
15.899600 2.286000
15.921600 2.344000
15.943500 2.400500
15.965500 2.492000
15.987500 2.551700
16.009500 2.618800
16.031500 2.707000
16.053500 2.820600
16.075500 2.945600
16.097500 3.082500
16.119500 3.257200
16.141500 3.409400
16.163500 3.546200
16.185500 3.617100
16.207400 3.583200
16.229400 3.544200
16.251400 3.503000
16.273400 3.458400
16.295400 3.411800
16.317400 3.449900
16.339400 3.283900
16.361400 3.126900
16.383400 2.961600
16.405400 2.749500
16.427400 2.622100
16.449300 2.494200
16.471300 2.352500
16.493300 2.308900
16.515300 2.301700
16.537300 2.349200
16.559300 2.444400
16.581300 2.618400
16.603300 2.772300
16.625300 2.936500
16.647300 2.997600
16.669300 3.112600
16.691300 3.390700
16.713200 3.540200
16.735200 3.502800
16.757200 3.527100
16.779200 3.475500
16.801200 3.407000
16.823200 3.280900
16.845200 3.160200
16.867200 3.060300
16.889200 2.977200
16.911200 2.951300
16.933200 3.019600
16.955100 3.024300
16.977100 2.781400
16.999100 2.639700
17.021100 2.523700
17.043100 2.505700
17.065100 2.534900
17.087100 2.590500
17.109100 2.608900
17.131100 2.602900
17.153100 2.633700
17.175100 2.726300
17.197100 2.833400
17.219000 2.948000
17.241000 3.054900
17.263000 3.153400
17.285000 3.257900
17.307000 3.440000
17.329000 3.706300
17.351000 3.509300
17.373000 3.353800
17.395000 3.202700
17.417000 3.040000
17.439000 2.976800
17.460900 2.930600
17.482900 2.872400
17.504900 2.878000
17.526900 2.875600
17.548900 2.833600
17.570900 2.831500
17.592900 2.833200
17.614900 2.865900
17.636900 2.868600
17.658900 2.758100
17.680900 2.657300
17.702900 2.575200
17.724800 2.547700
17.746800 2.523900
17.768800 2.491000
17.790800 2.436200
17.812800 2.377400
17.834800 2.340300
17.856800 2.317300
17.878800 2.302900
17.900800 2.289500
17.922800 2.289600
17.944800 2.388900
17.966800 2.463600
17.988700 2.584700
18.010700 2.734900
18.032700 2.840800
18.054700 2.950600
18.076700 3.057200
18.098700 3.151700
18.120700 3.245900
18.142700 3.172600
18.164700 3.201200
18.186700 3.222700
18.208700 3.289900
18.230600 3.344700
18.252600 3.262200
18.274600 3.194400
18.296600 3.062800
18.318600 2.960000
18.340600 2.924000
18.362600 2.916700
18.384600 3.015300
18.406600 3.037700
18.428600 3.082400
18.450600 3.126600
18.472600 3.167700
18.494500 3.227800
18.516500 3.468000
18.538500 3.492800
18.560500 3.577700
18.582500 3.487600
18.604500 3.460900
18.626500 3.438900
18.648500 3.439000
18.670500 3.422500
18.692500 3.443800
18.714500 3.490600
18.736400 3.515700
18.758400 3.543500
18.780400 3.585300
18.802400 3.587500
18.824400 3.585200
18.846400 3.594700
18.868400 3.524200
18.890400 3.572200
18.912400 3.646100
18.934400 3.736700
18.956400 3.757400
18.978400 3.713200
19.000300 3.579500
19.022300 3.450800
19.044300 3.389400
19.066300 3.353600
19.088300 3.327700
19.110300 3.281100
19.132300 3.185900
19.154300 3.095000
19.176300 2.997100
19.198300 2.988100
19.220300 3.054300
19.242200 3.160400
19.264200 3.277800
19.286200 3.414600
19.308200 3.431500
19.330200 3.344800
19.352200 3.228400
19.374200 3.185300
19.396200 3.186600
19.418200 3.189400
19.440200 3.172700
19.462200 3.058700
19.484200 2.880600
19.506100 2.733500
19.528100 2.675000
19.550100 2.820300
19.572100 2.973700
19.594100 3.019500
19.616100 2.971500
19.638100 2.939500
19.660100 2.917700
19.682100 2.913900
19.704100 2.963200
19.726100 3.087300
19.748100 3.072300
19.770000 3.143300
19.792000 3.278500
19.814000 3.455900
19.836000 3.734800
19.858000 3.646000
19.880000 3.626600
19.902000 3.590600
19.924000 3.558200
19.946000 3.514700
19.968000 3.447900
19.990000 3.374200
20.011900 3.306800
20.033900 3.242000
20.055900 3.324300
20.077900 3.009100
20.099900 2.836100
20.121900 2.747300
20.143900 2.706900
20.165900 2.689300
20.187900 2.732100
20.209900 2.831400
20.231900 3.024000
20.253900 3.033200
20.275800 3.110700
20.297800 3.248700
20.319800 3.403600
20.341800 3.670900
20.363800 3.838200
20.385800 3.781900
20.407800 3.798800
20.429800 3.786400
20.451800 3.772500
20.473800 3.744700
20.495800 3.737000
20.517700 3.747600
20.539700 3.708700
20.561700 3.629400
20.583700 3.523200
20.605700 3.367400
20.627700 3.220400
20.649700 3.050700
20.671700 2.892000
20.693700 2.780600
20.715700 2.803000
20.737700 2.878300
20.759700 3.021200
20.781600 3.363800
20.803600 3.372600
20.825600 3.400400
20.847600 3.522600
20.869600 3.750600
20.891600 3.973200
20.913600 3.873600
20.935600 3.737200
20.957600 3.639100
20.979600 3.501500
21.001600 3.170100
21.023500 2.932100
21.045500 2.812300
21.067500 2.726900
21.089500 2.696300
21.111500 2.603600
21.133500 2.509400
21.155500 2.492400
21.177500 2.516900
21.199500 2.567100
21.221500 2.693500
21.243500 2.843100
21.265500 2.968400
21.287400 3.075500
21.309400 3.124500
21.331400 3.134900
21.353400 3.140700
21.375400 3.131200
21.397400 3.124300
21.419400 3.111500
21.441400 3.132000
21.463400 3.719800
21.485400 3.256200
21.507400 3.373800
21.529400 3.429100
21.551300 3.547900
21.573300 3.529500
21.595300 3.520900
21.617300 3.388500
21.639300 3.243700
21.661300 3.176000
21.683300 3.110000
21.705300 3.019800
21.727300 2.960900
21.749300 2.914300
21.771300 2.902400
21.793200 2.883700
21.815200 2.865100
21.837200 2.760600
21.859200 2.727500
21.881200 2.708000
21.903200 2.707300
21.925200 2.713700
21.947200 2.711700
21.969200 2.697700
21.991200 2.667500
22.013200 2.671400
22.035200 2.696500
22.057100 2.741900
22.079100 2.869200
22.101100 3.022800
22.123100 3.139700
22.145100 3.298700
22.167100 3.726300
22.189100 3.929200
22.211100 4.052300
22.233100 4.192900
22.255100 4.668500
22.277100 5.140700
22.299000 4.618700
22.321000 4.294300
22.343000 4.085600
22.365000 3.858600
22.387000 3.704000
22.409000 3.564400
22.431000 3.450600
22.453000 3.339900
22.475000 3.295800
22.497000 3.271100
22.519000 3.187500
22.541000 3.209900
22.562900 3.278300
22.584900 3.363200
22.606900 3.470300
22.628900 3.561900
22.650900 3.693100
22.672900 3.788200
22.694900 3.821200
22.716900 3.878700
22.738900 3.904000
22.760900 3.942300
22.782900 3.958800
22.804800 3.910000
22.826800 3.894700
22.848800 3.862400
22.870800 3.779900
22.892800 3.628400
22.914800 3.476700
22.936800 3.273500
22.958800 3.200800
22.980800 3.156200
23.002800 3.122500
23.024800 3.083400
23.046800 3.014100
23.068700 2.960700
23.090700 2.910500
23.112700 2.848300
23.134700 2.802000
23.156700 2.813000
23.178700 2.851600
23.200700 2.872600
23.222700 2.890400
23.244700 2.928300
23.266700 2.965100
23.288700 2.959300
23.310700 2.962400
23.332600 3.065700
23.354600 3.113100
23.376600 3.255700
23.398600 3.457600
23.420600 3.487100
23.442600 3.563900
23.464600 3.711200
23.486600 3.855400
23.508600 3.893200
23.530600 3.894200
23.552600 3.849400
23.574500 3.789600
23.596500 3.747800
23.618500 3.631300
23.640500 3.501300
23.662500 3.405500
23.684500 3.166700
23.706500 2.914900
23.728500 2.837600
23.750500 2.868000
23.772500 2.949100
23.794500 3.057500
23.816500 3.110600
23.838400 3.285000
23.860400 3.277900
23.882400 3.309700
23.904400 3.373500
23.926400 3.442200
23.948400 3.365400
23.970400 3.365100
23.992400 3.802500
24.014400 4.025800
24.036400 4.298400
24.058400 4.204900
24.080300 3.829900
24.102300 3.534500
24.124300 3.264700
24.146300 2.949300
24.168300 2.800100
24.190300 2.707900
24.212300 2.629300
24.234300 2.575000
24.256300 2.554600
24.278300 2.598200
24.300300 2.806600
24.322300 3.192800
24.344200 3.448200
24.366200 3.690600
24.388200 4.132000
24.410200 4.602100
24.432200 4.937500
24.454200 4.830300
24.476200 4.627000
24.498200 4.500000
24.520200 4.342500
24.542200 4.175100
24.564200 4.050600
24.586100 3.884400
24.608100 3.757300
24.630100 3.677600
24.652100 3.454400
24.674100 3.242000
24.696100 3.137300
24.718100 3.182000
24.740100 3.322400
24.762100 3.454700
24.784100 3.654800
24.806100 3.717100
24.828100 3.759800
24.850000 3.812600
24.872000 3.839600
24.894000 3.752100
24.916000 3.605800
24.938000 3.445300
24.960000 3.308800
24.982000 3.246200
25.004000 3.136600
25.026000 3.051000
25.048000 3.175200
25.070000 3.422900
25.092000 3.780100
25.113900 4.132800
25.135900 4.454000
25.157900 4.815200
25.179900 4.473500
25.201900 4.031300
25.223900 3.792500
25.245900 3.622800
25.267900 3.565000
25.289900 3.544500
25.311900 3.554700
25.333900 3.580900
25.355800 3.693700
25.377800 3.518600
25.399800 3.448800
25.421800 3.358400
25.443800 3.309600
25.465800 3.321500
25.487800 3.506200
25.509800 3.460800
25.531800 3.504300
25.553800 3.632500
25.575800 3.735800
25.597800 3.853400
25.619700 3.822000
25.641700 3.720600
25.663700 3.603800
25.685700 3.514500
25.707700 3.301900
25.729700 3.259300
25.751700 3.257900
25.773700 2.956300
25.795700 2.865500
25.817700 2.924000
25.839700 2.731700
25.861600 2.784700
25.883600 2.932600
25.905600 3.046300
25.927600 3.123200
25.949600 3.153000
25.971600 3.198000
25.993600 3.168400
26.015600 3.151700
26.037600 3.172000
26.059600 3.184900
26.081600 3.215300
26.103600 3.281700
26.125500 3.261500
26.147500 3.160200
26.169500 3.137200
26.191500 3.153400
26.213500 3.167800
26.235500 3.190800
26.257500 3.228400
26.279500 3.281300
26.301500 3.350500
26.323500 3.443400
26.345500 3.564400
26.367500 3.768600
26.389400 4.236200
26.411400 4.305500
26.433400 4.186900
26.455400 4.018100
26.477400 3.861500
26.499400 3.466400
26.521400 3.196100
26.543400 2.867100
26.565400 2.836500
26.587400 2.837500
26.609400 2.931600
26.631300 3.077000
26.653300 3.160200
26.675300 3.265600
26.697300 3.215900
26.719300 3.291500
26.741300 3.426200
26.763300 3.372100
26.785300 3.385900
26.807300 3.419900
26.829300 3.444700
26.851300 3.516300
26.873300 3.596100
26.895200 3.656000
26.917200 3.686200
26.939200 3.714900
26.961200 3.941400
26.983200 3.849600
27.005200 3.763300
27.027200 3.642500
27.049200 3.625300
27.071200 3.613200
27.093200 3.608900
27.115200 3.610600
27.137100 3.605800
27.159100 3.554900
27.181100 3.549300
27.203100 3.519300
27.225100 3.468500
27.247100 3.422000
27.269100 3.441700
27.291100 3.533000
27.313100 3.651500
27.335100 3.785000
27.357100 3.913700
27.379100 4.150400
27.401000 4.257700
27.423000 4.383500
27.445000 4.459000
27.467000 4.505300
27.489000 4.562400
27.511000 4.648600
27.533000 4.467100
27.555000 4.337100
27.577000 4.149700
27.599000 3.989100
27.621000 3.813300
27.642900 3.636700
27.664900 5.140000
27.686900 3.407900
27.708900 3.239300
27.730900 3.046800
27.752900 2.905100
27.774900 2.781000
27.796900 2.750700
27.818900 2.705000
27.840900 2.688900
27.862900 2.766200
27.884900 2.756100
27.906800 2.761100
27.928800 2.826600
27.950800 2.984900
27.972800 3.227300
27.994800 3.514200
28.016800 3.797200
28.038800 3.992700
28.060800 4.126800
28.082800 4.233100
28.104800 4.313400
28.126800 4.308300
28.148800 4.234100
28.170700 4.083100
28.192700 3.932500
28.214700 3.831500
28.236700 3.780700
28.258700 3.694800
28.280700 3.570900
28.302700 3.437700
28.324700 3.335600
28.346700 3.235800
28.368700 3.165200
28.390700 3.133700
28.412600 3.137800
28.434600 3.196900
28.456600 3.386200
28.478600 3.660900
28.500600 3.836600
28.522600 4.044400
28.544600 4.273700
28.566600 4.506200
28.588600 4.660700
28.610600 4.693300
28.632600 4.684200
28.654600 4.599600
28.676500 4.339900
28.698500 4.113400
28.720500 3.871100
28.742500 3.695600
28.764500 3.489800
28.786500 3.270700
28.808500 3.071600
28.830500 3.265800
28.852500 3.023300
28.874500 3.057700
28.896500 3.107600
28.918400 3.153500
28.940400 3.303000
28.962400 3.423900
28.984400 3.581900
29.006400 3.642600
29.028400 3.789000
29.050400 3.964200
29.072400 4.069400
29.094400 4.121100
29.116400 4.140000
29.138400 4.108100
29.160400 4.058500
29.182300 4.013800
29.204300 3.936700
29.226300 3.799800
29.248300 3.748900
29.270300 3.542100
29.292300 3.433400
29.314300 3.346100
29.336300 3.266500
29.358300 3.245200
29.380300 3.208400
29.402300 3.168400
29.424200 3.136100
29.446200 3.125800
29.468200 3.162000
29.490200 3.193400
29.512200 3.275900
29.534200 3.414000
29.556200 3.489900
29.578200 3.508100
29.600200 3.496600
29.622200 3.546900
29.644200 3.579800
29.666200 3.583700
29.688100 3.553300
29.710100 3.488600
29.732100 3.436600
29.754100 3.323400
29.776100 3.165000
29.798100 3.151300
29.820100 3.156800
29.842100 3.202400
29.864100 3.256700
29.886100 3.255300
29.908100 3.248400
29.930100 3.246700
29.952000 3.306500
29.974000 3.411500
29.996000 3.454900
30.018000 3.467500
30.040000 3.550100
30.062000 3.707300
30.084000 3.841700
30.106000 3.980800
30.128000 4.357900
30.150000 4.366100
30.172000 4.341200
30.193900 4.267100
30.215900 4.214100
30.237900 4.203800
30.259900 4.305200
30.281900 4.335000
30.303900 4.183100
30.325900 4.075900
30.347900 3.994900
30.369900 3.935700
30.391900 3.909600
30.413900 3.901300
30.435900 3.896100
30.457800 3.937600
30.479800 4.020400
30.501800 4.087500
30.523800 4.086200
30.545800 3.918700
30.567800 3.858000
30.589800 3.844000
30.611800 3.831500
30.633800 3.838400
30.655800 3.848200
30.677800 3.894400
30.699700 3.857700
30.721700 3.718700
30.743700 3.657300
30.765700 3.609500
30.787700 3.581000
30.809700 3.509400
30.831700 3.377400
30.853700 3.309800
30.875700 3.213900
30.897700 3.150900
30.919700 3.144200
30.941700 3.113900
30.963600 3.101000
30.985600 3.098200
31.007600 3.109400
31.029600 3.129900
31.051600 3.219000
31.073600 3.276000
31.095600 3.313400
31.117600 3.326000
31.139600 3.265100
31.161600 3.193500
31.183600 3.194900
31.205500 3.242300
31.227500 3.207600
31.249500 3.249700
31.271500 3.314300
31.293500 3.448600
31.315500 3.577000
31.337500 3.699800
31.359500 3.827200
31.381500 3.966400
31.403500 4.047500
31.425500 4.017500
31.447500 3.924100
31.469400 3.830100
31.491400 3.719200
31.513400 3.620900
31.535400 3.406800
31.557400 3.215500
31.579400 3.119300
31.601400 3.101100
31.623400 3.061100
31.645400 3.007000
31.667400 2.952000
31.689400 2.900800
31.711400 2.855200
31.733300 2.816800
31.755300 2.785300
31.777300 2.781800
31.799300 2.761800
31.821300 2.712700
31.843300 2.739700
31.865300 2.829700
31.887300 2.713300
31.909300 2.380100
31.931300 2.239500
31.953300 2.135000
31.975200 2.100000
31.997200 2.063100
32.019200 1.985700
32.041200 1.827000
32.063200 1.703500
32.085200 1.603300
32.107200 1.564400
32.129200 1.538000
32.151200 1.497600
32.173200 1.425700
32.195200 1.338300
32.217200 1.285000
32.239100 1.256300
32.261100 1.256600
32.283100 1.200200
32.305100 1.108700
32.327100 1.029200
32.349100 0.954800
32.371100 0.883600
32.393100 0.815600
32.415100 0.750900
32.437100 0.691800
32.459100 0.643300
32.481000 0.604500
32.503000 0.569900
32.525000 0.537600
32.547000 0.497700
32.569000 0.471400
32.591000 0.446100
32.613000 0.426000
32.635000 0.427700
32.657000 0.443300
32.679000 0.432300
32.701000 0.362900
32.723000 0.339300
32.744900 0.320300
32.766900 0.306400
32.788900 0.308600
32.810900 0.313700
32.832900 0.321300
32.854900 0.340700
32.876900 0.362700
32.898900 0.370700
32.920900 0.357000
32.942900 0.308200
32.964900 0.254800
32.986800 0.233300
33.008800 0.212500
33.030800 0.192200
33.052800 0.172500
33.074800 0.153300
33.096800 0.140800
33.118800 0.139800
33.140800 0.128600
33.162800 0.094800
33.184800 0.056700
33.206800 0.030600
33.228800 0.016600
33.250700 0.010600
33.272700 0.006100
33.294700 0.002800
33.316700 0.000800
33.338700 0.000000
33.360700 0.000000
33.382700 0.000000
33.404700 0.000000
33.426700 0.000000
33.448700 0.000000
33.470700 0.000000
33.492700 0.000000
33.514600 0.000000
33.536600 0.000000
33.558600 0.000000
33.580600 0.000000
33.602600 0.000000
33.624600 0.000000
33.646600 0.000000
33.668600 0.000000
33.690600 0.000000
33.712600 0.000000
33.734600 0.000000
33.756500 0.000000
33.778500 0.000000
33.800500 0.000000
33.822500 0.000000
33.844500 0.000000
33.866500 0.000000
33.888500 0.000000
33.910500 0.000000
33.932500 0.000000
33.954500 0.000000
33.976500 0.000000
33.998500 0.000000
34.020400 0.000000
34.042400 0.000000
34.064400 0.000000
34.086400 0.000000
34.108400 0.000000
34.130400 0.000000
34.152400 0.000000
34.174400 0.000000
34.196400 0.000000
34.218400 0.000000
34.240400 0.000000
34.262300 0.000000
34.284300 0.000000
34.306300 0.000000
34.328300 0.000000
34.350300 0.000000
34.372300 0.000000
34.394300 0.000000
34.416300 0.000000
34.438300 0.000000
34.460300 0.000000
34.482300 0.000000
34.504300 0.000000
34.526200 0.000000
34.548200 0.000000
34.570200 0.000000
34.592200 0.000000
34.614200 0.000000
34.636200 0.000000
34.658200 0.000000
34.680200 0.000000
34.702200 0.000000
34.724200 0.000000
34.746200 0.000000
34.768100 0.000000
34.790100 0.000000
34.812100 0.000000
34.834100 0.000000
34.856100 0.000000
34.878100 0.000000
34.900100 0.000000
34.922100 0.000000
34.944100 0.000000
34.966100 0.000000
34.988100 0.000000
35.010100 0.000000
35.032000 0.000000
35.054000 0.000000
35.076000 0.000000
35.098000 0.000000
35.120000 0.000000
35.142000 0.000000
35.164000 0.000000
35.186000 0.000000
35.208000 0.000000
35.230000 0.000000
35.252000 0.000000
35.274000 0.000000
35.295900 0.000000
35.317900 0.000000
35.339900 0.000000
e
