set title 'mp-10190 - Density of States'
set xlabel 'Energy (eV)'
set ylabel 'DOS (states/eV)'
set grid
set xrange [-10:10]
set yrange [0:2.322]
set xzeroaxis lt -1
set terminal png size 800,600
set output 'mp-10190_dos_gnuplot.png'
plot '-' using 1:2 with lines title 'DOS'
-33.085900 0.000000
-32.989100 0.000000
-32.892400 0.000000
-32.795700 0.000000
-32.698900 0.000000
-32.602200 0.000000
-32.505400 0.000000
-32.408700 0.000000
-32.312000 0.000000
-32.215200 0.000000
-32.118500 0.000000
-32.021800 0.000000
-31.925000 0.000000
-31.828300 0.000000
-31.731600 0.000000
-31.634800 0.000000
-31.538100 0.000000
-31.441400 0.000000
-31.344600 0.000000
-31.247900 0.000000
-31.151200 0.000000
-31.054400 0.000000
-30.957700 0.000000
-30.861000 0.000000
-30.764200 0.000000
-30.667500 0.000000
-30.570800 0.000000
-30.474000 0.000000
-30.377300 0.000000
-30.280600 0.000000
-30.183800 0.000000
-30.087100 0.000000
-29.990400 0.000000
-29.893600 0.000000
-29.796900 0.000000
-29.700200 0.000000
-29.603400 0.000000
-29.506700 0.000000
-29.409900 0.000000
-29.313200 0.000000
-29.216500 0.000000
-29.119700 0.000000
-29.023000 0.000000
-28.926300 0.000000
-28.829500 0.000000
-28.732800 0.000000
-28.636100 0.000000
-28.539300 0.000000
-28.442600 0.000000
-28.345900 0.000000
-28.249100 0.000000
-28.152400 0.000000
-28.055700 0.000000
-27.958900 0.000000
-27.862200 0.000000
-27.765500 0.000000
-27.668700 0.000000
-27.572000 0.000000
-27.475300 0.000000
-27.378500 0.000000
-27.281800 0.000000
-27.185100 0.000000
-27.088300 0.000000
-26.991600 0.000000
-26.894900 0.000000
-26.798100 0.000000
-26.701400 0.000000
-26.604700 0.000000
-26.507900 0.000000
-26.411200 0.000000
-26.314400 0.000000
-26.217700 0.000000
-26.121000 0.000000
-26.024200 0.000000
-25.927500 0.000000
-25.830800 0.000000
-25.734000 0.000000
-25.637300 0.000000
-25.540600 0.000000
-25.443800 0.000000
-25.347100 0.000000
-25.250400 0.000000
-25.153600 0.000000
-25.056900 0.000000
-24.960200 0.000000
-24.863400 0.000000
-24.766700 0.000000
-24.670000 0.000000
-24.573200 0.000000
-24.476500 0.000000
-24.379800 0.000000
-24.283000 1.416000
-24.186300 7.134700
-24.089600 4.737500
-23.992800 8.618300
-23.896100 9.591900
-23.799400 0.000000
-23.702600 0.000000
-23.605900 0.000000
-23.509200 0.000000
-23.412400 0.000000
-23.315700 0.000000
-23.218900 0.000000
-23.122200 0.000000
-23.025500 0.000000
-22.928700 0.000000
-22.832000 0.000000
-22.735300 0.000000
-22.638500 0.000000
-22.541800 0.000000
-22.445100 0.000000
-22.348300 0.000000
-22.251600 0.000000
-22.154900 0.000000
-22.058100 0.000000
-21.961400 0.000000
-21.864700 0.000000
-21.767900 0.000000
-21.671200 0.000000
-21.574500 0.000000
-21.477700 0.000000
-21.381000 0.000000
-21.284300 0.000000
-21.187500 0.000000
-21.090800 0.000000
-20.994100 0.000000
-20.897300 0.000000
-20.800600 0.000000
-20.703900 0.000000
-20.607100 0.000000
-20.510400 0.000000
-20.413700 0.000000
-20.316900 0.000000
-20.220200 0.000000
-20.123400 0.000000
-20.026700 0.000000
-19.930000 0.000000
-19.833200 0.000000
-19.736500 0.000000
-19.639800 0.000000
-19.543000 0.000000
-19.446300 0.000000
-19.349600 0.000000
-19.252800 0.000000
-19.156100 0.000000
-19.059400 0.000000
-18.962600 0.000000
-18.865900 0.000000
-18.769200 0.000000
-18.672400 0.000000
-18.575700 0.000000
-18.479000 0.000000
-18.382200 0.000000
-18.285500 0.000000
-18.188800 0.000000
-18.092000 0.000000
-17.995300 0.000000
-17.898600 0.000000
-17.801800 0.000000
-17.705100 0.000000
-17.608400 0.000000
-17.511600 0.000000
-17.414900 0.000000
-17.318200 0.000000
-17.221400 0.000000
-17.124700 0.000000
-17.027900 0.000000
-16.931200 0.000000
-16.834500 0.000000
-16.737700 0.000000
-16.641000 0.000000
-16.544300 0.000000
-16.447500 0.000000
-16.350800 0.000000
-16.254100 0.000000
-16.157300 0.000000
-16.060600 0.000000
-15.963900 0.000000
-15.867100 0.000000
-15.770400 0.000000
-15.673700 0.000000
-15.576900 0.000000
-15.480200 0.000000
-15.383500 0.000000
-15.286700 0.000000
-15.190000 0.000000
-15.093300 0.000000
-14.996500 0.000000
-14.899800 0.000000
-14.803100 0.000000
-14.706300 0.000000
-14.609600 0.000000
-14.512900 0.000000
-14.416100 0.000000
-14.319400 0.000000
-14.222700 0.000000
-14.125900 0.000000
-14.029200 0.000000
-13.932500 0.000000
-13.835700 0.000000
-13.739000 0.000000
-13.642200 0.000000
-13.545500 0.000000
-13.448800 0.000000
-13.352000 0.000000
-13.255300 0.000000
-13.158600 0.000000
-13.061800 0.000000
-12.965100 0.000000
-12.868400 0.000000
-12.771600 0.000000
-12.674900 0.000000
-12.578200 0.000000
-12.481400 0.000000
-12.384700 0.000000
-12.288000 0.000000
-12.191200 0.000000
-12.094500 0.000000
-11.997800 0.000000
-11.901000 0.000000
-11.804300 0.000000
-11.707600 0.000000
-11.610800 0.000000
-11.514100 0.000000
-11.417400 0.000000
-11.320600 0.000000
-11.223900 0.000000
-11.127200 0.000000
-11.030400 0.000000
-10.933700 0.000000
-10.837000 0.000000
-10.740200 0.000000
-10.643500 0.000000
-10.546700 0.000000
-10.450000 0.000000
-10.353300 0.000000
-10.256500 0.000000
-10.159800 0.000000
-10.063100 0.000000
-9.966300 0.000000
-9.869600 0.000000
-9.772900 0.000000
-9.676100 0.000000
-9.579400 0.000000
-9.482700 0.000000
-9.385900 0.000000
-9.289200 0.000000
-9.192500 0.000000
-9.095700 0.000000
-8.999000 0.000000
-8.902300 0.000000
-8.805500 0.000000
-8.708800 0.000000
-8.612100 0.000000
-8.515300 0.000000
-8.418600 0.000000
-8.321900 0.000000
-8.225100 0.000000
-8.128400 0.000000
-8.031700 0.000000
-7.934900 0.000000
-7.838200 0.000000
-7.741500 0.000000
-7.644700 0.000000
-7.548000 0.000000
-7.451200 0.000000
-7.354500 0.000000
-7.257800 0.000000
-7.161000 0.000000
-7.064300 0.000000
-6.967600 0.000000
-6.870800 0.000000
-6.774100 0.000000
-6.677400 0.000000
-6.580600 0.000000
-6.483900 0.000000
-6.387200 0.000000
-6.290400 0.000000
-6.193700 0.000000
-6.097000 0.000000
-6.000200 0.000000
-5.903500 0.000000
-5.806800 0.000000
-5.710000 0.000000
-5.613300 0.000000
-5.516600 0.000000
-5.419800 0.000000
-5.323100 0.000000
-5.226400 0.000000
-5.129600 0.000000
-5.032900 0.000000
-4.936200 0.000000
-4.839400 0.000000
-4.742700 0.000000
-4.646000 0.000000
-4.549200 0.000000
-4.452500 0.000000
-4.355700 0.000000
-4.259000 0.000000
-4.162300 0.000000
-4.065500 0.000000
-3.968800 0.000000
-3.872100 0.000000
-3.775300 0.000000
-3.678600 0.000000
-3.581900 0.000000
-3.485100 0.000000
-3.388400 0.000000
-3.291700 0.000000
-3.194900 0.000000
-3.098200 0.017100
-3.001500 0.028000
-2.904700 0.031000
-2.808000 0.037800
-2.711300 0.043700
-2.614500 0.047500
-2.517800 0.051000
-2.421100 0.056700
-2.324300 0.062600
-2.227600 0.065000
-2.130900 0.069100
-2.034100 0.073300
-1.937400 0.077900
-1.840700 0.083300
-1.743900 0.087200
-1.647200 0.091300
-1.550500 0.095300
-1.453700 0.100600
-1.357000 0.105900
-1.260200 0.111000
-1.163500 0.116300
-1.066800 0.121600
-0.970000 0.127400
-0.873300 0.132900
-0.776600 0.139900
-0.679800 0.147100
-0.583100 0.154600
-0.486400 0.162500
-0.389600 0.171400
-0.292900 0.181400
-0.196200 0.191600
-0.099400 0.205300
-0.002700 0.219800
0.094000 0.237500
0.190800 0.259700
0.287500 0.294300
0.384200 0.363300
0.481000 0.365500
0.577700 0.360400
0.674400 0.353800
0.771200 0.350600
0.867900 0.340400
0.964600 0.337200
1.061400 0.336500
1.158100 0.335600
1.254800 0.327900
1.351600 0.326200
1.448300 0.405300
1.545000 0.554600
1.641800 0.568200
1.738500 0.447800
1.835300 0.345000
1.932000 0.295400
2.028700 0.261900
2.125500 0.214500
2.222200 0.234500
2.318900 0.258400
2.415700 0.297600
2.512400 0.349800
2.609100 0.488400
2.705900 1.164800
2.802600 1.205700
2.899300 1.188600
2.996100 1.222000
3.092800 1.237500
3.189500 1.292900
3.286300 1.128300
3.383000 0.956300
3.479700 0.860100
3.576500 0.788900
3.673200 0.728000
3.769900 0.680500
3.866700 0.630800
3.963400 0.594800
4.060100 0.549300
4.156900 0.514000
4.253600 0.489000
4.350300 0.465400
4.447100 0.427700
4.543800 0.391600
4.640500 0.373700
4.737300 0.281700
4.834000 0.201700
4.930800 0.136800
5.027500 0.115000
5.124200 0.171200
5.221000 0.225800
5.317700 0.317800
5.414400 0.370500
5.511200 0.428700
5.607900 0.420100
5.704600 0.412200
5.801400 0.430000
5.898100 0.452500
5.994800 0.482800
6.091600 0.503700
6.188300 0.516100
6.285000 0.535500
6.381800 0.564700
6.478500 0.610200
6.575200 0.671800
6.672000 0.744100
6.768700 0.777900
6.865400 0.768600
6.962200 0.778500
7.058900 0.675200
7.155600 0.793900
7.252400 0.864400
7.349100 0.996500
7.445800 1.231100
7.542600 1.399500
7.639300 1.628000
7.736000 2.013000
7.832800 2.110800
7.929500 1.630200
8.026200 0.691600
8.123000 0.459300
8.219700 0.405200
8.316500 0.314000
8.413200 0.250700
8.509900 0.253000
8.606700 0.260300
8.703400 0.270300
8.800100 0.283000
8.896900 0.299000
8.993600 0.318600
9.090300 0.342100
9.187100 0.418700
9.283800 0.460000
9.380500 0.485700
9.477300 0.480500
9.574000 0.470700
9.670700 0.466000
9.767500 0.486900
9.864200 0.472800
9.960900 0.390300
10.057700 0.202400
10.154400 0.098400
10.251100 0.040600
10.347900 0.094900
10.444600 0.285100
10.541300 0.584400
10.638100 0.570500
10.734800 0.544100
10.831500 0.523500
10.928300 0.507700
11.025000 0.497600
11.121700 0.484100
11.218500 0.451500
11.315200 0.355200
11.412000 0.333800
11.508700 0.317400
11.605400 0.304600
11.702200 0.267400
11.798900 0.272300
11.895600 0.283100
11.992400 0.289300
12.089100 0.307000
12.185800 0.315700
12.282600 0.352200
12.379300 0.400300
12.476000 0.425900
12.572800 0.457300
12.669500 0.522800
12.766200 0.617900
12.863000 0.641000
12.959700 0.584300
13.056400 0.573500
13.153200 0.558500
13.249900 0.562400
13.346600 0.531800
13.443400 0.493600
13.540100 0.463200
13.636800 0.447600
13.733600 0.432200
13.830300 0.421900
13.927000 0.421500
14.023800 0.436800
14.120500 0.471300
14.217200 0.545200
14.314000 0.614900
14.410700 0.612400
14.507500 0.603900
14.604200 0.612800
14.700900 0.641600
14.797700 0.656900
14.894400 0.546300
14.991100 0.530600
15.087900 0.527200
15.184600 0.546800
15.281300 0.589000
15.378100 0.650100
15.474800 0.671400
15.571500 0.553600
15.668300 0.467500
15.765000 0.432200
15.861700 0.411800
15.958500 0.378900
16.055200 0.325600
16.151900 0.297300
16.248700 0.276000
16.345400 0.260600
16.442100 0.249600
16.538900 0.244300
16.635600 0.246900
16.732300 0.236900
16.829100 0.236300
16.925800 0.235400
17.022500 0.233300
17.119300 0.229000
17.216000 0.237900
17.312700 0.258500
17.409500 0.229500
17.506200 0.258100
17.603000 0.268700
17.699700 0.292700
17.796400 0.339200
17.893200 0.383300
17.989900 0.427500
18.086600 0.499400
18.183400 0.743900
18.280100 1.048100
18.376800 0.659700
18.473600 0.545100
18.570300 0.478100
18.667000 0.503600
18.763800 0.512200
18.860500 0.548700
18.957200 0.591100
19.054000 0.591600
19.150700 0.659000
19.247400 0.583600
19.344200 0.545700
19.440900 0.543600
19.537600 0.516500
19.634400 0.480300
19.731100 0.373600
19.827800 0.350300
19.924600 0.369100
20.021300 0.405600
20.118000 0.450000
20.214800 0.507600
20.311500 0.581100
20.408200 0.645300
20.505000 0.753900
20.601700 0.824800
20.698500 0.716700
20.795200 0.640900
20.891900 0.590300
20.988700 0.549800
21.085400 0.514600
21.182100 0.479800
21.278900 0.454300
21.375600 0.440400
21.472300 0.426900
21.569100 0.398000
21.665800 0.387200
21.762500 0.425600
21.859300 0.404900
21.956000 0.386300
22.052700 0.399400
22.149500 0.604300
22.246200 0.696400
22.342900 0.672100
22.439700 0.654100
22.536400 0.637700
22.633100 0.598100
22.729900 0.571400
22.826600 0.564200
22.923300 0.578600
23.020100 0.616200
23.116800 0.562800
23.213500 0.535800
23.310300 0.567000
23.407000 0.621800
23.503700 0.659500
23.600500 0.677900
23.697200 0.684800
23.794000 0.702400
23.890700 0.644600
23.987400 0.689300
24.084200 0.562900
24.180900 0.487700
24.277600 0.429800
24.374400 0.401400
24.471100 0.370900
24.567800 0.347800
24.664600 0.339400
24.761300 0.328200
24.858000 0.329400
24.954800 0.328200
25.051500 0.353900
25.148200 0.390900
25.245000 0.442600
25.341700 0.467400
25.438400 0.510900
25.535200 0.607000
25.631900 0.678600
25.728600 0.686700
25.825400 0.686300
25.922100 0.682000
26.018800 0.688900
26.115600 0.693400
26.212300 0.673000
26.309000 0.637000
26.405800 0.633000
26.502500 0.630200
26.599200 0.633100
26.696000 0.634800
26.792700 0.555700
26.889500 0.539500
26.986200 0.532700
27.082900 0.516200
27.179700 0.496000
27.276400 0.503600
27.373100 0.519200
27.469900 0.564700
27.566600 0.567300
27.663300 0.611500
27.760100 0.639100
27.856800 0.674000
27.953500 0.638700
28.050300 0.590400
28.147000 0.549100
28.243700 0.485200
28.340500 0.470600
28.437200 0.487300
28.533900 0.464300
28.630700 0.491300
28.727400 0.532900
28.824100 0.628500
28.920900 0.746000
29.017600 0.810000
29.114300 0.831300
29.211100 0.846400
29.307800 0.833400
29.404500 0.738500
29.501300 0.671000
29.598000 0.518500
29.694700 0.518700
29.791500 0.522000
29.888200 0.544100
29.984900 0.590400
30.081700 0.646500
30.178400 0.708400
30.275200 0.783500
30.371900 0.784300
30.468600 0.753800
30.565400 0.729200
30.662100 0.711700
30.758800 0.699000
30.855600 0.692200
30.952300 0.684800
31.049000 0.672100
31.145800 0.634300
31.242500 0.635700
31.339200 0.693200
31.436000 0.668800
31.532700 0.740100
31.629400 0.820100
31.726200 0.812000
31.822900 0.768200
31.919600 0.760200
32.016400 0.778700
32.113100 0.662100
32.209800 0.494200
32.306600 0.426600
32.403300 0.378700
32.500000 0.357600
32.596800 0.327600
32.693500 0.316500
32.790200 0.354800
32.887000 0.359800
32.983700 0.446200
33.080400 0.492400
33.177200 0.548500
33.273900 0.623800
33.370700 0.709500
33.467400 0.786600
33.564100 0.726300
33.660900 0.691900
33.757600 0.583900
33.854300 0.536800
33.951100 0.478700
34.047800 0.441800
34.144500 0.432600
34.241300 0.432600
34.338000 0.596800
34.434700 0.697500
34.531500 0.671500
34.628200 0.632700
34.724900 0.646300
34.821700 0.682700
34.918400 0.722200
35.015100 0.664100
35.111900 0.658900
35.208600 0.746400
35.305300 0.758300
35.402100 0.756500
35.498800 0.741200
35.595500 0.701300
35.692300 0.634400
35.789000 0.590700
35.885700 0.573600
35.982500 0.576800
36.079200 0.586100
36.175900 0.620100
36.272700 0.683900
36.369400 0.719700
36.466200 0.744300
36.562900 0.803100
36.659600 0.789700
36.756400 0.708200
36.853100 0.624000
36.949800 0.633300
37.046600 0.526600
37.143300 0.474700
37.240000 0.466200
37.336800 0.487600
37.433500 0.528400
37.530200 0.604000
37.627000 0.663200
37.723700 0.738200
37.820400 0.754600
37.917200 0.748700
38.013900 0.658300
38.110600 0.620500
38.207400 0.621300
38.304100 0.628900
38.400800 0.687200
38.497600 0.682600
38.594300 0.734400
38.691000 0.800700
38.787800 0.850500
38.884500 0.882000
38.981200 0.824700
39.078000 0.752500
39.174700 0.722200
39.271400 0.687000
39.368200 0.635400
39.464900 0.615100
39.561700 0.612800
39.658400 0.625100
39.755100 0.605000
39.851900 0.583800
39.948600 0.588200
40.045300 0.602500
40.142100 0.673000
40.238800 0.723700
40.335500 0.758600
40.432300 0.794100
40.529000 0.807200
40.625700 0.839000
40.722500 0.890600
40.819200 0.781300
40.915900 0.743700
41.012700 0.740100
41.109400 0.767200
41.206100 0.776700
41.302900 0.809400
41.399600 0.843100
41.496300 0.762700
41.593100 0.686900
41.689800 0.663100
41.786500 0.658700
41.883300 0.651500
41.980000 0.661400
42.076700 0.720600
42.173500 0.759800
42.270200 0.783700
42.366900 0.831200
42.463700 0.786300
42.560400 0.747100
42.657200 0.742700
42.753900 0.715800
42.850600 0.688300
42.947400 0.707600
43.044100 0.818000
43.140800 0.766900
43.237600 0.744100
43.334300 0.692700
43.431000 0.638900
43.527800 0.580400
43.624500 0.627400
43.721200 0.718800
43.818000 0.797500
43.914700 0.765900
44.011400 0.761600
44.108200 0.744000
44.204900 0.777300
44.301600 0.844900
44.398400 0.850500
44.495100 0.820300
44.591800 0.766500
44.688600 0.665000
44.785300 0.668300
44.882000 0.734800
44.978800 0.808300
45.075500 0.886700
45.172200 1.025100
45.269000 1.061700
45.365700 0.957800
45.462400 0.912700
45.559200 1.012500
45.655900 1.027800
45.752700 0.932400
45.849400 0.886900
45.946100 0.888700
46.042900 0.858000
46.139600 0.908500
46.236300 1.089000
46.333100 1.131600
46.429800 1.160800
46.526500 1.053200
46.623300 1.040800
46.720000 0.998200
46.816700 1.033300
46.913500 0.931100
47.010200 0.842800
47.106900 0.743400
47.203700 0.718300
47.300400 0.719200
47.397100 0.856500
47.493900 1.144600
47.590600 1.159600
47.687300 1.011600
47.784100 0.884600
47.880800 0.830500
47.977500 0.901200
48.074300 0.796900
48.171000 0.771800
48.267700 0.762000
48.364500 0.784300
48.461200 0.823600
48.557900 0.875400
48.654700 0.970700
48.751400 1.004900
48.848200 1.002900
48.944900 0.963300
49.041600 0.870200
49.138400 0.823700
49.235100 0.776400
49.331800 0.749500
49.428600 0.742500
49.525300 0.732000
49.622000 0.770200
49.718800 0.764900
49.815500 0.739300
49.912200 0.747800
50.009000 0.785200
50.105700 0.832500
50.202400 0.881400
50.299200 0.838700
50.395900 0.830400
50.492600 0.802800
50.589400 0.754500
50.686100 0.735400
50.782800 0.757000
50.879600 0.804000
50.976300 0.765700
51.073000 0.745000
51.169800 0.710900
51.266500 0.684300
51.363200 0.645700
51.460000 0.648000
51.556700 0.661900
51.653400 0.715900
51.750200 0.779400
51.846900 0.808400
51.943700 0.796800
52.040400 0.786100
52.137100 0.793200
52.233900 0.807700
52.330600 0.831800
52.427300 0.816900
52.524100 0.846800
52.620800 0.836600
52.717500 0.829100
52.814300 0.837000
52.911000 0.886500
53.007700 0.832600
53.104500 0.813500
53.201200 0.768600
53.297900 0.833900
53.394700 0.890500
53.491400 0.819500
53.588100 0.763800
53.684900 0.707900
53.781600 0.698600
53.878300 0.719500
53.975100 0.778600
54.071800 0.781200
54.168500 0.809600
54.265300 0.837700
54.362000 0.838900
54.458700 0.816100
54.555500 0.826700
54.652200 0.844900
54.748900 0.815900
54.845700 0.726800
54.942400 0.712900
55.039100 0.702300
55.135900 0.763600
55.232600 0.835800
55.329400 0.888700
55.426100 0.904900
55.522800 0.847400
55.619600 0.767800
55.716300 0.708300
55.813000 0.788900
55.909800 0.922800
56.006500 1.012300
56.103200 1.080100
56.200000 1.143600
56.296700 1.130100
56.393400 1.002600
56.490200 0.796700
56.586900 0.688400
56.683600 0.581300
56.780400 0.629300
56.877100 0.760600
56.973800 0.920900
57.070600 0.992500
57.167300 0.985100
57.264000 0.952400
57.360800 0.884700
57.457500 0.825500
57.554200 0.747200
57.651000 0.721100
57.747700 0.751100
57.844400 0.755700
57.941200 0.799200
58.037900 0.859200
58.134600 0.927500
58.231400 1.000800
58.328100 1.025900
58.424900 0.947400
58.521600 0.854300
58.618300 0.811300
58.715100 0.824800
58.811800 0.858100
58.908500 0.887000
59.005300 0.816000
59.102000 0.806500
59.198700 0.810400
59.295500 0.805500
59.392200 0.790700
59.488900 0.793200
59.585700 0.793800
59.682400 0.791500
59.779100 0.786300
59.875900 0.813800
59.972600 0.837500
60.069300 0.830200
60.166100 0.840500
60.262800 0.833600
60.359500 0.861300
60.456300 0.849300
60.553000 0.827600
60.649700 0.746500
60.746500 0.754000
60.843200 0.774600
60.939900 0.799400
61.036700 0.832300
61.133400 0.851600
61.230100 0.820500
61.326900 0.821300
61.423600 0.811300
61.520400 0.821900
61.617100 0.925200
61.713800 0.981100
61.810600 0.960400
61.907300 0.937900
62.004000 0.884100
62.100800 0.840400
62.197500 0.812500
62.294200 0.827700
62.391000 0.849000
62.487700 0.888300
62.584400 0.964100
62.681200 0.949900
62.777900 0.913800
62.874600 0.853800
62.971400 0.787500
63.068100 0.799000
63.164800 0.748300
63.261600 0.733300
63.358300 0.747800
63.455000 0.872700
63.551800 0.895300
63.648500 0.870800
63.745200 0.895200
63.842000 0.865600
63.938700 0.855800
64.035400 0.905100
64.132200 0.922400
64.228900 0.884600
64.325600 0.815700
64.422400 0.759800
64.519100 0.720700
64.615900 0.703200
64.712600 0.713100
64.809300 0.778700
64.906100 0.836200
65.002800 0.884900
65.099500 0.936700
65.196300 1.032200
65.293000 1.022500
65.389700 0.973700
65.486500 0.904300
65.583200 0.923300
65.679900 0.936400
65.776700 0.966000
65.873400 0.890400
65.970100 0.950600
66.066900 0.923300
66.163600 0.924200
66.260300 0.937500
66.357100 0.890200
66.453800 0.872500
66.550500 0.822000
66.647300 0.784400
66.744000 0.782400
66.840700 0.762200
66.937500 0.785400
67.034200 0.819800
67.130900 0.837200
67.227700 0.847700
67.324400 0.865900
67.421100 0.916300
67.517900 1.010100
67.614600 1.045700
67.711400 1.151900
67.808100 1.096500
67.904800 0.953100
68.001600 0.895000
68.098300 0.923600
68.195000 0.881200
68.291800 0.909500
68.388500 0.944700
68.485200 0.960500
68.582000 0.937400
68.678700 0.892400
68.775400 0.865400
68.872200 0.845300
68.968900 0.907400
69.065600 1.014300
69.162400 1.111900
69.259100 1.155100
69.355800 1.151500
69.452600 1.117700
69.549300 1.006800
69.646000 0.986600
69.742800 0.993100
69.839500 1.033800
69.936200 1.086300
70.033000 1.131000
70.129700 1.153400
70.226400 1.127700
70.323200 1.053700
70.419900 0.996900
70.516600 1.012400
70.613400 1.040500
70.710100 0.983600
70.806900 0.994300
70.903600 1.020500
71.000300 1.109400
71.097100 1.148900
71.193800 1.181800
71.290500 1.136700
71.387300 1.056300
71.484000 0.935800
71.580700 0.887800
71.677500 0.869000
71.774200 0.856500
71.870900 0.852500
71.967700 0.884100
72.064400 0.933700
72.161100 0.961500
72.257900 1.006600
72.354600 1.032200
72.451300 1.153100
72.548100 1.058800
72.644800 1.025700
72.741500 1.026500
72.838300 0.949800
72.935000 0.908900
73.031700 0.963100
73.128500 1.006200
73.225200 0.958100
73.321900 0.949200
73.418700 0.940200
73.515400 0.894300
73.612100 0.886100
73.708900 0.892200
73.805600 0.918300
73.902400 0.937000
73.999100 0.946500
74.095800 0.884000
74.192600 0.858200
74.289300 0.829000
74.386000 0.777300
74.482800 0.745000
74.579500 0.734800
74.676200 0.789400
74.773000 0.857400
74.869700 0.948500
74.966400 1.011500
75.063200 1.128400
75.159900 1.084300
75.256600 1.041800
75.353400 1.071800
75.450100 1.104000
75.546800 1.090100
75.643600 1.031800
75.740300 1.054500
75.837000 1.110100
75.933800 1.173900
76.030500 1.159500
76.127200 1.160800
76.224000 1.132000
76.320700 1.097100
76.417400 1.104100
76.514200 1.066000
76.610900 1.003100
76.707600 0.953600
76.804400 0.868300
76.901100 0.836000
76.997800 0.804200
77.094600 0.876900
77.191300 0.966000
77.288100 0.967700
77.384800 0.930000
77.481500 0.903200
77.578300 0.883000
77.675000 0.899300
77.771700 0.923400
77.868500 0.972700
77.965200 0.983600
78.061900 1.003600
78.158700 1.046100
78.255400 1.104500
78.352100 1.128500
78.448900 1.125900
78.545600 1.223100
78.642300 1.475100
78.739100 1.212800
78.835800 1.159900
78.932500 1.131600
79.029300 1.086000
79.126000 1.039400
79.222700 1.051600
79.319500 1.065200
79.416200 1.054300
79.512900 0.981500
79.609700 0.945600
79.706400 0.994000
79.803100 1.060900
79.899900 1.094200
79.996600 1.141900
80.093300 1.195300
80.190100 1.201800
80.286800 1.141400
80.383600 1.093500
80.480300 1.021100
80.577000 0.968100
80.673800 0.945300
80.770500 0.928800
80.867200 0.918000
80.964000 0.977100
81.060700 1.022900
81.157400 1.088900
81.254200 1.092200
81.350900 1.038500
81.447600 1.115300
81.544400 1.085900
81.641100 1.092700
81.737800 1.072000
81.834600 1.064900
81.931300 0.933100
82.028000 0.932100
82.124800 0.921700
82.221500 0.919300
82.318200 0.903600
82.415000 0.887800
82.511700 0.936500
82.608400 0.893600
82.705200 0.877800
82.801900 0.873000
82.898600 0.874900
82.995400 0.890100
83.092100 0.946100
83.188800 1.001400
83.285600 1.024300
83.382300 1.028000
83.479100 1.051100
83.575800 1.111200
83.672500 1.136300
83.769300 1.085600
83.866000 1.126500
83.962700 1.144900
84.059500 1.134700
84.156200 1.183600
84.252900 1.181400
84.349700 1.189500
84.446400 1.184200
84.543100 1.219900
84.639900 1.124400
84.736600 1.100200
84.833300 1.047100
84.930100 1.025500
85.026800 1.014100
85.123500 1.018700
85.220300 1.021200
85.317000 1.027500
85.413700 1.008200
85.510500 1.005200
85.607200 0.976900
85.703900 0.956700
85.800700 0.944800
85.897400 0.914100
85.994100 0.918500
86.090900 0.905200
86.187600 0.933500
86.284300 1.010400
86.381100 1.053800
86.477800 1.071500
86.574600 1.078000
86.671300 0.967900
86.768000 0.897600
86.864800 0.850500
86.961500 0.861500
87.058200 0.898900
87.155000 0.949100
87.251700 0.918600
87.348400 0.879300
87.445200 0.848000
87.541900 0.854200
87.638600 0.821400
87.735400 0.836600
87.832100 0.839400
87.928800 0.915200
88.025600 0.945600
88.122300 1.005300
88.219000 0.995000
88.315800 0.999600
88.412500 0.973700
88.509200 1.013400
88.606000 1.076400
88.702700 1.147800
88.799400 1.039900
88.896200 0.991900
88.992900 1.018200
89.089600 0.993200
89.186400 1.033100
89.283100 1.036000
89.379800 1.025700
89.476600 1.002900
89.573300 0.963600
89.670100 0.976400
89.766800 1.019200
89.863500 1.065800
89.960300 1.065400
90.057000 1.095000
90.153700 0.988700
90.250500 1.005400
90.347200 0.994300
90.443900 0.991900
90.540700 0.999800
90.637400 1.042900
90.734100 1.075000
90.830900 1.045400
90.927600 1.076700
91.024300 1.101600
91.121100 1.033800
91.217800 1.005600
91.314500 1.018000
91.411300 1.118000
91.508000 1.236400
91.604700 1.150100
91.701500 1.139700
91.798200 1.065000
91.894900 1.024500
91.991700 0.995300
92.088400 0.988900
92.185100 1.042100
92.281900 0.998700
92.378600 0.933600
92.475300 0.904800
92.572100 0.928300
92.668800 0.983100
92.765600 1.041600
92.862300 1.047300
92.959000 1.012000
93.055800 0.991400
93.152500 1.013900
93.249200 1.027700
93.346000 1.013400
93.442700 1.013200
93.539400 1.034700
93.636200 1.015100
93.732900 1.019300
93.829600 1.004500
93.926400 0.989000
94.023100 0.970200
94.119800 0.963700
94.216600 0.973400
94.313300 0.999600
94.410000 1.011300
94.506800 1.023000
94.603500 1.028600
94.700200 1.011000
94.797000 1.015700
94.893700 1.024900
94.990400 1.057400
95.087200 1.024100
95.183900 0.984500
95.280600 0.992000
95.377400 0.979900
95.474100 0.954400
95.570800 0.944700
95.667600 0.946100
95.764300 0.964400
95.861100 0.951100
95.957800 0.937300
96.054500 0.926200
96.151300 0.932000
96.248000 0.919000
96.344700 0.897400
96.441500 0.901700
96.538200 0.900400
96.634900 0.889800
96.731700 0.919500
96.828400 0.962500
96.925100 0.994900
97.021900 1.034500
97.118600 1.152600
97.215300 1.271900
97.312100 1.142600
97.408800 1.069900
97.505500 1.077900
97.602300 1.119500
97.699000 1.052300
97.795700 1.068300
97.892500 1.093000
97.989200 1.159200
98.085900 1.103400
98.182700 1.044500
98.279400 1.025700
98.376100 1.010500
98.472900 1.012800
98.569600 1.013600
98.666300 1.017000
98.763100 1.015800
98.859800 1.037700
98.956500 1.046700
99.053300 1.091900
99.150000 1.158200
99.246800 1.200100
99.343500 1.188100
99.440200 1.201400
99.537000 1.242900
99.633700 1.293200
99.730400 1.236300
99.827200 1.182600
99.923900 1.135500
100.020600 1.094000
100.117400 1.038200
100.214100 1.011000
100.310800 0.990700
100.407600 1.007500
100.504300 0.980500
100.601000 0.963200
100.697800 0.991200
100.794500 1.099700
100.891200 1.074000
100.988000 1.103000
101.084700 1.139200
101.181400 1.113600
101.278200 1.057300
101.374900 1.035300
101.471600 1.028500
101.568400 1.019800
101.665100 1.015300
101.761800 1.037300
101.858600 1.045800
101.955300 1.059800
102.052000 1.109500
102.148800 1.131800
102.245500 1.117000
102.342300 1.086600
102.439000 1.065500
102.535700 1.053500
102.632500 1.056200
102.729200 1.073000
102.825900 1.064500
102.922700 1.038600
103.019400 1.004700
103.116100 0.997800
103.212900 1.029800
103.309600 1.045900
103.406300 1.042600
103.503100 1.040500
103.599800 1.032900
103.696500 1.017700
103.793300 1.061800
103.890000 1.085700
103.986700 1.109900
104.083500 1.091100
104.180200 1.052300
104.276900 1.042200
104.373700 1.037500
104.470400 1.030100
104.567100 1.008000
104.663900 1.016500
104.760600 1.046700
104.857300 1.067000
104.954100 1.133900
105.050800 1.114800
105.147500 1.110200
105.244300 1.165400
105.341000 1.194500
105.437800 1.215800
105.534500 1.187500
105.631200 1.170500
105.728000 1.084300
105.824700 1.060700
105.921400 1.093500
106.018200 1.114500
106.114900 1.065100
106.211600 1.025700
106.308400 1.169100
106.405100 1.169200
106.501800 1.243000
106.598600 1.256700
106.695300 1.375400
106.792000 1.399800
106.888800 1.303100
106.985500 1.210500
107.082200 1.104400
107.179000 1.078200
107.275700 1.040400
107.372400 1.032000
107.469200 1.015300
107.565900 0.986000
107.662600 0.974800
107.759400 0.939500
107.856100 0.949400
107.952800 0.943200
108.049600 0.976600
108.146300 0.991100
108.243000 1.057500
108.339800 1.088000
108.436500 1.059700
108.533300 1.082900
108.630000 1.062000
108.726700 1.040900
108.823500 1.076200
108.920200 1.096700
109.016900 1.105700
109.113700 1.100100
109.210400 1.085500
109.307100 1.121100
109.403900 1.021300
109.500600 1.002200
109.597300 1.023900
109.694100 1.025000
109.790800 1.034600
109.887500 1.057200
109.984300 1.085200
110.081000 1.113000
110.177700 1.114200
110.274500 1.093000
110.371200 1.096100
110.467900 1.111500
110.564700 1.127700
110.661400 1.185200
110.758100 1.203600
110.854900 1.248400
110.951600 1.292300
111.048300 1.296300
111.145100 1.232900
111.241800 1.146200
111.338500 1.094700
111.435300 1.065400
111.532000 1.114100
111.628800 1.089000
111.725500 1.066000
111.822200 1.038300
111.919000 1.008000
112.015700 0.985800
112.112400 0.961000
112.209200 1.000700
112.305900 1.037200
112.402600 1.061100
112.499400 1.093000
112.596100 1.099500
112.692800 1.120500
112.789600 1.163900
112.886300 1.247500
112.983000 1.207600
113.079800 1.182600
113.176500 1.181300
113.273200 1.238200
113.370000 1.227000
113.466700 1.193400
113.563400 1.172600
113.660200 1.153400
113.756900 1.142300
113.853600 1.144800
113.950400 1.121200
114.047100 1.101800
114.143800 1.027900
114.240600 1.016400
114.337300 1.014600
114.434000 1.051900
114.530800 1.065400
114.627500 1.101600
114.724300 1.113500
114.821000 1.106700
114.917700 1.085900
115.014500 1.085500
115.111200 1.107400
115.207900 1.121700
115.304700 1.091200
115.401400 1.176600
115.498100 1.225100
115.594900 1.193700
115.691600 1.158600
115.788300 1.140300
115.885100 1.107800
115.981800 1.104400
116.078500 1.101100
116.175300 1.077100
116.272000 1.066900
116.368700 1.081500
116.465500 1.085300
116.562200 1.072400
116.658900 1.072700
116.755700 1.055100
116.852400 1.051600
116.949100 1.061400
117.045900 1.096700
117.142600 1.117700
117.239300 1.139300
117.336100 1.180100
117.432800 1.153700
117.529500 1.112800
117.626300 1.106200
117.723000 1.086400
117.819800 1.097000
117.916500 1.104300
118.013200 1.122300
118.110000 1.143700
118.206700 1.188500
118.303400 1.206900
118.400200 1.167900
118.496900 1.100900
118.593600 1.070200
118.690400 1.043000
118.787100 1.047000
118.883800 1.137300
118.980600 1.129500
119.077300 1.124100
119.174000 1.104900
119.270800 1.112900
119.367500 1.048700
119.464200 1.029100
119.561000 1.036600
119.657700 1.056500
119.754400 1.087100
119.851200 1.124700
119.947900 1.128400
120.044600 1.137700
120.141400 1.158400
120.238100 1.137400
120.334800 1.137300
120.431600 1.150400
120.528300 1.128300
120.625000 1.098900
120.721800 1.072500
120.818500 1.055200
120.915200 1.073700
121.012000 1.063900
121.108700 1.053700
121.205500 1.048900
121.302200 1.064900
121.398900 1.076400
121.495700 1.060400
121.592400 1.081300
121.689100 1.164100
121.785900 1.233700
121.882600 1.221200
121.979300 1.203200
122.076100 1.189700
122.172800 1.187200
122.269500 1.175900
122.366300 1.133600
122.463000 1.104100
122.559700 1.094300
122.656500 1.100500
122.753200 1.090700
122.849900 1.056600
122.946700 1.100600
123.043400 1.191300
123.140100 1.338400
123.236900 1.429400
123.333600 1.393800
123.430300 1.372200
123.527100 1.352800
123.623800 1.393500
123.720500 1.425100
123.817300 1.489400
123.914000 1.417500
124.010700 1.310000
124.107500 1.298000
124.204200 1.248000
124.301000 1.178200
124.397700 1.161300
124.494400 1.164900
124.591200 1.144400
124.687900 1.164000
124.784600 1.209200
124.881400 1.234900
124.978100 1.281300
125.074800 1.320900
125.171600 1.449000
125.268300 1.448300
125.365000 1.346100
125.461800 1.162000
125.558500 1.062000
125.655200 0.998600
125.752000 0.983900
125.848700 1.000700
125.945400 0.967200
126.042200 0.975300
126.138900 1.033400
126.235600 1.030300
126.332400 1.001100
126.429100 1.000000
126.525800 0.987300
126.622600 0.964000
126.719300 0.945500
126.816000 0.948300
126.912800 0.994800
127.009500 1.038500
127.106200 1.100300
127.203000 1.097000
127.299700 1.103300
127.396500 1.155500
127.493200 1.201200
127.589900 1.277900
127.686700 1.305600
127.783400 1.380400
127.880100 1.371100
127.976900 1.149500
128.073600 1.113100
128.170300 1.212000
128.267100 1.351500
128.363800 1.416900
128.460500 1.341600
128.557300 1.278800
128.654000 1.205300
128.750700 1.151800
128.847500 1.073700
128.944200 1.054000
129.040900 1.018100
129.137700 1.023800
129.234400 1.071900
129.331100 1.141300
129.427900 1.155800
129.524600 1.136700
129.621300 1.117600
129.718100 1.088600
129.814800 1.050100
129.911500 1.074500
130.008300 1.190700
130.105000 1.263400
130.201700 1.272800
130.298500 1.260900
130.395200 1.185700
130.492000 1.109400
130.588700 1.087500
130.685400 1.115200
130.782200 1.119500
130.878900 1.133100
130.975600 1.013500
131.072400 1.043600
131.169100 1.169600
131.265800 1.157000
131.362600 1.135500
131.459300 1.106200
131.556000 1.059300
131.652800 1.079500
131.749500 1.074500
131.846200 1.142100
131.943000 1.261900
132.039700 1.279700
132.136400 1.320800
132.233200 1.286500
132.329900 1.238200
132.426600 1.189100
132.523400 1.174700
132.620100 1.155400
132.716800 1.107000
132.813600 1.097600
132.910300 1.138700
133.007000 1.193700
133.103800 1.201400
133.200500 1.217900
133.297200 1.235700
133.394000 1.288800
133.490700 1.332700
133.587500 1.269500
133.684200 1.195000
133.780900 1.207500
133.877700 1.245300
133.974400 1.255100
134.071100 1.242400
134.167900 1.238100
134.264600 1.228300
134.361300 1.268800
134.458100 1.268200
134.554800 1.202400
134.651500 1.185900
134.748300 1.187400
134.845000 1.217400
134.941700 1.209200
135.038500 1.192800
135.135200 1.239900
135.231900 1.176700
135.328700 1.094900
135.425400 1.028200
135.522100 1.010700
135.618900 0.988100
135.715600 1.012700
135.812300 1.041000
135.909100 1.076700
136.005800 1.073100
136.102500 1.060800
136.199300 1.093100
136.296000 1.120000
136.392700 1.186000
136.489500 1.189100
136.586200 1.185600
136.683000 1.191100
136.779700 1.199800
136.876400 1.199200
136.973200 1.201700
137.069900 1.209300
137.166600 1.135100
137.263400 1.100700
137.360100 1.089600
137.456800 1.134200
137.553600 1.154700
137.650300 1.114000
137.747000 1.067500
137.843800 1.071400
137.940500 1.081400
138.037200 1.067500
138.134000 1.094900
138.230700 1.145400
138.327400 1.171900
138.424200 1.221600
138.520900 1.234400
138.617600 1.184700
138.714400 1.164000
138.811100 1.136000
138.907800 1.105500
139.004600 1.059400
139.101300 1.004800
139.198000 0.960000
139.294800 0.939500
139.391500 0.949600
139.488200 0.954900
139.585000 0.922900
139.681700 0.889900
139.778500 0.879100
139.875200 0.840200
139.971900 0.844600
140.068700 0.860400
140.165400 0.901900
140.262100 0.924900
140.358900 0.896900
140.455600 0.842900
140.552300 0.793900
140.649100 0.766400
140.745800 0.738300
140.842500 0.717100
140.939300 0.688600
141.036000 0.652100
141.132700 0.629400
141.229500 0.588500
141.326200 0.569300
141.422900 0.500300
141.519700 0.458300
141.616400 0.432600
141.713100 0.405200
141.809900 0.338100
141.906600 0.301300
142.003300 0.271400
142.100100 0.252500
142.196800 0.236800
142.293500 0.223000
142.390300 0.210800
142.487000 0.200800
142.583700 0.191700
142.680500 0.181500
142.777200 0.177400
142.873900 0.172400
142.970700 0.167600
143.067400 0.163800
143.164200 0.151600
143.260900 0.133300
143.357600 0.113400
143.454400 0.095400
143.551100 0.077200
143.647800 0.067000
143.744600 0.059600
143.841300 0.055000
143.938000 0.053000
144.034800 0.051000
144.131500 0.049400
144.228200 0.047800
144.325000 0.046200
144.421700 0.044700
144.518400 0.043200
144.615200 0.041700
144.711900 0.040300
144.808600 0.039200
144.905400 0.038200
145.002100 0.037200
145.098800 0.036300
145.195600 0.035500
145.292300 0.034600
145.389000 0.033800
145.485800 0.033000
145.582500 0.031700
145.679200 0.030900
145.776000 0.030100
145.872700 0.029600
145.969400 0.028900
146.066200 0.028200
146.162900 0.027500
146.259700 0.026900
146.356400 0.026200
146.453100 0.025600
146.549900 0.025000
146.646600 0.024400
146.743300 0.024000
146.840100 0.023400
146.936800 0.022900
147.033500 0.022500
147.130300 0.022000
147.227000 0.021500
147.323700 0.021000
147.420500 0.020500
147.517200 0.020200
147.613900 0.019700
147.710700 0.019300
147.807400 0.018800
147.904100 0.018300
148.000900 0.017900
148.097600 0.017600
148.194300 0.017100
148.291100 0.016800
148.387800 0.016400
148.484500 0.016100
148.581300 0.015400
148.678000 0.015100
148.774700 0.014900
148.871500 0.014600
148.968200 0.014300
149.064900 0.014100
149.161700 0.013500
149.258400 0.013300
149.355200 0.013100
149.451900 0.012900
149.548600 0.012600
149.645400 0.012400
149.742100 0.012800
149.838800 0.012600
149.935600 0.012900
150.032300 0.012700
150.129000 0.012500
150.225800 0.012300
150.322500 0.012100
150.419200 0.011800
150.516000 0.012100
150.612700 0.012100
150.709400 0.011900
150.806200 0.011400
150.902900 0.015200
150.999600 0.011600
151.096400 0.010000
151.193100 0.008900
151.289800 0.006100
151.386600 0.005100
151.483300 0.003900
151.580000 0.000000
151.676800 0.000000
151.773500 0.000000
151.870200 0.000000
151.967000 0.000000
152.063700 0.000000
152.160400 0.000000
152.257200 0.000000
152.353900 0.000000
152.450700 0.000000
152.547400 0.000000
152.644100 0.000000
152.740900 0.000000
152.837600 0.000000
152.934300 0.000000
153.031100 0.000000
153.127800 0.000000
153.224500 0.000000
153.321300 0.000000
153.418000 0.000000
153.514700 0.000000
153.611500 0.000000
153.708200 0.000000
153.804900 0.000000
153.901700 0.000000
153.998400 0.000000
154.095100 0.000000
154.191900 0.000000
154.288600 0.000000
154.385300 0.000000
154.482100 0.000000
154.578800 0.000000
154.675500 0.000000
154.772300 0.000000
154.869000 0.000000
154.965700 0.000000
155.062500 0.000000
155.159200 0.000000
155.255900 0.000000
155.352700 0.000000
155.449400 0.000000
155.546200 0.000000
155.642900 0.000000
155.739600 0.000000
155.836400 0.000000
155.933100 0.000000
156.029800 0.000000
156.126600 0.000000
156.223300 0.000000
156.320000 0.000000
156.416800 0.000000
156.513500 0.000000
156.610200 0.000000
156.707000 0.000000
156.803700 0.000000
156.900400 0.000000
156.997200 0.000000
157.093900 0.000000
157.190600 0.000000
157.287400 0.000000
157.384100 0.000000
157.480800 0.000000
157.577600 0.000000
157.674300 0.000000
157.771000 0.000000
157.867800 0.000000
157.964500 0.000000
158.061200 0.000000
158.158000 0.000000
158.254700 0.000000
158.351400 0.000000
158.448200 0.000000
158.544900 0.000000
158.641700 0.000000
158.738400 0.000000
158.835100 0.000000
158.931900 0.000000
159.028600 0.000000
159.125300 0.000000
159.222100 0.000000
159.318800 0.000000
159.415500 0.000000
159.512300 0.000000
159.609000 0.000000
159.705700 0.000000
159.802500 0.000000
159.899200 0.000000
159.995900 0.000000
160.092700 0.000000
160.189400 0.000000
160.286100 0.000000
160.382900 0.000000
e
