set title 'mp-999293 - Density of States'
set xlabel 'Energy (eV)'
set ylabel 'DOS (states/eV)'
set grid
set xrange [-10:10]
set yrange [0:12.390]
set xzeroaxis lt -1
set terminal png size 800,600
set output 'mp-999293_dos_gnuplot.png'
plot '-' using 1:2 with lines title 'DOS'
-13.870700 0.000000
-13.842400 0.000000
-13.814000 0.000000
-13.785700 0.000000
-13.757300 0.000000
-13.729000 0.000000
-13.700600 0.000000
-13.672300 0.000000
-13.643900 0.000000
-13.615600 0.000000
-13.587200 0.000000
-13.558900 0.000000
-13.530500 0.000000
-13.502200 0.000000
-13.473800 0.000000
-13.445500 0.000000
-13.417100 0.000000
-13.388800 0.000000
-13.360400 0.000000
-13.332100 0.000000
-13.303700 0.000000
-13.275400 0.000000
-13.247000 0.000000
-13.218700 0.000000
-13.190300 0.000000
-13.162000 0.000000
-13.133600 0.000000
-13.105300 0.000000
-13.076900 0.000000
-13.048600 0.000000
-13.020200 0.000000
-12.991900 0.000000
-12.963500 0.000000
-12.935200 0.000000
-12.906800 0.000000
-12.878500 0.000000
-12.850200 0.000000
-12.821800 0.000000
-12.793500 0.000000
-12.765100 0.000000
-12.736800 0.000000
-12.708400 0.000000
-12.680100 0.000000
-12.651700 0.000000
-12.623400 0.000000
-12.595000 0.000000
-12.566700 0.000000
-12.538300 0.000000
-12.510000 0.000000
-12.481600 0.000000
-12.453300 0.000000
-12.424900 0.000000
-12.396600 0.000000
-12.368200 0.000000
-12.339900 0.000000
-12.311500 0.000000
-12.283200 0.000000
-12.254800 0.000000
-12.226500 0.000000
-12.198100 0.000000
-12.169800 0.000000
-12.141400 0.000000
-12.113100 0.000000
-12.084700 0.000000
-12.056400 0.000000
-12.028000 0.000000
-11.999700 0.000000
-11.971300 0.000000
-11.943000 0.000000
-11.914600 0.000000
-11.886300 0.000000
-11.857900 0.000000
-11.829600 0.000000
-11.801200 0.000000
-11.772900 0.000000
-11.744500 0.000000
-11.716200 0.000000
-11.687800 0.000000
-11.659500 0.000000
-11.631100 0.000000
-11.602800 0.000000
-11.574400 0.000000
-11.546100 0.000000
-11.517700 0.000000
-11.489400 0.000000
-11.461000 0.000000
-11.432700 0.000000
-11.404300 0.000000
-11.376000 0.000000
-11.347700 0.000000
-11.319300 0.000000
-11.291000 0.078900
-11.262600 0.139100
-11.234300 0.211900
-11.205900 0.250900
-11.177600 0.285100
-11.149200 0.315500
-11.120900 0.347600
-11.092500 0.390900
-11.064200 0.420100
-11.035800 0.453700
-11.007500 0.485700
-10.979100 0.517900
-10.950800 0.554400
-10.922400 0.593700
-10.894100 0.630400
-10.865700 0.665400
-10.837400 0.709900
-10.809000 0.761700
-10.780700 0.818600
-10.752300 0.877700
-10.724000 0.938100
-10.695600 1.157600
-10.667300 1.272500
-10.638900 1.413500
-10.610600 2.827300
-10.582200 2.876700
-10.553900 2.810900
-10.525500 2.350400
-10.497200 2.259900
-10.468800 2.222800
-10.440500 2.191200
-10.412100 2.089600
-10.383800 2.093300
-10.355400 2.105700
-10.327100 2.079100
-10.298700 2.103900
-10.270400 2.129400
-10.242000 2.023200
-10.213700 1.992000
-10.185300 1.922200
-10.157000 1.965000
-10.128600 2.619100
-10.100300 3.099000
-10.071900 4.058200
-10.043600 4.871700
-10.015200 3.879700
-9.986900 2.385300
-9.958500 2.296200
-9.930200 2.360800
-9.901800 3.121700
-9.873500 6.475300
-9.845200 5.097400
-9.816800 5.301800
-9.788500 5.430800
-9.760100 4.094200
-9.731800 3.609300
-9.703400 3.154500
-9.675100 2.964200
-9.646700 2.923900
-9.618400 2.908600
-9.590000 2.901600
-9.561700 2.599300
-9.533300 2.398800
-9.505000 1.911200
-9.476600 1.612100
-9.448300 1.341300
-9.419900 1.094400
-9.391600 0.847500
-9.363200 0.689600
-9.334900 0.374600
-9.306500 0.330500
-9.278200 0.292400
-9.249800 0.264600
-9.221500 0.238600
-9.193100 0.210100
-9.164800 0.183300
-9.136400 0.135200
-9.108100 0.093300
-9.079700 0.057700
-9.051400 0.000000
-9.023000 0.000000
-8.994700 0.000000
-8.966300 0.000000
-8.938000 0.000000
-8.909600 0.000000
-8.881300 0.000000
-8.852900 0.000000
-8.824600 0.000000
-8.796200 0.000000
-8.767900 0.000000
-8.739500 0.000000
-8.711200 0.000000
-8.682800 0.000000
-8.654500 0.000000
-8.626100 0.000000
-8.597800 0.000000
-8.569400 0.000000
-8.541100 0.000000
-8.512700 0.000000
-8.484400 0.000000
-8.456000 0.000000
-8.427700 0.000000
-8.399300 0.000000
-8.371000 0.000000
-8.342700 0.000000
-8.314300 0.000000
-8.286000 0.000000
-8.257600 0.000000
-8.229300 0.000000
-8.200900 0.000000
-8.172600 0.000000
-8.144200 0.000000
-8.115900 0.000000
-8.087500 0.000000
-8.059200 0.000000
-8.030800 0.000000
-8.002500 0.000000
-7.974100 0.000000
-7.945800 0.000000
-7.917400 0.000000
-7.889100 0.000000
-7.860700 0.000000
-7.832400 0.000000
-7.804000 0.000000
-7.775700 0.000000
-7.747300 0.000000
-7.719000 0.000000
-7.690600 0.000000
-7.662300 0.000000
-7.633900 0.000000
-7.605600 0.000000
-7.577200 0.000000
-7.548900 0.000000
-7.520500 0.000000
-7.492200 0.000000
-7.463800 0.000000
-7.435500 0.000000
-7.407100 0.000000
-7.378800 0.000000
-7.350400 0.000000
-7.322100 0.000000
-7.293700 0.000000
-7.265400 0.000000
-7.237000 0.000000
-7.208700 0.000000
-7.180300 0.000000
-7.152000 0.000000
-7.123600 0.000000
-7.095300 0.000000
-7.066900 0.000000
-7.038600 0.000000
-7.010200 0.000000
-6.981900 0.000000
-6.953500 0.000000
-6.925200 0.000000
-6.896800 0.000000
-6.868500 0.000000
-6.840200 0.000000
-6.811800 0.000000
-6.783500 0.000000
-6.755100 0.000000
-6.726800 0.000000
-6.698400 0.000000
-6.670100 0.000000
-6.641700 0.000000
-6.613400 0.000000
-6.585000 0.000000
-6.556700 0.000000
-6.528300 0.000000
-6.500000 0.000000
-6.471600 0.000000
-6.443300 0.000000
-6.414900 0.000000
-6.386600 0.000000
-6.358200 0.000000
-6.329900 0.000000
-6.301500 0.000000
-6.273200 0.000000
-6.244800 0.000000
-6.216500 0.000000
-6.188100 0.000000
-6.159800 0.000000
-6.131400 0.000000
-6.103100 0.000000
-6.074700 0.000000
-6.046400 0.000000
-6.018000 0.000000
-5.989700 0.000000
-5.961300 0.000000
-5.933000 0.000000
-5.904600 0.000000
-5.876300 0.000000
-5.847900 0.000000
-5.819600 0.000000
-5.791200 0.000000
-5.762900 0.000000
-5.734500 0.000000
-5.706200 0.000000
-5.677800 0.000000
-5.649500 0.000000
-5.621100 0.000000
-5.592800 0.000000
-5.564400 0.000000
-5.536100 0.000000
-5.507700 0.000000
-5.479400 0.000000
-5.451000 0.000000
-5.422700 0.000000
-5.394400 0.000000
-5.366000 0.000000
-5.337700 0.000000
-5.309300 0.000000
-5.281000 0.000000
-5.252600 0.000000
-5.224300 0.000000
-5.195900 0.000000
-5.167600 0.000000
-5.139200 0.000000
-5.110900 0.000000
-5.082500 0.000000
-5.054200 0.000000
-5.025800 0.000000
-4.997500 0.000000
-4.969100 0.000000
-4.940800 0.000000
-4.912400 0.000000
-4.884100 0.000000
-4.855700 0.000000
-4.827400 0.000000
-4.799000 0.000000
-4.770700 0.000000
-4.742300 0.000000
-4.714000 0.000000
-4.685600 0.000000
-4.657300 0.000000
-4.628900 0.000000
-4.600600 0.000000
-4.572200 0.000000
-4.543900 0.000000
-4.515500 0.000000
-4.487200 0.000000
-4.458800 0.000000
-4.430500 0.000000
-4.402100 0.000000
-4.373800 0.000000
-4.345400 0.000000
-4.317100 0.000000
-4.288700 0.000000
-4.260400 0.000000
-4.232000 0.000000
-4.203700 0.000000
-4.175300 0.000000
-4.147000 0.000000
-4.118600 0.000000
-4.090300 0.000000
-4.061900 0.000000
-4.033600 0.000000
-4.005200 0.000000
-3.976900 0.000000
-3.948500 0.000000
-3.920200 0.000000
-3.891900 0.000000
-3.863500 0.000000
-3.835200 0.000000
-3.806800 0.000000
-3.778500 0.000000
-3.750100 0.000000
-3.721800 0.000000
-3.693400 0.000000
-3.665100 0.000000
-3.636700 0.000000
-3.608400 0.051500
-3.580000 0.072900
-3.551700 0.096900
-3.523300 0.123400
-3.495000 0.123600
-3.466600 0.139700
-3.438300 0.156500
-3.409900 0.174200
-3.381600 0.194400
-3.353200 0.215600
-3.324900 0.225100
-3.296500 0.241700
-3.268200 0.258300
-3.239800 0.274500
-3.211500 0.290700
-3.183100 0.306600
-3.154800 0.322200
-3.126400 0.348600
-3.098100 0.381600
-3.069700 0.413100
-3.041400 0.444000
-3.013000 0.475200
-2.984700 1.246200
-2.956300 1.210400
-2.928000 1.524600
-2.899600 1.975400
-2.871300 1.927700
-2.842900 1.933100
-2.814600 1.894300
-2.786200 1.803500
-2.757900 1.760300
-2.729500 1.740800
-2.701200 1.738900
-2.672800 1.733800
-2.644500 1.711700
-2.616100 1.681300
-2.587800 1.663500
-2.559400 1.831900
-2.531100 2.292300
-2.502700 2.461400
-2.474400 2.725200
-2.446000 3.408500
-2.417700 4.499900
-2.389400 4.832200
-2.361000 6.218600
-2.332700 5.592700
-2.304300 4.901300
-2.276000 4.394100
-2.247600 4.559500
-2.219300 3.821900
-2.190900 3.640300
-2.162600 3.709900
-2.134200 4.006100
-2.105900 4.120600
-2.077500 4.311200
-2.049200 4.402000
-2.020800 4.407000
-1.992500 4.265100
-1.964100 3.958500
-1.935800 4.085000
-1.907400 4.124800
-1.879100 4.115900
-1.850700 4.543300
-1.822400 5.051800
-1.794000 4.769000
-1.765700 4.939500
-1.737300 4.399700
-1.709000 4.302100
-1.680600 4.293600
-1.652300 4.376400
-1.623900 5.606500
-1.595600 5.479400
-1.567200 5.363200
-1.538900 4.836500
-1.510500 4.092800
-1.482200 3.366400
-1.453800 2.436500
-1.425500 2.127100
-1.397100 2.272800
-1.368800 2.567300
-1.340400 2.119100
-1.312100 2.133400
-1.283700 2.401600
-1.255400 2.671300
-1.227000 2.717500
-1.198700 2.980300
-1.170300 3.264600
-1.142000 3.257900
-1.113600 3.337000
-1.085300 3.560500
-1.056900 3.622900
-1.028600 3.531800
-1.000200 3.411700
-0.971900 3.403500
-0.943500 3.467500
-0.915200 3.759700
-0.886900 4.405900
-0.858500 4.841500
-0.830200 4.946000
-0.801800 4.870400
-0.773500 4.606300
-0.745100 4.604000
-0.716800 3.958200
-0.688400 2.898300
-0.660100 2.809000
-0.631700 2.834800
-0.603400 3.237000
-0.575000 6.025700
-0.546700 5.199500
-0.518300 4.267900
-0.490000 3.706700
-0.461600 3.178400
-0.433300 3.833900
-0.404900 2.360600
-0.376600 2.267900
-0.348200 2.207200
-0.319900 2.109600
-0.291500 2.178200
-0.263200 2.431500
-0.234800 2.569200
-0.206500 2.720900
-0.178100 2.915400
-0.149800 3.395800
-0.121400 3.540300
-0.093100 3.575400
-0.064700 3.724800
-0.036400 3.300600
-0.008000 3.625400
0.020300 3.537700
0.048700 3.476300
0.077000 3.691900
0.105400 3.379300
0.133700 3.869200
0.162100 4.276500
0.190400 4.973200
0.218800 5.542700
0.247100 6.077000
0.275500 6.563000
0.303800 6.610800
0.332200 7.087900
0.360500 6.797900
0.388900 6.743600
0.417200 7.282400
0.445600 7.160500
0.473900 6.807100
0.502300 6.370800
0.530600 5.838600
0.559000 5.038500
0.587300 5.201600
0.615600 6.010900
0.644000 5.916300
0.672300 5.562100
0.700700 6.286800
0.729000 7.930800
0.757400 8.267300
0.785700 9.007700
0.814100 10.925000
0.842400 11.263900
0.870800 3.133400
0.899100 1.519000
0.927500 2.920400
0.955800 5.005500
0.984200 6.245100
1.012500 8.570200
1.040900 5.212300
1.069200 4.245300
1.097600 4.129800
1.125900 4.360200
1.154300 5.106700
1.182600 7.294400
1.211000 8.533600
1.239300 10.271500
1.267700 7.579300
1.296000 5.939500
1.324400 4.970700
1.352700 4.410600
1.381100 4.045200
1.409400 3.791700
1.437800 3.572000
1.466100 3.328500
1.494500 3.231200
1.522800 2.841400
1.551200 2.313600
1.579500 2.075800
1.607900 1.618900
1.636200 1.523400
1.664600 1.433400
1.692900 1.416300
1.721300 1.461200
1.749600 1.486100
1.778000 1.500000
1.806300 1.485400
1.834700 1.499600
1.863000 1.518700
1.891400 1.516600
1.919700 1.550400
1.948100 1.667100
1.976400 1.711800
2.004800 1.716900
2.033100 1.772300
2.061500 1.886100
2.089800 1.835600
2.118100 1.468200
2.146500 1.310700
2.174800 1.180700
2.203200 1.211300
2.231500 1.346700
2.259900 1.701200
2.288200 2.040500
2.316600 2.409300
2.344900 2.823400
2.373300 3.027600
2.401600 3.310800
2.430000 3.668600
2.458300 4.111400
2.486700 4.367900
2.515000 4.425200
2.543400 3.474300
2.571700 3.059300
2.600100 2.869800
2.628400 2.693200
2.656800 2.523500
2.685100 2.978500
2.713500 2.446900
2.741800 2.470700
2.770200 2.514000
2.798500 2.600000
2.826900 2.834700
2.855200 3.101900
2.883600 3.780400
2.911900 4.372500
2.940300 4.974000
2.968600 6.188700
2.997000 6.635400
3.025300 6.388700
3.053700 5.271200
3.082000 4.685000
3.110400 4.283600
3.138700 4.455300
3.167100 4.403400
3.195400 3.138900
3.223800 2.883300
3.252100 2.243200
3.280500 1.834600
3.308800 1.989200
3.337200 2.342500
3.365500 2.848600
3.393900 3.452900
3.422200 4.687200
3.450600 3.647600
3.478900 3.516800
3.507300 3.240000
3.535600 3.283800
3.563900 3.355300
3.592300 3.576500
3.620600 4.137700
3.649000 3.583200
3.677300 3.285800
3.705700 3.190700
3.734000 3.029000
3.762400 3.115800
3.790700 2.700800
3.819100 2.583000
3.847400 2.610800
3.875800 2.614200
3.904100 2.744600
3.932500 2.833200
3.960800 2.972800
3.989200 3.088200
4.017500 3.306900
4.045900 3.592800
4.074200 4.094000
4.102600 4.213100
4.130900 4.629900
4.159300 5.138000
4.187600 3.790100
4.216000 3.472200
4.244300 3.060900
4.272700 2.794600
4.301000 2.572700
4.329400 2.503900
4.357700 2.296800
4.386100 1.715000
4.414400 1.527800
4.442800 1.486300
4.471100 1.395000
4.499500 1.299300
4.527800 1.180000
4.556200 1.018700
4.584500 0.925100
4.612900 0.873800
4.641200 0.897000
4.669600 0.894700
4.697900 0.716800
4.726300 0.492800
4.754600 0.340800
4.783000 0.126800
4.811300 0.000000
4.839700 0.000000
4.868000 0.145300
4.896400 0.399700
4.924700 0.253700
4.953100 0.266100
4.981400 0.225300
5.009800 0.219700
5.038100 0.211000
5.066400 0.207600
5.094800 0.205900
5.123100 0.205600
5.151500 0.209900
5.179800 0.215300
5.208200 0.221800
5.236500 0.229600
5.264900 0.238500
5.293200 0.247500
5.321600 0.256600
5.349900 0.264100
5.378300 0.273900
5.406600 0.284700
5.435000 0.295700
5.463300 0.307500
5.491700 0.320000
5.520000 0.332200
5.548400 0.347700
5.576700 0.627900
5.605100 0.491200
5.633400 0.525900
5.661800 0.561800
5.690100 0.603300
5.718500 0.632400
5.746800 0.678100
5.775200 0.730200
5.803500 0.787800
5.831900 0.848900
5.860200 0.907700
5.888600 0.968300
5.916900 1.103700
5.945300 1.238800
5.973600 1.388600
6.002000 1.571700
6.030300 1.687400
6.058700 1.656600
6.087000 1.570400
6.115400 1.524400
6.143700 1.511500
6.172100 1.493300
6.200400 1.473600
6.228800 1.464700
6.257100 1.415900
6.285500 1.407100
6.313800 1.457000
6.342200 1.620000
6.370500 1.682500
6.398900 1.593000
6.427200 1.511500
6.455600 1.508100
6.483900 1.482900
6.512300 1.463100
6.540600 1.488500
6.568900 1.531300
6.597300 1.575900
6.625600 1.620400
6.654000 1.638800
6.682300 1.668700
6.710700 1.752700
6.739000 1.798300
6.767400 1.887600
6.795700 1.882300
6.824100 1.916700
6.852400 1.944900
6.880800 1.972600
6.909100 2.125800
6.937500 1.974500
6.965800 1.985100
6.994200 2.027600
7.022500 2.067600
7.050900 2.123900
7.079200 2.199000
7.107600 2.439000
7.135900 2.259300
7.164300 2.315000
7.192600 2.573300
7.221000 2.242900
7.249300 2.439400
7.277700 3.200700
7.306000 4.615200
7.334400 3.457700
7.362700 2.932900
7.391100 2.648100
7.419400 2.441700
7.447800 2.140400
7.476100 1.847300
7.504500 1.528000
7.532800 1.354700
7.561200 1.014800
7.589500 0.886100
7.617900 0.715500
7.646200 0.676400
7.674600 0.637300
7.702900 0.604200
7.731300 0.569600
7.759600 0.538000
7.788000 0.516700
7.816300 0.495700
7.844700 0.475300
7.873000 0.452900
7.901400 0.430800
7.929700 0.410800
7.958100 0.385600
7.986400 0.370700
8.014800 0.356200
8.043100 0.341900
8.071400 0.327700
8.099800 0.313700
8.128100 0.299700
8.156500 0.286300
8.184800 0.291200
8.213200 0.290200
8.241500 0.289900
8.269900 0.288000
8.298200 0.284500
8.326600 0.279300
8.354900 0.260900
8.383300 0.242300
8.411600 0.211700
8.440000 0.195200
8.468300 0.193300
8.496700 0.178900
8.525000 0.164600
8.553400 0.147600
8.581700 0.130000
8.610100 0.114600
8.638400 0.101500
8.666800 0.050800
8.695100 0.057800
8.723500 0.164700
8.751800 0.169900
8.780200 0.103900
8.808500 0.098900
8.836900 0.094200
8.865200 0.089900
8.893600 0.086000
8.921900 0.086800
8.950300 0.088200
8.978600 0.090300
9.007000 0.092300
9.035300 0.144900
9.063700 0.185800
9.092000 0.205800
9.120400 0.226900
9.148700 0.249200
9.177100 0.272900
9.205400 0.284200
9.233800 0.307400
9.262100 0.331500
9.290500 0.342400
9.318800 0.362300
9.347200 0.382500
9.375500 0.400500
9.403900 0.424200
9.432200 0.450200
9.460600 0.475100
9.488900 0.500000
9.517300 0.523600
9.545600 0.548600
9.573900 0.573900
9.602300 0.615200
9.630600 0.650900
9.659000 0.685800
9.687300 0.722400
9.715700 0.758200
9.744000 0.793700
9.772400 0.872500
9.800700 0.949800
9.829100 1.029300
9.857400 1.078900
9.885800 1.162700
9.914100 1.129600
9.942500 1.143300
9.970800 1.158500
9.999200 1.200000
10.027500 1.269500
10.055900 1.315100
10.084200 1.012900
10.112600 1.011100
10.140900 1.010000
10.169300 1.024300
10.197600 1.029200
10.226000 1.037900
10.254300 1.048800
10.282700 1.060500
10.311000 1.071900
10.339400 1.084200
10.367700 1.066300
10.396100 1.092300
10.424400 1.094900
10.452800 1.096100
10.481100 1.096200
10.509500 1.108400
10.537800 1.101500
10.566200 1.100700
10.594500 1.098600
10.622900 1.095200
10.651200 1.093800
10.679600 1.108700
10.707900 1.105800
10.736300 1.106100
10.764600 1.107100
10.793000 1.106600
10.821300 1.104100
10.849700 1.101600
10.878000 1.096000
10.906400 1.093500
10.934700 1.092200
10.963100 1.048900
10.991400 1.023300
11.019800 1.016600
11.048100 1.001800
11.076400 1.011400
11.104800 0.996800
11.133100 0.978400
11.161500 0.970200
11.189800 0.965700
11.218200 0.963500
11.246500 0.959800
11.274900 0.961200
11.303200 1.037800
11.331600 1.066900
11.359900 0.990200
11.388300 0.986600
11.416600 0.945600
11.445000 0.926400
11.473300 0.970400
11.501700 1.248800
11.530000 1.632100
11.558400 1.646000
11.586700 1.553500
11.615100 1.425500
11.643400 1.327400
11.671800 1.277600
11.700100 1.333900
11.728500 1.400200
11.756800 1.534900
11.785200 1.705200
11.813500 1.811100
11.841900 1.927600
11.870200 2.045500
11.898600 2.209200
11.926900 2.347000
11.955300 2.345400
11.983600 2.373500
12.012000 2.587100
12.040300 2.655700
12.068700 2.206500
12.097000 1.890600
12.125400 1.710600
12.153700 1.590400
12.182100 1.488800
12.210400 1.397200
12.238800 1.313100
12.267100 1.236100
12.295500 1.160900
12.323800 1.105300
12.352200 1.073200
12.380500 1.032900
12.408900 0.980400
12.437200 0.910000
12.465600 0.848900
12.493900 0.793600
12.522200 0.836400
12.550600 0.944600
12.578900 0.651300
12.607300 0.587500
12.635600 0.526400
12.664000 0.454800
12.692300 0.380800
12.720700 0.375800
12.749000 0.302600
12.777400 0.242500
12.805700 0.187200
12.834100 0.118300
12.862400 0.000000
12.890800 0.000000
12.919100 0.000000
12.947500 0.000000
12.975800 0.000000
13.004200 0.000000
13.032500 0.000000
13.060900 0.000000
13.089200 0.000000
13.117600 0.000000
13.145900 0.000000
13.174300 0.000000
13.202600 0.000000
13.231000 0.356500
13.259300 0.177300
13.287700 0.187200
13.316000 0.197100
13.344400 0.207100
13.372700 0.257200
13.401100 0.353800
13.429400 0.386700
13.457800 0.382600
13.486100 0.387100
13.514500 0.400900
13.542800 0.406500
13.571200 0.410400
13.599500 0.413700
13.627900 0.415000
13.656200 0.424600
13.684600 0.433900
13.712900 0.442800
13.741300 0.451800
13.769600 0.456500
13.798000 0.469000
13.826300 0.482000
13.854700 0.495700
13.883000 0.509700
13.911400 0.524100
13.939700 0.538900
13.968100 0.556900
13.996400 0.568400
14.024700 0.577800
14.053100 0.581900
14.081400 0.587300
14.109800 0.592100
14.138100 0.596600
14.166500 0.600700
14.194800 0.606300
14.223200 0.606800
14.251500 0.614100
14.279900 0.621100
14.308200 0.625000
14.336600 0.627600
14.364900 0.632000
14.393300 0.638300
14.421600 0.645700
14.450000 0.649600
14.478300 0.661300
14.506700 0.673600
14.535000 0.686400
14.563400 0.699700
14.591700 0.713500
14.620100 0.728100
14.648400 0.744400
14.676800 0.762000
14.705100 0.780900
14.733500 0.790200
14.761800 0.787000
14.790200 0.775600
14.818500 0.776100
14.846900 0.760600
14.875200 0.743100
14.903600 0.723800
14.931900 0.717600
14.960300 0.708700
14.988600 0.703100
15.017000 0.701100
15.045300 0.702000
15.073700 0.705500
15.102000 0.711300
15.130400 0.718200
15.158700 0.726100
15.187100 0.735300
15.215400 0.745000
15.243800 0.759400
15.272100 0.772300
15.300500 0.785800
15.328800 0.799700
15.357200 0.814400
15.385500 0.829400
15.413900 0.844600
15.442200 0.860000
15.470600 0.878600
15.498900 0.898400
15.527200 0.919500
15.555600 0.965600
15.583900 0.992300
15.612300 1.036600
15.640600 1.067000
15.669000 1.097300
15.697300 1.128700
15.725700 1.199400
15.754000 1.236000
15.782400 1.298100
15.810700 1.353900
15.839100 1.402600
15.867400 1.720500
15.895800 1.558600
15.924100 1.470500
15.952500 1.460100
15.980800 1.452500
16.009200 1.406500
16.037500 1.397700
16.065900 1.392200
16.094200 1.388900
16.122600 1.389200
16.150900 1.391000
16.179300 1.397300
16.207600 1.408200
16.236000 1.527200
16.264300 1.562400
16.292700 1.632600
16.321000 2.123600
16.349400 1.737900
16.377700 1.691900
16.406100 1.587300
16.434400 1.587200
16.462800 1.581000
16.491100 1.570100
16.519500 1.566000
16.547800 1.575000
16.576200 1.575500
16.604500 1.572500
16.632900 1.588200
16.661200 1.638700
16.689600 1.678700
16.717900 1.678900
16.746300 1.867200
16.774600 1.831800
16.803000 1.652600
16.831300 1.492700
16.859700 1.472800
16.888000 1.461000
16.916400 1.506600
16.944700 1.535900
16.973100 1.494200
17.001400 1.070600
17.029700 0.993700
17.058100 0.919500
17.086400 0.871600
17.114800 0.914300
17.143100 0.843100
17.171500 0.608100
17.199800 0.590900
17.228200 0.616000
17.256500 0.764100
17.284900 0.608400
17.313200 0.473200
17.341600 0.482900
17.369900 0.516600
17.398300 0.539800
17.426600 0.564000
17.455000 0.583200
17.483300 0.600000
17.511700 0.617500
17.540000 0.637000
17.568400 0.826100
17.596700 0.950600
17.625100 0.993700
17.653400 1.019400
17.681800 1.083700
17.710100 1.168600
17.738500 1.246400
17.766800 1.345500
17.795200 1.470200
17.823500 1.549900
17.851900 1.603400
17.880200 1.666800
17.908600 1.745900
17.936900 1.872800
17.965300 2.059900
17.993600 2.216300
18.022000 2.283900
18.050300 2.219400
18.078700 2.206800
18.107000 2.137100
18.135400 2.082900
18.163700 2.155600
18.192100 2.087600
18.220400 2.068000
18.248800 2.070200
18.277100 2.116000
18.305500 2.146900
18.333800 2.106400
18.362200 2.104700
18.390500 2.144600
18.418900 2.187900
18.447200 2.177200
18.475600 2.256300
18.503900 2.356100
18.532200 2.349900
18.560600 2.386700
18.588900 2.384800
18.617300 2.664500
18.645600 3.474400
18.674000 3.506800
18.702300 2.746500
18.730700 2.217800
18.759000 1.978700
18.787400 1.939200
18.815700 1.852800
18.844100 1.835300
18.872400 1.783100
18.900800 1.748300
18.929100 1.704600
18.957500 1.708600
18.985800 1.691000
19.014200 1.693400
19.042500 1.686200
19.070900 1.656900
19.099200 1.651400
19.127600 1.692700
19.155900 1.700500
19.184300 1.712900
19.212600 1.788700
19.241000 1.786200
19.269300 1.804800
19.297700 1.860000
19.326000 1.881400
19.354400 1.897700
19.382700 2.065500
19.411100 1.944000
19.439400 1.987400
19.467800 1.861900
19.496100 1.659300
19.524500 1.594700
19.552800 1.454000
19.581200 1.312300
19.609500 1.215100
19.637900 1.154600
19.666200 1.109100
19.694600 1.080100
19.722900 1.022600
19.751300 1.046500
19.779600 1.004500
19.808000 1.022800
19.836300 1.015700
19.864700 1.041800
19.893000 1.102900
19.921400 1.198700
19.949700 1.293900
19.978100 1.551200
20.006400 1.569800
20.034700 1.530500
20.063100 1.422700
20.091400 1.418600
20.119800 1.433900
20.148100 1.405800
20.176500 1.381500
20.204800 1.394600
20.233200 1.405700
20.261500 1.443400
20.289900 1.502000
20.318200 1.610000
20.346600 1.682700
20.374900 1.754200
20.403300 1.877300
20.431600 1.955500
20.460000 2.030200
20.488300 2.117800
20.516700 2.229900
20.545000 2.199900
20.573400 2.234100
20.601700 2.239500
20.630100 2.262200
20.658400 2.361600
20.686800 2.175000
20.715100 2.319500
20.743500 2.266600
20.771800 2.308100
20.800200 2.282600
20.828500 2.232900
20.856900 2.126600
20.885200 2.123500
20.913600 2.496300
20.941900 2.118700
20.970300 2.222700
20.998600 2.365800
21.027000 2.331800
21.055300 2.439900
21.083700 2.352300
21.112000 2.303300
21.140400 2.092900
21.168700 2.004200
21.197100 2.133000
21.225400 2.023800
21.253800 1.927100
21.282100 1.851400
21.310500 1.816400
21.338800 1.771300
21.367200 1.938900
21.395500 2.078200
21.423900 2.362300
21.452200 2.593200
21.480500 2.606300
21.508900 2.758800
21.537200 2.800900
21.565600 2.943100
21.593900 3.056800
21.622300 3.157400
21.650600 3.871400
21.679000 3.771000
21.707300 3.553700
21.735700 3.413100
21.764000 3.240600
21.792400 3.116700
21.820700 3.229600
21.849100 3.092000
21.877400 2.827700
21.905800 2.823400
21.934100 2.991300
21.962500 2.767400
21.990800 2.716300
22.019200 2.904400
22.047500 2.603200
22.075900 2.438500
22.104200 2.317800
22.132600 2.269300
22.160900 2.206600
22.189300 2.278700
22.217600 2.456700
22.246000 2.937600
22.274300 2.115900
22.302700 2.163400
22.331000 2.237500
22.359400 2.432500
22.387700 2.633000
22.416100 2.602900
22.444400 2.529400
22.472800 2.414300
22.501100 2.407300
22.529500 2.643700
22.557800 2.678300
22.586200 2.535700
22.614500 2.276600
22.642900 2.261400
22.671200 2.386300
22.699600 2.556500
22.727900 2.569200
22.756300 2.615200
22.784600 2.562300
22.813000 2.505200
22.841300 2.321400
22.869700 2.070300
22.898000 2.000600
22.926400 2.021400
22.954700 2.123700
22.983000 2.345100
23.011400 2.517600
23.039700 2.752700
23.068100 2.503100
23.096400 2.432500
23.124800 2.478500
23.153100 2.513900
23.181500 2.376500
23.209800 2.170900
23.238200 2.106000
23.266500 2.006900
23.294900 1.953500
23.323200 1.931400
23.351600 1.943900
23.379900 2.446500
23.408300 2.255800
23.436600 2.041700
23.465000 1.965000
23.493300 1.902400
23.521700 1.913300
23.550000 1.911700
23.578400 1.854900
23.606700 1.825000
23.635100 1.899300
23.663400 1.976000
23.691800 1.988200
23.720100 2.053700
23.748500 2.144900
23.776800 2.165700
23.805200 2.207800
23.833500 2.258100
23.861900 2.789000
23.890200 2.548900
23.918600 2.670700
23.946900 2.824000
23.975300 3.001600
24.003600 3.258800
24.032000 3.600100
24.060300 4.301300
24.088700 4.979100
24.117000 6.301300
24.145400 10.346000
24.173700 19.670700
24.202100 45.960200
24.230400 18.304100
24.258800 15.940400
24.287100 15.164300
24.315500 12.546900
24.343800 13.538400
24.372200 14.823900
24.400500 30.981600
24.428900 19.219200
24.457200 7.966700
24.485500 8.403700
24.513900 5.647200
24.542200 4.955000
24.570600 4.495900
24.598900 4.663400
24.627300 4.717600
24.655600 6.351700
24.684000 8.116500
24.712300 10.889500
24.740700 12.239400
24.769000 35.975600
24.797400 18.592900
24.825700 14.920100
24.854100 8.153700
24.882400 5.296100
24.910800 3.774800
24.939100 3.467300
24.967500 3.135400
24.995800 2.757900
25.024200 2.517100
25.052500 2.613300
25.080900 2.094100
25.109200 2.062600
25.137600 2.327900
25.165900 2.506800
25.194300 2.273600
25.222600 2.195100
25.251000 2.006800
25.279300 2.005600
25.307700 1.978600
25.336000 2.048500
25.364400 1.767200
25.392700 1.665300
25.421100 1.497500
25.449400 1.449700
25.477800 1.420600
25.506100 1.410800
25.534500 1.418400
25.562800 1.432900
25.591200 1.440600
25.619500 1.451500
25.647900 1.467100
25.676200 1.491300
25.704600 1.509000
25.732900 1.729600
25.761300 1.788100
25.789600 1.760700
25.818000 1.689300
25.846300 1.652600
25.874700 1.648300
25.903000 1.716200
25.931400 1.739700
25.959700 1.787700
25.988000 1.848400
26.016400 1.897300
26.044700 1.884100
26.073100 2.010400
26.101400 2.013200
26.129800 1.996000
26.158100 1.976800
26.186500 1.970800
26.214800 1.964000
26.243200 1.962000
26.271500 1.949700
26.299900 1.940600
26.328200 1.880800
26.356600 1.797600
26.384900 1.714600
26.413300 1.647300
26.441600 1.593100
26.470000 1.679600
26.498300 1.553100
26.526700 1.475900
26.555000 1.432400
26.583400 1.397000
26.611700 1.430500
26.640100 1.356100
26.668400 1.370500
26.696800 1.431100
26.725100 1.330700
26.753500 1.321400
26.781800 1.316100
26.810200 1.308100
26.838500 1.296900
26.866900 1.301200
26.895200 1.302300
26.923600 1.331500
26.951900 1.383900
26.980300 1.400400
27.008600 1.421300
27.037000 1.447600
27.065300 1.567100
27.093700 1.598400
27.122000 1.585000
27.150400 1.566600
27.178700 1.644700
27.207100 1.672900
27.235400 1.658200
27.263800 1.620000
27.292100 1.582100
27.320500 1.512800
27.348800 1.473900
27.377200 1.437000
27.405500 1.417300
27.433900 1.387300
27.462200 1.359800
27.490500 1.334200
27.518900 1.266400
27.547200 1.255100
27.575600 1.240200
27.603900 1.265400
27.632300 1.333400
27.660600 1.282700
27.689000 1.208400
27.717300 1.113800
27.745700 1.043700
27.774000 1.041300
27.802400 1.036900
27.830700 1.026400
27.859100 1.009400
27.887400 1.013100
27.915800 1.036000
27.944100 1.019100
27.972500 0.999100
28.000800 0.983100
28.029200 1.106600
28.057500 0.876300
28.085900 0.861300
28.114200 0.850700
28.142600 0.885600
28.170900 0.824300
28.199300 0.823200
28.227600 0.826900
28.256000 0.838900
28.284300 0.851600
28.312700 0.855500
28.341000 0.884000
28.369400 0.881600
28.397700 0.895000
28.426100 0.903600
28.454400 0.902100
28.482800 0.911200
28.511100 0.917300
28.539500 0.911000
28.567800 0.929800
28.596200 0.892300
28.624500 0.996300
28.652900 1.078400
28.681200 1.146400
28.709600 1.176600
28.737900 1.362200
28.766300 1.426900
28.794600 1.466400
28.823000 1.461800
28.851300 1.412600
28.879700 1.372000
28.908000 1.314100
28.936300 1.190400
28.964700 1.145700
28.993000 1.108000
29.021400 1.088400
29.049700 1.079600
29.078100 1.048800
29.106400 1.021200
29.134800 0.967500
29.163100 0.929300
29.191500 0.898500
29.219800 0.874100
29.248200 0.850900
29.276500 0.816900
29.304900 0.781600
29.333200 0.737800
29.361600 0.703700
29.389900 0.802400
29.418300 0.622400
29.446600 0.551500
29.475000 0.512200
29.503300 0.506600
29.531700 0.544500
29.560000 0.762400
29.588400 1.185800
29.616700 0.766900
29.645100 0.843900
29.673400 1.033700
29.701800 1.286500
29.730100 1.596600
29.758500 2.011900
29.786800 2.205600
29.815200 2.024100
29.843500 2.058600
29.871900 2.047600
29.900200 1.962200
29.928600 1.857700
29.956900 1.803700
29.985300 1.736100
30.013600 1.657700
30.042000 1.549700
30.070300 1.417400
30.098700 1.391300
30.127000 1.425600
30.155400 1.432200
30.183700 1.461300
30.212100 1.501900
30.240400 1.542400
30.268800 1.591400
30.297100 1.680300
30.325500 1.782400
30.353800 1.722300
30.382200 1.718700
30.410500 1.985900
30.438800 1.723700
30.467200 1.772400
30.495500 1.797600
30.523900 1.866500
30.552200 1.865200
30.580600 1.857800
30.608900 1.878100
30.637300 1.843100
30.665600 1.885600
30.694000 1.919100
30.722300 1.928600
30.750700 1.930000
30.779000 1.930400
30.807400 1.951700
30.835700 2.042700
30.864100 2.169300
30.892400 2.363400
30.920800 2.442900
30.949100 2.554600
30.977500 2.929300
31.005800 2.755400
31.034200 2.827900
31.062500 3.031300
31.090900 2.932300
31.119200 2.935300
31.147600 2.895300
31.175900 2.494000
31.204300 2.344600
31.232600 2.133900
31.261000 2.029700
31.289300 1.942200
31.317700 1.894900
31.346000 1.859000
31.374400 1.917500
31.402700 1.967300
31.431100 2.166200
31.459400 2.333600
31.487800 2.345900
31.516100 2.442200
31.544500 2.476100
31.572800 2.517500
31.601200 2.535600
31.629500 2.585000
31.657900 2.672900
31.686200 2.795500
31.714600 2.766000
31.742900 2.831400
31.771300 2.957000
31.799600 2.993400
31.828000 2.999800
31.856300 3.142700
31.884700 3.160000
31.913000 2.798000
31.941300 2.692000
31.969700 2.472000
31.998000 2.405800
32.026400 2.343000
32.054700 2.276100
32.083100 2.281600
32.111400 2.404800
32.139800 2.339000
32.168100 2.398700
32.196500 2.499600
32.224800 2.581100
32.253200 2.777500
32.281500 2.816600
32.309900 2.768600
32.338200 2.798400
32.366600 2.560800
32.394900 2.398300
32.423300 2.259200
32.451600 2.199500
32.480000 2.148200
32.508300 1.927800
32.536700 1.864400
32.565000 2.014800
32.593400 2.015600
32.621700 2.059900
32.650100 2.004300
32.678400 1.947300
32.706800 1.952500
32.735100 1.975500
32.763500 2.012200
32.791800 1.999100
32.820200 2.018300
32.848500 2.051100
32.876900 2.024700
32.905200 1.960500
32.933600 1.904000
32.961900 1.867100
32.990300 1.783300
33.018600 1.742100
33.047000 1.698200
33.075300 1.690400
33.103700 1.634600
33.132000 1.638600
33.160400 1.630100
33.188700 1.625700
33.217100 1.612600
33.245400 1.591100
33.273800 1.600100
33.302100 1.614800
33.330500 1.620800
33.358800 1.649900
33.387200 1.676900
33.415500 1.701900
33.443800 1.713900
33.472200 1.706300
33.500500 1.672400
33.528900 1.646400
33.557200 1.648500
33.585600 1.657000
33.613900 1.648900
33.642300 1.649800
33.670600 1.654800
33.699000 1.650600
33.727300 1.669400
33.755700 1.699600
33.784000 1.734600
33.812400 1.766900
33.840700 1.935100
33.869100 1.885700
33.897400 1.825500
33.925800 1.776900
33.954100 1.773000
33.982500 1.753700
34.010800 1.806000
34.039200 1.934700
34.067500 1.959900
34.095900 2.118300
34.124200 2.188900
34.152600 2.211200
34.180900 2.129300
34.209300 2.213800
34.237600 2.264400
34.266000 2.487100
34.294300 2.403900
34.322700 2.445300
34.351000 2.297600
34.379400 2.409200
34.407700 2.555400
34.436100 2.495400
34.464400 2.570000
34.492800 2.636000
34.521100 2.691200
34.549500 2.787000
34.577800 2.860000
34.606200 2.886100
34.634500 3.087100
34.662900 3.426000
34.691200 3.128400
34.719600 2.858900
34.747900 2.727100
34.776300 2.755000
34.804600 2.628800
34.833000 2.726800
34.861300 2.615900
34.889700 2.566500
34.918000 2.602700
34.946300 2.657000
34.974700 2.699200
35.003000 2.800500
35.031400 2.894200
35.059700 3.003700
35.088100 3.077700
35.116400 3.304200
35.144800 3.309700
35.173100 3.391500
35.201500 3.358200
35.229800 3.402000
35.258200 3.319300
35.286500 3.198400
35.314900 3.215600
35.343200 3.191600
35.371600 3.079500
35.399900 2.961600
35.428300 2.903100
35.456600 2.863300
35.485000 2.847100
35.513300 2.813000
35.541700 2.698400
35.570000 2.771800
35.598400 2.759200
35.626700 2.747200
35.655100 2.730500
35.683400 2.694500
35.711800 2.763900
35.740100 2.826800
35.768500 2.905200
35.796800 2.894000
35.825200 2.940200
35.853500 2.912200
35.881900 2.831600
35.910200 2.649100
35.938600 2.509500
35.966900 2.369900
35.995300 2.299800
36.023600 2.226200
36.052000 2.155600
36.080300 2.209600
36.108700 2.203400
36.137000 2.057100
36.165400 2.043400
36.193700 2.030500
36.222100 2.024600
36.250400 2.250400
36.278800 2.139000
36.307100 2.238900
36.335500 2.316100
36.363800 2.393800
36.392200 2.453500
36.420500 2.455200
36.448800 2.402400
36.477200 2.365800
36.505500 2.343900
36.533900 2.228700
36.562200 2.115100
36.590600 2.052900
36.618900 2.067800
36.647300 2.039700
36.675600 2.057500
36.704000 2.002900
36.732300 2.013600
36.760700 2.158600
36.789000 2.106300
36.817400 2.109700
36.845700 2.110600
36.874100 2.212200
36.902400 2.287400
36.930800 2.368300
36.959100 2.338400
36.987500 2.347200
37.015800 2.366500
37.044200 2.382100
37.072500 2.390900
37.100900 2.430200
37.129200 2.365000
37.157600 2.295500
37.185900 2.191100
37.214300 2.067400
37.242600 2.011300
37.271000 1.991500
37.299300 2.041700
37.327700 2.027700
37.356000 2.130900
37.384400 2.287600
37.412700 2.269900
37.441100 2.406300
37.469400 2.296700
37.497800 2.270800
37.526100 2.045600
37.554500 2.082900
37.582800 1.970300
37.611200 1.964600
37.639500 2.047500
37.667900 2.063400
37.696200 1.942500
37.724600 1.928500
37.752900 1.846000
37.781300 1.848100
37.809600 1.766700
37.838000 1.633400
37.866300 1.661000
37.894600 1.726800
37.923000 1.643600
37.951300 1.578600
37.979700 1.565400
38.008000 1.538900
38.036400 1.535900
38.064700 1.532500
38.093100 1.682200
38.121400 1.691600
38.149800 1.613800
38.178100 1.559100
38.206500 1.476000
38.234800 1.417700
38.263200 1.356400
38.291500 1.303500
38.319900 1.261400
38.348200 1.226700
38.376600 1.164400
38.404900 1.093000
38.433300 1.032600
38.461600 0.943400
38.490000 0.865300
38.518300 0.833500
38.546700 0.811900
38.575000 0.789600
38.603400 0.766700
38.631700 0.741700
38.660100 0.740500
38.688400 0.719200
38.716800 0.726900
38.745100 0.671300
38.773500 0.618200
38.801800 0.595800
38.830200 0.586400
38.858500 0.552200
38.886900 0.538500
38.915200 0.530800
38.943600 0.532700
38.971900 0.524500
39.000300 0.503100
39.028600 0.472600
39.057000 0.452300
39.085300 0.434000
39.113700 0.421600
39.142000 0.416900
39.170400 0.421700
39.198700 0.370800
39.227100 0.346000
39.255400 0.360500
39.283800 0.284700
39.312100 0.251900
39.340500 0.220900
39.368800 0.197300
39.397100 0.179600
39.425500 0.167100
39.453800 0.156300
39.482200 0.146000
39.510500 0.136100
39.538900 0.118800
39.567200 0.098600
39.595600 0.088100
39.623900 0.078700
39.652300 0.075600
39.680600 0.072600
39.709000 0.069600
39.737300 0.066700
39.765700 0.063800
39.794000 0.061000
39.822400 0.058200
39.850700 0.055500
39.879100 0.052800
39.907400 0.050200
39.935800 0.047600
39.964100 0.045100
39.992500 0.042600
40.020800 0.040100
40.049200 0.042400
40.077500 0.038800
40.105900 0.042400
40.134200 0.037800
40.162600 0.033500
40.190900 0.029300
40.219300 0.025300
40.247600 0.021500
40.276000 0.000000
40.304300 0.000000
40.332700 0.000000
40.361000 0.000000
40.389400 0.000000
40.417700 0.000000
40.446100 0.000000
40.474400 0.000000
40.502800 0.000000
40.531100 0.000000
40.559500 0.000000
40.587800 0.000000
40.616200 0.000000
40.644500 0.000000
40.672900 0.000000
40.701200 0.000000
40.729600 0.000000
40.757900 0.000000
40.786300 0.000000
40.814600 0.000000
40.843000 0.000000
40.871300 0.000000
40.899600 0.000000
40.928000 0.000000
40.956300 0.000000
40.984700 0.000000
41.013000 0.000000
41.041400 0.000000
41.069700 0.000000
41.098100 0.000000
41.126400 0.000000
41.154800 0.000000
41.183100 0.000000
41.211500 0.000000
41.239800 0.000000
41.268200 0.000000
41.296500 0.000000
41.324900 0.000000
41.353200 0.000000
41.381600 0.000000
41.409900 0.000000
41.438300 0.000000
41.466600 0.000000
41.495000 0.000000
41.523300 0.000000
41.551700 0.000000
41.580000 0.000000
41.608400 0.000000
41.636700 0.000000
41.665100 0.000000
41.693400 0.000000
41.721800 0.000000
41.750100 0.000000
41.778500 0.000000
41.806800 0.000000
41.835200 0.000000
41.863500 0.000000
41.891900 0.000000
41.920200 0.000000
41.948600 0.000000
41.976900 0.000000
42.005300 0.000000
42.033600 0.000000
42.062000 0.000000
42.090300 0.000000
42.118700 0.000000
42.147000 0.000000
42.175400 0.000000
42.203700 0.000000
42.232100 0.000000
42.260400 0.000000
42.288800 0.000000
42.317100 0.000000
42.345500 0.000000
42.373800 0.000000
42.402100 0.000000
42.430500 0.000000
42.458800 0.000000
42.487200 0.000000
42.515500 0.000000
42.543900 0.000000
42.572200 0.000000
42.600600 0.000000
42.628900 0.000000
42.657300 0.000000
42.685600 0.000000
42.714000 0.000000
42.742300 0.000000
42.770700 0.000000
42.799000 0.000000
42.827400 0.000000
e
