set title 'mp-1224812 - Density of States'
set xlabel 'Energy (eV)'
set ylabel 'DOS (states/eV)'
set grid
set xrange [-10:10]
set yrange [0:23.722]
set xzeroaxis lt -1
set terminal png size 800,600
set output 'mp-1224812_dos_gnuplot.png'
plot '-' using 1:2 with lines title 'DOS'
-13.104300 0.000000
-13.073500 0.000000
-13.042700 0.000000
-13.012000 0.000000
-12.981200 0.000000
-12.950400 0.000000
-12.919700 0.000000
-12.888900 0.000000
-12.858200 0.000000
-12.827400 0.000000
-12.796600 0.000000
-12.765900 0.000000
-12.735100 0.000000
-12.704400 0.000000
-12.673600 0.000000
-12.642800 0.000000
-12.612100 0.000000
-12.581300 0.000000
-12.550600 0.000000
-12.519800 0.000000
-12.489000 0.000000
-12.458300 0.000000
-12.427500 0.000000
-12.396800 0.000000
-12.366000 0.000000
-12.335200 0.000000
-12.304500 0.000000
-12.273700 0.000000
-12.243000 0.000000
-12.212200 0.000000
-12.181400 0.000000
-12.150700 0.000000
-12.119900 0.000000
-12.089200 0.000000
-12.058400 0.000000
-12.027600 0.000000
-11.996900 0.000000
-11.966100 0.000000
-11.935400 0.000000
-11.904600 0.000000
-11.873800 0.000000
-11.843100 0.000000
-11.812300 0.000000
-11.781500 0.000000
-11.750800 0.000000
-11.720000 0.000000
-11.689300 0.000000
-11.658500 0.000000
-11.627700 0.000000
-11.597000 0.000000
-11.566200 0.000000
-11.535500 0.000000
-11.504700 0.000000
-11.473900 0.000000
-11.443200 0.000000
-11.412400 0.000000
-11.381700 0.000000
-11.350900 0.000000
-11.320100 0.000000
-11.289400 0.000000
-11.258600 0.000000
-11.227900 0.000000
-11.197100 0.000000
-11.166300 0.000000
-11.135600 0.000000
-11.104800 0.000000
-11.074100 0.000000
-11.043300 0.000000
-11.012500 0.000000
-10.981800 0.000000
-10.951000 0.000000
-10.920300 0.000000
-10.889500 0.000000
-10.858700 0.000000
-10.828000 0.000000
-10.797200 0.000000
-10.766500 0.000000
-10.735700 0.000000
-10.704900 0.000000
-10.674200 0.000000
-10.643400 0.000000
-10.612700 0.000000
-10.581900 0.000000
-10.551100 0.000000
-10.520400 0.000000
-10.489600 0.000000
-10.458800 0.000000
-10.428100 0.000000
-10.397300 0.000000
-10.366600 0.000000
-10.335800 0.000000
-10.305000 0.000000
-10.274300 2.114100
-10.243500 2.103400
-10.212800 2.356400
-10.182000 2.445700
-10.151200 2.733300
-10.120500 3.013600
-10.089700 3.690100
-10.059000 5.249300
-10.028200 4.299100
-9.997400 1.854400
-9.966700 1.206000
-9.935900 6.774000
-9.905200 7.158600
-9.874400 9.993600
-9.843600 7.120200
-9.812900 3.561900
-9.782100 2.320400
-9.751400 7.865500
-9.720600 6.950300
-9.689800 3.878300
-9.659100 8.280900
-9.628300 8.870700
-9.597600 12.805600
-9.566800 4.725300
-9.536000 21.565000
-9.505300 7.501000
-9.474500 3.807000
-9.443800 2.548300
-9.413000 2.009400
-9.382200 0.000000
-9.351500 0.000000
-9.320700 0.000000
-9.289900 0.000000
-9.259200 0.000000
-9.228400 0.000000
-9.197700 0.000000
-9.166900 0.000000
-9.136100 0.000000
-9.105400 0.000000
-9.074600 0.000000
-9.043900 0.000000
-9.013100 0.000000
-8.982300 0.000000
-8.951600 0.000000
-8.920800 0.000000
-8.890100 0.000000
-8.859300 0.000000
-8.828500 0.000000
-8.797800 0.000000
-8.767000 0.000000
-8.736300 0.000000
-8.705500 0.000000
-8.674700 0.000000
-8.644000 0.000000
-8.613200 0.000000
-8.582500 0.000000
-8.551700 0.000000
-8.520900 0.000000
-8.490200 0.000000
-8.459400 0.000000
-8.428700 0.000000
-8.397900 0.000000
-8.367100 0.000000
-8.336400 0.000000
-8.305600 0.000000
-8.274900 0.000000
-8.244100 0.000000
-8.213300 0.000000
-8.182600 0.000000
-8.151800 0.000000
-8.121100 0.000000
-8.090300 0.000000
-8.059500 0.000000
-8.028800 0.000000
-7.998000 0.000000
-7.967200 0.000000
-7.936500 0.000000
-7.905700 0.000000
-7.875000 0.000000
-7.844200 0.000000
-7.813400 0.000000
-7.782700 0.000000
-7.751900 0.000000
-7.721200 0.000000
-7.690400 0.000000
-7.659600 0.000000
-7.628900 0.000000
-7.598100 0.000000
-7.567400 0.000000
-7.536600 0.000000
-7.505800 0.000000
-7.475100 0.000000
-7.444300 0.000000
-7.413600 0.000000
-7.382800 0.000000
-7.352000 0.000000
-7.321300 0.000000
-7.290500 0.000000
-7.259800 0.000000
-7.229000 0.000000
-7.198200 0.000000
-7.167500 0.000000
-7.136700 0.000000
-7.106000 0.000000
-7.075200 0.000000
-7.044400 0.000000
-7.013700 0.000000
-6.982900 0.000000
-6.952200 0.000000
-6.921400 0.000000
-6.890600 0.000000
-6.859900 0.000000
-6.829100 0.000000
-6.798300 0.000000
-6.767600 0.000000
-6.736800 0.000000
-6.706100 0.000000
-6.675300 0.000000
-6.644500 0.000000
-6.613800 0.000000
-6.583000 0.000000
-6.552300 0.002800
-6.521500 0.038000
-6.490700 0.073400
-6.460000 0.108800
-6.429200 0.144200
-6.398500 0.179600
-6.367700 0.215000
-6.336900 0.109700
-6.306200 0.112400
-6.275400 0.115200
-6.244700 0.118000
-6.213900 0.120800
-6.183100 0.123500
-6.152400 0.126300
-6.121600 0.129100
-6.090900 0.131900
-6.060100 0.134700
-6.029300 0.137400
-5.998600 0.140200
-5.967800 0.141300
-5.937100 0.137400
-5.906300 0.133500
-5.875500 0.129500
-5.844800 0.125600
-5.814000 0.121700
-5.783300 0.117800
-5.752500 0.117900
-5.721700 0.118800
-5.691000 0.119800
-5.660200 0.120700
-5.629500 0.121600
-5.598700 0.122500
-5.567900 0.123400
-5.537200 0.124400
-5.506400 0.125300
-5.475600 0.126200
-5.444900 0.127100
-5.414100 0.128000
-5.383400 0.128900
-5.352600 0.129900
-5.321800 0.130800
-5.291100 0.131700
-5.260300 0.132600
-5.229600 0.133500
-5.198800 0.134500
-5.168000 0.123700
-5.137300 0.123500
-5.106500 0.123200
-5.075800 0.122900
-5.045000 0.122600
-5.014200 0.122300
-4.983500 0.122000
-4.952700 0.121800
-4.922000 0.121500
-4.891200 0.121200
-4.860400 0.120900
-4.829700 0.120600
-4.798900 0.120400
-4.768200 0.120200
-4.737400 0.120700
-4.706600 0.121200
-4.675900 0.121600
-4.645100 0.122100
-4.614400 0.122600
-4.583600 0.123100
-4.552800 0.123500
-4.522100 0.124000
-4.491300 0.124500
-4.460600 0.124900
-4.429800 0.125400
-4.399000 0.125900
-4.368300 0.126400
-4.337500 0.126800
-4.306700 0.127300
-4.276000 0.127800
-4.245200 0.128200
-4.214500 0.128700
-4.183700 0.129200
-4.152900 0.129500
-4.122200 0.128300
-4.091400 0.127000
-4.060700 0.125800
-4.029900 0.124600
-3.999100 0.123400
-3.968400 0.122200
-3.937600 0.121900
-3.906900 0.122000
-3.876100 0.122100
-3.845300 0.122300
-3.814600 0.122400
-3.783800 0.122500
-3.753100 0.122600
-3.722300 0.122800
-3.691500 0.122900
-3.660800 0.123000
-3.630000 0.123200
-3.599300 0.123300
-3.568500 0.123400
-3.537700 0.123500
-3.507000 0.123700
-3.476200 0.123800
-3.445500 0.123900
-3.414700 0.124000
-3.383900 0.124200
-3.353200 0.124300
-3.322400 0.124700
-3.291700 0.125000
-3.260900 0.125300
-3.230100 0.125700
-3.199400 0.126000
-3.168600 0.126400
-3.137900 0.126700
-3.107100 0.127000
-3.076300 0.127400
-3.045600 0.127700
-3.014800 0.128000
-2.984000 0.129300
-2.953300 0.134800
-2.922500 0.142700
-2.891800 0.152400
-2.861000 0.163500
-2.830200 0.175900
-2.799500 0.189400
-2.768700 0.202800
-2.738000 0.195100
-2.707200 0.197200
-2.676400 0.200700
-2.645700 0.204700
-2.614900 0.208600
-2.584200 0.213100
-2.553400 0.217700
-2.522600 0.222300
-2.491900 0.228300
-2.461100 0.234200
-2.430400 0.239600
-2.399600 0.244400
-2.368800 0.248200
-2.338100 0.250600
-2.307300 0.250500
-2.276600 0.246800
-2.245800 0.247400
-2.215000 0.250300
-2.184300 0.254500
-2.153500 0.258900
-2.122800 0.263500
-2.092000 0.268500
-2.061200 0.274200
-2.030500 0.278700
-1.999700 0.281100
-1.969000 0.283800
-1.938200 0.286700
-1.907400 0.289700
-1.876700 0.292900
-1.845900 0.295900
-1.815100 0.299100
-1.784400 0.302500
-1.753600 0.305900
-1.722900 0.309500
-1.692100 0.313400
-1.661300 0.317700
-1.630600 0.322100
-1.599800 0.326700
-1.569100 0.331400
-1.538300 0.335900
-1.507500 0.340200
-1.476800 0.344100
-1.446000 0.347400
-1.415300 0.350900
-1.384500 0.354600
-1.353700 0.358300
-1.323000 0.362100
-1.292200 0.366100
-1.261500 0.370000
-1.230700 0.374100
-1.199900 0.378100
-1.169200 0.382400
-1.138400 0.386800
-1.107700 0.391100
-1.076900 0.395800
-1.046100 0.400800
-1.015400 0.405900
-0.984600 0.412200
-0.953900 0.418900
-0.923100 0.425200
-0.892300 0.431200
-0.861600 0.436500
-0.830800 0.441000
-0.800100 0.444700
-0.769300 0.447500
-0.738500 0.449500
-0.707800 0.453300
-0.677000 0.465700
-0.646300 0.475500
-0.615500 0.482800
-0.584700 0.488600
-0.554000 0.589800
-0.523200 0.605500
-0.492400 0.601800
-0.461700 0.598600
-0.430900 0.595800
-0.400200 0.593400
-0.369400 0.591400
-0.338600 0.589800
-0.307900 0.588600
-0.277100 0.588100
-0.246400 0.588100
-0.215600 0.588300
-0.184800 0.588900
-0.154100 0.589900
-0.123300 0.591100
-0.092600 0.592600
-0.061800 0.594200
-0.031000 0.596000
-0.000300 0.603400
0.030500 0.613600
0.061200 0.625000
0.092000 0.637800
0.122800 0.652100
0.153500 0.667700
0.184300 0.684100
0.215000 0.702000
0.245800 0.725500
0.276600 0.761400
0.307300 0.808700
0.338100 0.865900
0.368800 0.923100
0.399600 0.979900
0.430400 1.032500
0.461100 1.080300
0.491900 1.647700
0.522600 1.657900
0.553400 1.595700
0.584200 1.605300
0.614900 1.702100
0.645700 1.689400
0.676500 2.068200
0.707200 2.615400
0.738000 2.729800
0.768700 2.517000
0.799500 2.242900
0.830300 2.038000
0.861000 2.070100
0.891800 2.183500
0.922500 2.344900
0.953300 2.426600
0.984100 2.445400
1.014800 2.419400
1.045600 2.399700
1.076300 2.450200
1.107100 2.501200
1.137900 2.563000
1.168600 2.792600
1.199400 3.445600
1.230100 4.044600
1.260900 3.827300
1.291700 3.941000
1.322400 4.146100
1.353200 4.727800
1.383900 4.419300
1.414700 4.073000
1.445500 4.065400
1.476200 4.168200
1.507000 4.083100
1.537700 4.042400
1.568500 4.207500
1.599300 4.473600
1.630000 4.897100
1.660800 3.574300
1.691500 4.116200
1.722300 4.521800
1.753100 4.222300
1.783800 3.597700
1.814600 3.430700
1.845300 3.582300
1.876100 3.776800
1.906900 4.075600
1.937600 3.907300
1.968400 2.944400
1.999200 4.193900
2.029900 4.616600
2.060700 4.462900
2.091400 3.699400
2.122200 3.215500
2.153000 3.341700
2.183700 3.766100
2.214500 3.912700
2.245200 4.317100
2.276000 3.792500
2.306800 3.998700
2.337500 4.646500
2.368300 4.176100
2.399000 3.901800
2.429800 4.178000
2.460600 5.115700
2.491300 4.523100
2.522100 4.249100
2.552800 4.208400
2.583600 4.150200
2.614400 4.920300
2.645100 4.866700
2.675900 5.132900
2.706600 5.636200
2.737400 7.033500
2.768200 8.716100
2.798900 6.134700
2.829700 6.158700
2.860400 8.778000
2.891200 8.853000
2.922000 7.277100
2.952700 5.076900
2.983500 4.404600
3.014200 5.340100
3.045000 8.502600
3.075800 5.905100
3.106500 8.114500
3.137300 6.301100
3.168100 4.006800
3.198800 3.749800
3.229600 4.224700
3.260300 6.553700
3.291100 7.733000
3.321900 5.557400
3.352600 5.037600
3.383400 5.288400
3.414100 5.225100
3.444900 5.234700
3.475700 4.274300
3.506400 4.427800
3.537200 4.331800
3.567900 4.234300
3.598700 3.931200
3.629500 5.079200
3.660200 5.127400
3.691000 4.608900
3.721700 5.458200
3.752500 4.419600
3.783300 4.237200
3.814000 4.708900
3.844800 4.730100
3.875500 5.956600
3.906300 7.355000
3.937100 7.196200
3.967800 6.895900
3.998600 7.459000
4.029300 6.513300
4.060100 5.838800
4.090900 5.663800
4.121600 5.539200
4.152400 5.574500
4.183100 4.844600
4.213900 4.319400
4.244700 4.248300
4.275400 6.831100
4.306200 6.486900
4.336900 5.970700
4.367700 5.558300
4.398500 4.756300
4.429200 4.807400
4.460000 8.030400
4.490800 5.570000
4.521500 5.743000
4.552300 6.785500
4.583000 7.581800
4.613800 11.338500
4.644600 3.250200
4.675300 2.268500
4.706100 2.130500
4.736800 2.289800
4.767600 2.360800
4.798400 2.338100
4.829100 2.197500
4.859900 2.114400
4.890600 2.041000
4.921400 1.995200
4.952200 1.928300
4.982900 1.835500
5.013700 1.755100
5.044400 1.690800
5.075200 1.674000
5.106000 1.709500
5.136700 1.704100
5.167500 1.577400
5.198200 1.172400
5.229000 1.129900
5.259800 1.116400
5.290500 1.183100
5.321300 1.016700
5.352000 0.931000
5.382800 0.904600
5.413600 0.892400
5.444300 0.881900
5.475100 0.873100
5.505800 0.864600
5.536600 0.856300
5.567400 0.848400
5.598100 0.840800
5.628900 0.834000
5.659700 0.827800
5.690400 0.822200
5.721200 0.816900
5.751900 0.811700
5.782700 0.812800
5.813500 0.850800
5.844200 0.898100
5.875000 0.951000
5.905700 1.008700
5.936500 1.077800
5.967300 1.168600
5.998000 1.311700
6.028800 1.695000
6.059500 0.934000
6.090300 0.760200
6.121100 0.675700
6.151800 0.655800
6.182600 0.646800
6.213300 0.580300
6.244100 0.567100
6.274900 0.566700
6.305600 0.571200
6.336400 0.579600
6.367100 0.590700
6.397900 0.605900
6.428700 0.620600
6.459400 0.634800
6.490200 0.649100
6.520900 0.663100
6.551700 0.675300
6.582500 0.683600
6.613200 0.690400
6.644000 0.696200
6.674700 0.701400
6.705500 0.707800
6.736300 0.721000
6.767000 0.732800
6.797800 0.735600
6.828500 0.737000
6.859300 0.738500
6.890100 0.737400
6.920800 0.733500
6.951600 0.722400
6.982400 0.709700
7.013100 0.695000
7.043900 0.676500
7.074600 0.643100
7.105400 0.612300
7.136200 0.596300
7.166900 0.580000
7.197700 0.581600
7.228400 0.588700
7.259200 0.599800
7.290000 0.615300
7.320700 0.632100
7.351500 0.649700
7.382200 0.671400
7.413000 0.695900
7.443800 0.723800
7.474500 0.762700
7.505300 0.799300
7.536000 0.720500
7.566800 0.684500
7.597600 0.666600
7.628300 0.656100
7.659100 0.645500
7.689800 0.643200
7.720600 0.681600
7.751400 0.700200
7.782100 0.748800
7.812900 0.854400
7.843600 0.892000
7.874400 0.738500
7.905200 0.630300
7.935900 0.577200
7.966700 0.540500
7.997400 0.514800
8.028200 0.500300
8.059000 0.503100
8.089700 0.510100
8.120500 0.517300
8.151300 0.524300
8.182000 0.531900
8.212800 0.539700
8.243500 0.547200
8.274300 0.553900
8.305100 0.649400
8.335800 0.737500
8.366600 0.793500
8.397300 0.828000
8.428100 0.829800
8.458900 0.801900
8.489600 0.772200
8.520400 0.747400
8.551100 0.722800
8.581900 0.691100
8.612700 0.667900
8.643400 0.646700
8.674200 0.637600
8.704900 0.647500
8.735700 0.672000
8.766500 0.609000
8.797200 0.587600
8.828000 0.567300
8.858700 0.544900
8.889500 0.524600
8.920300 0.496100
8.951000 0.482700
8.981800 0.483000
9.012500 0.494100
9.043300 0.533000
9.074100 0.571400
9.104800 0.472300
9.135600 0.396900
9.166300 0.383700
9.197100 0.380800
9.227900 0.381700
9.258600 0.383800
9.289400 0.384400
9.320100 0.384900
9.350900 0.409500
9.381700 0.436000
9.412400 0.453700
9.443200 0.462800
9.474000 0.467300
9.504700 0.470700
9.535500 0.478200
9.566200 0.488000
9.597000 0.495600
9.627800 0.497900
9.658500 0.497800
9.689300 0.495900
9.720000 0.493900
9.750800 0.493300
9.781600 0.492400
9.812300 0.492700
9.843100 0.493500
9.873800 0.493400
9.904600 0.490300
9.935400 0.485600
9.966100 0.477900
9.996900 0.467700
10.027600 0.461700
10.058400 0.455800
10.089200 0.449600
10.119900 0.442700
10.150700 0.433100
10.181400 0.425200
10.212200 0.418500
10.243000 0.412700
10.273700 0.408600
10.304500 0.400700
10.335200 0.490700
10.366000 0.621100
10.396800 0.761700
10.427500 0.907400
10.458300 1.025600
10.489000 1.101300
10.519800 1.156800
10.550600 1.071600
10.581300 0.733300
10.612100 0.696900
10.642900 0.668000
10.673600 0.630200
10.704400 0.587000
10.735100 0.567000
10.765900 0.551900
10.796700 0.536300
10.827400 0.520400
10.858200 0.508900
10.888900 0.477600
10.919700 0.462900
10.950500 0.463300
10.981200 0.467200
11.012000 0.476600
11.042700 0.508300
11.073500 0.532000
11.104300 0.550800
11.135000 0.571200
11.165800 0.599700
11.196500 0.637100
11.227300 0.683000
11.258100 0.755200
11.288800 0.759300
11.319600 0.775600
11.350300 0.776300
11.381100 0.789300
11.411900 0.805800
11.442600 0.792000
11.473400 0.781400
11.504100 0.792000
11.534900 0.822000
11.565700 0.834900
11.596400 0.824600
11.627200 0.799800
11.657900 0.763000
11.688700 0.725600
11.719500 0.695600
11.750200 0.669000
11.781000 0.644100
11.811700 0.625800
11.842500 0.608100
11.873300 0.594300
11.904000 0.585600
11.934800 0.590200
11.965600 0.594700
11.996300 0.608900
12.027100 0.633300
12.057800 0.663400
12.088600 0.696800
12.119400 0.727000
12.150100 0.753000
12.180900 0.771900
12.211600 0.795100
12.242400 0.818900
12.273200 0.834200
12.303900 0.838100
12.334700 0.807100
12.365400 0.796700
12.396200 0.814000
12.427000 0.864200
12.457700 0.920700
12.488500 0.935000
12.519200 0.900500
12.550000 0.859100
12.580800 0.835000
12.611500 0.817800
12.642300 0.799700
12.673000 0.784300
12.703800 0.769100
12.734600 0.754300
12.765300 0.739700
12.796100 0.729700
12.826800 0.735600
12.857600 0.742000
12.888400 0.744100
12.919100 0.747800
12.949900 0.755200
12.980600 0.764400
13.011400 0.774100
13.042200 0.782500
13.072900 0.788200
13.103700 0.791100
13.134500 0.792200
13.165200 0.796700
13.196000 0.813900
13.226700 0.854900
13.257500 0.860700
13.288300 0.802300
13.319000 0.826200
13.349800 0.859900
13.380500 0.878700
13.411300 0.904200
13.442100 0.900200
13.472800 0.878400
13.503600 0.882800
13.534300 0.858700
13.565100 0.865500
13.595900 0.874500
13.626600 0.885000
13.657400 0.890600
13.688100 0.909700
13.718900 0.914200
13.749700 0.940600
13.780400 0.980100
13.811200 0.942100
13.841900 0.897300
13.872700 0.843000
13.903500 0.783200
13.934200 0.743000
13.965000 0.727900
13.995700 0.716200
14.026500 0.704700
14.057300 0.696300
14.088000 0.687000
14.118800 0.682000
14.149500 0.680000
14.180300 0.680400
14.211100 0.684100
14.241800 0.691800
14.272600 0.727700
14.303300 0.769300
14.334100 0.744900
14.364900 0.727300
14.395600 0.722500
14.426400 0.724400
14.457200 0.761400
14.487900 0.739500
14.518700 0.712500
14.549400 0.702000
14.580200 0.695100
14.611000 0.690900
14.641700 0.691800
14.672500 0.731000
14.703200 0.760700
14.734000 0.765900
14.764800 0.756600
14.795500 0.749300
14.826300 0.741700
14.857000 0.740000
14.887800 0.741700
14.918600 0.757400
14.949300 0.779600
14.980100 0.806800
15.010800 0.827900
15.041600 0.840500
15.072400 0.850700
15.103100 0.856600
15.133900 0.867400
15.164600 0.876500
15.195400 0.874800
15.226200 0.870100
15.256900 0.860000
15.287700 0.848700
15.318400 0.839400
15.349200 0.828100
15.380000 0.824400
15.410700 0.824000
15.441500 0.827500
15.472200 0.844200
15.503000 0.868000
15.533800 0.894100
15.564500 0.944300
15.595300 0.916700
15.626100 0.915300
15.656800 0.921000
15.687600 0.921400
15.718300 0.913200
15.749100 0.906700
15.779900 0.898600
15.810600 0.892300
15.841400 0.890300
15.872100 0.891000
15.902900 0.894200
15.933700 0.905500
15.964400 0.926900
15.995200 0.948300
16.025900 0.927100
16.056700 0.950200
16.087500 0.982700
16.118200 1.002700
16.149000 0.997400
16.179700 0.992700
16.210500 0.998300
16.241300 0.994000
16.272000 0.980100
16.302800 0.984800
16.333500 0.992500
16.364300 0.975600
16.395100 0.957200
16.425800 0.940700
16.456600 0.928700
16.487300 0.938400
16.518100 0.959000
16.548900 0.970700
16.579600 0.976400
16.610400 0.976500
16.641100 0.971800
16.671900 0.978700
16.702700 0.947800
16.733400 0.939500
16.764200 0.930600
16.794900 0.922600
16.825700 0.925900
16.856500 0.928400
16.887200 0.914200
16.918000 0.883500
16.948800 0.846200
16.979500 0.838300
17.010300 0.834900
17.041000 0.832600
17.071800 0.829900
17.102600 0.826000
17.133300 0.824800
17.164100 0.822500
17.194800 0.828200
17.225600 0.848200
17.256400 0.840500
17.287100 0.847000
17.317900 0.851000
17.348600 0.849300
17.379400 0.846000
17.410200 0.839100
17.440900 0.831600
17.471700 0.831600
17.502400 0.832400
17.533200 0.832500
17.564000 0.831800
17.594700 0.832200
17.625500 0.834800
17.656200 0.841400
17.687000 0.856200
17.717800 0.862900
17.748500 0.843700
17.779300 0.869700
17.810000 0.924400
17.840800 0.975700
17.871600 0.981800
17.902300 1.013000
17.933100 0.995700
17.963800 0.975900
17.994600 0.966700
18.025400 0.963200
18.056100 0.959400
18.086900 0.956100
18.117700 0.954200
18.148400 0.953700
18.179200 0.954100
18.209900 0.956400
18.240700 0.957600
18.271500 0.960200
18.302200 1.005800
18.333000 0.975000
18.363700 0.980800
18.394500 0.955100
18.425300 0.950100
18.456000 0.949600
18.486800 0.948100
18.517500 0.954300
18.548300 0.962900
18.579100 0.971600
18.609800 0.980300
18.640600 0.990600
18.671300 1.004600
18.702100 1.019000
18.732900 1.030400
18.763600 1.039500
18.794400 1.046400
18.825100 1.049000
18.855900 1.050100
18.886700 1.054600
18.917400 1.066700
18.948200 1.071300
18.978900 1.076700
19.009700 1.083300
19.040500 1.092800
19.071200 1.097000
19.102000 1.092700
19.132700 1.092100
19.163500 1.092500
19.194300 1.093000
19.225000 1.096600
19.255800 1.100900
19.286500 1.106100
19.317300 1.106700
19.348100 1.103500
19.378800 1.102200
19.409600 1.099200
19.440400 1.091600
19.471100 1.102500
19.501900 1.114000
19.532600 1.126600
19.563400 1.144400
19.594200 1.169400
19.624900 1.164500
19.655700 1.194000
19.686400 1.196500
19.717200 1.180300
19.748000 1.167400
19.778700 1.146000
19.809500 1.115000
19.840200 1.074000
19.871000 1.065700
19.901800 1.054000
19.932500 1.039000
19.963300 1.028700
19.994000 1.023500
20.024800 1.023900
20.055600 1.025200
20.086300 1.028300
20.117100 1.032600
20.147800 1.036800
20.178600 1.041000
20.209400 1.047800
20.240100 1.059400
20.270900 1.068300
20.301600 1.067800
20.332400 1.052500
20.363200 1.041200
20.393900 1.036900
20.424700 1.026000
20.455400 1.030300
20.486200 1.043000
20.517000 1.056600
20.547700 1.065200
20.578500 1.067500
20.609300 1.066500
20.640000 1.061600
20.670800 1.048600
20.701500 1.033100
20.732300 1.020700
20.763100 1.012100
20.793800 1.007400
20.824600 1.005000
20.855300 1.007200
20.886100 1.031200
20.916900 1.016500
20.947600 0.995000
20.978400 0.984500
21.009100 0.973800
21.039900 0.963800
21.070700 0.962500
21.101400 0.962200
21.132200 0.968300
21.162900 0.979500
21.193700 0.989500
21.224500 0.998500
21.255200 1.005700
21.286000 1.011100
21.316700 1.014100
21.347500 1.015000
21.378300 1.013400
21.409000 1.016800
21.439800 1.018400
21.470500 1.022500
21.501300 1.029500
21.532100 1.038800
21.562800 1.078800
21.593600 1.068500
21.624300 1.066200
21.655100 1.061800
21.685900 1.053600
21.716600 1.073100
21.747400 1.083700
21.778100 1.097700
21.808900 1.090400
21.839700 1.070300
21.870400 1.057000
21.901200 1.039700
21.932000 1.022800
21.962700 1.009500
21.993500 0.999100
22.024200 0.990100
22.055000 0.982600
22.085800 0.975600
22.116500 0.970000
22.147300 0.964500
22.178000 0.959700
22.208800 0.977200
22.239600 0.984500
22.270300 0.978800
22.301100 0.981200
22.331800 0.990700
22.362600 0.987000
22.393400 0.979500
22.424100 0.977000
22.454900 0.974600
22.485600 0.971600
22.516400 0.967600
22.547200 0.963100
22.577900 0.959100
22.608700 0.956100
22.639400 0.954300
22.670200 0.948700
22.701000 0.951600
22.731700 0.953500
22.762500 0.955800
22.793200 0.958300
22.824000 0.959400
22.854800 0.963100
22.885500 0.963700
22.916300 0.970800
22.947000 0.975500
22.977800 0.975400
23.008600 0.970000
23.039300 0.964700
23.070100 0.956300
23.100900 0.948400
23.131600 0.940200
23.162400 0.931600
23.193100 0.923500
23.223900 0.926500
23.254700 0.929200
23.285400 0.924100
23.316200 0.918900
23.346900 0.913600
23.377700 0.907700
23.408500 0.901300
23.439200 0.894900
23.470000 0.889000
23.500700 0.884600
23.531500 0.883600
23.562300 0.884600
23.593000 0.886300
23.623800 0.889700
23.654500 0.893700
23.685300 0.898300
23.716100 0.903800
23.746800 0.908700
23.777600 0.905400
23.808300 0.903500
23.839100 0.907600
23.869900 0.915400
23.900600 0.921700
23.931400 0.927900
23.962100 0.933400
23.992900 0.940000
24.023700 0.956500
24.054400 0.982700
24.085200 1.018300
24.115900 1.066000
24.146700 1.078900
24.177500 1.084400
24.208200 1.082600
24.239000 1.062700
24.269700 1.030500
24.300500 1.000400
24.331300 0.979900
24.362000 0.968800
24.392800 0.961400
24.423600 0.957900
24.454300 0.955600
24.485100 0.953200
24.515800 0.952200
24.546600 0.949700
24.577400 0.944800
24.608100 0.942900
24.638900 0.937000
24.669600 0.928400
24.700400 0.917700
24.731200 0.909600
24.761900 0.902900
24.792700 0.895600
24.823400 0.885300
24.854200 0.879200
24.885000 0.882200
24.915700 0.894300
24.946500 0.917900
24.977200 0.963600
25.008000 1.011600
25.038800 0.991700
25.069500 0.992200
25.100300 1.000800
25.131000 1.006600
25.161800 1.006000
25.192600 1.011100
25.223300 1.027100
25.254100 1.026400
25.284800 1.016500
25.315600 1.015500
25.346400 1.018600
25.377100 1.022900
25.407900 1.029900
25.438600 1.039200
25.469400 1.045700
25.500200 1.048000
25.530900 1.050300
25.561700 1.052000
25.592500 1.051800
25.623200 1.046100
25.654000 1.037400
25.684700 1.024600
25.715500 1.009700
25.746300 0.999400
25.777000 1.006700
25.807800 1.020100
25.838500 1.007900
25.869300 0.982300
25.900100 0.984200
25.930800 1.000800
25.961600 1.016900
25.992300 1.095000
26.023100 1.143700
26.053900 1.128500
26.084600 1.130900
26.115400 1.174400
26.146100 1.196200
26.176900 1.196800
26.207700 1.195400
26.238400 1.211300
26.269200 1.229700
26.299900 1.246700
26.330700 1.255800
26.361500 1.258100
26.392200 1.284200
26.423000 1.306200
26.453700 1.296500
26.484500 1.309100
26.515300 1.326300
26.546000 1.326100
26.576800 1.317500
26.607500 1.305200
26.638300 1.293400
26.669100 1.282600
26.699800 1.271300
26.730600 1.259200
26.761300 1.253300
26.792100 1.249300
26.822900 1.246400
26.853600 1.269800
26.884400 1.298600
26.915200 1.322200
26.945900 1.305700
26.976700 1.301900
27.007400 1.311600
27.038200 1.318700
27.069000 1.304000
27.099700 1.297400
27.130500 1.290600
27.161200 1.291200
27.192000 1.302700
27.222800 1.303500
27.253500 1.305900
27.284300 1.329300
27.315000 1.325900
27.345800 1.303600
27.376600 1.307300
27.407300 1.334100
27.438100 1.365200
27.468800 1.396900
27.499600 1.429100
27.530400 1.390500
27.561100 1.371900
27.591900 1.349600
27.622600 1.334900
27.653400 1.344000
27.684200 1.431000
27.714900 1.457700
27.745700 1.386500
27.776400 1.349000
27.807200 1.298700
27.838000 1.284000
27.868700 1.295400
27.899500 1.289600
27.930200 1.284000
27.961000 1.263800
27.991800 1.236100
28.022500 1.205100
28.053300 1.176500
28.084100 1.150200
28.114800 1.135300
28.145600 1.135700
28.176300 1.161800
28.207100 1.235400
28.237900 1.214800
28.268600 1.197500
28.299400 1.205000
28.330100 1.218000
28.360900 1.205600
28.391700 1.185600
28.422400 1.185800
28.453200 1.190100
28.483900 1.385500
28.514700 1.215600
28.545500 1.204100
28.576200 1.198900
28.607000 1.193100
28.637700 1.190600
28.668500 1.193900
28.699300 1.197000
28.730000 1.231500
28.760800 1.295600
28.791500 1.356500
28.822300 1.355100
28.853100 1.382100
28.883800 1.304400
28.914600 1.321700
28.945300 1.417300
28.976100 1.456500
29.006900 1.370500
29.037600 1.172300
29.068400 1.130400
29.099100 1.099800
29.129900 1.087100
29.160700 1.089200
29.191400 1.097500
29.222200 1.105600
29.252900 1.127300
29.283700 1.151900
29.314500 1.173600
29.345200 1.189800
29.376000 1.175800
29.406800 1.138800
29.437500 1.078800
29.468300 1.031400
29.499000 1.035900
29.529800 1.025000
29.560600 1.009400
29.591300 1.002900
29.622100 1.016600
29.652800 1.068000
29.683600 1.092600
29.714400 1.057400
29.745100 1.069400
29.775900 1.076700
29.806600 1.062600
29.837400 1.062900
29.868200 1.080100
29.898900 1.114300
29.929700 1.135600
29.960400 1.183100
29.991200 1.119100
30.022000 1.048700
30.052700 1.035500
30.083500 1.034000
30.114200 1.044900
30.145000 1.051500
30.175800 1.056300
30.206500 1.035400
30.237300 0.988300
30.268000 0.978300
30.298800 0.956200
30.329600 0.905800
30.360300 0.867600
30.391100 0.840600
30.421800 0.836900
30.452600 0.838000
30.483400 0.854600
30.514100 0.852100
30.544900 0.849300
30.575700 0.843300
30.606400 0.850400
30.637200 0.876900
30.667900 0.902000
30.698700 0.930300
30.729500 0.915400
30.760200 0.924700
30.791000 0.918200
30.821700 0.882300
30.852500 0.851900
30.883300 0.826500
30.914000 0.815600
30.944800 0.811800
30.975500 0.822100
31.006300 0.850300
31.037100 0.864900
31.067800 0.869000
31.098600 0.881800
31.129300 0.906100
31.160100 0.964600
31.190900 0.943300
31.221600 0.957300
31.252400 0.972500
31.283100 0.993000
31.313900 1.040500
31.344700 1.064100
31.375400 1.051400
31.406200 1.034400
31.436900 1.005400
31.467700 0.998400
31.498500 1.019600
31.529200 1.262500
31.560000 1.219300
31.590700 1.202500
31.621500 1.201800
31.652300 1.197900
31.683000 1.166800
31.713800 1.174300
31.744500 1.196700
31.775300 1.185000
31.806100 1.167100
31.836800 1.146000
31.867600 1.129200
31.898400 1.100600
31.929100 1.100500
31.959900 1.100000
31.990600 1.092000
32.021400 1.097100
32.052200 1.100100
32.082900 1.123300
32.113700 1.124500
32.144400 1.128500
32.175200 1.133500
32.206000 1.138100
32.236700 1.160200
32.267500 1.201800
32.298200 1.261300
32.329000 1.297000
32.359800 1.303300
32.390500 1.307000
32.421300 1.337700
32.452000 1.386400
32.482800 1.382700
32.513600 1.359600
32.544300 1.360000
32.575100 1.383600
32.605800 1.410900
32.636600 1.472300
32.667400 1.449200
32.698100 1.481400
32.728900 1.510400
32.759600 1.469500
32.790400 1.441100
32.821200 1.415200
32.851900 1.393800
32.882700 1.364500
32.913400 1.327100
32.944200 1.280000
32.975000 1.229500
33.005700 1.197400
33.036500 1.172800
33.067300 1.171100
33.098000 1.198600
33.128800 1.225000
33.159500 1.259000
33.190300 1.259300
33.221100 1.260900
33.251800 1.266500
33.282600 1.248200
33.313300 1.235900
33.344100 1.235100
33.374900 1.244200
33.405600 1.247200
33.436400 1.248700
33.467100 1.245300
33.497900 1.323200
33.528700 1.222300
33.559400 1.219100
33.590200 1.214200
33.620900 1.209500
33.651700 1.213200
33.682500 1.227200
33.713200 1.294600
33.744000 1.256100
33.774700 1.228900
33.805500 1.219100
33.836300 1.213200
33.867000 1.209200
33.897800 1.201700
33.928500 1.194300
33.959300 1.186800
33.990100 1.238600
34.020800 1.176800
34.051600 1.182000
34.082300 1.121700
34.113100 1.097600
34.143900 1.091400
34.174600 1.092200
34.205400 1.097700
34.236100 1.105500
34.266900 1.116800
34.297700 1.132200
34.328400 1.156900
34.359200 1.176900
34.390000 1.192300
34.420700 1.212700
34.451500 1.258400
34.482200 1.299900
34.513000 1.351200
34.543800 1.305100
34.574500 1.246000
34.605300 1.199800
34.636000 1.161800
34.666800 1.146300
34.697600 1.171300
34.728300 1.191500
34.759100 1.181900
34.789800 1.194500
34.820600 1.205000
34.851400 1.210700
34.882100 1.213000
34.912900 1.218600
34.943600 1.170100
34.974400 1.163200
35.005200 1.179700
35.035900 1.206900
35.066700 1.218600
35.097400 1.219900
35.128200 1.229100
35.159000 1.237300
35.189700 1.243700
35.220500 1.245400
35.251200 1.268300
35.282000 1.285500
35.312800 1.282300
35.343500 1.261300
35.374300 1.234200
35.405000 1.211400
35.435800 1.205300
35.466600 1.203200
35.497300 1.199600
35.528100 1.206200
35.558900 1.209800
35.589600 1.211300
35.620400 1.214200
35.651100 1.225200
35.681900 1.233100
35.712700 1.234400
35.743400 1.238200
35.774200 1.249500
35.804900 1.263500
35.835700 1.278600
35.866500 1.319600
35.897200 1.331500
35.928000 1.317800
35.958700 1.301600
35.989500 1.287200
36.020300 1.283900
36.051000 1.282200
36.081800 1.275000
36.112500 1.320800
36.143300 1.258600
36.174100 1.249500
36.204800 1.243100
36.235600 1.238300
36.266300 1.236200
36.297100 1.242400
36.327900 1.239600
36.358600 1.246400
36.389400 1.267000
36.420100 1.344900
36.450900 1.319300
36.481700 1.307400
36.512400 1.331200
36.543200 1.313000
36.573900 1.253300
36.604700 1.244700
36.635500 1.235600
36.666200 1.228400
36.697000 1.223100
36.727700 1.222600
36.758500 1.223400
36.789300 1.226500
36.820000 1.231600
36.850800 1.231500
36.881600 1.231700
36.912300 1.233400
36.943100 1.238700
36.973800 1.263700
37.004600 1.273600
37.035400 1.284900
37.066100 1.286600
37.096900 1.271700
37.127600 1.262700
37.158400 1.265900
37.189200 1.281700
37.219900 1.307300
37.250700 1.322800
37.281400 1.330800
37.312200 1.335800
37.343000 1.310700
37.373700 1.307700
37.404500 1.303900
37.435200 1.297600
37.466000 1.287100
37.496800 1.277900
37.527500 1.271600
37.558300 1.266800
37.589000 1.263800
37.619800 1.239200
37.650600 1.228300
37.681300 1.224400
37.712100 1.222100
37.742800 1.221700
37.773600 1.223900
37.804400 1.223800
37.835100 1.221700
37.865900 1.224400
37.896600 1.227600
37.927400 1.229300
37.958200 1.225400
37.988900 1.215200
38.019700 1.203500
38.050500 1.190900
38.081200 1.176300
38.112000 1.152400
38.142700 1.114900
38.173500 1.073400
38.204300 1.050600
38.235000 1.041000
38.265800 1.038300
38.296500 1.037300
38.327300 1.037100
38.358100 1.037900
38.388800 1.042600
38.419600 1.053300
38.450300 1.063200
38.481100 1.076500
38.511900 1.098600
38.542600 1.128000
38.573400 1.158800
38.604100 1.193500
38.634900 1.222000
38.665700 1.206800
38.696400 1.200800
38.727200 1.193400
38.757900 1.179700
38.788700 1.161000
38.819500 1.136600
38.850200 1.106300
38.881000 1.082700
38.911700 1.063900
38.942500 1.062600
38.973300 1.040100
39.004000 1.033900
39.034800 1.023900
39.065500 1.011100
39.096300 1.000400
39.127100 0.993200
39.157800 0.988900
39.188600 0.986600
39.219300 0.985700
39.250100 0.986600
39.280900 0.992600
39.311600 1.000100
39.342400 1.004600
39.373200 1.004700
39.403900 1.004200
39.434700 1.014600
39.465400 1.022400
39.496200 1.029900
39.527000 1.045000
39.557700 1.057100
39.588500 1.060800
39.619200 1.058300
39.650000 1.055400
39.680800 1.049100
39.711500 1.041500
39.742300 1.034500
39.773000 1.009700
39.803800 0.992800
39.834600 0.976500
39.865300 0.959200
39.896100 0.942600
39.926800 0.927700
39.957600 0.920400
39.988400 0.915700
40.019100 0.926700
40.049900 0.946000
40.080600 0.947800
40.111400 0.956800
40.142200 1.057400
40.172900 1.015000
40.203700 0.984300
40.234400 0.984200
40.265200 0.970200
40.296000 0.948700
40.326700 0.932800
40.357500 0.930800
40.388200 0.934400
40.419000 0.942900
40.449800 0.954700
40.480500 0.971200
40.511300 0.989100
40.542100 1.030600
40.572800 1.062600
40.603600 1.100000
40.634300 1.103500
40.665100 1.088700
40.695900 1.084000
40.726600 1.084800
40.757400 1.086100
40.788100 1.052200
40.818900 1.007500
40.849700 0.987900
40.880400 0.944300
40.911200 0.953000
40.941900 0.973600
40.972700 0.994300
41.003500 0.977800
41.034200 0.950500
41.065000 0.966500
41.095700 0.988700
41.126500 1.008800
41.157300 1.012500
41.188000 1.004800
41.218800 0.976800
41.249500 0.929600
41.280300 0.898600
41.311100 0.873900
41.341800 0.861200
41.372600 0.849200
41.403300 0.837900
41.434100 0.825900
41.464900 0.806100
41.495600 0.793800
41.526400 0.787000
41.557100 0.789100
41.587900 0.797700
41.618700 0.797600
41.649400 0.795700
41.680200 0.779600
41.710900 0.767700
41.741700 0.754500
41.772500 0.745000
41.803200 0.735400
41.834000 0.723100
41.864800 0.708100
41.895500 0.690300
41.926300 0.675200
41.957000 0.659600
41.987800 0.650400
42.018600 0.645000
42.049300 0.635800
42.080100 0.625200
42.110800 0.614600
42.141600 0.605000
42.172400 0.595500
42.203100 0.586000
42.233900 0.576100
42.264600 0.565600
42.295400 0.554900
42.326200 0.544400
42.356900 0.534500
42.387700 0.521000
42.418400 0.504500
42.449200 0.488100
42.480000 0.471600
42.510700 0.454600
42.541500 0.437200
42.572200 0.420900
42.603000 0.405600
42.633800 0.393500
42.664500 0.384800
42.695300 0.376400
42.726000 0.367700
42.756800 0.358000
42.787600 0.350500
42.818300 0.343900
42.849100 0.338600
42.879800 0.334500
42.910600 0.330900
42.941400 0.327000
42.972100 0.318400
43.002900 0.308700
43.033700 0.298700
43.064400 0.288500
43.095200 0.278600
43.125900 0.271100
43.156700 0.264800
43.187500 0.258900
43.218200 0.253200
43.249000 0.247600
43.279700 0.242100
43.310500 0.236900
43.341300 0.231900
43.372000 0.227100
43.402800 0.222500
43.433500 0.218600
43.464300 0.215300
43.495100 0.211800
43.525800 0.208100
43.556600 0.204400
43.587300 0.200700
43.618100 0.196800
43.648900 0.192800
43.679600 0.188700
43.710400 0.184500
43.741100 0.180600
43.771900 0.177100
43.802700 0.173900
43.833400 0.171100
43.864200 0.168300
43.894900 0.165200
43.925700 0.162000
43.956500 0.158700
43.987200 0.155400
44.018000 0.152100
44.048700 0.148800
44.079500 0.145600
44.110300 0.142500
44.141000 0.139500
44.171800 0.136500
44.202500 0.133700
44.233300 0.131000
44.264100 0.128500
44.294800 0.126300
44.325600 0.124300
44.356400 0.122600
44.387100 0.121400
44.417900 0.123300
44.448600 0.124100
44.479400 0.122500
44.510200 0.118400
44.540900 0.111000
44.571700 0.099100
44.602400 0.089600
44.633200 0.081300
44.664000 0.074200
44.694700 0.068300
44.725500 0.063000
44.756200 0.057800
44.787000 0.052700
44.817800 0.047800
44.848500 0.042900
44.879300 0.038200
44.910000 0.033500
44.940800 0.029400
44.971600 0.026300
45.002300 0.023800
45.033100 0.021700
45.063800 0.019900
45.094600 0.018100
45.125400 0.016400
45.156100 0.014700
45.186900 0.013100
45.217600 0.011400
45.248400 0.009800
45.279200 0.008200
45.309900 0.006600
45.340700 0.005100
45.371400 0.003500
45.402200 0.002000
45.433000 0.000600
45.463700 0.000400
45.494500 0.000200
45.525300 0.000100
45.556000 0.000000
45.586800 0.000000
45.617500 0.000000
45.648300 0.000000
45.679100 0.000000
45.709800 0.000000
45.740600 0.000000
45.771300 0.000000
45.802100 0.000000
45.832900 0.000000
45.863600 0.000000
45.894400 0.000000
45.925100 0.000000
45.955900 0.000000
45.986700 0.000000
46.017400 0.000000
46.048200 0.000000
46.078900 0.000000
46.109700 0.000000
46.140500 0.000000
46.171200 0.000000
46.202000 0.000000
46.232700 0.000000
46.263500 0.000000
46.294300 0.000000
46.325000 0.000000
46.355800 0.000000
46.386500 0.000000
46.417300 0.000000
46.448100 0.000000
46.478800 0.000000
46.509600 0.000000
46.540300 0.000000
46.571100 0.000000
46.601900 0.000000
46.632600 0.000000
46.663400 0.000000
46.694100 0.000000
46.724900 0.000000
46.755700 0.000000
46.786400 0.000000
46.817200 0.000000
46.848000 0.000000
46.878700 0.000000
46.909500 0.000000
46.940200 0.000000
46.971000 0.000000
47.001800 0.000000
47.032500 0.000000
47.063300 0.000000
47.094000 0.000000
47.124800 0.000000
47.155600 0.000000
47.186300 0.000000
47.217100 0.000000
47.247800 0.000000
47.278600 0.000000
47.309400 0.000000
47.340100 0.000000
47.370900 0.000000
47.401600 0.000000
47.432400 0.000000
47.463200 0.000000
47.493900 0.000000
47.524700 0.000000
47.555400 0.000000
47.586200 0.000000
47.617000 0.000000
47.647700 0.000000
47.678500 0.000000
47.709200 0.000000
47.740000 0.000000
47.770800 0.000000
47.801500 0.000000
47.832300 0.000000
47.863000 0.000000
47.893800 0.000000
47.924600 0.000000
47.955300 0.000000
47.986100 0.000000
48.016900 0.000000
48.047600 0.000000
48.078400 0.000000
48.109100 0.000000
48.139900 0.000000
48.170700 0.000000
48.201400 0.000000
48.232200 0.000000
48.262900 0.000000
48.293700 0.000000
48.324500 0.000000
48.355200 0.000000
48.386000 0.000000
48.416700 0.000000
e
