set title 'mp-1057015 - Density of States'
set xlabel 'Energy (eV)'
set ylabel 'DOS (states/eV)'
set grid
set xrange [-10:10]
set yrange [0:4.585]
set xzeroaxis lt -1
set terminal png size 800,600
set output 'mp-1057015_dos_gnuplot.png'
plot '-' using 1:2 with lines title 'DOS'
-13.853400 0.000000
-13.828600 0.000000
-13.803800 0.000000
-13.779000 0.000000
-13.754200 0.000000
-13.729500 0.000000
-13.704700 0.000000
-13.679900 0.000000
-13.655100 0.000000
-13.630300 0.000000
-13.605500 0.000000
-13.580700 0.000000
-13.555900 0.000000
-13.531100 0.000000
-13.506300 0.000000
-13.481500 0.000000
-13.456700 0.000000
-13.431900 0.000000
-13.407100 0.000000
-13.382300 0.000000
-13.357500 0.000000
-13.332700 0.000000
-13.307900 0.000000
-13.283100 0.000000
-13.258400 0.000000
-13.233600 0.000000
-13.208800 0.000000
-13.184000 0.000000
-13.159200 0.000000
-13.134400 0.000000
-13.109600 0.000000
-13.084800 0.000000
-13.060000 0.000000
-13.035200 0.000000
-13.010400 0.000000
-12.985600 0.000000
-12.960800 0.000000
-12.936000 0.000000
-12.911200 0.000000
-12.886400 0.000000
-12.861600 0.000000
-12.836800 0.000000
-12.812000 0.000000
-12.787300 0.000000
-12.762500 0.000000
-12.737700 0.000000
-12.712900 0.000000
-12.688100 0.000000
-12.663300 0.000000
-12.638500 0.000000
-12.613700 0.000000
-12.588900 0.000000
-12.564100 0.000000
-12.539300 0.000000
-12.514500 0.000000
-12.489700 0.000000
-12.464900 0.000000
-12.440100 0.000000
-12.415300 0.000000
-12.390500 0.000000
-12.365700 0.000000
-12.341000 0.000000
-12.316200 0.000000
-12.291400 0.000000
-12.266600 0.000000
-12.241800 0.000000
-12.217000 0.000000
-12.192200 0.000000
-12.167400 0.000000
-12.142600 0.000000
-12.117800 0.000000
-12.093000 0.000000
-12.068200 0.000000
-12.043400 0.000000
-12.018600 0.000000
-11.993800 0.000000
-11.969000 0.000000
-11.944200 0.000000
-11.919400 0.000000
-11.894600 0.000000
-11.869900 0.000000
-11.845100 0.000000
-11.820300 0.000000
-11.795500 0.000000
-11.770700 0.000000
-11.745900 0.000000
-11.721100 0.000000
-11.696300 0.000000
-11.671500 0.000000
-11.646700 0.000000
-11.621900 0.000000
-11.597100 6.800900
-11.572300 19.553700
-11.547500 22.843900
-11.522700 30.021500
-11.497900 224.938600
-11.473100 69.509100
-11.448300 90.693500
-11.423500 0.000000
-11.398800 0.000000
-11.374000 0.000000
-11.349200 0.000000
-11.324400 0.000000
-11.299600 0.000000
-11.274800 0.000000
-11.250000 0.000000
-11.225200 0.000000
-11.200400 0.000000
-11.175600 0.000000
-11.150800 0.000000
-11.126000 0.000000
-11.101200 0.000000
-11.076400 0.000000
-11.051600 0.000000
-11.026800 0.000000
-11.002000 0.000000
-10.977200 0.000000
-10.952500 0.000000
-10.927700 0.000000
-10.902900 0.000000
-10.878100 0.000000
-10.853300 0.000000
-10.828500 0.000000
-10.803700 0.000000
-10.778900 0.000000
-10.754100 0.000000
-10.729300 0.000000
-10.704500 0.000000
-10.679700 0.000000
-10.654900 0.000000
-10.630100 0.000000
-10.605300 0.000000
-10.580500 0.000000
-10.555700 0.000000
-10.530900 0.000000
-10.506100 0.000000
-10.481400 0.000000
-10.456600 0.000000
-10.431800 0.000000
-10.407000 0.000000
-10.382200 0.000000
-10.357400 0.000000
-10.332600 0.000000
-10.307800 0.000000
-10.283000 0.000000
-10.258200 0.000000
-10.233400 0.000000
-10.208600 0.000000
-10.183800 0.000000
-10.159000 0.000000
-10.134200 0.000000
-10.109400 0.000000
-10.084600 0.000000
-10.059800 0.000000
-10.035100 0.000000
-10.010300 0.000000
-9.985500 0.000000
-9.960700 0.000000
-9.935900 0.000000
-9.911100 0.000000
-9.886300 0.000000
-9.861500 0.000000
-9.836700 0.000000
-9.811900 0.000000
-9.787100 0.000000
-9.762300 0.000000
-9.737500 0.000000
-9.712700 0.000000
-9.687900 0.000000
-9.663100 0.000000
-9.638300 0.000000
-9.613500 0.000000
-9.588700 0.000000
-9.564000 0.000000
-9.539200 0.000000
-9.514400 0.000000
-9.489600 0.000000
-9.464800 0.000000
-9.440000 0.000000
-9.415200 0.000000
-9.390400 0.000000
-9.365600 0.000000
-9.340800 0.000000
-9.316000 0.000000
-9.291200 0.000000
-9.266400 0.000000
-9.241600 0.000000
-9.216800 0.000000
-9.192000 0.000000
-9.167200 0.000000
-9.142400 0.000000
-9.117600 0.000000
-9.092900 0.000000
-9.068100 0.000000
-9.043300 0.000000
-9.018500 0.000000
-8.993700 0.000000
-8.968900 0.000000
-8.944100 0.000000
-8.919300 0.000000
-8.894500 0.000000
-8.869700 0.000000
-8.844900 0.000000
-8.820100 0.000000
-8.795300 0.000000
-8.770500 0.000000
-8.745700 0.000000
-8.720900 0.000000
-8.696100 0.000000
-8.671300 0.000000
-8.646600 0.000000
-8.621800 0.000000
-8.597000 0.000000
-8.572200 0.000000
-8.547400 0.000000
-8.522600 0.000000
-8.497800 0.000000
-8.473000 0.000000
-8.448200 0.000000
-8.423400 0.000000
-8.398600 0.000000
-8.373800 0.000000
-8.349000 0.000000
-8.324200 0.000000
-8.299400 0.000000
-8.274600 0.000000
-8.249800 0.000000
-8.225000 0.000000
-8.200200 0.000000
-8.175500 0.000000
-8.150700 0.000000
-8.125900 0.000000
-8.101100 0.000000
-8.076300 0.000000
-8.051500 0.000000
-8.026700 0.000000
-8.001900 0.000000
-7.977100 0.000000
-7.952300 0.000000
-7.927500 0.003900
-7.902700 0.022400
-7.877900 0.056200
-7.853100 0.105200
-7.828300 0.169400
-7.803500 0.248900
-7.778700 0.313800
-7.753900 0.292500
-7.729100 0.299800
-7.704400 0.323200
-7.679600 0.347400
-7.654800 0.372300
-7.630000 0.398000
-7.605200 0.424400
-7.580400 0.451600
-7.555600 0.479500
-7.530800 0.508200
-7.506000 0.536700
-7.481200 0.563800
-7.456400 0.589500
-7.431600 0.613800
-7.406800 0.636700
-7.382000 0.658400
-7.357200 0.684200
-7.332400 0.713600
-7.307600 0.744000
-7.282800 0.775200
-7.258100 0.807200
-7.233300 0.840100
-7.208500 0.873700
-7.183700 0.908200
-7.158900 0.943400
-7.134100 0.979500
-7.109300 1.016400
-7.084500 1.054000
-7.059700 1.101400
-7.034900 1.172800
-7.010100 1.254800
-6.985300 1.345900
-6.960500 1.443600
-6.935700 1.547800
-6.910900 1.682300
-6.886100 1.849600
-6.861300 2.103700
-6.836500 2.291300
-6.811700 2.411700
-6.787000 2.465000
-6.762200 2.451200
-6.737400 2.427500
-6.712600 2.455900
-6.687800 2.689200
-6.663000 2.897100
-6.638200 3.017600
-6.613400 3.073300
-6.588600 3.115100
-6.563800 3.134900
-6.539000 3.157100
-6.514200 3.336500
-6.489400 4.167800
-6.464600 4.023300
-6.439800 1.915500
-6.415000 0.000000
-6.390200 0.000000
-6.365400 0.000000
-6.340600 0.000000
-6.315900 0.000000
-6.291100 0.000000
-6.266300 0.000000
-6.241500 0.000000
-6.216700 0.000000
-6.191900 0.000000
-6.167100 0.000000
-6.142300 0.000000
-6.117500 0.000000
-6.092700 0.000000
-6.067900 0.000000
-6.043100 0.000000
-6.018300 0.000000
-5.993500 0.000000
-5.968700 0.000000
-5.943900 0.000000
-5.919100 0.000000
-5.894300 0.000000
-5.869600 0.000000
-5.844800 0.000000
-5.820000 0.000000
-5.795200 0.000000
-5.770400 0.000000
-5.745600 0.000000
-5.720800 0.000000
-5.696000 0.000000
-5.671200 0.000000
-5.646400 0.000000
-5.621600 0.000000
-5.596800 0.000000
-5.572000 0.000000
-5.547200 0.000000
-5.522400 0.000000
-5.497600 0.000000
-5.472800 0.000000
-5.448000 0.000000
-5.423200 0.000000
-5.398500 0.000000
-5.373700 0.000000
-5.348900 0.000000
-5.324100 0.000000
-5.299300 0.000000
-5.274500 0.000000
-5.249700 0.000000
-5.224900 0.000000
-5.200100 0.000000
-5.175300 0.000000
-5.150500 0.000000
-5.125700 0.000000
-5.100900 0.000000
-5.076100 0.000000
-5.051300 0.000000
-5.026500 0.000000
-5.001700 0.000000
-4.976900 0.000000
-4.952100 0.000000
-4.927400 0.000000
-4.902600 0.000000
-4.877800 0.000000
-4.853000 0.000000
-4.828200 0.000000
-4.803400 0.000000
-4.778600 0.000000
-4.753800 0.000000
-4.729000 0.000000
-4.704200 0.000000
-4.679400 0.000000
-4.654600 0.000000
-4.629800 0.000000
-4.605000 0.000000
-4.580200 0.000000
-4.555400 0.000000
-4.530600 0.000000
-4.505800 0.000000
-4.481100 0.000000
-4.456300 0.000000
-4.431500 0.000000
-4.406700 0.000000
-4.381900 0.000000
-4.357100 0.000000
-4.332300 0.000000
-4.307500 0.000000
-4.282700 0.000000
-4.257900 0.000000
-4.233100 0.000000
-4.208300 0.000000
-4.183500 0.000000
-4.158700 0.000000
-4.133900 0.000000
-4.109100 0.000000
-4.084300 0.000000
-4.059500 0.000000
-4.034700 0.000000
-4.010000 0.000000
-3.985200 0.000000
-3.960400 0.000000
-3.935600 0.000000
-3.910800 0.000000
-3.886000 0.000000
-3.861200 0.000000
-3.836400 0.000000
-3.811600 0.000000
-3.786800 0.000000
-3.762000 0.000000
-3.737200 0.000000
-3.712400 0.000000
-3.687600 0.000000
-3.662800 0.000000
-3.638000 0.000000
-3.613200 0.000000
-3.588400 0.000000
-3.563700 0.000000
-3.538900 0.000000
-3.514100 0.000000
-3.489300 0.000000
-3.464500 0.000000
-3.439700 0.000000
-3.414900 0.000000
-3.390100 0.000000
-3.365300 0.000000
-3.340500 0.000000
-3.315700 0.000000
-3.290900 0.000000
-3.266100 0.000000
-3.241300 0.000000
-3.216500 0.000000
-3.191700 0.000000
-3.166900 0.000000
-3.142100 0.000000
-3.117300 0.685500
-3.092600 0.333300
-3.067800 0.725600
-3.043000 0.572200
-3.018200 0.655700
-2.993400 0.743300
-2.968600 0.835200
-2.943800 0.931300
-2.919000 1.031600
-2.894200 1.136100
-2.869400 1.244800
-2.844600 1.357800
-2.819800 1.474900
-2.795000 1.596300
-2.770200 1.898800
-2.745400 2.367200
-2.720600 2.664400
-2.695800 2.831800
-2.671000 2.881400
-2.646200 2.752100
-2.621500 2.585300
-2.596700 2.445100
-2.571900 2.300700
-2.547100 2.164800
-2.522300 2.582300
-2.497500 2.185900
-2.472700 2.023900
-2.447900 1.880700
-2.423100 1.756300
-2.398300 1.650700
-2.373500 1.563900
-2.348700 1.511000
-2.323900 1.562400
-2.299100 1.699400
-2.274300 1.634000
-2.249500 1.441700
-2.224700 1.422800
-2.199900 1.401100
-2.175200 1.368500
-2.150400 1.325100
-2.125600 1.270800
-2.100800 1.205700
-2.076000 1.131000
-2.051200 1.050900
-2.026400 0.965500
-2.001600 0.874900
-1.976800 0.779000
-1.952000 0.673600
-1.927200 0.508300
-1.902400 0.386200
-1.877600 0.354400
-1.852800 0.333100
-1.828000 0.315700
-1.803200 0.302100
-1.778400 0.292200
-1.753600 0.283400
-1.728800 0.274600
-1.704100 0.266000
-1.679300 0.257500
-1.654500 0.249000
-1.629700 0.240700
-1.604900 0.232400
-1.580100 0.224200
-1.555300 0.216200
-1.530500 0.208200
-1.505700 0.200300
-1.480900 0.192500
-1.456100 0.184900
-1.431300 0.177300
-1.406500 0.169800
-1.381700 0.162400
-1.356900 0.155100
-1.332100 0.147900
-1.307300 0.140800
-1.282500 0.133800
-1.257700 0.128500
-1.233000 0.126800
-1.208200 0.114900
-1.183400 0.103200
-1.158600 0.092300
-1.133800 0.081900
-1.109000 0.072100
-1.084200 0.063000
-1.059400 0.054500
-1.034600 0.046600
-1.009800 0.039300
-0.985000 0.032600
-0.960200 0.026600
-0.935400 0.021200
-0.910600 0.016400
-0.885800 0.012200
-0.861000 0.008600
-0.836200 0.005700
-0.811400 0.003300
-0.786700 0.001600
-0.761900 0.000500
-0.737100 0.000000
-0.712300 0.000000
-0.687500 0.000000
-0.662700 0.000000
-0.637900 0.000000
-0.613100 0.000000
-0.588300 0.000000
-0.563500 0.000000
-0.538700 0.000000
-0.513900 0.000000
-0.489100 0.000000
-0.464300 0.000000
-0.439500 0.000000
-0.414700 0.000000
-0.389900 0.000000
-0.365100 0.000000
-0.340300 0.000000
-0.315600 0.000000
-0.290800 0.000000
-0.266000 0.000000
-0.241200 0.000000
-0.216400 0.000000
-0.191600 0.000000
-0.166800 0.000000
-0.142000 0.000000
-0.117200 0.000000
-0.092400 0.000000
-0.067600 0.000000
-0.042800 0.000000
-0.018000 0.000000
0.006800 0.000000
0.031600 0.000000
0.056400 0.000000
0.081200 0.000000
0.106000 0.000000
0.130800 0.000000
0.155500 0.000000
0.180300 0.000000
0.205100 0.000000
0.229900 0.000000
0.254700 0.000000
0.279500 0.000000
0.304300 0.000000
0.329100 0.000000
0.353900 0.000000
0.378700 0.000000
0.403500 0.000000
0.428300 0.000000
0.453100 0.000000
0.477900 0.000000
0.502700 0.000000
0.527500 0.000000
0.552300 0.000000
0.577100 0.000000
0.601800 0.000000
0.626600 0.039900
0.651400 0.088100
0.676200 0.132200
0.701000 0.172200
0.725800 0.208000
0.750600 0.239600
0.775400 0.267100
0.800200 0.290500
0.825000 0.309700
0.849800 0.324700
0.874600 0.335600
0.899400 0.346700
0.924200 0.374700
0.949000 0.405000
0.973800 0.437300
0.998600 0.471800
1.023400 0.508500
1.048200 0.547200
1.072900 4.091000
1.097700 0.642700
1.122500 0.655900
1.147300 0.672300
1.172100 0.691800
1.196900 0.714400
1.221700 0.740000
1.246500 0.768800
1.271300 0.800700
1.296100 0.834400
1.320900 0.834000
1.345700 0.827600
1.370500 0.821800
1.395300 0.816500
1.420100 0.811800
1.444900 0.807700
1.469700 0.804100
1.494500 0.801100
1.519300 0.798600
1.544000 0.796700
1.568800 0.795600
1.593600 0.795200
1.618400 0.795600
1.643200 0.796800
1.668000 0.798800
1.692800 0.801500
1.717600 0.804900
1.742400 1.647900
1.767200 1.493400
1.792000 1.324900
1.816800 1.230700
1.841600 1.258600
1.866400 1.288200
1.891200 1.308300
1.916000 1.331100
1.940800 1.357600
1.965600 1.387800
1.990300 1.421700
2.015100 1.459300
2.039900 1.500600
2.064700 1.545600
2.089500 1.594300
2.114300 1.646600
2.139100 1.702700
2.163900 1.762500
2.188700 1.889800
2.213500 2.013500
2.238300 2.047700
2.263100 1.977100
2.287900 1.858200
2.312700 1.887300
2.337500 1.917700
2.362300 1.949700
2.387100 1.982800
2.411900 2.017100
2.436700 2.052300
2.461400 2.088300
2.486200 2.120100
2.511000 2.103400
2.535800 2.095400
2.560600 2.101400
2.585400 2.116400
2.610200 2.132400
2.635000 2.148300
2.659800 2.164000
2.684600 2.179500
2.709400 2.194900
2.734200 2.210100
2.759000 2.225100
2.783800 2.238600
2.808600 2.248200
2.833400 2.266500
2.858200 2.298900
2.883000 2.346000
2.907700 2.407900
2.932500 2.484900
2.957300 2.576100
2.982100 2.514300
3.006900 2.423300
3.031700 2.319800
3.056500 2.243800
3.081300 2.214200
3.106100 2.214400
3.130900 2.224900
3.155700 2.244500
3.180500 2.273400
3.205300 2.311200
3.230100 2.357900
3.254900 2.413600
3.279700 2.478300
3.304500 2.551600
3.329300 2.623400
3.354100 2.474000
3.378800 2.207100
3.403600 2.185100
3.428400 2.156200
3.453200 2.110500
3.478000 2.045400
3.502800 1.960300
3.527600 1.849800
3.552400 1.711700
3.577200 1.546000
3.602000 1.352600
3.626800 1.142900
3.651600 0.995500
3.676400 0.884200
3.701200 0.823600
3.726000 0.849900
3.750800 0.878100
3.775600 0.908100
3.800400 0.939900
3.825200 0.973600
3.849900 1.009000
3.874700 1.046300
3.899500 1.085500
3.924300 1.126400
3.949100 1.170100
3.973900 1.220400
3.998700 1.278200
4.023500 1.348800
4.048300 1.432900
4.073100 1.530700
4.097900 1.642200
4.122700 1.767900
4.147500 1.920100
4.172300 2.091300
4.197100 2.304800
4.221900 2.421100
4.246700 2.440400
4.271500 2.362600
4.296200 2.268200
4.321000 2.086700
4.345800 1.961200
4.370600 1.931700
4.395400 1.871700
4.420200 1.739000
4.445000 1.552100
4.469800 1.311100
4.494600 1.148200
4.519400 1.050600
4.544200 0.963900
4.569000 0.880400
4.593800 0.800000
4.618600 0.722800
4.643400 0.648800
4.668200 0.577900
4.693000 0.510200
4.717800 0.445700
4.742600 0.384300
4.767300 0.326100
4.792100 0.271100
4.816900 0.219200
4.841700 0.176100
4.866500 0.142500
4.891300 0.113500
4.916100 0.087500
4.940900 0.064300
4.965700 0.044100
4.990500 0.027100
5.015300 0.015600
5.040100 0.005900
5.064900 0.000000
5.089700 0.000000
5.114500 0.000000
5.139300 0.000000
5.164100 0.000000
5.188900 0.000000
5.213700 0.000000
5.238400 0.000000
5.263200 0.000000
5.288000 0.000000
5.312800 0.000000
5.337600 0.000000
5.362400 0.000000
5.387200 0.000000
5.412000 0.000000
5.436800 0.000000
5.461600 0.000000
5.486400 0.000000
5.511200 0.000000
5.536000 0.000000
5.560800 0.000000
5.585600 0.000000
5.610400 0.000000
5.635200 0.000000
5.660000 0.000000
5.684700 0.000000
5.709500 0.000000
5.734300 0.000000
5.759100 0.000000
5.783900 0.000000
5.808700 0.000000
5.833500 0.000000
5.858300 0.000000
5.883100 0.000000
5.907900 0.000000
5.932700 0.000000
5.957500 0.000000
5.982300 0.000000
6.007100 0.000000
6.031900 0.000000
6.056700 0.000000
6.081500 0.000000
6.106300 0.004000
6.131100 0.013200
6.155800 0.022900
6.180600 0.032900
6.205400 0.047300
6.230200 0.062600
6.255000 0.078500
6.279800 0.095000
6.304600 0.112100
6.329400 0.129700
6.354200 0.148000
6.379000 0.166800
6.403800 0.186300
6.428600 0.206300
6.453400 0.226900
6.478200 0.248100
6.503000 0.269800
6.527800 0.292200
6.552600 0.315500
6.577400 0.343800
6.602200 0.379800
6.626900 0.419900
6.651700 0.475300
6.676500 0.537700
6.701300 0.596600
6.726100 0.652100
6.750900 0.704000
6.775700 0.752400
6.800500 0.797400
6.825300 0.838800
6.850100 0.876700
6.874900 0.911200
6.899700 0.942100
6.924500 0.969600
6.949300 0.993500
6.974100 1.013900
6.998900 1.030900
7.023700 1.044300
7.048500 1.054300
7.073200 1.060400
7.098000 1.061700
7.122800 1.057600
7.147600 1.048300
7.172400 1.033700
7.197200 1.114600
7.222000 1.298900
7.246800 1.301600
7.271600 1.250400
7.296400 1.247600
7.321200 1.271500
7.346000 1.287500
7.370800 1.294900
7.395600 1.293700
7.420400 1.283800
7.445200 1.265300
7.470000 1.238100
7.494800 1.202300
7.519600 1.169300
7.544300 1.156600
7.569100 1.139900
7.593900 1.131700
7.618700 1.143500
7.643500 1.164600
7.668300 2.187600
7.693100 1.268200
7.717900 1.286200
7.742700 1.308500
7.767500 1.327300
7.792300 1.337500
7.817100 1.348100
7.841900 1.363200
7.866700 1.377800
7.891500 1.391500
7.916300 1.404200
7.941100 1.415900
7.965900 1.426700
7.990700 1.436600
8.015400 1.445500
8.040200 1.453400
8.065000 1.460500
8.089800 1.467300
8.114600 1.474000
8.139400 1.480700
8.164200 1.488400
8.189000 1.497300
8.213800 1.507200
8.238600 1.518000
8.263400 1.529400
8.288200 1.541400
8.313000 1.553500
8.337800 1.564700
8.362600 1.575000
8.387400 1.584300
8.412200 1.592500
8.437000 1.600300
8.461700 1.608300
8.486500 1.616700
8.511300 1.625500
8.536100 1.634600
8.560900 1.644500
8.585700 1.655600
8.610500 1.668000
8.635300 1.681500
8.660100 1.696100
8.684900 1.713700
8.709700 1.744100
8.734500 1.784200
8.759300 1.819800
8.784100 1.863300
8.808900 1.914600
8.833700 1.963900
8.858500 1.990200
8.883300 2.006300
8.908100 2.022600
8.932800 2.044400
8.957600 2.077600
8.982400 2.137700
9.007200 2.174800
9.032000 2.195900
9.056800 2.209300
9.081600 2.219900
9.106400 2.227700
9.131200 2.232700
9.156000 2.244800
9.180800 2.301200
9.205600 2.346600
9.230400 2.331100
9.255200 2.251800
9.280000 2.269600
9.304800 2.300300
9.329600 2.322700
9.354400 2.336800
9.379100 2.342600
9.403900 2.340100
9.428700 2.329800
9.453500 2.312900
9.478300 2.290000
9.503100 2.435900
9.527900 2.973900
9.552700 2.870000
9.577500 2.855000
9.602300 2.905500
9.627100 2.942500
9.651900 2.130400
9.676700 2.067300
9.701500 2.022300
9.726300 1.995200
9.751100 1.976300
9.775900 1.956400
9.800700 1.935500
9.825500 1.913600
9.850200 1.890700
9.875000 1.866800
9.899800 1.841900
9.924600 1.808800
9.949400 1.719900
9.974200 1.611500
9.999000 1.512300
10.023800 1.422300
10.048600 1.341500
10.073400 1.804400
10.098200 1.530300
10.123000 1.292400
10.147800 1.090700
10.172600 0.925300
10.197400 0.834800
10.222200 0.771500
10.247000 0.712700
10.271800 0.658500
10.296600 0.657400
10.321300 0.767800
10.346100 0.590000
10.370900 0.399600
10.395700 0.368000
10.420500 0.338400
10.445300 0.310700
10.470100 0.285100
10.494900 0.261400
10.519700 0.239700
10.544500 0.219900
10.569300 0.202200
10.594100 0.192300
10.618900 0.191600
10.643700 0.187400
10.668500 0.179700
10.693300 0.168700
10.718100 0.154200
10.742900 0.136200
10.767600 0.114800
10.792400 0.126800
10.817200 0.155700
10.842000 0.187400
10.866800 0.222200
10.891600 0.259900
10.916400 0.303400
10.941200 0.695600
10.966000 0.464500
10.990800 0.482800
11.015600 0.489800
11.040400 0.497200
11.065200 0.504800
11.090000 0.512700
11.114800 0.520800
11.139600 0.529300
11.164400 0.538000
11.189200 0.546800
11.214000 0.553600
11.238700 0.557700
11.263500 0.559400
11.288300 0.558500
11.313100 0.559500
11.337900 0.564000
11.362700 0.570200
11.387500 0.577100
11.412300 0.584600
11.437100 0.592800
11.461900 0.601500
11.486700 0.610900
11.511500 0.620900
11.536300 0.631600
11.561100 0.642800
11.585900 0.654700
11.610700 0.667200
11.635500 0.680300
11.660300 0.694100
11.685100 0.708400
11.709800 0.723400
11.734600 0.739100
11.759400 0.755300
11.784200 0.772200
11.809000 0.789600
11.833800 0.807700
11.858600 0.826300
11.883400 0.845400
11.908200 0.864800
11.933000 0.884500
11.957800 0.904700
11.982600 0.925200
12.007400 0.945600
12.032200 0.949100
12.057000 0.945400
12.081800 0.938500
12.106600 0.929600
12.131400 0.923300
12.156100 0.920300
12.180900 0.920300
12.205700 0.923500
12.230500 0.927900
12.255300 0.932700
12.280100 0.937900
12.304900 0.944100
12.329700 0.952800
12.354500 0.964300
12.379300 0.978300
12.404100 0.994200
12.428900 1.012200
12.453700 1.032400
12.478500 1.054800
12.503300 1.079300
12.528100 1.106000
12.552900 1.134900
12.577700 1.165900
12.602500 1.200000
12.627200 1.255000
12.652000 1.294500
12.676800 1.321700
12.701600 1.349600
12.726400 1.719900
12.751200 1.521000
12.776000 1.099600
12.800800 0.967000
12.825600 0.963400
12.850400 0.958900
12.875200 0.953500
12.900000 0.947300
12.924800 0.940700
12.949600 0.934400
12.974400 0.927700
12.999200 0.921000
13.024000 0.914700
13.048800 0.908200
13.073600 0.900900
13.098300 0.892900
13.123100 0.884200
13.147900 0.874900
13.172700 0.864800
13.197500 0.854100
13.222300 0.842700
13.247100 0.830600
13.271900 0.817800
13.296700 0.804300
13.321500 0.790100
13.346300 0.775300
13.371100 0.759700
13.395900 0.743500
13.420700 0.726500
13.445500 0.708900
13.470300 0.690600
13.495100 0.996000
13.519900 1.134100
13.544600 0.634700
13.569400 0.529900
13.594200 0.526600
13.619000 0.522200
13.643800 0.518900
13.668600 0.516800
13.693400 0.515700
13.718200 0.515900
13.743000 0.517200
13.767800 0.519700
13.792600 0.523300
13.817400 0.528100
13.842200 0.534100
13.867000 0.541200
13.891800 0.549500
13.916600 0.559000
13.941400 0.569700
13.966200 0.581900
13.991000 0.595100
14.015700 0.609000
14.040500 0.623400
14.065300 0.644200
14.090100 0.765600
14.114900 0.858200
14.139700 0.950400
14.164500 1.042400
14.189300 1.124800
14.214100 1.191100
14.238900 1.241300
14.263700 1.275500
14.288500 1.293500
14.313300 1.295500
14.338100 1.281500
14.362900 1.251300
14.387700 1.247300
14.412500 1.274600
14.437300 1.300400
14.462100 1.324400
14.486800 1.346600
14.511600 1.367000
14.536400 1.385700
14.561200 1.402500
14.586000 1.417900
14.610800 1.432000
14.635600 1.444800
14.660400 1.456400
14.685200 1.467400
14.710000 1.478100
14.734800 1.489100
14.759600 1.500700
14.784400 1.529500
14.809200 1.594600
14.834000 1.672800
14.858800 1.732800
14.883600 1.769800
14.908400 1.783800
14.933100 1.774800
14.957900 1.742700
14.982700 1.685900
15.007500 1.661900
15.032300 1.984100
15.057100 2.025100
15.081900 1.816800
15.106700 1.695300
15.131500 1.723500
15.156300 1.749100
15.181100 1.772100
15.205900 1.792500
15.230700 1.810300
15.255500 1.825600
15.280300 1.838300
15.305100 1.848500
15.329900 1.856200
15.354700 1.861300
15.379500 1.863800
15.404200 1.866000
15.429000 1.876300
15.453800 1.887300
15.478600 1.897200
15.503400 1.905900
15.528200 1.910100
15.553000 1.894300
15.577800 1.884800
15.602600 1.980700
15.627400 1.987800
15.652200 1.934800
15.677000 1.878300
15.701800 1.827900
15.726600 1.783700
15.751400 1.745800
15.776200 1.713600
15.801000 1.685600
15.825800 1.661700
15.850500 1.641800
15.875300 1.626000
15.900100 1.614200
15.924900 1.608000
15.949700 1.607800
15.974500 1.647400
15.999300 1.749800
16.024100 1.839000
16.048900 1.915000
16.073700 1.980100
16.098500 2.034500
16.123300 2.078000
16.148100 2.110700
16.172900 2.133900
16.197700 2.196900
16.222500 2.130000
16.247300 2.162100
16.272100 2.170200
16.296900 2.235200
16.321600 2.480900
16.346400 2.735700
16.371200 2.975600
16.396000 3.151200
16.420800 3.251600
16.445600 3.156600
16.470400 2.706500
16.495200 2.506100
16.520000 2.437400
16.544800 2.372200
16.569600 2.310400
16.594400 2.263400
16.619200 2.229500
16.644000 2.199600
16.668800 2.173700
16.693600 2.152100
16.718400 2.135500
16.743200 2.124200
16.768000 2.118200
16.792700 2.290900
16.817500 2.442800
16.842300 2.546900
16.867100 2.604100
16.891900 2.614400
16.916700 2.589100
16.941500 2.531500
16.966300 2.137400
16.991100 2.127200
17.015900 2.100700
17.040700 2.073800
17.065500 2.046700
17.090300 2.019200
17.115100 1.991500
17.139900 2.048400
17.164700 2.147800
17.189500 2.233700
17.214300 2.306200
17.239000 2.365300
17.263800 2.411000
17.288600 2.442700
17.313400 2.460100
17.338200 2.462800
17.363000 2.449500
17.387800 2.361900
17.412600 2.074500
17.437400 1.807600
17.462200 1.616800
17.487000 1.502100
17.511800 2.928600
17.536600 0.999700
17.561400 1.012100
17.586200 1.029700
17.611000 1.047800
17.635800 1.065900
17.660600 1.083900
17.685400 1.101900
17.710100 1.119900
17.734900 1.137800
17.759700 1.172700
17.784500 3.296800
17.809300 4.662600
17.834100 2.814100
17.858900 2.287100
17.883700 2.237000
17.908500 2.186400
17.933300 2.122500
17.958100 2.045400
17.982900 1.955300
18.007700 1.854200
18.032500 1.742600
18.057300 1.619900
18.082100 1.486800
18.106900 1.373300
18.131700 1.284000
18.156500 1.173100
18.181200 1.053000
18.206000 0.934100
18.230800 0.874700
18.255600 0.827500
18.280400 0.774000
18.305200 0.714300
18.330000 0.648200
18.354800 0.580300
18.379600 0.542100
18.404400 0.514800
18.429200 0.516800
18.454000 0.535900
18.478800 0.562600
18.503600 0.597600
18.528400 0.636400
18.553200 0.675000
18.578000 0.716700
18.602800 0.757500
18.627500 0.796700
18.652300 0.845800
18.677100 0.900400
18.701900 0.957500
18.726700 1.017000
18.751500 1.074100
18.776300 1.126400
18.801100 1.174200
18.825900 1.217200
18.850700 1.255600
18.875500 1.289300
18.900300 1.319000
18.925100 1.353100
18.949900 1.393200
18.974700 1.438900
18.999500 1.490200
19.024300 1.547200
19.049100 1.609900
19.073900 1.678200
19.098600 1.752100
19.123400 1.831500
19.148200 1.911500
19.173000 1.980400
19.197800 2.032800
19.222600 2.082900
19.247400 2.133400
19.272200 2.184300
19.297000 2.235500
19.321800 2.287100
19.346600 2.339000
19.371400 2.382000
19.396200 2.380500
19.421000 2.346000
19.445800 2.276500
19.470600 2.162000
19.495400 2.017800
19.520200 1.850500
19.545000 2.087900
19.569700 1.596800
19.594500 1.836100
19.619300 2.060300
19.644100 2.263900
19.668900 2.432600
19.693700 2.549700
19.718500 2.598000
19.743300 2.577800
19.768100 2.495800
19.792900 2.354600
19.817700 2.201200
19.842500 2.072600
19.867300 1.970200
19.892100 1.898900
19.916900 1.867300
19.941700 1.872000
19.966500 1.817900
19.991300 1.926600
20.016000 2.145200
20.040800 2.427900
20.065600 2.761000
20.090400 2.455300
20.115200 2.585300
20.140000 2.644100
20.164800 2.674900
20.189600 2.793800
20.214400 2.862600
20.239200 2.890400
20.264000 2.802300
20.288800 2.476100
20.313600 1.992000
20.338400 1.326600
20.363200 0.711500
20.388000 0.521600
20.412800 0.453800
20.437600 0.993300
20.462400 1.011200
20.487100 1.042900
20.511900 1.157700
20.536700 1.250300
20.561500 1.363400
20.586300 1.483200
20.611100 1.730900
20.635900 2.190300
20.660700 2.520000
20.685500 2.700500
20.710300 2.878800
20.735100 3.378400
20.759900 4.173800
20.784700 3.421000
20.809500 3.295500
20.834300 2.951900
20.859100 2.733200
20.883900 2.349200
20.908700 1.627700
20.933500 1.676000
20.958200 1.729600
20.983000 1.785500
21.007800 1.850300
21.032600 1.924500
21.057400 2.008700
21.082200 2.105100
21.107000 2.210100
21.131800 2.323800
21.156600 2.446000
21.181400 2.576700
21.206200 2.722600
21.231000 2.860300
21.255800 2.976200
21.280600 2.951600
21.305400 2.926600
21.330200 2.898800
21.355000 2.846200
21.379800 2.767400
21.404500 2.669400
21.429300 2.558500
21.454100 2.446900
21.478900 2.337800
21.503700 2.231300
21.528500 2.127800
21.553300 2.022900
21.578100 1.920800
21.602900 1.846800
21.627700 1.770700
21.652500 1.709800
21.677300 1.678200
21.702100 1.651200
21.726900 1.620400
21.751700 1.590400
21.776500 1.564100
21.801300 1.541500
21.826100 1.522500
21.850900 1.507100
21.875600 1.495300
21.900400 1.487200
21.925200 1.482700
21.950000 1.482200
21.974800 1.486500
21.999600 1.495700
22.024400 1.509900
22.049200 1.528900
22.074000 1.552800
22.098800 1.581600
22.123600 1.615300
22.148400 1.654000
22.173200 1.697500
22.198000 1.742600
22.222800 1.788000
22.247600 1.832700
22.272400 1.875800
22.297200 1.946000
22.321900 1.997200
22.346700 1.972100
22.371500 1.866400
22.396300 1.872100
22.421100 1.724900
22.445900 1.611400
22.470700 1.618700
22.495500 1.628500
22.520300 1.635300
22.545100 1.635100
22.569900 1.711500
22.594700 1.805600
22.619500 1.875000
22.644300 1.982000
22.669100 2.137200
22.693900 2.255500
22.718700 2.302100
22.743500 2.316200
22.768300 3.188500
22.793000 3.590700
22.817800 2.751700
22.842600 2.750700
22.867400 2.749400
22.892200 2.747800
22.917000 2.744900
22.941800 2.740400
22.966600 2.732800
22.991400 2.704700
23.016200 2.596000
23.041000 2.376900
23.065800 2.125600
23.090600 1.918600
23.115400 1.741900
23.140200 1.609100
23.165000 1.539600
23.189800 1.514800
23.214600 1.494200
23.239400 1.478800
23.264100 1.471400
23.288900 1.471900
23.313700 1.479800
23.338500 1.495300
23.363300 1.518300
23.388100 1.548700
23.412900 1.595400
23.437700 1.771000
23.462500 2.109800
23.487300 2.632900
23.512100 3.590000
23.536900 4.581300
23.561700 5.701700
23.586500 2.688700
23.611300 2.011900
23.636100 1.624400
23.660900 1.225200
23.685700 0.958600
23.710400 0.904300
23.735200 0.885200
23.760000 0.871600
23.784800 0.858500
23.809600 0.845300
23.834400 0.832000
23.859200 1.610200
23.884000 1.549300
23.908800 1.511000
23.933600 1.537100
23.958400 1.595200
23.983200 1.636500
24.008000 1.634000
24.032800 1.588000
24.057600 1.581500
24.082400 1.620900
24.107200 1.657800
24.132000 1.692200
24.156800 1.724000
24.181500 1.753300
24.206300 1.781200
24.231100 1.808600
24.255900 1.833600
24.280700 1.862800
24.305500 1.891600
24.330300 1.920100
24.355100 1.978600
24.379900 2.077100
24.404700 2.215900
24.429500 2.369000
24.454300 2.491800
24.479100 2.550500
24.503900 2.464600
24.528700 2.403900
24.553500 2.431700
24.578300 2.583500
24.603100 2.569400
24.627900 2.397400
24.652600 2.344500
24.677400 2.286700
24.702200 2.211200
24.727000 2.163000
24.751800 2.163900
24.776600 2.203700
24.801400 2.323200
24.826200 2.436400
24.851000 2.451700
24.875800 2.450700
24.900600 2.390100
24.925400 2.301700
24.950200 2.215100
24.975000 2.143900
24.999800 2.053900
25.024600 1.980300
25.049400 1.946800
25.074200 1.914500
25.098900 1.883500
25.123700 1.909900
25.148500 2.087900
25.173300 2.125600
25.198100 2.021600
25.222900 1.876000
25.247700 1.711900
25.272500 1.511000
25.297300 1.446500
25.322100 1.491100
25.346900 1.539000
25.371700 1.590200
25.396500 1.706300
25.421300 1.708900
25.446100 1.529200
25.470900 1.570700
25.495700 1.627200
25.520500 1.698700
25.545300 1.908600
25.570000 2.223700
25.594800 2.553400
25.619600 2.945600
25.644400 3.564000
25.669200 3.869600
25.694000 3.743500
25.718800 3.641400
25.743600 3.493000
25.768400 3.266200
25.793200 2.725700
25.818000 2.348800
25.842800 2.349500
25.867600 2.395300
25.892400 2.524500
25.917200 2.440200
25.942000 2.318000
25.966800 2.397200
25.991600 2.482100
26.016400 2.609600
26.041100 2.838400
26.065900 3.014100
26.090700 3.070400
26.115500 3.007400
26.140300 3.255000
26.165100 2.363000
26.189900 2.204900
26.214700 2.148600
26.239500 2.120300
26.264300 2.155100
26.289100 2.250700
26.313900 2.321200
26.338700 2.365100
26.363500 2.399500
26.388300 2.429100
26.413100 2.449800
26.437900 2.461000
26.462700 2.447000
26.487400 2.418000
26.512200 2.378000
26.537000 2.332600
26.561800 2.281000
26.586600 2.246000
26.611400 2.235500
26.636200 2.241000
26.661000 2.252100
26.685800 2.269200
26.710600 2.292300
26.735400 2.327400
26.760200 2.411400
26.785000 2.606800
26.809800 2.779400
26.834600 2.905100
26.859400 2.806400
26.884200 2.832900
26.909000 2.875300
26.933800 2.906000
26.958500 2.919000
26.983300 2.901600
27.008100 2.874200
27.032900 2.871100
27.057700 2.887300
27.082500 2.954900
27.107300 3.050400
27.132100 3.132700
27.156900 3.178000
27.181700 3.152000
27.206500 3.124900
27.231300 3.114200
27.256100 3.195400
27.280900 3.523000
27.305700 3.843400
27.330500 4.021900
27.355300 4.035000
27.380100 3.952900
27.404900 3.818400
27.429600 3.628500
27.454400 3.576200
27.479200 3.518700
27.504000 3.452900
27.528800 3.385400
27.553600 3.302000
27.578400 3.116100
27.603200 2.713400
27.628000 2.437300
27.652800 2.319900
27.677600 2.291400
27.702400 2.264400
27.727200 2.213600
27.752000 2.142800
27.776800 2.061900
27.801600 1.979700
27.826400 1.935000
27.851200 1.900200
27.875900 1.872100
27.900700 1.848700
27.925500 1.833100
27.950300 1.830800
27.975100 1.852200
27.999900 1.900200
28.024700 1.951300
28.049500 1.997800
28.074300 2.044500
28.099100 2.108000
28.123900 2.153300
28.148700 2.176200
28.173500 2.188900
28.198300 2.199400
28.223100 2.222200
28.247900 2.314200
28.272700 2.512100
28.297500 2.696500
28.322300 3.105500
28.347000 3.405100
28.371800 3.541300
28.396600 3.556300
28.421400 3.524100
28.446200 3.451800
28.471000 3.381300
28.495800 3.295600
28.520600 3.154600
28.545400 2.944200
28.570200 2.757800
28.595000 2.691100
28.619800 2.647900
28.644600 2.610700
28.669400 2.560500
28.694200 2.484700
28.719000 2.409500
28.743800 2.329600
28.768600 2.250700
28.793300 2.611700
28.818100 2.483100
28.842900 2.557400
28.867700 2.613100
28.892500 2.647500
28.917300 2.660000
28.942100 2.874900
28.966900 2.862900
28.991700 2.736500
29.016500 2.638000
29.041300 2.550200
29.066100 2.465700
29.090900 2.389600
29.115700 2.321900
29.140500 2.262700
29.165300 2.268600
29.190100 2.305600
29.214900 2.323100
29.239700 2.534100
29.264400 2.225400
29.289200 2.124500
29.314000 2.138100
29.338800 2.157500
29.363600 2.147400
29.388400 2.113200
29.413200 2.097600
29.438000 2.111100
29.462800 2.132900
29.487600 2.157600
29.512400 2.178600
29.537200 2.200300
29.562000 2.223300
29.586800 2.225500
29.611600 2.314300
29.636400 2.435500
29.661200 2.274000
29.686000 2.271600
29.710800 2.266700
29.735500 2.260600
29.760300 2.253100
29.785100 2.259000
29.809900 2.346900
29.834700 2.434300
29.859500 2.470400
29.884300 2.455000
29.909100 2.388100
29.933900 2.273400
29.958700 2.228600
29.983500 2.196900
30.008300 2.162700
30.033100 2.125900
30.057900 2.085900
30.082700 2.042300
30.107500 1.994700
30.132300 1.943200
30.157100 1.887700
30.181800 1.828200
30.206600 1.764700
30.231400 1.697100
30.256200 1.625700
30.281000 1.533300
30.305800 1.457000
30.330600 1.379900
30.355400 1.324800
30.380200 1.284400
30.405000 1.243500
30.429800 1.202300
30.454600 1.161300
30.479400 1.122200
30.504200 1.087600
30.529000 1.059800
30.553800 1.036500
30.578600 1.017500
30.603400 1.004000
30.628200 0.993400
30.652900 0.986400
30.677700 0.983800
30.702500 0.984700
30.727300 0.991800
30.752100 0.977900
30.776900 0.959200
30.801700 0.940700
30.826500 0.922600
30.851300 0.904700
30.876100 0.887200
30.900900 0.869900
30.925700 0.853000
30.950500 0.836300
30.975300 0.820000
31.000100 0.804000
31.024900 0.788200
31.049700 0.772800
31.074500 0.757700
31.099300 0.742800
31.124000 0.728300
31.148800 0.714100
31.173600 0.700100
31.198400 0.686400
31.223200 0.672900
31.248000 0.659600
31.272800 0.646600
31.297600 0.634000
31.322400 0.621700
31.347200 0.609600
31.372000 0.598000
31.396800 0.586900
31.421600 0.576100
31.446400 0.566200
31.471200 0.557600
31.496000 0.550300
31.520800 0.544200
31.545600 0.539400
31.570300 0.535800
31.595100 0.532800
31.619900 0.529800
31.644700 0.527100
31.669500 0.524800
31.694300 0.522000
31.719100 0.517200
31.743900 0.510300
31.768700 0.501200
31.793500 0.483400
31.818300 0.459100
31.843100 0.436000
31.867900 0.414100
31.892700 0.393500
31.917500 0.374100
31.942300 0.355900
31.967100 0.338900
31.991900 0.323200
32.016700 0.308700
32.041400 0.295400
32.066200 0.283300
32.091000 0.272500
32.115800 0.262500
32.140600 0.252100
32.165400 0.242200
32.190200 0.233700
32.215000 0.225400
32.239800 0.218000
32.264600 0.212600
32.289400 0.211300
32.314200 0.209700
32.339000 0.207400
32.363800 0.204600
32.388600 0.201100
32.413400 0.196900
32.438200 0.192100
32.463000 0.187000
32.487800 0.182000
32.512500 0.177300
32.537300 0.172800
32.562100 0.168600
32.586900 0.164700
32.611700 0.160900
32.636500 0.157500
32.661300 0.154300
32.686100 0.151300
32.710900 0.148600
32.735700 0.146200
32.760500 0.144000
32.785300 0.142000
32.810100 0.140300
32.834900 0.138900
32.859700 0.137700
32.884500 0.136700
32.909300 0.136000
32.934100 0.135600
32.958800 0.135400
32.983600 0.135500
33.008400 0.137200
33.033200 0.143600
33.058000 0.154800
33.082800 0.170800
33.107600 0.188200
33.132400 0.202700
33.157200 0.214400
33.182000 0.223400
33.206800 0.229500
33.231600 0.232800
33.256400 0.233300
33.281200 0.231000
33.306000 0.225900
33.330800 0.217900
33.355600 0.203000
33.380400 0.161100
33.405200 0.118500
33.429900 0.089700
33.454700 0.021300
33.479500 0.000100
33.504300 0.000000
33.529100 0.000000
33.553900 0.000000
33.578700 0.000000
33.603500 0.000000
33.628300 0.000000
33.653100 0.000000
33.677900 0.000000
33.702700 0.000000
33.727500 0.000000
33.752300 0.000000
33.777100 0.000000
33.801900 0.000000
33.826700 0.000000
33.851500 0.000000
33.876300 0.000000
33.901000 0.000000
33.925800 0.000000
33.950600 0.000000
33.975400 0.000000
34.000200 0.000000
34.025000 0.000000
34.049800 0.000000
34.074600 0.000000
34.099400 0.000000
34.124200 0.000000
34.149000 0.000000
34.173800 0.000000
34.198600 0.000000
34.223400 0.000000
34.248200 0.000000
34.273000 0.000000
34.297800 0.000000
34.322600 0.000000
34.347300 0.000000
34.372100 0.000000
34.396900 0.000000
34.421700 0.000000
34.446500 0.000000
34.471300 0.000000
34.496100 0.000000
34.520900 0.000000
34.545700 0.000000
34.570500 0.000000
34.595300 0.000000
34.620100 0.000000
34.644900 0.000000
34.669700 0.000000
34.694500 0.000000
34.719300 0.000000
34.744100 0.000000
34.768900 0.000000
34.793700 0.000000
34.818400 0.000000
34.843200 0.000000
34.868000 0.000000
34.892800 0.000000
34.917600 0.000000
34.942400 0.000000
34.967200 0.000000
34.992000 0.000000
35.016800 0.000000
35.041600 0.000000
35.066400 0.000000
35.091200 0.000000
35.116000 0.000000
35.140800 0.000000
35.165600 0.000000
35.190400 0.000000
35.215200 0.000000
35.240000 0.000000
35.264700 0.000000
35.289500 0.000000
35.314300 0.000000
35.339100 0.000000
35.363900 0.000000
35.388700 0.000000
35.413500 0.000000
35.438300 0.000000
35.463100 0.000000
35.487900 0.000000
35.512700 0.000000
35.537500 0.000000
35.562300 0.000000
35.587100 0.000000
35.611900 0.000000
35.636700 0.000000
35.661500 0.000000
35.686300 0.000000
35.711100 0.000000
35.735800 0.000000
e
