set title 'mp-726332 - Density of States'
set xlabel 'Energy (eV)'
set ylabel 'DOS (states/eV)'
set grid
set xrange [-10:10]
set yrange [0:2.994]
set xzeroaxis lt -1
set terminal png size 800,600
set output 'mp-726332_dos_gnuplot.png'
plot '-' using 1:2 with lines title 'DOS'
-15.644800 0.000000
-15.625600 0.000000
-15.606500 0.000000
-15.587300 0.000000
-15.568100 0.000000
-15.549000 0.000000
-15.529800 0.000000
-15.510700 0.000000
-15.491500 0.000000
-15.472400 0.000000
-15.453200 0.000000
-15.434100 0.000000
-15.414900 0.000000
-15.395800 0.000000
-15.376600 0.000000
-15.357500 0.000000
-15.338300 0.000000
-15.319100 0.000000
-15.300000 0.000000
-15.280800 0.000000
-15.261700 0.000000
-15.242500 0.000000
-15.223400 0.000000
-15.204200 0.000000
-15.185100 0.000000
-15.165900 0.000000
-15.146800 0.000000
-15.127600 0.000000
-15.108400 0.000000
-15.089300 0.000000
-15.070100 0.000000
-15.051000 0.000000
-15.031800 0.000000
-15.012700 0.000000
-14.993500 0.000000
-14.974400 0.000000
-14.955200 0.000000
-14.936100 0.000000
-14.916900 0.000000
-14.897700 0.000000
-14.878600 0.000000
-14.859400 0.000000
-14.840300 0.000000
-14.821100 0.000000
-14.802000 0.000000
-14.782800 0.000000
-14.763700 0.000000
-14.744500 0.000000
-14.725400 0.000000
-14.706200 0.000000
-14.687000 0.000000
-14.667900 0.000000
-14.648700 0.000000
-14.629600 0.000000
-14.610400 0.000000
-14.591300 0.000000
-14.572100 0.000000
-14.553000 0.000000
-14.533800 0.000000
-14.514700 0.000000
-14.495500 0.000000
-14.476300 0.000000
-14.457200 0.000000
-14.438000 0.000000
-14.418900 0.000000
-14.399700 0.000000
-14.380600 0.000000
-14.361400 0.000000
-14.342300 0.000000
-14.323100 0.000000
-14.304000 0.000000
-14.284800 0.000000
-14.265600 0.000000
-14.246500 0.000000
-14.227300 0.000000
-14.208200 0.000000
-14.189000 0.000000
-14.169900 0.000000
-14.150700 0.000000
-14.131600 0.000000
-14.112400 0.000000
-14.093300 0.000000
-14.074100 0.000000
-14.054900 0.000000
-14.035800 0.000000
-14.016600 0.000000
-13.997500 0.000000
-13.978300 0.000000
-13.959200 0.000000
-13.940000 0.000000
-13.920900 0.000000
-13.901700 0.000500
-13.882600 0.059700
-13.863400 0.153900
-13.844200 0.189800
-13.825100 0.212600
-13.805900 0.248400
-13.786800 0.286800
-13.767600 0.326600
-13.748500 0.351200
-13.729300 0.371500
-13.710200 0.398400
-13.691000 0.429000
-13.671900 0.461400
-13.652700 0.498300
-13.633500 0.542600
-13.614400 0.602700
-13.595200 0.683600
-13.576100 0.693000
-13.556900 0.672100
-13.537800 0.678000
-13.518600 0.686000
-13.499500 0.689600
-13.480300 0.682100
-13.461200 0.674000
-13.442000 0.677700
-13.422800 0.683300
-13.403700 0.688800
-13.384500 0.693900
-13.365400 0.694300
-13.346200 0.692600
-13.327100 0.688500
-13.307900 0.681900
-13.288800 0.680400
-13.269600 0.680800
-13.250500 0.681500
-13.231300 0.682800
-13.212200 0.684700
-13.193000 0.687300
-13.173800 0.690000
-13.154700 0.692200
-13.135500 0.693800
-13.116400 0.694400
-13.097200 0.692200
-13.078100 0.689000
-13.058900 0.687700
-13.039800 0.687400
-13.020600 0.687500
-13.001500 0.687700
-12.982300 0.688200
-12.963100 0.689000
-12.944000 0.690000
-12.924800 0.691000
-12.905700 0.691900
-12.886500 0.692700
-12.867400 0.693200
-12.848200 0.693500
-12.829100 0.693000
-12.809900 0.691400
-12.790800 0.691800
-12.771600 0.693300
-12.752400 0.695000
-12.733300 0.695200
-12.714100 0.694500
-12.695000 0.694700
-12.675800 0.695000
-12.656700 0.695300
-12.637500 0.695500
-12.618400 0.695600
-12.599200 0.696000
-12.580100 0.696400
-12.560900 0.696900
-12.541700 0.697400
-12.522600 0.697700
-12.503400 0.697700
-12.484300 0.696800
-12.465100 0.695500
-12.446000 0.695700
-12.426800 0.696500
-12.407700 0.697400
-12.388500 0.698500
-12.369400 0.699900
-12.350200 0.701500
-12.331000 0.702600
-12.311900 0.702500
-12.292700 0.702600
-12.273600 0.702800
-12.254400 0.703000
-12.235300 0.703200
-12.216100 0.703300
-12.197000 0.703700
-12.177800 0.704000
-12.158700 0.704300
-12.139500 0.704500
-12.120300 0.704600
-12.101200 0.704300
-12.082000 0.703400
-12.062900 0.702500
-12.043700 0.702700
-12.024600 0.703100
-12.005400 0.703800
-11.986300 0.704600
-11.967100 0.705500
-11.948000 0.706800
-11.928800 0.708100
-11.909600 0.709500
-11.890500 0.710900
-11.871300 0.820900
-11.852200 0.898100
-11.833000 0.849800
-11.813900 0.841400
-11.794700 0.837500
-11.775600 0.836000
-11.756400 0.835400
-11.737300 0.813800
-11.718100 0.806000
-11.698900 0.801900
-11.679800 0.799300
-11.660600 0.806200
-11.641500 0.834100
-11.622300 0.854300
-11.603200 0.717200
-11.584000 0.685900
-11.564900 0.659700
-11.545700 0.633900
-11.526600 0.607800
-11.507400 0.575000
-11.488200 0.561500
-11.469100 0.548300
-11.449900 0.535400
-11.430800 0.522400
-11.411600 0.509800
-11.392500 0.496600
-11.373300 0.478900
-11.354200 0.530700
-11.335000 0.649700
-11.315900 0.636100
-11.296700 0.640100
-11.277500 0.652300
-11.258400 0.668800
-11.239200 0.688300
-11.220100 0.688400
-11.200900 0.702100
-11.181800 0.720200
-11.162600 0.747300
-11.143500 0.784200
-11.124300 0.904700
-11.105200 0.849700
-11.086000 0.785000
-11.066800 0.777500
-11.047700 0.773100
-11.028500 0.767700
-11.009400 0.755900
-10.990200 0.750100
-10.971100 0.752400
-10.951900 0.754500
-10.932800 0.756400
-10.913600 0.757700
-10.894500 0.757800
-10.875300 0.756900
-10.856200 0.748200
-10.837000 0.750200
-10.817800 0.752700
-10.798700 0.755500
-10.779500 0.756900
-10.760400 0.758000
-10.741200 0.759100
-10.722100 0.760300
-10.702900 0.761300
-10.683800 0.761900
-10.664600 0.761600
-10.645500 0.760700
-10.626300 0.763000
-10.607100 0.763600
-10.588000 0.763900
-10.568800 0.763600
-10.549700 0.764700
-10.530500 0.766300
-10.511400 0.768100
-10.492200 0.769900
-10.473100 0.771700
-10.453900 0.773600
-10.434800 0.775400
-10.415600 0.777900
-10.396400 0.779200
-10.377300 0.782300
-10.358100 0.785500
-10.339000 0.788600
-10.319800 0.791700
-10.300700 0.795200
-10.281500 0.799100
-10.262400 0.803200
-10.243200 0.807700
-10.224100 0.813400
-10.204900 0.817500
-10.185700 0.821700
-10.166600 0.826200
-10.147400 0.830500
-10.128300 0.834900
-10.109100 0.840100
-10.090000 0.845100
-10.070800 0.850100
-10.051700 0.887400
-10.032500 0.869700
-10.013400 0.864900
-9.994200 0.917200
-9.975000 0.939900
-9.955900 0.959700
-9.936700 0.979500
-9.917600 1.004000
-9.898400 1.047900
-9.879300 0.996200
-9.860100 1.049300
-9.841000 1.052000
-9.821800 1.086700
-9.802700 1.067000
-9.783500 1.037000
-9.764300 1.001300
-9.745200 0.964000
-9.726000 0.936300
-9.706900 0.922000
-9.687700 0.816300
-9.668600 0.811800
-9.649400 0.781400
-9.630300 0.742300
-9.611100 0.710900
-9.592000 0.691500
-9.572800 0.683200
-9.553600 0.738300
-9.534500 0.705600
-9.515300 0.683300
-9.496200 0.668200
-9.477000 0.656300
-9.457900 0.646400
-9.438700 0.638500
-9.419600 0.635500
-9.400400 0.650000
-9.381300 0.582500
-9.362100 0.566100
-9.342900 0.559300
-9.323800 0.552700
-9.304600 0.546300
-9.285500 0.540100
-9.266300 0.534400
-9.247200 0.529100
-9.228000 0.524000
-9.208900 0.524900
-9.189700 0.577900
-9.170600 0.544200
-9.151400 0.530100
-9.132200 0.521500
-9.113100 0.515200
-9.093900 0.511000
-9.074800 0.508700
-9.055600 0.518900
-9.036500 0.510600
-9.017300 0.458800
-8.998200 0.453700
-8.979000 0.448600
-8.959900 0.443600
-8.940700 0.438500
-8.921500 0.433400
-8.902400 0.428300
-8.883200 0.423300
-8.864100 0.418200
-8.844900 0.413100
-8.825800 0.408600
-8.806600 0.404200
-8.787500 0.402200
-8.768300 0.406100
-8.749200 0.414600
-8.730000 0.427100
-8.710900 0.474000
-8.691700 0.480400
-8.672500 0.477400
-8.653400 0.486700
-8.634200 0.504200
-8.615100 0.518700
-8.595900 0.526400
-8.576800 0.513600
-8.557600 0.533600
-8.538500 0.554500
-8.519300 0.697000
-8.500200 0.662000
-8.481000 0.710400
-8.461800 0.693900
-8.442700 0.687700
-8.423500 0.697300
-8.404400 0.706900
-8.385200 0.719200
-8.366100 0.737400
-8.346900 0.760500
-8.327800 0.793300
-8.308600 0.821500
-8.289500 0.801700
-8.270300 0.793300
-8.251100 0.781700
-8.232000 0.769600
-8.212800 0.783200
-8.193700 0.801800
-8.174500 0.817400
-8.155400 0.830400
-8.136200 0.837100
-8.117100 0.833000
-8.097900 0.811500
-8.078800 0.809700
-8.059600 0.799400
-8.040400 0.822400
-8.021300 0.860100
-8.002100 0.843400
-7.983000 0.839600
-7.963800 0.841400
-7.944700 0.846000
-7.925500 0.863200
-7.906400 0.863600
-7.887200 0.800200
-7.868100 0.797900
-7.848900 0.794200
-7.829700 0.793300
-7.810600 0.792500
-7.791400 0.792300
-7.772300 0.794000
-7.753100 0.797400
-7.734000 0.803200
-7.714800 0.810500
-7.695700 0.819700
-7.676500 0.831600
-7.657400 0.865500
-7.638200 0.948300
-7.619000 1.127200
-7.599900 0.882100
-7.580700 0.884500
-7.561600 0.883400
-7.542400 0.880700
-7.523300 0.878000
-7.504100 0.875200
-7.485000 0.872300
-7.465800 0.868500
-7.446700 0.865200
-7.427500 0.861900
-7.408300 0.859100
-7.389200 0.856500
-7.370000 0.854100
-7.350900 0.857900
-7.331700 0.870500
-7.312600 0.888400
-7.293400 0.986400
-7.274300 0.970300
-7.255100 0.974100
-7.236000 0.985900
-7.216800 1.007200
-7.197600 0.955000
-7.178500 0.882200
-7.159300 0.835600
-7.140200 0.802000
-7.121000 0.781400
-7.101900 0.769500
-7.082700 0.766900
-7.063600 0.773300
-7.044400 0.780400
-7.025300 0.787900
-7.006100 0.833600
-6.986900 0.837800
-6.967800 0.848700
-6.948600 0.862400
-6.929500 0.873400
-6.910300 0.885300
-6.891200 0.899500
-6.872000 0.913200
-6.852900 0.925900
-6.833700 0.939900
-6.814600 1.031000
-6.795400 1.094000
-6.776200 1.155600
-6.757100 1.166400
-6.737900 1.174300
-6.718800 1.157400
-6.699600 1.137700
-6.680500 1.131700
-6.661300 1.129300
-6.642200 1.125600
-6.623000 1.119500
-6.603900 1.114700
-6.584700 1.113500
-6.565600 1.112100
-6.546400 1.111100
-6.527200 1.109900
-6.508100 1.108500
-6.488900 1.106600
-6.469800 1.105000
-6.450600 1.103600
-6.431500 1.102600
-6.412300 1.102100
-6.393200 1.101300
-6.374000 1.100300
-6.354900 1.099700
-6.335700 1.102000
-6.316500 1.106900
-6.297400 1.127200
-6.278200 1.126300
-6.259100 1.120900
-6.239900 1.112700
-6.220800 1.102900
-6.201600 1.091600
-6.182500 1.075400
-6.163300 1.054900
-6.144200 1.030200
-6.125000 0.984000
-6.105800 0.940100
-6.086700 0.907100
-6.067500 0.879600
-6.048400 0.856500
-6.029200 0.831900
-6.010100 0.809100
-5.990900 0.789200
-5.971800 0.774000
-5.952600 0.766300
-5.933500 0.758300
-5.914300 0.751000
-5.895100 0.743800
-5.876000 0.736700
-5.856800 0.729300
-5.837700 0.722100
-5.818500 0.714900
-5.799400 0.707700
-5.780200 0.700700
-5.761100 0.693700
-5.741900 0.686800
-5.722800 0.680300
-5.703600 0.674400
-5.684400 0.669100
-5.665300 0.664000
-5.646100 0.659000
-5.627000 0.654000
-5.607800 0.648900
-5.588700 0.643800
-5.569500 0.638700
-5.550400 0.633600
-5.531200 0.628700
-5.512100 0.623900
-5.492900 0.619500
-5.473700 0.616900
-5.454600 0.613500
-5.435400 0.609000
-5.416300 0.607700
-5.397100 0.605300
-5.378000 0.602500
-5.358800 0.599700
-5.339700 0.597000
-5.320500 0.595100
-5.301400 0.590200
-5.282200 0.585400
-5.263000 0.580600
-5.243900 0.575800
-5.224700 0.570900
-5.205600 0.566100
-5.186400 0.561300
-5.167300 0.556500
-5.148100 0.551900
-5.129000 0.547300
-5.109800 0.542800
-5.090700 0.538400
-5.071500 0.534100
-5.052300 0.529900
-5.033200 0.525900
-5.014000 0.538100
-4.994900 0.541300
-4.975700 0.542200
-4.956600 0.541000
-4.937400 0.539200
-4.918300 0.538600
-4.899100 0.538900
-4.880000 0.538100
-4.860800 0.511400
-4.841600 0.504400
-4.822500 0.496800
-4.803300 0.497900
-4.784200 0.487400
-4.765000 0.475300
-4.745900 0.464200
-4.726700 0.454000
-4.707600 0.444200
-4.688400 0.434800
-4.669300 0.425900
-4.650100 0.417300
-4.630900 0.408100
-4.611800 0.398800
-4.592600 0.386800
-4.573500 0.373300
-4.554300 0.375800
-4.535200 0.378200
-4.516000 0.389100
-4.496900 0.406100
-4.477700 0.418500
-4.458600 0.430000
-4.439400 0.441300
-4.420300 0.452600
-4.401100 0.464300
-4.381900 0.476800
-4.362800 0.476100
-4.343600 0.470600
-4.324500 0.479000
-4.305300 0.480100
-4.286200 0.477300
-4.267000 0.474000
-4.247900 0.470700
-4.228700 0.467100
-4.209600 0.463100
-4.190400 0.458200
-4.171200 0.452700
-4.152100 0.445400
-4.132900 0.437000
-4.113800 0.422900
-4.094600 0.405100
-4.075500 0.403200
-4.056300 0.401400
-4.037200 0.399600
-4.018000 0.397800
-3.998900 0.395900
-3.979700 0.394100
-3.960500 0.392300
-3.941400 0.390400
-3.922200 0.388400
-3.903100 0.386400
-3.883900 0.384300
-3.864800 0.382200
-3.845600 0.380100
-3.826500 0.377900
-3.807300 0.375800
-3.788200 0.373600
-3.769000 0.371500
-3.749800 0.370100
-3.730700 0.368700
-3.711500 0.366900
-3.692400 0.365100
-3.673200 0.363300
-3.654100 0.361600
-3.634900 0.360000
-3.615800 0.358400
-3.596600 0.356800
-3.577500 0.355300
-3.558300 0.353900
-3.539100 0.352500
-3.520000 0.351100
-3.500800 0.349700
-3.481700 0.348300
-3.462500 0.346900
-3.443400 0.345500
-3.424200 0.344100
-3.405100 0.342700
-3.385900 0.341300
-3.366800 0.339900
-3.347600 0.338500
-3.328400 0.337100
-3.309300 0.335500
-3.290100 0.334000
-3.271000 0.332500
-3.251800 0.330900
-3.232700 0.329400
-3.213500 0.327900
-3.194400 0.326300
-3.175200 0.324800
-3.156100 0.323400
-3.136900 0.323900
-3.117700 0.327800
-3.098600 0.330800
-3.079400 0.387100
-3.060300 0.419900
-3.041100 0.447000
-3.022000 0.485400
-3.002800 0.528800
-2.983700 0.581700
-2.964500 0.639800
-2.945400 0.705600
-2.926200 0.788300
-2.907000 0.886800
-2.887900 1.035500
-2.868700 1.347500
-2.849600 1.416800
-2.830400 1.649200
-2.811300 1.320000
-2.792100 1.292500
-2.773000 1.284200
-2.753800 1.291400
-2.734700 1.325000
-2.715500 1.334000
-2.696300 1.342300
-2.677200 1.359700
-2.658000 1.385200
-2.638900 1.430100
-2.619700 1.424500
-2.600600 1.418300
-2.581400 1.390200
-2.562300 1.334700
-2.543100 1.264000
-2.524000 1.213300
-2.504800 1.077200
-2.485600 0.818100
-2.466500 0.677100
-2.447300 0.585100
-2.428200 0.511200
-2.409000 0.506100
-2.389900 0.514300
-2.370700 0.524800
-2.351600 0.534200
-2.332400 0.550600
-2.313300 0.580700
-2.294100 0.621800
-2.274900 0.665000
-2.255800 0.712900
-2.236600 0.789000
-2.217500 0.910200
-2.198300 1.020800
-2.179200 1.086600
-2.160000 1.143700
-2.140900 1.193800
-2.121700 1.248200
-2.102600 1.305800
-2.083400 1.366600
-2.064300 1.436600
-2.045100 1.517400
-2.025900 1.632100
-2.006800 1.668200
-1.987600 1.675200
-1.968500 1.664100
-1.949300 1.628800
-1.930200 1.566800
-1.911000 1.515800
-1.891900 1.480500
-1.872700 1.441700
-1.853600 1.384300
-1.834400 1.324700
-1.815200 1.224600
-1.796100 1.093500
-1.776900 0.968900
-1.757800 0.863100
-1.738600 0.821100
-1.719500 0.801900
-1.700300 0.786200
-1.681200 0.769800
-1.662000 0.753900
-1.642900 0.744700
-1.623700 0.742300
-1.604500 0.743100
-1.585400 0.741800
-1.566200 0.744200
-1.547100 0.750100
-1.527900 0.758000
-1.508800 0.767400
-1.489600 0.778000
-1.470500 0.792700
-1.451300 0.833200
-1.432200 0.924500
-1.413000 1.022600
-1.393800 1.095800
-1.374700 1.146200
-1.355500 1.206800
-1.336400 1.265300
-1.317200 1.316300
-1.298100 1.365100
-1.278900 1.411500
-1.259800 1.453400
-1.240600 1.506400
-1.221500 1.927700
-1.202300 1.955600
-1.183100 1.539400
-1.164000 1.484700
-1.144800 1.416500
-1.125700 1.383600
-1.106500 1.363800
-1.087400 1.315500
-1.068200 1.268700
-1.049100 1.222600
-1.029900 1.186200
-1.010800 1.159000
-0.991600 1.134200
-0.972400 1.105100
-0.953300 1.082100
-0.934100 1.081400
-0.915000 1.091800
-0.895800 1.101200
-0.876700 1.113800
-0.857500 1.133500
-0.838400 1.164300
-0.819200 1.213900
-0.800100 2.002600
-0.780900 1.493900
-0.761700 1.375900
-0.742600 1.304000
-0.723400 1.305200
-0.704300 1.307400
-0.685100 1.309500
-0.666000 1.303400
-0.646800 1.304900
-0.627700 1.307000
-0.608500 1.312000
-0.589400 1.318000
-0.570200 1.325000
-0.551000 1.333500
-0.531900 1.343100
-0.512700 1.353600
-0.493600 1.363000
-0.474400 1.375200
-0.455300 1.388800
-0.436100 1.402200
-0.417000 1.424900
-0.397800 1.434700
-0.378700 1.398800
-0.359500 1.350600
-0.340300 1.327400
-0.321200 1.317600
-0.302000 1.306600
-0.282900 1.305800
-0.263700 1.310900
-0.244600 1.310400
-0.225400 1.309000
-0.206300 1.306300
-0.187100 1.301400
-0.168000 1.294000
-0.148800 1.283500
-0.129600 1.271000
-0.110500 1.256800
-0.091300 1.246300
-0.072200 1.237400
-0.053000 1.232500
-0.033900 1.230000
-0.014700 1.226700
0.004400 1.224100
0.023600 1.230700
0.042700 1.250900
0.061900 1.263200
0.081000 1.266700
0.100200 1.266700
0.119400 1.268100
0.138500 1.274200
0.157700 1.283600
0.176800 1.291900
0.196000 1.298300
0.215100 1.303400
0.234300 1.308400
0.253400 1.317200
0.272600 1.328700
0.291700 1.335700
0.310900 1.346700
0.330100 1.360400
0.349200 1.362500
0.368400 1.372700
0.387500 1.375900
0.406700 1.376300
0.425800 1.381700
0.445000 1.385600
0.464100 1.388100
0.483300 1.391300
0.502400 1.395800
0.521600 1.411500
0.540800 1.417300
0.559900 1.426200
0.579100 1.433700
0.598200 1.432200
0.617400 1.432900
0.636500 1.427300
0.655700 1.428300
0.674800 1.442700
0.694000 1.451400
0.713100 1.457600
0.732300 1.476400
0.751500 1.481900
0.770600 1.484400
0.789800 1.485300
0.808900 1.475400
0.828100 1.471900
0.847200 1.467900
0.866400 1.464700
0.885500 1.466800
0.904700 1.460600
0.923800 1.454000
0.943000 1.449800
0.962200 1.444500
0.981300 1.441400
1.000500 1.443800
1.019600 1.441400
1.038800 1.441200
1.057900 1.443000
1.077100 1.444700
1.096200 1.447400
1.115400 1.450800
1.134500 1.455300
1.153700 1.461100
1.172900 1.466700
1.192000 1.472300
1.211200 1.478600
1.230300 1.486100
1.249500 1.499500
1.268600 1.536000
1.287800 1.550500
1.306900 1.580800
1.326100 1.600800
1.345200 1.628800
1.364400 1.662700
1.383600 1.687600
1.402700 1.717400
1.421900 1.752300
1.441000 1.772800
1.460200 1.834400
1.479300 1.889000
1.498500 1.956300
1.517600 2.031200
1.536800 2.058100
1.555900 2.083300
1.575100 2.093500
1.594300 2.038600
1.613400 1.922800
1.632600 1.869900
1.651700 1.811300
1.670900 1.837100
1.690000 1.965900
1.709200 2.172500
1.728300 2.153500
1.747500 2.118800
1.766600 1.975800
1.785800 1.780700
1.805000 1.573700
1.824100 1.569600
1.843300 1.497700
1.862400 1.435200
1.881600 1.373800
1.900700 1.360600
1.919900 1.355900
1.939000 1.352700
1.958200 1.350000
1.977300 1.334900
1.996500 1.338600
2.015700 1.355700
2.034800 1.388200
2.054000 1.416100
2.073100 1.491100
2.092300 1.470200
2.111400 1.468700
2.130600 1.465900
2.149700 1.478500
2.168900 1.472800
2.188000 1.491200
2.207200 1.515600
2.226300 1.546900
2.245500 1.585100
2.264700 1.628200
2.283800 1.678600
2.303000 1.708300
2.322100 1.756700
2.341300 1.816500
2.360400 1.869400
2.379600 1.929200
2.398700 1.974100
2.417900 2.024600
2.437000 2.070200
2.456200 2.078300
2.475400 2.095000
2.494500 2.117400
2.513700 2.111100
2.532800 2.136400
2.552000 2.216800
2.571100 2.220300
2.590300 2.258600
2.609400 2.296500
2.628600 2.358500
2.647700 2.423000
2.666900 2.431100
2.686100 2.515100
2.705200 2.640500
2.724400 2.721500
2.743500 2.714400
2.762700 2.639600
2.781800 2.512800
2.801000 2.358300
2.820100 2.201900
2.839300 2.065500
2.858400 1.930400
2.877600 1.814100
2.896800 1.703100
2.915900 1.590300
2.935100 1.506100
2.954200 1.411200
2.973400 1.306700
2.992500 1.202100
3.011700 1.141300
3.030800 1.097100
3.050000 1.066100
3.069100 1.042900
3.088300 1.045800
3.107500 1.031000
3.126600 1.005200
3.145800 0.969200
3.164900 0.893000
3.184100 0.815400
3.203200 0.758200
3.222400 0.768600
3.241500 0.822700
3.260700 0.909900
3.279800 1.023100
3.299000 1.085900
3.318200 1.264600
3.337300 1.423000
3.356500 1.654700
3.375600 1.966500
3.394800 2.141100
3.413900 2.309900
3.433100 2.395700
3.452200 2.426900
3.471400 2.473700
3.490500 2.475300
3.509700 2.457200
3.528900 2.445100
3.548000 2.409200
3.567200 2.372500
3.586300 2.414700
3.605500 2.474300
3.624600 2.439200
3.643800 2.333200
3.662900 2.506500
3.682100 2.409000
3.701200 2.372100
3.720400 2.353500
3.739600 2.358700
3.758700 2.371900
3.777900 2.415100
3.797000 2.498200
3.816200 2.537800
3.835300 2.568500
3.854500 2.601300
3.873600 2.608300
3.892800 2.536900
3.911900 2.551000
3.931100 2.549000
3.950300 2.557300
3.969400 2.518200
3.988600 2.434800
4.007700 2.399600
4.026900 2.410500
4.046000 2.398300
4.065200 2.350500
4.084300 2.304400
4.103500 2.293300
4.122600 2.303900
4.141800 2.318800
4.161000 2.339000
4.180100 2.377400
4.199300 2.370100
4.218400 2.316100
4.237600 2.314600
4.256700 2.301700
4.275900 2.256900
4.295000 2.223700
4.314200 2.205600
4.333300 2.187700
4.352500 2.181800
4.371700 2.150200
4.390800 2.131300
4.410000 2.077900
4.429100 2.069000
4.448300 2.064500
4.467400 2.299400
4.486600 2.130400
4.505700 2.139500
4.524900 2.072600
4.544000 2.028000
4.563200 1.929900
4.582300 1.891400
4.601500 1.869000
4.620700 1.812000
4.639800 1.753200
4.659000 1.850100
4.678100 1.925100
4.697300 1.783300
4.716400 1.912300
4.735600 1.537600
4.754700 1.491300
4.773900 1.325400
4.793000 1.285600
4.812200 1.248900
4.831400 1.447100
4.850500 1.227800
4.869700 1.033200
4.888800 1.025500
4.908000 1.028000
4.927100 1.037300
4.946300 1.057800
4.965400 1.079200
4.984600 1.073900
5.003700 1.077700
5.022900 1.085700
5.042100 1.111200
5.061200 1.096200
5.080400 1.039400
5.099500 1.009000
5.118700 0.982800
5.137800 0.958300
5.157000 0.928600
5.176100 0.895000
5.195300 0.864900
5.214400 0.847600
5.233600 0.774400
5.252800 0.692000
5.271900 0.577000
5.291100 0.456000
5.310200 0.330400
5.329400 0.221500
5.348500 0.145400
5.367700 0.099900
5.386800 0.064200
5.406000 0.028600
5.425100 0.004500
5.444300 0.000000
5.463500 0.000000
5.482600 0.006600
5.501800 0.031900
5.520900 0.067500
5.540100 0.103700
5.559200 0.138700
5.578400 0.175600
5.597500 0.214900
5.616700 0.257700
5.635800 0.304800
5.655000 0.377900
5.674200 0.480500
5.693300 0.696600
5.712500 1.018500
5.731600 1.016400
5.750800 1.032100
5.769900 1.027600
5.789100 1.064100
5.808200 1.069900
5.827400 1.040900
5.846500 1.017100
5.865700 1.018400
5.884900 1.039100
5.904000 1.060100
5.923200 1.097200
5.942300 1.144700
5.961500 1.184100
5.980600 1.200900
5.999800 1.191500
6.018900 1.118000
6.038100 1.088600
6.057200 1.090000
6.076400 1.086500
6.095600 1.071200
6.114700 1.057100
6.133900 1.045200
6.153000 1.035100
6.172200 1.025800
6.191300 1.017800
6.210500 1.011400
6.229600 1.006600
6.248800 1.003500
6.267900 1.001600
6.287100 1.001000
6.306300 1.003300
6.325400 1.007700
6.344600 1.016600
6.363700 1.029500
6.382900 1.046700
6.402000 1.080600
6.421200 1.148400
6.440300 1.222200
6.459500 1.300800
6.478600 1.479600
6.497800 1.587200
6.517000 1.758300
6.536100 1.938900
6.555300 1.867800
6.574400 1.558500
6.593600 1.376900
6.612700 1.196700
6.631900 0.979300
6.651000 0.738100
6.670200 0.612700
6.689300 0.529600
6.708500 0.480200
6.727600 0.466300
6.746800 0.451900
6.766000 0.449100
6.785100 0.459400
6.804300 0.543300
6.823400 0.591500
6.842600 0.662200
6.861700 0.738600
6.880900 0.809200
6.900000 0.899900
6.919200 1.022400
6.938300 1.120000
6.957500 1.174700
6.976700 1.234200
6.995800 1.294400
7.015000 1.360300
7.034100 1.449500
7.053300 1.534600
7.072400 1.481800
7.091600 1.257800
7.110700 1.103200
7.129900 1.014900
7.149000 0.984200
7.168200 0.955600
7.187400 0.930500
7.206500 0.910600
7.225700 0.895600
7.244800 0.878400
7.264000 0.854800
7.283100 0.817700
7.302300 0.788100
7.321400 0.774300
7.340600 0.769000
7.359700 0.760400
7.378900 0.751700
7.398100 0.744100
7.417200 0.738600
7.436400 0.737200
7.455500 0.739300
7.474700 0.741700
7.493800 0.744100
7.513000 0.746900
7.532100 0.925300
7.551300 1.372300
7.570400 1.355800
7.589600 0.947800
7.608800 0.941800
7.627900 0.936600
7.647100 0.931300
7.666200 0.925700
7.685400 0.885000
7.704500 0.811600
7.723700 0.815500
7.742800 0.816200
7.762000 0.812100
7.781100 0.806700
7.800300 0.801800
7.819500 0.797200
7.838600 0.793800
7.857800 0.791200
7.876900 0.761200
7.896100 0.748000
7.915200 0.743600
7.934400 0.744300
7.953500 0.745300
7.972700 0.747000
7.991800 0.749600
8.011000 0.751300
8.030200 0.753200
8.049300 0.756300
8.068500 0.759700
8.087600 0.762600
8.106800 0.767000
8.125900 0.773700
8.145100 0.777500
8.164200 0.775400
8.183400 0.810600
8.202500 0.787200
8.221700 0.801400
8.240900 0.817200
8.260000 0.863500
8.279200 0.922000
8.298300 0.968200
8.317500 1.013200
8.336600 1.081500
8.355800 1.025500
8.374900 1.001500
8.394100 0.980800
8.413200 1.098500
8.432400 1.191600
8.451600 1.160900
8.470700 1.177600
8.489900 1.199800
8.509000 1.236200
8.528200 1.286200
8.547300 1.349300
8.566500 1.538100
8.585600 1.537400
8.604800 1.398100
8.623900 1.342300
8.643100 1.325700
8.662300 1.311400
8.681400 1.273900
8.700600 1.283800
8.719700 1.292000
8.738900 1.301000
8.758000 1.311800
8.777200 1.323900
8.796300 1.340100
8.815500 1.354700
8.834600 1.376000
8.853800 1.439600
8.872900 1.493100
8.892100 1.552100
8.911300 1.622600
8.930400 1.755800
8.949600 1.851700
8.968700 1.895400
8.987900 1.933600
9.007000 1.995100
9.026200 1.912000
9.045300 1.866300
9.064500 1.812900
9.083600 1.748500
9.102800 1.697300
9.122000 1.710600
9.141100 1.705800
9.160300 1.747300
9.179400 1.809100
9.198600 1.844200
9.217700 1.806600
9.236900 1.800200
9.256000 1.758600
9.275200 1.610100
9.294300 1.339100
9.313500 1.018300
9.332700 0.833700
9.351800 0.824100
9.371000 0.831900
9.390100 0.848500
9.409300 0.865500
9.428400 0.883600
9.447600 0.895900
9.466700 0.962500
9.485900 1.012200
9.505000 1.046200
9.524200 1.089100
9.543400 1.124600
9.562500 1.160800
9.581700 1.192700
9.600800 1.234700
9.620000 1.270700
9.639100 1.333300
9.658300 1.401300
9.677400 1.508600
9.696600 1.630700
9.715700 1.650900
9.734900 1.653700
9.754100 1.671200
9.773200 1.700600
9.792400 1.740300
9.811500 1.782000
9.830700 1.825100
9.849800 1.871400
9.869000 1.922200
9.888100 1.958800
9.907300 2.000400
9.926400 2.045900
9.945600 2.115500
9.964800 2.205600
9.983900 2.311800
10.003100 2.427600
10.022200 2.557900
10.041400 2.701200
10.060500 2.847700
10.079700 3.042100
10.098800 3.247800
10.118000 3.363700
10.137100 3.503800
10.156300 3.302500
10.175500 3.203600
10.194600 3.089600
10.213800 2.983500
10.232900 2.990500
10.252100 2.924700
10.271200 2.978400
10.290400 2.995500
10.309500 3.119900
10.328700 3.200400
10.347800 3.291500
10.367000 3.231500
10.386200 3.086800
10.405300 3.135600
10.424500 3.134300
10.443600 3.424200
10.462800 3.341100
10.481900 3.264100
10.501100 3.180100
10.520200 3.069600
10.539400 2.969900
10.558500 2.852200
10.577700 2.761400
10.596900 2.738100
10.616000 2.750900
10.635200 2.787100
10.654300 2.856200
10.673500 2.972600
10.692600 3.162400
10.711800 3.187600
10.730900 3.076900
10.750100 2.885100
10.769200 2.587800
10.788400 2.440900
10.807600 2.259800
10.826700 1.981300
10.845900 1.879000
10.865000 1.696100
10.884200 1.556700
10.903300 1.470300
10.922500 1.430000
10.941600 1.308500
10.960800 1.255200
10.979900 1.439700
10.999100 1.254700
11.018200 1.218600
11.037400 1.187300
11.056600 1.173800
11.075700 1.162700
11.094900 1.134700
11.114000 1.112300
11.133200 1.090800
11.152300 1.066300
11.171500 1.037300
11.190600 1.034600
11.209800 1.058300
11.228900 1.050400
11.248100 1.039300
11.267300 1.059100
11.286400 1.025100
11.305600 1.030900
11.324700 1.054300
11.343900 1.107400
11.363000 1.165900
11.382200 1.298600
11.401300 1.608000
11.420500 1.757000
11.439600 1.711300
11.458800 1.599500
11.478000 1.577400
11.497100 1.571900
11.516300 1.608700
11.535400 1.653100
11.554600 1.747800
11.573700 1.807100
11.592900 1.891500
11.612000 1.976600
11.631200 2.072800
11.650300 2.373800
11.669500 3.046700
11.688700 3.101200
11.707800 2.784000
11.727000 2.585800
11.746100 2.465400
11.765300 2.387900
11.784400 2.346100
11.803600 2.288700
11.822700 2.234700
11.841900 2.181700
11.861000 2.262600
11.880200 2.196000
11.899400 1.987600
11.918500 1.911800
11.937700 1.897500
11.956800 1.891800
11.976000 1.875600
11.995100 1.822100
12.014300 1.897900
12.033400 1.736100
12.052600 1.784200
12.071700 1.488800
12.090900 1.589800
12.110100 1.599600
12.129200 1.628900
12.148400 1.621800
12.167500 1.642400
12.186700 1.665300
12.205800 1.694400
12.225000 1.730500
12.244100 1.751400
12.263300 1.808200
12.282400 1.831900
12.301600 1.859500
12.320800 1.872000
12.339900 1.891100
12.359100 1.898200
12.378200 1.901800
12.397400 1.940100
12.416500 1.958600
12.435700 1.964700
12.454800 1.963000
12.474000 1.963800
12.493100 1.970300
12.512300 2.024100
12.531500 2.027500
12.550600 2.047000
12.569800 2.099500
12.588900 2.170400
12.608100 2.163400
12.627200 2.121800
12.646400 2.134300
12.665500 2.142300
12.684700 2.145100
12.703800 2.173200
12.723000 2.170700
12.742200 2.170900
12.761300 2.186200
12.780500 2.214600
12.799600 2.286200
12.818800 2.370500
12.837900 2.384800
12.857100 2.351500
12.876200 2.350300
12.895400 2.310900
12.914500 2.148300
12.933700 1.991000
12.952900 1.851500
12.972000 1.756800
12.991200 1.676700
13.010300 1.616300
13.029500 1.557000
13.048600 1.511700
13.067800 1.462200
13.086900 1.412600
13.106100 1.363700
13.125200 1.318000
13.144400 1.285300
13.163600 1.249200
13.182700 1.217900
13.201900 1.187700
13.221000 1.158300
13.240200 1.127300
13.259300 1.096200
13.278500 1.066500
13.297600 1.035000
13.316800 0.999500
13.335900 0.964800
13.355100 0.931400
13.374200 0.897800
13.393400 0.869200
13.412600 0.844300
13.431700 0.819400
13.450900 0.790500
13.470000 0.749900
13.489200 0.705300
13.508300 0.663500
13.527500 0.614300
13.546600 0.534100
13.565800 0.457100
13.584900 0.304800
13.604100 0.253900
13.623300 0.221700
13.642400 0.192200
13.661600 0.178000
13.680700 0.183100
13.699900 0.188500
13.719000 0.194000
13.738200 0.199600
13.757300 0.205300
13.776500 0.211000
13.795600 0.216800
13.814800 0.222800
13.834000 0.229200
13.853100 0.236700
13.872300 0.244900
13.891400 0.253400
13.910600 0.263400
13.929700 0.273800
13.948900 0.284000
13.968000 0.294300
13.987200 0.304300
14.006300 0.313900
14.025500 0.323700
14.044700 0.333600
14.063800 0.343300
14.083000 0.353900
14.102100 0.367400
14.121300 0.383600
14.140400 0.402300
14.159600 0.432500
14.178700 0.481900
14.197900 0.547400
14.217000 0.647000
14.236200 0.844600
14.255400 0.892800
14.274500 0.905900
14.293700 0.902700
14.312800 0.809800
14.332000 0.804400
14.351100 0.822600
14.370300 0.843700
14.389400 0.860800
14.408600 0.875100
14.427700 0.888000
14.446900 0.901000
14.466100 0.912500
14.485200 0.920500
14.504400 0.927000
14.523500 0.936600
14.542700 0.949200
14.561800 0.948200
14.581000 0.955600
14.600100 0.964500
14.619300 0.968500
14.638400 0.969700
14.657600 0.973200
14.676800 0.982700
14.695900 0.992400
14.715100 1.005900
14.734200 1.019900
14.753400 1.034600
14.772500 1.051000
14.791700 1.069000
14.810800 1.089600
14.830000 1.113100
14.849100 1.137600
14.868300 1.162900
14.887500 1.186000
14.906600 1.206000
14.925800 1.223500
14.944900 1.238400
14.964100 1.258800
14.983200 1.325000
15.002400 1.525200
15.021500 1.595100
15.040700 1.576800
15.059800 1.457000
15.079000 1.403300
15.098200 1.373200
15.117300 1.370200
15.136500 1.369800
15.155600 1.367500
15.174800 1.367700
15.193900 1.368300
15.213100 1.366700
15.232200 1.355200
15.251400 1.352700
15.270500 1.347600
15.289700 1.336900
15.308900 1.331400
15.328000 1.330800
15.347200 1.329200
15.366300 1.328500
15.385500 1.329700
15.404600 1.334600
15.423800 1.341700
15.442900 1.353500
15.462100 1.360500
15.481200 1.366100
15.500400 1.372000
15.519500 1.380200
15.538700 1.385100
15.557900 1.397300
15.577000 1.409300
15.596200 1.426300
15.615300 1.442600
15.634500 1.460400
15.653600 1.493600
15.672800 1.521600
15.691900 1.540400
15.711100 1.570600
15.730200 1.592600
15.749400 1.605400
15.768600 1.619700
15.787700 1.637800
15.806900 1.642900
15.826000 1.614700
15.845200 1.623600
15.864300 1.630700
15.883500 1.639700
15.902600 1.648300
15.921800 1.656300
15.940900 1.660800
15.960100 1.661200
15.979300 1.659400
15.998400 1.655400
16.017600 1.651100
16.036700 1.649000
16.055900 1.638100
16.075000 1.627900
16.094200 1.613300
16.113300 1.599700
16.132500 1.590400
16.151600 1.584500
16.170800 1.578500
16.190000 1.562700
16.209100 1.554300
16.228300 1.557200
16.247400 1.565100
16.266600 1.578200
16.285700 1.596400
16.304900 1.620000
16.324000 1.646100
16.343200 1.673700
16.362300 1.706500
16.381500 1.740500
16.400700 1.764600
16.419800 1.774600
16.439000 1.779500
16.458100 1.784800
16.477300 1.789300
16.496400 1.803000
16.515600 1.819900
16.534700 1.836400
16.553900 1.850600
16.573000 1.881100
16.592200 1.904300
16.611400 1.912800
16.630500 1.905600
16.649700 1.947000
16.668800 1.867000
16.688000 1.688100
16.707100 1.680800
16.726300 1.680100
16.745400 1.678900
16.764600 1.676700
16.783700 1.670100
16.802900 1.667000
16.822100 1.675800
16.841200 1.683200
16.860400 1.675800
16.879500 1.668400
16.898700 1.675800
16.917800 1.680400
16.937000 1.683300
16.956100 1.685600
16.975300 1.702400
16.994400 1.679400
17.013600 1.685900
17.032800 1.693900
17.051900 1.702500
17.071100 1.708200
17.090200 1.679100
17.109400 1.693000
17.128500 1.709100
17.147700 1.727900
17.166800 1.750500
17.186000 1.775100
17.205100 1.814900
17.224300 1.853700
17.243500 1.888200
17.262600 1.940900
17.281800 1.971200
17.300900 1.987400
17.320100 2.026800
17.339200 2.063400
17.358400 2.100600
17.377500 2.122300
17.396700 2.133400
17.415800 2.141400
17.435000 2.131500
17.454200 2.129300
17.473300 2.110200
17.492500 2.094700
17.511600 2.096100
17.530800 2.133500
17.549900 2.154300
17.569100 2.177700
17.588200 2.065400
17.607400 2.068600
17.626500 1.937900
17.645700 1.869000
17.664800 1.817300
17.684000 1.797700
17.703200 1.773200
17.722300 1.752400
17.741500 1.732600
17.760600 1.713700
17.779800 1.700100
17.798900 1.692900
17.818100 1.690500
17.837200 1.744900
17.856400 1.696500
17.875500 1.684800
17.894700 1.692600
17.913900 1.705900
17.933000 1.797900
17.952200 1.745200
17.971300 1.740200
17.990500 1.736700
18.009600 1.709500
18.028800 1.734300
18.047900 1.788300
18.067100 1.732400
18.086200 1.681600
18.105400 1.651000
18.124600 1.626300
18.143700 1.599500
18.162900 1.570700
18.182000 1.543800
18.201200 1.516700
18.220300 1.482600
18.239500 1.462700
18.258600 1.443800
18.277800 1.426500
18.296900 1.414100
18.316100 1.399300
18.335300 1.392400
18.354400 1.400500
18.373600 1.376300
18.392700 1.350700
18.411900 1.325600
18.431000 1.310100
18.450200 1.301200
18.469300 1.308700
18.488500 1.272000
18.507600 1.135200
18.526800 1.114700
18.546000 1.106800
18.565100 1.099200
18.584300 1.092000
18.603400 1.085600
18.622600 1.079900
18.641700 1.078100
18.660900 1.083000
18.680000 1.087100
18.699200 1.091800
18.718300 1.091500
18.737500 1.088600
18.756700 1.088400
18.775800 1.091300
18.795000 1.099600
18.814100 1.112900
18.833300 1.131200
18.852400 1.195800
18.871600 1.275300
18.890700 1.280400
18.909900 1.205800
18.929000 1.112700
18.948200 1.001000
18.967400 0.942000
18.986500 0.918500
19.005700 0.895000
19.024800 0.872200
19.044000 0.850500
19.063100 0.829500
19.082300 0.807600
19.101400 0.785300
19.120600 0.762600
19.139700 0.739500
19.158900 0.718200
19.178100 0.699700
19.197200 0.682900
19.216400 0.666300
19.235500 0.648800
19.254700 0.668200
19.273800 0.714300
19.293000 0.719300
19.312100 0.678900
19.331300 0.620400
19.350400 0.596000
19.369600 0.571500
19.388800 0.547600
19.407900 0.528900
19.427100 0.520600
19.446200 0.515700
19.465400 0.487300
19.484500 0.465000
19.503700 0.448000
19.522800 0.429500
19.542000 0.411700
19.561100 0.403900
19.580300 0.397100
19.599500 0.390400
19.618600 0.381800
19.637800 0.373400
19.656900 0.365500
19.676100 0.358100
19.695200 0.351400
19.714400 0.344000
19.733500 0.337700
19.752700 0.331400
19.771800 0.325100
19.791000 0.318800
19.810200 0.312600
19.829300 0.306700
19.848500 0.301600
19.867600 0.297400
19.886800 0.294200
19.905900 0.289500
19.925100 0.284000
19.944200 0.278100
19.963400 0.271900
19.982500 0.266200
20.001700 0.261400
20.020800 0.256700
20.040000 0.252600
20.059200 0.249100
20.078300 0.246000
20.097500 0.243000
20.116600 0.259800
20.135800 0.283200
20.154900 0.232900
20.174100 0.235000
20.193200 0.242200
20.212400 0.249600
20.231500 0.257000
20.250700 0.264500
20.269900 0.260200
20.289000 0.256900
20.308200 0.266300
20.327300 0.273300
20.346500 0.272900
20.365600 0.270600
20.384800 0.264800
20.403900 0.254900
20.423100 0.241100
20.442200 0.224900
20.461400 0.194100
20.480600 0.159600
20.499700 0.122900
20.518900 0.099200
20.538000 0.082100
20.557200 0.072400
20.576300 0.068000
20.595500 0.063000
20.614600 0.057400
20.633800 0.051300
20.652900 0.043300
20.672100 0.038500
20.691300 0.034700
20.710400 0.030900
20.729600 0.027100
20.748700 0.023500
20.767900 0.019900
20.787000 0.016500
20.806200 0.013100
20.825300 0.009700
20.844500 0.006500
20.863600 0.003400
20.882800 0.001200
20.902000 0.000200
20.921100 0.000000
20.940300 0.000000
20.959400 0.000000
20.978600 0.000000
20.997700 0.000000
21.016900 0.000000
21.036000 0.000000
21.055200 0.000000
21.074300 0.000000
21.093500 0.000000
21.112700 0.000000
21.131800 0.000000
21.151000 0.000000
21.170100 0.000000
21.189300 0.000000
21.208400 0.000000
21.227600 0.000000
21.246700 0.000000
21.265900 0.000000
21.285000 0.000000
21.304200 0.000000
21.323400 0.000000
21.342500 0.000000
21.361700 0.000000
21.380800 0.000000
21.400000 0.000000
21.419100 0.000000
21.438300 0.000000
21.457400 0.000000
21.476600 0.000000
21.495700 0.000000
21.514900 0.000000
21.534100 0.000000
21.553200 0.000000
21.572400 0.000000
21.591500 0.000000
21.610700 0.000000
21.629800 0.000000
21.649000 0.000000
21.668100 0.000000
21.687300 0.000000
21.706400 0.000000
21.725600 0.000000
21.744800 0.000000
21.763900 0.000000
21.783100 0.000000
21.802200 0.000000
21.821400 0.000000
21.840500 0.000000
21.859700 0.000000
21.878800 0.000000
21.898000 0.000000
21.917100 0.000000
21.936300 0.000000
21.955500 0.000000
21.974600 0.000000
21.993800 0.000000
22.012900 0.000000
22.032100 0.000000
22.051200 0.000000
22.070400 0.000000
22.089500 0.000000
22.108700 0.000000
22.127800 0.000000
22.147000 0.000000
22.166100 0.000000
22.185300 0.000000
22.204500 0.000000
22.223600 0.000000
22.242800 0.000000
22.261900 0.000000
22.281100 0.000000
22.300200 0.000000
22.319400 0.000000
22.338500 0.000000
22.357700 0.000000
22.376800 0.000000
22.396000 0.000000
22.415200 0.000000
22.434300 0.000000
22.453500 0.000000
22.472600 0.000000
22.491800 0.000000
22.510900 0.000000
22.530100 0.000000
22.549200 0.000000
22.568400 0.000000
22.587500 0.000000
22.606700 0.000000
22.625900 0.000000
22.645000 0.000000
22.664200 0.000000
e
