set title 'mp-1223969 - Density of States'
set xlabel 'Energy (eV)'
set ylabel 'DOS (states/eV)'
set grid
set xrange [-10:10]
set yrange [0:25.191]
set xzeroaxis lt -1
set terminal png size 800,600
set output 'mp-1223969_dos_gnuplot.png'
plot '-' using 1:2 with lines title 'DOS'
-14.110000 0.000000
-14.087600 0.000000
-14.065200 0.000000
-14.042700 0.000000
-14.020300 0.000000
-13.997900 0.000000
-13.975400 0.000000
-13.953000 0.000000
-13.930600 0.000000
-13.908200 0.000000
-13.885700 0.000000
-13.863300 0.000000
-13.840900 0.000000
-13.818400 0.000000
-13.796000 0.000000
-13.773600 0.000000
-13.751200 0.000000
-13.728700 0.000000
-13.706300 0.000000
-13.683900 0.000000
-13.661400 0.000000
-13.639000 0.000000
-13.616600 0.000000
-13.594200 0.000000
-13.571700 0.000000
-13.549300 0.000000
-13.526900 0.000000
-13.504400 0.000000
-13.482000 0.000000
-13.459600 0.000000
-13.437200 0.000000
-13.414700 0.000000
-13.392300 0.000000
-13.369900 0.000000
-13.347400 0.000000
-13.325000 0.000000
-13.302600 0.000000
-13.280200 0.000000
-13.257700 0.000000
-13.235300 0.000000
-13.212900 0.000000
-13.190400 0.000000
-13.168000 0.000000
-13.145600 0.000000
-13.123200 0.000000
-13.100700 0.000000
-13.078300 0.000000
-13.055900 0.000000
-13.033400 0.000000
-13.011000 0.000000
-12.988600 0.000000
-12.966200 0.000000
-12.943700 0.000000
-12.921300 0.000000
-12.898900 0.000000
-12.876400 0.000000
-12.854000 0.000000
-12.831600 0.000000
-12.809200 0.000000
-12.786700 0.000000
-12.764300 0.000000
-12.741900 0.000000
-12.719400 0.000000
-12.697000 0.000000
-12.674600 0.000000
-12.652200 0.000000
-12.629700 0.000000
-12.607300 0.000000
-12.584900 0.000000
-12.562400 0.000000
-12.540000 0.000000
-12.517600 0.000000
-12.495200 0.000000
-12.472700 0.000000
-12.450300 0.000000
-12.427900 0.000000
-12.405500 0.000000
-12.383000 0.000000
-12.360600 0.000000
-12.338200 0.000000
-12.315700 0.000000
-12.293300 0.000000
-12.270900 0.000000
-12.248500 0.000000
-12.226000 0.000000
-12.203600 0.000000
-12.181200 0.000000
-12.158700 0.000000
-12.136300 0.000000
-12.113900 0.000000
-12.091500 0.000000
-12.069000 10.797700
-12.046600 15.301300
-12.024200 17.632600
-12.001700 39.244800
-11.979300 106.360900
-11.956900 90.539200
-11.934500 69.752900
-11.912000 64.096200
-11.889600 25.560400
-11.867200 60.241300
-11.844700 28.689500
-11.822300 49.974500
-11.799900 66.590400
-11.777500 63.894700
-11.755000 138.778800
-11.732600 39.661100
-11.710200 15.061100
-11.687700 0.000000
-11.665300 0.000000
-11.642900 0.000000
-11.620500 0.000000
-11.598000 0.000000
-11.575600 0.000000
-11.553200 0.000000
-11.530700 0.000000
-11.508300 0.000000
-11.485900 0.000000
-11.463500 0.000000
-11.441000 0.000000
-11.418600 0.000000
-11.396200 0.000000
-11.373700 0.000000
-11.351300 0.000000
-11.328900 0.000000
-11.306500 0.000000
-11.284000 0.000000
-11.261600 0.000000
-11.239200 0.000000
-11.216700 0.000000
-11.194300 0.000000
-11.171900 0.000000
-11.149500 0.000000
-11.127000 0.000000
-11.104600 0.000000
-11.082200 0.000000
-11.059700 0.000000
-11.037300 0.000000
-11.014900 0.000000
-10.992500 0.000000
-10.970000 0.000000
-10.947600 0.000000
-10.925200 0.000000
-10.902700 0.000000
-10.880300 0.000000
-10.857900 0.000000
-10.835500 0.000000
-10.813000 0.000000
-10.790600 0.000000
-10.768200 0.000000
-10.745700 0.000000
-10.723300 0.000000
-10.700900 0.000000
-10.678500 0.000000
-10.656000 0.000000
-10.633600 0.000000
-10.611200 0.000000
-10.588800 0.000000
-10.566300 0.000000
-10.543900 0.000000
-10.521500 0.000000
-10.499000 0.000000
-10.476600 0.000000
-10.454200 0.000000
-10.431800 0.000000
-10.409300 0.000000
-10.386900 0.000000
-10.364500 0.000000
-10.342000 0.000000
-10.319600 0.000000
-10.297200 0.000000
-10.274800 0.000000
-10.252300 0.000000
-10.229900 0.000000
-10.207500 0.000000
-10.185000 0.000000
-10.162600 0.000000
-10.140200 0.000000
-10.117800 0.000000
-10.095300 0.000000
-10.072900 0.000000
-10.050500 0.000000
-10.028000 0.000000
-10.005600 0.000000
-9.983200 0.000000
-9.960800 0.000000
-9.938300 0.000000
-9.915900 0.000000
-9.893500 0.000000
-9.871000 0.000000
-9.848600 0.000000
-9.826200 0.000000
-9.803800 0.000000
-9.781300 0.000000
-9.758900 0.000000
-9.736500 0.000000
-9.714000 0.000000
-9.691600 0.000000
-9.669200 0.000000
-9.646800 0.000000
-9.624300 0.000000
-9.601900 0.000000
-9.579500 0.000000
-9.557000 0.000000
-9.534600 0.000000
-9.512200 0.000000
-9.489800 0.000000
-9.467300 0.000000
-9.444900 0.000000
-9.422500 0.000000
-9.400000 0.000000
-9.377600 0.000000
-9.355200 0.000000
-9.332800 0.000000
-9.310300 0.000000
-9.287900 0.000000
-9.265500 0.000000
-9.243000 0.000000
-9.220600 0.000000
-9.198200 0.000000
-9.175800 0.000000
-9.153300 0.000000
-9.130900 0.000000
-9.108500 0.000000
-9.086000 0.000000
-9.063600 0.000000
-9.041200 0.000000
-9.018800 0.000000
-8.996300 0.000000
-8.973900 0.000000
-8.951500 0.000000
-8.929000 0.000000
-8.906600 0.000000
-8.884200 0.000000
-8.861800 0.000000
-8.839300 0.000000
-8.816900 0.000000
-8.794500 0.000000
-8.772100 0.000000
-8.749600 0.000000
-8.727200 0.000000
-8.704800 0.000000
-8.682300 0.000000
-8.659900 0.000000
-8.637500 0.000000
-8.615100 0.000000
-8.592600 0.000000
-8.570200 0.000000
-8.547800 0.000000
-8.525300 0.000000
-8.502900 0.000000
-8.480500 0.000000
-8.458100 0.000000
-8.435600 0.000000
-8.413200 0.000000
-8.390800 0.000000
-8.368300 0.000000
-8.345900 0.000000
-8.323500 0.000000
-8.301100 0.000000
-8.278600 0.000000
-8.256200 0.000000
-8.233800 0.000000
-8.211300 0.000000
-8.188900 0.000000
-8.166500 0.000000
-8.144100 0.000000
-8.121600 0.000000
-8.099200 0.000000
-8.076800 0.000000
-8.054300 0.000000
-8.031900 0.000000
-8.009500 0.000000
-7.987100 0.000000
-7.964600 0.000000
-7.942200 0.000000
-7.919800 0.000000
-7.897300 0.000000
-7.874900 0.000000
-7.852500 0.000000
-7.830100 0.000000
-7.807600 0.000000
-7.785200 0.000000
-7.762800 0.000000
-7.740300 0.000000
-7.717900 0.000000
-7.695500 0.000000
-7.673100 0.000000
-7.650600 0.000000
-7.628200 0.000000
-7.605800 0.000000
-7.583300 0.000000
-7.560900 0.000000
-7.538500 0.000000
-7.516100 0.000000
-7.493600 0.000000
-7.471200 0.000000
-7.448800 0.000000
-7.426300 0.000000
-7.403900 0.000000
-7.381500 0.000000
-7.359100 0.000000
-7.336600 0.000000
-7.314200 0.000000
-7.291800 0.000000
-7.269300 0.000000
-7.246900 0.000000
-7.224500 0.000000
-7.202100 0.000000
-7.179600 0.000000
-7.157200 0.000000
-7.134800 0.000000
-7.112300 0.000000
-7.089900 0.000000
-7.067500 0.000000
-7.045100 0.000000
-7.022600 0.000000
-7.000200 0.000000
-6.977800 0.000000
-6.955300 0.000000
-6.932900 0.000000
-6.910500 0.000000
-6.888100 0.000000
-6.865600 0.000000
-6.843200 0.000000
-6.820800 0.000000
-6.798400 0.000000
-6.775900 0.000000
-6.753500 0.000000
-6.731100 0.000000
-6.708600 0.000000
-6.686200 0.000000
-6.663800 0.000000
-6.641400 0.000000
-6.618900 0.000000
-6.596500 0.000000
-6.574100 0.000000
-6.551600 0.000000
-6.529200 0.000000
-6.506800 0.000000
-6.484400 0.000000
-6.461900 0.000000
-6.439500 0.000000
-6.417100 0.000000
-6.394600 0.000000
-6.372200 0.000000
-6.349800 0.000000
-6.327400 0.000000
-6.304900 0.000000
-6.282500 0.000000
-6.260100 0.000000
-6.237600 0.000000
-6.215200 0.000000
-6.192800 0.000000
-6.170400 0.000000
-6.147900 0.000000
-6.125500 0.000000
-6.103100 0.000000
-6.080600 0.000000
-6.058200 0.000000
-6.035800 0.000000
-6.013400 0.000000
-5.990900 0.000000
-5.968500 0.000000
-5.946100 0.000000
-5.923600 0.000000
-5.901200 0.000000
-5.878800 0.000000
-5.856400 0.143900
-5.833900 0.204000
-5.811500 0.267400
-5.789100 0.335900
-5.766600 0.456500
-5.744200 0.447600
-5.721800 0.451200
-5.699400 0.453300
-5.676900 0.456200
-5.654500 0.456900
-5.632100 0.446900
-5.609600 0.440400
-5.587200 0.442500
-5.564800 0.445900
-5.542400 0.448800
-5.519900 0.451800
-5.497500 0.459500
-5.475100 0.461700
-5.452600 0.459800
-5.430200 0.459200
-5.407800 0.457400
-5.385400 0.452000
-5.362900 0.450200
-5.340500 0.451400
-5.318100 0.451900
-5.295600 0.451700
-5.273200 0.451100
-5.250800 0.450900
-5.228400 0.451600
-5.205900 0.453300
-5.183500 0.455900
-5.161100 0.459800
-5.138600 0.463700
-5.116200 0.467000
-5.093800 0.467600
-5.071400 0.466700
-5.048900 0.465500
-5.026500 0.463000
-5.004100 0.460500
-4.981700 0.459700
-4.959200 0.460500
-4.936800 0.462000
-4.914400 0.462800
-4.891900 0.463200
-4.869500 0.463500
-4.847100 0.463600
-4.824700 0.463700
-4.802200 0.464800
-4.779800 0.466100
-4.757400 0.467600
-4.734900 0.469200
-4.712500 0.471200
-4.690100 0.473400
-4.667700 0.476000
-4.645200 0.478600
-4.622800 0.480800
-4.600400 0.480900
-4.577900 0.481200
-4.555500 0.481200
-4.533100 0.479900
-4.510700 0.480300
-4.488200 0.481100
-4.465800 0.482000
-4.443400 0.483100
-4.420900 0.542800
-4.398500 0.591100
-4.376100 0.612000
-4.353700 0.638200
-4.331200 0.666300
-4.308800 0.696400
-4.286400 0.721300
-4.263900 0.744900
-4.241500 0.769800
-4.219100 0.796900
-4.196700 0.820800
-4.174200 0.846600
-4.151800 0.874200
-4.129400 0.902500
-4.106900 0.989600
-4.084500 1.019200
-4.062100 1.021900
-4.039700 1.031700
-4.017200 1.038400
-3.994800 1.038500
-3.972400 1.035500
-3.949900 1.037400
-3.927500 1.042600
-3.905100 1.044500
-3.882700 1.052000
-3.860200 1.058700
-3.837800 1.064900
-3.815400 1.070600
-3.792900 1.074600
-3.770500 1.077200
-3.748100 1.081700
-3.725700 1.088000
-3.703200 1.093400
-3.680800 1.098500
-3.658400 1.104000
-3.635900 1.110400
-3.613500 1.118500
-3.591100 1.126700
-3.568700 1.134900
-3.546200 1.141800
-3.523800 1.149000
-3.501400 1.155600
-3.478900 1.161800
-3.456500 1.167600
-3.434100 1.174300
-3.411700 1.182700
-3.389200 1.195400
-3.366800 1.212300
-3.344400 1.228400
-3.321900 1.244000
-3.299500 1.259900
-3.277100 1.275600
-3.254700 1.291900
-3.232200 1.309000
-3.209800 1.326700
-3.187400 1.345500
-3.165000 1.367900
-3.142500 1.393000
-3.120100 1.419900
-3.097700 1.449400
-3.075200 1.484500
-3.052800 1.524700
-3.030400 1.572500
-3.008000 1.638800
-2.985500 1.732700
-2.963100 1.800600
-2.940700 1.865500
-2.918200 1.879500
-2.895800 1.850600
-2.873400 1.835200
-2.851000 1.834300
-2.828500 1.805400
-2.806100 1.813700
-2.783700 1.791200
-2.761200 1.764500
-2.738800 1.750100
-2.716400 1.786600
-2.694000 1.803500
-2.671500 1.729300
-2.649100 1.732000
-2.626700 1.757200
-2.604200 1.832400
-2.581800 1.861000
-2.559400 1.884900
-2.537000 2.003400
-2.514500 2.034400
-2.492100 2.001000
-2.469700 1.993700
-2.447200 2.027800
-2.424800 2.080100
-2.402400 2.058500
-2.380000 2.072300
-2.357500 2.049000
-2.335100 1.984400
-2.312700 1.911600
-2.290200 1.930100
-2.267800 1.951800
-2.245400 1.723900
-2.223000 1.617500
-2.200500 1.579900
-2.178100 1.569200
-2.155700 1.639700
-2.133200 1.661800
-2.110800 1.431400
-2.088400 1.395400
-2.066000 1.219700
-2.043500 1.009000
-2.021100 0.603200
-1.998700 0.440800
-1.976200 0.383500
-1.953800 0.341500
-1.931400 0.295800
-1.909000 0.250900
-1.886500 0.230300
-1.864100 0.204500
-1.841700 4.614000
-1.819200 4.114900
-1.796800 4.451700
-1.774400 6.729700
-1.752000 7.435400
-1.729500 8.267500
-1.707100 8.054900
-1.684700 7.372300
-1.662200 7.928500
-1.639800 6.184200
-1.617400 5.623900
-1.595000 6.241100
-1.572500 3.267600
-1.550100 5.441400
-1.527700 8.239800
-1.505200 16.867900
-1.482800 13.840800
-1.460400 14.026800
-1.438000 14.159100
-1.415500 17.251100
-1.393100 17.109100
-1.370700 16.752600
-1.348300 22.901000
-1.325800 18.515900
-1.303400 17.281600
-1.281000 22.030900
-1.258500 22.563200
-1.236100 22.741600
-1.213700 10.669500
-1.191300 13.555200
-1.168800 12.565700
-1.146400 7.161100
-1.124000 6.956700
-1.101500 7.846600
-1.079100 8.033400
-1.056700 8.242000
-1.034300 7.617900
-1.011800 7.109000
-0.989400 7.627800
-0.967000 7.454700
-0.944500 5.829300
-0.922100 4.492800
-0.899700 1.991600
-0.877300 1.824000
-0.854800 0.747900
-0.832400 0.600700
-0.810000 0.487300
-0.787500 0.391200
-0.765100 0.296000
-0.742700 0.124500
-0.720300 0.132800
-0.697800 0.141800
-0.675400 0.151300
-0.653000 0.161000
-0.630500 0.166600
-0.608100 0.172800
-0.585700 0.181000
-0.563300 0.189400
-0.540800 0.198200
-0.518400 0.206500
-0.496000 0.214200
-0.473500 0.221800
-0.451100 0.229100
-0.428700 0.235000
-0.406300 0.239700
-0.383800 0.244800
-0.361400 0.251100
-0.339000 0.256300
-0.316500 0.261000
-0.294100 0.266100
-0.271700 0.271600
-0.249300 0.277200
-0.226800 0.283100
-0.204400 0.289300
-0.182000 0.295800
-0.159500 0.302700
-0.137100 0.309400
-0.114700 0.315900
-0.092300 0.322100
-0.069800 0.328300
-0.047400 0.334400
-0.025000 0.340400
-0.002500 0.346500
0.019900 0.352700
0.042300 0.359400
0.064700 0.366700
0.087200 0.374300
0.109600 0.381200
0.132000 0.390400
0.154500 0.418300
0.176900 0.465300
0.199300 0.483300
0.221700 0.488800
0.244200 0.493500
0.266600 0.497400
0.289000 0.500500
0.311500 0.498500
0.333900 0.491600
0.356300 0.486900
0.378700 0.487500
0.401200 0.488000
0.423600 0.488000
0.446000 0.487300
0.468400 0.486100
0.490900 0.485700
0.513300 0.486800
0.535700 0.486900
0.558200 0.486400
0.580600 0.486700
0.603000 0.487400
0.625400 0.488300
0.647900 0.489400
0.670300 0.490400
0.692700 0.490900
0.715200 0.491200
0.737600 0.491400
0.760000 0.491400
0.782400 0.491400
0.804900 0.491400
0.827300 0.491200
0.849700 0.490900
0.872200 0.492500
0.894600 0.494900
0.917000 0.497700
0.939400 0.500900
0.961900 0.504400
0.984300 0.508200
1.006700 0.512200
1.029200 0.516400
1.051600 0.521200
1.074000 0.526300
1.096400 0.531700
1.118900 0.537300
1.141300 0.543100
1.163700 0.549000
1.186200 0.555300
1.208600 0.563300
1.231000 0.573700
1.253400 0.586000
1.275900 0.599800
1.298300 0.614900
1.320700 0.631200
1.343200 0.648900
1.365600 0.668000
1.388000 0.712100
1.410400 0.819000
1.432900 0.892500
1.455300 0.997700
1.477700 1.032500
1.500200 1.077800
1.522600 1.120300
1.545000 1.114800
1.567400 1.176000
1.589900 1.218000
1.612300 1.254500
1.634700 1.293100
1.657200 1.365000
1.679600 1.341400
1.702000 1.340800
1.724400 1.369100
1.746900 1.363800
1.769300 1.341200
1.791700 1.318800
1.814200 1.292200
1.836600 1.252400
1.859000 1.221200
1.881400 1.215200
1.903900 1.211700
1.926300 1.210200
1.948700 1.198800
1.971200 1.218100
1.993600 1.241800
2.016000 1.259400
2.038400 1.259700
2.060900 1.222800
2.083300 1.180500
2.105700 1.143300
2.128200 1.118700
2.150600 1.119100
2.173000 1.131900
2.195400 1.134900
2.217900 1.131900
2.240300 1.248000
2.262700 1.174800
2.285200 1.206700
2.307600 1.240100
2.330000 1.273500
2.352400 1.244600
2.374900 1.284600
2.397300 1.296200
2.419700 1.153000
2.442100 1.067200
2.464600 0.970500
2.487000 0.904600
2.509400 0.886000
2.531900 0.877500
2.554300 0.871400
2.576700 0.894500
2.599100 0.853300
2.621600 0.850500
2.644000 0.955400
2.666400 1.050300
2.688900 1.120200
2.711300 1.070500
2.733700 1.015400
2.756100 1.042600
2.778600 1.066500
2.801000 1.085800
2.823400 1.117600
2.845900 1.150100
2.868300 1.108400
2.890700 1.123700
2.913100 1.157600
2.935600 1.180400
2.958000 1.184100
2.980400 1.183200
3.002900 1.201700
3.025300 1.206700
3.047700 1.240000
3.070100 1.253800
3.092600 1.261600
3.115000 1.273400
3.137400 1.278300
3.159900 1.288700
3.182300 1.306300
3.204700 1.323100
3.227100 1.293700
3.249600 1.264100
3.272000 1.271000
3.294400 1.281900
3.316900 1.281400
3.339300 1.298400
3.361700 1.322100
3.384100 1.345800
3.406600 1.367800
3.429000 1.399300
3.451400 1.466500
3.473900 1.696200
3.496300 1.605600
3.518700 1.629400
3.541100 1.666600
3.563600 1.708900
3.586000 1.756700
3.608400 1.809500
3.630900 1.865900
3.653300 1.924100
3.675700 1.982600
3.698100 2.037100
3.720600 2.070400
3.743000 2.141000
3.765400 2.202700
3.787900 2.191400
3.810300 2.208700
3.832700 2.223100
3.855100 2.206000
3.877600 2.173200
3.900000 2.159300
3.922400 2.164400
3.944900 2.163000
3.967300 2.162600
3.989700 2.116700
4.012100 2.049000
4.034600 1.997600
4.057000 1.932700
4.079400 1.856700
4.101900 1.781800
4.124300 1.726300
4.146700 1.683900
4.169100 1.638700
4.191600 1.590400
4.214000 1.547700
4.236400 1.506600
4.258800 1.457900
4.281300 1.351700
4.303700 1.275300
4.326100 1.203400
4.348600 1.154200
4.371000 1.121400
4.393400 1.093100
4.415800 1.069800
4.438300 1.035200
4.460700 1.057300
4.483100 1.076000
4.505600 1.090900
4.528000 1.113400
4.550400 1.149500
4.572800 1.164400
4.595300 1.164200
4.617700 1.153100
4.640100 1.152200
4.662600 1.150700
4.685000 1.149500
4.707400 1.152900
4.729800 1.157700
4.752300 1.165800
4.774700 1.198500
4.797100 1.215600
4.819600 1.265000
4.842000 1.280100
4.864400 1.298000
4.886800 1.316600
4.909300 1.335700
4.931700 1.361500
4.954100 1.386900
4.976600 1.408800
4.999000 1.428400
5.021400 1.457100
5.043800 1.492800
5.066300 1.532300
5.088700 1.569700
5.111100 1.583500
5.133600 1.581000
5.156000 1.584100
5.178400 1.577500
5.200800 1.583400
5.223300 1.590800
5.245700 1.591500
5.268100 1.594900
5.290600 1.600300
5.313000 1.595600
5.335400 1.569100
5.357800 1.546100
5.380300 1.556100
5.402700 1.517400
5.425100 1.503700
5.447600 1.489300
5.470000 1.474500
5.492400 1.464600
5.514800 1.458300
5.537300 1.465100
5.559700 1.487300
5.582100 1.492800
5.604600 1.503200
5.627000 1.617900
5.649400 1.518900
5.671800 1.488300
5.694300 1.477500
5.716700 1.523800
5.739100 1.518900
5.761600 1.513900
5.784000 1.520400
5.806400 1.535100
5.828800 1.553800
5.851300 1.583400
5.873700 1.619400
5.896100 1.583800
5.918600 1.583800
5.941000 1.607200
5.963400 1.625100
5.985800 1.634500
6.008300 1.720100
6.030700 1.654800
6.053100 1.616300
6.075500 1.604600
6.098000 1.594500
6.120400 1.585900
6.142800 1.579000
6.165300 1.570200
6.187700 1.561000
6.210100 1.553000
6.232500 1.544400
6.255000 1.540800
6.277400 1.539600
6.299800 1.543300
6.322300 1.542600
6.344700 1.537200
6.367100 1.533800
6.389500 1.539200
6.412000 1.548200
6.434400 1.555800
6.456800 1.564500
6.479300 1.576800
6.501700 1.631900
6.524100 1.753500
6.546500 1.808400
6.569000 1.825600
6.591400 1.823100
6.613800 1.811100
6.636300 1.777000
6.658700 1.718700
6.681100 1.691700
6.703500 1.701600
6.726000 1.706900
6.748400 1.739300
6.770800 1.717500
6.793300 1.718300
6.815700 1.716800
6.838100 1.716700
6.860500 1.714800
6.883000 1.717200
6.905400 1.716800
6.927800 1.714400
6.950300 1.716100
6.972700 1.718300
6.995100 1.720200
7.017500 1.721500
7.040000 1.719500
7.062400 1.717800
7.084800 1.716300
7.107300 1.716700
7.129700 1.736300
7.152100 1.754800
7.174500 1.771700
7.197000 1.788600
7.219400 1.794600
7.241800 1.803200
7.264300 1.811400
7.286700 1.820500
7.309100 1.832800
7.331500 1.846400
7.354000 1.859700
7.376400 1.885800
7.398800 1.927400
7.421300 1.960800
7.443700 1.984400
7.466100 2.006100
7.488500 2.023800
7.511000 2.038000
7.533400 2.047200
7.555800 2.048600
7.578300 2.071200
7.600700 2.045700
7.623100 2.031700
7.645500 2.031600
7.668000 2.029400
7.690400 2.025900
7.712800 2.026400
7.735300 2.026100
7.757700 2.027000
7.780100 2.039400
7.802500 2.057300
7.825000 2.063900
7.847400 2.076400
7.869800 2.046100
7.892200 2.062000
7.914700 2.030500
7.937100 2.008300
7.959500 1.999200
7.982000 2.008900
8.004400 1.969900
8.026800 1.935400
8.049200 1.911300
8.071700 1.901000
8.094100 1.907100
8.116500 1.922400
8.139000 1.929100
8.161400 1.926000
8.183800 1.927700
8.206200 1.943800
8.228700 1.966700
8.251100 1.994500
8.273500 2.022600
8.296000 2.048000
8.318400 2.061100
8.340800 2.068700
8.363200 2.076100
8.385700 2.096600
8.408100 2.097900
8.430500 2.069000
8.453000 2.052000
8.475400 2.060300
8.497800 2.066200
8.520200 2.083000
8.542700 2.089400
8.565100 2.086600
8.587500 2.070600
8.610000 2.042400
8.632400 2.006300
8.654800 1.987100
8.677200 1.978900
8.699700 1.966800
8.722100 1.953000
8.744500 1.955600
8.767000 1.959200
8.789400 1.959100
8.811800 1.954200
8.834200 1.951000
8.856700 1.952400
8.879100 1.967600
8.901500 1.962500
8.924000 1.957100
8.946400 1.954300
8.968800 1.962800
8.991200 1.970200
9.013700 1.971700
9.036100 1.965500
9.058500 1.952600
9.081000 1.958800
9.103400 2.006200
9.125800 1.963300
9.148200 1.982400
9.170700 2.017800
9.193100 2.044700
9.215500 2.053500
9.238000 2.055200
9.260400 2.045700
9.282800 2.029000
9.305200 2.015700
9.327700 2.008400
9.350100 2.003100
9.372500 1.999900
9.395000 1.998400
9.417400 1.998600
9.439800 2.003000
9.462200 2.019800
9.484700 2.005500
9.507100 2.133400
9.529500 2.034900
9.552000 1.942300
9.574400 1.834800
9.596800 1.768500
9.619200 1.738300
9.641700 1.711800
9.664100 1.694100
9.686500 1.680900
9.709000 1.654200
9.731400 1.620000
9.753800 1.602900
9.776200 1.586000
9.798700 1.573700
9.821100 1.562900
9.843500 1.551200
9.865900 1.540400
9.888400 1.530600
9.910800 1.515300
9.933200 1.506100
9.955700 1.506300
9.978100 1.529400
10.000500 1.570100
10.022900 1.612200
10.045400 1.642800
10.067800 1.671200
10.090200 1.711700
10.112700 1.758100
10.135100 1.840600
10.157500 1.873900
10.179900 1.877800
10.202400 1.850600
10.224800 1.811400
10.247200 1.777400
10.269700 1.762900
10.292100 1.756700
10.314500 1.747300
10.336900 1.731500
10.359400 1.703200
10.381800 1.672200
10.404200 1.640200
10.426700 1.609100
10.449100 1.574800
10.471500 1.547600
10.493900 1.526000
10.516400 1.511900
10.538800 1.501800
10.561200 1.494100
10.583700 1.487200
10.606100 1.480200
10.628500 1.470400
10.650900 1.458800
10.673400 1.445300
10.695800 1.430400
10.718200 1.416500
10.740700 1.414300
10.763100 1.421500
10.785500 1.439800
10.807900 1.466500
10.830400 1.497900
10.852800 1.529500
10.875200 1.515900
10.897700 1.515400
10.920100 1.521700
10.942500 1.532300
10.964900 1.543500
10.987400 1.550900
11.009800 1.559000
11.032200 1.571500
11.054700 1.585300
11.077100 1.601900
11.099500 1.618800
11.121900 1.621500
11.144400 1.602600
11.166800 1.603200
11.189200 1.618300
11.211700 1.623000
11.234100 1.624000
11.256500 1.634100
11.278900 1.636800
11.301400 1.643400
11.323800 1.654800
11.346200 1.670600
11.368700 1.684200
11.391100 1.692600
11.413500 1.695100
11.435900 1.697900
11.458400 1.701400
11.480800 1.697700
11.503200 1.697100
11.525700 1.703600
11.548100 1.717700
11.570500 1.738600
11.592900 1.768900
11.615400 1.806300
11.637800 1.820500
11.660200 1.813000
11.682600 1.926000
11.705100 2.159200
11.727500 1.940300
11.749900 1.745300
11.772400 1.723900
11.794800 1.740500
11.817200 1.729700
11.839600 1.743700
11.862100 1.741600
11.884500 1.736800
11.906900 1.794200
11.929400 1.743100
11.951800 1.703800
11.974200 1.683500
11.996600 1.672600
12.019100 1.688900
12.041500 1.872700
12.063900 2.181900
12.086400 1.889300
12.108800 1.789000
12.131200 1.749800
12.153600 1.706400
12.176100 1.690100
12.198500 1.689300
12.220900 1.653000
12.243400 1.648400
12.265800 1.654900
12.288200 1.666400
12.310600 1.679400
12.333100 1.692200
12.355500 1.710900
12.377900 1.698500
12.400400 1.704300
12.422800 1.727900
12.445200 1.752900
12.467600 1.751400
12.490100 1.739200
12.512500 1.747000
12.534900 1.752200
12.557400 1.750100
12.579800 1.751200
12.602200 1.748800
12.624600 1.791900
12.647100 1.811800
12.669500 1.834300
12.691900 1.731200
12.714400 1.706700
12.736800 1.706500
12.759200 1.709900
12.781600 1.711600
12.804100 1.708800
12.826500 1.701800
12.848900 1.697700
12.871400 1.714800
12.893800 1.750700
12.916200 1.803100
12.938600 1.820600
12.961100 1.825500
12.983500 1.840300
13.005900 1.881900
13.028400 1.910300
13.050800 1.911800
13.073200 1.926600
13.095600 1.977100
13.118100 1.984500
13.140500 1.964700
13.162900 1.947100
13.185400 1.925300
13.207800 1.904100
13.230200 1.884500
13.252600 1.864500
13.275100 1.835200
13.297500 1.819700
13.319900 1.811300
13.342400 1.809700
13.364800 1.814300
13.387200 1.817900
13.409600 1.820600
13.432100 1.824600
13.454500 1.828600
13.476900 1.851600
13.499300 1.901200
13.521800 2.000800
13.544200 2.068100
13.566600 2.115400
13.589100 2.157400
13.611500 2.202400
13.633900 2.237400
13.656300 2.241900
13.678800 2.248500
13.701200 2.257900
13.723600 2.276500
13.746100 2.299400
13.768500 2.322200
13.790900 2.345500
13.813300 2.376200
13.835800 2.335400
13.858200 2.312600
13.880600 2.297700
13.903100 2.283200
13.925500 2.263900
13.947900 2.333300
13.970300 2.213700
13.992800 2.195500
14.015200 2.171000
14.037600 2.152200
14.060100 2.167700
14.082500 2.227800
14.104900 2.252400
14.127300 2.251800
14.149800 2.247700
14.172200 2.245400
14.194600 2.260300
14.217100 2.294100
14.239500 2.355600
14.261900 2.497400
14.284300 2.584000
14.306800 2.472300
14.329200 2.417500
14.351600 2.381600
14.374100 2.350400
14.396500 2.342300
14.418900 2.340400
14.441300 2.350700
14.463800 2.352700
14.486200 2.359600
14.508600 2.380500
14.531100 2.422000
14.553500 2.319300
14.575900 2.276200
14.598300 2.246000
14.620800 2.220300
14.643200 2.213400
14.665600 2.237200
14.688100 2.282300
14.710500 2.301000
14.732900 2.252700
14.755300 2.264000
14.777800 2.278500
14.800200 2.244900
14.822600 2.252700
14.845100 2.265100
14.867500 2.238800
14.889900 2.205000
14.912300 2.190400
14.934800 2.208800
14.957200 2.277300
14.979600 2.330600
15.002100 2.385200
15.024500 2.449800
15.046900 2.413300
15.069300 2.337300
15.091800 2.362300
15.114200 2.376100
15.136600 2.366000
15.159100 2.355400
15.181500 2.307500
15.203900 2.262000
15.226300 2.268700
15.248800 2.290000
15.271200 2.306600
15.293600 2.318800
15.316000 2.334300
15.338500 2.335800
15.360900 2.339100
15.383300 2.345900
15.405800 2.438700
15.428200 2.458300
15.450600 2.313700
15.473000 2.271600
15.495500 2.235000
15.517900 2.205300
15.540300 2.183700
15.562800 2.154700
15.585200 2.118100
15.607600 2.083400
15.630000 2.009000
15.652500 2.114000
15.674900 2.275400
15.697300 2.408800
15.719800 2.374900
15.742200 2.355500
15.764600 2.269300
15.787000 2.250200
15.809500 2.248100
15.831900 2.247200
15.854300 2.291600
15.876800 2.214500
15.899200 2.290600
15.921600 2.330500
15.944000 2.427200
15.966500 2.560900
15.988900 2.640600
16.011300 2.631200
16.033800 2.598300
16.056200 2.529900
16.078600 2.537300
16.101000 2.555100
16.123500 2.429500
16.145900 2.451300
16.168300 2.496900
16.190800 2.457500
16.213200 2.468200
16.235600 2.518300
16.258000 2.607600
16.280500 2.608400
16.302900 2.606800
16.325300 2.639300
16.347800 2.631400
16.370200 2.561000
16.392600 2.486300
16.415000 2.432800
16.437500 2.394500
16.459900 2.355300
16.482300 2.327900
16.504800 2.335700
16.527200 2.391000
16.549600 2.435500
16.572000 2.441800
16.594500 2.472400
16.616900 2.509600
16.639300 2.567000
16.661800 2.595800
16.684200 2.582800
16.706600 2.597300
16.729000 2.617400
16.751500 2.648500
16.773900 2.662700
16.796300 2.776400
16.818800 2.842300
16.841200 2.840400
16.863600 2.812700
16.886000 2.791400
16.908500 2.810700
16.930900 2.885900
16.953300 2.903400
16.975800 2.981300
16.998200 3.000600
17.020600 2.939700
17.043000 2.896000
17.065500 2.706200
17.087900 2.577600
17.110300 2.607600
17.132800 2.515600
17.155200 2.465600
17.177600 2.432100
17.200000 2.430100
17.222500 2.454100
17.244900 2.520900
17.267300 2.585700
17.289700 2.616800
17.312200 2.627100
17.334600 2.704100
17.357000 2.697600
17.379500 2.668700
17.401900 2.632800
17.424300 2.627600
17.446700 2.656700
17.469200 2.621100
17.491600 2.532900
17.514000 2.423400
17.536500 2.373900
17.558900 2.383800
17.581300 2.362900
17.603700 2.319200
17.626200 2.336200
17.648600 2.390200
17.671000 2.431400
17.693500 2.461500
17.715900 2.519800
17.738300 2.485600
17.760700 2.441000
17.783200 2.418900
17.805600 2.427400
17.828000 2.432200
17.850500 2.446200
17.872900 2.424300
17.895300 2.426700
17.917700 2.498000
17.940200 2.486000
17.962600 2.469400
17.985000 2.472800
18.007500 2.478000
18.029900 2.480500
18.052300 2.493000
18.074700 2.573400
18.097200 2.552300
18.119600 2.539200
18.142000 2.558200
18.164500 2.572800
18.186900 2.594800
18.209300 2.609400
18.231700 2.634700
18.254200 2.672300
18.276600 2.688600
18.299000 2.684700
18.321500 2.686500
18.343900 2.634100
18.366300 2.604800
18.388700 2.584800
18.411200 2.569400
18.433600 2.569300
18.456000 2.583200
18.478500 2.613800
18.500900 2.627500
18.523300 2.608600
18.545700 2.579700
18.568200 2.574100
18.590600 2.579300
18.613000 2.597300
18.635500 2.683300
18.657900 2.598000
18.680300 2.581500
18.702700 2.568900
18.725200 2.510500
18.747600 2.512200
18.770000 2.521600
18.792500 2.556300
18.814900 2.577000
18.837300 2.663100
18.859700 2.657000
18.882200 2.647000
18.904600 2.658500
18.927000 2.696200
18.949500 2.833700
18.971900 2.824800
18.994300 2.844600
19.016700 2.849500
19.039200 2.886800
19.061600 2.915300
19.084000 2.922700
19.106400 2.980800
19.128900 2.964600
19.151300 2.978600
19.173700 3.034400
19.196200 3.096300
19.218600 3.038500
19.241000 2.997900
19.263400 2.982100
19.285900 2.964600
19.308300 2.973800
19.330700 2.908900
19.353200 2.938100
19.375600 3.010000
19.398000 3.090800
19.420400 3.106600
19.442900 3.086700
19.465300 3.062700
19.487700 3.054200
19.510200 3.057300
19.532600 3.092600
19.555000 3.158100
19.577400 3.208100
19.599900 3.236600
19.622300 3.245500
19.644700 3.309800
19.667200 3.345200
19.689600 3.376100
19.712000 3.387300
19.734400 3.466500
19.756900 3.586000
19.779300 3.543000
19.801700 3.465800
19.824200 3.490400
19.846600 3.577300
19.869000 3.583500
19.891400 3.530900
19.913900 3.478900
19.936300 3.459500
19.958700 3.398100
19.981200 3.369800
20.003600 3.377000
20.026000 3.384500
20.048400 3.397900
20.070900 3.374700
20.093300 3.349300
20.115700 3.288500
20.138200 3.221300
20.160600 3.219500
20.183000 3.230000
20.205400 3.224500
20.227900 3.220800
20.250300 3.240100
20.272700 3.288600
20.295200 3.326100
20.317600 3.352000
20.340000 3.403300
20.362400 3.414400
20.384900 3.449700
20.407300 3.467900
20.429700 3.466800
20.452200 3.421500
20.474600 3.383800
20.497000 3.327300
20.519400 3.295400
20.541900 3.314500
20.564300 3.378000
20.586700 3.425400
20.609200 3.365400
20.631600 3.408300
20.654000 3.419700
20.676400 3.446900
20.698900 3.466300
20.721300 3.427900
20.743700 3.451900
20.766200 3.408600
20.788600 3.341800
20.811000 3.305600
20.833400 3.341800
20.855900 3.407800
20.878300 3.449000
20.900700 3.455400
20.923100 3.415300
20.945600 3.394000
20.968000 3.459100
20.990400 3.532100
21.012900 3.673200
21.035300 3.617300
21.057700 3.631200
21.080100 3.649700
21.102600 3.664200
21.125000 3.682300
21.147400 3.706400
21.169900 3.723900
21.192300 3.729900
21.214700 3.742200
21.237100 3.775700
21.259600 3.801700
21.282000 3.832400
21.304400 3.903300
21.326900 3.898800
21.349300 3.788600
21.371700 3.672200
21.394100 3.592300
21.416600 3.545900
21.439000 3.536500
21.461400 3.508900
21.483900 3.454300
21.506300 3.442500
21.528700 3.451200
21.551100 3.444900
21.573600 3.475200
21.596000 3.465300
21.618400 3.479400
21.640900 3.495100
21.663300 3.431700
21.685700 3.410700
21.708100 3.408700
21.730600 3.420600
21.753000 3.452600
21.775400 3.487400
21.797900 3.492800
21.820300 3.485800
21.842700 3.475300
21.865100 3.460200
21.887600 3.427000
21.910000 3.410200
21.932400 3.381300
21.954900 3.386000
21.977300 3.334900
21.999700 3.281000
22.022100 3.267500
22.044600 3.247000
22.067000 3.227000
22.089400 3.213200
22.111900 3.202500
22.134300 3.184100
22.156700 3.156700
22.179100 3.139300
22.201600 3.134800
22.224000 3.151900
22.246400 3.176300
22.268900 3.169500
22.291300 3.162500
22.313700 3.161000
22.336100 3.165200
22.358600 3.200500
22.381000 3.200400
22.403400 3.196800
22.425900 3.271400
22.448300 3.291900
22.470700 3.324000
22.493100 3.376400
22.515600 3.457100
22.538000 3.558400
22.560400 3.619900
22.582900 3.663200
22.605300 3.669100
22.627700 3.655900
22.650100 3.655400
22.672600 3.681800
22.695000 3.604200
22.717400 3.607300
22.739800 3.599100
22.762300 3.625900
22.784700 3.773600
22.807100 3.749400
22.829600 3.760600
22.852000 3.789900
22.874400 3.820000
22.896800 3.804300
22.919300 3.798500
22.941700 3.817900
22.964100 3.856000
22.986600 3.901600
23.009000 3.940900
23.031400 4.068300
23.053800 4.009900
23.076300 4.054300
23.098700 3.953900
23.121100 3.926400
23.143600 3.955100
23.166000 3.997200
23.188400 4.038000
23.210800 4.090900
23.233300 4.138500
23.255700 4.201900
23.278100 4.139200
23.300600 4.096200
23.323000 4.017900
23.345400 3.890600
23.367800 3.833100
23.390300 3.764700
23.412700 3.710400
23.435100 3.682000
23.457600 3.692900
23.480000 3.700300
23.502400 3.710400
23.524800 3.758400
23.547300 3.902300
23.569700 3.864300
23.592100 3.913700
23.614600 3.985900
23.637000 4.006300
23.659400 4.010000
23.681800 4.027500
23.704300 4.068100
23.726700 4.035400
23.749100 4.037100
23.771600 4.077400
23.794000 4.135600
23.816400 4.100000
23.838800 4.057100
23.861300 4.012600
23.883700 3.859100
23.906100 3.833300
23.928600 3.862900
23.951000 3.844100
23.973400 3.822000
23.995800 3.828000
24.018300 3.813600
24.040700 3.815300
24.063100 3.868200
24.085600 3.872300
24.108000 3.821500
24.130400 3.786000
24.152800 3.754300
24.175300 3.720300
24.197700 3.664700
24.220100 3.633900
24.242600 3.643000
24.265000 3.669900
24.287400 3.743200
24.309800 3.760100
24.332300 3.758100
24.354700 3.748100
24.377100 3.730600
24.399600 3.734100
24.422000 3.747700
24.444400 3.768700
24.466800 3.782900
24.489300 3.782500
24.511700 3.755800
24.534100 3.731000
24.556500 3.738000
24.579000 3.711200
24.601400 3.683000
24.623800 3.611000
24.646300 3.577000
24.668700 3.550400
24.691100 3.519900
24.713500 3.501600
24.736000 3.509600
24.758400 3.501900
24.780800 3.478100
24.803300 3.475000
24.825700 3.519900
24.848100 3.485100
24.870500 3.438100
24.893000 3.372200
24.915400 3.325900
24.937800 3.309400
24.960300 3.293200
24.982700 3.306400
25.005100 3.301700
25.027500 3.287300
25.050000 3.254800
25.072400 3.209900
25.094800 3.205900
25.117300 3.263900
25.139700 3.251400
25.162100 3.233500
25.184500 3.217500
25.207000 3.192600
25.229400 3.179900
25.251800 3.082600
25.274300 3.001700
25.296700 2.955100
25.319100 2.931000
25.341500 2.904000
25.364000 2.874500
25.386400 2.850400
25.408800 2.834100
25.431300 2.815500
25.453700 2.794700
25.476100 2.772300
25.498500 2.735700
25.521000 2.712800
25.543400 2.698000
25.565800 2.681400
25.588300 2.655000
25.610700 2.636500
25.633100 2.633300
25.655500 2.591900
25.678000 2.563100
25.700400 2.544900
25.722800 2.531700
25.745300 2.525300
25.767700 2.532900
25.790100 2.564900
25.812500 2.596700
25.835000 2.614400
25.857400 2.622100
25.879800 2.628300
25.902300 2.632000
25.924700 2.640900
25.947100 2.629200
25.969500 2.585100
25.992000 2.591100
26.014400 2.597500
26.036800 2.596400
26.059300 2.587800
26.081700 2.551000
26.104100 2.572400
26.126500 2.557200
26.149000 2.546000
26.171400 2.556500
26.193800 2.552300
26.216300 2.539100
26.238700 2.537500
26.261100 2.508400
26.283500 2.461800
26.306000 2.424000
26.328400 2.417400
26.350800 2.404900
26.373300 2.377200
26.395700 2.349700
26.418100 2.368500
26.440500 2.320500
26.463000 2.291100
26.485400 2.256500
26.507800 2.260100
26.530200 2.194500
26.552700 2.124800
26.575100 2.143500
26.597500 2.155900
26.620000 2.155800
26.642400 2.153900
26.664800 2.159700
26.687200 2.124400
26.709700 2.097300
26.732100 2.089700
26.754500 2.044600
26.777000 1.979700
26.799400 1.938900
26.821800 1.924700
26.844200 1.912700
26.866700 1.902500
26.889100 1.896800
26.911500 1.900400
26.934000 2.000000
26.956400 1.986000
26.978800 1.953400
27.001200 1.946300
27.023700 1.953400
27.046100 1.972600
27.068500 1.995700
27.091000 2.017500
27.113400 2.026700
27.135800 2.038700
27.158200 2.012500
27.180700 1.956200
27.203100 1.881300
27.225500 1.770400
27.248000 1.725200
27.270400 1.695600
27.292800 1.684100
27.315200 1.693200
27.337700 1.714500
27.360100 1.698900
27.382500 1.711900
27.405000 1.680600
27.427400 1.624400
27.449800 1.619000
27.472200 1.607400
27.494700 1.603000
27.517100 1.632600
27.539500 1.689100
27.562000 1.694100
27.584400 1.650800
27.606800 1.596500
27.629200 1.559800
27.651700 1.476900
27.674100 1.394700
27.696500 1.204600
27.719000 1.205300
27.741400 1.178400
27.763800 1.138300
27.786200 1.090800
27.808700 1.042800
27.831100 1.023800
27.853500 0.997400
27.876000 0.981100
27.898400 0.953100
27.920800 0.877200
27.943200 0.787200
27.965700 0.723200
27.988100 0.624800
28.010500 0.500000
28.033000 0.405200
28.055400 0.356200
28.077800 0.315800
28.100200 0.280900
28.122700 0.250600
28.145100 0.223500
28.167500 0.198500
28.190000 0.176100
28.212400 0.158200
28.234800 0.141800
28.257200 0.126400
28.279700 0.112100
28.302100 0.098300
28.324500 0.080600
28.346900 0.063300
28.369400 0.052500
28.391800 0.042400
28.414200 0.033000
28.436700 0.024400
28.459100 0.017700
28.481500 0.011900
28.503900 0.006900
28.526400 0.005500
28.548800 0.004200
28.571200 0.003100
28.593700 0.002200
28.616100 0.001400
28.638500 0.000800
28.660900 0.000400
28.683400 0.000100
28.705800 0.000000
28.728200 0.000000
28.750700 0.000000
28.773100 0.000000
28.795500 0.000000
28.817900 0.000000
28.840400 0.000000
28.862800 0.000000
28.885200 0.000000
28.907700 0.000000
28.930100 0.000000
28.952500 0.000000
28.974900 0.000000
28.997400 0.000000
29.019800 0.000000
29.042200 0.000000
29.064700 0.000000
29.087100 0.000000
29.109500 0.000000
29.131900 0.000000
29.154400 0.000000
29.176800 0.000000
29.199200 0.000000
29.221700 0.000000
29.244100 0.000000
29.266500 0.000000
29.288900 0.000000
29.311400 0.000000
29.333800 0.000000
29.356200 0.000000
29.378700 0.000000
29.401100 0.000000
29.423500 0.000000
29.445900 0.000000
29.468400 0.000000
29.490800 0.000000
29.513200 0.000000
29.535700 0.000000
29.558100 0.000000
29.580500 0.000000
29.602900 0.000000
29.625400 0.000000
29.647800 0.000000
29.670200 0.000000
29.692700 0.000000
29.715100 0.000000
29.737500 0.000000
29.759900 0.000000
29.782400 0.000000
29.804800 0.000000
29.827200 0.000000
29.849700 0.000000
29.872100 0.000000
29.894500 0.000000
29.916900 0.000000
29.939400 0.000000
29.961800 0.000000
29.984200 0.000000
30.006700 0.000000
30.029100 0.000000
30.051500 0.000000
30.073900 0.000000
30.096400 0.000000
30.118800 0.000000
30.141200 0.000000
30.163600 0.000000
30.186100 0.000000
30.208500 0.000000
30.230900 0.000000
30.253400 0.000000
30.275800 0.000000
30.298200 0.000000
30.320600 0.000000
30.343100 0.000000
30.365500 0.000000
30.387900 0.000000
30.410400 0.000000
30.432800 0.000000
30.455200 0.000000
30.477600 0.000000
30.500100 0.000000
30.522500 0.000000
30.544900 0.000000
30.567400 0.000000
30.589800 0.000000
30.612200 0.000000
30.634600 0.000000
30.657100 0.000000
30.679500 0.000000
30.701900 0.000000
30.724400 0.000000
30.746800 0.000000
e
