set title 'mp-567379 - Density of States'
set xlabel 'Energy (eV)'
set ylabel 'DOS (states/eV)'
set grid
set xrange [-10:10]
set yrange [0:4.243]
set xzeroaxis lt -1
set terminal png size 800,600
set output 'mp-567379_dos_gnuplot.png'
plot '-' using 1:2 with lines title 'DOS'
-9.758200 0.000000
-9.735200 0.000000
-9.712200 0.000000
-9.689200 0.000000
-9.666200 0.000000
-9.643300 0.000000
-9.620300 0.000000
-9.597300 0.000000
-9.574300 0.000000
-9.551300 0.000000
-9.528400 0.000000
-9.505400 0.000000
-9.482400 0.000000
-9.459400 0.000000
-9.436500 0.000000
-9.413500 0.000000
-9.390500 0.000000
-9.367500 0.000000
-9.344500 0.000000
-9.321600 0.000000
-9.298600 0.000000
-9.275600 0.000000
-9.252600 0.000000
-9.229600 0.000000
-9.206700 0.000000
-9.183700 0.000000
-9.160700 0.000000
-9.137700 0.000000
-9.114800 0.000000
-9.091800 0.000000
-9.068800 0.000000
-9.045800 0.000000
-9.022800 0.000000
-8.999900 0.000000
-8.976900 0.000000
-8.953900 0.000000
-8.930900 0.000000
-8.907900 0.000000
-8.885000 0.000000
-8.862000 0.000000
-8.839000 0.000000
-8.816000 0.000000
-8.793100 0.000000
-8.770100 0.000000
-8.747100 0.000000
-8.724100 0.000000
-8.701100 0.000000
-8.678200 0.000000
-8.655200 0.000000
-8.632200 0.000000
-8.609200 0.000000
-8.586300 0.000000
-8.563300 0.000000
-8.540300 0.000000
-8.517300 0.000000
-8.494300 0.000000
-8.471400 0.000000
-8.448400 0.000000
-8.425400 0.000000
-8.402400 0.000000
-8.379400 0.000000
-8.356500 0.000000
-8.333500 0.000000
-8.310500 0.000000
-8.287500 0.000000
-8.264600 0.000000
-8.241600 0.000000
-8.218600 0.000000
-8.195600 0.000000
-8.172600 0.000000
-8.149700 0.000000
-8.126700 0.000000
-8.103700 0.000000
-8.080700 0.000000
-8.057700 0.000000
-8.034800 0.000000
-8.011800 0.000000
-7.988800 0.000000
-7.965800 0.000000
-7.942900 0.000000
-7.919900 0.000000
-7.896900 0.000000
-7.873900 0.000000
-7.850900 0.000000
-7.828000 0.000000
-7.805000 0.000000
-7.782000 0.000000
-7.759000 0.000000
-7.736000 0.000000
-7.713100 0.000000
-7.690100 0.000000
-7.667100 0.000200
-7.644100 0.031800
-7.621200 0.116800
-7.598200 0.244700
-7.575200 0.337100
-7.552200 0.376500
-7.529200 0.385600
-7.506300 0.410500
-7.483300 0.453100
-7.460300 0.503600
-7.437300 0.556100
-7.414400 0.606000
-7.391400 0.640000
-7.368400 0.655600
-7.345400 0.666200
-7.322400 0.684700
-7.299500 0.711100
-7.276500 0.739200
-7.253500 0.767100
-7.230500 0.794600
-7.207500 0.821800
-7.184600 0.849600
-7.161600 0.879100
-7.138600 0.911100
-7.115600 0.941200
-7.092700 1.025200
-7.069700 1.106800
-7.046700 1.152200
-7.023700 1.126500
-7.000700 1.103800
-6.977800 1.109900
-6.954800 1.123700
-6.931800 1.136700
-6.908800 1.150200
-6.885800 1.163500
-6.862900 1.163000
-6.839900 1.157200
-6.816900 1.157900
-6.793900 1.169400
-6.771000 1.181200
-6.748000 1.195200
-6.725000 1.211300
-6.702000 1.295000
-6.679000 1.395700
-6.656100 1.475900
-6.633100 1.486400
-6.610100 1.497800
-6.587100 1.530200
-6.564200 1.565700
-6.541200 1.603200
-6.518200 1.646200
-6.495200 1.691500
-6.472200 1.723600
-6.449300 1.738600
-6.426300 1.742500
-6.403300 1.747600
-6.380300 1.761300
-6.357300 1.780800
-6.334400 1.800600
-6.311400 1.818100
-6.288400 1.834000
-6.265400 1.850500
-6.242500 1.869400
-6.219500 1.889400
-6.196500 1.908800
-6.173500 1.917500
-6.150500 1.931700
-6.127600 1.955600
-6.104600 1.981000
-6.081600 2.002400
-6.058600 2.023500
-6.035600 2.043400
-6.012700 2.063600
-5.989700 2.105900
-5.966700 2.167600
-5.943700 2.242700
-5.920800 2.310100
-5.897800 2.403500
-5.874800 2.543500
-5.851800 2.699900
-5.828800 2.880800
-5.805900 3.038700
-5.782900 3.213200
-5.759900 3.339100
-5.736900 3.404000
-5.713900 3.465400
-5.691000 3.464800
-5.668000 3.488400
-5.645000 3.531900
-5.622000 3.532600
-5.599100 3.535900
-5.576100 3.520800
-5.553100 3.410800
-5.530100 3.277700
-5.507100 3.146900
-5.484200 3.025500
-5.461200 2.912100
-5.438200 2.675500
-5.415200 2.429400
-5.392300 2.151000
-5.369300 1.929400
-5.346300 1.724600
-5.323300 1.586100
-5.300300 1.493300
-5.277400 1.322200
-5.254400 1.222200
-5.231400 1.127800
-5.208400 1.384100
-5.185400 1.772200
-5.162500 2.270300
-5.139500 2.774500
-5.116500 2.960000
-5.093500 3.237500
-5.070600 3.442300
-5.047600 3.449600
-5.024600 3.365200
-5.001600 3.323400
-4.978600 3.239700
-4.955700 3.128000
-4.932700 3.083800
-4.909700 2.922100
-4.886700 2.802100
-4.863700 2.708700
-4.840800 2.651100
-4.817800 2.626800
-4.794800 2.607100
-4.771800 2.571900
-4.748900 2.510500
-4.725900 2.463400
-4.702900 2.408400
-4.679900 2.373900
-4.656900 2.338000
-4.634000 2.311900
-4.611000 2.296300
-4.588000 2.283700
-4.565000 2.265200
-4.542100 2.242300
-4.519100 2.220300
-4.496100 2.202500
-4.473100 2.186000
-4.450100 2.169600
-4.427200 2.154200
-4.404200 2.140100
-4.381200 2.124500
-4.358200 2.107800
-4.335200 2.082900
-4.312300 2.071300
-4.289300 2.079100
-4.266300 2.097500
-4.243300 2.122800
-4.220400 2.145600
-4.197400 2.166200
-4.174400 2.169500
-4.151400 2.139700
-4.128400 2.096800
-4.105500 2.040700
-4.082500 1.970700
-4.059500 1.867300
-4.036500 1.771700
-4.013500 1.685600
-3.990600 1.607600
-3.967600 1.530000
-3.944600 1.453900
-3.921600 1.381600
-3.898700 1.321300
-3.875700 1.269100
-3.852700 1.223400
-3.829700 1.188400
-3.806700 1.160700
-3.783800 1.125800
-3.760800 1.101900
-3.737800 1.079400
-3.714800 1.044800
-3.691800 1.000200
-3.668900 0.959600
-3.645900 0.921900
-3.622900 0.885700
-3.599900 0.850100
-3.577000 0.820100
-3.554000 0.802200
-3.531000 0.784800
-3.508000 0.767700
-3.485000 0.754300
-3.462100 0.747900
-3.439100 0.743800
-3.416100 0.740000
-3.393100 0.736200
-3.370200 0.732800
-3.347200 0.705300
-3.324200 0.678200
-3.301200 0.649300
-3.278200 0.619000
-3.255300 0.587600
-3.232300 0.554800
-3.209300 0.537800
-3.186300 0.522200
-3.163300 0.507200
-3.140400 0.492100
-3.117400 0.477200
-3.094400 0.461700
-3.071400 0.446700
-3.048500 0.433200
-3.025500 0.421100
-3.002500 0.408800
-2.979500 0.396200
-2.956500 0.383700
-2.933600 0.368400
-2.910600 0.350200
-2.887600 0.330900
-2.864600 0.311700
-2.841600 0.292700
-2.818700 0.274300
-2.795700 0.256900
-2.772700 0.242100
-2.749700 0.230400
-2.726800 0.221800
-2.703800 0.216100
-2.680800 0.208800
-2.657800 0.194400
-2.634800 0.172400
-2.611900 0.142800
-2.588900 0.105500
-2.565900 0.068900
-2.542900 0.039800
-2.520000 0.018600
-2.497000 0.005400
-2.474000 0.000100
-2.451000 0.000000
-2.428000 0.000000
-2.405100 0.000000
-2.382100 0.000000
-2.359100 0.000000
-2.336100 0.000000
-2.313100 0.000000
-2.290200 0.000000
-2.267200 0.000000
-2.244200 0.000000
-2.221200 0.000000
-2.198300 0.000000
-2.175300 0.000000
-2.152300 0.000000
-2.129300 0.000000
-2.106300 0.000000
-2.083400 0.000000
-2.060400 0.000000
-2.037400 0.000000
-2.014400 0.000000
-1.991400 0.000000
-1.968500 0.000000
-1.945500 0.000000
-1.922500 0.000000
-1.899500 0.000000
-1.876600 0.000000
-1.853600 0.000000
-1.830600 0.000000
-1.807600 0.000000
-1.784600 0.000000
-1.761700 0.000000
-1.738700 0.000000
-1.715700 0.000000
-1.692700 0.000000
-1.669700 0.000000
-1.646800 0.000000
-1.623800 0.000000
-1.600800 0.000000
-1.577800 0.000000
-1.554900 0.000000
-1.531900 0.000000
-1.508900 0.000000
-1.485900 0.000000
-1.462900 0.000000
-1.440000 0.000000
-1.417000 0.000000
-1.394000 0.000000
-1.371000 0.000000
-1.348100 0.000000
-1.325100 0.000000
-1.302100 0.000000
-1.279100 0.000000
-1.256100 0.000000
-1.233200 0.000000
-1.210200 0.000000
-1.187200 0.000000
-1.164200 0.000000
-1.141200 0.000000
-1.118300 0.000000
-1.095300 0.000000
-1.072300 0.000000
-1.049300 0.000000
-1.026400 0.000000
-1.003400 0.000000
-0.980400 0.000000
-0.957400 0.000000
-0.934400 0.000000
-0.911500 0.000000
-0.888500 0.000000
-0.865500 0.000000
-0.842500 0.000000
-0.819500 0.000000
-0.796600 0.000000
-0.773600 0.000000
-0.750600 0.000000
-0.727600 0.000000
-0.704700 0.000000
-0.681700 0.000000
-0.658700 0.000000
-0.635700 0.000000
-0.612700 0.000000
-0.589800 0.000000
-0.566800 0.000000
-0.543800 0.000000
-0.520800 0.000000
-0.497800 0.000000
-0.474900 0.000000
-0.451900 0.000000
-0.428900 0.000000
-0.405900 0.000000
-0.383000 0.000000
-0.360000 0.000000
-0.337000 0.000000
-0.314000 0.000000
-0.291000 0.000000
-0.268100 0.000000
-0.245100 0.000000
-0.222100 0.000000
-0.199100 0.000000
-0.176200 0.000000
-0.153200 0.000000
-0.130200 0.000000
-0.107200 0.000000
-0.084200 0.000000
-0.061300 0.000000
-0.038300 0.000000
-0.015300 0.000000
0.007700 0.000000
0.030700 0.000000
0.053600 0.000000
0.076600 0.000000
0.099600 0.000000
0.122600 0.000000
0.145500 0.000000
0.168500 0.000000
0.191500 0.000000
0.214500 0.000000
0.237500 0.000000
0.260400 0.000000
0.283400 0.000000
0.306400 0.000000
0.329400 0.000000
0.352400 0.000000
0.375300 0.000000
0.398300 0.000000
0.421300 0.000000
0.444300 0.000000
0.467200 0.000000
0.490200 0.000000
0.513200 0.000000
0.536200 0.000000
0.559200 0.002800
0.582100 0.036800
0.605100 0.132900
0.628100 0.242300
0.651100 0.358700
0.674000 0.503100
0.697000 0.636300
0.720000 0.665500
0.743000 0.685200
0.766000 0.736500
0.788900 0.794200
0.811900 0.844900
0.834900 0.887200
0.857900 0.929600
0.880900 0.971200
0.903800 1.010000
0.926800 1.050000
0.949800 1.094200
0.972800 1.173100
0.995700 1.280300
1.018700 1.326600
1.041700 1.368100
1.064700 1.414500
1.087700 1.458600
1.110600 1.513000
1.133600 1.490400
1.156600 1.468500
1.179600 1.472100
1.202600 1.496600
1.225500 1.521300
1.248500 1.547100
1.271500 1.568900
1.294500 1.578000
1.317400 1.582200
1.340400 1.584800
1.363400 1.586100
1.386400 1.596200
1.409400 1.667200
1.432300 1.675000
1.455300 1.720600
1.478300 1.812100
1.501300 1.921900
1.524300 2.037300
1.547200 2.131300
1.570200 2.096800
1.593200 2.111700
1.616200 2.143200
1.639100 2.175100
1.662100 2.209800
1.685100 2.246000
1.708100 2.286300
1.731100 2.332400
1.754000 2.409800
1.777000 2.343600
1.800000 2.308500
1.823000 2.276400
1.845900 2.234300
1.868900 2.251000
1.891900 2.250400
1.914900 2.253500
1.937900 2.265500
1.960800 2.309300
1.983800 2.288800
2.006800 2.373300
2.029800 2.440000
2.052800 2.494200
2.075700 2.560900
2.098700 2.645400
2.121700 2.760000
2.144700 2.877100
2.167600 2.996200
2.190600 3.133700
2.213600 3.273600
2.236600 3.499700
2.259600 3.772800
2.282500 3.857200
2.305500 3.800000
2.328500 3.643000
2.351500 3.499700
2.374500 3.356900
2.397400 3.348600
2.420400 3.322500
2.443400 3.264100
2.466400 3.195300
2.489300 3.159700
2.512300 3.155400
2.535300 3.218600
2.558300 3.334700
2.581300 3.408900
2.604200 3.342300
2.627200 3.316700
2.650200 3.315700
2.673200 3.329000
2.696100 3.331800
2.719100 3.336400
2.742100 3.367000
2.765100 3.430400
2.788100 3.509100
2.811000 3.500600
2.834000 3.572400
2.857000 3.637400
2.880000 3.354600
2.903000 3.311100
2.925900 3.371600
2.948900 3.387900
2.971900 3.412000
2.994900 3.409900
3.017800 3.417800
3.040800 3.475000
3.063800 3.499700
3.086800 3.523700
3.109800 3.562400
3.132700 3.617300
3.155700 3.659800
3.178700 3.648400
3.201700 3.568200
3.224700 3.570500
3.247600 3.564400
3.270600 3.550200
3.293600 3.495900
3.316600 3.456100
3.339500 3.422200
3.362500 3.387500
3.385500 3.343400
3.408500 3.276400
3.431500 3.207500
3.454400 3.034800
3.477400 2.955400
3.500400 2.953400
3.523400 2.987100
3.546400 3.167700
3.569300 3.351700
3.592300 3.381700
3.615300 3.376100
3.638300 3.351200
3.661200 3.335200
3.684200 3.339400
3.707200 3.385700
3.730200 3.443200
3.753200 3.422700
3.776100 3.354100
3.799100 3.250200
3.822100 3.120800
3.845100 2.973300
3.868000 2.843900
3.891000 2.751600
3.914000 2.715600
3.937000 2.732200
3.960000 2.760000
3.982900 2.795500
4.005900 2.859300
4.028900 2.876900
4.051900 2.792700
4.074900 2.766800
4.097800 2.755600
4.120800 2.742900
4.143800 2.739400
4.166800 2.750200
4.189700 2.750700
4.212700 2.758200
4.235700 2.785600
4.258700 2.835500
4.281700 2.891500
4.304600 2.942000
4.327600 2.973800
4.350600 2.984900
4.373600 2.944500
4.396600 2.905300
4.419500 2.877300
4.442500 2.875800
4.465500 2.795200
4.488500 2.762900
4.511400 2.759700
4.534400 2.744800
4.557400 2.684100
4.580400 2.656800
4.603400 2.645300
4.626300 2.648400
4.649300 2.670700
4.672300 2.683900
4.695300 2.690200
4.718200 2.718400
4.741200 2.776900
4.764200 2.846500
4.787200 2.926600
4.810200 3.015700
4.833100 3.095800
4.856100 3.208200
4.879100 3.366700
4.902100 3.498300
4.925100 3.700800
4.948000 3.651200
4.971000 3.432800
4.994000 3.100600
5.017000 2.661800
5.039900 2.197300
5.062900 1.747600
5.085900 1.425700
5.108900 1.176100
5.131900 1.002900
5.154800 0.862300
5.177800 0.752300
5.200800 0.671400
5.223800 0.633000
5.246800 0.689900
5.269700 0.752500
5.292700 0.877900
5.315700 0.775500
5.338700 0.810300
5.361600 1.173800
5.384600 1.427800
5.407600 1.345100
5.430600 1.354200
5.453600 1.436000
5.476500 1.517700
5.499500 1.600600
5.522500 1.695200
5.545500 1.795300
5.568500 1.892500
5.591400 1.972400
5.614400 2.055200
5.637400 2.132400
5.660400 2.229600
5.683300 2.225600
5.706300 2.264900
5.729300 2.279200
5.752300 2.290700
5.775300 2.332800
5.798200 2.387100
5.821200 2.418600
5.844200 2.401700
5.867200 2.339600
5.890100 2.251600
5.913100 2.181600
5.936100 2.149600
5.959100 2.132500
5.982100 2.126300
6.005000 2.127200
6.028000 2.131700
6.051000 2.141600
6.074000 2.167900
6.097000 2.205500
6.119900 2.264600
6.142900 2.344800
6.165900 2.415100
6.188900 2.468900
6.211800 2.499500
6.234800 2.485200
6.257800 2.422500
6.280800 2.421200
6.303800 2.433800
6.326700 2.462200
6.349700 2.491800
6.372700 2.521400
6.395700 2.483700
6.418700 2.443900
6.441600 2.401700
6.464600 2.364800
6.487600 2.355900
6.510600 2.368100
6.533500 2.340000
6.556500 2.315400
6.579500 2.307700
6.602500 2.291600
6.625500 2.270800
6.648400 2.251200
6.671400 2.228500
6.694400 2.219800
6.717400 2.219800
6.740400 2.228800
6.763300 2.242000
6.786300 2.248200
6.809300 2.251500
6.832300 2.252500
6.855200 2.255000
6.878200 2.261800
6.901200 2.269700
6.924200 2.276400
6.947200 2.280800
6.970100 2.283100
6.993100 2.285000
7.016100 2.285900
7.039100 2.285700
7.062000 2.284800
7.085000 2.283700
7.108000 2.282400
7.131000 2.282600
7.154000 2.286000
7.176900 2.302700
7.199900 2.376800
7.222900 2.422800
7.245900 2.457200
7.268900 2.478600
7.291800 2.482300
7.314800 2.487500
7.337800 2.498400
7.360800 2.515400
7.383700 2.543100
7.406700 2.569700
7.429700 2.609500
7.452700 2.665000
7.475700 2.736800
7.498600 2.843800
7.521600 2.995000
7.544600 3.158000
7.567600 3.241700
7.590600 3.352200
7.613500 3.385200
7.636500 3.320400
7.659500 3.198300
7.682500 3.087800
7.705400 3.057700
7.728400 3.071300
7.751400 3.079600
7.774400 3.115200
7.797400 3.183400
7.820300 3.291100
7.843300 3.357500
7.866300 3.319300
7.889300 3.144100
7.912200 2.927100
7.935200 2.735700
7.958200 2.563800
7.981200 2.391300
8.004200 2.323200
8.027100 2.351600
8.050100 2.397400
8.073100 2.456300
8.096100 2.542800
8.119100 2.643600
8.142000 2.825900
8.165000 3.074500
8.188000 3.203200
8.211000 3.138200
8.233900 3.110600
8.256900 3.085100
8.279900 3.074000
8.302900 3.074900
8.325900 3.073900
8.348800 3.092400
8.371800 3.150700
8.394800 3.189300
8.417800 3.196000
8.440800 3.185700
8.463700 3.171800
8.486700 3.162500
8.509700 3.118800
8.532700 3.086200
8.555600 2.964000
8.578600 2.905000
8.601600 2.891900
8.624600 2.891400
8.647600 2.921000
8.670500 3.011000
8.693500 3.143700
8.716500 3.195600
8.739500 3.109800
8.762500 3.093400
8.785400 3.130200
8.808400 3.235000
8.831400 3.372700
8.854400 3.487400
8.877300 3.583300
8.900300 3.589400
8.923300 3.480300
8.946300 3.340800
8.969300 3.158300
8.992200 2.964300
9.015200 2.803100
9.038200 2.714500
9.061200 2.667200
9.084100 2.692400
9.107100 2.689000
9.130100 2.665900
9.153100 2.726300
9.176100 2.827400
9.199000 2.893100
9.222000 2.948500
9.245000 2.947100
9.268000 2.939300
9.291000 2.931100
9.313900 2.894100
9.336900 2.831200
9.359900 2.848700
9.382900 2.780400
9.405800 2.675400
9.428800 2.639900
9.451800 2.583100
9.474800 2.546700
9.497800 2.534100
9.520700 2.520400
9.543700 2.519200
9.566700 2.523300
9.589700 2.539700
9.612700 2.606400
9.635600 2.712400
9.658600 2.785100
9.681600 2.771000
9.704600 2.706500
9.727500 2.630100
9.750500 2.581600
9.773500 2.551200
9.796500 2.488200
9.819500 2.327200
9.842400 2.163500
9.865400 2.115000
9.888400 2.074600
9.911400 2.081400
9.934300 2.050100
9.957300 1.907300
9.980300 1.776200
10.003300 1.765300
10.026300 1.768400
10.049200 1.774900
10.072200 1.779800
10.095200 1.769600
10.118200 1.749900
10.141200 1.734500
10.164100 1.727400
10.187100 1.738700
10.210100 1.746500
10.233100 1.692100
10.256000 1.641800
10.279000 1.612200
10.302000 1.644700
10.325000 1.696500
10.348000 1.813100
10.370900 2.106100
10.393900 2.337300
10.416900 2.478500
10.439900 2.604600
10.462900 2.707300
10.485800 2.807700
10.508800 2.901200
10.531800 2.965300
10.554800 2.995900
10.577700 3.058400
10.600700 3.100700
10.623700 3.128000
10.646700 3.148200
10.669700 3.171600
10.692600 3.204900
10.715600 3.237800
10.738600 3.422600
10.761600 3.746700
10.784600 3.860900
10.807500 3.752100
10.830500 3.515400
10.853500 3.368500
10.876500 3.164100
10.899400 3.185900
10.922400 3.355500
10.945400 3.424600
10.968400 3.526700
10.991400 3.565800
11.014300 3.461300
11.037300 3.249200
11.060300 3.038100
11.083300 2.913200
11.106200 2.791400
11.129200 2.657500
11.152200 2.539800
11.175200 2.443100
11.198200 2.359200
11.221100 2.296500
11.244100 2.263900
11.267100 2.258000
11.290100 2.265800
11.313100 2.255900
11.336000 2.211200
11.359000 2.165600
11.382000 2.119100
11.405000 2.032000
11.427900 1.959400
11.450900 1.899400
11.473900 1.837700
11.496900 1.784000
11.519900 1.743900
11.542800 1.717600
11.565800 1.916700
11.588800 2.001000
11.611800 1.977800
11.634800 1.968700
11.657700 1.970700
11.680700 1.983300
11.703700 2.021500
11.726700 2.065700
11.749600 2.114500
11.772600 2.252400
11.795600 2.330900
11.818600 2.372400
11.841600 2.398500
11.864500 2.413800
11.887500 2.499300
11.910500 2.363600
11.933500 2.275600
11.956400 2.187900
11.979400 2.133700
12.002400 2.079600
12.025400 2.045800
12.048400 2.036400
12.071300 2.024200
12.094300 2.054000
12.117300 2.160800
12.140300 2.338300
12.163300 2.413400
12.186200 2.471800
12.209200 2.516300
12.232200 2.537600
12.255200 2.516000
12.278100 2.503000
12.301100 2.499800
12.324100 2.507000
12.347100 2.518500
12.370100 2.541100
12.393000 2.605500
12.416000 2.739000
12.439000 2.735200
12.462000 2.667100
12.485000 2.577200
12.507900 2.513500
12.530900 2.518900
12.553900 2.581300
12.576900 2.606000
12.599800 2.549800
12.622800 2.630400
12.645800 2.714400
12.668800 2.784400
12.691800 2.846100
12.714700 2.901800
12.737700 2.906400
12.760700 2.889600
12.783700 2.876900
12.806700 2.890700
12.829600 2.834800
12.852600 2.772700
12.875600 2.739600
12.898600 2.722100
12.921500 2.714300
12.944500 2.728700
12.967500 2.750400
12.990500 2.801600
13.013500 2.890500
13.036400 2.901600
13.059400 2.897000
13.082400 2.885500
13.105400 2.878700
13.128300 2.991000
13.151300 3.161600
13.174300 3.264200
13.197300 3.300400
13.220300 3.239100
13.243200 3.217200
13.266200 3.301600
13.289200 3.409000
13.312200 3.511300
13.335200 3.600500
13.358100 3.662600
13.381100 3.704300
13.404100 3.728500
13.427100 3.781300
13.450000 3.887600
13.473000 4.033800
13.496000 4.104900
13.519000 4.184900
13.542000 4.255800
13.564900 4.304200
13.587900 4.325600
13.610900 4.198300
13.633900 4.095500
13.656900 4.011500
13.679800 3.965100
13.702800 3.898500
13.725800 3.830500
13.748800 3.767600
13.771700 3.712800
13.794700 3.667700
13.817700 3.611700
13.840700 3.562400
13.863700 3.529200
13.886600 3.551700
13.909600 3.684900
13.932600 3.904000
13.955600 4.088900
13.978600 4.234500
14.001500 4.250100
14.024500 4.176900
14.047500 4.194700
14.070500 4.206300
14.093400 4.125900
14.116400 4.076800
14.139400 4.029200
14.162400 4.023100
14.185400 4.067200
14.208300 4.081300
14.231300 4.094400
14.254300 4.091100
14.277300 4.092800
14.300200 4.049200
14.323200 4.057400
14.346200 4.132900
14.369200 4.154400
14.392200 4.150600
14.415100 4.182600
14.438100 4.242400
14.461100 4.179300
14.484100 4.182500
14.507100 4.268000
14.530000 4.414900
14.553000 4.533400
14.576000 4.699000
14.599000 4.874700
14.621900 4.951100
14.644900 5.011400
14.667900 5.084400
14.690900 5.101200
14.713900 5.123100
14.736800 5.137200
14.759800 5.072600
14.782800 4.966200
14.805800 4.902200
14.828800 4.889800
14.851700 4.995100
14.874700 5.268700
14.897700 5.038100
14.920700 5.088900
14.943600 5.128200
14.966600 5.114700
14.989600 5.081500
15.012600 5.111800
15.035600 5.084800
15.058500 4.998700
15.081500 4.894000
15.104500 4.654500
15.127500 4.349400
15.150400 4.032700
15.173400 3.861200
15.196400 3.798300
15.219400 3.764600
15.242400 3.728100
15.265300 3.722400
15.288300 3.777000
15.311300 3.757500
15.334300 3.835600
15.357300 3.951700
15.380200 4.082500
15.403200 4.217500
15.426200 4.277000
15.449200 4.311500
15.472100 4.369400
15.495100 4.481700
15.518100 4.530000
15.541100 4.365800
15.564100 4.396400
15.587000 4.238800
15.610000 4.045800
15.633000 3.826900
15.656000 3.696900
15.679000 3.590300
15.701900 3.513400
15.724900 3.467700
15.747900 3.436800
15.770900 3.414600
15.793800 3.403800
15.816800 3.401800
15.839800 3.423900
15.862800 3.524800
15.885800 3.668100
15.908700 3.846600
15.931700 3.973600
15.954700 4.083600
15.977700 4.171400
16.000700 4.147300
16.023600 4.205400
16.046600 4.130100
16.069600 4.029200
16.092600 3.933300
16.115500 3.826200
16.138500 3.740800
16.161500 3.704800
16.184500 3.648000
16.207500 3.669000
16.230400 3.712200
16.253400 3.814000
16.276400 4.003400
16.299400 4.540600
16.322300 4.803600
16.345300 4.946500
16.368300 4.856800
16.391300 4.802700
16.414300 4.802100
16.437200 4.809200
16.460200 4.780800
16.483200 4.722100
16.506200 4.675800
16.529200 4.626100
16.552100 4.576600
16.575100 4.550200
16.598100 4.523200
16.621100 4.498000
16.644000 4.525700
16.667000 4.714800
16.690000 5.132000
16.713000 5.243100
16.736000 5.295400
16.758900 5.225000
16.781900 5.006200
16.804900 4.822200
16.827900 4.747700
16.850900 4.698700
16.873800 4.765000
16.896800 4.783700
16.919800 4.697800
16.942800 4.650200
16.965700 4.652100
16.988700 4.725000
17.011700 4.738300
17.034700 4.662300
17.057700 4.526800
17.080600 4.533200
17.103600 4.528700
17.126600 4.386200
17.149600 4.294100
17.172500 4.228900
17.195500 4.175100
17.218500 4.151200
17.241500 4.210600
17.264500 4.304300
17.287400 4.399700
17.310400 4.450600
17.333400 4.483900
17.356400 4.621000
17.379400 4.549700
17.402300 4.572300
17.425300 4.607700
17.448300 4.661400
17.471300 4.737300
17.494200 4.870000
17.517200 5.011500
17.540200 5.119500
17.563200 5.210600
17.586200 5.284000
17.609100 5.328900
17.632100 5.356300
17.655100 5.373100
17.678100 5.369000
17.701100 5.284300
17.724000 5.327600
17.747000 5.329800
17.770000 5.282300
17.793000 5.264600
17.815900 5.297900
17.838900 5.291900
17.861900 5.260000
17.884900 5.198700
17.907900 5.139500
17.930800 5.226600
17.953800 5.212500
17.976800 5.227400
17.999800 5.204300
18.022800 5.245000
18.045700 5.424800
18.068700 5.510300
18.091700 5.460400
18.114700 5.311500
18.137600 5.241600
18.160600 5.178700
18.183600 5.165800
18.206600 5.155400
18.229600 5.155200
18.252500 5.214900
18.275500 5.245700
18.298500 5.302900
18.321500 5.409500
18.344400 5.535600
18.367400 5.715800
18.390400 5.770300
18.413400 5.796000
18.436400 5.852800
18.459300 5.913100
18.482300 6.047700
18.505300 6.321400
18.528300 5.935100
18.551300 5.710000
18.574200 5.546800
18.597200 5.394900
18.620200 5.219600
18.643200 5.052300
18.666100 4.923600
18.689100 4.871500
18.712100 4.876400
18.735100 4.866300
18.758100 4.846000
18.781000 4.871100
18.804000 4.942000
18.827000 5.020600
18.850000 5.089500
18.873000 5.127700
18.895900 5.124600
18.918900 5.073100
18.941900 5.033300
18.964900 4.979000
18.987800 4.908300
19.010800 4.897500
19.033800 4.838000
19.056800 4.752400
19.079800 4.716400
19.102700 4.779600
19.125700 4.926500
19.148700 5.148800
19.171700 5.428500
19.194600 5.685200
19.217600 5.589000
19.240600 5.408200
19.263600 5.404900
19.286600 5.482900
19.309500 5.565500
19.332500 5.550700
19.355500 5.345900
19.378500 5.183300
19.401500 5.173400
19.424400 5.212700
19.447400 5.114200
19.470400 4.989200
19.493400 4.930100
19.516300 5.162000
19.539300 5.150900
19.562300 5.391300
19.585300 5.765800
19.608300 5.903800
19.631200 6.023600
19.654200 6.011900
19.677200 5.992100
19.700200 5.492800
19.723200 5.001400
19.746100 4.843300
19.769100 4.850100
19.792100 4.894600
19.815100 5.047400
19.838000 4.957700
19.861000 4.877200
19.884000 4.821500
19.907000 4.954300
19.930000 5.375300
19.952900 5.215200
19.975900 5.401600
19.998900 5.371900
20.021900 5.279500
20.044900 5.133700
20.067800 5.017500
20.090800 4.911200
20.113800 4.739200
20.136800 4.723500
20.159700 4.879100
20.182700 4.951400
20.205700 4.948000
20.228700 5.039300
20.251700 5.039100
20.274600 5.034100
20.297600 5.208900
20.320600 5.199400
20.343600 5.115400
20.366500 5.178100
20.389500 5.224400
20.412500 5.247200
20.435500 5.265500
20.458500 5.288700
20.481400 5.298700
20.504400 5.349300
20.527400 5.361700
20.550400 5.405200
20.573400 5.473500
20.596300 5.544800
20.619300 5.615000
20.642300 5.732400
20.665300 5.823300
20.688200 5.845900
20.711200 5.870800
20.734200 5.890400
20.757200 5.969200
20.780200 5.983300
20.803100 5.993000
20.826100 6.038400
20.849100 5.762300
20.872100 5.664700
20.895100 5.617700
20.918000 5.657400
20.941000 5.658900
20.964000 5.633300
20.987000 5.665600
21.009900 5.708100
21.032900 5.743800
21.055900 5.770500
21.078900 5.825500
21.101900 5.862100
21.124800 5.887800
21.147800 5.844000
21.170800 5.850900
21.193800 5.916300
21.216700 5.934900
21.239700 5.937500
21.262700 5.920500
21.285700 5.904900
21.308700 5.939600
21.331600 5.961500
21.354600 5.920000
21.377600 5.812800
21.400600 5.757100
21.423600 5.729000
21.446500 5.708600
21.469500 5.743600
21.492500 5.828200
21.515500 5.981200
21.538400 6.248700
21.561400 6.090400
21.584400 6.128100
21.607400 5.994900
21.630400 6.035800
21.653300 6.178800
21.676300 6.286300
21.699300 6.392600
21.722300 6.451200
21.745300 6.575500
21.768200 6.570000
21.791200 6.416600
21.814200 6.359600
21.837200 6.291900
21.860100 6.158700
21.883100 6.120100
21.906100 6.179800
21.929100 6.162800
21.952100 6.210700
21.975000 6.328300
21.998000 6.429500
22.021000 6.414400
22.044000 5.960600
22.067000 5.628400
22.089900 5.474500
22.112900 5.480600
22.135900 5.473800
22.158900 5.470800
22.181800 5.474100
22.204800 5.540800
22.227800 5.735000
22.250800 5.732900
22.273800 5.743600
22.296700 5.822700
22.319700 5.993400
22.342700 6.148200
22.365700 6.347700
22.388600 6.492800
22.411600 6.465800
22.434600 6.242700
22.457600 6.063300
22.480600 5.868500
22.503500 5.886800
22.526500 6.022800
22.549500 6.333400
22.572500 6.513600
22.595500 6.584400
22.618400 6.782100
22.641400 6.954300
22.664400 6.849200
22.687400 6.637400
22.710300 6.580400
22.733300 6.490000
22.756300 6.461700
22.779300 6.481700
22.802300 6.452700
22.825200 6.386000
22.848200 6.387900
22.871200 6.455800
22.894200 6.360900
22.917200 6.374500
22.940100 6.232200
22.963100 6.132500
22.986100 6.064600
23.009100 6.013900
23.032000 5.989500
23.055000 6.104300
23.078000 6.087700
23.101000 6.046200
23.124000 5.999900
23.146900 5.932300
23.169900 5.899200
23.192900 5.913700
23.215900 5.986300
23.238900 6.094800
23.261800 6.169900
23.284800 6.214300
23.307800 6.273500
23.330800 6.351800
23.353700 6.436600
23.376700 6.520000
23.399700 6.565400
23.422700 6.601000
23.445700 6.594400
23.468600 6.497900
23.491600 6.482900
23.514600 6.369500
23.537600 6.184500
23.560500 6.032900
23.583500 5.916500
23.606500 5.804900
23.629500 5.732600
23.652500 5.656800
23.675400 5.664700
23.698400 5.713400
23.721400 5.744700
23.744400 5.793400
23.767400 5.971300
23.790300 6.137100
23.813300 6.250400
23.836300 6.349600
23.859300 6.470800
23.882200 6.501900
23.905200 6.514400
23.928200 6.522800
23.951200 6.577000
23.974200 6.604300
23.997100 6.607800
24.020100 6.611600
24.043100 6.835500
24.066100 6.924400
24.089100 6.914100
24.112000 6.925900
24.135000 6.856400
24.158000 6.680000
24.181000 6.548600
24.203900 6.416500
24.226900 6.340100
24.249900 6.313000
24.272900 6.319500
24.295900 6.304900
24.318800 6.340700
24.341800 6.411000
24.364800 6.674600
24.387800 7.034900
24.410700 7.175500
24.433700 7.188700
24.456700 7.053200
24.479700 6.894100
24.502700 6.814300
24.525600 6.756500
24.548600 6.707300
24.571600 6.709700
24.594600 6.763200
24.617600 6.850700
24.640500 6.947000
24.663500 7.004500
24.686500 7.004100
24.709500 6.964000
24.732400 6.921300
24.755400 6.816200
24.778400 6.702700
24.801400 6.594200
24.824400 6.547600
24.847300 6.551200
24.870300 6.464300
24.893300 6.454900
24.916300 6.458700
24.939300 6.407600
24.962200 6.395700
24.985200 6.388400
25.008200 6.341500
25.031200 6.355800
25.054100 6.333300
25.077100 6.402000
25.100100 6.488900
25.123100 6.596700
25.146100 6.683100
25.169000 6.714100
25.192000 6.791900
25.215000 6.908600
25.238000 7.069200
25.261000 7.184900
25.283900 7.303800
25.306900 7.300100
25.329900 7.239100
25.352900 7.123100
25.375800 7.002600
25.398800 6.872000
25.421800 6.855700
25.444800 6.834100
25.467800 6.852300
25.490700 6.845800
25.513700 6.756100
25.536700 6.583300
25.559700 6.414600
25.582600 6.469100
25.605600 6.665900
25.628600 6.890600
25.651600 6.986400
25.674600 7.032500
25.697500 7.093900
25.720500 7.148800
25.743500 7.072700
25.766500 6.910900
25.789500 6.896900
25.812400 7.005800
25.835400 6.989100
25.858400 7.056800
25.881400 7.295100
25.904300 6.774500
25.927300 6.664400
25.950300 6.499400
25.973300 6.315200
25.996300 6.191100
26.019200 6.088100
26.042200 6.006000
26.065200 6.000500
26.088200 6.067900
26.111200 6.106500
26.134100 6.112100
26.157100 6.094100
26.180100 6.217300
26.203100 6.363000
26.226000 6.424000
26.249000 6.545000
26.272000 6.527600
26.295000 6.557100
26.318000 6.540500
26.340900 6.488700
26.363900 6.578100
26.386900 6.765100
26.409900 6.921900
26.432800 7.178200
26.455800 7.410200
26.478800 7.415900
26.501800 7.468600
26.524800 7.345500
26.547700 7.244300
26.570700 7.244500
26.593700 7.297700
26.616700 7.410400
26.639700 7.457500
26.662600 7.447100
26.685600 7.451400
26.708600 7.462900
26.731600 7.605000
26.754500 7.748000
26.777500 7.887100
26.800500 7.785700
26.823500 7.880700
26.846500 7.847900
26.869400 7.827500
26.892400 7.786800
26.915400 7.742600
26.938400 7.659100
26.961400 7.531000
26.984300 7.427400
27.007300 7.202200
27.030300 7.005100
27.053300 6.910300
27.076200 6.870600
27.099200 6.877100
27.122200 6.940100
27.145200 6.973600
27.168200 7.110500
27.191100 7.112500
27.214100 7.090400
27.237100 7.052200
27.260100 7.064000
27.283100 7.126500
27.306000 7.193900
27.329000 7.210300
27.352000 7.179200
27.375000 7.096400
27.397900 6.871000
27.420900 6.653100
27.443900 6.496800
27.466900 6.477300
27.489900 6.487500
27.512800 6.458600
27.535800 6.337800
27.558800 6.311200
27.581800 6.326500
27.604700 6.345700
27.627700 6.391800
27.650700 6.568700
27.673700 6.671500
27.696700 6.878600
27.719600 7.038100
27.742600 7.180300
27.765600 7.189100
27.788600 7.254400
27.811600 7.124200
27.834500 7.013900
27.857500 6.975900
27.880500 6.975000
27.903500 7.060300
27.926400 7.176100
27.949400 7.181100
27.972400 7.269200
27.995400 7.116800
28.018400 7.010700
28.041300 7.089700
28.064300 7.154600
28.087300 7.302900
28.110300 7.346000
28.133300 7.285400
28.156200 7.257100
28.179200 7.286700
28.202200 7.344400
28.225200 7.490500
28.248100 7.586300
28.271100 7.510700
28.294100 7.149900
28.317100 6.982700
28.340100 6.885300
28.363000 6.930600
28.386000 7.079100
28.409000 7.468200
28.432000 7.510200
28.454900 7.924500
28.477900 8.012900
28.500900 8.070100
28.523900 8.131800
28.546900 8.031300
28.569800 7.990100
28.592800 7.888100
28.615800 7.886100
28.638800 7.765800
28.661800 7.812300
28.684700 7.755700
28.707700 7.274200
28.730700 6.909500
28.753700 6.612100
28.776600 6.665700
28.799600 6.952700
28.822600 7.392200
28.845600 7.774500
28.868600 7.874300
28.891500 7.830100
28.914500 7.946300
28.937500 7.688700
28.960500 7.226800
28.983500 6.689100
29.006400 6.423900
29.029400 6.440000
29.052400 6.572000
29.075400 6.723700
29.098300 7.031600
29.121300 7.126600
29.144300 7.015000
29.167300 6.928700
29.190300 6.978800
29.213200 7.067000
29.236200 7.379100
29.259200 7.877400
29.282200 8.236700
29.305200 8.510800
29.328100 8.053700
29.351100 7.434200
29.374100 6.902900
29.397100 6.592600
29.420000 6.370200
29.443000 6.057100
29.466000 5.848900
29.489000 5.952800
29.512000 6.113100
29.534900 6.240700
29.557900 6.280600
29.580900 6.567800
29.603900 6.690300
29.626800 6.757700
29.649800 6.890500
29.672800 7.175200
29.695800 7.504200
29.718800 7.657100
29.741700 7.566200
29.764700 7.268000
29.787700 7.330100
29.810700 7.436900
29.833700 7.346500
29.856600 7.421100
29.879600 7.490400
29.902600 7.602500
29.925600 7.565100
29.948500 7.442700
29.971500 7.576700
29.994500 7.943400
30.017500 7.752800
30.040500 7.550900
30.063400 7.397000
30.086400 7.459400
30.109400 7.272000
30.132400 7.303500
30.155400 7.715200
30.178300 7.869800
30.201300 7.756400
30.224300 7.497200
30.247300 7.351000
30.270200 7.332300
30.293200 7.361600
30.316200 7.258200
30.339200 7.237500
30.362200 7.335300
30.385100 7.435100
30.408100 7.474600
30.431100 7.635200
30.454100 7.666900
30.477100 7.563200
30.500000 7.400200
30.523000 7.031100
30.546000 6.754600
30.569000 6.696300
30.591900 6.647700
30.614900 6.478200
30.637900 6.902300
30.660900 7.123400
30.683900 7.169500
30.706800 7.371900
30.729800 7.551100
30.752800 7.523800
30.775800 6.887700
30.798700 6.549700
30.821700 6.689900
30.844700 6.945100
30.867700 6.940400
30.890700 7.099600
30.913600 7.231600
30.936600 7.365000
30.959600 7.469300
30.982600 7.508100
31.005600 7.494500
31.028500 7.308300
31.051500 7.252200
31.074500 7.476300
31.097500 7.827000
31.120400 7.779800
31.143400 7.695200
31.166400 7.938000
31.189400 8.316100
31.212400 8.655400
31.235300 8.608800
31.258300 7.924100
31.281300 7.557500
31.304300 7.212000
31.327300 7.163200
31.350200 6.903600
31.373200 6.980800
31.396200 7.314500
31.419200 7.653100
31.442100 7.793700
31.465100 7.645100
31.488100 7.378400
31.511100 6.941600
31.534100 6.642800
31.557000 6.599300
31.580000 6.596800
31.603000 6.511200
31.626000 6.487700
31.648900 6.566600
31.671900 6.629200
31.694900 6.719900
31.717900 6.840700
31.740900 7.038700
31.763800 6.864400
31.786800 6.961300
31.809800 7.052200
31.832800 7.019800
31.855800 6.924900
31.878700 6.880100
31.901700 6.860800
31.924700 6.821900
31.947700 6.738800
31.970600 6.899600
31.993600 7.110300
32.016600 7.188800
32.039600 7.299800
32.062600 7.394200
32.085500 7.425700
32.108500 7.427800
32.131500 7.372000
32.154500 7.315900
32.177500 7.349300
32.200400 7.524000
32.223400 7.733000
32.246400 8.010600
32.269400 8.087700
32.292300 7.839800
32.315300 7.122200
32.338300 6.655600
32.361300 6.323900
32.384300 6.053900
32.407200 5.925900
32.430200 5.969400
32.453200 5.910200
32.476200 5.897700
32.499200 5.756200
32.522100 5.663400
32.545100 5.678300
32.568100 5.771600
32.591100 5.504300
32.614000 5.409900
32.637000 5.508200
32.660000 5.519000
32.683000 5.475700
32.706000 5.340300
32.728900 5.248800
32.751900 5.188800
32.774900 5.134400
32.797900 5.131500
32.820800 5.203300
32.843800 5.291700
32.866800 5.228100
32.889800 5.066900
32.912800 5.018700
32.935700 5.026600
32.958700 5.042500
32.981700 5.103900
33.004700 5.001300
33.027700 4.824600
33.050600 4.674500
33.073600 4.534600
33.096600 4.375400
33.119600 4.292400
33.142500 4.267000
33.165500 4.239400
33.188500 4.102100
33.211500 3.921400
33.234500 3.784700
33.257400 3.288600
33.280400 2.871700
33.303400 2.590900
33.326400 2.401000
33.349400 2.264600
33.372300 2.142400
33.395300 1.946700
33.418300 1.868900
33.441300 1.720300
33.464200 1.601500
33.487200 1.497500
33.510200 1.379300
33.533200 1.269900
33.556200 1.173100
33.579100 1.084000
33.602100 0.982900
33.625100 0.907800
33.648100 0.824200
33.671000 0.744300
33.694000 0.670300
33.717000 0.602000
33.740000 0.533600
33.763000 0.441800
33.785900 0.332700
33.808900 0.231600
33.831900 0.148700
33.854900 0.108500
33.877900 0.081500
33.900800 0.062000
33.923800 0.047600
33.946800 0.035600
33.969800 0.025400
33.992700 0.017100
34.015700 0.011200
34.038700 0.007600
34.061700 0.004600
34.084700 0.002100
34.107600 0.000200
34.130600 0.000000
34.153600 0.000000
34.176600 0.000000
34.199600 0.000000
34.222500 0.000000
34.245500 0.000000
34.268500 0.000000
34.291500 0.000000
34.314400 0.000000
34.337400 0.000000
34.360400 0.000000
34.383400 0.000000
34.406400 0.000000
34.429300 0.000000
34.452300 0.000000
34.475300 0.000000
34.498300 0.000000
34.521300 0.000000
34.544200 0.000000
34.567200 0.000000
34.590200 0.000000
34.613200 0.000000
34.636100 0.000000
34.659100 0.000000
34.682100 0.000000
34.705100 0.000000
34.728100 0.000000
34.751000 0.000000
34.774000 0.000000
34.797000 0.000000
34.820000 0.000000
34.842900 0.000000
34.865900 0.000000
34.888900 0.000000
34.911900 0.000000
34.934900 0.000000
34.957800 0.000000
34.980800 0.000000
35.003800 0.000000
35.026800 0.000000
35.049800 0.000000
35.072700 0.000000
35.095700 0.000000
35.118700 0.000000
35.141700 0.000000
35.164600 0.000000
35.187600 0.000000
35.210600 0.000000
35.233600 0.000000
35.256600 0.000000
35.279500 0.000000
35.302500 0.000000
35.325500 0.000000
35.348500 0.000000
35.371500 0.000000
35.394400 0.000000
35.417400 0.000000
35.440400 0.000000
35.463400 0.000000
35.486300 0.000000
35.509300 0.000000
35.532300 0.000000
35.555300 0.000000
35.578300 0.000000
35.601200 0.000000
35.624200 0.000000
35.647200 0.000000
35.670200 0.000000
35.693100 0.000000
35.716100 0.000000
35.739100 0.000000
35.762100 0.000000
35.785100 0.000000
35.808000 0.000000
35.831000 0.000000
35.854000 0.000000
35.877000 0.000000
35.900000 0.000000
35.922900 0.000000
35.945900 0.000000
35.968900 0.000000
35.991900 0.000000
36.014800 0.000000
36.037800 0.000000
36.060800 0.000000
36.083800 0.000000
36.106800 0.000000
36.129700 0.000000
36.152700 0.000000
36.175700 0.000000
36.198700 0.000000
e
