set title 'mp-8642 - Density of States'
set xlabel 'Energy (eV)'
set ylabel 'DOS (states/eV)'
set grid
set xrange [-10:10]
set yrange [0:2.205]
set xzeroaxis lt -1
set terminal png size 800,600
set output 'mp-8642_dos_gnuplot.png'
plot '-' using 1:2 with lines title 'DOS'
-42.452900 0.000000
-42.370600 0.000000
-42.288300 0.000000
-42.206000 0.000000
-42.123700 0.000000
-42.041400 0.000000
-41.959100 0.000000
-41.876900 0.000000
-41.794600 0.000000
-41.712300 0.000000
-41.630000 0.000000
-41.547700 0.000000
-41.465400 0.000000
-41.383100 0.000000
-41.300900 0.000000
-41.218600 0.000000
-41.136300 0.000000
-41.054000 0.000000
-40.971700 0.000000
-40.889400 0.000000
-40.807100 0.000000
-40.724900 0.000000
-40.642600 0.000000
-40.560300 0.000000
-40.478000 0.000000
-40.395700 0.000000
-40.313400 0.000000
-40.231100 0.000000
-40.148800 0.000000
-40.066600 0.000000
-39.984300 0.000000
-39.902000 0.000000
-39.819700 0.000000
-39.737400 0.000000
-39.655100 0.000000
-39.572800 0.000000
-39.490600 0.000000
-39.408300 0.000000
-39.326000 0.000000
-39.243700 0.000000
-39.161400 0.000000
-39.079100 0.000000
-38.996800 0.000000
-38.914500 0.000000
-38.832300 0.000000
-38.750000 0.000000
-38.667700 0.000000
-38.585400 0.000000
-38.503100 0.000000
-38.420800 0.000000
-38.338500 0.000000
-38.256300 0.000000
-38.174000 0.000000
-38.091700 0.000000
-38.009400 0.000000
-37.927100 0.000000
-37.844800 0.000000
-37.762500 0.000000
-37.680200 0.000000
-37.598000 0.000000
-37.515700 0.000000
-37.433400 0.000000
-37.351100 0.000000
-37.268800 0.000000
-37.186500 0.000000
-37.104200 0.000000
-37.022000 0.000000
-36.939700 0.000000
-36.857400 0.000000
-36.775100 0.000000
-36.692800 0.000000
-36.610500 0.000000
-36.528200 0.000000
-36.446000 0.000000
-36.363700 0.000000
-36.281400 0.000000
-36.199100 0.000000
-36.116800 0.000000
-36.034500 0.000000
-35.952200 0.000000
-35.869900 0.000000
-35.787700 0.000000
-35.705400 0.000000
-35.623100 0.000000
-35.540800 0.000000
-35.458500 0.000000
-35.376200 0.000000
-35.293900 0.000000
-35.211700 0.000000
-35.129400 0.000000
-35.047100 0.000000
-34.964800 0.474000
-34.882500 2.504500
-34.800200 5.585600
-34.717900 7.341800
-34.635600 2.928600
-34.553400 2.743200
-34.471100 3.550700
-34.388800 4.097900
-34.306500 4.555200
-34.224200 8.933000
-34.141900 9.478700
-34.059600 10.240600
-33.977400 6.712600
-33.895100 2.960900
-33.812800 0.000000
-33.730500 0.000000
-33.648200 0.000000
-33.565900 0.000000
-33.483600 0.000000
-33.401300 0.000000
-33.319100 0.000000
-33.236800 0.000000
-33.154500 0.000000
-33.072200 0.000000
-32.989900 0.000000
-32.907600 0.000000
-32.825300 0.000000
-32.743100 0.000000
-32.660800 0.000000
-32.578500 0.000000
-32.496200 0.000000
-32.413900 0.000000
-32.331600 0.000000
-32.249300 0.000000
-32.167000 0.000000
-32.084800 0.000000
-32.002500 0.000000
-31.920200 0.000000
-31.837900 0.000000
-31.755600 0.000000
-31.673300 0.000000
-31.591000 0.000000
-31.508800 0.000000
-31.426500 0.000000
-31.344200 0.000000
-31.261900 0.000000
-31.179600 0.000000
-31.097300 0.000000
-31.015000 0.000000
-30.932800 0.000000
-30.850500 0.000000
-30.768200 0.000000
-30.685900 0.000000
-30.603600 0.000000
-30.521300 0.000000
-30.439000 0.000000
-30.356700 0.000000
-30.274500 0.000000
-30.192200 0.000000
-30.109900 0.000000
-30.027600 0.000000
-29.945300 0.000000
-29.863000 0.000000
-29.780700 0.000000
-29.698500 0.000000
-29.616200 0.000000
-29.533900 0.000000
-29.451600 0.000000
-29.369300 0.000000
-29.287000 0.000000
-29.204700 0.000000
-29.122400 0.000000
-29.040200 0.000000
-28.957900 0.000000
-28.875600 0.000000
-28.793300 0.000000
-28.711000 0.000000
-28.628700 0.000000
-28.546400 0.000000
-28.464200 0.000000
-28.381900 0.000000
-28.299600 0.000000
-28.217300 0.000000
-28.135000 0.000000
-28.052700 0.000000
-27.970400 0.000000
-27.888100 0.000000
-27.805900 0.000000
-27.723600 0.000000
-27.641300 0.000000
-27.559000 0.000000
-27.476700 0.000000
-27.394400 0.000000
-27.312100 0.000000
-27.229900 0.000000
-27.147600 0.000000
-27.065300 0.000000
-26.983000 0.000000
-26.900700 0.000000
-26.818400 0.000000
-26.736100 0.000000
-26.653900 0.000000
-26.571600 0.000000
-26.489300 0.000000
-26.407000 0.000000
-26.324700 0.000000
-26.242400 0.000000
-26.160100 0.000000
-26.077800 0.000000
-25.995600 0.000000
-25.913300 0.000000
-25.831000 0.000000
-25.748700 0.000000
-25.666400 0.000000
-25.584100 0.000000
-25.501800 0.000000
-25.419600 0.000000
-25.337300 0.000000
-25.255000 0.000000
-25.172700 0.000000
-25.090400 0.000000
-25.008100 0.000000
-24.925800 0.000000
-24.843500 0.000000
-24.761300 0.000000
-24.679000 0.000000
-24.596700 0.000000
-24.514400 0.000000
-24.432100 0.000000
-24.349800 0.000000
-24.267500 0.000000
-24.185300 0.000000
-24.103000 0.000000
-24.020700 0.000000
-23.938400 0.000000
-23.856100 0.000000
-23.773800 0.000000
-23.691500 0.000000
-23.609200 0.000000
-23.527000 0.000000
-23.444700 0.000000
-23.362400 0.000000
-23.280100 0.000000
-23.197800 0.000000
-23.115500 0.000000
-23.033200 0.000000
-22.951000 0.000000
-22.868700 0.000000
-22.786400 0.000000
-22.704100 0.000000
-22.621800 0.000000
-22.539500 0.000000
-22.457200 0.000000
-22.375000 0.000000
-22.292700 0.000000
-22.210400 0.000000
-22.128100 0.000000
-22.045800 0.000000
-21.963500 0.000000
-21.881200 0.000000
-21.798900 0.000000
-21.716700 0.000000
-21.634400 0.000000
-21.552100 0.000000
-21.469800 0.000000
-21.387500 0.000000
-21.305200 0.000000
-21.222900 0.000000
-21.140700 0.000000
-21.058400 0.000000
-20.976100 0.000000
-20.893800 0.000000
-20.811500 0.000000
-20.729200 0.000000
-20.646900 0.000000
-20.564600 0.000000
-20.482400 0.000000
-20.400100 0.000000
-20.317800 0.000000
-20.235500 0.000000
-20.153200 0.000000
-20.070900 0.000000
-19.988600 0.000000
-19.906400 0.000000
-19.824100 0.000000
-19.741800 0.000000
-19.659500 0.000000
-19.577200 0.000000
-19.494900 0.000000
-19.412600 0.000000
-19.330300 0.000000
-19.248100 0.000000
-19.165800 0.000000
-19.083500 0.000000
-19.001200 0.000000
-18.918900 0.000000
-18.836600 0.000000
-18.754300 0.000000
-18.672100 0.000000
-18.589800 0.000000
-18.507500 0.000000
-18.425200 0.000000
-18.342900 0.000000
-18.260600 0.000000
-18.178300 0.000000
-18.096000 0.000000
-18.013800 0.000000
-17.931500 0.000000
-17.849200 0.000000
-17.766900 0.000000
-17.684600 0.000000
-17.602300 0.000000
-17.520000 0.000000
-17.437800 0.000000
-17.355500 0.000000
-17.273200 0.000000
-17.190900 0.000000
-17.108600 0.000000
-17.026300 0.000000
-16.944000 0.000000
-16.861800 0.000000
-16.779500 0.000000
-16.697200 0.000000
-16.614900 0.000000
-16.532600 0.000000
-16.450300 0.000000
-16.368000 0.000000
-16.285700 0.000000
-16.203500 0.000000
-16.121200 0.000000
-16.038900 0.000000
-15.956600 0.000000
-15.874300 0.000000
-15.792000 0.000000
-15.709700 0.000000
-15.627500 0.000000
-15.545200 0.000000
-15.462900 0.000000
-15.380600 0.000000
-15.298300 0.000000
-15.216000 0.000000
-15.133700 0.000000
-15.051400 0.000000
-14.969200 0.000000
-14.886900 0.000000
-14.804600 0.000000
-14.722300 0.000000
-14.640000 0.000000
-14.557700 0.000000
-14.475400 0.000000
-14.393200 0.000000
-14.310900 0.000000
-14.228600 0.000000
-14.146300 0.000000
-14.064000 0.000000
-13.981700 0.000000
-13.899400 0.000000
-13.817100 0.000000
-13.734900 0.000000
-13.652600 0.000000
-13.570300 0.000000
-13.488000 0.000000
-13.405700 0.000000
-13.323400 0.000000
-13.241100 0.000000
-13.158900 0.000000
-13.076600 0.000000
-12.994300 0.000000
-12.912000 0.000000
-12.829700 0.000000
-12.747400 0.000000
-12.665100 0.000000
-12.582900 0.000000
-12.500600 0.000000
-12.418300 0.000000
-12.336000 0.000000
-12.253700 0.000000
-12.171400 0.000000
-12.089100 0.000000
-12.006800 0.000000
-11.924600 0.000000
-11.842300 0.000000
-11.760000 0.000000
-11.677700 0.000000
-11.595400 0.000000
-11.513100 0.000000
-11.430800 0.000000
-11.348600 0.000000
-11.266300 0.000000
-11.184000 0.000000
-11.101700 0.000000
-11.019400 0.000000
-10.937100 0.000000
-10.854800 0.000000
-10.772500 0.000000
-10.690300 0.000000
-10.608000 0.000000
-10.525700 0.000000
-10.443400 0.000000
-10.361100 0.000000
-10.278800 0.000000
-10.196500 0.000000
-10.114300 0.000000
-10.032000 0.000000
-9.949700 0.000000
-9.867400 0.000000
-9.785100 0.000000
-9.702800 0.000000
-9.620500 0.000000
-9.538200 0.000000
-9.456000 0.000000
-9.373700 0.000000
-9.291400 0.000000
-9.209100 0.000000
-9.126800 0.000000
-9.044500 0.000000
-8.962200 0.000000
-8.880000 0.000000
-8.797700 0.000000
-8.715400 0.000000
-8.633100 0.000000
-8.550800 0.000000
-8.468500 0.000000
-8.386200 0.000000
-8.304000 0.000000
-8.221700 0.000000
-8.139400 0.000000
-8.057100 0.000000
-7.974800 0.000000
-7.892500 0.000000
-7.810200 0.000000
-7.727900 0.000000
-7.645700 0.000000
-7.563400 0.000000
-7.481100 0.000000
-7.398800 0.000000
-7.316500 0.000000
-7.234200 0.000000
-7.151900 0.000000
-7.069700 0.000000
-6.987400 0.000000
-6.905100 0.000000
-6.822800 0.000000
-6.740500 0.000000
-6.658200 0.000000
-6.575900 0.000000
-6.493600 0.000000
-6.411400 0.000000
-6.329100 0.000000
-6.246800 0.000000
-6.164500 0.000000
-6.082200 0.000000
-5.999900 0.000000
-5.917600 0.000000
-5.835400 0.000000
-5.753100 0.000000
-5.670800 0.000000
-5.588500 0.000000
-5.506200 0.000000
-5.423900 0.000000
-5.341600 0.000000
-5.259300 0.000000
-5.177100 0.000000
-5.094800 0.000000
-5.012500 0.000000
-4.930200 0.000000
-4.847900 0.000000
-4.765600 0.000000
-4.683300 0.000000
-4.601100 0.000000
-4.518800 0.000000
-4.436500 0.000000
-4.354200 0.000000
-4.271900 0.000000
-4.189600 0.000000
-4.107300 0.000000
-4.025000 0.000000
-3.942800 0.000000
-3.860500 0.000000
-3.778200 0.000000
-3.695900 0.000000
-3.613600 0.000000
-3.531300 0.000000
-3.449000 0.000000
-3.366800 0.000000
-3.284500 0.000000
-3.202200 0.000000
-3.119900 0.000000
-3.037600 0.000000
-2.955300 0.000000
-2.873000 0.000000
-2.790800 0.000000
-2.708500 0.000000
-2.626200 0.000000
-2.543900 0.000000
-2.461600 0.000000
-2.379300 0.008300
-2.297000 0.018000
-2.214700 0.023800
-2.132500 0.028900
-2.050200 0.032700
-1.967900 0.037600
-1.885600 0.040800
-1.803300 0.044300
-1.721000 0.048100
-1.638700 0.051900
-1.556500 0.054900
-1.474200 0.058200
-1.391900 0.061900
-1.309600 0.065600
-1.227300 0.068700
-1.145000 0.072200
-1.062700 0.075800
-0.980400 0.079500
-0.898200 0.083600
-0.815900 0.087300
-0.733600 0.091200
-0.651300 0.095300
-0.569000 0.099800
-0.486700 0.104500
-0.404400 0.109100
-0.322200 0.114200
-0.239900 0.119700
-0.157600 0.125400
-0.075300 0.131400
0.007000 0.138300
0.089300 0.146100
0.171600 0.154400
0.253900 0.163300
0.336100 0.173400
0.418400 0.186300
0.500700 0.201800
0.583000 0.218600
0.665300 0.247200
0.747600 0.290000
0.829900 0.454100
0.912100 0.520200
0.994400 0.572300
1.076700 0.627200
1.159000 0.673700
1.241300 0.748400
1.323600 0.815900
1.405900 0.824800
1.488100 0.830700
1.570400 0.851300
1.652700 0.863000
1.735000 0.926300
1.817300 1.007600
1.899600 1.046500
1.981900 1.071100
2.064200 1.086400
2.146400 1.064700
2.228700 1.062700
2.311000 1.036300
2.393300 1.031200
2.475600 1.016600
2.557900 1.015800
2.640200 1.051900
2.722400 1.018300
2.804700 0.976100
2.887000 0.921200
2.969300 0.832800
3.051600 0.780700
3.133900 0.665800
3.216200 0.614100
3.298500 0.609100
3.380700 0.715800
3.463000 1.018600
3.545300 1.189800
3.627600 1.214300
3.709900 1.085100
3.792200 0.952300
3.874500 0.894800
3.956700 0.855700
4.039000 0.863100
4.121300 0.868200
4.203600 0.938400
4.285900 0.959300
4.368200 0.972200
4.450500 1.027600
4.532800 1.109700
4.615000 1.133400
4.697300 1.167700
4.779600 1.178800
4.861900 1.137300
4.944200 1.153000
5.026500 1.186300
5.108800 1.260100
5.191000 1.372800
5.273300 1.365100
5.355600 1.361600
5.437900 1.339500
5.520200 1.388800
5.602500 1.292000
5.684800 1.379700
5.767000 1.292200
5.849300 1.330900
5.931600 1.378100
6.013900 1.494200
6.096200 2.004500
6.178500 1.287400
6.260800 1.124600
6.343100 1.152300
6.425300 1.064300
6.507600 0.955900
6.589900 0.890600
6.672200 0.854100
6.754500 0.822400
6.836800 0.807000
6.919100 0.794100
7.001300 0.800600
7.083600 0.797300
7.165900 0.762200
7.248200 0.744100
7.330500 0.739100
7.412800 0.795200
7.495100 0.867000
7.577400 0.930400
7.659600 0.949500
7.741900 1.048500
7.824200 1.276800
7.906500 1.200700
7.988800 1.007400
8.071100 0.939400
8.153400 0.885600
8.235600 0.846200
8.317900 0.788700
8.400200 0.735500
8.482500 0.688600
8.564800 0.684900
8.647100 0.724700
8.729400 0.804200
8.811700 0.762700
8.893900 0.740000
8.976200 0.734600
9.058500 0.719200
9.140800 0.714300
9.223100 0.705000
9.305400 0.703600
9.387700 0.701300
9.469900 0.701600
9.552200 0.703900
9.634500 0.707600
9.716800 0.713100
9.799100 0.723000
9.881400 0.732100
9.963700 0.743300
10.046000 0.755800
10.128200 0.778700
10.210500 0.805600
10.292800 0.834700
10.375100 0.877900
10.457400 0.923000
10.539700 0.996500
10.622000 1.119600
10.704200 1.255600
10.786500 1.261500
10.868800 1.266300
10.951100 1.282400
11.033400 1.276400
11.115700 1.190000
11.198000 1.027500
11.280200 0.923300
11.362500 0.844000
11.444800 0.749200
11.527100 0.665200
11.609400 0.631100
11.691700 0.613200
11.774000 0.520200
11.856300 0.297300
11.938500 0.298400
12.020800 0.299300
12.103100 0.300400
12.185400 0.301800
12.267700 0.302600
12.350000 0.302700
12.432300 0.302700
12.514500 0.303200
12.596800 0.305200
12.679100 0.306000
12.761400 0.306900
12.843700 0.308200
12.926000 0.311100
13.008300 0.313600
13.090600 0.314800
13.172800 0.316300
13.255100 0.321300
13.337400 0.324100
13.419700 0.326300
13.502000 0.334200
13.584300 0.337100
13.666600 0.346600
13.748800 0.347300
13.831100 0.350800
13.913400 0.349000
13.995700 0.342700
14.078000 0.334900
14.160300 0.328800
14.242600 0.320900
14.324900 0.313600
14.407100 0.306800
14.489400 0.297700
14.571700 0.289200
14.654000 0.282300
14.736300 0.272800
14.818600 0.263600
14.900900 0.261400
14.983100 0.252500
15.065400 0.247300
15.147700 0.242600
15.230000 0.231900
15.312300 0.226000
15.394600 0.215400
15.476900 0.208200
15.559100 0.204800
15.641400 0.204700
15.723700 0.187800
15.806000 0.163800
15.888300 0.141000
15.970600 0.135200
16.052900 0.139400
16.135200 0.240300
16.217400 0.330800
16.299700 0.369300
16.382000 0.401700
16.464300 0.401200
16.546600 0.405000
16.628900 0.406300
16.711200 0.400500
16.793400 0.409200
16.875700 0.421300
16.958000 0.415500
17.040300 0.429200
17.122600 0.416000
17.204900 0.391100
17.287200 0.382700
17.369500 0.380600
17.451700 0.383000
17.534000 0.402800
17.616300 0.389300
17.698600 0.386000
17.780900 0.383600
17.863200 0.379300
17.945500 0.373700
18.027700 0.363800
18.110000 0.352600
18.192300 0.344600
18.274600 0.338500
18.356900 0.332900
18.439200 0.327600
18.521500 0.329000
18.603800 0.326500
18.686000 0.324800
18.768300 0.323700
18.850600 0.324200
18.932900 0.325100
19.015200 0.326000
19.097500 0.326900
19.179800 0.331900
19.262000 0.333000
19.344300 0.334400
19.426600 0.344100
19.508900 0.348800
19.591200 0.361100
19.673500 0.357300
19.755800 0.344500
19.838000 0.354000
19.920300 0.355900
20.002600 0.356100
20.084900 0.350900
20.167200 0.355600
20.249500 0.360300
20.331800 0.367300
20.414100 0.377900
20.496300 0.399800
20.578600 0.403400
20.660900 0.402500
20.743200 0.406400
20.825500 0.408400
20.907800 0.448300
20.990100 0.441800
21.072300 0.461400
21.154600 0.470500
21.236900 0.466700
21.319200 0.466400
21.401500 0.472700
21.483800 0.479300
21.566100 0.485600
21.648400 0.492600
21.730600 0.503600
21.812900 0.515700
21.895200 0.524100
21.977500 0.532600
22.059800 0.543400
22.142100 0.559500
22.224400 0.573700
22.306600 0.590600
22.388900 0.610500
22.471200 0.633300
22.553500 0.671400
22.635800 0.710200
22.718100 0.732300
22.800400 0.745900
22.882700 0.756300
22.964900 0.773200
23.047200 0.794500
23.129500 0.817100
23.211800 0.847900
23.294100 0.896600
23.376400 0.890400
23.458700 0.877700
23.540900 0.865500
23.623200 0.848100
23.705500 0.808600
23.787800 0.768300
23.870100 0.705800
23.952400 0.692000
24.034700 0.776400
24.117000 0.776400
24.199200 0.764600
24.281500 0.738000
24.363800 0.719100
24.446100 0.719800
24.528400 0.732900
24.610700 0.750300
24.693000 0.756300
24.775200 0.768200
24.857500 0.809800
24.939800 0.865800
25.022100 0.923400
25.104400 0.919800
25.186700 0.888500
25.269000 0.843100
25.351200 0.757900
25.433500 0.700500
25.515800 0.659600
25.598100 0.623400
25.680400 0.591300
25.762700 0.565300
25.845000 0.546700
25.927300 0.525100
26.009500 0.482100
26.091800 0.440500
26.174100 0.398400
26.256400 0.364000
26.338700 0.336400
26.421000 0.313200
26.503300 0.288200
26.585500 0.268700
26.667800 0.256700
26.750100 0.255000
26.832400 0.269900
26.914700 0.279500
26.997000 0.328200
27.079300 0.356400
27.161600 0.390300
27.243800 0.440000
27.326100 0.505900
27.408400 0.607400
27.490700 0.686700
27.573000 0.732400
27.655300 0.738400
27.737600 0.755300
27.819800 0.654900
27.902100 0.641900
27.984400 0.630000
28.066700 0.615000
28.149000 0.612800
28.231300 0.606500
28.313600 0.608300
28.395900 0.612700
28.478100 0.619000
28.560400 0.627800
28.642700 0.636500
28.725000 0.657300
28.807300 0.665300
28.889600 0.687800
28.971900 0.715000
29.054100 0.760300
29.136400 0.798200
29.218700 0.814500
29.301000 0.845600
29.383300 0.801800
29.465600 0.769900
29.547900 0.744700
29.630100 0.711700
29.712400 0.691500
29.794700 0.678300
29.877000 0.660100
29.959300 0.637000
30.041600 0.620100
30.123900 0.589800
30.206200 0.560100
30.288400 0.520200
30.370700 0.472200
30.453000 0.418300
30.535300 0.374600
30.617600 0.343500
30.699900 0.320000
30.782200 0.300300
30.864400 0.270300
30.946700 0.248900
31.029000 0.238400
31.111300 0.235800
31.193600 0.229100
31.275900 0.227000
31.358200 0.237000
31.440500 0.242200
31.522700 0.270300
31.605000 0.260800
31.687300 0.263400
31.769600 0.271600
31.851900 0.287500
31.934200 0.302900
32.016500 0.322200
32.098700 0.356900
32.181000 0.374100
32.263300 0.391800
32.345600 0.406900
32.427900 0.423700
32.510200 0.441100
32.592500 0.462700
32.674800 0.484600
32.757000 0.505500
32.839300 0.536700
32.921600 0.564800
33.003900 0.590900
33.086200 0.613000
33.168500 0.650900
33.250800 0.689800
33.333000 0.749500
33.415300 0.766800
33.497600 0.784600
33.579900 0.780100
33.662200 0.782600
33.744500 0.782800
33.826800 0.762700
33.909100 0.725400
33.991300 0.640800
34.073600 0.592900
34.155900 0.555700
34.238200 0.540000
34.320500 0.536100
34.402800 0.509600
34.485100 0.501500
34.567300 0.509200
34.649600 0.518900
34.731900 0.526200
34.814200 0.531500
34.896500 0.550500
34.978800 0.564000
35.061100 0.552300
35.143300 0.532400
35.225600 0.529100
35.307900 0.534200
35.390200 0.536500
35.472500 0.545200
35.554800 0.564400
35.637100 0.569000
35.719400 0.577500
35.801600 0.577700
35.883900 0.591900
35.966200 0.609000
36.048500 0.632700
36.130800 0.662900
36.213100 0.758100
36.295400 0.901800
36.377600 0.967700
36.459900 1.021900
36.542200 1.051700
36.624500 0.993400
36.706800 0.940800
36.789100 0.908700
36.871400 0.923900
36.953700 0.933300
37.035900 0.946000
37.118200 0.943500
37.200500 0.968600
37.282800 1.056700
37.365100 1.032000
37.447400 1.042500
37.529700 1.065600
37.611900 1.122000
37.694200 1.193000
37.776500 1.203600
37.858800 1.187900
37.941100 1.148300
38.023400 1.047900
38.105700 0.898300
38.188000 0.811700
38.270200 0.825100
38.352500 0.798300
38.434800 0.723300
38.517100 0.663400
38.599400 0.594500
38.681700 0.547600
38.764000 0.531300
38.846200 0.518400
38.928500 0.507200
39.010800 0.487700
39.093100 0.462200
39.175400 0.459400
39.257700 0.459600
39.340000 0.477400
39.422200 0.497400
39.504500 0.495400
39.586800 0.493100
39.669100 0.490300
39.751400 0.487600
39.833700 0.486000
39.916000 0.491900
39.998300 0.501300
40.080500 0.508700
40.162800 0.515100
40.245100 0.527400
40.327400 0.544700
40.409700 0.569400
40.492000 0.645400
40.574300 0.686800
40.656500 0.711400
40.738800 0.748500
40.821100 0.768600
40.903400 0.768600
40.985700 0.774100
41.068000 0.725600
41.150300 0.677600
41.232600 0.646200
41.314800 0.583300
41.397100 0.562200
41.479400 0.554400
41.561700 0.589600
41.644000 0.820800
41.726300 0.844800
41.808600 0.814400
41.890800 0.894600
41.973100 0.844400
42.055400 0.842900
42.137700 0.858800
42.220000 0.851700
42.302300 0.760200
42.384600 0.666900
42.466900 0.593100
42.549100 0.539700
42.631400 0.519300
42.713700 0.503500
42.796000 0.486900
42.878300 0.511300
42.960600 0.508800
43.042900 0.529300
43.125100 0.558800
43.207400 0.597900
43.289700 0.635000
43.372000 0.644200
43.454300 0.688500
43.536600 0.691200
43.618900 0.697600
43.701100 0.680700
43.783400 0.690600
43.865700 0.652100
43.948000 0.656200
44.030300 0.662500
44.112600 0.671600
44.194900 0.683500
44.277200 0.689300
44.359400 0.691100
44.441700 0.721600
44.524000 0.720700
44.606300 0.722800
44.688600 0.721200
44.770900 0.721900
44.853200 0.739500
44.935400 0.759600
45.017700 0.786900
45.100000 0.833500
45.182300 0.876600
45.264600 0.914200
45.346900 0.927500
45.429200 0.930200
45.511500 0.839800
45.593700 0.793700
45.676000 0.814700
45.758300 0.831700
45.840600 0.841500
45.922900 0.893800
46.005200 0.919000
46.087500 0.932900
46.169700 0.926200
46.252000 0.917300
46.334300 0.915200
46.416600 0.946100
46.498900 0.993000
46.581200 1.036300
46.663500 1.043800
46.745800 1.003400
46.828000 1.009700
46.910300 1.108700
46.992600 1.016500
47.074900 0.971700
47.157200 0.968400
47.239500 0.969300
47.321800 0.997700
47.404000 1.021800
47.486300 1.026900
47.568600 0.965300
47.650900 0.901700
47.733200 0.865300
47.815500 0.835500
47.897800 0.789600
47.980100 0.817300
48.062300 0.820800
48.144600 0.909600
48.226900 0.965600
48.309200 0.999700
48.391500 1.073900
48.473800 1.137600
48.556100 1.246400
48.638300 1.354400
48.720600 1.415600
48.802900 1.396700
48.885200 1.368400
48.967500 1.462100
49.049800 1.768000
49.132100 1.790200
49.214300 1.657200
49.296600 1.240900
49.378900 1.125700
49.461200 1.110900
49.543500 0.978100
49.625800 0.937100
49.708100 0.889000
49.790400 0.909100
49.872600 0.904500
49.954900 0.861500
50.037200 0.595500
50.119500 0.586200
50.201800 0.542400
50.284100 0.527400
50.366400 0.542500
50.448600 0.587500
50.530900 0.673100
50.613200 0.788400
50.695500 0.888700
50.777800 0.988300
50.860100 1.162900
50.942400 1.372400
51.024700 1.800300
51.106900 1.873300
51.189200 1.424600
51.271500 1.101200
51.353800 0.932400
51.436100 0.886700
51.518400 0.876700
51.600700 0.874600
51.682900 0.883800
51.765200 0.882100
51.847500 0.890000
51.929800 0.917500
52.012100 0.967200
52.094400 0.977400
52.176700 0.971600
52.259000 0.966400
52.341200 0.953100
52.423500 0.943900
52.505800 0.942900
52.588100 0.941600
52.670400 0.927800
52.752700 0.926300
52.835000 0.921900
52.917200 0.922400
52.999500 0.927200
53.081800 0.927900
53.164100 0.932100
53.246400 0.930400
53.328700 0.937200
53.411000 0.935400
53.493200 0.931800
53.575500 0.910000
53.657800 0.858900
53.740100 0.816500
53.822400 0.760300
53.904700 0.730900
53.987000 0.707300
54.069300 0.689100
54.151500 0.679100
54.233800 0.665000
54.316100 0.646800
54.398400 0.623200
54.480700 0.620300
54.563000 0.632200
54.645300 0.644200
54.727500 0.667700
54.809800 0.655100
54.892100 0.660000
54.974400 0.673300
55.056700 0.689200
55.139000 0.700800
55.221300 0.711400
55.303600 0.724300
55.385800 0.741500
55.468100 0.762800
55.550400 0.756400
55.632700 0.758200
55.715000 0.757100
55.797300 0.758100
55.879600 0.742900
55.961800 0.744500
56.044100 0.754600
56.126400 0.769000
56.208700 0.780200
56.291000 0.794700
56.373300 0.854600
56.455600 0.938300
56.537900 0.941600
56.620100 0.945200
56.702400 0.968500
56.784700 0.909700
56.867000 0.882300
56.949300 0.866700
57.031600 0.852900
57.113900 0.859000
57.196100 0.891400
57.278400 0.899000
57.360700 0.941500
57.443000 0.940100
57.525300 0.923400
57.607600 0.915200
57.689900 0.912700
57.772100 0.911900
57.854400 0.915700
57.936700 0.930800
58.019000 0.901200
58.101300 0.841800
58.183600 0.797000
58.265900 0.779700
58.348200 0.772100
58.430400 0.768900
58.512700 0.772400
58.595000 0.786800
58.677300 0.777900
58.759600 0.772900
58.841900 0.762600
58.924200 0.724500
59.006400 0.701900
59.088700 0.688500
59.171000 0.705200
59.253300 0.678000
59.335600 0.691900
59.417900 0.706300
59.500200 0.733200
59.582500 0.755700
59.664700 0.766900
59.747000 0.783300
59.829300 0.798500
59.911600 0.839200
59.993900 0.855900
60.076200 0.887300
60.158500 0.922000
60.240700 0.915900
60.323000 0.864900
60.405300 0.840000
60.487600 0.817800
60.569900 0.795300
60.652200 0.787100
60.734500 0.773900
60.816800 0.784300
60.899000 0.796300
60.981300 0.820800
61.063600 0.839400
61.145900 0.874000
61.228200 0.916700
61.310500 0.931900
61.392800 0.922100
61.475000 0.893900
61.557300 0.876600
61.639600 0.868700
61.721900 0.858400
61.804200 0.841000
61.886500 0.818200
61.968800 0.801600
62.051100 0.804900
62.133300 0.796300
62.215600 0.774000
62.297900 0.751900
62.380200 0.736800
62.462500 0.730800
62.544800 0.721300
62.627100 0.716200
62.709300 0.724300
62.791600 0.738700
62.873900 0.748300
62.956200 0.773100
63.038500 0.790200
63.120800 0.815100
63.203100 0.831800
63.285300 0.847800
63.367600 0.874300
63.449900 0.877300
63.532200 0.864000
63.614500 0.868200
63.696800 0.878800
63.779100 0.933300
63.861400 0.940600
63.943600 0.893000
64.025900 0.854300
64.108200 0.825600
64.190500 0.820900
64.272800 0.839900
64.355100 0.836800
64.437400 0.837100
64.519600 0.845800
64.601900 0.841900
64.684200 0.835600
64.766500 0.828000
64.848800 0.821500
64.931100 0.808700
65.013400 0.799700
65.095700 0.803300
65.177900 0.823300
65.260200 0.833000
65.342500 0.851100
65.424800 0.864800
65.507100 0.872200
65.589400 0.878900
65.671700 0.885300
65.753900 0.880700
65.836200 0.882600
65.918500 0.878100
66.000800 0.902000
66.083100 0.907200
66.165400 0.909100
66.247700 0.915400
66.330000 0.928900
66.412200 0.925100
66.494500 0.919100
66.576800 0.920500
66.659100 0.911000
66.741400 0.902500
66.823700 0.884900
66.906000 0.884100
66.988200 0.920200
67.070500 0.904700
67.152800 0.869400
67.235100 0.843200
67.317400 0.823200
67.399700 0.842800
67.482000 0.844500
67.564200 0.866900
67.646500 0.890300
67.728800 0.900800
67.811100 0.907700
67.893400 0.913100
67.975700 0.897200
68.058000 0.875000
68.140300 0.835400
68.222500 0.810600
68.304800 0.793400
68.387100 0.785600
68.469400 0.786000
68.551700 0.799500
68.634000 0.815200
68.716300 0.824100
68.798500 0.834800
68.880800 0.846100
68.963100 0.854600
69.045400 0.879700
69.127700 0.930700
69.210000 0.954900
69.292300 0.959200
69.374600 0.973700
69.456800 0.966000
69.539100 0.934400
69.621400 0.905300
69.703700 0.882800
69.786000 0.861400
69.868300 0.841700
69.950600 0.835000
70.032800 0.832700
70.115100 0.831400
70.197400 0.830400
70.279700 0.819800
70.362000 0.823500
70.444300 0.839800
70.526600 0.865400
70.608900 0.870500
70.691100 0.920400
70.773400 0.967900
70.855700 0.963500
70.938000 0.963200
71.020300 0.990000
71.102600 0.976300
71.184900 0.965600
71.267100 0.966400
71.349400 1.000200
71.431700 0.970700
71.514000 0.956200
71.596300 0.953000
71.678600 0.957100
71.760900 0.971100
71.843100 0.975700
71.925400 0.978100
72.007700 0.987400
72.090000 1.015700
72.172300 1.009200
72.254600 1.018400
72.336900 1.031100
72.419200 1.058700
72.501400 1.033800
72.583700 1.026100
72.666000 1.000200
72.748300 0.974700
72.830600 0.958700
72.912900 0.943100
72.995200 0.923500
73.077400 0.922700
73.159700 0.899600
73.242000 0.872600
73.324300 0.839200
73.406600 0.854800
73.488900 0.869400
73.571200 0.883100
73.653500 0.824800
73.735700 0.769500
73.818000 0.743700
73.900300 0.709300
73.982600 0.677600
74.064900 0.669200
74.147200 0.672800
74.229500 0.692700
74.311700 0.728400
74.394000 0.736900
74.476300 0.749900
74.558600 0.758500
74.640900 0.769500
74.723200 0.777000
74.805500 0.786000
74.887800 0.810100
74.970000 0.827500
75.052300 0.866200
75.134600 0.885700
75.216900 0.916100
75.299200 0.961100
75.381500 0.949800
75.463800 0.962400
75.546000 0.983700
75.628300 1.001100
75.710600 0.943400
75.792900 0.912100
75.875200 0.868800
75.957500 0.832600
76.039800 0.816600
76.122100 0.816700
76.204300 0.817200
76.286600 0.839400
76.368900 0.855500
76.451200 0.868600
76.533500 0.877700
76.615800 0.881800
76.698100 0.862800
76.780300 0.849400
76.862600 0.840200
76.944900 0.810200
77.027200 0.819700
77.109500 0.824500
77.191800 0.821100
77.274100 0.815000
77.356300 0.840400
77.438600 0.867200
77.520900 0.861300
77.603200 0.881900
77.685500 0.893300
77.767800 0.901400
77.850100 0.932400
77.932400 0.931900
78.014600 0.955600
78.096900 0.946500
78.179200 0.965600
78.261500 0.939900
78.343800 0.921500
78.426100 0.900700
78.508400 0.896400
78.590600 0.894200
78.672900 0.896800
78.755200 0.908900
78.837500 0.899400
78.919800 0.884800
79.002100 0.879500
79.084400 0.907700
79.166700 0.930100
79.248900 0.943400
79.331200 0.949100
79.413500 0.952700
79.495800 0.965800
79.578100 0.956700
79.660400 0.977200
79.742700 0.987500
79.824900 1.003100
79.907200 1.026000
79.989500 1.024300
80.071800 0.989300
80.154100 0.968400
80.236400 0.989600
80.318700 0.996700
80.401000 1.008100
80.483200 1.023000
80.565500 1.058600
80.647800 1.105000
80.730100 1.106600
80.812400 1.100700
80.894700 1.094500
80.977000 1.085800
81.059200 1.070000
81.141500 1.057200
81.223800 1.028600
81.306100 0.992100
81.388400 0.960300
81.470700 0.961700
81.553000 0.958300
81.635200 0.981800
81.717500 0.975000
81.799800 0.967600
81.882100 0.976900
81.964400 0.991400
82.046700 1.003900
82.129000 0.998200
82.211300 0.986100
82.293500 0.970300
82.375800 0.952400
82.458100 0.947700
82.540400 0.954700
82.622700 0.947600
82.705000 0.925000
82.787300 0.916200
82.869500 0.918800
82.951800 0.928100
83.034100 0.934400
83.116400 0.926400
83.198700 0.927200
83.281000 0.940700
83.363300 0.954100
83.445600 0.958000
83.527800 0.990800
83.610100 0.984200
83.692400 0.973000
83.774700 0.954900
83.857000 0.951000
83.939300 0.945000
84.021600 0.945400
84.103800 0.938200
84.186100 0.940800
84.268400 0.946300
84.350700 0.939400
84.433000 0.937500
84.515300 0.942400
84.597600 0.925600
84.679900 0.914800
84.762100 0.878000
84.844400 0.849500
84.926700 0.857800
85.009000 0.859500
85.091300 0.875300
85.173600 0.894000
85.255900 0.915000
85.338100 0.922500
85.420400 0.945000
85.502700 0.955700
85.585000 0.979400
85.667300 0.992600
85.749600 1.022300
85.831900 1.042700
85.914100 1.019800
85.996400 1.037400
86.078700 1.053900
86.161000 1.032900
86.243300 1.002400
86.325600 0.986800
86.407900 0.944600
86.490200 0.915500
86.572400 0.885900
86.654700 0.875300
86.737000 0.861900
86.819300 0.860500
86.901600 0.851000
86.983900 0.844300
87.066200 0.848700
87.148400 0.907900
87.230700 0.906400
87.313000 0.928800
87.395300 0.937900
87.477600 0.979600
87.559900 0.954100
87.642200 0.949100
87.724500 0.961700
87.806700 0.992800
87.889000 1.043900
87.971300 1.070300
88.053600 1.045700
88.135900 1.017800
88.218200 0.994500
88.300500 0.992500
88.382700 0.991400
88.465000 0.996600
88.547300 1.019000
88.629600 1.036800
88.711900 1.021800
88.794200 1.011100
88.876500 1.021100
88.958800 1.037200
89.041000 1.013700
89.123300 0.995800
89.205600 0.967400
89.287900 0.952100
89.370200 0.939000
89.452500 0.924700
89.534800 0.931300
89.617000 0.939200
89.699300 0.896100
89.781600 0.888300
89.863900 0.898000
89.946200 0.930000
90.028500 0.944900
90.110800 0.962700
90.193100 0.985300
90.275300 0.999500
90.357600 1.034500
90.439900 1.081700
90.522200 1.064500
90.604500 1.056000
90.686800 1.041600
90.769100 1.051300
90.851300 1.088300
90.933600 1.108100
91.015900 1.072500
91.098200 1.046900
91.180500 0.998100
91.262800 0.970200
91.345100 0.925800
91.427300 0.896600
91.509600 0.880200
91.591900 0.875500
91.674200 0.874700
91.756500 0.876900
91.838800 0.875500
91.921100 0.890000
92.003400 0.924900
92.085600 0.958100
92.167900 0.996200
92.250200 1.018200
92.332500 1.019000
92.414800 0.996700
92.497100 0.979700
92.579400 0.966200
92.661600 0.967800
92.743900 0.978700
92.826200 0.978300
92.908500 0.966500
92.990800 0.955600
93.073100 0.962000
93.155400 0.969900
93.237700 0.979900
93.319900 0.990800
93.402200 0.988200
93.484500 1.004000
93.566800 1.009400
93.649100 1.021700
93.731400 1.024300
93.813700 1.035700
93.895900 1.036000
93.978200 1.013900
94.060500 1.007000
94.142800 1.013800
94.225100 0.995400
94.307400 1.007100
94.389700 1.063100
94.472000 1.058200
94.554200 1.041900
94.636500 1.045500
94.718800 1.042100
94.801100 1.022900
94.883400 1.008200
94.965700 0.996400
95.048000 0.999400
95.130200 0.994200
95.212500 1.009100
95.294800 0.999600
95.377100 0.999700
95.459400 0.998200
95.541700 1.003400
95.624000 0.987600
95.706200 0.988300
95.788500 1.008600
95.870800 1.024200
95.953100 1.030800
96.035400 1.035600
96.117700 1.046300
96.200000 1.066800
96.282300 1.086400
96.364500 1.096300
96.446800 1.087100
96.529100 1.081800
96.611400 1.081000
96.693700 1.073600
96.776000 1.069100
96.858300 1.040700
96.940500 1.027700
97.022800 1.024000
97.105100 1.007600
97.187400 1.016500
97.269700 1.017000
97.352000 1.015100
97.434300 1.021700
97.516600 1.043400
97.598800 1.010600
97.681100 1.013900
97.763400 1.021000
97.845700 1.041900
97.928000 1.081800
98.010300 1.099200
98.092600 1.099800
98.174800 1.077500
98.257100 1.069100
98.339400 1.052000
98.421700 1.049700
98.504000 1.047900
98.586300 1.035500
98.668600 1.016200
98.750900 1.008200
98.833100 1.018300
98.915400 1.012500
98.997700 1.005200
99.080000 0.999700
99.162300 0.995000
99.244600 0.978000
99.326900 0.973200
99.409100 0.977000
99.491400 0.994300
99.573700 1.008200
99.656000 1.059100
99.738300 1.019600
99.820600 1.007800
99.902900 0.997000
99.985100 0.976500
100.067400 0.968100
100.149700 0.973600
100.232000 1.009000
100.314300 1.017900
100.396600 1.024000
100.478900 1.029300
100.561200 1.023400
100.643400 1.003400
100.725700 0.981700
100.808000 0.976300
100.890300 0.987900
100.972600 0.998300
101.054900 1.010900
101.137200 1.027000
101.219400 1.031200
101.301700 1.042700
101.384000 1.051400
101.466300 1.050400
101.548600 1.035000
101.630900 1.022800
101.713200 1.009200
101.795500 1.004700
101.877700 1.021000
101.960000 1.033000
102.042300 1.043600
102.124600 1.045000
102.206900 1.052800
102.289200 1.035600
102.371500 0.999800
102.453700 0.975100
102.536000 0.956800
102.618300 0.935200
102.700600 0.922000
102.782900 0.917200
102.865200 0.914800
102.947500 0.912300
103.029800 0.911300
103.112000 0.919600
103.194300 0.934100
103.276600 0.973100
103.358900 0.953400
103.441200 0.934800
103.523500 0.924800
103.605800 0.921900
103.688000 0.922200
103.770300 0.930300
103.852600 0.933100
103.934900 0.927700
104.017200 0.917500
104.099500 0.913200
104.181800 0.921400
104.264100 0.937400
104.346300 0.949100
104.428600 0.966700
104.510900 0.978600
104.593200 0.983500
104.675500 0.983500
104.757800 0.992500
104.840100 0.994400
104.922300 0.977200
105.004600 0.979700
105.086900 0.966100
105.169200 0.960500
105.251500 0.973400
105.333800 0.961800
105.416100 0.960800
105.498300 0.972200
105.580600 0.968000
105.662900 0.945800
105.745200 0.937800
105.827500 0.934700
105.909800 0.931700
105.992100 0.920200
106.074400 0.901300
106.156600 0.883300
106.238900 0.874500
106.321200 0.878900
106.403500 0.887100
106.485800 0.870500
106.568100 0.847600
106.650400 0.844400
106.732600 0.845200
106.814900 0.859100
106.897200 0.868100
106.979500 0.877600
107.061800 0.887900
107.144100 0.933800
107.226400 0.962200
107.308700 0.971600
107.390900 1.009000
107.473200 1.024200
107.555500 1.044700
107.637800 1.046000
107.720100 1.028100
107.802400 0.988400
107.884700 0.962100
107.966900 0.943800
108.049200 0.965100
108.131500 0.918200
108.213800 0.898200
108.296100 0.869100
108.378400 0.842100
108.460700 0.839600
108.543000 0.843200
108.625200 0.852200
108.707500 0.865200
108.789800 0.884100
108.872100 0.892400
108.954400 0.893900
109.036700 0.890900
109.119000 0.883400
109.201200 0.867800
109.283500 0.868000
109.365800 0.867100
109.448100 0.846900
109.530400 0.828700
109.612700 0.806100
109.695000 0.768800
109.777200 0.744800
109.859500 0.707700
109.941800 0.668600
110.024100 0.630300
110.106400 0.594300
110.188700 0.563300
110.271000 0.540500
110.353300 0.522500
110.435500 0.503100
110.517800 0.487000
110.600100 0.457200
110.682400 0.440000
110.764700 0.433300
110.847000 0.431800
110.929300 0.418000
111.011500 0.403700
111.093800 0.390400
111.176100 0.365300
111.258400 0.344300
111.340700 0.337700
111.423000 0.294600
111.505300 0.268700
111.587600 0.243200
111.669800 0.220200
111.752100 0.203600
111.834400 0.187800
111.916700 0.180900
111.999000 0.156800
112.081300 0.134200
112.163600 0.111800
112.245800 0.090500
112.328100 0.072800
112.410400 0.065200
112.492700 0.057700
112.575000 0.053200
112.657300 0.047600
112.739600 0.043800
112.821900 0.041300
112.904100 0.039400
112.986400 0.037900
113.068700 0.037400
113.151000 0.038600
113.233300 0.038800
113.315600 0.037100
113.397900 0.035600
113.480100 0.033500
113.562400 0.030900
113.644700 0.028100
113.727000 0.024100
113.809300 0.021600
113.891600 0.018900
113.973900 0.015500
114.056100 0.014000
114.138400 0.012700
114.220700 0.011700
114.303000 0.010000
114.385300 0.004000
114.467600 0.003000
114.549900 0.002100
114.632200 0.001200
114.714400 0.000000
114.796700 0.000000
114.879000 0.000000
114.961300 0.000000
115.043600 0.000000
115.125900 0.000000
115.208200 0.000000
115.290400 0.000000
115.372700 0.000000
115.455000 0.000000
115.537300 0.000000
115.619600 0.000000
115.701900 0.000000
115.784200 0.000000
115.866500 0.000000
115.948700 0.000000
116.031000 0.000000
116.113300 0.000000
116.195600 0.000000
116.277900 0.000000
116.360200 0.000000
116.442500 0.000000
116.524700 0.000000
116.607000 0.000000
116.689300 0.000000
116.771600 0.000000
116.853900 0.000000
116.936200 0.000000
117.018500 0.000000
117.100800 0.000000
117.183000 0.000000
117.265300 0.000000
117.347600 0.000000
117.429900 0.000000
117.512200 0.000000
117.594500 0.000000
117.676800 0.000000
117.759000 0.000000
117.841300 0.000000
117.923600 0.000000
118.005900 0.000000
118.088200 0.000000
118.170500 0.000000
118.252800 0.000000
118.335100 0.000000
118.417300 0.000000
118.499600 0.000000
118.581900 0.000000
118.664200 0.000000
118.746500 0.000000
118.828800 0.000000
118.911100 0.000000
118.993300 0.000000
119.075600 0.000000
119.157900 0.000000
119.240200 0.000000
119.322500 0.000000
119.404800 0.000000
119.487100 0.000000
119.569300 0.000000
119.651600 0.000000
119.733900 0.000000
119.816200 0.000000
119.898500 0.000000
119.980800 0.000000
120.063100 0.000000
120.145400 0.000000
120.227600 0.000000
120.309900 0.000000
120.392200 0.000000
120.474500 0.000000
120.556800 0.000000
120.639100 0.000000
120.721400 0.000000
120.803600 0.000000
120.885900 0.000000
120.968200 0.000000
121.050500 0.000000
121.132800 0.000000
121.215100 0.000000
121.297400 0.000000
121.379700 0.000000
121.461900 0.000000
121.544200 0.000000
121.626500 0.000000
121.708800 0.000000
121.791100 0.000000
121.873400 0.000000
121.955700 0.000000
122.037900 0.000000
122.120200 0.000000
e
