set title 'mp-1018018 - Density of States'
set xlabel 'Energy (eV)'
set ylabel 'DOS (states/eV)'
set grid
set xrange [-10:10]
set yrange [0:18.684]
set xzeroaxis lt -1
set terminal png size 800,600
set output 'mp-1018018_dos_gnuplot.png'
plot '-' using 1:2 with lines title 'DOS'
-13.767100 0.000000
-13.740000 0.000000
-13.713000 0.000000
-13.685900 0.000000
-13.658900 0.000000
-13.631800 0.000000
-13.604700 0.000000
-13.577700 0.000000
-13.550600 0.000000
-13.523500 0.000000
-13.496500 0.000000
-13.469400 0.000000
-13.442300 0.000000
-13.415300 0.000000
-13.388200 0.000000
-13.361100 0.000000
-13.334100 0.000000
-13.307000 0.000000
-13.279900 0.000000
-13.252900 0.000000
-13.225800 0.000000
-13.198700 0.000000
-13.171700 0.000000
-13.144600 0.000000
-13.117500 0.000000
-13.090500 0.000000
-13.063400 0.000000
-13.036300 0.000000
-13.009300 0.000000
-12.982200 0.000000
-12.955100 0.000000
-12.928100 0.000000
-12.901000 0.000000
-12.873900 0.000000
-12.846900 0.000000
-12.819800 0.000000
-12.792700 0.000000
-12.765700 0.000000
-12.738600 0.000000
-12.711500 0.000000
-12.684500 0.000000
-12.657400 0.000000
-12.630400 0.000000
-12.603300 0.000000
-12.576200 0.000000
-12.549200 0.000000
-12.522100 0.000000
-12.495000 0.000000
-12.468000 0.000000
-12.440900 0.000000
-12.413800 0.000000
-12.386800 0.000000
-12.359700 0.000000
-12.332600 0.000000
-12.305600 0.000000
-12.278500 0.000000
-12.251400 0.000000
-12.224400 0.000000
-12.197300 0.000000
-12.170200 0.000000
-12.143200 0.000000
-12.116100 0.000000
-12.089000 0.000000
-12.062000 0.000000
-12.034900 0.000000
-12.007800 0.000000
-11.980800 0.000000
-11.953700 0.000000
-11.926600 0.000000
-11.899600 0.000000
-11.872500 0.000000
-11.845400 0.000000
-11.818400 0.000000
-11.791300 0.000000
-11.764200 0.000000
-11.737200 0.000000
-11.710100 0.000000
-11.683000 0.000000
-11.656000 0.000000
-11.628900 0.000000
-11.601900 0.000000
-11.574800 0.000000
-11.547700 0.000000
-11.520700 0.000000
-11.493600 0.000000
-11.466500 0.000000
-11.439500 0.000000
-11.412400 0.000000
-11.385300 0.000000
-11.358300 0.000000
-11.331200 0.000000
-11.304100 0.002200
-11.277100 0.280000
-11.250000 0.386000
-11.222900 0.543700
-11.195900 0.643100
-11.168800 0.751400
-11.141700 0.868600
-11.114700 0.986200
-11.087600 1.100600
-11.060500 1.219700
-11.033500 1.359000
-11.006400 1.506300
-10.979300 1.660000
-10.952300 1.837600
-10.925200 2.025900
-10.898100 2.238500
-10.871100 2.494600
-10.844000 2.790800
-10.816900 3.102600
-10.789900 3.489800
-10.762800 4.038000
-10.735700 4.654300
-10.708700 5.671900
-10.681600 6.614600
-10.654500 7.669400
-10.627500 10.110000
-10.600400 10.663000
-10.573300 11.259600
-10.546300 12.113100
-10.519200 13.300000
-10.492200 14.788600
-10.465100 21.225300
-10.438000 0.000000
-10.411000 0.000000
-10.383900 0.000000
-10.356800 0.000000
-10.329800 0.000000
-10.302700 0.000000
-10.275600 0.000000
-10.248600 0.000000
-10.221500 0.000000
-10.194400 0.000000
-10.167400 0.000000
-10.140300 0.000000
-10.113200 0.000000
-10.086200 0.000000
-10.059100 0.000000
-10.032000 0.000000
-10.005000 0.000000
-9.977900 0.000000
-9.950800 0.000000
-9.923800 0.000000
-9.896700 0.000000
-9.869600 0.000000
-9.842600 0.000000
-9.815500 0.000000
-9.788400 0.000000
-9.761400 0.000000
-9.734300 0.000000
-9.707200 0.000000
-9.680200 0.000000
-9.653100 0.000000
-9.626000 0.000000
-9.599000 0.000000
-9.571900 0.000000
-9.544800 0.000000
-9.517800 0.000000
-9.490700 0.000000
-9.463700 0.000000
-9.436600 0.000000
-9.409500 0.000000
-9.382500 0.000000
-9.355400 0.000000
-9.328300 0.000000
-9.301300 0.000000
-9.274200 0.000000
-9.247100 0.000000
-9.220100 0.000000
-9.193000 0.000000
-9.165900 0.000000
-9.138900 0.000000
-9.111800 0.000000
-9.084700 0.000000
-9.057700 0.000000
-9.030600 0.000000
-9.003500 0.000000
-8.976500 0.000000
-8.949400 0.000000
-8.922300 0.000000
-8.895300 0.000000
-8.868200 0.000000
-8.841100 0.000000
-8.814100 0.000000
-8.787000 0.000000
-8.759900 0.000000
-8.732900 0.000000
-8.705800 0.000000
-8.678700 0.000000
-8.651700 0.000000
-8.624600 0.000000
-8.597500 0.000000
-8.570500 0.000000
-8.543400 0.000000
-8.516300 0.000000
-8.489300 0.000000
-8.462200 0.000000
-8.435200 0.000000
-8.408100 0.000000
-8.381000 0.000000
-8.354000 0.000000
-8.326900 0.000000
-8.299800 0.000000
-8.272800 0.000000
-8.245700 0.000000
-8.218600 0.000000
-8.191600 0.000000
-8.164500 0.000000
-8.137400 0.000000
-8.110400 0.000000
-8.083300 0.000000
-8.056200 0.000000
-8.029200 0.000000
-8.002100 0.000000
-7.975000 0.000000
-7.948000 0.000000
-7.920900 0.000000
-7.893800 0.000000
-7.866800 0.000000
-7.839700 0.000000
-7.812600 0.000000
-7.785600 0.000000
-7.758500 0.000000
-7.731400 0.000000
-7.704400 0.000000
-7.677300 0.000000
-7.650200 0.000000
-7.623200 0.000000
-7.596100 0.000000
-7.569000 0.000000
-7.542000 0.000000
-7.514900 0.000000
-7.487800 0.000000
-7.460800 0.000000
-7.433700 0.000000
-7.406700 0.000000
-7.379600 0.000000
-7.352500 0.000000
-7.325500 0.000000
-7.298400 0.000000
-7.271300 0.000000
-7.244300 0.000000
-7.217200 0.000000
-7.190100 0.000000
-7.163100 0.000000
-7.136000 0.000000
-7.108900 0.000000
-7.081900 0.000000
-7.054800 0.000000
-7.027700 0.000000
-7.000700 0.000000
-6.973600 0.000000
-6.946500 0.000000
-6.919500 0.000000
-6.892400 0.000000
-6.865300 0.000000
-6.838300 0.000000
-6.811200 0.000000
-6.784100 0.000000
-6.757100 0.000000
-6.730000 0.000000
-6.702900 0.000000
-6.675900 0.000000
-6.648800 0.000000
-6.621700 0.000000
-6.594700 0.000000
-6.567600 0.000000
-6.540500 0.000000
-6.513500 0.000000
-6.486400 0.000000
-6.459300 0.000000
-6.432300 0.000000
-6.405200 0.000000
-6.378200 0.000000
-6.351100 0.000000
-6.324000 0.000000
-6.297000 0.000000
-6.269900 0.000000
-6.242800 0.000000
-6.215800 0.000000
-6.188700 0.000000
-6.161600 0.000000
-6.134600 0.000000
-6.107500 0.000000
-6.080400 0.000000
-6.053400 0.000000
-6.026300 0.000000
-5.999200 0.000000
-5.972200 0.000000
-5.945100 0.000000
-5.918000 0.000000
-5.891000 0.000000
-5.863900 0.000000
-5.836800 0.000000
-5.809800 0.000000
-5.782700 0.000000
-5.755600 0.000000
-5.728600 0.000000
-5.701500 0.000000
-5.674400 0.000000
-5.647400 0.000000
-5.620300 0.000000
-5.593200 0.000000
-5.566200 0.000000
-5.539100 0.000000
-5.512000 0.000000
-5.485000 0.000000
-5.457900 0.000000
-5.430800 0.000000
-5.403800 0.000000
-5.376700 0.000000
-5.349700 0.000000
-5.322600 0.000000
-5.295500 0.000000
-5.268500 0.000000
-5.241400 0.000000
-5.214300 0.000000
-5.187300 0.000000
-5.160200 0.000000
-5.133100 0.000000
-5.106100 0.000000
-5.079000 0.000000
-5.051900 0.000000
-5.024900 0.000000
-4.997800 0.000000
-4.970700 0.000000
-4.943700 0.000000
-4.916600 0.000000
-4.889500 0.000000
-4.862500 0.000000
-4.835400 0.000000
-4.808300 0.000000
-4.781300 0.000000
-4.754200 0.000000
-4.727100 0.000000
-4.700100 0.000000
-4.673000 0.000000
-4.645900 0.000000
-4.618900 0.000000
-4.591800 0.000000
-4.564700 0.000000
-4.537700 0.000000
-4.510600 0.000000
-4.483500 0.000000
-4.456500 0.000000
-4.429400 0.000000
-4.402300 0.000000
-4.375300 0.000000
-4.348200 0.000000
-4.321200 0.000000
-4.294100 0.000000
-4.267000 0.000000
-4.240000 0.000000
-4.212900 0.000000
-4.185800 0.000000
-4.158800 0.000000
-4.131700 0.000000
-4.104600 0.000000
-4.077600 0.000000
-4.050500 0.000000
-4.023400 0.000000
-3.996400 0.000000
-3.969300 0.000000
-3.942200 0.000000
-3.915200 0.000000
-3.888100 0.000000
-3.861000 0.000000
-3.834000 0.000000
-3.806900 0.000000
-3.779800 0.000000
-3.752800 0.000000
-3.725700 0.000000
-3.698600 0.000000
-3.671600 0.000000
-3.644500 0.000000
-3.617400 0.000000
-3.590400 0.000000
-3.563300 0.000000
-3.536200 0.000000
-3.509200 0.000000
-3.482100 0.000000
-3.455000 0.000000
-3.428000 0.000000
-3.400900 0.000000
-3.373800 0.000000
-3.346800 0.000000
-3.319700 0.000000
-3.292600 0.000000
-3.265600 0.000000
-3.238500 0.000000
-3.211500 0.000000
-3.184400 0.000000
-3.157300 0.000000
-3.130300 0.000000
-3.103200 0.000000
-3.076100 0.000000
-3.049100 0.000000
-3.022000 0.000000
-2.994900 0.000000
-2.967900 0.000000
-2.940800 0.000000
-2.913700 0.000000
-2.886700 0.000000
-2.859600 0.000000
-2.832500 0.000000
-2.805500 0.000000
-2.778400 0.000000
-2.751300 0.000000
-2.724300 0.000000
-2.697200 0.500300
-2.670100 1.358000
-2.643100 2.687100
-2.616000 13.179600
-2.588900 16.985500
-2.561900 12.392700
-2.534800 9.876600
-2.507700 7.778900
-2.480700 7.179400
-2.453600 6.605300
-2.426500 6.278100
-2.399500 8.365500
-2.372400 10.817500
-2.345300 9.690900
-2.318300 5.004300
-2.291200 3.780400
-2.264100 4.522800
-2.237100 4.616400
-2.210000 4.460300
-2.183000 4.371100
-2.155900 4.372600
-2.128800 4.558400
-2.101800 4.758500
-2.074700 5.047300
-2.047600 5.240900
-2.020600 5.563900
-1.993500 7.153400
-1.966400 8.208200
-1.939400 7.345000
-1.912300 7.146600
-1.885200 7.096600
-1.858200 7.449000
-1.831100 7.722700
-1.804000 7.646800
-1.777000 7.516200
-1.749900 7.185300
-1.722800 6.912100
-1.695800 6.711000
-1.668700 6.360000
-1.641600 6.107300
-1.614600 5.928600
-1.587500 5.714700
-1.560400 5.658800
-1.533400 5.672200
-1.506300 5.751300
-1.479200 5.760200
-1.452200 5.841100
-1.425100 6.135400
-1.398000 6.558000
-1.371000 7.594400
-1.343900 7.262600
-1.316800 6.212400
-1.289800 6.040900
-1.262700 6.197000
-1.235600 5.812700
-1.208600 5.349600
-1.181500 5.285300
-1.154500 4.734100
-1.127400 4.584100
-1.100300 4.577400
-1.073300 4.547500
-1.046200 4.574500
-1.019100 4.679900
-0.992100 4.445500
-0.965000 4.250400
-0.937900 3.810400
-0.910900 3.655200
-0.883800 3.575700
-0.856700 3.171900
-0.829700 2.596000
-0.802600 2.377200
-0.775500 2.240200
-0.748500 2.161700
-0.721400 1.574000
-0.694300 1.424100
-0.667300 1.271400
-0.640200 1.094300
-0.613100 0.921800
-0.586100 0.853800
-0.559000 0.819500
-0.531900 0.648300
-0.504900 0.492000
-0.477800 0.390100
-0.450700 0.000000
-0.423700 0.000000
-0.396600 0.000000
-0.369500 0.000000
-0.342500 0.000000
-0.315400 0.128300
-0.288300 0.832800
-0.261300 1.260300
-0.234200 2.307500
-0.207100 2.777700
-0.180100 2.766400
-0.153000 2.964800
-0.126000 3.117200
-0.098900 3.268400
-0.071800 3.522800
-0.044800 3.690300
-0.017700 4.006300
0.009400 4.267500
0.036400 4.121600
0.063500 4.078100
0.090600 4.175600
0.117600 4.690400
0.144700 7.159500
0.171800 6.330800
0.198800 6.472500
0.225900 6.355500
0.253000 6.346100
0.280000 6.363800
0.307100 8.735200
0.334200 6.585400
0.361200 5.646400
0.388300 4.985100
0.415400 6.392100
0.442400 7.275500
0.469500 7.878600
0.496600 6.800700
0.523600 6.019000
0.550700 5.867000
0.577800 6.262200
0.604800 6.938800
0.631900 9.735200
0.659000 7.786500
0.686000 6.777700
0.713100 6.412700
0.740200 6.942500
0.767200 5.470700
0.794300 4.820000
0.821400 4.738800
0.848400 4.929200
0.875500 4.890700
0.902500 4.453900
0.929600 4.074300
0.956700 4.155000
0.983700 4.550600
1.010800 5.260000
1.037900 3.463400
1.064900 3.269700
1.092000 2.979600
1.119100 2.917800
1.146100 2.909100
1.173200 2.936100
1.200300 3.037300
1.227300 3.501400
1.254400 4.427200
1.281500 4.755500
1.308500 3.810500
1.335600 2.780800
1.362700 1.563400
1.389700 1.034100
1.416800 0.679500
1.443900 0.741400
1.470900 0.809100
1.498000 0.738800
1.525100 0.738500
1.552100 0.802200
1.579200 1.029900
1.606300 1.314200
1.633300 2.238800
1.660400 2.997500
1.687500 3.394600
1.714500 3.583700
1.741600 3.918100
1.768700 3.572300
1.795700 3.470400
1.822800 3.405200
1.849900 3.064500
1.876900 2.701900
1.904000 2.603400
1.931000 2.623100
1.958100 2.670100
1.985200 2.676400
2.012200 2.402400
2.039300 2.202600
2.066400 2.119200
2.093400 1.993900
2.120500 1.906700
2.147600 1.899300
2.174600 1.905600
2.201700 2.080600
2.228800 2.241200
2.255800 2.453200
2.282900 2.760700
2.310000 2.988600
2.337000 2.807300
2.364100 2.575200
2.391200 1.777000
2.418200 1.702700
2.445300 1.629600
2.472400 1.583600
2.499400 1.707000
2.526500 1.896800
2.553600 1.929800
2.580600 1.979000
2.607700 2.084900
2.634800 2.191500
2.661800 2.244000
2.688900 2.151800
2.716000 2.148400
2.743000 2.128100
2.770100 2.088500
2.797200 1.985700
2.824200 1.833000
2.851300 1.760800
2.878400 1.740800
2.905400 1.720500
2.932500 1.671300
2.959500 1.656300
2.986600 1.646100
3.013700 1.640500
3.040700 1.638800
3.067800 1.640200
3.094900 1.643600
3.121900 1.649200
3.149000 1.651700
3.176100 1.657100
3.203100 1.680400
3.230200 1.799200
3.257300 1.971800
3.284300 2.091000
3.311400 2.159800
3.338500 2.255200
3.365500 2.328200
3.392600 2.396400
3.419700 2.471300
3.446700 2.605300
3.473800 2.791000
3.500900 3.100200
3.527900 3.457300
3.555000 3.553700
3.582100 3.419800
3.609100 3.245400
3.636200 3.272400
3.663300 3.355500
3.690300 3.399500
3.717400 3.326300
3.744500 3.188000
3.771500 3.055600
3.798600 2.850300
3.825700 2.714100
3.852700 2.632700
3.879800 2.585400
3.906900 2.532000
3.933900 2.527400
3.961000 2.534000
3.988100 2.540500
4.015100 2.551000
4.042200 2.569500
4.069200 2.600000
4.096300 2.586000
4.123400 2.995000
4.150400 2.913000
4.177500 2.831700
4.204600 3.023700
4.231600 3.260300
4.258700 3.302100
4.285800 3.444400
4.312800 3.588800
4.339900 3.619900
4.367000 3.574400
4.394000 3.638300
4.421100 3.837900
4.448200 3.753400
4.475200 3.720200
4.502300 3.749900
4.529400 3.603800
4.556400 3.574300
4.583500 3.553600
4.610600 3.530800
4.637600 3.502500
4.664700 3.466700
4.691800 3.438900
4.718800 3.403700
4.745900 3.382400
4.773000 3.382200
4.800000 3.380300
4.827100 3.374700
4.854200 3.378900
4.881200 3.376500
4.908300 3.354800
4.935400 3.341800
4.962400 3.339600
4.989500 3.356300
5.016600 3.370600
5.043600 3.366700
5.070700 3.382300
5.097700 3.434800
5.124800 3.377500
5.151900 3.247100
5.178900 3.138400
5.206000 3.172500
5.233100 3.148100
5.260100 3.181600
5.287200 3.189100
5.314300 3.129000
5.341300 3.114900
5.368400 3.064800
5.395500 2.917400
5.422500 2.719000
5.449600 2.545400
5.476700 2.410100
5.503700 2.317400
5.530800 2.242900
5.557900 2.167400
5.584900 2.095000
5.612000 2.027300
5.639100 1.993000
5.666100 1.938200
5.693200 1.877600
5.720300 1.833800
5.747300 1.793700
5.774400 1.725400
5.801500 1.663100
5.828500 1.593800
5.855600 1.518600
5.882700 1.470200
5.909700 1.435500
5.936800 1.383200
5.963900 1.335800
5.990900 1.260000
6.018000 0.964800
6.045100 0.923100
6.072100 0.883300
6.099200 0.836500
6.126200 0.776600
6.153300 0.708100
6.180400 0.657700
6.207400 0.622900
6.234500 0.566500
6.261600 0.490800
6.288600 0.435600
6.315700 0.388700
6.342800 0.327600
6.369800 0.179200
6.396900 0.012700
6.424000 0.000000
6.451000 0.000000
6.478100 0.000400
6.505200 0.001700
6.532200 0.003900
6.559300 0.007000
6.586400 0.011000
6.613400 0.016000
6.640500 0.021900
6.667600 0.028600
6.694600 0.041200
6.721700 0.050800
6.748800 0.059900
6.775800 0.068300
6.802900 0.076200
6.830000 0.083500
6.857000 0.089800
6.884100 0.096300
6.911200 0.101900
6.938200 0.106600
6.965300 0.110900
6.992400 0.115100
7.019400 0.119300
7.046500 0.123500
7.073600 0.128100
7.100600 0.133200
7.127700 0.138900
7.154700 0.144700
7.181800 0.150200
7.208900 0.155600
7.235900 0.160100
7.263000 0.163400
7.290100 0.166700
7.317100 0.169700
7.344200 0.172500
7.371300 0.175000
7.398300 0.177200
7.425400 0.180200
7.452500 0.183500
7.479500 0.186900
7.506600 0.190600
7.533700 0.194500
7.560700 0.198700
7.587800 0.203000
7.614900 0.207400
7.641900 0.211700
7.669000 0.216100
7.696100 0.220600
7.723100 0.224900
7.750200 0.229100
7.777300 0.233100
7.804300 0.236400
7.831400 0.239600
7.858500 0.242700
7.885500 0.245900
7.912600 0.249100
7.939700 0.252600
7.966700 0.256400
7.993800 0.260100
8.020900 0.263800
8.047900 0.267500
8.075000 0.271100
8.102100 0.274700
8.129100 0.278400
8.156200 0.282100
8.183200 0.285900
8.210300 0.289800
8.237400 0.293700
8.264400 0.297500
8.291500 0.301700
8.318600 0.306300
8.345600 0.311000
8.372700 0.315700
8.399800 0.320300
8.426800 0.324900
8.453900 0.329500
8.481000 0.334200
8.508000 0.338600
8.535100 0.342600
8.562200 0.346500
8.589200 0.350300
8.616300 0.354200
8.643400 0.358000
8.670400 0.361900
8.697500 0.365900
8.724600 0.369900
8.751600 0.373900
8.778700 0.377900
8.805800 0.382200
8.832800 0.387200
8.859900 0.392200
8.887000 0.397100
8.914000 0.402100
8.941100 0.407000
8.968200 0.412000
8.995200 0.417100
9.022300 0.422200
9.049400 0.427300
9.076400 0.432400
9.103500 0.437500
9.130600 0.442600
9.157600 0.447800
9.184700 0.452900
9.211700 0.458100
9.238800 0.463400
9.265900 0.468600
9.292900 0.473900
9.320000 0.479100
9.347100 0.484300
9.374100 0.489900
9.401200 0.495800
9.428300 0.501800
9.455300 0.507700
9.482400 0.513500
9.509500 0.519500
9.536500 0.525600
9.563600 0.531800
9.590700 0.538000
9.617700 0.544200
9.644800 0.550400
9.671900 0.556600
9.698900 0.562900
9.726000 0.569200
9.753100 0.575600
9.780100 0.582000
9.807200 0.588400
9.834300 0.594800
9.861300 0.601400
9.888400 0.608900
9.915500 0.617900
9.942500 0.626400
9.969600 0.634900
9.996700 0.643200
10.023700 0.651700
10.050800 0.660300
10.077900 0.669100
10.104900 0.678000
10.132000 0.687100
10.159100 0.696100
10.186100 0.704800
10.213200 0.713400
10.240200 0.722300
10.267300 0.731500
10.294400 0.740800
10.321400 0.750400
10.348500 0.760100
10.375600 0.770200
10.402600 0.781500
10.429700 0.794400
10.456800 0.808200
10.483800 0.822800
10.510900 0.838100
10.538000 0.854000
10.565000 0.869800
10.592100 0.886500
10.619200 0.904500
10.646200 0.924300
10.673300 0.945000
10.700400 0.966300
10.727400 0.988400
10.754500 1.011400
10.781600 1.035400
10.808600 1.060100
10.835700 1.085900
10.862800 1.112600
10.889800 1.142900
10.916900 1.177400
10.944000 1.349000
10.971000 1.277500
10.998100 1.294400
11.025200 1.311600
11.052200 1.326700
11.079300 1.361500
11.106400 1.357000
11.133400 1.330200
11.160500 1.274400
11.187600 1.255600
11.214600 1.255300
11.241700 1.254700
11.268800 1.253800
11.295800 1.251800
11.322900 1.248200
11.349900 1.244700
11.377000 1.246700
11.404100 1.251000
11.431100 1.257100
11.458200 1.264200
11.485300 1.272400
11.512300 1.281800
11.539400 1.292200
11.566500 1.304200
11.593500 1.317400
11.620600 1.332100
11.647700 1.352100
11.674700 1.374300
11.701800 1.385000
11.728900 1.403600
11.755900 1.432700
11.783000 1.477200
11.810100 1.514900
11.837100 1.557400
11.864200 1.609100
11.891300 1.670500
11.918300 1.734700
11.945400 1.849000
11.972500 2.023400
11.999500 2.173900
12.026600 2.377300
12.053700 2.429000
12.080700 2.377400
12.107800 2.968000
12.134900 2.755500
12.161900 1.964900
12.189000 1.264200
12.216100 0.907900
12.243100 0.593300
12.270200 0.481600
12.297300 0.463700
12.324300 0.448200
12.351400 0.438800
12.378400 0.435600
12.405500 0.449600
12.432600 0.500800
12.459600 0.518800
12.486700 0.534800
12.513800 0.547300
12.540800 0.555500
12.567900 0.552500
12.595000 0.541600
12.622000 0.548400
12.649100 0.549400
12.676200 0.552000
12.703200 0.556100
12.730300 0.576500
12.757400 0.590900
12.784400 0.615000
12.811500 0.645100
12.838600 0.686900
12.865600 0.790300
12.892700 0.793100
12.919800 0.662700
12.946800 0.665100
12.973900 0.681700
13.001000 0.683400
13.028000 0.695700
13.055100 0.719400
13.082200 0.744200
13.109200 0.770100
13.136300 0.797000
13.163400 0.825200
13.190400 0.855400
13.217500 0.886400
13.244600 0.916700
13.271600 0.948700
13.298700 0.985900
13.325800 1.027300
13.352800 1.071500
13.379900 1.118600
13.406900 1.313200
13.434000 1.271000
13.461100 1.291700
13.488100 1.320800
13.515200 1.341900
13.542300 1.389900
13.569300 1.452000
13.596400 1.641600
13.623500 1.587100
13.650500 1.381500
13.677600 1.407800
13.704700 1.439600
13.731700 1.467400
13.758800 1.491800
13.785900 1.509400
13.812900 1.521400
13.840000 1.558900
13.867100 1.576100
13.894100 1.549200
13.921200 1.555400
13.948300 1.562200
13.975300 1.570200
14.002400 1.579600
14.029500 1.589600
14.056500 1.597800
14.083600 1.603800
14.110700 1.607600
14.137700 1.611000
14.164800 1.619700
14.191900 1.653300
14.218900 1.698500
14.246000 1.754100
14.273100 1.801300
14.300100 1.768900
14.327200 1.751900
14.354300 1.743600
14.381300 1.740000
14.408400 1.741200
14.435400 1.758400
14.462500 1.780700
14.489600 1.762800
14.516600 1.724400
14.543700 1.720300
14.570800 1.754500
14.597800 1.814700
14.624900 1.947100
14.652000 2.111700
14.679000 2.251700
14.706100 2.439700
14.733200 2.665200
14.760200 2.782700
14.787300 2.815200
14.814400 2.619400
14.841400 2.559100
14.868500 2.468500
14.895600 2.124600
14.922600 1.928800
14.949700 1.712100
14.976800 1.538300
15.003800 1.388100
15.030900 1.154700
15.058000 0.861500
15.085000 0.730700
15.112100 0.697900
15.139200 0.934100
15.166200 0.737200
15.193300 0.733400
15.220400 0.742000
15.247400 0.757200
15.274500 0.777400
15.301600 0.802300
15.328600 0.844300
15.355700 0.848800
15.382800 0.861000
15.409800 0.861500
15.436900 0.866400
15.463900 0.883900
15.491000 0.900700
15.518100 0.913400
15.545100 0.926600
15.572200 0.954900
15.599300 1.023200
15.626300 1.101400
15.653400 1.173600
15.680500 1.250300
15.707500 1.324400
15.734600 1.366200
15.761700 1.361200
15.788700 1.366600
15.815800 1.420700
15.842900 1.502100
15.869900 1.605300
15.897000 1.660100
15.924100 1.689400
15.951100 1.718700
15.978200 2.070800
16.005300 2.152700
16.032300 2.199800
16.059400 2.275200
16.086500 2.199700
16.113500 2.208000
16.140600 2.425600
16.167700 2.599800
16.194700 2.712200
16.221800 2.663200
16.248900 2.653800
16.275900 2.741300
16.303000 2.774400
16.330100 2.739500
16.357100 2.712000
16.384200 2.731000
16.411300 2.797700
16.438300 2.781700
16.465400 2.673800
16.492400 2.545100
16.519500 2.467300
16.546600 2.371100
16.573600 2.323000
16.600700 2.324900
16.627800 2.379300
16.654800 2.478400
16.681900 2.584700
16.709000 2.664000
16.736000 2.842800
16.763100 3.376400
16.790200 3.348400
16.817200 3.125000
16.844300 2.913600
16.871400 2.771100
16.898400 2.718500
16.925500 2.661200
16.952600 2.602700
16.979600 2.547400
17.006700 2.528900
17.033800 2.541500
17.060800 2.532700
17.087900 2.487700
17.115000 2.370100
17.142000 2.155300
17.169100 1.900800
17.196200 1.639600
17.223200 1.509400
17.250300 1.439700
17.277400 1.383200
17.304400 1.330400
17.331500 1.304500
17.358600 1.283000
17.385600 1.263500
17.412700 1.243500
17.439800 1.223800
17.466800 1.206800
17.493900 1.193300
17.521000 1.179400
17.548000 1.163600
17.575100 1.146100
17.602100 1.130900
17.629200 1.124000
17.656300 1.119000
17.683300 1.116000
17.710400 1.114300
17.737500 1.119900
17.764500 1.126300
17.791600 1.129800
17.818700 1.129600
17.845700 1.128300
17.872800 1.130700
17.899900 1.134200
17.926900 1.138100
17.954000 1.142400
17.981100 1.147400
18.008100 1.153100
18.035200 1.195400
18.062300 1.213600
18.089300 1.232700
18.116400 1.253000
18.143500 1.274400
18.170500 1.296100
18.197600 1.314100
18.224700 1.329600
18.251700 1.344900
18.278800 1.363700
18.305900 1.381400
18.332900 1.397300
18.360000 1.406900
18.387100 1.398300
18.414100 1.374000
18.441200 1.355700
18.468300 1.352800
18.495300 1.350400
18.522400 1.349300
18.549500 1.349700
18.576500 1.354300
18.603600 1.361000
18.630600 1.369300
18.657700 1.378800
18.684800 1.390400
18.711800 1.404000
18.738900 1.422000
18.766000 1.440000
18.793000 1.455300
18.820100 1.476100
18.847200 1.494100
18.874200 1.521200
18.901300 1.557400
18.928400 1.599600
18.955400 1.687400
18.982500 1.729000
19.009600 1.801900
19.036600 2.204700
19.063700 1.527600
19.090800 1.489700
19.117800 1.506800
19.144900 1.560600
19.172000 1.603800
19.199000 1.618000
19.226100 1.573600
19.253200 1.543400
19.280200 1.530600
19.307300 1.544800
19.334400 1.580700
19.361400 1.689200
19.388500 1.761500
19.415600 1.829100
19.442600 2.226900
19.469700 2.225600
19.496800 2.517300
19.523800 2.750800
19.550900 3.032000
19.578000 3.131300
19.605000 2.848800
19.632100 2.651600
19.659100 2.623000
19.686200 2.653500
19.713300 2.600100
19.740300 2.314500
19.767400 2.112500
19.794500 1.923200
19.821500 1.756500
19.848600 1.629200
19.875700 1.618100
19.902700 1.669000
19.929800 1.789700
19.956900 1.594200
19.983900 1.517300
20.011000 1.443800
20.038100 1.376400
20.065100 1.333500
20.092200 1.307400
20.119300 1.286500
20.146300 1.272900
20.173400 1.226800
20.200500 1.197700
20.227500 1.176700
20.254600 1.152400
20.281700 1.125200
20.308700 1.119500
20.335800 1.120100
20.362900 1.101200
20.389900 1.087700
20.417000 1.080400
20.444100 1.092200
20.471100 1.119800
20.498200 1.150900
20.525300 1.184900
20.552300 1.251700
20.579400 1.283100
20.606500 1.380100
20.633500 1.572300
20.660600 1.841300
20.687600 2.059300
20.714700 2.204100
20.741800 2.290300
20.768800 2.226500
20.795900 2.126600
20.823000 2.071700
20.850000 1.990100
20.877100 1.936200
20.904200 1.885300
20.931200 1.834900
20.958300 1.797500
20.985400 1.754600
21.012400 1.786900
21.039500 1.776200
21.066600 1.743100
21.093600 1.702500
21.120700 1.672000
21.147800 1.642600
21.174800 1.611000
21.201900 1.579400
21.229000 1.577000
21.256000 1.565200
21.283100 1.535200
21.310200 1.426400
21.337200 1.381600
21.364300 1.414500
21.391400 1.477000
21.418400 1.557800
21.445500 1.620500
21.472600 1.664000
21.499600 1.696800
21.526700 1.886500
21.553800 1.780200
21.580800 1.788200
21.607900 1.781900
21.635000 1.779200
21.662000 1.777500
21.689100 1.788000
21.716100 1.786800
21.743200 1.772700
21.770300 1.762300
21.797300 1.745000
21.824400 1.723800
21.851500 1.711600
21.878500 1.476800
21.905600 1.437500
21.932700 1.409600
21.959700 1.391400
21.986800 1.350700
22.013900 1.336100
22.040900 1.328700
22.068000 1.313500
22.095100 1.293100
22.122100 1.277600
22.149200 1.260300
22.176300 1.240800
22.203300 1.258700
22.230400 1.317300
22.257500 1.412900
22.284500 1.379900
22.311600 1.259000
22.338700 1.108600
22.365700 1.024900
22.392800 0.980700
22.419900 0.940100
22.446900 0.905200
22.474000 0.879700
22.501100 0.853700
22.528100 0.838500
22.555200 0.820600
22.582300 0.786700
22.609300 0.796000
22.636400 0.809500
22.663500 0.826300
22.690500 0.854700
22.717600 0.875300
22.744600 0.833400
22.771700 0.815100
22.798800 0.772500
22.825800 0.708300
22.852900 0.646900
22.880000 0.592000
22.907000 0.611100
22.934100 0.433900
22.961200 0.402500
22.988200 0.430000
23.015300 0.475200
23.042400 0.519800
23.069400 0.595200
23.096500 0.653100
23.123600 0.719400
23.150600 0.789900
23.177700 0.876000
23.204800 0.937600
23.231800 1.006400
23.258900 1.064400
23.286000 1.113800
23.313000 1.165300
23.340100 1.207500
23.367200 1.239600
23.394200 1.275000
23.421300 1.237600
23.448400 1.180000
23.475400 1.152400
23.502500 1.142200
23.529600 1.141100
23.556600 1.147900
23.583700 1.162900
23.610800 1.188100
23.637800 1.222200
23.664900 1.350700
23.692000 1.700700
23.719000 1.832700
23.746100 2.033400
23.773100 2.333800
23.800200 2.597200
23.827300 2.943200
23.854300 3.276000
23.881400 4.105100
23.908500 5.380700
23.935500 7.732000
23.962600 11.529600
23.989700 19.443600
24.016700 38.109800
24.043800 199.119000
24.070900 24.018000
24.097900 22.425400
24.125000 35.356400
24.152100 35.310100
24.179100 21.777100
24.206200 22.457100
24.233300 8.355900
24.260300 5.781900
24.287400 3.766600
24.314500 3.656900
24.341500 3.260400
24.368600 2.558400
24.395700 2.167600
24.422700 2.141700
24.449800 2.167300
24.476900 2.223800
24.503900 2.256500
24.531000 2.274600
24.558100 2.291700
24.585100 2.308900
24.612200 2.313500
24.639300 2.331900
24.666300 2.373200
24.693400 2.385900
24.720500 2.377000
24.747500 2.361800
24.774600 2.360500
24.801700 2.362100
24.828700 2.306500
24.855800 2.193300
24.882800 2.121700
24.909900 2.102500
24.937000 2.090300
24.964000 2.079800
24.991100 2.067600
25.018200 2.096000
25.045200 2.273000
25.072300 2.271600
25.099400 2.191700
25.126400 2.161300
25.153500 2.122200
25.180600 2.081000
25.207600 2.031900
25.234700 1.976700
25.261800 1.929800
25.288800 1.884900
25.315900 1.837000
25.343000 1.783100
25.370000 1.718500
25.397100 1.670100
25.424200 1.664500
25.451200 1.683100
25.478300 1.712300
25.505400 1.754100
25.532400 1.826400
25.559500 1.963000
25.586600 2.087000
25.613600 2.151000
25.640700 2.212600
25.667800 2.283900
25.694800 2.362800
25.721900 2.413600
25.749000 2.407100
25.776000 2.358600
25.803100 2.328200
25.830200 2.314600
25.857200 2.327200
25.884300 2.389100
25.911300 2.455700
25.938400 2.374300
25.965500 2.170500
25.992500 2.017200
26.019600 1.903400
26.046700 1.847300
26.073700 1.905100
26.100800 1.970300
26.127900 2.035200
26.154900 2.089700
26.182000 2.117300
26.209100 2.116800
26.236100 1.996900
26.263200 2.095400
26.290300 2.130500
26.317300 2.176800
26.344400 2.302800
26.371500 2.212300
26.398500 2.180800
26.425600 2.176900
26.452700 2.199900
26.479700 2.263900
26.506800 2.353500
26.533900 2.455300
26.560900 2.446800
26.588000 2.474600
26.615100 2.543800
26.642100 2.658900
26.669200 2.656900
26.696300 2.735000
26.723300 2.845400
26.750400 2.966700
26.777500 3.087500
26.804500 3.194200
26.831600 3.309400
26.858700 3.445600
26.885700 3.634600
26.912800 3.703800
26.939800 3.664500
26.966900 3.768100
26.994000 3.738700
27.021000 3.682000
27.048100 3.606700
27.075200 3.007200
27.102200 2.785400
27.129300 2.597800
27.156400 2.378900
27.183400 2.174600
27.210500 2.048100
27.237600 1.957200
27.264600 1.907500
27.291700 1.859800
27.318800 1.816400
27.345800 1.817800
27.372900 1.875500
27.400000 1.994800
27.427000 1.976900
27.454100 1.925600
27.481200 1.751100
27.508200 1.708800
27.535300 1.824700
27.562400 1.892600
27.589400 1.999700
27.616500 2.139700
27.643600 2.259400
27.670600 2.413500
27.697700 2.728800
27.724800 3.130600
27.751800 3.246400
27.778900 3.028400
27.806000 2.609800
27.833000 2.437900
27.860100 2.314700
27.887200 2.214700
27.914200 2.139200
27.941300 2.083900
27.968300 2.028600
27.995400 2.008500
28.022500 1.955400
28.049500 1.961800
28.076600 1.985000
28.103700 2.134600
28.130700 2.080600
28.157800 2.119600
28.184900 2.194500
28.211900 1.926300
28.239000 1.956800
28.266100 1.990300
28.293100 2.171900
28.320200 1.997900
28.347300 2.058100
28.374300 2.054700
28.401400 2.007000
28.428500 1.983600
28.455500 2.008300
28.482600 2.035800
28.509700 2.063800
28.536700 2.104600
28.563800 2.229000
28.590900 2.329400
28.617900 2.464700
28.645000 2.626300
28.672100 2.776800
28.699100 3.070800
28.726200 3.460000
28.753300 3.614400
28.780300 3.679700
28.807400 3.318500
28.834500 3.097200
28.861500 2.877600
28.888600 2.619700
28.915700 2.392800
28.942700 2.361100
28.969800 2.412600
28.996800 2.497700
29.023900 2.566400
29.051000 2.687400
29.078000 2.736700
29.105100 2.685700
29.132200 2.609100
29.159200 2.577500
29.186300 2.574400
29.213400 2.580500
29.240400 2.585600
29.267500 2.597600
29.294600 2.626100
29.321600 2.701400
29.348700 2.827700
29.375800 2.957300
29.402800 3.052600
29.429900 3.044200
29.457000 3.011100
29.484000 2.947900
29.511100 2.948300
29.538200 2.922600
29.565200 2.909700
29.592300 2.847600
29.619400 2.780300
29.646400 2.741900
29.673500 2.741800
29.700600 2.752200
29.727600 2.757800
29.754700 2.790200
29.781800 2.841800
29.808800 3.042200
29.835900 3.160800
29.863000 3.267700
29.890000 3.036600
29.917100 3.076500
29.944200 3.084000
29.971200 3.048200
29.998300 3.152100
30.025300 3.287300
30.052400 3.481100
30.079500 3.303800
30.106500 3.144600
30.133600 2.974000
30.160700 2.852900
30.187700 2.765100
30.214800 2.700400
30.241900 2.643500
30.268900 2.589200
30.296000 2.575700
30.323100 2.533400
30.350100 2.146000
30.377200 2.065500
30.404300 1.991100
30.431300 1.924900
30.458400 1.930300
30.485500 1.949100
30.512500 1.970400
30.539600 2.041100
30.566700 2.058300
30.593700 2.010100
30.620800 1.986700
30.647900 1.960800
30.674900 1.924400
30.702000 1.901300
30.729100 1.865000
30.756100 1.848400
30.783200 1.866800
30.810300 1.903500
30.837300 1.980200
30.864400 2.097000
30.891500 2.182200
30.918500 2.223700
30.945600 2.384800
30.972700 2.774400
30.999700 2.823200
31.026800 2.693000
31.053800 2.621600
31.080900 2.590000
31.108000 2.610400
31.135000 2.677500
31.162100 2.645200
31.189200 2.595300
31.216200 2.511200
31.243300 2.425000
31.270400 2.425900
31.297400 2.460600
31.324500 2.531900
31.351600 2.657100
31.378600 2.774400
31.405700 2.875800
31.432800 2.882500
31.459800 2.828400
31.486900 2.816700
31.514000 2.862400
31.541000 2.910300
31.568100 2.894400
31.595200 2.838900
31.622200 2.794500
31.649300 2.746800
31.676400 2.722000
31.703400 2.718800
31.730500 2.691200
31.757600 2.667700
31.784600 2.639500
31.811700 2.561700
31.838800 2.503100
31.865800 2.619900
31.892900 2.484100
31.920000 2.454600
31.947000 2.428500
31.974100 2.387000
32.001200 2.349200
32.028200 2.317200
32.055300 2.305600
32.082400 2.304900
32.109400 2.305800
32.136500 2.309800
32.163500 2.385700
32.190600 2.524500
32.217700 2.615200
32.244700 2.413200
32.271800 2.105300
32.298900 1.778700
32.325900 1.646100
32.353000 1.538800
32.380100 1.452100
32.407100 1.379400
32.434200 1.317400
32.461300 1.265100
32.488300 1.239700
32.515400 1.248800
32.542500 1.282100
32.569500 1.342100
32.596600 1.399100
32.623700 1.459700
32.650700 1.486000
32.677800 1.515000
32.704900 1.543900
32.731900 1.578900
32.759000 1.602900
32.786100 1.631600
32.813100 1.667700
32.840200 1.770500
32.867300 1.924600
32.894300 2.133400
32.921400 2.392200
32.948500 2.589300
32.975500 2.671200
33.002600 2.577900
33.029700 2.453000
33.056700 2.397600
33.083800 2.302100
33.110900 2.267200
33.137900 2.270000
33.165000 2.263400
33.192000 2.276000
33.219100 2.327300
33.246200 2.406600
33.273200 2.495300
33.300300 2.432300
33.327400 2.382000
33.354400 2.389500
33.381500 2.203200
33.408600 2.097700
33.435600 1.968700
33.462700 1.837400
33.489800 1.726400
33.516800 1.701700
33.543900 1.681000
33.571000 1.652400
33.598000 1.653300
33.625100 1.669700
33.652200 1.660000
33.679200 1.636900
33.706300 1.671900
33.733400 1.728300
33.760400 1.617500
33.787500 1.579300
33.814600 1.542900
33.841600 1.539600
33.868700 1.549400
33.895800 1.565900
33.922800 1.576700
33.949900 1.596100
33.977000 1.617400
34.004000 1.622100
34.031100 1.650800
34.058200 1.691800
34.085200 1.658400
34.112300 1.748500
34.139400 1.920100
34.166400 2.220100
34.193500 2.140600
34.220500 2.172400
34.247600 2.181600
34.274700 2.185800
34.301700 2.169900
34.328800 2.126400
34.355900 2.067600
34.382900 2.008600
34.410000 1.954700
34.437100 1.948900
34.464100 1.950500
34.491200 1.955900
34.518300 1.968700
34.545300 1.958500
34.572400 1.942300
34.599500 1.917700
34.626500 1.873600
34.653600 1.868700
34.680700 1.863200
34.707700 1.861400
34.734800 1.845600
34.761900 1.862800
34.788900 1.712700
34.816000 1.741100
34.843100 1.757000
34.870100 1.758300
34.897200 1.832400
34.924300 1.964600
34.951300 1.819500
34.978400 1.794700
35.005500 1.861700
35.032500 1.953800
35.059600 2.073300
35.086700 2.082100
35.113700 2.023300
35.140800 1.917800
35.167900 1.844400
35.194900 1.797700
35.222000 1.767600
35.249000 1.727400
35.276100 1.668300
35.303200 1.861800
35.330200 1.748900
35.357300 1.715700
35.384400 1.676400
35.411400 1.635700
35.438500 1.598200
35.465600 1.535900
35.492600 1.427700
35.519700 1.382900
35.546800 1.393700
35.573800 1.411300
35.600900 1.427900
35.628000 1.442900
35.655000 1.446900
35.682100 1.449100
35.709200 1.459400
35.736200 1.446200
35.763300 1.466300
35.790400 1.500200
35.817400 1.534200
35.844500 1.566700
35.871600 1.597100
35.898600 1.624300
35.925700 1.660600
35.952800 1.714800
35.979800 1.789400
36.006900 1.868500
36.034000 1.933700
36.061000 2.002000
36.088100 2.214200
36.115200 2.071100
36.142200 1.944600
36.169300 1.873000
36.196400 1.782100
36.223400 1.623700
36.250500 1.454100
36.277500 1.374400
36.304600 1.298800
36.331700 1.228800
36.358700 1.162400
36.385800 1.095500
36.412900 1.025300
36.439900 0.956700
36.467000 0.899700
36.494100 0.883100
36.521100 0.774500
36.548200 0.714200
36.575300 0.663700
36.602300 0.622600
36.629400 0.592700
36.656500 0.566700
36.683500 0.543300
36.710600 0.523000
36.737700 0.506000
36.764700 0.488200
36.791800 0.469300
36.818900 0.449900
36.845900 0.430300
36.873000 0.409200
36.900100 0.383200
36.927100 0.356200
36.954200 0.342800
36.981300 0.329400
37.008300 0.315900
37.035400 0.302300
37.062500 0.288400
37.089500 0.274300
37.116600 0.260600
37.143700 0.252900
37.170700 0.245200
37.197800 0.237400
37.224900 0.229600
37.251900 0.221800
37.279000 0.214800
37.306000 0.208900
37.333100 0.204300
37.360200 0.203600
37.387200 0.207000
37.414300 0.212800
37.441400 0.218900
37.468400 0.221500
37.495500 0.235500
37.522600 0.181900
37.549600 0.168900
37.576700 0.136100
37.603800 0.129200
37.630800 0.122400
37.657900 0.115600
37.685000 0.108900
37.712000 0.102200
37.739100 0.095600
37.766200 0.089100
37.793200 0.082700
37.820300 0.076300
37.847400 0.074400
37.874400 0.144800
37.901500 0.454400
37.928600 0.000000
37.955600 0.000000
37.982700 0.000000
38.009800 0.000000
38.036800 0.000000
38.063900 0.000000
38.091000 0.000000
38.118000 0.000000
38.145100 0.000000
38.172200 0.000000
38.199200 0.000000
38.226300 0.000000
38.253400 0.000000
38.280400 0.000000
38.307500 0.000000
38.334500 0.000000
38.361600 0.000000
38.388700 0.000000
38.415700 0.000000
38.442800 0.000000
38.469900 0.000000
38.496900 0.000000
38.524000 0.000000
38.551100 0.000000
38.578100 0.000000
38.605200 0.000000
38.632300 0.000000
38.659300 0.000000
38.686400 0.000000
38.713500 0.000000
38.740500 0.000000
38.767600 0.000000
38.794700 0.000000
38.821700 0.000000
38.848800 0.000000
38.875900 0.000000
38.902900 0.000000
38.930000 0.000000
38.957100 0.000000
38.984100 0.000000
39.011200 0.000000
39.038300 0.000000
39.065300 0.000000
39.092400 0.000000
39.119500 0.000000
39.146500 0.000000
39.173600 0.000000
39.200700 0.000000
39.227700 0.000000
39.254800 0.000000
39.281900 0.000000
39.308900 0.000000
39.336000 0.000000
39.363100 0.000000
39.390100 0.000000
39.417200 0.000000
39.444200 0.000000
39.471300 0.000000
39.498400 0.000000
39.525400 0.000000
39.552500 0.000000
39.579600 0.000000
39.606600 0.000000
39.633700 0.000000
39.660800 0.000000
39.687800 0.000000
39.714900 0.000000
39.742000 0.000000
39.769000 0.000000
39.796100 0.000000
39.823200 0.000000
39.850200 0.000000
39.877300 0.000000
39.904400 0.000000
39.931400 0.000000
39.958500 0.000000
39.985600 0.000000
40.012600 0.000000
40.039700 0.000000
40.066800 0.000000
40.093800 0.000000
40.120900 0.000000
40.148000 0.000000
40.175000 0.000000
40.202100 0.000000
40.229200 0.000000
40.256200 0.000000
40.283300 0.000000
40.310400 0.000000
40.337400 0.000000
40.364500 0.000000
e
