set title 'mp-614456 - Density of States'
set xlabel 'Energy (eV)'
set ylabel 'DOS (states/eV)'
set grid
set xrange [-10:10]
set yrange [0:1.870]
set xzeroaxis lt -1
set terminal png size 800,600
set output 'mp-614456_dos_gnuplot.png'
plot '-' using 1:2 with lines title 'DOS'
-26.923700 0.000000
-26.802300 0.000000
-26.681000 0.000000
-26.559700 0.000000
-26.438400 0.000000
-26.317000 0.000000
-26.195700 0.000000
-26.074400 0.000000
-25.953100 0.000000
-25.831700 0.000000
-25.710400 0.000000
-25.589100 0.000000
-25.467800 0.000000
-25.346400 0.000000
-25.225100 0.000000
-25.103800 0.000000
-24.982500 0.000000
-24.861100 0.000000
-24.739800 0.000000
-24.618500 0.000000
-24.497200 0.000000
-24.375800 0.000000
-24.254500 0.000000
-24.133200 0.000000
-24.011900 0.000000
-23.890500 0.000000
-23.769200 0.000000
-23.647900 0.000000
-23.526600 0.000000
-23.405200 0.000000
-23.283900 0.000000
-23.162600 0.000000
-23.041300 0.000000
-22.919900 0.000000
-22.798600 0.000000
-22.677300 0.000000
-22.556000 0.000000
-22.434600 0.000000
-22.313300 0.000000
-22.192000 0.000000
-22.070700 0.000000
-21.949300 0.000000
-21.828000 0.000000
-21.706700 0.000000
-21.585400 0.000000
-21.464000 0.000000
-21.342700 0.000000
-21.221400 0.000000
-21.100100 0.000000
-20.978700 0.000000
-20.857400 0.000000
-20.736100 0.000000
-20.614800 0.000000
-20.493400 0.000000
-20.372100 0.000000
-20.250800 0.000000
-20.129500 0.000000
-20.008100 0.000000
-19.886800 0.000000
-19.765500 0.000000
-19.644200 0.000000
-19.522800 0.000000
-19.401500 0.000000
-19.280200 0.000000
-19.158900 0.000000
-19.037500 0.000000
-18.916200 0.000000
-18.794900 0.000000
-18.673600 0.000000
-18.552200 0.000000
-18.430900 0.000000
-18.309600 0.000000
-18.188300 0.000000
-18.066900 0.000000
-17.945600 0.000000
-17.824300 0.000000
-17.703000 0.000000
-17.581600 0.000000
-17.460300 0.000000
-17.339000 0.000000
-17.217700 0.000000
-17.096300 0.000000
-16.975000 0.000000
-16.853700 0.000000
-16.732400 0.000000
-16.611000 0.000000
-16.489700 0.000000
-16.368400 0.000000
-16.247100 0.000000
-16.125700 0.000000
-16.004400 0.000000
-15.883100 0.040300
-15.761800 0.133200
-15.640400 0.193700
-15.519100 0.253200
-15.397800 0.306800
-15.276500 0.370100
-15.155100 0.438900
-15.033800 0.518600
-14.912500 0.611300
-14.791200 0.736400
-14.669800 0.902800
-14.548500 1.149700
-14.427200 1.620000
-14.305900 2.209400
-14.184500 2.367000
-14.063200 2.711500
-13.941900 0.000000
-13.820600 0.000000
-13.699200 0.000000
-13.577900 0.000000
-13.456600 0.000000
-13.335300 0.000000
-13.213900 0.000000
-13.092600 0.000000
-12.971300 0.000000
-12.850000 0.000000
-12.728600 0.000000
-12.607300 0.000000
-12.486000 0.000000
-12.364700 0.000000
-12.243300 0.000000
-12.122000 0.000000
-12.000700 0.000000
-11.879400 0.000000
-11.758000 0.000000
-11.636700 0.000000
-11.515400 0.000000
-11.394100 0.000000
-11.272700 0.000000
-11.151400 0.000000
-11.030100 0.000000
-10.908800 0.000000
-10.787400 0.000000
-10.666100 0.000000
-10.544800 0.000000
-10.423500 0.000000
-10.302100 0.000000
-10.180800 0.000000
-10.059500 0.000000
-9.938200 0.000000
-9.816900 0.000000
-9.695500 0.000000
-9.574200 0.000000
-9.452900 0.000000
-9.331600 0.000000
-9.210200 0.000000
-9.088900 0.000000
-8.967600 0.000000
-8.846300 0.000000
-8.724900 0.000000
-8.603600 0.000000
-8.482300 0.000000
-8.361000 0.000000
-8.239600 0.000000
-8.118300 0.000000
-7.997000 0.000000
-7.875700 0.000000
-7.754300 0.000000
-7.633000 0.000000
-7.511700 0.000000
-7.390400 0.000000
-7.269000 0.000000
-7.147700 0.000000
-7.026400 0.000000
-6.905100 0.000000
-6.783700 0.000000
-6.662400 0.000000
-6.541100 0.000000
-6.419800 0.000000
-6.298400 0.000000
-6.177100 0.000000
-6.055800 0.000000
-5.934500 0.000000
-5.813100 0.000000
-5.691800 0.000000
-5.570500 0.000000
-5.449200 0.000000
-5.327800 0.000000
-5.206500 0.000000
-5.085200 0.000000
-4.963900 0.000000
-4.842500 0.000000
-4.721200 0.000000
-4.599900 0.000000
-4.478600 0.000000
-4.357200 0.000000
-4.235900 0.000000
-4.114600 0.000000
-3.993300 0.000000
-3.871900 0.000000
-3.750600 0.000000
-3.629300 0.000000
-3.508000 0.000000
-3.386600 0.000000
-3.265300 0.000000
-3.144000 0.000000
-3.022700 0.000000
-2.901300 0.000000
-2.780000 0.000000
-2.658700 0.000000
-2.537400 0.000000
-2.416000 0.000000
-2.294700 0.000000
-2.173400 0.000000
-2.052100 0.000000
-1.930700 0.000000
-1.809400 0.000000
-1.688100 0.000000
-1.566800 0.000000
-1.445400 0.000000
-1.324100 0.000000
-1.202800 0.000000
-1.081500 0.000000
-0.960100 0.000000
-0.838800 0.000000
-0.717500 0.000000
-0.596200 0.000000
-0.474800 0.000000
-0.353500 0.000000
-0.232200 0.000000
-0.110900 0.000000
0.010500 0.000000
0.131800 0.000000
0.253100 0.000000
0.374400 0.000000
0.495800 0.000000
0.617100 0.000000
0.738400 0.000000
0.859700 0.000000
0.981100 0.000000
1.102400 0.000000
1.223700 0.000000
1.345000 0.000000
1.466400 0.000000
1.587700 0.000000
1.709000 0.000000
1.830300 0.000000
1.951700 0.000000
2.073000 0.000000
2.194300 0.000000
2.315600 0.000000
2.437000 0.000000
2.558300 0.000000
2.679600 0.000000
2.800900 0.000000
2.922300 0.000000
3.043600 0.000000
3.164900 0.000000
3.286200 0.000000
3.407600 0.000000
3.528900 0.000000
3.650200 0.000000
3.771500 0.000000
3.892900 0.000000
4.014200 0.062300
4.135500 0.195500
4.256800 0.258400
4.378200 0.347500
4.499500 0.440200
4.620800 0.563800
4.742100 0.726400
4.863500 1.032500
4.984800 1.606000
5.106100 1.700000
5.227400 1.279300
5.348800 1.004500
5.470100 0.808500
5.591400 0.692800
5.712700 0.584100
5.834100 0.503800
5.955400 0.469100
6.076700 0.462900
6.198000 0.472600
6.319400 0.451300
6.440700 0.399100
6.562000 0.366500
6.683300 0.320000
6.804700 0.290800
6.926000 0.263700
7.047300 0.234400
7.168600 0.216600
7.290000 0.209500
7.411300 0.125500
7.532600 0.098200
7.653900 0.085300
7.775300 0.050500
7.896600 0.039900
8.017900 0.030300
8.139200 0.021700
8.260600 0.000000
8.381900 0.026900
8.503200 0.069600
8.624500 0.086000
8.745900 0.103200
8.867200 0.143100
8.988500 0.168400
9.109800 0.198100
9.231200 0.227100
9.352500 0.244900
9.473800 0.267200
9.595100 0.265600
9.716500 0.274700
9.837800 0.282600
9.959100 0.288200
10.080400 0.296400
10.201800 0.304500
10.323100 0.312100
10.444400 0.315700
10.565700 0.332500
10.687100 0.339500
10.808400 0.347100
10.929700 0.354200
11.051000 0.359100
11.172400 0.366000
11.293700 0.372500
11.415000 0.378900
11.536300 0.385500
11.657700 0.388200
11.779000 0.395100
11.900300 0.400100
12.021600 0.403300
12.143000 0.407700
12.264300 0.405100
12.385600 0.405300
12.506900 0.407100
12.628300 0.412600
12.749600 0.393900
12.870900 0.368300
12.992200 0.356400
13.113600 0.348800
13.234900 0.343300
13.356200 0.338900
13.477500 0.334400
13.598900 0.330500
13.720200 0.328800
13.841500 0.328100
13.962800 0.328700
14.084200 0.329300
14.205500 0.330800
14.326800 0.332900
14.448100 0.343300
14.569500 0.357300
14.690800 0.365900
14.812100 0.367300
14.933400 0.374100
15.054800 0.375400
15.176100 0.372100
15.297400 0.363600
15.418700 0.355000
15.540100 0.347200
15.661400 0.347600
15.782700 0.346500
15.904000 0.332300
16.025400 0.341800
16.146700 0.339700
16.268000 0.342300
16.389300 0.351100
16.510700 0.359400
16.632000 0.370700
16.753300 0.384000
16.874600 0.385800
16.996000 0.385100
17.117300 0.391500
17.238600 0.396100
17.359900 0.397500
17.481300 0.396900
17.602600 0.398600
17.723900 0.402200
17.845200 0.410600
17.966600 0.444400
18.087900 0.429900
18.209200 0.428600
18.330500 0.429600
18.451900 0.430700
18.573200 0.431600
18.694500 0.433400
18.815800 0.435000
18.937200 0.450600
19.058500 0.476400
19.179800 0.481800
19.301100 0.483700
19.422500 0.489100
19.543800 0.491200
19.665100 0.496200
19.786400 0.501500
19.907800 0.506800
20.029100 0.515500
20.150400 0.541800
20.271700 0.551700
20.393100 0.555200
20.514400 0.563800
20.635700 0.570600
20.757000 0.583400
20.878400 0.601100
20.999700 0.628900
21.121000 0.670200
21.242300 0.706400
21.363700 0.751500
21.485000 0.820500
21.606300 0.852400
21.727600 0.786100
21.849000 0.678900
21.970300 0.573300
22.091600 0.551000
22.212900 0.411700
22.334300 0.353100
22.455600 0.330700
22.576900 0.317200
22.698200 0.296600
22.819600 0.282500
22.940900 0.297700
23.062200 0.294700
23.183500 0.291600
23.304900 0.262700
23.426200 0.252700
23.547500 0.245800
23.668800 0.242700
23.790200 0.232700
23.911500 0.226800
24.032800 0.225300
24.154100 0.227600
24.275500 0.238300
24.396800 0.249100
24.518100 0.257200
24.639400 0.288200
24.760800 0.286800
24.882100 0.422100
25.003400 0.583700
25.124700 0.625200
25.246100 0.595700
25.367400 0.595200
25.488700 0.614500
25.610000 0.649000
25.731400 0.641900
25.852700 0.650000
25.974000 0.684100
26.095300 0.678100
26.216700 0.695000
26.338000 0.673000
26.459300 0.690500
26.580600 0.661900
26.702000 0.626800
26.823300 0.603600
26.944600 0.567300
27.065900 0.532200
27.187300 0.565200
27.308600 0.561200
27.429900 0.542000
27.551200 0.490400
27.672600 0.428000
27.793900 0.399300
27.915200 0.349600
28.036500 0.349200
28.157900 0.333600
28.279200 0.337600
28.400500 0.346500
28.521800 0.357300
28.643200 0.371300
28.764500 0.383800
28.885800 0.411900
29.007100 0.439900
29.128500 0.464000
29.249800 0.486800
29.371100 0.510000
29.492400 0.537800
29.613800 0.571700
29.735100 0.571800
29.856400 0.604500
29.977700 0.557000
30.099100 0.551700
30.220400 0.553600
30.341700 0.548100
30.463000 0.543400
30.584400 0.519500
30.705700 0.522600
30.827000 0.545000
30.948300 0.606900
31.069700 0.667600
31.191000 0.627300
31.312300 0.625700
31.433600 0.615100
31.555000 0.563100
31.676300 0.537700
31.797600 0.525000
31.918900 0.518900
32.040300 0.524000
32.161600 0.534800
32.282900 0.536800
32.404200 0.518200
32.525600 0.543300
32.646900 0.542600
32.768200 0.505400
32.889500 0.491700
33.010900 0.482400
33.132200 0.469200
33.253500 0.457300
33.374800 0.447800
33.496200 0.445300
33.617500 0.434800
33.738800 0.460600
33.860100 0.477700
33.981500 0.486400
34.102800 0.512500
34.224100 0.530300
34.345400 0.559000
34.466800 0.582900
34.588100 0.598300
34.709400 0.623200
34.830700 0.658100
34.952100 0.657100
35.073400 0.613800
35.194700 0.577600
35.316000 0.534000
35.437400 0.492700
35.558700 0.465000
35.680000 0.439700
35.801300 0.436000
35.922700 0.436400
36.044000 0.444900
36.165300 0.464700
36.286600 0.491700
36.408000 0.510100
36.529300 0.535400
36.650600 0.565600
36.771900 0.576400
36.893300 0.588900
37.014600 0.593000
37.135900 0.605000
37.257200 0.616400
37.378600 0.598000
37.499900 0.566800
37.621200 0.561700
37.742500 0.561500
37.863900 0.548800
37.985200 0.536800
38.106500 0.533600
38.227800 0.534200
38.349200 0.536300
38.470500 0.548200
38.591800 0.556200
38.713100 0.576200
38.834500 0.592300
38.955800 0.595900
39.077100 0.594700
39.198400 0.580100
39.319800 0.576800
39.441100 0.575700
39.562400 0.574100
39.683700 0.573400
39.805100 0.573400
39.926400 0.586700
40.047700 0.579300
40.169000 0.577700
40.290400 0.584600
40.411700 0.597300
40.533000 0.609900
40.654300 0.623200
40.775700 0.637000
40.897000 0.622700
41.018300 0.615400
41.139600 0.612400
41.261000 0.605200
41.382300 0.602400
41.503600 0.598000
41.624900 0.592000
41.746300 0.583500
41.867600 0.583000
41.988900 0.576200
42.110200 0.566300
42.231600 0.551800
42.352900 0.538500
42.474200 0.544100
42.595500 0.557600
42.716900 0.577700
42.838200 0.597500
42.959500 0.603200
43.080800 0.608800
43.202200 0.614600
43.323500 0.624500
43.444800 0.622600
43.566100 0.618700
43.687500 0.621400
43.808800 0.625100
43.930100 0.622700
44.051400 0.617000
44.172800 0.622000
44.294100 0.626700
44.415400 0.608200
44.536700 0.599300
44.658100 0.592100
44.779400 0.581900
44.900700 0.571200
45.022000 0.557700
45.143400 0.555400
45.264700 0.548100
45.386000 0.543200
45.507300 0.546000
45.628700 0.554500
45.750000 0.563800
45.871300 0.573200
45.992600 0.555900
46.114000 0.557900
46.235300 0.579700
46.356600 0.589600
46.477900 0.607000
46.599300 0.622700
46.720600 0.633800
46.841900 0.644700
46.963200 0.689500
47.084500 0.685400
47.205900 0.708300
47.327200 0.718200
47.448500 0.729200
47.569800 0.733100
47.691200 0.739700
47.812500 0.840100
47.933800 0.654900
48.055100 0.641000
48.176500 0.669100
48.297800 0.683700
48.419100 0.751100
48.540400 0.747200
48.661800 0.772300
48.783100 0.708200
48.904400 0.750300
49.025700 0.735500
49.147100 0.714400
49.268400 0.687900
49.389700 0.671600
49.511000 0.620700
49.632400 0.597400
49.753700 0.585700
49.875000 0.578900
49.996300 0.567100
50.117700 0.548800
50.239000 0.541400
50.360300 0.528000
50.481600 0.524500
50.603000 0.542500
50.724300 0.555400
50.845600 0.570900
50.966900 0.554800
51.088300 0.552500
51.209600 0.554100
51.330900 0.581000
51.452200 0.654700
51.573600 0.648800
51.694900 0.670500
51.816200 0.764700
51.937500 0.654500
52.058900 0.668800
52.180200 0.661400
52.301500 0.668800
52.422800 0.684200
52.544200 0.700000
52.665500 0.680900
52.786800 0.693900
52.908100 0.674600
53.029500 0.678300
53.150800 0.675200
53.272100 0.669500
53.393400 0.675200
53.514800 0.702700
53.636100 0.731600
53.757400 0.775600
53.878700 0.816500
54.000100 0.804600
54.121400 0.753900
54.242700 0.713000
54.364000 0.687600
54.485400 0.656000
54.606700 0.631500
54.728000 0.635200
54.849300 0.609500
54.970700 0.685500
55.092000 0.564400
55.213300 0.562000
55.334600 0.568600
55.456000 0.575800
55.577300 0.592800
55.698600 0.589600
55.819900 0.590900
55.941300 0.608700
56.062600 0.619300
56.183900 0.679000
56.305200 0.663000
56.426600 0.657700
56.547900 0.652000
56.669200 0.652800
56.790500 0.661400
56.911900 0.684100
57.033200 0.694000
57.154500 0.685800
57.275800 0.687600
57.397200 0.705600
57.518500 0.715100
57.639800 0.711200
57.761100 0.701800
57.882500 0.716000
58.003800 0.718800
58.125100 0.724300
58.246400 0.733700
58.367800 0.747900
58.489100 0.800200
58.610400 0.806700
58.731700 0.772100
58.853100 0.763400
58.974400 0.750000
59.095700 0.737500
59.217000 0.727800
59.338400 0.711700
59.459700 0.658600
59.581000 0.639700
59.702300 0.628900
59.823700 0.623300
59.945000 0.628300
60.066300 0.622700
60.187600 0.623200
60.309000 0.633200
60.430300 0.621400
60.551600 0.631500
60.672900 0.637200
60.794300 0.654800
60.915600 0.674700
61.036900 0.709000
61.158200 0.837000
61.279600 0.840500
61.400900 0.799300
61.522200 0.754800
61.643500 0.749800
61.764900 0.755100
61.886200 0.753400
62.007500 0.758100
62.128800 0.774200
62.250200 0.774600
62.371500 0.771800
62.492800 0.770800
62.614100 0.772800
62.735500 0.759800
62.856800 0.715200
62.978100 0.686200
63.099400 0.678200
63.220800 0.652300
63.342100 0.671600
63.463400 0.676200
63.584700 0.667200
63.706100 0.669600
63.827400 0.651500
63.948700 0.640700
64.070000 0.627500
64.191400 0.600200
64.312700 0.599900
64.434000 0.604600
64.555300 0.628400
64.676700 0.669600
64.798000 0.717200
64.919300 0.784800
65.040600 0.781700
65.162000 0.798100
65.283300 0.798400
65.404600 0.797400
65.525900 0.797900
65.647300 0.785800
65.768600 0.773100
65.889900 0.766200
66.011200 0.760700
66.132600 0.774200
66.253900 0.774800
66.375200 0.779400
66.496500 0.747900
66.617900 0.719600
66.739200 0.702200
66.860500 0.680000
66.981800 0.657100
67.103200 0.647000
67.224500 0.647700
67.345800 0.654800
67.467100 0.669500
67.588500 0.713100
67.709800 0.728500
67.831100 0.750900
67.952400 0.770000
68.073800 0.774600
68.195100 0.771700
68.316400 0.774400
68.437700 0.768600
68.559100 0.834000
68.680400 0.860700
68.801700 0.875300
68.923000 0.876700
69.044400 0.870700
69.165700 0.832700
69.287000 0.799800
69.408300 0.814800
69.529700 0.692900
69.651000 0.632000
69.772300 0.592000
69.893600 0.570300
70.015000 0.559100
70.136300 0.564400
70.257600 0.572600
70.378900 0.599400
70.500300 0.623700
70.621600 0.691600
70.742900 0.741900
70.864200 0.793700
70.985600 0.842900
71.106900 0.902900
71.228200 0.948100
71.349500 0.899300
71.470900 0.892300
71.592200 0.867700
71.713500 0.809700
71.834800 0.763200
71.956200 0.749900
72.077500 0.742100
72.198800 0.771700
72.320100 0.751200
72.441500 0.729800
72.562800 0.705600
72.684100 0.727600
72.805400 0.727400
72.926800 0.734300
73.048100 0.714500
73.169400 0.699700
73.290700 0.699900
73.412100 0.706600
73.533400 0.701300
73.654700 0.725900
73.776000 0.748100
73.897400 0.761400
74.018700 0.780300
74.140000 0.786100
74.261300 0.848900
74.382700 0.819700
74.504000 0.806500
74.625300 0.806900
74.746600 0.828200
74.868000 0.823400
74.989300 0.807900
75.110600 0.776900
75.231900 0.718700
75.353300 0.717900
75.474600 0.727500
75.595900 0.731100
75.717200 0.730200
75.838600 0.719800
75.959900 0.712200
76.081200 0.725600
76.202500 0.736900
76.323900 0.801100
76.445200 0.794700
76.566500 0.821600
76.687800 0.824000
76.809200 0.819100
76.930500 0.811200
77.051800 0.804000
77.173100 0.783200
77.294500 0.778600
77.415800 0.776200
77.537100 0.790900
77.658400 0.806000
77.779800 0.801900
77.901100 0.787200
78.022400 0.770900
78.143700 0.765400
78.265100 0.786800
78.386400 0.786400
78.507700 0.781100
78.629000 0.789400
78.750400 0.797700
78.871700 0.800900
78.993000 0.810500
79.114300 0.844000
79.235700 0.835400
79.357000 0.818700
79.478300 0.810200
79.599600 0.803600
79.721000 0.781800
79.842300 0.773700
79.963600 0.765500
80.084900 0.755100
80.206300 0.749100
80.327600 0.747200
80.448900 0.791200
80.570200 0.759500
80.691600 0.800100
80.812900 0.799500
80.934200 0.802600
81.055500 0.805400
81.176900 0.839200
81.298200 0.841500
81.419500 0.799800
81.540800 0.816700
81.662200 0.804500
81.783500 0.813300
81.904800 0.817300
82.026100 0.818400
82.147500 0.837100
82.268800 0.833300
82.390100 0.822100
82.511400 0.816500
82.632800 0.816000
82.754100 0.820900
82.875400 0.848700
82.996700 0.854900
83.118100 0.851100
83.239400 0.839200
83.360700 0.817000
83.482000 0.797300
83.603400 0.787400
83.724700 0.794200
83.846000 0.770400
83.967300 0.757600
84.088700 0.750100
84.210000 0.757400
84.331300 0.774700
84.452600 0.825700
84.574000 0.841300
84.695300 0.831900
84.816600 0.839000
84.937900 0.842000
85.059300 0.831800
85.180600 0.823800
85.301900 0.825500
85.423200 0.815500
85.544600 0.819200
85.665900 0.814700
85.787200 0.814100
85.908500 0.800800
86.029900 0.802000
86.151200 0.812600
86.272500 0.808600
86.393800 0.807800
86.515200 0.802100
86.636500 0.795400
86.757800 0.794000
86.879100 0.809900
87.000500 0.814700
87.121800 0.820800
87.243100 0.827000
87.364400 0.831200
87.485800 0.843300
87.607100 0.844600
87.728400 0.851500
87.849700 0.857000
87.971100 0.829200
88.092400 0.843100
88.213700 0.844000
88.335000 0.869500
88.456400 0.877400
88.577700 0.878800
88.699000 0.891300
88.820300 0.888600
88.941700 0.914200
89.063000 0.919600
89.184300 0.893100
89.305600 0.882900
89.427000 0.876800
89.548300 0.876600
89.669600 0.876200
89.790900 0.850500
89.912300 0.813800
90.033600 0.802700
90.154900 0.810400
90.276200 0.812500
90.397600 0.814000
90.518900 0.827000
90.640200 0.837900
90.761500 0.843900
90.882900 0.850400
91.004200 0.903900
91.125500 0.921800
91.246800 0.828400
91.368200 0.838800
91.489500 0.862600
91.610800 0.904800
91.732100 0.880500
91.853500 0.868500
91.974800 0.842000
92.096100 0.835900
92.217400 0.823300
92.338800 0.831400
92.460100 0.831400
92.581400 0.829900
92.702700 0.828100
92.824100 0.826800
92.945400 0.831900
93.066700 0.829900
93.188000 0.848100
93.309400 0.850200
93.430700 0.862100
93.552000 0.844500
93.673300 0.845800
93.794700 0.858000
93.916000 0.854200
94.037300 0.876300
94.158600 0.878400
94.280000 0.876200
94.401300 0.867200
94.522600 0.867600
94.643900 0.847700
94.765300 0.895200
94.886600 0.888700
95.007900 0.892500
95.129200 0.872800
95.250600 0.894600
95.371900 0.851900
95.493200 0.841800
95.614500 0.830100
95.735900 0.815600
95.857200 0.783800
95.978500 0.779500
96.099800 0.781900
96.221200 0.801600
96.342500 0.852100
96.463800 0.883900
96.585100 0.917900
96.706500 0.974900
96.827800 0.937900
96.949100 0.884900
97.070400 0.833000
97.191800 0.796300
97.313100 0.767400
97.434400 0.739000
97.555700 0.729200
97.677100 0.730300
97.798400 0.748400
97.919700 0.777600
98.041000 0.841600
98.162400 0.872600
98.283700 0.884400
98.405000 0.903100
98.526300 0.902200
98.647700 0.915400
98.769000 0.973200
98.890300 1.000100
99.011600 1.024700
99.133000 0.998800
99.254300 0.960500
99.375600 0.947500
99.496900 0.944300
99.618300 1.112700
99.739600 0.907600
99.860900 0.896900
99.982200 0.882400
100.103600 0.894100
100.224900 0.880000
100.346200 0.872000
100.467500 0.872200
100.588900 0.869400
100.710200 0.856600
100.831500 0.852300
100.952800 0.858500
101.074200 0.912100
101.195500 0.898200
101.316800 0.884400
101.438100 0.904800
101.559500 0.890700
101.680800 0.860300
101.802100 0.860600
101.923400 0.840900
102.044800 0.834000
102.166100 0.857000
102.287400 0.837400
102.408700 0.833500
102.530100 0.848300
102.651400 0.869100
102.772700 0.884800
102.894000 0.909800
103.015400 0.926700
103.136700 0.950000
103.258000 0.957300
103.379300 0.950300
103.500600 0.933800
103.622000 0.932300
103.743300 0.927900
103.864600 0.914700
103.985900 0.909400
104.107300 0.900800
104.228600 0.892300
104.349900 0.884900
104.471200 0.889600
104.592600 0.893500
104.713900 0.924300
104.835200 0.947000
104.956500 0.965000
105.077900 1.006000
105.199200 1.100800
105.320500 0.969200
105.441800 0.937100
105.563200 0.889600
105.684500 0.870400
105.805800 0.846800
105.927100 0.846400
106.048500 0.849500
106.169800 0.846800
106.291100 0.843700
106.412400 0.855800
106.533800 0.869900
106.655100 0.859700
106.776400 0.901200
106.897700 0.905400
107.019100 0.893900
107.140400 0.882800
107.261700 0.875800
107.383000 0.904200
107.504400 0.869500
107.625700 0.854500
107.747000 0.844500
107.868300 0.851700
107.989700 0.863100
108.111000 0.879200
108.232300 0.913800
108.353600 0.928400
108.475000 0.959500
108.596300 0.942700
108.717600 0.946900
108.838900 0.971900
108.960300 1.036700
109.081600 1.031800
109.202900 1.008300
109.324200 1.005100
109.445600 1.001000
109.566900 0.977600
109.688200 0.975400
109.809500 0.964600
109.930900 0.954500
110.052200 0.934800
110.173500 0.947000
110.294800 0.959200
110.416200 0.970500
110.537500 0.967300
110.658800 0.961600
110.780100 0.960200
110.901500 0.935200
111.022800 0.906600
111.144100 0.880300
111.265400 0.861200
111.386800 0.863200
111.508100 0.870800
111.629400 0.887600
111.750700 0.911000
111.872100 0.894300
111.993400 0.891600
112.114700 0.893600
112.236000 0.906200
112.357400 0.908900
112.478700 0.921300
112.600000 0.901500
112.721300 0.884100
112.842700 0.871700
112.964000 0.871000
113.085300 0.882300
113.206600 0.898200
113.328000 0.895900
113.449300 0.905900
113.570600 0.918000
113.691900 0.922700
113.813300 0.933100
113.934600 0.971400
114.055900 0.964800
114.177200 0.951100
114.298600 0.952100
114.419900 0.946400
114.541200 0.969500
114.662500 0.974700
114.783900 0.988000
114.905200 1.008000
115.026500 1.196600
115.147800 1.047000
115.269200 1.044700
115.390500 1.035400
115.511800 1.022200
115.633100 0.986100
115.754500 0.981000
115.875800 0.988600
115.997100 0.987900
116.118400 0.972900
116.239800 0.947900
116.361100 0.930100
116.482400 0.936400
116.603700 0.945800
116.725100 0.904500
116.846400 0.899000
116.967700 0.867600
117.089000 0.877600
117.210400 0.906100
117.331700 0.919100
117.453000 0.910500
117.574300 0.905800
117.695700 0.905600
117.817000 0.896900
117.938300 0.952400
118.059600 0.930300
118.181000 0.900700
118.302300 0.888400
118.423600 0.883300
118.544900 0.937500
118.666300 0.932000
118.787600 0.895800
118.908900 0.910600
119.030200 0.925200
119.151600 0.978600
119.272900 0.997700
119.394200 1.012200
119.515500 1.017700
119.636900 0.980600
119.758200 0.975500
119.879500 0.973900
120.000800 0.974600
120.122200 0.949100
120.243500 0.955600
120.364800 0.954400
120.486100 0.954400
120.607500 0.961600
120.728800 0.987300
120.850100 0.966400
120.971400 0.976700
121.092800 0.980100
121.214100 0.973300
121.335400 0.982500
121.456700 1.003500
121.578100 1.017000
121.699400 1.023100
121.820700 1.016300
121.942000 1.018400
122.063400 1.045500
122.184700 1.037600
122.306000 1.024900
122.427300 1.001600
122.548700 0.980600
122.670000 0.977100
122.791300 0.973600
122.912600 0.983700
123.034000 0.976200
123.155300 0.957500
123.276600 0.955700
123.397900 0.937800
123.519300 0.940000
123.640600 0.928900
123.761900 0.930700
123.883200 0.927200
124.004600 0.923800
124.125900 0.923600
124.247200 0.902200
124.368500 0.880900
124.489900 0.886700
124.611200 0.907300
124.732500 0.928600
124.853800 0.907300
124.975200 0.909300
125.096500 0.943300
125.217800 0.963600
125.339100 0.973700
125.460500 0.994800
125.581800 1.033700
125.703100 1.033700
125.824400 1.049000
125.945800 1.058000
126.067100 1.072000
126.188400 1.115300
126.309700 1.056000
126.431100 1.054700
126.552400 1.051800
126.673700 1.044200
126.795000 1.018600
126.916400 1.013600
127.037700 1.024400
127.159000 1.042700
127.280300 1.054000
127.401700 1.035800
127.523000 1.012300
127.644300 0.988400
127.765600 0.966700
127.887000 0.948300
128.008300 0.944300
128.129600 0.940000
128.250900 0.944000
128.372300 0.958300
128.493600 0.980600
128.614900 0.999700
128.736200 1.031100
128.857600 1.071300
128.978900 1.048700
129.100200 1.010900
129.221500 0.996500
129.342900 0.974600
129.464200 0.933800
129.585500 0.931300
129.706800 0.928400
129.828200 0.965100
129.949500 0.973500
130.070800 0.957500
130.192100 0.964300
130.313500 0.980200
130.434800 1.009100
130.556100 1.065100
130.677400 1.105200
130.798800 1.122000
130.920100 1.089900
131.041400 1.065600
131.162700 1.048400
131.284100 1.010800
131.405400 1.003200
131.526700 0.966100
131.648000 0.916300
131.769400 0.900700
131.890700 0.922400
132.012000 0.907800
132.133300 0.952300
132.254700 0.994100
132.376000 1.018200
132.497300 1.047500
132.618600 1.069400
132.740000 1.098600
132.861300 1.103100
132.982600 1.051100
133.103900 1.026900
133.225300 1.011200
133.346600 1.011800
133.467900 1.012700
133.589200 1.036300
133.710600 1.040000
133.831900 1.048600
133.953200 1.088000
134.074500 1.088000
134.195900 1.074500
134.317200 1.104500
134.438500 1.092900
134.559800 1.093300
134.681200 1.020700
134.802500 0.996600
134.923800 0.973300
135.045100 0.945000
135.166500 0.924200
135.287800 0.932300
135.409100 0.938200
135.530400 0.940700
135.651800 0.961000
135.773100 0.979800
135.894400 1.009000
136.015700 1.006000
136.137100 1.005900
136.258400 1.038100
136.379700 1.046300
136.501000 1.095900
136.622400 1.050800
136.743700 1.052000
136.865000 1.097200
136.986300 1.042600
137.107700 1.031800
137.229000 1.012000
137.350300 0.967500
137.471600 0.973200
137.593000 0.970400
137.714300 0.974200
137.835600 0.984600
137.956900 0.989700
138.078300 1.017200
138.199600 1.036000
138.320900 1.020800
138.442200 1.008200
138.563600 1.030100
138.684900 1.029300
138.806200 0.977600
138.927500 0.973400
139.048900 1.029100
139.170200 1.036300
139.291500 1.038700
139.412800 1.025500
139.534200 1.026700
139.655500 1.058800
139.776800 1.069500
139.898100 1.080700
140.019500 1.108400
140.140800 1.123500
140.262100 1.121100
140.383400 1.079000
140.504800 1.098300
140.626100 1.103200
140.747400 1.075700
140.868700 1.064800
140.990100 1.070100
141.111400 1.076200
141.232700 1.052900
141.354000 1.040300
141.475400 1.018400
141.596700 1.019100
141.718000 0.974700
141.839300 0.961100
141.960700 0.938400
142.082000 0.936800
142.203300 0.942900
142.324600 0.968200
142.446000 1.006600
142.567300 1.027400
142.688600 1.020800
142.809900 1.013400
142.931300 1.021400
143.052600 1.032000
143.173900 1.051500
143.295200 1.047900
143.416600 1.062000
143.537900 1.115800
143.659200 1.117200
143.780500 1.115200
143.901900 1.108200
144.023200 1.081000
144.144500 1.070400
144.265800 1.058500
144.387200 1.054700
144.508500 1.041400
144.629800 1.043700
144.751100 1.022000
144.872500 1.024900
144.993800 1.017000
145.115100 1.026900
145.236400 1.039300
145.357800 1.086900
145.479100 1.083600
145.600400 1.067900
145.721700 1.097100
145.843100 1.104200
145.964400 1.117200
146.085700 1.112500
146.207000 1.097300
146.328400 1.111000
146.449700 1.114600
146.571000 1.161300
146.692300 1.162600
146.813700 1.156100
146.935000 1.114500
147.056300 1.104400
147.177600 1.087400
147.299000 1.056000
147.420300 1.047600
147.541600 1.071600
147.662900 1.069800
147.784300 1.026700
147.905600 1.017000
148.026900 0.995300
148.148200 0.999400
148.269600 1.012400
148.390900 0.985800
148.512200 0.985800
148.633500 0.986500
148.754900 0.987400
148.876200 1.007900
148.997500 1.034200
149.118800 1.060200
149.240200 1.061100
149.361500 1.067300
149.482800 1.084900
149.604100 1.101800
149.725500 1.138900
149.846800 1.093800
149.968100 1.057500
150.089400 1.078400
150.210800 1.068700
150.332100 1.088500
150.453400 1.048700
150.574700 1.026900
150.696100 1.443100
150.817400 0.992800
150.938700 0.957800
151.060000 0.964700
151.181400 0.997300
151.302700 1.052400
151.424000 1.091400
151.545300 1.118700
151.666700 1.158900
151.788000 1.117400
151.909300 1.121500
152.030600 1.124500
152.152000 1.139800
152.273300 1.141200
152.394600 1.122700
152.515900 1.120000
152.637300 1.140100
152.758600 1.113700
152.879900 1.141000
153.001200 1.127900
153.122600 1.158500
153.243900 1.168100
153.365200 1.162700
153.486500 1.139100
153.607900 1.120800
153.729200 1.102500
153.850500 1.111800
153.971800 1.094400
154.093200 1.063200
154.214500 1.052600
154.335800 1.049600
154.457100 1.048400
154.578500 1.043200
154.699800 1.023100
154.821100 1.026300
154.942400 1.026800
155.063800 1.028400
155.185100 1.049000
155.306400 1.037100
155.427700 1.059600
155.549100 1.101200
155.670400 1.161400
155.791700 1.221200
155.913000 1.206500
156.034400 1.148900
156.155700 1.148100
156.277000 1.148800
156.398300 1.098200
156.519700 1.051400
156.641000 1.027200
156.762300 1.016900
156.883600 1.043100
157.005000 1.117500
157.126300 1.112900
157.247600 1.144700
157.368900 1.068000
157.490300 1.042500
157.611600 1.041300
157.732900 1.079900
157.854200 1.068600
157.975600 1.086300
158.096900 1.086200
158.218200 1.110800
158.339500 1.118300
158.460900 1.150800
158.582200 1.150900
158.703500 1.118900
158.824800 1.094000
158.946200 1.088300
159.067500 1.015600
159.188800 0.956600
159.310100 0.945700
159.431500 0.961100
159.552800 0.993400
159.674100 0.968400
159.795400 0.999600
159.916700 1.035600
160.038100 1.070200
160.159400 1.146300
160.280700 1.293100
160.402000 1.295400
160.523400 1.303300
160.644700 1.277200
160.766000 1.243100
160.887300 1.286600
161.008700 1.101500
161.130000 1.078000
161.251300 1.069700
161.372600 1.061700
161.494000 1.040900
161.615300 1.036800
161.736600 1.025000
161.857900 1.024300
161.979300 1.045500
162.100600 1.093500
162.221900 1.135300
162.343200 1.155200
162.464600 1.177700
162.585900 1.167700
162.707200 1.162300
162.828500 1.112200
162.949900 1.101800
163.071200 1.094500
163.192500 1.090900
163.313800 1.070700
163.435200 1.009400
163.556500 1.003400
163.677800 1.004100
163.799100 1.038100
163.920500 1.066500
164.041800 1.136500
164.163100 1.162500
164.284400 1.162300
164.405800 1.150600
164.527100 1.200300
164.648400 1.105900
164.769700 1.088500
164.891100 1.094300
165.012400 1.189900
165.133700 1.104900
165.255000 1.135900
165.376400 1.195700
165.497700 1.181400
165.619000 1.155000
165.740300 1.176000
165.861700 1.176300
165.983000 1.263400
166.104300 1.174300
166.225600 1.171100
166.347000 1.145300
166.468300 1.127400
166.589600 1.122000
166.710900 1.125800
166.832300 1.149900
166.953600 1.199500
167.074900 1.192300
167.196200 1.187300
167.317600 1.141600
167.438900 1.104800
167.560200 1.094800
167.681500 1.108900
167.802900 1.129300
167.924200 1.146500
168.045500 1.135900
168.166800 1.113100
168.288200 1.106300
168.409500 1.108500
168.530800 1.115900
168.652100 1.121700
168.773500 1.115400
168.894800 1.115000
169.016100 1.109000
169.137400 1.051000
169.258800 1.054700
169.380100 1.064400
169.501400 1.093300
169.622700 1.143400
169.744100 1.149300
169.865400 1.158000
169.986700 1.145500
170.108000 1.118500
170.229400 1.119700
170.350700 1.115100
170.472000 1.116200
170.593300 1.138700
170.714700 1.149300
170.836000 1.183600
170.957300 1.180000
171.078600 1.188300
171.200000 1.182500
171.321300 1.168600
171.442600 1.153000
171.563900 1.160200
171.685300 1.167900
171.806600 1.150400
171.927900 1.154100
172.049200 1.159700
172.170600 1.243600
172.291900 1.182600
172.413200 1.182700
172.534500 1.153400
172.655900 1.139500
172.777200 1.157700
172.898500 1.180400
173.019800 1.183600
173.141200 1.179000
173.262500 1.169600
173.383800 1.152900
173.505100 1.143500
173.626500 1.143100
173.747800 1.115900
173.869100 1.128300
173.990400 1.127600
174.111800 1.141500
174.233100 1.171700
174.354400 1.178400
174.475700 1.152700
174.597100 1.159000
174.718400 1.160400
174.839700 1.169100
174.961000 1.203800
175.082400 1.197300
175.203700 1.201700
175.325000 1.209100
175.446300 1.187900
175.567700 1.145900
175.689000 1.122700
175.810300 1.127500
175.931600 1.128100
176.053000 1.131700
176.174300 1.145400
176.295600 1.163500
176.416900 1.189400
176.538300 1.223500
176.659600 1.228500
176.780900 1.199300
176.902200 1.177800
177.023600 1.163100
177.144900 1.140900
177.266200 1.119000
177.387500 1.113800
177.508900 1.097600
177.630200 1.130200
177.751500 1.134100
177.872800 1.119800
177.994200 1.117900
178.115500 1.125800
178.236800 1.132400
178.358100 1.153900
178.479500 1.162200
178.600800 1.165700
178.722100 1.171300
178.843400 1.171700
178.964800 1.187500
179.086100 1.204700
179.207400 1.167900
179.328700 1.147800
179.450100 1.154800
179.571400 1.186900
179.692700 1.191800
179.814000 1.184500
179.935400 1.181500
180.056700 1.181000
180.178000 1.189300
180.299300 1.212500
180.420700 1.220100
180.542000 1.236500
180.663300 1.256600
180.784600 1.158800
180.906000 1.160400
181.027300 1.158500
181.148600 1.145600
181.269900 1.136300
181.391300 1.130000
181.512600 1.138100
181.633900 1.136300
181.755200 1.141500
181.876600 1.162300
181.997900 1.182700
182.119200 1.195400
182.240500 1.225000
182.361900 1.194200
182.483200 1.189500
182.604500 1.216900
182.725800 1.226900
182.847200 1.246300
182.968500 1.237700
183.089800 1.204900
183.211100 1.204200
183.332500 1.194300
183.453800 1.185900
183.575100 1.142500
183.696400 1.128900
183.817800 1.150700
183.939100 1.198300
184.060400 1.208100
184.181700 1.204500
184.303100 1.141200
184.424400 1.113700
184.545700 1.063000
184.667000 1.047500
184.788400 1.086800
184.909700 1.103200
185.031000 1.141400
185.152300 1.150700
185.273700 1.149000
185.395000 1.137100
185.516300 1.121600
185.637600 1.105500
185.759000 1.107000
185.880300 1.121300
186.001600 1.129500
186.122900 1.167600
186.244300 1.174100
186.365600 1.193100
186.486900 1.310300
186.608200 1.265200
186.729600 1.239300
186.850900 1.223000
186.972200 1.204300
187.093500 1.191200
187.214900 1.167600
187.336200 1.147600
187.457500 1.153400
187.578800 1.165300
187.700200 1.141400
187.821500 1.115600
187.942800 1.098400
188.064100 1.079600
188.185500 1.029000
188.306800 1.004700
188.428100 0.985300
188.549400 0.957400
188.670800 0.943000
188.792100 0.930300
188.913400 0.903500
189.034700 0.884300
189.156100 0.856400
189.277400 1.049800
189.398700 0.805700
189.520000 0.767800
189.641400 0.743600
189.762700 0.720800
189.884000 0.695700
190.005300 0.669900
190.126700 0.638700
190.248000 0.619300
190.369300 0.609400
190.490600 0.605800
190.612000 0.592300
190.733300 0.580700
190.854600 0.568500
190.975900 0.561400
191.097300 0.554200
191.218600 0.547000
191.339900 0.542800
191.461200 0.544200
191.582600 0.546200
191.703900 0.535800
191.825200 0.518300
191.946500 0.496600
192.067900 0.471200
192.189200 0.456100
192.310500 0.446000
192.431800 0.418800
192.553200 0.395700
192.674500 0.384700
192.795800 0.367400
192.917100 0.354400
193.038500 0.342100
193.159800 0.331400
193.281100 0.317000
193.402400 0.307500
193.523800 0.300100
193.645100 0.292100
193.766400 0.284900
193.887700 0.277000
194.009100 0.269700
194.130400 0.271500
194.251700 0.262800
194.373000 0.248600
194.494400 0.242900
194.615700 0.239600
194.737000 0.228100
194.858300 0.221400
194.979700 0.216200
195.101000 0.213800
195.222300 0.213100
195.343600 0.210400
195.465000 0.205800
195.586300 0.211200
195.707600 0.231600
195.828900 0.227300
195.950300 0.228500
196.071600 0.230700
196.192900 0.228400
196.314200 0.227700
196.435600 0.207500
196.556900 0.172700
196.678200 0.142500
196.799500 0.128200
196.920900 0.122300
197.042200 0.114900
197.163500 0.110500
197.284800 0.106200
197.406200 0.102600
197.527500 0.099400
197.648800 0.096000
197.770100 0.092500
197.891500 0.089700
198.012800 0.087700
198.134100 0.084800
198.255400 0.082500
198.376800 0.082000
198.498100 0.080300
198.619400 0.078500
198.740700 0.070900
198.862100 0.059200
198.983400 0.053600
199.104700 0.052700
199.226000 0.052000
199.347400 0.051000
199.468700 0.047600
199.590000 0.042200
199.711300 0.042200
199.832700 0.036600
199.954000 0.033800
200.075300 0.031900
200.196600 0.029900
200.318000 0.028100
200.439300 0.026400
200.560600 0.024700
200.681900 0.023100
200.803300 0.021700
200.924600 0.018900
201.045900 0.018800
201.167200 0.018600
201.288600 0.018200
201.409900 0.016600
201.531200 0.016200
201.652500 0.015600
201.773900 0.014700
201.895200 0.013800
202.016500 0.012900
202.137800 0.012100
202.259200 0.011300
202.380500 0.015300
202.501800 0.009800
202.623100 0.009000
202.744500 0.011600
202.865800 0.006300
202.987100 0.005900
203.108400 0.005500
203.229800 0.005100
203.351100 0.004700
203.472400 0.004300
203.593700 0.004000
203.715100 0.003600
203.836400 0.003300
203.957700 0.003000
204.079000 0.002700
204.200400 0.002400
204.321700 0.007800
204.443000 0.001000
204.564300 0.001900
204.685700 0.000100
204.807000 0.000000
204.928300 0.000000
205.049600 0.000000
205.171000 0.000000
205.292300 0.000000
205.413600 0.000000
205.534900 0.000000
205.656300 0.000000
205.777600 0.000000
205.898900 0.000000
206.020200 0.000000
206.141600 0.000000
206.262900 0.000000
206.384200 0.000000
206.505500 0.000000
206.626900 0.000000
206.748200 0.000000
206.869500 0.000000
206.990800 0.000000
207.112200 0.000000
207.233500 0.000000
207.354800 0.000000
207.476100 0.000000
207.597500 0.000000
207.718800 0.000000
207.840100 0.000000
207.961400 0.000000
208.082800 0.000000
208.204100 0.000000
208.325400 0.000000
208.446700 0.000000
208.568100 0.000000
208.689400 0.000000
208.810700 0.000000
208.932000 0.000000
209.053400 0.000000
209.174700 0.000000
209.296000 0.000000
209.417300 0.000000
209.538700 0.000000
209.660000 0.000000
209.781300 0.000000
209.902600 0.000000
210.024000 0.000000
210.145300 0.000000
210.266600 0.000000
210.387900 0.000000
210.509300 0.000000
210.630600 0.000000
210.751900 0.000000
210.873200 0.000000
210.994600 0.000000
211.115900 0.000000
211.237200 0.000000
211.358500 0.000000
211.479900 0.000000
211.601200 0.000000
211.722500 0.000000
211.843800 0.000000
211.965200 0.000000
212.086500 0.000000
212.207800 0.000000
212.329100 0.000000
212.450500 0.000000
212.571800 0.000000
212.693100 0.000000
212.814400 0.000000
212.935800 0.000000
213.057100 0.000000
213.178400 0.000000
213.299700 0.000000
213.421100 0.000000
213.542400 0.000000
213.663700 0.000000
213.785000 0.000000
213.906400 0.000000
214.027700 0.000000
214.149000 0.000000
214.270300 0.000000
214.391700 0.000000
214.513000 0.000000
214.634300 0.000000
214.755600 0.000000
214.877000 0.000000
214.998300 0.000000
215.119600 0.000000
215.240900 0.000000
215.362300 0.000000
215.483600 0.000000
215.604900 0.000000
215.726200 0.000000
e
