set title 'mp-1101783 - Density of States'
set xlabel 'Energy (eV)'
set ylabel 'DOS (states/eV)'
set grid
set xrange [-10:10]
set yrange [0:27.462]
set xzeroaxis lt -1
set terminal png size 800,600
set output 'mp-1101783_dos_gnuplot.png'
plot '-' using 1:2 with lines title 'DOS'
-7.270400 0.000000
-7.259000 0.000000
-7.247600 0.000000
-7.236200 0.000000
-7.224800 0.000000
-7.213400 0.000000
-7.202000 0.000000
-7.190600 0.000000
-7.179200 0.000000
-7.167900 0.000000
-7.156500 0.000000
-7.145100 0.000000
-7.133700 0.000000
-7.122300 0.000000
-7.110900 0.000000
-7.099500 0.000000
-7.088100 0.000000
-7.076700 0.000000
-7.065300 0.000000
-7.053900 0.000000
-7.042500 0.000000
-7.031100 0.000000
-7.019700 0.000000
-7.008400 0.000000
-6.997000 0.000000
-6.985600 0.000000
-6.974200 0.000000
-6.962800 0.000000
-6.951400 0.000000
-6.940000 0.000000
-6.928600 0.000000
-6.917200 0.000000
-6.905800 0.000000
-6.894400 0.000000
-6.883000 0.000000
-6.871600 0.000000
-6.860200 0.000000
-6.848800 0.000000
-6.837500 0.000000
-6.826100 0.000000
-6.814700 0.000000
-6.803300 0.000000
-6.791900 0.000000
-6.780500 0.000000
-6.769100 0.000000
-6.757700 0.000000
-6.746300 0.000000
-6.734900 0.000000
-6.723500 0.000000
-6.712100 0.000000
-6.700700 0.000000
-6.689300 0.000000
-6.678000 0.000000
-6.666600 0.000000
-6.655200 0.000000
-6.643800 0.000000
-6.632400 0.000000
-6.621000 0.000000
-6.609600 0.000000
-6.598200 0.000000
-6.586800 0.000000
-6.575400 0.000000
-6.564000 0.000000
-6.552600 0.000000
-6.541200 0.000000
-6.529800 0.000000
-6.518500 0.000000
-6.507100 0.000000
-6.495700 0.000000
-6.484300 0.000000
-6.472900 0.000000
-6.461500 0.000000
-6.450100 0.000000
-6.438700 0.000000
-6.427300 0.000000
-6.415900 0.000000
-6.404500 0.000000
-6.393100 0.000000
-6.381700 0.000000
-6.370300 0.000000
-6.359000 0.000000
-6.347600 0.000000
-6.336200 0.000000
-6.324800 0.000000
-6.313400 0.000000
-6.302000 0.000000
-6.290600 0.000000
-6.279200 0.000000
-6.267800 0.000000
-6.256400 0.000000
-6.245000 0.000000
-6.233600 0.000200
-6.222200 0.034000
-6.210800 0.124800
-6.199500 0.272600
-6.188100 0.443800
-6.176700 0.516600
-6.165300 0.549200
-6.153900 0.552500
-6.142500 0.597800
-6.131100 0.654700
-6.119700 0.713200
-6.108300 0.773100
-6.096900 0.832400
-6.085500 0.889200
-6.074100 0.931000
-6.062700 0.956000
-6.051300 0.969900
-6.039900 0.988400
-6.028600 1.017700
-6.017200 1.049800
-6.005800 1.083000
-5.994400 1.117200
-5.983000 1.151800
-5.971600 1.186300
-5.960200 1.220900
-5.948800 1.253600
-5.937400 1.285800
-5.926000 1.319600
-5.914600 1.355500
-5.903200 1.388900
-5.891800 1.415400
-5.880400 1.436000
-5.869100 1.454100
-5.857700 1.477000
-5.846300 1.501300
-5.834900 1.526200
-5.823500 1.551400
-5.812100 1.576900
-5.800700 1.602400
-5.789300 1.627800
-5.777900 1.653300
-5.766500 1.680500
-5.755100 1.708700
-5.743700 1.737000
-5.732300 1.764900
-5.720900 1.792800
-5.709600 1.821200
-5.698200 1.850200
-5.686800 1.879800
-5.675400 1.917100
-5.664000 2.046000
-5.652600 2.163500
-5.641200 2.271800
-5.629800 2.148900
-5.618400 2.166700
-5.607000 2.185300
-5.595600 2.207100
-5.584200 2.247300
-5.572800 2.298400
-5.561400 2.346500
-5.550100 2.372400
-5.538700 2.374300
-5.527300 2.361700
-5.515900 2.351600
-5.504500 2.350300
-5.493100 2.353600
-5.481700 2.364800
-5.470300 2.379700
-5.458900 2.393300
-5.447500 2.408500
-5.436100 2.436100
-5.424700 2.447600
-5.413300 2.418200
-5.401900 2.358000
-5.390600 2.296700
-5.379200 2.370400
-5.367800 2.478400
-5.356400 2.622300
-5.345000 2.550500
-5.333600 2.656000
-5.322200 2.750200
-5.310800 2.811600
-5.299400 2.858500
-5.288000 2.910000
-5.276600 2.936600
-5.265200 2.936200
-5.253800 2.913000
-5.242400 2.863300
-5.231000 2.821600
-5.219700 2.794800
-5.208300 2.803600
-5.196900 2.825400
-5.185500 2.855100
-5.174100 2.890300
-5.162700 2.932300
-5.151300 2.986800
-5.139900 3.044600
-5.128500 3.115600
-5.117100 3.194600
-5.105700 3.275200
-5.094300 3.408100
-5.082900 3.579900
-5.071500 3.723600
-5.060200 3.757200
-5.048800 3.747000
-5.037400 3.748300
-5.026000 3.808900
-5.014600 3.908300
-5.003200 4.034700
-4.991800 4.164700
-4.980400 4.330700
-4.969000 4.414900
-4.957600 4.461800
-4.946200 4.614800
-4.934800 4.947600
-4.923400 4.991700
-4.912000 4.916000
-4.900700 5.124100
-4.889300 5.211200
-4.877900 4.950400
-4.866500 4.998400
-4.855100 5.100900
-4.843700 4.946600
-4.832300 4.909100
-4.820900 5.075300
-4.809500 4.558800
-4.798100 4.378800
-4.786700 4.293200
-4.775300 4.187000
-4.763900 4.085600
-4.752500 4.150700
-4.741200 3.525200
-4.729800 3.439200
-4.718400 3.378400
-4.707000 3.435900
-4.695600 3.636500
-4.684200 3.930200
-4.672800 4.153100
-4.661400 4.710000
-4.650000 5.070400
-4.638600 5.192200
-4.627200 5.465800
-4.615800 5.536400
-4.604400 5.637300
-4.593000 5.725000
-4.581700 5.651600
-4.570300 5.573600
-4.558900 5.591900
-4.547500 5.805300
-4.536100 6.270000
-4.524700 6.648200
-4.513300 6.416900
-4.501900 6.934600
-4.490500 6.932200
-4.479100 7.065000
-4.467700 7.127700
-4.456300 7.147800
-4.444900 7.179800
-4.433500 7.236400
-4.422200 7.451200
-4.410800 7.692400
-4.399400 7.733700
-4.388000 7.900900
-4.376600 8.139600
-4.365200 7.698900
-4.353800 7.997400
-4.342400 7.642400
-4.331000 7.310600
-4.319600 8.435400
-4.308200 9.160300
-4.296800 9.581700
-4.285400 9.704900
-4.274000 9.795300
-4.262600 9.852300
-4.251300 10.057200
-4.239900 10.278100
-4.228500 10.395100
-4.217100 11.081700
-4.205700 11.885600
-4.194300 12.046900
-4.182900 9.297800
-4.171500 6.703600
-4.160100 6.485700
-4.148700 6.503100
-4.137300 6.095900
-4.125900 5.648800
-4.114500 5.290600
-4.103100 5.033600
-4.091800 4.690600
-4.080400 4.456800
-4.069000 4.408900
-4.057600 4.085800
-4.046200 3.576600
-4.034800 3.172600
-4.023400 3.034700
-4.012000 3.115100
-4.000600 3.221000
-3.989200 3.343200
-3.977800 3.493500
-3.966400 3.661600
-3.955000 3.820500
-3.943600 3.951500
-3.932300 4.042200
-3.920900 4.112400
-3.909500 4.189400
-3.898100 4.262300
-3.886700 4.363100
-3.875300 4.508700
-3.863900 4.695800
-3.852500 4.872000
-3.841100 5.009800
-3.829700 5.017400
-3.818300 5.205300
-3.806900 5.417200
-3.795500 5.598400
-3.784100 5.717800
-3.772800 5.917700
-3.761400 6.038500
-3.750000 6.166600
-3.738600 6.270500
-3.727200 6.429400
-3.715800 6.552400
-3.704400 6.717100
-3.693000 6.950400
-3.681600 7.344300
-3.670200 7.624800
-3.658800 7.681100
-3.647400 7.776900
-3.636000 7.880100
-3.624600 7.785400
-3.613300 7.927600
-3.601900 8.191000
-3.590500 8.125800
-3.579100 8.113900
-3.567700 8.142300
-3.556300 7.893800
-3.544900 7.326300
-3.533500 6.605600
-3.522100 5.838400
-3.510700 5.017300
-3.499300 4.694200
-3.487900 4.469800
-3.476500 4.319200
-3.465100 4.116400
-3.453700 3.906000
-3.442400 3.829800
-3.431000 4.295000
-3.419600 5.230900
-3.408200 6.810700
-3.396800 7.135200
-3.385400 6.513800
-3.374000 6.680900
-3.362600 6.726800
-3.351200 7.071000
-3.339800 7.421000
-3.328400 10.969900
-3.317000 10.570900
-3.305600 10.621200
-3.294200 11.503200
-3.282900 11.556700
-3.271500 13.847800
-3.260100 18.580900
-3.248700 17.184900
-3.237300 16.908800
-3.225900 14.972100
-3.214500 13.760900
-3.203100 13.256700
-3.191700 13.354800
-3.180300 13.076500
-3.168900 12.489300
-3.157500 12.247500
-3.146100 11.694000
-3.134700 10.657100
-3.123400 10.016000
-3.112000 9.260600
-3.100600 8.673300
-3.089200 8.456700
-3.077800 8.066200
-3.066400 7.144500
-3.055000 5.931500
-3.043600 5.818900
-3.032200 6.936700
-3.020800 2.744700
-3.009400 0.000000
-2.998000 0.000000
-2.986600 0.000000
-2.975200 0.000000
-2.963900 0.000000
-2.952500 0.000000
-2.941100 0.000000
-2.929700 0.000000
-2.918300 0.000000
-2.906900 0.000000
-2.895500 0.000000
-2.884100 0.000000
-2.872700 0.000000
-2.861300 0.000000
-2.849900 0.000000
-2.838500 0.000000
-2.827100 0.000000
-2.815700 0.000000
-2.804400 0.000000
-2.793000 0.000000
-2.781600 0.000000
-2.770200 0.000000
-2.758800 0.000000
-2.747400 0.000000
-2.736000 0.000000
-2.724600 0.000000
-2.713200 0.000000
-2.701800 0.000000
-2.690400 0.000000
-2.679000 0.000000
-2.667600 0.000000
-2.656200 0.000000
-2.644800 0.000000
-2.633500 0.000000
-2.622100 0.000000
-2.610700 0.000000
-2.599300 0.000000
-2.587900 0.000000
-2.576500 0.000000
-2.565100 0.000000
-2.553700 0.000000
-2.542300 0.000000
-2.530900 0.000000
-2.519500 0.000000
-2.508100 0.000000
-2.496700 0.000000
-2.485300 0.000000
-2.474000 0.000000
-2.462600 0.000000
-2.451200 0.000000
-2.439800 0.000000
-2.428400 0.000000
-2.417000 0.000000
-2.405600 0.000000
-2.394200 0.000000
-2.382800 0.000000
-2.371400 0.000000
-2.360000 0.000000
-2.348600 0.000000
-2.337200 0.000000
-2.325800 0.000000
-2.314500 0.000000
-2.303100 0.000000
-2.291700 0.000000
-2.280300 0.000000
-2.268900 0.000000
-2.257500 0.000000
-2.246100 0.000000
-2.234700 0.000000
-2.223300 0.000000
-2.211900 0.000000
-2.200500 0.000000
-2.189100 0.000000
-2.177700 0.000000
-2.166300 0.000000
-2.155000 0.000000
-2.143600 0.000000
-2.132200 0.000000
-2.120800 0.000000
-2.109400 0.000000
-2.098000 0.000000
-2.086600 0.000000
-2.075200 0.000000
-2.063800 0.000000
-2.052400 0.000000
-2.041000 0.000000
-2.029600 0.000000
-2.018200 0.000000
-2.006800 0.000000
-1.995500 0.000000
-1.984100 0.000000
-1.972700 0.000000
-1.961300 0.000000
-1.949900 0.000000
-1.938500 0.000000
-1.927100 0.000000
-1.915700 0.000000
-1.904300 0.000000
-1.892900 0.000000
-1.881500 0.000000
-1.870100 0.000000
-1.858700 0.000000
-1.847300 0.000000
-1.835900 0.000000
-1.824600 0.000000
-1.813200 0.000000
-1.801800 0.000000
-1.790400 0.000000
-1.779000 0.000000
-1.767600 0.000000
-1.756200 0.000000
-1.744800 0.000000
-1.733400 0.000000
-1.722000 0.000000
-1.710600 0.000000
-1.699200 0.000000
-1.687800 0.000000
-1.676400 0.000000
-1.665100 0.000000
-1.653700 0.000000
-1.642300 0.000000
-1.630900 0.000000
-1.619500 0.000000
-1.608100 0.000000
-1.596700 0.000000
-1.585300 0.000000
-1.573900 0.000000
-1.562500 0.000000
-1.551100 0.000000
-1.539700 0.000000
-1.528300 0.000000
-1.516900 0.000000
-1.505600 0.000000
-1.494200 0.000000
-1.482800 0.000000
-1.471400 0.000000
-1.460000 0.000000
-1.448600 0.000000
-1.437200 0.000000
-1.425800 0.000000
-1.414400 0.000000
-1.403000 0.000000
-1.391600 0.000000
-1.380200 0.000000
-1.368800 0.000000
-1.357400 0.000000
-1.346100 0.000000
-1.334700 0.000000
-1.323300 0.000000
-1.311900 0.000000
-1.300500 0.000000
-1.289100 0.000000
-1.277700 0.000000
-1.266300 0.000000
-1.254900 0.000000
-1.243500 0.000000
-1.232100 0.000000
-1.220700 0.000000
-1.209300 0.000000
-1.197900 0.000000
-1.186600 0.000000
-1.175200 0.000000
-1.163800 0.000000
-1.152400 0.000000
-1.141000 0.000000
-1.129600 0.000000
-1.118200 0.000000
-1.106800 0.000000
-1.095400 0.000000
-1.084000 0.000000
-1.072600 0.000000
-1.061200 0.000000
-1.049800 0.000000
-1.038400 0.000000
-1.027100 0.000000
-1.015700 0.000000
-1.004300 0.000000
-0.992900 0.000000
-0.981500 0.000000
-0.970100 0.000000
-0.958700 0.000000
-0.947300 0.000000
-0.935900 0.000000
-0.924500 0.000000
-0.913100 0.000000
-0.901700 0.000000
-0.890300 0.000000
-0.878900 0.000000
-0.867500 0.000000
-0.856200 0.000000
-0.844800 0.000000
-0.833400 0.000000
-0.822000 0.000000
-0.810600 0.000000
-0.799200 0.000000
-0.787800 0.000000
-0.776400 0.000000
-0.765000 0.000000
-0.753600 0.000000
-0.742200 0.000000
-0.730800 0.000000
-0.719400 0.000000
-0.708000 0.000000
-0.696700 0.000000
-0.685300 0.000000
-0.673900 0.000000
-0.662500 0.000000
-0.651100 0.000000
-0.639700 0.000000
-0.628300 0.000000
-0.616900 0.000000
-0.605500 0.000000
-0.594100 0.000000
-0.582700 0.000000
-0.571300 0.000000
-0.559900 0.000000
-0.548500 0.000000
-0.537200 0.000000
-0.525800 0.000000
-0.514400 0.000000
-0.503000 0.000000
-0.491600 0.000000
-0.480200 0.000000
-0.468800 0.000000
-0.457400 0.000000
-0.446000 0.000000
-0.434600 0.000000
-0.423200 0.000000
-0.411800 0.000000
-0.400400 0.000000
-0.389000 0.000000
-0.377700 0.000000
-0.366300 0.000000
-0.354900 0.000000
-0.343500 0.000000
-0.332100 0.000000
-0.320700 0.000000
-0.309300 0.000000
-0.297900 0.000000
-0.286500 0.000000
-0.275100 0.000000
-0.263700 0.000000
-0.252300 0.000000
-0.240900 0.000000
-0.229500 0.000000
-0.218200 0.000000
-0.206800 0.000000
-0.195400 0.000000
-0.184000 0.000000
-0.172600 0.000000
-0.161200 0.000000
-0.149800 0.000000
-0.138400 0.000000
-0.127000 0.000000
-0.115600 0.000000
-0.104200 0.000000
-0.092800 0.000000
-0.081400 0.000000
-0.070000 0.000000
-0.058600 0.000000
-0.047300 0.000000
-0.035900 0.000000
-0.024500 0.000000
-0.013100 0.000000
-0.001700 0.000000
0.009700 0.000000
0.021100 0.000000
0.032500 0.000000
0.043900 0.000000
0.055300 0.000000
0.066700 0.000000
0.078100 0.000000
0.089500 0.000000
0.100900 0.000000
0.112200 0.000000
0.123600 0.000000
0.135000 0.000000
0.146400 0.000000
0.157800 0.000000
0.169200 0.000000
0.180600 0.000000
0.192000 0.000000
0.203400 0.000000
0.214800 0.000000
0.226200 0.000000
0.237600 0.000000
0.249000 0.000000
0.260400 0.000000
0.271700 0.000000
0.283100 0.000000
0.294500 0.000000
0.305900 0.000000
0.317300 0.000000
0.328700 0.000000
0.340100 0.000000
0.351500 0.000000
0.362900 0.000000
0.374300 0.000000
0.385700 0.000000
0.397100 0.000000
0.408500 0.000000
0.419900 0.000000
0.431200 0.000000
0.442600 0.000000
0.454000 0.000000
0.465400 0.000000
0.476800 0.000000
0.488200 0.000000
0.499600 0.000000
0.511000 0.000000
0.522400 0.000000
0.533800 0.000000
0.545200 0.000000
0.556600 0.000000
0.568000 0.000000
0.579400 0.000000
0.590700 0.000000
0.602100 0.000000
0.613500 0.000000
0.624900 0.000000
0.636300 0.000000
0.647700 0.000000
0.659100 0.000000
0.670500 0.000000
0.681900 0.000000
0.693300 0.000000
0.704700 0.000000
0.716100 0.000000
0.727500 0.000000
0.738900 0.000000
0.750300 0.000000
0.761600 0.000000
0.773000 0.000000
0.784400 0.000000
0.795800 0.000000
0.807200 0.000000
0.818600 0.000000
0.830000 0.000000
0.841400 0.000000
0.852800 0.000000
0.864200 0.000000
0.875600 0.000000
0.887000 0.000000
0.898400 0.001000
0.909800 0.007800
0.921100 0.021100
0.932500 0.040800
0.943900 0.067000
0.955300 0.099600
0.966700 0.137700
0.978100 0.184500
0.989500 0.231100
1.000900 0.269100
1.012300 0.298300
1.023700 0.318800
1.035100 0.331500
1.046500 0.335600
1.057900 0.343500
1.069300 0.355300
1.080600 0.370900
1.092000 0.390700
1.103400 0.412000
1.114800 0.434700
1.126200 0.458700
1.137600 0.483400
1.149000 0.507800
1.160400 0.531700
1.171800 0.554900
1.183200 0.577600
1.194600 0.599500
1.206000 0.621800
1.217400 0.644600
1.228800 0.667900
1.240100 0.692200
1.251500 0.717700
1.262900 0.744200
1.274300 0.772000
1.285700 0.801600
1.297100 0.832700
1.308500 1.000100
1.319900 1.251900
1.331300 1.598100
1.342700 1.883200
1.354100 2.212700
1.365500 2.356300
1.376900 2.630200
1.388300 2.755500
1.399600 2.865200
1.411000 3.089500
1.422400 3.265700
1.433800 3.500100
1.445200 3.930100
1.456600 4.416500
1.468000 4.832300
1.479400 5.154000
1.490800 5.498200
1.502200 6.340500
1.513600 6.851900
1.525000 6.823000
1.536400 6.652100
1.547800 6.416300
1.559100 6.231400
1.570500 5.715300
1.581900 5.841000
1.593300 5.978500
1.604700 6.130300
1.616100 6.178700
1.627500 6.072800
1.638900 6.943200
1.650300 6.705100
1.661700 6.869100
1.673100 7.384600
1.684500 7.521400
1.695900 7.769400
1.707300 8.067400
1.718700 8.391300
1.730000 8.838100
1.741400 8.897500
1.752800 9.090300
1.764200 9.212300
1.775600 9.293500
1.787000 9.588600
1.798400 9.811200
1.809800 10.357700
1.821200 10.904500
1.832600 10.492300
1.844000 9.387700
1.855400 9.078100
1.866800 9.005900
1.878200 9.428100
1.889500 10.691500
1.900900 9.601900
1.912300 9.178200
1.923700 8.952200
1.935100 8.987400
1.946500 9.246700
1.957900 9.667800
1.969300 9.625700
1.980700 9.557300
1.992100 9.193400
2.003500 9.189600
2.014900 8.960900
2.026300 8.134200
2.037700 7.902100
2.049000 7.737700
2.060400 7.675400
2.071800 7.680400
2.083200 7.643900
2.094600 7.615700
2.106000 7.698600
2.117400 7.805900
2.128800 7.953800
2.140200 8.039400
2.151600 6.924900
2.163000 6.470100
2.174400 6.549000
2.185800 6.741100
2.197200 7.118500
2.208500 7.567700
2.219900 7.904000
2.231300 8.173400
2.242700 8.159700
2.254100 8.109100
2.265500 7.883500
2.276900 7.387000
2.288300 6.779200
2.299700 6.247500
2.311100 5.911800
2.322500 5.761600
2.333900 5.826700
2.345300 6.321400
2.356700 7.495700
2.368000 9.096200
2.379400 9.880300
2.390800 10.272400
2.402200 10.792500
2.413600 10.406600
2.425000 9.746900
2.436400 9.561500
2.447800 9.533800
2.459200 9.674100
2.470600 9.835400
2.482000 10.068800
2.493400 10.589200
2.504800 10.456000
2.516200 9.803600
2.527600 9.282300
2.538900 8.876800
2.550300 8.670800
2.561700 8.657100
2.573100 8.671800
2.584500 8.800800
2.595900 8.932400
2.607300 9.160600
2.618700 9.419500
2.630100 9.593800
2.641500 9.695000
2.652900 9.797600
2.664300 9.113500
2.675700 8.466500
2.687100 8.204800
2.698400 8.141500
2.709800 8.249600
2.721200 8.478000
2.732600 8.628800
2.744000 8.690600
2.755400 8.788000
2.766800 8.987700
2.778200 9.031300
2.789600 9.219200
2.801000 9.002900
2.812400 8.376500
2.823800 8.063700
2.835200 7.881100
2.846600 7.912500
2.857900 7.862700
2.869300 7.859900
2.880700 7.911600
2.892100 8.024900
2.903500 8.141300
2.914900 8.335900
2.926300 8.579400
2.937700 8.868900
2.949100 8.641800
2.960500 9.433300
2.971900 7.731300
2.983300 8.451200
2.994700 8.046400
3.006100 7.879600
3.017400 7.653700
3.028800 7.622800
3.040200 7.772200
3.051600 8.063700
3.063000 8.781700
3.074400 9.710700
3.085800 11.218000
3.097200 11.991700
3.108600 10.978500
3.120000 10.679500
3.131400 10.933300
3.142800 11.626100
3.154200 12.264500
3.165600 11.907300
3.176900 11.845500
3.188300 12.591700
3.199700 11.899600
3.211100 10.849000
3.222500 10.019700
3.233900 10.017500
3.245300 10.072200
3.256700 9.818400
3.268100 8.674600
3.279500 8.412500
3.290900 8.151400
3.302300 8.050800
3.313700 7.825700
3.325100 7.715600
3.336500 8.103600
3.347800 8.302800
3.359200 9.050300
3.370600 10.264000
3.382000 11.483200
3.393400 12.616200
3.404800 13.330900
3.416200 13.555400
3.427600 13.755100
3.439000 14.077600
3.450400 14.213300
3.461800 14.266600
3.473200 13.755400
3.484600 12.308100
3.496000 12.183100
3.507300 11.867800
3.518700 11.807600
3.530100 12.153300
3.541500 12.563000
3.552900 12.799000
3.564300 14.606500
3.575700 14.202800
3.587100 14.015000
3.598500 13.396600
3.609900 12.854000
3.621300 12.158000
3.632700 11.545100
3.644100 11.458100
3.655500 10.805300
3.666800 10.599300
3.678200 10.464400
3.689600 10.650500
3.701000 10.582600
3.712400 9.963000
3.723800 9.541900
3.735200 9.507600
3.746600 10.167700
3.758000 10.669900
3.769400 11.705000
3.780800 13.496500
3.792200 16.452300
3.803600 16.770300
3.815000 15.741400
3.826300 16.073600
3.837700 16.740900
3.849100 16.866800
3.860500 16.674400
3.871900 16.359200
3.883300 15.907100
3.894700 15.730500
3.906100 15.426100
3.917500 15.255300
3.928900 14.932900
3.940300 14.407800
3.951700 14.603100
3.963100 15.926200
3.974500 18.391200
3.985800 20.195800
3.997200 21.679400
4.008600 20.164900
4.020000 17.457400
4.031400 16.877300
4.042800 18.319200
4.054200 19.839700
4.065600 20.912300
4.077000 20.239600
4.088400 17.927000
4.099800 16.753300
4.111200 17.291200
4.122600 15.484900
4.134000 14.406800
4.145400 13.849900
4.156700 13.801500
4.168100 14.125800
4.179500 14.068800
4.190900 14.727400
4.202300 16.876200
4.213700 18.844700
4.225100 18.290200
4.236500 18.449300
4.247900 20.047000
4.259300 19.257100
4.270700 17.585000
4.282100 17.185900
4.293500 17.951200
4.304900 16.248300
4.316200 15.825900
4.327600 15.438600
4.339000 14.284300
4.350400 15.277600
4.361800 15.276900
4.373200 15.591300
4.384600 17.569300
4.396000 17.686600
4.407400 20.147800
4.418800 20.765700
4.430200 20.807900
4.441600 23.220500
4.453000 23.755700
4.464400 21.327300
4.475700 20.159300
4.487100 17.087800
4.498500 15.760300
4.509900 15.932300
4.521300 17.277300
4.532700 16.473900
4.544100 18.904600
4.555500 19.171500
4.566900 19.185800
4.578300 20.881000
4.589700 24.965500
4.601100 24.892600
4.612500 24.110600
4.623900 21.344800
4.635200 19.736100
4.646600 19.309900
4.658000 18.302100
4.669400 18.552000
4.680800 17.734600
4.692200 18.144100
4.703600 18.329300
4.715000 17.857400
4.726400 17.323300
4.737800 16.874900
4.749200 16.787400
4.760600 16.580100
4.772000 16.950200
4.783400 16.378800
4.794700 16.516400
4.806100 16.952600
4.817500 17.335700
4.828900 16.713800
4.840300 16.427000
4.851700 16.186900
4.863100 16.597600
4.874500 16.921200
4.885900 17.444100
4.897300 17.534500
4.908700 17.858500
4.920100 18.510900
4.931500 19.509900
4.942900 19.549700
4.954200 19.131100
4.965600 18.487300
4.977000 17.095600
4.988400 15.520200
4.999800 14.818500
5.011200 13.506400
5.022600 12.856200
5.034000 13.844900
5.045400 12.754200
5.056800 12.102400
5.068200 11.401500
5.079600 10.612100
5.091000 10.396200
5.102400 11.192500
5.113800 11.172800
5.125100 11.212600
5.136500 12.234600
5.147900 12.878300
5.159300 13.213300
5.170700 13.689700
5.182100 14.759100
5.193500 15.294900
5.204900 14.495400
5.216300 13.221400
5.227700 12.533700
5.239100 11.873500
5.250500 11.444600
5.261900 11.238600
5.273300 11.249600
5.284600 9.446200
5.296000 8.813000
5.307400 8.879200
5.318800 9.538400
5.330200 9.690500
5.341600 10.108200
5.353000 10.596000
5.364400 10.114400
5.375800 9.819900
5.387200 9.236000
5.398600 8.542900
5.410000 8.447200
5.421400 8.722700
5.432800 9.066100
5.444100 9.271600
5.455500 9.363900
5.466900 9.715700
5.478300 9.612800
5.489700 9.656500
5.501100 10.505200
5.512500 11.114300
5.523900 11.533700
5.535300 12.338100
5.546700 13.412500
5.558100 13.870400
5.569500 16.478100
5.580900 15.593900
5.592300 13.796700
5.603600 13.893000
5.615000 14.198200
5.626400 15.789100
5.637800 16.350700
5.649200 15.012500
5.660600 14.361500
5.672000 14.298000
5.683400 13.880500
5.694800 13.808900
5.706200 13.818500
5.717600 14.020600
5.729000 14.121700
5.740400 14.061400
5.751800 14.125300
5.763100 13.374700
5.774500 12.667100
5.785900 12.466800
5.797300 11.740600
5.808700 11.543100
5.820100 11.458300
5.831500 11.541800
5.842900 11.823300
5.854300 11.705800
5.865700 10.738000
5.877100 10.170100
5.888500 9.944000
5.899900 10.016000
5.911300 10.361200
5.922700 10.884200
5.934000 11.013100
5.945400 10.309300
5.956800 9.999800
5.968200 9.981400
5.979600 10.084000
5.991000 9.933800
6.002400 9.350400
6.013800 8.470200
6.025200 8.602300
6.036600 8.648300
6.048000 8.653100
6.059400 8.332700
6.070800 8.056600
6.082200 7.814800
6.093500 7.732100
6.104900 7.665900
6.116300 7.679900
6.127700 7.742300
6.139100 7.954800
6.150500 8.258500
6.161900 8.624700
6.173300 8.902200
6.184700 8.803000
6.196100 8.916400
6.207500 8.698100
6.218900 8.711600
6.230300 9.040800
6.241700 8.986900
6.253000 8.983500
6.264400 9.065600
6.275800 8.802300
6.287200 8.650900
6.298600 8.178300
6.310000 7.960600
6.321400 7.829500
6.332800 7.430000
6.344200 6.779000
6.355600 6.560200
6.367000 6.514100
6.378400 6.639900
6.389800 6.860000
6.401200 7.150400
6.412500 7.183500
6.423900 8.166000
6.435300 8.184000
6.446700 7.447200
6.458100 6.999600
6.469500 6.387100
6.480900 6.032300
6.492300 5.767100
6.503700 5.173700
6.515100 4.720300
6.526500 4.185500
6.537900 3.833300
6.549300 3.512900
6.560700 3.212500
6.572000 2.878900
6.583400 2.574600
6.594800 2.328200
6.606200 2.238400
6.617600 2.163800
6.629000 2.068200
6.640400 1.960900
6.651800 1.841400
6.663200 1.695900
6.674600 1.614900
6.686000 1.543000
6.697400 2.380200
6.708800 1.697800
6.720200 1.635300
6.731600 1.558000
6.742900 1.469500
6.754300 1.384800
6.765700 1.350200
6.777100 1.292900
6.788500 1.229200
6.799900 1.174600
6.811300 1.128400
6.822700 1.139600
6.834100 1.167600
6.845500 1.199800
6.856900 1.236300
6.868300 1.270200
6.879700 1.288700
6.891100 1.199900
6.902400 1.257700
6.913800 1.316800
6.925200 1.356300
6.936600 1.460600
6.948000 1.579700
6.959400 1.654600
6.970800 1.797300
6.982200 1.979500
6.993600 2.164800
7.005000 2.310700
7.016400 2.461500
7.027800 2.589700
7.039200 2.810700
7.050600 3.155700
7.061900 3.550700
7.073300 4.123100
7.084700 4.768300
7.096100 5.527400
7.107500 6.323500
7.118900 6.187600
7.130300 6.067000
7.141700 5.928200
7.153100 5.801000
7.164500 5.827300
7.175900 6.006900
7.187300 5.968000
7.198700 5.858100
7.210100 5.696500
7.221400 5.557500
7.232800 5.618100
7.244200 5.631500
7.255600 5.726400
7.267000 6.144300
7.278400 6.114000
7.289800 6.125700
7.301200 6.105200
7.312600 6.018100
7.324000 5.952100
7.335400 5.763100
7.346800 5.580100
7.358200 5.448100
7.369600 5.348600
7.380900 5.328200
7.392300 5.395900
7.403700 5.466500
7.415100 5.565800
7.426500 5.671200
7.437900 5.746400
7.449300 5.841300
7.460700 5.937000
7.472100 6.129700
7.483500 6.202400
7.494900 6.223300
7.506300 6.223800
7.517700 6.176300
7.529100 6.135500
7.540400 6.052400
7.551800 6.027800
7.563200 5.996400
7.574600 5.956300
7.586000 5.881400
7.597400 5.841600
7.608800 5.978800
7.620200 6.075200
7.631600 6.255200
7.643000 6.098800
7.654400 5.831500
7.665800 5.858300
7.677200 5.756300
7.688600 5.739500
7.700000 5.711300
7.711300 5.666500
7.722700 5.598500
7.734100 5.505300
7.745500 5.543500
7.756900 5.587100
7.768300 5.649900
7.779700 5.754300
7.791100 5.940900
7.802500 6.095200
7.813900 6.173300
7.825300 6.203200
7.836700 6.221100
7.848100 6.255300
7.859500 6.279400
7.870800 6.239000
7.882200 6.189700
7.893600 6.129500
7.905000 6.050000
7.916400 5.915200
7.927800 5.936000
7.939200 6.119700
7.950600 6.256600
7.962000 6.426600
7.973400 6.625000
7.984800 6.892700
7.996200 7.268400
8.007600 7.610200
8.019000 7.463200
8.030300 7.738700
8.041700 7.012800
8.053100 6.656600
8.064500 6.380000
8.075900 6.139700
8.087300 5.835800
8.098700 5.686200
8.110100 5.625600
8.121500 5.648300
8.132900 5.778300
8.144300 5.837000
8.155700 5.869500
8.167100 5.682500
8.178500 5.565200
8.189800 5.478500
8.201200 5.408100
8.212600 5.344100
8.224000 5.335400
8.235400 5.386400
8.246800 5.522500
8.258200 5.516300
8.269600 5.558900
8.281000 5.655200
8.292400 5.817200
8.303800 5.995700
8.315200 6.168800
8.326600 6.392200
8.338000 6.619400
8.349300 6.875400
8.360700 7.399800
8.372100 7.633000
8.383500 7.404000
8.394900 7.142000
8.406300 6.913900
8.417700 6.748000
8.429100 6.560700
8.440500 6.482800
8.451900 6.286500
8.463300 6.296300
8.474700 6.280600
8.486100 6.308400
8.497500 6.455800
8.508900 6.577100
8.520200 6.684900
8.531600 6.751700
8.543000 6.868800
8.554400 6.975700
8.565800 6.903100
8.577200 6.907900
8.588600 6.890500
8.600000 6.912600
8.611400 6.989100
8.622800 7.118000
8.634200 7.226300
8.645600 7.365300
8.657000 7.356200
8.668400 7.155500
8.679700 6.777200
8.691100 6.086000
8.702500 5.565400
8.713900 5.453400
8.725300 5.551400
8.736700 5.103800
8.748100 5.018400
8.759500 5.167300
8.770900 5.204000
8.782300 5.325200
8.793700 5.822700
8.805100 6.350800
8.816500 6.799100
8.827900 7.029300
8.839200 7.216000
8.850600 7.407400
8.862000 7.320200
8.873400 6.903300
8.884800 6.961100
8.896200 7.120000
8.907600 6.875100
8.919000 6.490400
8.930400 6.557800
8.941800 6.522700
8.953200 6.493400
8.964600 6.391800
8.976000 6.173700
8.987400 6.197000
8.998700 6.365200
9.010100 6.173500
9.021500 6.220200
9.032900 6.061600
9.044300 6.332800
9.055700 7.022000
9.067100 7.328500
9.078500 7.614800
9.089900 7.800900
9.101300 8.033300
9.112700 8.141600
9.124100 8.169400
9.135500 8.031600
9.146900 8.468900
9.158200 8.555100
9.169600 8.217800
9.181000 7.928400
9.192400 7.659100
9.203800 7.316900
9.215200 6.866400
9.226600 6.447500
9.238000 6.256200
9.249400 6.140200
9.260800 6.083700
9.272200 6.226200
9.283600 6.256200
9.295000 6.500000
9.306400 6.906300
9.317800 6.935600
9.329100 6.885200
9.340500 6.904300
9.351900 6.792800
9.363300 6.732200
9.374700 6.792700
9.386100 6.803700
9.397500 6.819700
9.408900 6.651300
9.420300 6.688300
9.431700 6.631100
9.443100 6.476600
9.454500 6.364600
9.465900 6.367900
9.477300 6.460600
9.488600 6.356800
9.500000 6.426300
9.511400 6.688100
9.522800 6.994600
9.534200 6.735200
9.545600 6.704100
9.557000 6.629100
9.568400 6.586400
9.579800 6.427100
9.591200 6.246100
9.602600 6.184400
9.614000 6.280000
9.625400 6.181500
9.636800 6.152800
9.648100 6.176200
9.659500 6.289300
9.670900 6.102200
9.682300 6.157600
9.693700 6.312400
9.705100 6.311200
9.716500 6.381400
9.727900 6.477000
9.739300 6.647700
9.750700 6.857600
9.762100 6.924600
9.773500 6.846100
9.784900 6.803900
9.796300 6.748700
9.807600 6.672200
9.819000 6.723600
9.830400 7.086200
9.841800 7.174900
9.853200 7.037300
9.864600 7.272900
9.876000 7.290700
9.887400 7.235600
9.898800 7.207300
9.910200 6.861000
9.921600 6.587900
9.933000 6.361000
9.944400 6.177500
9.955800 6.105700
9.967100 6.179700
9.978500 6.250900
9.989900 6.287600
10.001300 6.223600
10.012700 6.110000
10.024100 5.938800
10.035500 5.785900
10.046900 5.657200
10.058300 5.485900
10.069700 5.411300
10.081100 5.390100
10.092500 5.459600
10.103900 5.617700
10.115300 5.808600
10.126700 6.394300
10.138000 6.824400
10.149400 7.149700
10.160800 7.281800
10.172200 7.218600
10.183600 7.175400
10.195000 7.233100
10.206400 7.345000
10.217800 7.555700
10.229200 7.879000
10.240600 8.131500
10.252000 8.283900
10.263400 8.439900
10.274800 8.437800
10.286200 8.443900
10.297500 8.176600
10.308900 8.163300
10.320300 7.765800
10.331700 7.498500
10.343100 7.441300
10.354500 7.836400
10.365900 7.855600
10.377300 7.976000
10.388700 8.074100
10.400100 8.060400
10.411500 7.921500
10.422900 7.573100
10.434300 7.703900
10.445700 7.776000
10.457000 7.854000
10.468400 7.854800
10.479800 7.874700
10.491200 8.010500
10.502600 7.698000
10.514000 7.582400
10.525400 7.502100
10.536800 7.382100
10.548200 7.297200
10.559600 7.182100
10.571000 6.960900
10.582400 6.906000
10.593800 6.819500
10.605200 6.729700
10.616500 6.672800
10.627900 6.666900
10.639300 6.837800
10.650700 6.974900
10.662100 6.908500
10.673500 7.097800
10.684900 7.307600
10.696300 7.580900
10.707700 7.931800
10.719100 7.761500
10.730500 7.623700
10.741900 7.501400
10.753300 7.641300
10.764700 7.473100
10.776000 7.333200
10.787400 7.432000
10.798800 7.700900
10.810200 7.803600
10.821600 7.885700
10.833000 7.839200
10.844400 7.703900
10.855800 8.042200
10.867200 8.329400
10.878600 8.125200
10.890000 7.923000
10.901400 7.838500
10.912800 7.776600
10.924200 7.827900
10.935500 7.996700
10.946900 8.261300
10.958300 8.485300
10.969700 8.540100
10.981100 8.416700
10.992500 8.247000
11.003900 8.095900
11.015300 8.019700
11.026700 7.829900
11.038100 7.675400
11.049500 7.664800
11.060900 7.414500
11.072300 7.337400
11.083700 7.414900
11.095100 7.518200
11.106400 7.369100
11.117800 7.357600
11.129200 7.215700
11.140600 7.083500
11.152000 7.075700
11.163400 7.121600
11.174800 6.990800
11.186200 6.875300
11.197600 6.768400
11.209000 6.719900
11.220400 6.641400
11.231800 6.546500
11.243200 6.486900
11.254600 6.494600
11.265900 7.122400
11.277300 6.506500
11.288700 5.910800
11.300100 5.605900
11.311500 5.417700
11.322900 5.340300
11.334300 5.261000
11.345700 5.191300
11.357100 5.165400
11.368500 5.160300
11.379900 5.133200
11.391300 5.253400
11.402700 5.223200
11.414100 5.023400
11.425400 4.839900
11.436800 4.738400
11.448200 4.588500
11.459600 4.307400
11.471000 4.123200
11.482400 3.997500
11.493800 3.947300
11.505200 3.909000
11.516600 3.868300
11.528000 3.827000
11.539400 3.779000
11.550800 3.729100
11.562200 3.640100
11.573600 3.575400
11.584900 3.508800
11.596300 3.495500
11.607700 3.516500
11.619100 3.534600
11.630500 3.711900
11.641900 3.358500
11.653300 3.168900
11.664700 2.999600
11.676100 2.848600
11.687500 2.747400
11.698900 2.673100
11.710300 2.640800
11.721700 2.632800
11.733100 2.751500
11.744400 2.740500
11.755800 2.749600
11.767200 2.775500
11.778600 2.812000
11.790000 2.835900
11.801400 2.924400
11.812800 2.981900
11.824200 3.208700
11.835600 3.380400
11.847000 3.515100
11.858400 3.985900
11.869800 3.811700
11.881200 3.623200
11.892600 3.616200
11.904000 3.592500
11.915300 3.596200
11.926700 3.642900
11.938100 3.696900
11.949500 3.603000
11.960900 3.516800
11.972300 3.455700
11.983700 3.396800
11.995100 3.345400
12.006500 3.301400
12.017900 3.281500
12.029300 3.278500
12.040700 3.291800
12.052100 3.313200
12.063500 3.341700
12.074800 3.398500
12.086200 3.452500
12.097600 3.450000
12.109000 3.422500
12.120400 3.459600
12.131800 3.521000
12.143200 3.656500
12.154600 3.797900
12.166000 3.937300
12.177400 4.067900
12.188800 4.233900
12.200200 4.418700
12.211600 4.561900
12.223000 4.823300
12.234300 4.706800
12.245700 4.769200
12.257100 4.834400
12.268500 4.917000
12.279900 4.924900
12.291300 4.987100
12.302700 5.064600
12.314100 5.225800
12.325500 5.495500
12.336900 5.724400
12.348300 5.941800
12.359700 5.907000
12.371100 6.151700
12.382500 6.305700
12.393800 6.361600
12.405200 6.562600
12.416600 6.701600
12.428000 6.676500
12.439400 6.555900
12.450800 6.482100
12.462200 6.434800
12.473600 6.251200
12.485000 6.142400
12.496400 5.892600
12.507800 5.496100
12.519200 5.348100
12.530600 5.506400
12.542000 5.146300
12.553300 5.127800
12.564700 5.079600
12.576100 5.041500
12.587500 5.001400
12.598900 5.115500
12.610300 5.269000
12.621700 5.231300
12.633100 5.238600
12.644500 5.360600
12.655900 5.481600
12.667300 5.649100
12.678700 5.688600
12.690100 5.843500
12.701500 5.953400
12.712900 6.025700
12.724200 6.122800
12.735600 6.239900
12.747000 6.342400
12.758400 6.365700
12.769800 6.419200
12.781200 6.380100
12.792600 6.290900
12.804000 6.236200
12.815400 6.177000
12.826800 6.206400
12.838200 6.193500
12.849600 6.193600
12.861000 6.127000
12.872400 6.109500
12.883700 6.112500
12.895100 6.135500
12.906500 6.340300
12.917900 6.589200
12.929300 6.834100
12.940700 6.743900
12.952100 6.452800
12.963500 6.354900
12.974900 6.314300
12.986300 6.261300
12.997700 6.140000
13.009100 6.103700
13.020500 6.092700
13.031900 6.092100
13.043200 6.023200
13.054600 5.995500
13.066000 6.029900
13.077400 6.121600
13.088800 6.187300
13.100200 6.185700
13.111600 6.237900
13.123000 6.361400
13.134400 6.320800
13.145800 6.304300
13.157200 6.419300
13.168600 6.503900
13.180000 6.535300
13.191400 6.553300
13.202700 6.568700
13.214100 6.626100
13.225500 6.670900
13.236900 6.723500
13.248300 6.579800
13.259700 6.317300
13.271100 6.044100
13.282500 6.081800
13.293900 6.008200
13.305300 6.078000
13.316700 6.163400
13.328100 6.223700
13.339500 6.382100
13.350900 6.402700
13.362200 6.418900
13.373600 6.303600
13.385000 6.290000
13.396400 6.351400
13.407800 6.461500
13.419200 6.590400
13.430600 6.722000
13.442000 6.858900
13.453400 6.991200
13.464800 7.221600
13.476200 7.612300
13.487600 7.899300
13.499000 7.697800
13.510400 7.802700
13.521700 7.735300
13.533100 7.628700
13.544500 7.235800
13.555900 6.949800
13.567300 6.733500
13.578700 6.521900
13.590100 6.213600
13.601500 5.952400
13.612900 5.762600
13.624300 5.683000
13.635700 5.667000
13.647100 5.688200
13.658500 5.729100
13.669900 6.017800
13.681300 5.749400
13.692600 5.932500
13.704000 6.038700
13.715400 6.166500
13.726800 6.296900
13.738200 6.477800
13.749600 6.656900
13.761000 6.883100
13.772400 7.280200
13.783800 7.447100
13.795200 7.680900
13.806600 7.637900
13.818000 7.597200
13.829400 7.172400
13.840800 6.794200
13.852100 6.422500
13.863500 6.053700
13.874900 5.771800
13.886300 5.558000
13.897700 5.320700
13.909100 5.101800
13.920500 4.896300
13.931900 4.740800
13.943300 4.428800
13.954700 4.371800
13.966100 4.338500
13.977500 4.403100
13.988900 4.556000
14.000300 4.640100
14.011600 4.734000
14.023000 4.862200
14.034400 4.992400
14.045800 5.141100
14.057200 5.634800
14.068600 5.611000
14.080000 5.368000
14.091400 5.222300
14.102800 5.009300
14.114200 4.835800
14.125600 4.515300
14.137000 4.195900
14.148400 3.926800
14.159800 3.551100
14.171100 3.159300
14.182500 2.771700
14.193900 2.281100
14.205300 1.855800
14.216700 1.523900
14.228100 1.257200
14.239500 1.025700
14.250900 0.837000
14.262300 0.670100
14.273700 0.510300
14.285100 0.388700
14.296500 0.309900
14.307900 0.264000
14.319300 0.227600
14.330600 0.194700
14.342000 0.165200
14.353400 0.138400
14.364800 0.114100
14.376200 0.092100
14.387600 0.072500
14.399000 0.055400
14.410400 0.040600
14.421800 0.028200
14.433200 0.018000
14.444600 0.010100
14.456000 0.004500
14.467400 0.001200
14.478800 0.000000
14.490200 0.000000
14.501500 0.000000
14.512900 0.000000
14.524300 0.000000
14.535700 0.000000
14.547100 0.000000
14.558500 0.000000
14.569900 0.000000
14.581300 0.000000
14.592700 0.000000
14.604100 0.000000
14.615500 0.000000
14.626900 0.000000
14.638300 0.000000
14.649700 0.000000
14.661000 0.000000
14.672400 0.000000
14.683800 0.000000
14.695200 0.000000
14.706600 0.000000
14.718000 0.000000
14.729400 0.000000
14.740800 0.000000
14.752200 0.000000
14.763600 0.000000
14.775000 0.000000
14.786400 0.000000
14.797800 0.000000
14.809200 0.000000
14.820500 0.000000
14.831900 0.000000
14.843300 0.000000
14.854700 0.000000
14.866100 0.000000
14.877500 0.000000
14.888900 0.000000
14.900300 0.000000
14.911700 0.000000
14.923100 0.000000
14.934500 0.000000
14.945900 0.000000
14.957300 0.000000
14.968700 0.000000
14.980000 0.000000
14.991400 0.000000
15.002800 0.000000
15.014200 0.000000
15.025600 0.000000
15.037000 0.000000
15.048400 0.000000
15.059800 0.000000
15.071200 0.000000
15.082600 0.000000
15.094000 0.000000
15.105400 0.000000
15.116800 0.000000
15.128200 0.000000
15.139500 0.000000
15.150900 0.000000
15.162300 0.000000
15.173700 0.000000
15.185100 0.000000
15.196500 0.000000
15.207900 0.000000
15.219300 0.000000
15.230700 0.000000
15.242100 0.000000
15.253500 0.000000
15.264900 0.000000
15.276300 0.000000
15.287700 0.000000
15.299100 0.000000
15.310400 0.000000
15.321800 0.000000
15.333200 0.000000
15.344600 0.000000
15.356000 0.000000
15.367400 0.000000
15.378800 0.000000
15.390200 0.000000
15.401600 0.000000
15.413000 0.000000
15.424400 0.000000
15.435800 0.000000
15.447200 0.000000
15.458600 0.000000
15.469900 0.000000
15.481300 0.000000
15.492700 0.000000
15.504100 0.000000
15.515500 0.000000
e
