set title 'mp-1095534 - Density of States'
set xlabel 'Energy (eV)'
set ylabel 'DOS (states/eV)'
set grid
set xrange [-10:10]
set yrange [0:15.154]
set xzeroaxis lt -1
set terminal png size 800,600
set output 'mp-1095534_dos_gnuplot.png'
plot '-' using 1:2 with lines title 'DOS'
-17.919700 0.000000
-17.897900 0.000000
-17.876000 0.000000
-17.854200 0.000000
-17.832400 0.000000
-17.810600 0.000000
-17.788800 0.000000
-17.767000 0.000000
-17.745100 0.000000
-17.723300 0.000000
-17.701500 0.000000
-17.679700 0.000000
-17.657900 0.000000
-17.636100 0.000000
-17.614200 0.000000
-17.592400 0.000000
-17.570600 0.000000
-17.548800 0.000000
-17.527000 0.000000
-17.505200 0.000000
-17.483300 0.000000
-17.461500 0.000000
-17.439700 0.000000
-17.417900 0.000000
-17.396100 0.000000
-17.374300 0.000000
-17.352400 0.000000
-17.330600 0.000000
-17.308800 0.000000
-17.287000 0.000000
-17.265200 0.000000
-17.243400 0.000000
-17.221500 0.000000
-17.199700 0.000000
-17.177900 0.000000
-17.156100 0.000000
-17.134300 0.000000
-17.112500 0.000000
-17.090600 0.000000
-17.068800 0.000000
-17.047000 0.000000
-17.025200 0.000000
-17.003400 0.000000
-16.981600 0.000000
-16.959700 0.000000
-16.937900 0.000000
-16.916100 0.000000
-16.894300 0.000000
-16.872500 0.000000
-16.850700 0.000000
-16.828900 0.000000
-16.807000 0.000000
-16.785200 0.000000
-16.763400 0.000000
-16.741600 0.000000
-16.719800 0.000000
-16.698000 0.000000
-16.676100 0.000000
-16.654300 0.000000
-16.632500 0.000000
-16.610700 0.000000
-16.588900 0.000000
-16.567100 0.000000
-16.545200 0.000000
-16.523400 0.000000
-16.501600 0.000000
-16.479800 0.000000
-16.458000 0.000000
-16.436200 0.000000
-16.414300 0.000000
-16.392500 0.000000
-16.370700 0.000000
-16.348900 0.000000
-16.327100 0.000000
-16.305300 0.000000
-16.283400 0.000000
-16.261600 0.000000
-16.239800 0.000000
-16.218000 0.000000
-16.196200 0.000000
-16.174400 0.000000
-16.152500 0.000000
-16.130700 0.000000
-16.108900 0.000000
-16.087100 0.000000
-16.065300 0.000000
-16.043500 0.000000
-16.021600 0.000000
-15.999800 0.000000
-15.978000 0.000000
-15.956200 0.000000
-15.934400 0.000300
-15.912600 0.037300
-15.890700 0.136900
-15.868900 0.268000
-15.847100 0.375000
-15.825300 0.479400
-15.803500 0.596800
-15.781700 0.727100
-15.759800 0.870400
-15.738000 1.221500
-15.716200 1.405200
-15.694400 1.546000
-15.672600 1.681900
-15.650800 1.680700
-15.629000 1.679700
-15.607100 1.859500
-15.585300 2.089000
-15.563500 2.514100
-15.541700 2.628700
-15.519900 2.734200
-15.498100 2.830700
-15.476200 2.918200
-15.454400 2.996700
-15.432600 2.992700
-15.410800 3.016600
-15.389000 3.038500
-15.367200 3.032100
-15.345300 3.000400
-15.323500 2.950300
-15.301700 2.879700
-15.279900 2.799900
-15.258100 2.711800
-15.236300 2.614800
-15.214400 2.508900
-15.192600 2.429600
-15.170800 2.279100
-15.149000 2.152000
-15.127200 2.038700
-15.105400 1.939100
-15.083500 1.853400
-15.061700 1.780400
-15.039900 1.711400
-15.018100 1.644400
-14.996300 1.582200
-14.974500 1.530800
-14.952600 1.483900
-14.930800 1.441700
-14.909000 1.404000
-14.887200 1.371000
-14.865400 1.342500
-14.843600 1.294000
-14.821700 1.294000
-14.799900 1.294000
-14.778100 1.294000
-14.756300 1.294000
-14.734500 1.293900
-14.712700 1.293900
-14.690800 1.293900
-14.669000 1.293900
-14.647200 1.293900
-14.625400 1.293900
-14.603600 1.293900
-14.581800 1.293900
-14.559900 1.293900
-14.538100 1.293900
-14.516300 1.293900
-14.494500 1.293900
-14.472700 1.293900
-14.450900 1.294000
-14.429100 1.294000
-14.407200 1.294000
-14.385400 1.294000
-14.363600 1.294000
-14.341800 1.294000
-14.320000 1.294100
-14.298200 1.294100
-14.276300 1.294100
-14.254500 1.307200
-14.232700 1.403100
-14.210900 1.618800
-14.189100 1.975300
-14.167300 2.439900
-14.145400 2.907900
-14.123600 3.318800
-14.101800 3.672500
-14.080000 5.728600
-14.058200 3.697900
-14.036400 1.755300
-14.014500 1.312000
-13.992700 0.977600
-13.970900 0.629300
-13.949100 0.629400
-13.927300 0.629400
-13.905500 0.629400
-13.883600 0.932300
-13.861800 1.808800
-13.840000 2.428400
-13.818200 2.269700
-13.796400 2.093300
-13.774600 1.899200
-13.752700 1.687500
-13.730900 1.458100
-13.709100 1.211000
-13.687300 0.947500
-13.665500 0.721200
-13.643700 0.521900
-13.621800 0.349500
-13.600000 0.236700
-13.578200 0.164500
-13.556400 0.105400
-13.534600 0.059400
-13.512800 0.026500
-13.490900 0.195200
-13.469100 0.254100
-13.447300 0.329100
-13.425500 0.413700
-13.403700 0.507800
-13.381900 0.611400
-13.360100 0.724400
-13.338200 0.847600
-13.316400 0.995900
-13.294600 1.176500
-13.272800 1.450700
-13.251000 1.728300
-13.229200 2.009300
-13.207300 2.497800
-13.185500 2.820700
-13.163700 2.598900
-13.141900 2.866100
-13.120100 3.180900
-13.098300 3.528300
-13.076400 3.981700
-13.054600 4.343400
-13.032800 4.605500
-13.011000 4.846300
-12.989200 5.755000
-12.967400 6.289800
-12.945500 6.912500
-12.923700 7.898800
-12.901900 6.163100
-12.880100 5.396800
-12.858300 4.554500
-12.836500 3.636300
-12.814600 2.642200
-12.792800 1.408700
-12.771000 1.168400
-12.749200 1.339700
-12.727400 1.492300
-12.705600 1.603500
-12.683700 1.673100
-12.661900 1.722300
-12.640100 1.842400
-12.618300 1.966300
-12.596500 2.094100
-12.574700 2.225700
-12.552800 2.361200
-12.531000 2.500500
-12.509200 2.855000
-12.487400 3.433800
-12.465600 3.617400
-12.443800 3.740100
-12.421900 3.734300
-12.400100 3.666100
-12.378300 3.535400
-12.356500 3.342200
-12.334700 3.144700
-12.312900 2.998700
-12.291000 2.852100
-12.269200 2.705000
-12.247400 2.300900
-12.225600 2.303000
-12.203800 2.156800
-12.182000 2.019600
-12.160200 1.891200
-12.138300 1.771800
-12.116500 1.661300
-12.094700 1.581900
-12.072900 1.665500
-12.051100 1.783500
-12.029300 1.936100
-12.007400 2.123200
-11.985600 3.134100
-11.963800 2.540200
-11.942000 2.428400
-11.920200 2.241000
-11.898400 2.017100
-11.876500 2.223400
-11.854700 2.424300
-11.832900 2.619900
-11.811100 3.058700
-11.789300 3.643600
-11.767500 2.629900
-11.745600 2.523500
-11.723800 2.413100
-11.702000 2.305700
-11.680200 2.201400
-11.658400 2.116200
-11.636600 2.048700
-11.614700 1.987000
-11.592900 1.931200
-11.571100 1.881300
-11.549300 1.837300
-11.527500 1.799200
-11.505700 1.766900
-11.483800 1.684700
-11.462000 1.681100
-11.440200 1.678400
-11.418400 1.687600
-11.396600 1.747700
-11.374800 1.815600
-11.352900 1.897100
-11.331100 2.056200
-11.309300 2.310200
-11.287500 2.521800
-11.265700 3.123300
-11.243900 4.036800
-11.222000 7.272500
-11.200200 7.704800
-11.178400 3.769500
-11.156600 2.566300
-11.134800 1.892700
-11.113000 1.670400
-11.091100 1.737700
-11.069300 1.868500
-11.047500 2.125700
-11.025700 2.169000
-11.003900 2.203000
-10.982100 2.227700
-10.960300 2.506700
-10.938400 2.436000
-10.916600 2.249000
-10.894800 2.074000
-10.873000 1.947500
-10.851200 1.840500
-10.829400 1.758100
-10.807500 1.758900
-10.785700 1.855800
-10.763900 2.017600
-10.742100 1.881400
-10.720300 1.903800
-10.698500 1.927000
-10.676600 1.951000
-10.654800 1.975900
-10.633000 2.001500
-10.611200 2.028000
-10.589400 2.055300
-10.567600 2.083400
-10.545700 2.112300
-10.523900 2.142100
-10.502100 2.132600
-10.480300 3.483700
-10.458500 3.647100
-10.436700 3.444100
-10.414800 3.486200
-10.393000 3.573500
-10.371200 3.597700
-10.349400 4.035800
-10.327600 3.753900
-10.305800 3.521300
-10.283900 3.311200
-10.262100 2.586000
-10.240300 2.648000
-10.218500 2.766000
-10.196700 2.898300
-10.174900 3.044700
-10.153000 3.263900
-10.131200 3.525800
-10.109400 4.531900
-10.087600 4.914600
-10.065800 5.165700
-10.044000 5.575900
-10.022100 6.426200
-10.000300 5.304200
-9.978500 4.772800
-9.956700 4.287200
-9.934900 3.798100
-9.913100 3.218500
-9.891200 2.328600
-9.869400 1.873900
-9.847600 1.660300
-9.825800 1.461800
-9.804000 1.278400
-9.782200 1.110000
-9.760400 0.956700
-9.738500 0.818500
-9.716700 0.633600
-9.694900 0.491800
-9.673100 0.572400
-9.651300 0.893600
-9.629500 0.757000
-9.607600 0.837600
-9.585800 0.898600
-9.564000 0.939800
-9.542200 0.961200
-9.520400 0.962900
-9.498600 1.050100
-9.476700 1.160300
-9.454900 1.291500
-9.433100 1.443600
-9.411300 1.616800
-9.389500 1.810900
-9.367700 2.026000
-9.345800 2.488000
-9.324000 3.419000
-9.302200 3.589600
-9.280400 3.661700
-9.258600 3.635600
-9.236800 3.511100
-9.214900 3.313600
-9.193100 2.891000
-9.171300 2.699600
-9.149500 2.501100
-9.127700 2.388400
-9.105900 2.282000
-9.084000 2.182000
-9.062200 2.083700
-9.040400 1.998900
-9.018600 1.905300
-8.996800 1.803100
-8.975000 1.692200
-8.953100 1.572600
-8.931300 1.464200
-8.909500 1.385200
-8.887700 1.312800
-8.865900 1.247100
-8.844100 1.188000
-8.822200 1.135500
-8.800400 1.089700
-8.778600 1.050500
-8.756800 1.017700
-8.735000 0.984100
-8.713200 0.948200
-8.691300 0.910600
-8.669500 0.872500
-8.647700 0.834100
-8.625900 0.795400
-8.604100 0.756400
-8.582300 0.717200
-8.560500 0.677600
-8.538600 0.637700
-8.516800 0.597500
-8.495000 0.583800
-8.473200 0.595000
-8.451400 0.586500
-8.429600 0.558300
-8.407700 0.510500
-8.385900 0.443000
-8.364100 0.445600
-8.342300 0.205300
-8.320500 0.143100
-8.298700 0.167300
-8.276800 0.193200
-8.255000 0.220700
-8.233200 0.249800
-8.211400 0.280500
-8.189600 0.312800
-8.167800 0.346700
-8.145900 0.382200
-8.124100 0.419400
-8.102300 0.458100
-8.080500 0.498500
-8.058700 0.539000
-8.036900 0.577500
-8.015000 0.613800
-7.993200 0.647800
-7.971400 0.679900
-7.949600 0.710000
-7.927800 0.738000
-7.906000 0.760700
-7.884100 0.780300
-7.862300 0.801800
-7.840500 0.825200
-7.818700 0.850500
-7.796900 0.877700
-7.775100 0.906800
-7.753200 0.937800
-7.731400 0.970800
-7.709600 1.005600
-7.687800 1.042200
-7.666000 1.080700
-7.644200 1.121100
-7.622300 1.164100
-7.600500 1.217900
-7.578700 1.250200
-7.556900 1.296900
-7.535100 1.358700
-7.513300 1.399700
-7.491400 1.376200
-7.469600 1.354500
-7.447800 1.334700
-7.426000 1.316800
-7.404200 1.300700
-7.382400 1.286400
-7.360600 1.274000
-7.338700 1.278700
-7.316900 1.296700
-7.295100 1.327900
-7.273300 1.363200
-7.251500 1.402500
-7.229700 1.445900
-7.207800 1.493300
-7.186000 1.555700
-7.164200 1.621000
-7.142400 1.687000
-7.120600 1.753700
-7.098800 1.821100
-7.076900 1.897700
-7.055100 2.026600
-7.033300 2.159600
-7.011500 2.332300
-6.989700 2.505000
-6.967900 2.691700
-6.946000 2.892300
-6.924200 3.097700
-6.902400 3.458000
-6.880600 3.704800
-6.858800 3.831300
-6.837000 4.298200
-6.815100 4.402500
-6.793300 4.475500
-6.771500 4.512900
-6.749700 4.514200
-6.727900 4.479600
-6.706100 4.408900
-6.684200 4.318100
-6.662400 3.487400
-6.640600 3.288300
-6.618800 3.110400
-6.597000 2.953700
-6.575200 2.818100
-6.553300 2.877800
-6.531500 2.762100
-6.509700 2.666700
-6.487900 2.604900
-6.466100 2.578800
-6.444300 3.722600
-6.422400 4.206200
-6.400600 4.114700
-6.378800 3.908300
-6.357000 3.586900
-6.335200 3.150700
-6.313400 2.113100
-6.291600 1.786400
-6.269700 1.487600
-6.247900 1.216600
-6.226100 0.973400
-6.204300 1.358800
-6.182500 1.493700
-6.160700 1.709800
-6.138800 1.681200
-6.117000 2.627300
-6.095200 4.396300
-6.073400 2.855700
-6.051600 2.858400
-6.029800 2.802000
-6.007900 2.686600
-5.986100 2.633700
-5.964300 2.556300
-5.942500 2.497600
-5.920700 2.457400
-5.898900 2.436000
-5.877000 2.287000
-5.855200 2.348500
-5.833400 2.529100
-5.811600 2.634000
-5.789800 2.658800
-5.768000 2.588800
-5.746100 2.360800
-5.724300 1.954900
-5.702500 1.678800
-5.680700 2.023600
-5.658900 2.073300
-5.637100 2.239200
-5.615200 2.411600
-5.593400 2.501300
-5.571600 2.589100
-5.549800 2.674800
-5.528000 2.758500
-5.506200 2.840300
-5.484300 2.920000
-5.462500 2.997700
-5.440700 3.073500
-5.418900 3.204200
-5.397100 3.438500
-5.375300 3.150400
-5.353400 3.427900
-5.331600 3.924000
-5.309800 4.638500
-5.288000 4.703800
-5.266200 4.940600
-5.244400 5.168800
-5.222500 5.266500
-5.200700 5.327600
-5.178900 5.366800
-5.157100 5.124900
-5.135300 4.958500
-5.113500 5.121400
-5.091700 5.236900
-5.069800 5.641500
-5.048000 6.071200
-5.026200 5.777100
-5.004400 6.388800
-4.982600 7.484700
-4.960800 7.934800
-4.938900 8.293500
-4.917100 7.890200
-4.895300 7.774800
-4.873500 7.520100
-4.851700 7.125900
-4.829900 5.802900
-4.808000 5.422600
-4.786200 6.120200
-4.764400 8.323300
-4.742600 9.278800
-4.720800 7.899100
-4.699000 7.619600
-4.677100 7.309400
-4.655300 7.125200
-4.633500 6.944200
-4.611700 6.847500
-4.589900 6.573200
-4.568100 6.343800
-4.546200 6.315700
-4.524400 6.319100
-4.502600 6.313100
-4.480800 6.271700
-4.459000 6.225500
-4.437200 6.214200
-4.415300 6.213200
-4.393500 6.124900
-4.371700 5.930800
-4.349900 5.662400
-4.328100 5.313500
-4.306300 5.119600
-4.284400 4.993000
-4.262600 4.886000
-4.240800 4.798400
-4.219000 4.713600
-4.197200 4.642300
-4.175400 4.567900
-4.153500 4.507600
-4.131700 4.489100
-4.109900 4.467500
-4.088100 4.381400
-4.066300 4.269400
-4.044500 4.135800
-4.022600 3.994900
-4.000800 3.857500
-3.979000 3.721000
-3.957200 3.567100
-3.935400 3.296900
-3.913600 3.038000
-3.891800 2.776900
-3.869900 2.619800
-3.848100 2.470500
-3.826300 2.272800
-3.804500 2.020900
-3.782700 1.832700
-3.760900 1.694500
-3.739000 1.588200
-3.717200 1.472200
-3.695400 1.416400
-3.673600 1.352100
-3.651800 1.348400
-3.630000 1.348300
-3.608100 1.348300
-3.586300 1.348200
-3.564500 1.348200
-3.542700 1.348200
-3.520900 1.348200
-3.499100 1.348200
-3.477200 1.348300
-3.455400 1.348300
-3.433600 1.348400
-3.411800 1.348500
-3.390000 1.348600
-3.368200 1.348700
-3.346300 1.348900
-3.324500 1.349100
-3.302700 1.349200
-3.280900 1.349400
-3.259100 1.349600
-3.237300 1.349900
-3.215400 1.350100
-3.193600 1.350400
-3.171800 1.350600
-3.150000 1.350900
-3.128200 1.351200
-3.106400 1.309400
-3.084500 1.268600
-3.062700 1.219900
-3.040900 1.163400
-3.019100 1.099700
-2.997300 1.044300
-2.975500 0.990400
-2.953600 0.937600
-2.931800 0.880000
-2.910000 0.815500
-2.888200 0.744100
-2.866400 0.670500
-2.844600 0.554000
-2.822700 0.478200
-2.800900 0.411400
-2.779100 0.353500
-2.757300 0.304600
-2.735500 0.261600
-2.713700 0.220100
-2.691900 0.180000
-2.670000 0.144500
-2.648200 0.113100
-2.626400 0.085000
-2.604600 0.060300
-2.582800 0.039100
-2.561000 0.000000
-2.539100 0.000000
-2.517300 0.000000
-2.495500 0.000000
-2.473700 0.000000
-2.451900 0.000000
-2.430100 0.000000
-2.408200 0.000000
-2.386400 0.000000
-2.364600 0.000000
-2.342800 0.000000
-2.321000 0.000000
-2.299200 0.000000
-2.277300 0.000000
-2.255500 0.000000
-2.233700 0.000000
-2.211900 0.000000
-2.190100 0.000000
-2.168300 0.000000
-2.146400 0.000000
-2.124600 0.000000
-2.102800 0.000000
-2.081000 0.000000
-2.059200 0.000000
-2.037400 0.000000
-2.015500 0.000000
-1.993700 0.000000
-1.971900 0.000000
-1.950100 0.000000
-1.928300 0.000000
-1.906500 0.000000
-1.884600 0.000000
-1.862800 0.000000
-1.841000 0.000000
-1.819200 0.000000
-1.797400 0.000000
-1.775600 0.000000
-1.753700 0.000000
-1.731900 0.000000
-1.710100 0.012400
-1.688300 0.058700
-1.666500 0.139100
-1.644700 0.253600
-1.622800 0.402300
-1.601000 0.691800
-1.579200 1.036000
-1.557400 1.404300
-1.535600 1.745900
-1.513800 2.054900
-1.492000 2.331200
-1.470100 2.574800
-1.448300 2.785700
-1.426500 2.963900
-1.404700 2.372200
-1.382900 3.040700
-1.361100 4.209200
-1.339200 4.711100
-1.317400 6.519200
-1.295600 5.664200
-1.273800 4.333500
-1.252000 1.905200
-1.230200 1.904800
-1.208300 1.904400
-1.186500 2.175400
-1.164700 2.874300
-1.142900 3.629000
-1.121100 3.848200
-1.099300 4.026700
-1.077400 4.164400
-1.055600 4.261200
-1.033800 4.317300
-1.012000 4.332500
-0.990200 4.771700
-0.968400 5.032600
-0.946500 4.902300
-0.924700 5.356900
-0.902900 6.114300
-0.881100 13.776800
-0.859300 4.303900
-0.837500 4.489400
-0.815600 4.694500
-0.793800 4.919400
-0.772000 5.164000
-0.750200 7.034600
-0.728400 6.883000
-0.706600 6.323200
-0.684700 5.700400
-0.662900 5.420600
-0.641100 5.111800
-0.619300 4.774100
-0.597500 4.345300
-0.575700 3.614000
-0.553800 3.032400
-0.532000 2.777100
-0.510200 2.636100
-0.488400 2.536900
-0.466600 2.479900
-0.444800 2.438600
-0.422900 2.412500
-0.401100 2.401700
-0.379300 3.815600
-0.357500 5.375300
-0.335700 6.960500
-0.313900 8.643200
-0.292100 10.047900
-0.270200 7.085100
-0.248400 5.186600
-0.226600 5.372200
-0.204800 5.287200
-0.183000 5.168300
-0.161200 5.653100
-0.139300 6.231900
-0.117500 6.515000
-0.095700 7.320100
-0.073900 7.656400
-0.052100 7.507700
-0.030300 6.444100
-0.008400 5.200300
0.013400 4.262100
0.035200 3.916800
0.057000 3.665800
0.078800 3.464700
0.100600 3.326100
0.122500 3.544300
0.144300 4.103400
0.166100 5.631200
0.187900 6.254800
0.209700 6.876100
0.231500 7.781400
0.253400 7.551600
0.275200 7.760500
0.297000 7.230400
0.318800 7.105600
0.340600 6.585900
0.362400 6.175200
0.384300 7.470800
0.406100 6.839300
0.427900 7.222100
0.449700 7.684700
0.471500 8.264100
0.493300 12.006600
0.515200 10.963500
0.537000 6.018500
0.558800 5.785600
0.580600 5.566200
0.602400 5.365700
0.624200 5.194600
0.646100 5.060800
0.667900 4.911800
0.689700 4.747500
0.711500 4.607500
0.733300 4.367600
0.755100 4.056800
0.776900 3.775000
0.798800 3.589800
0.820600 3.497600
0.842400 3.412000
0.864200 3.320900
0.886000 3.215600
0.907800 3.095900
0.929700 2.962000
0.951500 2.813800
0.973300 2.653500
0.995100 2.489200
1.016900 1.955600
1.038700 1.947300
1.060600 2.155800
1.082400 2.479800
1.104200 2.924500
1.126000 3.570100
1.147800 7.612800
1.169600 9.055300
1.191500 7.297600
1.213300 6.712000
1.235100 6.112000
1.256900 5.883200
1.278700 5.322800
1.300500 4.990900
1.322400 4.588700
1.344200 3.861400
1.366000 2.730400
1.387800 2.605900
1.409600 2.491800
1.431400 2.388300
1.453300 2.295200
1.475100 2.212600
1.496900 2.140800
1.518700 2.078700
1.540500 2.021400
1.562300 1.962400
1.584200 1.901500
1.606000 1.850500
1.627800 1.810100
1.649600 1.769200
1.671400 1.727400
1.693200 1.656900
1.715100 1.543000
1.736900 1.436700
1.758700 1.347600
1.780500 1.307400
1.802300 1.304600
1.824100 1.257000
1.846000 1.197800
1.867800 1.129400
1.889600 1.050900
1.911400 0.975400
1.933200 0.902900
1.955000 0.833300
1.976800 0.785200
1.998700 0.771300
2.020500 0.757900
2.042300 0.744900
2.064100 0.732300
2.085900 0.720200
2.107700 0.708500
2.129600 0.697300
2.151400 0.686600
2.173200 0.676300
2.195000 0.666400
2.216800 0.657000
2.238600 0.648000
2.260500 0.639500
2.282300 0.631500
2.304100 0.623900
2.325900 0.616700
2.347700 0.610200
2.369500 0.604300
2.391400 0.598700
2.413200 0.593600
2.435000 0.588900
2.456800 0.584700
2.478600 0.580800
2.500400 0.574000
2.522300 0.562200
2.544100 0.547900
2.565900 0.531100
2.587700 0.511800
2.609500 0.483900
2.631300 0.440600
2.653200 0.400500
2.675000 0.363500
2.696800 0.329300
2.718600 0.298100
2.740400 0.269600
2.762200 0.244000
2.784100 0.221200
2.805900 0.195400
2.827700 0.168100
2.849500 0.156300
2.871300 0.144900
2.893100 0.133900
2.915000 0.123300
2.936800 0.113100
2.958600 0.103300
2.980400 0.094000
3.002200 0.085000
3.024000 0.076500
3.045900 0.068400
3.067700 0.060700
3.089500 0.053300
3.111300 0.046400
3.133100 0.039900
3.154900 0.033900
3.176700 0.028200
3.198600 0.022900
3.220400 0.000000
3.242200 0.000000
3.264000 0.000000
3.285800 0.000000
3.307600 0.000000
3.329500 0.000000
3.351300 0.000000
3.373100 0.000000
3.394900 0.000000
3.416700 0.000000
3.438500 0.000000
3.460400 0.000000
3.482200 0.000000
3.504000 0.000000
3.525800 0.000000
3.547600 0.000000
3.569400 0.000000
3.591300 0.000000
3.613100 0.000000
3.634900 0.000000
3.656700 0.000000
3.678500 0.000000
3.700300 0.000000
3.722200 0.000000
3.744000 0.000000
3.765800 0.000000
3.787600 0.000000
3.809400 0.000000
3.831200 0.000000
3.853100 0.000000
3.874900 0.000900
3.896700 0.006000
3.918500 0.015600
3.940300 0.029600
3.962100 0.048000
3.984000 0.082900
4.005800 0.151700
4.027600 0.254700
4.049400 0.391700
4.071200 0.564400
4.093000 0.759800
4.114900 0.937900
4.136700 1.098600
4.158500 1.242100
4.180300 1.345100
4.202100 1.217800
4.223900 1.351700
4.245800 1.494300
4.267600 1.630000
4.289400 1.746300
4.311200 1.851000
4.333000 1.947600
4.354800 2.027700
4.376600 2.096200
4.398500 2.125700
4.420300 2.153900
4.442100 2.181000
4.463900 2.206900
4.485700 2.231500
4.507500 2.255000
4.529400 2.277200
4.551200 2.298300
4.573000 2.318100
4.594800 2.455500
4.616600 2.493600
4.638400 2.524300
4.660300 2.562400
4.682100 2.600800
4.703900 2.639800
4.725700 2.737100
4.747500 2.890500
4.769300 3.033300
4.791200 3.117800
4.813000 3.170400
4.834800 3.190900
4.856600 3.179300
4.878400 3.135700
4.900200 3.207400
4.922100 3.132500
4.943900 2.784200
4.965700 2.402100
4.987500 2.063300
5.009300 2.114900
5.031100 2.229500
5.053000 2.393700
5.074800 2.558400
5.096600 2.723600
5.118400 3.047300
5.140200 3.253400
5.162000 3.464600
5.183900 3.681000
5.205700 3.901500
5.227500 4.127400
5.249300 5.803400
5.271100 6.344700
5.292900 6.418300
5.314800 4.334600
5.336600 3.586300
5.358400 3.122800
5.380200 2.948900
5.402000 3.099500
5.423800 3.102100
5.445700 3.116400
5.467500 3.142800
5.489300 3.181300
5.511100 3.220500
5.532900 3.261400
5.554700 3.304300
5.576500 3.350600
5.598400 3.414600
5.620200 3.456000
5.642000 3.482500
5.663800 3.492600
5.685600 3.486800
5.707400 3.468100
5.729300 3.106200
5.751100 2.987500
5.772900 2.897500
5.794700 2.836300
5.816500 2.830200
5.838300 2.902500
5.860200 3.179000
5.882000 3.545400
5.903800 3.980200
5.925600 4.400700
5.947400 4.806500
5.969200 5.579900
5.991100 5.801200
6.012900 5.988700
6.034700 6.083500
6.056500 6.177800
6.078300 6.172700
6.100100 6.097500
6.122000 5.496000
6.143800 5.747800
6.165600 5.734700
6.187400 5.681600
6.209200 5.528400
6.231000 5.311400
6.252900 5.058000
6.274700 4.768000
6.296500 4.225400
6.318300 4.052400
6.340100 3.875400
6.361900 4.536400
6.383800 3.864600
6.405600 3.476600
6.427400 3.357700
6.449200 3.343600
6.471000 3.318500
6.492800 3.282500
6.514700 3.235400
6.536500 3.177400
6.558300 3.184000
6.580100 3.053900
6.601900 2.920500
6.623700 2.783900
6.645600 2.644000
6.667400 2.500900
6.689200 2.346600
6.711000 2.135900
6.732800 1.803200
6.754600 1.595900
6.776400 1.534600
6.798300 1.449400
6.820100 1.400500
6.841900 1.428000
6.863700 1.495100
6.885500 1.572400
6.907300 1.659900
6.929200 1.769100
6.951000 1.908700
6.972800 2.342900
6.994600 2.761600
7.016400 2.809000
7.038200 2.798700
7.060100 2.764300
7.081900 2.706000
7.103700 2.965500
7.125500 3.022000
7.147300 3.031300
7.169100 2.888000
7.191000 2.884100
7.212800 2.799300
7.234600 2.757700
7.256400 2.759300
7.278200 2.804200
7.300000 3.892900
7.321900 3.322500
7.343700 3.289300
7.365500 3.250100
7.387300 3.217500
7.409100 3.231400
7.430900 3.249900
7.452800 3.272900
7.474600 3.287400
7.496400 3.162600
7.518200 3.286000
7.540000 3.015900
7.561800 2.749200
7.583700 2.716700
7.605500 2.707300
7.627300 2.693900
7.649100 2.676700
7.670900 2.655500
7.692700 2.629200
7.714600 2.899600
7.736400 3.104900
7.758200 3.364900
7.780000 3.648600
7.801800 8.430600
7.823600 5.966700
7.845400 5.249400
7.867300 4.589600
7.889100 3.947700
7.910900 3.149800
7.932700 2.397300
7.954500 1.994300
7.976300 1.850600
7.998200 1.724700
8.020000 1.673000
8.041800 1.660600
8.063600 1.803800
8.085400 1.773800
8.107200 1.756000
8.129100 1.750200
8.150900 1.756600
8.172700 1.775100
8.194500 1.805800
8.216300 1.874800
8.238100 1.965500
8.260000 2.069500
8.281800 2.256900
8.303600 2.443100
8.325400 2.622600
8.347200 2.795300
8.369000 2.871100
8.390900 2.915300
8.412700 2.806000
8.434500 2.915400
8.456300 2.978400
8.478100 3.027500
8.499900 3.062900
8.521800 3.084400
8.543600 3.092100
8.565400 3.085600
8.587200 3.075200
8.609000 3.069800
8.630800 3.058500
8.652700 3.019400
8.674500 3.093400
8.696300 3.097300
8.718100 2.604600
8.739900 2.708700
8.761700 2.830800
8.783600 3.030600
8.805400 3.373100
8.827200 3.210400
8.849000 2.925700
8.870800 2.651200
8.892600 2.288100
8.914500 2.363000
8.936300 2.694800
8.958100 3.152200
8.979900 3.703000
9.001700 4.564000
9.023500 4.784000
9.045300 5.046600
9.067200 4.836100
9.089000 4.546300
9.110800 4.078100
9.132600 3.897200
9.154400 3.896700
9.176200 3.873900
9.198100 3.803000
9.219900 3.653800
9.241700 3.425900
9.263500 4.420900
9.285300 3.158600
9.307100 2.886800
9.329000 2.692800
9.350800 2.572800
9.372600 3.101800
9.394400 3.337800
9.416200 3.684000
9.438000 4.074100
9.459900 4.551000
9.481700 5.094600
9.503500 5.414700
9.525300 5.179600
9.547100 4.962200
9.568900 4.753300
9.590800 4.554400
9.612600 4.395900
9.634400 4.250700
9.656200 4.118800
9.678000 3.998500
9.699800 3.886100
9.721700 3.781300
9.743500 3.684200
9.765300 3.594800
9.787100 3.513100
9.808900 3.441800
9.830700 3.389700
9.852600 3.792800
9.874400 3.816800
9.896200 3.884500
9.918000 3.257600
9.939800 2.873500
9.961600 2.963100
9.983500 3.331400
10.005300 3.410600
10.027100 3.498700
10.048900 3.606000
10.070700 3.710900
10.092500 3.813100
10.114400 4.044100
10.136200 4.152000
10.158000 4.262400
10.179800 4.374200
10.201600 4.487100
10.223400 4.600800
10.245200 4.714200
10.267100 4.783000
10.288900 5.358400
10.310700 4.933300
10.332500 4.576200
10.354300 4.334700
10.376100 4.514500
10.398000 4.684300
10.419800 4.858800
10.441600 5.603800
10.463400 6.009300
10.485200 6.212600
10.507000 6.158400
10.528900 6.055700
10.550700 5.938600
10.572500 5.775900
10.594300 5.167200
10.616100 5.034800
10.637900 4.974100
10.659800 4.956800
10.681600 5.041800
10.703400 5.916800
10.725200 6.048100
10.747000 5.766400
10.768800 5.520500
10.790700 5.424500
10.812500 5.387100
10.834300 5.239300
10.856100 5.121300
10.877900 5.040200
10.899700 5.086000
10.921600 5.179200
10.943400 5.216900
10.965200 5.303700
10.987000 5.898700
11.008800 5.785900
11.030600 5.855600
11.052500 5.894000
11.074300 6.326000
11.096100 6.126500
11.117900 6.196000
11.139700 6.230700
11.161500 6.230000
11.183400 5.657800
11.205200 5.387300
11.227000 5.341800
11.248800 5.232500
11.270600 5.867000
11.292400 5.844700
11.314300 5.776600
11.336100 6.089300
11.357900 6.058400
11.379700 6.000200
11.401500 5.924100
11.423300 5.897500
11.445100 5.817800
11.467000 5.737700
11.488800 5.763400
11.510600 6.112900
11.532400 6.214400
11.554200 5.698300
11.576000 5.389400
11.597900 4.976200
11.619700 4.666900
11.641500 4.653100
11.663300 4.754300
11.685100 4.843400
11.706900 4.906100
11.728800 4.927200
11.750600 4.974200
11.772400 4.746700
11.794200 5.108100
11.816000 5.015700
11.837800 4.954300
11.859700 4.924000
11.881500 4.755400
11.903300 5.200800
11.925100 5.243600
11.946900 5.213400
11.968700 5.069700
11.990600 4.856900
12.012400 4.516200
12.034200 4.356500
12.056000 4.202700
12.077800 4.061200
12.099600 3.976300
12.121500 3.900800
12.143300 4.642300
12.165100 3.589800
12.186900 3.883400
12.208700 4.250000
12.230500 4.629300
12.252400 5.065400
12.274200 5.338000
12.296000 5.585000
12.317800 5.802200
12.339600 5.948300
12.361400 6.044900
12.383300 5.832300
12.405100 5.728800
12.426900 5.622200
12.448700 5.547900
12.470500 7.016200
12.492300 5.353700
12.514200 4.398900
12.536000 4.429700
12.557800 4.461300
12.579600 4.493800
12.601400 4.527100
12.623200 4.569400
12.645000 4.625500
12.666900 4.689300
12.688700 4.761100
12.710500 4.840800
12.732300 4.928800
12.754100 6.199300
12.775900 7.412200
12.797800 7.888600
12.819600 7.186700
12.841400 3.775200
12.863200 3.709700
12.885000 3.824400
12.906800 3.940000
12.928700 4.056300
12.950500 4.557500
12.972300 4.619700
12.994100 4.728100
13.015900 4.831900
13.037700 4.931100
13.059600 5.025700
13.081400 5.089200
13.103200 5.158600
13.125000 5.176000
13.146800 5.231200
13.168600 5.270900
13.190500 5.507600
13.212300 5.358800
13.234100 5.604600
13.255900 5.948300
13.277700 5.961800
13.299500 6.002700
13.321400 6.058600
13.343200 6.124600
13.365000 6.190500
13.386800 6.258500
13.408600 6.454200
13.430400 6.677500
13.452300 6.885900
13.474100 7.587300
13.495900 8.583400
13.517700 6.999700
13.539500 6.537300
13.561300 5.531300
13.583200 6.199000
13.605000 6.956100
13.626800 8.450600
13.648600 10.066300
13.670400 4.619100
13.692200 4.453600
13.714100 4.380000
13.735900 4.059400
13.757700 3.776000
13.779500 3.529800
13.801300 3.320800
13.823100 3.349900
13.844900 2.797600
13.866800 2.947200
13.888600 3.155000
13.910400 3.422600
13.932200 3.587000
13.954000 3.860000
13.975800 4.070100
13.997700 4.326500
14.019500 4.687900
14.041300 4.423600
14.063100 4.168300
14.084900 3.921900
14.106700 3.802800
14.128600 3.763200
14.150400 3.739700
14.172200 3.727700
14.194000 3.794500
14.215800 3.738900
14.237600 4.136000
14.259500 5.003900
14.281300 6.413100
14.303100 6.789800
14.324900 7.126400
14.346700 7.984300
14.368500 6.889400
14.390400 2.596900
14.412200 1.523000
14.434000 1.752600
14.455800 2.119600
14.477600 2.375300
14.499400 2.635800
14.521300 2.901000
14.543100 3.159400
14.564900 3.716000
14.586700 3.919700
14.608500 4.204600
14.630300 4.532000
14.652200 4.862000
14.674000 5.315000
14.695800 5.555800
14.717600 5.794700
14.739400 6.031600
14.761200 6.266500
14.783100 6.499400
14.804900 6.745300
14.826700 7.168200
14.848500 7.305300
14.870300 6.311900
14.892100 4.927400
14.913900 4.350000
14.935800 4.343500
14.957600 4.633700
14.979400 3.601000
15.001200 3.366900
15.023000 3.258500
15.044800 3.135900
15.066700 2.999100
15.088500 2.848200
15.110300 2.683000
15.132100 2.503700
15.153900 2.144700
15.175700 2.091600
15.197600 1.776000
15.219400 1.760600
15.241200 1.748200
15.263000 1.738800
15.284800 1.732300
15.306600 1.728800
15.328500 1.728300
15.350300 1.730800
15.372100 1.736300
15.393900 1.744700
15.415700 1.756100
15.437500 1.770500
15.459400 1.786900
15.481200 1.803700
15.503000 1.820900
15.524800 1.838500
15.546600 1.880900
15.568400 1.961300
15.590300 2.034500
15.612100 2.100500
15.633900 2.159400
15.655700 2.092300
15.677500 2.135900
15.699300 2.181500
15.721200 2.229100
15.743000 2.170900
15.764800 2.227000
15.786600 2.589600
15.808400 3.006300
15.830200 3.267800
15.852100 4.027800
15.873900 5.313100
15.895700 6.506300
15.917500 7.518600
15.939300 7.566200
15.961100 6.828300
15.983000 6.170500
16.004800 5.598800
16.026600 5.273500
16.048400 4.986400
16.070200 4.731100
16.092000 4.927800
16.113800 5.893000
16.135700 6.630600
16.157500 7.495100
16.179300 8.582800
16.201100 8.740100
16.222900 7.643400
16.244700 7.101300
16.266600 6.495500
16.288400 5.684700
16.310200 4.973200
16.332000 4.401100
16.353800 3.774800
16.375600 2.197200
16.397500 2.102700
16.419300 2.014700
16.441100 1.933300
16.462900 2.253200
16.484700 4.280200
16.506500 2.807000
16.528400 3.354600
16.550200 3.764900
16.572000 6.002800
16.593800 3.993700
16.615600 4.085300
16.637400 4.140900
16.659300 4.160300
16.681100 4.133200
16.702900 4.045300
16.724700 3.719400
16.746500 3.403400
16.768300 3.214900
16.790200 3.079200
16.812000 3.081700
16.833800 3.101600
16.855600 3.119500
16.877400 3.135600
16.899200 3.149600
16.921100 3.173200
16.942900 3.213900
16.964700 3.274700
16.986500 3.375000
17.008300 3.500200
17.030100 3.438800
17.052000 3.524200
17.073800 3.921500
17.095600 3.964300
17.117400 3.923800
17.139200 3.802600
17.161000 3.648300
17.182900 3.478800
17.204700 3.297900
17.226500 3.123000
17.248300 3.003900
17.270100 3.270700
17.291900 3.382800
17.313700 3.545300
17.335600 3.815700
17.357400 4.236200
17.379200 4.451900
17.401000 4.936800
17.422800 5.531100
17.444600 5.848000
17.466500 5.764300
17.488300 5.166400
17.510100 5.193100
17.531900 4.984000
17.553700 4.745500
17.575500 4.695500
17.597400 4.598200
17.619200 4.453400
17.641000 4.261200
17.662800 4.035900
17.684600 3.896800
17.706400 3.791900
17.728300 3.680400
17.750100 3.562400
17.771900 3.355700
17.793700 3.275500
17.815500 3.140600
17.837300 3.429800
17.859200 3.446200
17.881000 3.379400
17.902800 3.276400
17.924600 3.137200
17.946400 3.301300
17.968200 3.000900
17.990100 2.687300
18.011900 2.189300
18.033700 1.695700
18.055500 1.713500
18.077300 1.596600
18.099100 1.480800
18.121000 1.366200
18.142800 1.252600
18.164600 1.349700
18.186400 1.145900
18.208200 0.892300
18.230000 0.778100
18.251900 0.715500
18.273700 0.656000
18.295500 0.599700
18.317300 0.546600
18.339100 0.496600
18.360900 0.449900
18.382800 0.406200
18.404600 0.672000
18.426400 2.036900
18.448200 3.251700
18.470000 6.326900
18.491800 4.445100
18.513600 4.384700
18.535500 4.272700
18.557300 4.202000
18.579100 4.142700
18.600900 4.785700
18.622700 5.024600
18.644500 5.319000
18.666400 5.268100
18.688200 5.271400
18.710000 5.523900
18.731800 5.961500
18.753600 6.434100
18.775400 6.947500
18.797300 7.099200
18.819100 6.685500
18.840900 6.312900
18.862700 5.982200
18.884500 5.698900
18.906300 5.474500
18.928200 5.306700
18.950000 5.134600
18.971800 6.138800
18.993600 4.777900
19.015400 4.327100
19.037200 3.958600
19.059100 3.770500
19.080900 3.685600
19.102700 3.680700
19.124500 3.707000
19.146300 3.752500
19.168100 3.827100
19.190000 4.321100
19.211800 4.577100
19.233600 4.770600
19.255400 4.890400
19.277200 4.781300
19.299000 4.631800
19.320900 4.296300
19.342700 3.927800
19.364500 3.403200
19.386300 3.143800
19.408100 3.071500
19.429900 3.029900
19.451800 3.021400
19.473600 3.059000
19.495400 3.093400
19.517200 3.144900
19.539000 3.220900
19.560800 3.353300
19.582700 3.994700
19.604500 4.526000
19.626300 4.762400
19.648100 4.929100
19.669900 5.083100
19.691700 6.743000
19.713500 6.313200
19.735400 5.319300
19.757200 5.058000
19.779000 4.798300
19.800800 4.540100
19.822600 4.306300
19.844400 4.144500
19.866300 4.114400
19.888100 4.170800
19.909900 4.283700
19.931700 4.414700
19.953500 4.468100
19.975300 4.347900
19.997200 4.147100
20.019000 4.069100
20.040800 3.989600
20.062600 4.057300
20.084400 4.181000
20.106200 4.215100
20.128100 4.225200
20.149900 4.228300
20.171700 4.224300
20.193500 4.213200
20.215300 4.569900
20.237100 4.633300
20.259000 4.610100
20.280800 4.235600
20.302600 4.208300
20.324400 3.378700
20.346200 3.159300
20.368000 2.938700
20.389900 2.767600
20.411700 2.625500
20.433500 2.515500
20.455300 2.420100
20.477100 2.335700
20.498900 2.253000
20.520800 2.171600
20.542600 2.143000
20.564400 2.217100
20.586200 2.307400
20.608000 2.413900
20.629800 2.472300
20.651700 2.521800
20.673500 2.577400
20.695300 2.639200
20.717100 2.925600
20.738900 2.987200
20.760700 3.014200
20.782600 3.022500
20.804400 3.031000
20.826200 3.039800
20.848000 3.048900
20.869800 3.056600
20.891600 3.023300
20.913400 3.021400
20.935300 3.019800
20.957100 3.018500
20.978900 3.016400
21.000700 3.011300
21.022500 3.018700
21.044300 3.031000
21.066200 3.040400
21.088000 3.047100
21.109800 3.050300
21.131600 3.048800
21.153400 3.449600
21.175200 3.439600
21.197100 3.490600
21.218900 3.741100
21.240700 3.987000
21.262500 4.225300
21.284300 4.540900
21.306100 4.592200
21.328000 4.635200
21.349800 4.488100
21.371600 4.535800
21.393400 4.595900
21.415200 4.387200
21.437000 4.125100
21.458900 4.175300
21.480700 4.070600
21.502500 3.978300
21.524300 3.895200
21.546100 3.825800
21.567900 3.773600
21.589800 3.730300
21.611600 3.706700
21.633400 3.730100
21.655200 3.767000
21.677000 3.817600
21.698800 3.881800
21.720700 3.965500
21.742500 4.041900
21.764300 4.104000
21.786100 4.169000
21.807900 4.221300
21.829700 4.260800
21.851600 3.876300
21.873400 3.863500
21.895200 4.639500
21.917000 8.738800
21.938800 16.684800
21.960600 13.109300
21.982400 9.070700
22.004300 6.123700
22.026100 5.574500
22.047900 5.448000
22.069700 5.931400
22.091500 5.920700
22.113300 6.161600
22.135200 6.582700
22.157000 7.045500
22.178800 7.450700
22.200600 7.747800
22.222400 7.856100
22.244200 6.723700
22.266100 6.079100
22.287900 5.515400
22.309700 4.819600
22.331500 4.779900
22.353300 4.798500
22.375100 4.895500
22.397000 5.039800
22.418800 5.231300
22.440600 5.629100
22.462400 6.099700
22.484200 6.590000
22.506000 6.898700
22.527900 9.388700
22.549700 7.553500
22.571500 6.768400
22.593300 6.438100
22.615100 6.190500
22.636900 10.774100
22.658800 10.811300
22.680600 9.951200
22.702400 8.848000
22.724200 7.947100
22.746000 7.296100
22.767800 6.382700
22.789700 5.796800
22.811500 5.252000
22.833300 4.908800
22.855100 4.679500
22.876900 4.403900
22.898700 4.159300
22.920600 4.064600
22.942400 4.003700
22.964200 4.151500
22.986000 4.249700
23.007800 4.395900
23.029600 4.703300
23.051500 4.287800
23.073300 4.786700
23.095100 5.432200
23.116900 5.916600
23.138700 6.353200
23.160500 6.711000
23.182300 7.166900
23.204200 7.458800
23.226000 7.605400
23.247800 7.678900
23.269600 7.465400
23.291400 6.596900
23.313200 5.581400
23.335100 3.822400
23.356900 2.655300
23.378700 2.569100
23.400500 2.522300
23.422300 2.470200
23.444100 2.346700
23.466000 2.134900
23.487800 1.906500
23.509600 1.715400
23.531400 1.490500
23.553200 1.248700
23.575000 1.018200
23.596900 0.798900
23.618700 0.590800
23.640500 0.372300
23.662300 0.208900
23.684100 0.108200
23.705900 0.066700
23.727800 0.043500
23.749600 0.000000
23.771400 0.000000
23.793200 0.000000
23.815000 0.000000
23.836800 0.000000
23.858700 0.000000
23.880500 0.000000
23.902300 0.000000
23.924100 0.000000
23.945900 0.000000
23.967700 0.000000
23.989600 0.000000
24.011400 0.000000
24.033200 0.000000
24.055000 0.000000
24.076800 0.000000
24.098600 0.000000
24.120500 0.000000
24.142300 0.000000
24.164100 0.000000
24.185900 0.000000
24.207700 0.000000
24.229500 0.000000
24.251400 0.000000
24.273200 0.000000
24.295000 0.000000
24.316800 0.000000
24.338600 0.000000
24.360400 0.000000
24.382200 0.000000
24.404100 0.000000
24.425900 0.000000
24.447700 0.000000
24.469500 0.000000
24.491300 0.000000
24.513100 0.000000
24.535000 0.000000
24.556800 0.000000
24.578600 0.000000
24.600400 0.000000
24.622200 0.000000
24.644000 0.000000
24.665900 0.000000
24.687700 0.000000
24.709500 0.000000
24.731300 0.000000
24.753100 0.000000
24.774900 0.000000
24.796800 0.000000
24.818600 0.000000
24.840400 0.000000
24.862200 0.000000
24.884000 0.000000
24.905800 0.000000
24.927700 0.000000
24.949500 0.000000
24.971300 0.000000
24.993100 0.000000
25.014900 0.000000
25.036700 0.000000
25.058600 0.000000
25.080400 0.000000
25.102200 0.000000
25.124000 0.000000
25.145800 0.000000
25.167600 0.000000
25.189500 0.000000
25.211300 0.000000
25.233100 0.000000
25.254900 0.000000
25.276700 0.000000
25.298500 0.000000
25.320400 0.000000
25.342200 0.000000
25.364000 0.000000
25.385800 0.000000
25.407600 0.000000
25.429400 0.000000
25.451300 0.000000
25.473100 0.000000
25.494900 0.000000
25.516700 0.000000
25.538500 0.000000
25.560300 0.000000
25.582100 0.000000
25.604000 0.000000
25.625800 0.000000
25.647600 0.000000
25.669400 0.000000
25.691200 0.000000
25.713000 0.000000
e
