set title 'mp-1017982 - Density of States'
set xlabel 'Energy (eV)'
set ylabel 'DOS (states/eV)'
set grid
set xrange [-10:10]
set yrange [0:63.083]
set xzeroaxis lt -1
set terminal png size 800,600
set output 'mp-1017982_dos_gnuplot.png'
plot '-' using 1:2 with lines title 'DOS'
-10.972300 0.000000
-10.954400 0.000000
-10.936600 0.000000
-10.918700 0.000000
-10.900800 0.000000
-10.882900 0.000000
-10.865000 0.000000
-10.847100 0.000000
-10.829200 0.000000
-10.811300 0.000000
-10.793400 0.000000
-10.775500 0.000000
-10.757600 0.000000
-10.739700 0.000000
-10.721800 0.000000
-10.703900 0.000000
-10.686000 0.000000
-10.668100 0.000000
-10.650200 0.000000
-10.632300 0.000000
-10.614400 0.000000
-10.596500 0.000000
-10.578600 0.000000
-10.560700 0.000000
-10.542900 0.000000
-10.525000 0.000000
-10.507100 0.000000
-10.489200 0.000000
-10.471300 0.000000
-10.453400 0.000000
-10.435500 0.000000
-10.417600 0.000000
-10.399700 0.000000
-10.381800 0.000000
-10.363900 0.000000
-10.346000 0.000000
-10.328100 0.000000
-10.310200 0.000000
-10.292300 0.000000
-10.274400 0.000000
-10.256500 0.000000
-10.238600 0.000000
-10.220700 0.000000
-10.202800 0.000000
-10.184900 0.000000
-10.167000 0.000000
-10.149200 0.000000
-10.131300 0.000000
-10.113400 0.000000
-10.095500 0.000000
-10.077600 0.000000
-10.059700 0.000000
-10.041800 0.000000
-10.023900 0.000000
-10.006000 0.000000
-9.988100 0.000000
-9.970200 0.000000
-9.952300 0.000000
-9.934400 0.000000
-9.916500 0.000000
-9.898600 0.000000
-9.880700 0.000000
-9.862800 0.000000
-9.844900 0.000000
-9.827000 0.000000
-9.809100 0.000000
-9.791200 0.000000
-9.773300 0.000000
-9.755500 0.000000
-9.737600 0.000000
-9.719700 0.000000
-9.701800 0.000000
-9.683900 0.000000
-9.666000 0.000000
-9.648100 0.000000
-9.630200 0.000000
-9.612300 0.000000
-9.594400 0.000000
-9.576500 0.000000
-9.558600 0.000000
-9.540700 0.000000
-9.522800 0.000000
-9.504900 0.000000
-9.487000 0.000000
-9.469100 0.000000
-9.451200 0.000000
-9.433300 0.000000
-9.415400 0.000000
-9.397500 0.000000
-9.379700 0.000000
-9.361800 0.000000
-9.343900 0.002700
-9.326000 0.324700
-9.308100 0.446900
-9.290200 0.629900
-9.272300 0.735800
-9.254400 0.868900
-9.236500 1.006900
-9.218600 1.144800
-9.200700 1.278000
-9.182800 1.425400
-9.164900 1.591500
-9.147000 1.768200
-9.129100 1.958600
-9.111200 2.171500
-9.093300 2.402700
-9.075400 2.674300
-9.057500 3.000900
-9.039600 3.344100
-9.021700 3.744800
-9.003800 4.290500
-8.986000 4.907800
-8.968100 5.593400
-8.950200 6.716700
-8.932300 8.111400
-8.914400 10.282100
-8.896500 13.856900
-8.878600 14.810300
-8.860700 15.980600
-8.842800 17.557300
-8.824900 19.444700
-8.807000 22.895800
-8.789100 57.348100
-8.771200 0.000000
-8.753300 0.000000
-8.735400 0.000000
-8.717500 0.000000
-8.699600 0.000000
-8.681700 0.000000
-8.663800 0.000000
-8.645900 0.000000
-8.628000 0.000000
-8.610100 0.000000
-8.592300 0.000000
-8.574400 0.000000
-8.556500 0.000000
-8.538600 0.000000
-8.520700 0.000000
-8.502800 0.000000
-8.484900 0.000000
-8.467000 0.000000
-8.449100 0.000000
-8.431200 0.000000
-8.413300 0.000000
-8.395400 0.000000
-8.377500 0.000000
-8.359600 0.000000
-8.341700 0.000000
-8.323800 0.000000
-8.305900 0.000000
-8.288000 0.000000
-8.270100 0.000000
-8.252200 0.000000
-8.234300 0.000000
-8.216400 0.000000
-8.198600 0.000000
-8.180700 0.000000
-8.162800 0.000000
-8.144900 0.000000
-8.127000 0.000000
-8.109100 0.000000
-8.091200 0.000000
-8.073300 0.000000
-8.055400 0.000000
-8.037500 0.000000
-8.019600 0.000000
-8.001700 0.000000
-7.983800 0.000000
-7.965900 0.000000
-7.948000 0.000000
-7.930100 0.000000
-7.912200 0.000000
-7.894300 0.000000
-7.876400 0.000000
-7.858500 0.000000
-7.840600 0.000000
-7.822700 0.000000
-7.804900 0.000000
-7.787000 0.000000
-7.769100 0.000000
-7.751200 0.000000
-7.733300 0.000000
-7.715400 0.000000
-7.697500 0.000000
-7.679600 0.000000
-7.661700 0.000000
-7.643800 0.000000
-7.625900 0.000000
-7.608000 0.000000
-7.590100 0.000000
-7.572200 0.000000
-7.554300 0.000000
-7.536400 0.000000
-7.518500 0.000000
-7.500600 0.000000
-7.482700 0.000000
-7.464800 0.000000
-7.446900 0.000000
-7.429000 0.000000
-7.411200 0.000000
-7.393300 0.000000
-7.375400 0.000000
-7.357500 0.000000
-7.339600 0.000000
-7.321700 0.000000
-7.303800 0.000000
-7.285900 0.000000
-7.268000 0.000000
-7.250100 0.000000
-7.232200 0.000000
-7.214300 0.000000
-7.196400 0.000000
-7.178500 0.000000
-7.160600 0.000000
-7.142700 0.000000
-7.124800 0.000000
-7.106900 0.000000
-7.089000 0.000000
-7.071100 0.000000
-7.053200 0.000000
-7.035400 0.000000
-7.017500 0.000000
-6.999600 0.000000
-6.981700 0.000000
-6.963800 0.000000
-6.945900 0.000000
-6.928000 0.000000
-6.910100 0.000000
-6.892200 0.000000
-6.874300 0.000000
-6.856400 0.000000
-6.838500 0.000000
-6.820600 0.000000
-6.802700 0.000000
-6.784800 0.000000
-6.766900 0.000000
-6.749000 0.000000
-6.731100 0.000000
-6.713200 0.000000
-6.695300 0.000000
-6.677400 0.000000
-6.659500 0.000000
-6.641700 0.000000
-6.623800 0.000000
-6.605900 0.000000
-6.588000 0.000000
-6.570100 0.000000
-6.552200 0.000000
-6.534300 0.000000
-6.516400 0.000000
-6.498500 0.000000
-6.480600 0.000000
-6.462700 0.000000
-6.444800 0.000000
-6.426900 0.000000
-6.409000 0.000000
-6.391100 0.000000
-6.373200 0.000000
-6.355300 0.000000
-6.337400 0.000000
-6.319500 0.000000
-6.301600 0.000000
-6.283700 0.000000
-6.265800 0.000000
-6.248000 0.000000
-6.230100 0.000000
-6.212200 0.000000
-6.194300 0.000000
-6.176400 0.000000
-6.158500 0.000000
-6.140600 0.000000
-6.122700 0.000000
-6.104800 0.000000
-6.086900 0.000000
-6.069000 0.000000
-6.051100 0.000000
-6.033200 0.000000
-6.015300 0.000000
-5.997400 0.000000
-5.979500 0.000000
-5.961600 0.000000
-5.943700 0.000000
-5.925800 0.000000
-5.907900 0.000000
-5.890000 0.000000
-5.872100 0.000000
-5.854300 0.000000
-5.836400 0.000000
-5.818500 0.000000
-5.800600 0.059300
-5.782700 1.549400
-5.764800 6.624700
-5.746900 10.765800
-5.729000 15.066000
-5.711100 29.915100
-5.693200 51.827700
-5.675300 32.353800
-5.657400 40.832500
-5.639500 39.892800
-5.621600 31.098200
-5.603700 19.038600
-5.585800 21.998500
-5.567900 27.275800
-5.550000 23.243000
-5.532100 20.086300
-5.514200 18.909300
-5.496300 18.351300
-5.478400 17.348400
-5.460600 20.272400
-5.442700 27.954000
-5.424800 31.612500
-5.406900 31.119800
-5.389000 35.279300
-5.371100 33.254400
-5.353200 33.808300
-5.335300 23.323000
-5.317400 18.605900
-5.299500 20.381000
-5.281600 29.973100
-5.263700 34.019700
-5.245800 40.316700
-5.227900 47.594900
-5.210000 31.500300
-5.192100 22.603500
-5.174200 13.865600
-5.156300 4.311600
-5.138400 2.541900
-5.120500 2.505500
-5.102600 2.098100
-5.084700 1.916400
-5.066900 1.853000
-5.049000 1.820400
-5.031100 1.799100
-5.013200 1.797100
-4.995300 1.805900
-4.977400 1.821400
-4.959500 1.838700
-4.941600 1.843200
-4.923700 1.836900
-4.905800 1.843700
-4.887900 1.856200
-4.870000 1.873400
-4.852100 1.894100
-4.834200 1.917400
-4.816300 1.943700
-4.798400 1.971500
-4.780500 2.001100
-4.762600 2.034000
-4.744700 2.069200
-4.726800 2.106600
-4.708900 2.145300
-4.691000 2.187700
-4.673200 2.235200
-4.655300 2.286800
-4.637400 2.342300
-4.619500 2.401300
-4.601600 2.468900
-4.583700 2.545400
-4.565800 2.634400
-4.547900 2.732400
-4.530000 2.839300
-4.512100 2.955700
-4.494200 3.210000
-4.476300 3.360400
-4.458400 3.475100
-4.440500 3.565100
-4.422600 3.876800
-4.404700 3.790700
-4.386800 3.800200
-4.368900 3.802900
-4.351000 3.756000
-4.333100 3.706700
-4.315200 3.698800
-4.297400 3.763200
-4.279500 3.883100
-4.261600 3.864900
-4.243700 3.878200
-4.225800 3.917100
-4.207900 3.943600
-4.190000 3.960600
-4.172100 4.095300
-4.154200 4.320800
-4.136300 4.823400
-4.118400 4.392000
-4.100500 4.369100
-4.082600 4.387000
-4.064700 4.470000
-4.046800 4.615100
-4.028900 4.660000
-4.011000 3.970500
-3.993100 2.868000
-3.975200 2.022200
-3.957300 1.401600
-3.939400 0.855800
-3.921500 0.000000
-3.903700 0.000000
-3.885800 0.000000
-3.867900 0.000000
-3.850000 0.000000
-3.832100 0.000000
-3.814200 0.000000
-3.796300 0.000000
-3.778400 0.000000
-3.760500 0.000000
-3.742600 0.000000
-3.724700 0.000000
-3.706800 0.000000
-3.688900 0.000000
-3.671000 0.000000
-3.653100 0.000000
-3.635200 0.000000
-3.617300 0.000000
-3.599400 0.000000
-3.581500 0.000000
-3.563600 0.000000
-3.545700 0.000000
-3.527800 0.000000
-3.510000 0.000000
-3.492100 0.000000
-3.474200 0.000000
-3.456300 0.000000
-3.438400 0.000000
-3.420500 0.000000
-3.402600 0.000000
-3.384700 0.000000
-3.366800 0.000000
-3.348900 0.000000
-3.331000 0.000000
-3.313100 0.000000
-3.295200 0.000000
-3.277300 0.000000
-3.259400 0.000000
-3.241500 0.000000
-3.223600 0.000000
-3.205700 0.000000
-3.187800 0.000000
-3.169900 0.000000
-3.152000 0.000000
-3.134100 0.000000
-3.116300 0.000000
-3.098400 0.000000
-3.080500 0.000000
-3.062600 0.000000
-3.044700 0.000000
-3.026800 0.000000
-3.008900 0.000000
-2.991000 0.000000
-2.973100 0.000000
-2.955200 0.000000
-2.937300 0.000000
-2.919400 0.000000
-2.901500 0.000000
-2.883600 0.000000
-2.865700 0.000000
-2.847800 0.000000
-2.829900 0.000000
-2.812000 0.000000
-2.794100 0.000000
-2.776200 0.000000
-2.758300 0.000000
-2.740400 0.000000
-2.722600 0.000000
-2.704700 0.000000
-2.686800 0.000000
-2.668900 0.000000
-2.651000 0.000000
-2.633100 0.000000
-2.615200 0.000000
-2.597300 0.000000
-2.579400 0.000000
-2.561500 0.000000
-2.543600 0.000000
-2.525700 0.000000
-2.507800 0.000000
-2.489900 0.000000
-2.472000 0.000000
-2.454100 0.000000
-2.436200 0.000000
-2.418300 0.000000
-2.400400 0.000000
-2.382500 0.000000
-2.364600 0.000000
-2.346700 0.000000
-2.328900 0.000000
-2.311000 0.000000
-2.293100 0.000000
-2.275200 0.000000
-2.257300 0.000000
-2.239400 0.000000
-2.221500 0.000000
-2.203600 0.000000
-2.185700 0.000000
-2.167800 0.000000
-2.149900 0.000000
-2.132000 0.000000
-2.114100 0.000000
-2.096200 0.000000
-2.078300 0.000000
-2.060400 0.000000
-2.042500 0.000000
-2.024600 0.000000
-2.006700 0.000000
-1.988800 0.000000
-1.970900 0.000000
-1.953000 0.000000
-1.935200 0.000000
-1.917300 0.000000
-1.899400 0.000000
-1.881500 0.000000
-1.863600 0.000000
-1.845700 0.000000
-1.827800 0.000000
-1.809900 0.000000
-1.792000 0.000000
-1.774100 0.000000
-1.756200 0.000000
-1.738300 0.000000
-1.720400 0.000000
-1.702500 0.000000
-1.684600 0.000000
-1.666700 0.000000
-1.648800 0.000000
-1.630900 0.000000
-1.613000 0.000000
-1.595100 0.000000
-1.577200 0.000000
-1.559400 0.000000
-1.541500 0.000000
-1.523600 0.000000
-1.505700 0.000000
-1.487800 0.000000
-1.469900 0.000000
-1.452000 0.000000
-1.434100 0.000000
-1.416200 0.000000
-1.398300 0.000000
-1.380400 0.000000
-1.362500 0.000000
-1.344600 0.000000
-1.326700 0.000000
-1.308800 0.000000
-1.290900 0.000000
-1.273000 0.000000
-1.255100 0.000000
-1.237200 0.000000
-1.219300 0.000000
-1.201400 0.000000
-1.183500 0.000000
-1.165700 0.000000
-1.147800 0.000000
-1.129900 0.000000
-1.112000 0.000000
-1.094100 0.000000
-1.076200 0.000000
-1.058300 0.000000
-1.040400 0.000000
-1.022500 0.000000
-1.004600 0.000000
-0.986700 0.000000
-0.968800 0.003900
-0.950900 0.030800
-0.933000 0.053600
-0.915100 0.079300
-0.897200 0.107800
-0.879300 0.136900
-0.861400 0.166300
-0.843500 0.924000
-0.825600 1.468800
-0.807700 2.188600
-0.789800 2.718000
-0.772000 2.928400
-0.754100 3.060600
-0.736200 3.398700
-0.718300 3.809200
-0.700400 4.437200
-0.682500 6.398900
-0.664600 5.989300
-0.646700 6.251500
-0.628800 6.350400
-0.610900 5.644100
-0.593000 5.079700
-0.575100 4.368400
-0.557200 3.660500
-0.539300 3.125300
-0.521400 2.935100
-0.503500 2.783600
-0.485600 2.692300
-0.467700 2.560800
-0.449800 2.415100
-0.431900 2.358300
-0.414000 2.294800
-0.396100 2.248600
-0.378300 2.203100
-0.360400 2.170200
-0.342500 2.131400
-0.324600 2.075800
-0.306700 2.097800
-0.288800 2.107800
-0.270900 2.081300
-0.253000 2.071600
-0.235100 2.063900
-0.217200 2.066100
-0.199300 2.072300
-0.181400 2.067200
-0.163500 2.084300
-0.145600 2.081900
-0.127700 2.057600
-0.109800 2.031400
-0.091900 2.079500
-0.074000 2.176900
-0.056100 2.191100
-0.038200 2.059000
-0.020300 1.875000
-0.002400 1.780200
0.015400 1.701000
0.033300 1.632000
0.051200 1.569700
0.069100 1.514100
0.087000 1.473000
0.104900 1.438700
0.122800 1.405500
0.140700 1.373300
0.158600 1.342100
0.176500 1.311900
0.194400 1.283000
0.212300 1.255500
0.230200 1.229000
0.248100 1.203500
0.266000 1.178600
0.283900 1.153700
0.301800 1.131500
0.319700 1.109600
0.337600 1.087800
0.355500 1.067600
0.373400 1.049300
0.391300 1.032900
0.409100 1.016900
0.427000 1.001300
0.444900 0.985800
0.462800 0.970300
0.480700 0.954900
0.498600 0.939600
0.516500 0.924500
0.534400 0.909600
0.552300 0.894900
0.570200 0.880300
0.588100 0.866300
0.606000 0.853000
0.623900 0.839500
0.641800 0.826400
0.659700 0.813600
0.677600 0.800700
0.695500 0.787500
0.713400 0.774900
0.731300 0.763800
0.749200 0.753200
0.767100 0.742600
0.785000 0.732100
0.802800 0.721700
0.820700 0.711400
0.838600 0.701000
0.856500 0.690500
0.874400 0.680700
0.892300 0.671800
0.910200 0.662800
0.928100 0.653800
0.946000 0.644900
0.963900 0.635900
0.981800 0.627100
0.999700 0.618200
1.017600 0.609300
1.035500 0.600200
1.053400 0.591000
1.071300 0.581900
1.089200 0.573100
1.107100 0.564700
1.125000 0.556900
1.142900 0.549000
1.160800 0.541500
1.178600 0.533900
1.196500 0.526600
1.214400 0.519500
1.232300 0.512400
1.250200 0.505300
1.268100 0.498200
1.286000 0.491200
1.303900 0.484200
1.321800 0.477200
1.339700 0.521400
1.357600 0.550800
1.375500 0.556500
1.393400 0.567600
1.411300 0.579500
1.429200 0.592100
1.447100 0.604800
1.465000 0.616500
1.482900 0.626700
1.500800 0.631000
1.518700 0.637000
1.536600 0.644800
1.554500 0.654000
1.572300 0.664000
1.590200 0.674400
1.608100 0.685300
1.626000 0.696600
1.643900 0.708400
1.661800 0.720600
1.679700 0.733300
1.697600 0.742500
1.715500 0.757600
1.733400 0.782000
1.751300 0.817900
1.769200 0.965200
1.787100 1.224000
1.805000 1.679300
1.822900 1.860200
1.840800 1.941500
1.858700 2.005800
1.876600 1.935900
1.894500 1.814700
1.912400 1.628100
1.930300 1.615700
1.948200 1.612700
1.966000 1.637700
1.983900 1.693600
2.001800 1.736000
2.019700 1.754000
2.037600 1.748300
2.055500 1.711100
2.073400 1.623100
2.091300 1.585000
2.109200 1.581100
2.127100 1.578700
2.145000 1.555700
2.162900 1.525100
2.180800 1.505300
2.198700 1.496000
2.216600 1.501300
2.234500 1.507900
2.252400 1.513600
2.270300 1.517500
2.288200 1.523000
2.306100 1.528700
2.324000 1.560600
2.341900 1.596300
2.359700 1.630500
2.377600 1.662800
2.395500 1.688600
2.413400 1.712700
2.431300 1.744900
2.449200 1.788200
2.467100 1.842800
2.485000 1.909500
2.502900 1.982700
2.520800 2.067200
2.538700 2.115100
2.556600 2.142300
2.574500 2.163800
2.592400 2.184100
2.610300 2.169600
2.628200 2.169200
2.646100 2.178200
2.664000 2.209200
2.681900 2.240600
2.699800 2.271700
2.717700 2.301200
2.735600 2.329500
2.753400 2.369500
2.771300 2.398500
2.789200 2.439100
2.807100 2.569100
2.825000 2.724300
2.842900 2.850400
2.860800 2.901400
2.878700 2.903700
2.896600 2.836000
2.914500 2.755700
2.932400 2.670600
2.950300 2.605800
2.968200 2.531100
2.986100 2.502900
3.004000 2.439400
3.021900 2.391700
3.039800 2.369400
3.057700 2.425500
3.075600 2.496300
3.093500 2.469300
3.111400 2.501800
3.129300 2.558500
3.147100 2.641500
3.165000 2.852300
3.182900 2.905200
3.200800 2.983200
3.218700 2.995000
3.236600 3.005600
3.254500 3.024100
3.272400 3.049300
3.290300 3.110200
3.308200 3.328500
3.326100 3.225600
3.344000 3.298200
3.361900 3.392700
3.379800 3.472400
3.397700 3.375500
3.415600 3.275900
3.433500 3.231300
3.451400 3.207000
3.469300 3.209100
3.487200 3.245800
3.505100 3.302100
3.522900 3.416600
3.540800 3.682000
3.558700 3.991600
3.576600 4.276900
3.594500 4.471300
3.612400 4.457600
3.630300 4.464000
3.648200 4.521200
3.666100 4.606500
3.684000 4.755700
3.701900 4.974600
3.719800 5.532800
3.737700 5.330100
3.755600 5.153500
3.773500 5.089500
3.791400 5.095900
3.809300 5.374300
3.827200 5.031500
3.845100 4.715900
3.863000 4.605400
3.880900 4.517700
3.898800 4.393100
3.916600 4.266500
3.934500 4.149600
3.952400 4.046400
3.970300 3.956900
3.988200 3.865600
4.006100 3.783600
4.024000 3.719400
4.041900 3.668600
4.059800 3.639100
4.077700 3.615100
4.095600 3.585300
4.113500 3.535400
4.131400 3.457000
4.149300 3.379300
4.167200 3.314100
4.185100 3.141600
4.203000 2.973200
4.220900 2.845200
4.238800 2.730700
4.256700 2.624300
4.274600 2.561500
4.292500 2.490700
4.310300 2.415800
4.328200 2.333800
4.346100 2.250700
4.364000 2.178600
4.381900 2.110900
4.399800 2.045300
4.417700 1.985600
4.435600 1.929000
4.453500 1.885400
4.471400 1.801200
4.489300 1.755800
4.507200 1.714500
4.525100 1.671800
4.543000 1.630000
4.560900 1.590500
4.578800 1.581100
4.596700 1.559900
4.614600 1.473100
4.632500 1.422200
4.650400 1.369500
4.668300 1.329100
4.686200 1.282600
4.704000 1.226900
4.721900 1.175900
4.739800 1.131300
4.757700 1.092200
4.775600 1.039800
4.793500 0.984700
4.811400 0.936900
4.829300 0.901200
4.847200 0.856600
4.865100 0.804500
4.883000 0.731300
4.900900 0.657600
4.918800 0.588400
4.936700 0.531700
4.954600 0.423900
4.972500 0.322400
4.990400 0.237100
5.008300 0.208900
5.026200 0.071100
5.044100 0.000100
5.062000 0.011300
5.079900 0.022900
5.097700 0.034200
5.115600 0.045100
5.133500 0.055100
5.151400 0.060700
5.169300 0.065700
5.187200 0.070400
5.205100 0.074800
5.223000 0.081600
5.240900 0.088400
5.258800 0.095500
5.276700 0.102700
5.294600 0.109900
5.312500 0.116900
5.330400 0.123100
5.348300 0.128700
5.366200 0.133800
5.384100 0.138800
5.402000 0.143900
5.419900 0.149500
5.437800 0.155700
5.455700 0.162300
5.473600 0.169000
5.491400 0.175800
5.509300 0.182700
5.527200 0.189700
5.545100 0.196800
5.563000 0.204100
5.580900 0.210700
5.598800 0.217000
5.616700 0.223300
5.634600 0.229800
5.652500 0.236600
5.670400 0.243500
5.688300 0.250500
5.706200 0.257700
5.724100 0.265100
5.742000 0.272700
5.759900 0.280400
5.777800 0.288200
5.795700 0.296200
5.813600 0.304300
5.831500 0.312600
5.849400 0.321600
5.867300 0.331100
5.885100 0.341000
5.903000 0.350400
5.920900 0.358900
5.938800 0.367300
5.956700 0.376000
5.974600 0.385100
5.992500 0.394400
6.010400 0.404000
6.028300 0.414100
6.046200 0.424700
6.064100 0.435900
6.082000 0.447700
6.099900 0.460200
6.117800 0.475700
6.135700 0.497400
6.153600 0.520800
6.171500 0.544400
6.189400 0.567700
6.207300 0.590700
6.225200 0.613500
6.243100 0.636100
6.260900 0.658100
6.278800 0.677300
6.296700 0.692900
6.314600 0.708800
6.332500 0.723900
6.350400 0.700900
6.368300 0.712500
6.386200 0.726700
6.404100 0.741400
6.422000 0.755200
6.439900 0.769300
6.457800 0.783600
6.475700 0.797900
6.493600 0.812600
6.511500 0.827600
6.529400 0.843000
6.547300 0.858500
6.565200 0.874300
6.583100 0.890200
6.601000 0.906600
6.618900 0.925900
6.636800 0.947900
6.654600 0.970500
6.672500 0.992300
6.690400 1.014800
6.708300 1.035200
6.726200 1.056200
6.744100 1.078500
6.762000 1.101200
6.779900 1.126000
6.797800 1.154400
6.815700 1.184600
6.833600 1.216600
6.851500 1.250200
6.869400 1.285700
6.887300 1.337300
6.905200 1.407400
6.923100 1.475700
6.941000 1.565700
6.958900 1.665200
6.976800 1.750800
6.994700 1.814000
7.012600 1.867700
7.030500 1.894300
7.048300 1.866100
7.066200 1.838600
7.084100 1.819800
7.102000 1.815800
7.119900 1.815900
7.137800 1.804900
7.155700 1.782700
7.173600 1.751100
7.191500 1.721700
7.209400 1.698900
7.227300 1.688400
7.245200 1.687300
7.263100 1.687300
7.281000 1.683600
7.298900 1.680100
7.316800 1.670600
7.334700 1.656700
7.352600 1.644200
7.370500 1.634400
7.388400 1.626800
7.406300 1.624600
7.424200 1.622600
7.442000 1.617500
7.459900 1.611700
7.477800 1.610400
7.495700 1.610400
7.513600 1.610200
7.531500 1.609700
7.549400 1.609200
7.567300 1.609100
7.585200 1.610300
7.603100 1.615800
7.621000 1.621000
7.638900 1.624900
7.656800 1.628300
7.674700 1.631900
7.692600 1.636300
7.710500 1.639700
7.728400 1.641600
7.746300 1.642400
7.764200 1.641600
7.782100 1.640100
7.800000 1.638800
7.817900 1.634700
7.835700 1.634300
7.853600 1.635700
7.871500 1.638300
7.889400 1.642600
7.907300 1.647900
7.925200 1.653000
7.943100 1.659700
7.961000 1.666900
7.978900 1.673400
7.996800 1.691300
8.014700 1.708800
8.032600 1.720800
8.050500 1.730600
8.068400 1.738500
8.086300 1.742800
8.104200 1.744200
8.122100 1.744700
8.140000 1.744200
8.157900 1.746000
8.175800 1.753500
8.193700 1.764700
8.211600 1.775800
8.229400 1.790100
8.247300 1.826000
8.265200 1.920700
8.283100 1.880100
8.301000 1.818300
8.318900 1.816200
8.336800 1.792500
8.354700 1.785500
8.372600 1.807900
8.390500 1.819800
8.408400 1.790200
8.426300 1.616500
8.444200 1.540000
8.462100 1.448400
8.480000 1.373100
8.497900 1.344100
8.515800 1.330600
8.533700 1.329600
8.551600 1.350700
8.569500 1.350700
8.587400 1.307700
8.605300 1.272400
8.623100 1.270500
8.641000 1.282800
8.658900 1.304500
8.676800 1.432700
8.694700 1.517900
8.712600 1.480200
8.730500 1.353300
8.748400 1.304800
8.766300 1.598300
8.784200 0.611200
8.802100 0.000000
8.820000 0.000000
8.837900 0.000000
8.855800 0.000000
8.873700 0.000000
8.891600 0.000000
8.909500 0.000000
8.927400 0.000000
8.945300 0.000000
8.963200 0.000000
8.981100 0.000000
8.998900 0.000000
9.016800 0.000000
9.034700 0.000000
9.052600 0.000000
9.070500 0.000000
9.088400 0.000000
9.106300 0.000000
9.124200 0.000000
9.142100 0.000000
9.160000 0.000000
9.177900 0.000000
9.195800 0.000000
9.213700 0.000000
9.231600 0.000000
9.249500 0.000000
9.267400 0.000000
9.285300 0.000000
9.303200 0.000000
9.321100 0.000000
9.339000 0.000000
9.356900 0.000000
9.374800 0.000000
9.392600 0.000000
9.410500 0.000000
9.428400 0.000000
9.446300 0.000000
9.464200 0.000000
9.482100 0.000000
9.500000 0.000000
9.517900 0.000000
9.535800 0.000000
9.553700 0.000000
9.571600 0.000000
9.589500 0.000000
9.607400 0.000000
9.625300 0.000000
9.643200 0.000000
9.661100 0.000000
9.679000 0.000000
9.696900 0.000000
9.714800 0.000000
9.732700 0.002100
9.750600 0.144600
9.768500 0.408700
9.786300 0.773100
9.804200 1.237200
9.822100 1.390900
9.840000 1.451700
9.857900 1.570000
9.875800 1.581600
9.893700 1.524200
9.911600 1.574100
9.929500 1.694600
9.947400 1.826300
9.965300 1.955500
9.983200 2.034900
10.001100 2.116300
10.019000 2.108600
10.036900 2.168800
10.054800 2.222200
10.072700 2.294200
10.090600 2.449700
10.108500 2.639200
10.126400 2.915100
10.144300 3.344500
10.162200 3.857800
10.180000 5.261800
10.197900 4.956500
10.215800 4.997100
10.233700 5.272200
10.251600 5.602300
10.269500 5.606800
10.287400 5.444400
10.305300 5.198500
10.323200 5.113300
10.341100 5.127100
10.359000 4.701400
10.376900 4.440600
10.394800 4.213300
10.412700 3.959300
10.430600 3.771500
10.448500 3.615200
10.466400 3.524000
10.484300 3.414100
10.502200 3.253700
10.520100 3.138800
10.538000 3.068700
10.555900 3.015400
10.573700 2.994000
10.591600 2.938700
10.609500 2.891100
10.627400 2.872800
10.645300 2.902300
10.663200 2.917200
10.681100 2.904500
10.699000 3.144700
10.716900 3.210800
10.734800 3.263400
10.752700 3.024400
10.770600 2.693500
10.788500 2.478200
10.806400 2.349200
10.824300 2.313100
10.842200 2.493900
10.860100 2.259200
10.878000 1.717600
10.895900 1.308900
10.913800 1.190500
10.931700 1.111600
10.949600 1.063700
10.967400 1.020600
10.985300 1.299400
11.003200 1.020200
11.021100 0.999300
11.039000 0.978500
11.056900 0.963400
11.074800 0.959400
11.092700 0.944200
11.110600 0.928300
11.128500 0.906100
11.146400 0.888700
11.164300 0.885800
11.182200 0.787300
11.200100 0.785000
11.218000 0.784500
11.235900 0.785800
11.253800 0.782300
11.271700 0.776100
11.289600 0.772000
11.307500 0.769700
11.325400 0.761400
11.343300 0.756500
11.361100 0.753400
11.379000 0.750300
11.396900 0.753200
11.414800 0.741400
11.432700 0.731200
11.450600 0.721300
11.468500 0.715100
11.486400 0.713600
11.504300 0.719000
11.522200 0.728800
11.540100 0.737100
11.558000 0.745500
11.575900 0.754600
11.593800 0.764500
11.611700 0.775600
11.629600 0.787100
11.647500 0.798800
11.665400 0.810500
11.683300 0.820400
11.701200 0.831100
11.719100 0.842100
11.736900 0.853200
11.754800 0.863300
11.772700 0.873900
11.790600 0.886200
11.808500 0.903200
11.826400 0.919200
11.844300 0.941000
11.862200 0.965200
11.880100 0.996700
11.898000 1.028400
11.915900 1.061100
11.933800 1.094900
11.951700 1.126600
11.969600 1.157200
11.987500 1.187500
12.005400 1.217800
12.023300 1.249100
12.041200 1.281600
12.059100 1.316000
12.077000 1.352800
12.094900 1.391800
12.112800 1.433200
12.130600 1.506600
12.148500 1.645400
12.166400 1.869500
12.184300 2.219200
12.202200 2.563700
12.220100 2.947900
12.238000 3.578200
12.255900 3.550300
12.273800 3.665000
12.291700 3.765500
12.309600 3.835900
12.327500 3.916300
12.345400 4.003000
12.363300 4.319500
12.381200 4.956600
12.399100 5.436400
12.417000 5.211800
12.434900 4.494200
12.452800 4.088400
12.470700 3.815800
12.488600 3.580700
12.506500 3.405300
12.524300 3.288700
12.542200 3.124000
12.560100 2.766700
12.578000 2.250300
12.595900 2.213700
12.613800 2.170400
12.631700 2.116800
12.649600 2.066600
12.667500 2.022000
12.685400 1.977700
12.703300 1.914700
12.721200 1.884600
12.739100 1.856400
12.757000 1.828200
12.774900 1.801100
12.792800 1.784400
12.810700 1.767400
12.828600 1.701700
12.846500 1.645400
12.864400 1.613700
12.882300 1.590200
12.900200 1.567700
12.918000 1.548100
12.935900 1.532400
12.953800 1.519800
12.971700 1.509100
12.989600 1.499500
13.007500 1.490600
13.025400 1.484100
13.043300 1.477700
13.061200 1.476000
13.079100 1.473600
13.097000 1.467700
13.114900 1.458700
13.132800 1.460400
13.150700 1.473500
13.168600 1.460000
13.186500 1.445000
13.204400 1.441300
13.222300 1.443200
13.240200 1.451400
13.258100 1.461200
13.276000 1.472000
13.293900 1.483400
13.311700 1.487200
13.329600 1.489500
13.347500 1.501900
13.365400 1.516700
13.383300 1.545900
13.401200 1.570000
13.419100 1.588200
13.437000 1.614700
13.454900 1.644000
13.472800 1.678500
13.490700 1.716900
13.508600 1.811400
13.526500 2.077400
13.544400 2.223300
13.562300 2.030000
13.580200 2.147900
13.598100 2.241500
13.616000 2.162500
13.633900 2.237600
13.651800 2.349300
13.669700 2.562900
13.687600 3.001700
13.705400 3.276600
13.723300 3.264000
13.741200 3.220400
13.759100 3.204400
13.777000 3.266100
13.794900 3.218400
13.812800 3.140900
13.830700 3.097500
13.848600 3.058700
13.866500 3.018600
13.884400 2.974200
13.902300 2.935300
13.920200 2.915600
13.938100 2.907100
13.956000 2.897500
13.973900 2.861800
13.991800 2.755300
14.009700 2.643600
14.027600 2.649300
14.045500 2.667700
14.063400 2.578700
14.081300 2.496900
14.099100 2.522900
14.117000 2.560500
14.134900 2.552900
14.152800 2.604100
14.170700 2.518800
14.188600 2.435000
14.206500 2.268900
14.224400 2.158900
14.242300 2.116900
14.260200 2.083000
14.278100 2.057400
14.296000 2.047600
14.313900 2.050300
14.331800 2.050200
14.349700 2.041900
14.367600 2.044300
14.385500 2.057400
14.403400 2.068000
14.421300 2.077700
14.439200 2.114600
14.457100 2.165200
14.474900 2.187400
14.492800 2.170200
14.510700 2.152800
14.528600 2.143600
14.546500 2.130000
14.564400 2.118500
14.582300 2.119300
14.600200 2.132700
14.618100 2.144500
14.636000 2.146400
14.653900 2.134800
14.671800 2.127900
14.689700 2.141300
14.707600 2.169700
14.725500 2.200800
14.743400 2.229800
14.761300 2.258100
14.779200 2.291600
14.797100 2.381500
14.815000 2.598900
14.832900 2.754800
14.850800 2.562600
14.868600 2.536700
14.886500 2.512200
14.904400 2.530000
14.922300 2.554100
14.940200 2.518300
14.958100 2.518700
14.976000 2.655200
14.993900 3.024700
15.011800 2.481100
15.029700 2.041000
15.047600 1.917600
15.065500 1.826300
15.083400 1.740700
15.101300 1.684900
15.119200 1.663200
15.137100 1.650300
15.155000 1.638200
15.172900 1.628900
15.190800 1.621300
15.208700 1.619600
15.226600 1.617400
15.244500 1.616900
15.262300 1.612000
15.280200 1.604500
15.298100 1.593900
15.316000 1.583600
15.333900 1.578000
15.351800 1.573700
15.369700 1.571000
15.387600 1.576600
15.405500 1.601600
15.423400 1.656400
15.441300 1.437100
15.459200 1.291100
15.477100 1.262400
15.495000 1.235700
15.512900 1.211900
15.530800 1.172500
15.548700 1.177800
15.566600 1.200600
15.584500 1.236700
15.602400 1.277900
15.620300 1.333500
15.638200 1.402300
15.656000 1.479300
15.673900 1.637500
15.691800 1.804400
15.709700 1.956500
15.727600 2.042100
15.745500 2.080200
15.763400 2.077400
15.781300 2.045100
15.799200 2.016600
15.817100 1.934400
15.835000 1.758100
15.852900 1.629400
15.870800 1.501000
15.888700 1.408800
15.906600 1.364200
15.924500 1.360400
15.942400 1.320400
15.960300 1.235000
15.978200 1.179900
15.996100 1.156600
16.014000 1.141700
16.031900 1.129600
16.049700 1.117900
16.067600 1.106000
16.085500 1.093800
16.103400 1.082400
16.121300 1.072200
16.139200 1.063700
16.157100 1.056200
16.175000 1.057600
16.192900 1.069600
16.210800 1.064000
16.228700 1.045200
16.246600 1.012500
16.264500 0.979500
16.282400 0.972000
16.300300 0.966300
16.318200 0.961200
16.336100 0.956700
16.354000 0.952600
16.371900 0.956300
16.389800 0.960100
16.407700 0.962800
16.425600 0.962600
16.443400 0.960500
16.461300 0.957800
16.479200 0.958000
16.497100 0.958500
16.515000 0.959100
16.532900 0.961500
16.550800 0.965800
16.568700 0.971000
16.586600 0.976600
16.604500 0.994200
16.622400 1.019600
16.640300 1.012800
16.658200 0.996300
16.676100 0.979300
16.694000 0.967800
16.711900 0.954200
16.729800 0.939300
16.747700 0.925400
16.765600 0.914200
16.783500 0.908900
16.801400 0.908200
16.819200 0.912000
16.837100 0.918600
16.855000 0.926700
16.872900 0.935100
16.890800 0.944000
16.908700 0.953600
16.926600 0.964600
16.944500 0.974900
16.962400 0.984500
16.980300 0.993800
16.998200 1.002600
17.016100 1.011100
17.034000 1.019400
17.051900 1.034300
17.069800 1.033100
17.087700 1.035800
17.105600 1.044200
17.123500 1.053700
17.141400 1.065100
17.159300 1.077300
17.177200 1.089500
17.195100 1.100800
17.212900 1.110500
17.230800 1.122700
17.248700 1.136200
17.266600 1.153100
17.284500 1.171200
17.302400 1.187800
17.320300 1.205200
17.338200 1.226600
17.356100 1.250800
17.374000 1.280400
17.391900 1.315300
17.409800 1.364900
17.427700 1.423400
17.445600 1.481500
17.463500 1.574900
17.481400 1.690200
17.499300 1.794500
17.517200 1.908300
17.535100 1.874500
17.553000 1.849600
17.570900 1.841900
17.588800 1.863800
17.606600 1.891200
17.624500 1.877500
17.642400 1.856900
17.660300 1.828100
17.678200 1.793800
17.696100 1.754200
17.714000 1.709700
17.731900 1.680200
17.749800 1.632400
17.767700 1.612300
17.785600 1.596500
17.803500 1.584200
17.821400 1.573100
17.839300 1.565300
17.857200 1.577800
17.875100 1.595100
17.893000 1.598800
17.910900 1.638100
17.928800 1.703300
17.946700 1.729200
17.964600 1.836000
17.982500 1.702500
18.000300 1.649100
18.018200 1.583200
18.036100 1.512800
18.054000 1.437000
18.071900 1.352200
18.089800 1.267200
18.107700 1.197000
18.125600 1.142000
18.143500 1.117800
18.161400 1.076100
18.179300 1.037200
18.197200 0.998500
18.215100 0.961200
18.233000 0.931900
18.250900 0.911600
18.268800 0.878000
18.286700 0.854800
18.304600 0.839600
18.322500 0.821400
18.340400 0.800200
18.358300 0.779600
18.376200 0.760600
18.394000 0.743000
18.411900 0.725300
18.429800 0.687400
18.447700 0.636400
18.465600 0.604400
18.483500 0.593500
18.501400 0.612900
18.519300 0.642800
18.537200 0.686500
18.555100 0.710800
18.573000 0.729200
18.590900 0.747100
18.608800 0.771200
18.626700 0.772100
18.644600 0.763600
18.662500 0.758500
18.680400 0.758600
18.698300 0.770600
18.716200 0.809000
18.734100 0.862300
18.752000 0.924800
18.769900 0.978900
18.787700 1.024500
18.805600 1.064300
18.823500 1.124100
18.841400 1.209400
18.859300 1.322100
18.877200 1.358200
18.895100 1.411000
18.913000 1.486000
18.930900 1.592100
18.948800 1.715000
18.966700 1.772100
18.984600 1.828300
19.002500 1.983500
19.020400 2.047200
19.038300 2.104700
19.056200 2.158100
19.074100 2.194200
19.092000 2.366900
19.109900 2.332200
19.127800 2.289200
19.145700 2.276000
19.163600 2.274400
19.181400 2.269700
19.199300 2.282300
19.217200 2.312200
19.235100 2.302500
19.253000 2.315000
19.270900 2.321600
19.288800 2.423300
19.306700 2.482900
19.324600 2.467600
19.342500 2.482500
19.360400 2.514900
19.378300 2.499600
19.396200 2.256000
19.414100 2.126100
19.432000 2.046100
19.449900 1.992400
19.467800 1.953600
19.485700 1.923800
19.503600 1.904600
19.521500 1.886200
19.539400 1.867100
19.557200 1.871500
19.575100 1.905000
19.593000 1.918400
19.610900 1.910300
19.628800 1.895700
19.646700 1.892800
19.664600 1.894300
19.682500 1.896100
19.700400 1.898300
19.718300 1.907300
19.736200 1.913700
19.754100 1.916400
19.772000 1.919700
19.789900 1.925300
19.807800 1.930100
19.825700 1.908500
19.843600 1.890300
19.861500 1.878700
19.879400 1.874700
19.897300 1.873900
19.915200 1.862100
19.933100 1.856700
19.950900 1.863200
19.968800 1.881800
19.986700 2.033200
20.004600 2.036400
20.022500 2.051800
20.040400 2.077400
20.058300 2.108000
20.076200 2.139800
20.094100 2.170600
20.112000 2.211500
20.129900 2.268900
20.147800 2.328600
20.165700 2.337500
20.183600 2.389100
20.201500 2.347800
20.219400 2.314900
20.237300 2.489400
20.255200 2.550400
20.273100 2.640000
20.291000 2.747500
20.308900 2.909400
20.326800 3.183000
20.344600 3.311200
20.362500 3.478200
20.380400 3.666500
20.398300 3.931700
20.416200 4.228600
20.434100 4.362200
20.452000 4.550600
20.469900 4.413000
20.487800 3.969600
20.505700 3.678900
20.523600 3.437100
20.541500 3.255000
20.559400 3.045500
20.577300 3.006900
20.595200 2.931700
20.613100 2.777600
20.631000 2.561500
20.648900 2.349300
20.666800 2.205400
20.684700 2.043000
20.702600 1.873700
20.720500 1.690900
20.738300 1.651000
20.756200 1.626700
20.774100 1.608800
20.792000 1.610700
20.809900 1.629400
20.827800 1.656900
20.845700 1.693700
20.863600 1.936400
20.881500 1.940600
20.899400 2.061400
20.917300 2.180500
20.935200 2.247800
20.953100 2.268500
20.971000 2.320100
20.988900 2.356100
21.006800 2.195400
21.024700 2.065400
21.042600 1.985400
21.060500 1.910900
21.078400 1.837700
21.096300 1.772800
21.114200 1.715300
21.132000 1.668800
21.149900 1.631700
21.167800 1.625200
21.185700 1.613800
21.203600 1.463500
21.221500 1.363600
21.239400 1.345700
21.257300 1.336200
21.275200 1.331100
21.293100 1.331200
21.311000 1.387100
21.328900 1.448100
21.346800 1.513200
21.364700 1.497700
21.382600 1.497500
21.400500 1.527400
21.418400 1.591300
21.436300 1.613000
21.454200 1.650900
21.472100 1.718500
21.490000 1.765700
21.507900 1.802800
21.525700 1.846000
21.543600 1.887700
21.561500 1.925000
21.579400 1.956700
21.597300 1.973700
21.615200 2.063700
21.633100 2.073900
21.651000 2.087900
21.668900 2.095400
21.686800 2.099200
21.704700 2.096500
21.722600 2.108100
21.740500 2.134200
21.758400 2.166700
21.776300 2.231600
21.794200 2.237300
21.812100 2.167800
21.830000 2.115900
21.847900 2.109300
21.865800 2.111900
21.883700 2.120500
21.901600 2.133100
21.919400 2.147500
21.937300 2.149100
21.955200 2.126600
21.973100 2.130200
21.991000 2.120900
22.008900 2.102600
22.026800 2.074100
22.044700 2.044700
22.062600 1.999700
22.080500 1.963000
22.098400 1.914300
22.116300 1.853600
22.134200 1.781100
22.152100 1.710100
22.170000 1.680900
22.187900 1.635100
22.205800 1.574700
22.223700 1.496800
22.241600 1.330300
22.259500 1.265900
22.277400 1.205000
22.295200 1.179600
22.313100 1.192100
22.331000 1.028500
22.348900 0.924300
22.366800 0.876300
22.384700 0.843400
22.402600 0.812500
22.420500 0.787800
22.438400 0.767700
22.456300 0.750100
22.474200 0.735000
22.492100 0.723300
22.510000 0.716000
22.527900 0.713800
22.545800 0.715700
22.563700 0.715200
22.581600 0.718600
22.599500 0.723100
22.617400 0.728600
22.635300 0.853100
22.653200 1.236600
22.671100 1.014600
22.688900 0.897800
22.706800 0.839700
22.724700 0.821800
22.742600 0.803300
22.760500 0.783000
22.778400 0.762000
22.796300 0.745600
22.814200 0.729600
22.832100 0.709000
22.850000 0.667100
22.867900 0.616800
22.885800 0.564000
22.903700 0.511200
22.921600 0.462000
22.939500 0.431300
22.957400 0.372600
22.975300 0.310100
22.993200 0.261500
23.011100 0.232900
23.029000 0.226100
23.046900 0.221200
23.064800 0.196100
23.082600 0.160300
23.100500 0.114000
23.118400 0.072900
23.136300 0.041600
23.154200 0.019000
23.172100 0.005200
23.190000 0.000000
23.207900 0.000000
23.225800 0.000000
23.243700 0.000000
23.261600 0.000000
23.279500 0.000000
23.297400 0.000000
23.315300 0.000000
23.333200 0.000000
23.351100 0.000000
23.369000 0.000000
23.386900 0.000000
23.404800 0.000000
23.422700 0.000000
23.440600 0.000000
23.458500 0.000000
23.476300 0.000000
23.494200 0.000000
23.512100 0.000000
23.530000 0.000000
23.547900 0.000000
23.565800 0.000000
23.583700 0.000000
23.601600 0.000000
23.619500 0.000000
23.637400 0.000000
23.655300 0.000000
23.673200 0.000000
23.691100 0.000000
23.709000 0.000000
23.726900 0.000000
23.744800 0.000000
23.762700 0.000000
23.780600 0.000000
23.798500 0.000000
23.816400 0.000000
23.834300 0.000000
23.852200 0.000000
23.870000 0.000000
23.887900 0.000000
23.905800 0.000000
23.923700 0.000000
23.941600 0.000000
23.959500 0.000000
23.977400 0.000000
23.995300 0.000000
24.013200 0.000000
24.031100 0.000000
24.049000 0.000000
24.066900 0.000000
24.084800 0.000000
24.102700 0.000000
24.120600 0.000000
24.138500 0.000000
24.156400 0.000000
24.174300 0.000000
24.192200 0.000000
24.210100 0.000000
24.228000 0.000000
24.245900 0.000000
24.263700 0.000000
24.281600 0.000000
24.299500 0.000000
24.317400 0.000000
24.335300 0.000000
24.353200 0.000000
24.371100 0.000000
24.389000 0.000000
24.406900 0.000000
24.424800 0.000000
24.442700 0.000000
24.460600 0.000000
24.478500 0.000000
24.496400 0.000000
24.514300 0.000000
24.532200 0.000000
24.550100 0.000000
24.568000 0.000000
24.585900 0.000000
24.603800 0.000000
24.621700 0.000000
24.639600 0.000000
24.657400 0.000000
24.675300 0.000000
24.693200 0.000000
24.711100 0.000000
24.729000 0.000000
24.746900 0.000000
24.764800 0.000000
24.782700 0.000000
24.800600 0.000000
24.818500 0.000000
e
