set title 'mp-1065697 - Density of States'
set xlabel 'Energy (eV)'
set ylabel 'DOS (states/eV)'
set grid
set xrange [-10:10]
set yrange [0:0.788]
set xzeroaxis lt -1
set terminal png size 800,600
set output 'mp-1065697_dos_gnuplot.png'
plot '-' using 1:2 with lines title 'DOS'
-35.807900 0.000000
-35.652000 0.000000
-35.496100 0.000000
-35.340200 0.000000
-35.184300 0.000000
-35.028400 0.000000
-34.872500 0.000000
-34.716600 0.000000
-34.560700 0.000000
-34.404800 0.000000
-34.248900 0.000000
-34.093000 0.000000
-33.937100 0.000000
-33.781200 0.000000
-33.625300 0.000000
-33.469400 0.000000
-33.313500 0.000000
-33.157600 0.000000
-33.001700 0.000000
-32.845800 0.000000
-32.689900 0.000000
-32.534000 0.000000
-32.378100 0.000000
-32.222200 0.000000
-32.066300 0.000000
-31.910400 0.000000
-31.754500 0.000000
-31.598600 0.000000
-31.442700 0.000000
-31.286800 0.000000
-31.130900 0.000000
-30.975000 0.000000
-30.819100 0.000000
-30.663200 0.000000
-30.507300 0.000000
-30.351400 0.000000
-30.195500 0.000000
-30.039600 0.000000
-29.883700 0.000000
-29.727800 0.000000
-29.571900 0.000000
-29.416000 0.000000
-29.260100 0.000000
-29.104100 0.000000
-28.948200 0.000000
-28.792300 0.000000
-28.636400 0.000000
-28.480500 0.000000
-28.324600 0.000000
-28.168700 0.000000
-28.012800 0.000000
-27.856900 0.000000
-27.701000 0.000000
-27.545100 0.000000
-27.389200 0.000000
-27.233300 0.000000
-27.077400 0.000000
-26.921500 0.000000
-26.765600 0.000000
-26.609700 0.000000
-26.453800 0.000000
-26.297900 0.000000
-26.142000 0.000000
-25.986100 0.000000
-25.830200 0.000000
-25.674300 0.000000
-25.518400 0.000000
-25.362500 0.000000
-25.206600 0.000000
-25.050700 0.000000
-24.894800 0.000000
-24.738900 0.000000
-24.583000 0.000000
-24.427100 0.000000
-24.271200 0.000000
-24.115300 0.000000
-23.959400 0.000000
-23.803500 0.000000
-23.647600 0.000000
-23.491700 0.000000
-23.335800 0.000000
-23.179900 0.000000
-23.024000 0.000000
-22.868100 0.000000
-22.712200 0.000000
-22.556300 0.000000
-22.400400 0.000000
-22.244500 0.000000
-22.088600 0.000000
-21.932700 0.000000
-21.776800 0.000000
-21.620900 0.004500
-21.465000 0.070800
-21.309100 0.104400
-21.153200 0.134900
-20.997300 0.163800
-20.841400 0.196100
-20.685400 0.232200
-20.529500 0.282400
-20.373600 0.396500
-20.217700 0.388700
-20.061800 0.382200
-19.905900 0.374300
-19.750000 0.370000
-19.594100 0.363000
-19.438200 0.359400
-19.282300 0.320700
-19.126400 0.283300
-18.970500 0.261700
-18.814600 0.246000
-18.658700 0.231400
-18.502800 0.221400
-18.346900 0.212200
-18.191000 0.203100
-18.035100 0.196500
-17.879200 0.190500
-17.723300 0.184700
-17.567400 0.179200
-17.411500 0.174100
-17.255600 0.169800
-17.099700 0.166700
-16.943800 0.163200
-16.787900 0.158800
-16.632000 0.155100
-16.476100 0.152600
-16.320200 0.150500
-16.164300 0.148300
-16.008400 0.145000
-15.852500 0.142000
-15.696600 0.140200
-15.540700 0.138500
-15.384800 0.136800
-15.228900 0.135000
-15.073000 0.132600
-14.917100 0.131000
-14.761200 0.129600
-14.605300 0.128300
-14.449400 0.127000
-14.293500 0.125700
-14.137600 0.124200
-13.981700 0.123000
-13.825800 0.122000
-13.669900 0.121200
-13.514000 0.120300
-13.358100 0.119400
-13.202200 0.118700
-13.046300 0.117900
-12.890400 0.117700
-12.734500 0.117600
-12.578600 0.117700
-12.422700 0.117700
-12.266700 0.117900
-12.110800 0.118400
-11.954900 0.119200
-11.799000 0.125900
-11.643100 0.132900
-11.487200 0.140500
-11.331300 0.143200
-11.175400 0.138900
-11.019500 0.136700
-10.863600 0.135300
-10.707700 0.126000
-10.551800 0.111300
-10.395900 0.083700
-10.240000 0.061700
-10.084100 0.044900
-9.928200 0.029500
-9.772300 0.016300
-9.616400 0.005000
-9.460500 0.000000
-9.304600 0.000000
-9.148700 0.000000
-8.992800 0.000000
-8.836900 0.000000
-8.681000 0.015700
-8.525100 0.035800
-8.369200 0.060100
-8.213300 0.094200
-8.057400 0.130300
-7.901500 0.146600
-7.745600 0.155300
-7.589700 0.150400
-7.433800 0.129700
-7.277900 0.117500
-7.122000 0.108400
-6.966100 0.101400
-6.810200 0.100300
-6.654300 0.099000
-6.498400 0.097500
-6.342500 0.095500
-6.186600 0.092900
-6.030700 0.101600
-5.874800 0.158500
-5.718900 0.186300
-5.563000 0.212300
-5.407100 0.236400
-5.251200 0.259000
-5.095300 0.282900
-4.939400 0.312600
-4.783500 0.348800
-4.627600 0.390900
-4.471700 0.395500
-4.315800 0.398600
-4.159900 0.404300
-4.004000 0.405900
-3.848100 0.420600
-3.692100 0.417100
-3.536200 0.420400
-3.380300 0.428700
-3.224400 0.434500
-3.068500 0.437900
-2.912600 0.451400
-2.756700 0.453700
-2.600800 0.463300
-2.444900 0.470100
-2.289000 0.481300
-2.133100 0.491000
-1.977200 0.511800
-1.821300 0.597500
-1.665400 0.574500
-1.509500 0.574200
-1.353600 0.570000
-1.197700 0.568800
-1.041800 0.621400
-0.885900 0.653500
-0.730000 0.663700
-0.574100 0.710000
-0.418200 0.678000
-0.262300 0.682500
-0.106400 0.592400
0.049500 0.603700
0.205400 0.560700
0.361300 0.556200
0.517200 0.552300
0.673100 0.569200
0.829000 0.615800
0.984900 0.690700
1.140800 0.716200
1.296700 0.657300
1.452600 0.589100
1.608500 0.590800
1.764400 0.555000
1.920300 0.557800
2.076200 0.542000
2.232100 0.522400
2.388000 0.507400
2.543900 0.486700
2.699800 0.470300
2.855700 0.447600
3.011600 0.440600
3.167500 0.427400
3.323400 0.424300
3.479300 0.408300
3.635200 0.405200
3.791100 0.367200
3.947000 0.216900
4.102900 0.081900
4.258800 0.082500
4.414700 0.083700
4.570600 0.084400
4.726600 0.084700
4.882500 0.084700
5.038400 0.084700
5.194300 0.084700
5.350200 0.084700
5.506100 0.084800
5.662000 0.085800
5.817900 0.087800
5.973800 0.089800
6.129700 0.090700
6.285600 0.090700
6.441500 0.090700
6.597400 0.090700
6.753300 0.090700
6.909200 0.090700
7.065100 0.092600
7.221000 0.096900
7.376900 0.100300
7.532800 0.101000
7.688700 0.101000
7.844600 0.101000
8.000500 0.101000
8.156400 0.101000
8.312300 0.104000
8.468200 0.113100
8.624100 0.119600
8.780000 0.119600
8.935900 0.119600
9.091800 0.119600
9.247700 0.119600
9.403600 0.127600
9.559500 0.149700
9.715400 0.156100
9.871300 0.156100
10.027200 0.156100
10.183100 0.167400
10.339000 0.229800
10.494900 0.247000
10.650800 0.247100
10.806700 0.572300
10.962600 0.294700
11.118500 0.000000
11.274400 0.000000
11.430300 0.000000
11.586200 0.000000
11.742100 0.000000
11.898000 0.000000
12.053900 0.000000
12.209800 0.000000
12.365700 0.000000
12.521600 0.001800
12.677500 0.012200
12.833400 0.016800
12.989300 0.029400
13.145300 0.039900
13.301200 0.048900
13.457100 0.057100
13.613000 0.065700
13.768900 0.072500
13.924800 0.079700
14.080700 0.087300
14.236600 0.095000
14.392500 0.102500
14.548400 0.110100
14.704300 0.117900
14.860200 0.126700
15.016100 0.136400
15.172000 0.145900
15.327900 0.156300
15.483800 0.169100
15.639700 0.183100
15.795600 0.203000
15.951500 0.235600
16.107400 0.256900
16.263300 0.252600
16.419200 0.250300
16.575100 0.250400
16.731000 0.247500
16.886900 0.246200
17.042800 0.243100
17.198700 0.241800
17.354600 0.240500
17.510500 0.238300
17.666400 0.237100
17.822300 0.235800
17.978200 0.234500
18.134100 0.233600
18.290000 0.232600
18.445900 0.232200
18.601800 0.230200
18.757700 0.234300
18.913600 0.219900
19.069500 0.215600
19.225400 0.239200
19.381300 0.254400
19.537200 0.273400
19.693100 0.291400
19.849000 0.313200
20.004900 0.351000
20.160800 0.394700
20.316700 0.543500
20.472600 0.592200
20.628500 0.354800
20.784400 0.313600
20.940300 0.288600
21.096200 0.274500
21.252100 0.264300
21.408000 0.256500
21.564000 0.235700
21.719900 0.191800
21.875800 0.168600
22.031700 0.172900
22.187600 0.177000
22.343500 0.179400
22.499400 0.185600
22.655300 0.197900
22.811200 0.217200
22.967100 0.260900
23.123000 0.251700
23.278900 0.249300
23.434800 0.248700
23.590700 0.247400
23.746600 0.247800
23.902500 0.248200
24.058400 0.249000
24.214300 0.250600
24.370200 0.255200
24.526100 0.259600
24.682000 0.263100
24.837900 0.270200
24.993800 0.281200
25.149700 0.287700
25.305600 0.294600
25.461500 0.304700
25.617400 0.319400
25.773300 0.331900
25.929200 0.347400
26.085100 0.365500
26.241000 0.399200
26.396900 0.436200
26.552800 0.510600
26.708700 0.579700
26.864600 0.568400
27.020500 0.582600
27.176400 0.548600
27.332300 0.512400
27.488200 0.506700
27.644100 0.551100
27.800000 0.599100
27.955900 0.644000
28.111800 0.663300
28.267700 0.526900
28.423600 0.503900
28.579500 0.499100
28.735400 0.443000
28.891300 0.398700
29.047200 0.380400
29.203100 0.376500
29.359000 0.396200
29.514900 0.371600
29.670800 0.365200
29.826700 0.343900
29.982700 0.328500
30.138600 0.314300
30.294500 0.303400
30.450400 0.290100
30.606300 0.283700
30.762200 0.272200
30.918100 0.260600
31.074000 0.251000
31.229900 0.255600
31.385800 0.242800
31.541700 0.260700
31.697600 0.272500
31.853500 0.283900
32.009400 0.282800
32.165300 0.269200
32.321200 0.231500
32.477100 0.198400
32.633000 0.181300
32.788900 0.167900
32.944800 0.157400
33.100700 0.150400
33.256600 0.144200
33.412500 0.138900
33.568400 0.131400
33.724300 0.131000
33.880200 0.129800
34.036100 0.127800
34.192000 0.127000
34.347900 0.127600
34.503800 0.128900
34.659700 0.131300
34.815600 0.140300
34.971500 0.155000
35.127400 0.179800
35.283300 0.215100
35.439200 0.260500
35.595100 0.314500
35.751000 0.384800
35.906900 0.482900
36.062800 0.613500
36.218700 0.584000
36.374600 0.615100
36.530500 0.542500
36.686400 0.465800
36.842300 0.428900
36.998200 0.407900
37.154100 0.396800
37.310000 0.403100
37.465900 0.405000
37.621800 0.415500
37.777700 0.417600
37.933600 0.414000
38.089500 0.425300
38.245400 0.440500
38.401400 0.473300
38.557300 0.512400
38.713200 0.527700
38.869100 0.487200
39.025000 0.469700
39.180900 0.466700
39.336800 0.462400
39.492700 0.432300
39.648600 0.387800
39.804500 0.357600
39.960400 0.345700
40.116300 0.331900
40.272200 0.320400
40.428100 0.331500
40.584000 0.337100
40.739900 0.388500
40.895800 0.361400
41.051700 0.350000
41.207600 0.344900
41.363500 0.353100
41.519400 0.353100
41.675300 0.350400
41.831200 0.352000
41.987100 0.346200
42.143000 0.344300
42.298900 0.337600
42.454800 0.334900
42.610700 0.337800
42.766600 0.340600
42.922500 0.349800
43.078400 0.348300
43.234300 0.345900
43.390200 0.342200
43.546100 0.342400
43.702000 0.346800
43.857900 0.352200
44.013800 0.373300
44.169700 0.389000
44.325600 0.384300
44.481500 0.390300
44.637400 0.396500
44.793300 0.397300
44.949200 0.395800
45.105100 0.402800
45.261000 0.427100
45.416900 0.419200
45.572800 0.423100
45.728700 0.432800
45.884600 0.451200
46.040500 0.469300
46.196400 0.512500
46.352300 0.534300
46.508200 0.535000
46.664100 0.539900
46.820100 0.581500
46.976000 0.579100
47.131900 0.570100
47.287800 0.546000
47.443700 0.577200
47.599600 0.567100
47.755500 0.552700
47.911400 0.552600
48.067300 0.562500
48.223200 0.578100
48.379100 0.578000
48.535000 0.595600
48.690900 0.664000
48.846800 0.672400
49.002700 0.720500
49.158600 0.684000
49.314500 0.695200
49.470400 0.706800
49.626300 0.746700
49.782200 0.765500
49.938100 0.765100
50.094000 0.902100
50.249900 0.955800
50.405800 0.738500
50.561700 0.777800
50.717600 0.758100
50.873500 0.690300
51.029400 0.636400
51.185300 0.711200
51.341200 0.679100
51.497100 0.614200
51.653000 0.555300
51.808900 0.468900
51.964800 0.432400
52.120700 0.397900
52.276600 0.369500
52.432500 0.344500
52.588400 0.308800
52.744300 0.319400
52.900200 0.330300
53.056100 0.332800
53.212000 0.337000
53.367900 0.335200
53.523800 0.330700
53.679700 0.334500
53.835600 0.340300
53.991500 0.353400
54.147400 0.364900
54.303300 0.386500
54.459200 0.418500
54.615100 0.460000
54.771000 0.435300
54.926900 0.423000
55.082800 0.403900
55.238700 0.413200
55.394700 0.391100
55.550600 0.364800
55.706500 0.350400
55.862400 0.344200
56.018300 0.360400
56.174200 0.350200
56.330100 0.346700
56.486000 0.342400
56.641900 0.347500
56.797800 0.361600
56.953700 0.384300
57.109600 0.401800
57.265500 0.427800
57.421400 0.452900
57.577300 0.460200
57.733200 0.461700
57.889100 0.463100
58.045000 0.435100
58.200900 0.415100
58.356800 0.403000
58.512700 0.392400
58.668600 0.387500
58.824500 0.388900
58.980400 0.390900
59.136300 0.392600
59.292200 0.407100
59.448100 0.414200
59.604000 0.428600
59.759900 0.431700
59.915800 0.451800
60.071700 0.425000
60.227600 0.414400
60.383500 0.400300
60.539400 0.389900
60.695300 0.386000
60.851200 0.382900
61.007100 0.383600
61.163000 0.387100
61.318900 0.394200
61.474800 0.401400
61.630700 0.397700
61.786600 0.397000
61.942500 0.393100
62.098400 0.393400
62.254300 0.397100
62.410200 0.408900
62.566100 0.414300
62.722000 0.428000
62.877900 0.443600
63.033800 0.444000
63.189700 0.447000
63.345600 0.459500
63.501500 0.486900
63.657400 0.512400
63.813400 0.549200
63.969300 0.569900
64.125200 0.595300
64.281100 0.608100
64.437000 0.626300
64.592900 0.640100
64.748800 0.683800
64.904700 0.715700
65.060600 0.707400
65.216500 0.679400
65.372400 0.672700
65.528300 0.671100
65.684200 0.643700
65.840100 0.640600
65.996000 0.648600
66.151900 0.687300
66.307800 0.668500
66.463700 0.639800
66.619600 0.625300
66.775500 0.600400
66.931400 0.598600
67.087300 0.602800
67.243200 0.608500
67.399100 0.578600
67.555000 0.565300
67.710900 0.569500
67.866800 0.595800
68.022700 0.594700
68.178600 0.599600
68.334500 0.591600
68.490400 0.588400
68.646300 0.583200
68.802200 0.576100
68.958100 0.566100
69.114000 0.584100
69.269900 0.596900
69.425800 0.569600
69.581700 0.548000
69.737600 0.533700
69.893500 0.488800
70.049400 0.478500
70.205300 0.459600
70.361200 0.468700
70.517100 0.519600
70.673000 0.534700
70.828900 0.541400
70.984800 0.574700
71.140700 0.599700
71.296600 0.625200
71.452500 0.661700
71.608400 0.700800
71.764300 0.706900
71.920200 0.678100
72.076100 0.667200
72.232100 0.618200
72.388000 0.567300
72.543900 0.581200
72.699800 0.488500
72.855700 0.461500
73.011600 0.446300
73.167500 0.425000
73.323400 0.398800
73.479300 0.386100
73.635200 0.384500
73.791100 0.389400
73.947000 0.389600
74.102900 0.387300
74.258800 0.384800
74.414700 0.396900
74.570600 0.395100
74.726500 0.392000
74.882400 0.406800
75.038300 0.431200
75.194200 0.468200
75.350100 0.523900
75.506000 0.498600
75.661900 0.513700
75.817800 0.544600
75.973700 0.528300
76.129600 0.527600
76.285500 0.544500
76.441400 0.532900
76.597300 0.535000
76.753200 0.532600
76.909100 0.539700
77.065000 0.573700
77.220900 0.612600
77.376800 0.587100
77.532700 0.564600
77.688600 0.562600
77.844500 0.555500
78.000400 0.548600
78.156300 0.547100
78.312200 0.546400
78.468100 0.526500
78.624000 0.510300
78.779900 0.529000
78.935800 0.519200
79.091700 0.545100
79.247600 0.568300
79.403500 0.583900
79.559400 0.587300
79.715300 0.598200
79.871200 0.622800
80.027100 0.658700
80.183000 0.706400
80.338900 0.755000
80.494800 0.690700
80.650800 0.651300
80.806700 0.617200
80.962600 0.573500
81.118500 0.538200
81.274400 0.513900
81.430300 0.507600
81.586200 0.507400
81.742100 0.520100
81.898000 0.539100
82.053900 0.543400
82.209800 0.567200
82.365700 0.554700
82.521600 0.572100
82.677500 0.534400
82.833400 0.547000
82.989300 0.541800
83.145200 0.525000
83.301100 0.502100
83.457000 0.442100
83.612900 0.402400
83.768800 0.398700
83.924700 0.413400
84.080600 0.443500
84.236500 0.520900
84.392400 0.555400
84.548300 0.519500
84.704200 0.542300
84.860100 0.555400
85.016000 0.562300
85.171900 0.574300
85.327800 0.623500
85.483700 0.637300
85.639600 0.645300
85.795500 0.673800
85.951400 0.663100
86.107300 0.619400
86.263200 0.595900
86.419100 0.577900
86.575000 0.571600
86.730900 0.568900
86.886800 0.580500
87.042700 0.572300
87.198600 0.579500
87.354500 0.610000
87.510400 0.633200
87.666300 0.660300
87.822200 0.669300
87.978100 0.633300
88.134000 0.596400
88.289900 0.565800
88.445800 0.555400
88.601700 0.555200
88.757600 0.543300
88.913500 0.554500
89.069500 0.577600
89.225400 0.586300
89.381300 0.591200
89.537200 0.598800
89.693100 0.614400
89.849000 0.597900
90.004900 0.586400
90.160800 0.589100
90.316700 0.588900
90.472600 0.588700
90.628500 0.590300
90.784400 0.576300
90.940300 0.573000
91.096200 0.579000
91.252100 0.571600
91.408000 0.558900
91.563900 0.547700
91.719800 0.527200
91.875700 0.503200
92.031600 0.489700
92.187500 0.485300
92.343400 0.480800
92.499300 0.482700
92.655200 0.497200
92.811100 0.522800
92.967000 0.534700
93.122900 0.554300
93.278800 0.577000
93.434700 0.606700
93.590600 0.588100
93.746500 0.565000
93.902400 0.553300
94.058300 0.555000
94.214200 0.568000
94.370100 0.562400
94.526000 0.555400
94.681900 0.557200
94.837800 0.564800
94.993700 0.572600
95.149600 0.574400
95.305500 0.578400
95.461400 0.586000
95.617300 0.581600
95.773200 0.599400
95.929100 0.598900
96.085000 0.592600
96.240900 0.584100
96.396800 0.578000
96.552700 0.576000
96.708600 0.599100
96.864500 0.613500
97.020400 0.624700
97.176300 0.634200
97.332200 0.624900
97.488200 0.611200
97.644100 0.604700
97.800000 0.598900
97.955900 0.584000
98.111800 0.591500
98.267700 0.616600
98.423600 0.618200
98.579500 0.634500
98.735400 0.673700
98.891300 0.661100
99.047200 0.655800
99.203100 0.619600
99.359000 0.586900
99.514900 0.581200
99.670800 0.571700
99.826700 0.579900
99.982600 0.586400
100.138500 0.598500
100.294400 0.620700
100.450300 0.632300
100.606200 0.628600
100.762100 0.635600
100.918000 0.641200
101.073900 0.652600
101.229800 0.668400
101.385700 0.659900
101.541600 0.642000
101.697500 0.624900
101.853400 0.612500
102.009300 0.598400
102.165200 0.595200
102.321100 0.601900
102.477000 0.614500
102.632900 0.631600
102.788800 0.661500
102.944700 0.669100
103.100600 0.663000
103.256500 0.641600
103.412400 0.613300
103.568300 0.591200
103.724200 0.580900
103.880100 0.575600
104.036000 0.581300
104.191900 0.576800
104.347800 0.579000
104.503700 0.600700
104.659600 0.621700
104.815500 0.644500
104.971400 0.670000
105.127300 0.675700
105.283200 0.658400
105.439100 0.640000
105.595000 0.623700
105.750900 0.604900
105.906900 0.603600
106.062800 0.597400
106.218700 0.579000
106.374600 0.568400
106.530500 0.565300
106.686400 0.569500
106.842300 0.575800
106.998200 0.584800
107.154100 0.586400
107.310000 0.590800
107.465900 0.593400
107.621800 0.586000
107.777700 0.591200
107.933600 0.618700
108.089500 0.661900
108.245400 0.676300
108.401300 0.690600
108.557200 0.679000
108.713100 0.663300
108.869000 0.649400
109.024900 0.645100
109.180800 0.642400
109.336700 0.642100
109.492600 0.646700
109.648500 0.668700
109.804400 0.673500
109.960300 0.662800
110.116200 0.637900
110.272100 0.602900
110.428000 0.580600
110.583900 0.562000
110.739800 0.549200
110.895700 0.542300
111.051600 0.534100
111.207500 0.531400
111.363400 0.533100
111.519300 0.530900
111.675200 0.533700
111.831100 0.541100
111.987000 0.549200
112.142900 0.561900
112.298800 0.581000
112.454700 0.603600
112.610600 0.615400
112.766500 0.616000
112.922400 0.592200
113.078300 0.585000
113.234200 0.593000
113.390100 0.627500
113.546000 0.662800
113.701900 0.681900
113.857800 0.696000
114.013700 0.692000
114.169600 0.701600
114.325500 0.698600
114.481500 0.687500
114.637400 0.677500
114.793300 0.679200
114.949200 0.666900
115.105100 0.672800
115.261000 0.697200
115.416900 0.721900
115.572800 0.758300
115.728700 0.773800
115.884600 0.738900
116.040500 0.700700
116.196400 0.681400
116.352300 0.689200
116.508200 0.677800
116.664100 0.663600
116.820000 0.664500
116.975900 0.664100
117.131800 0.661500
117.287700 0.653000
117.443600 0.640200
117.599500 0.631300
117.755400 0.617000
117.911300 0.605300
118.067200 0.611900
118.223100 0.618100
118.379000 0.618600
118.534900 0.624800
118.690800 0.663100
118.846700 0.699900
119.002600 0.704300
119.158500 0.726100
119.314400 0.734200
119.470300 0.745100
119.626200 0.757200
119.782100 0.758800
119.938000 0.742700
120.093900 0.720400
120.249800 0.693700
120.405700 0.678100
120.561600 0.674100
120.717500 0.667700
120.873400 0.651000
121.029300 0.652400
121.185200 0.671200
121.341100 0.660700
121.497000 0.689500
121.652900 0.686700
121.808800 0.693600
121.964700 0.718700
122.120600 0.754900
122.276500 0.757600
122.432400 0.730000
122.588300 0.718900
122.744200 0.704400
122.900200 0.684300
123.056100 0.689700
123.212000 0.682400
123.367900 0.668500
123.523800 0.646700
123.679700 0.646400
123.835600 0.649800
123.991500 0.660600
124.147400 0.675100
124.303300 0.676800
124.459200 0.681100
124.615100 0.699800
124.771000 0.721300
124.926900 0.739700
125.082800 0.737100
125.238700 0.739300
125.394600 0.753700
125.550500 0.746500
125.706400 0.730300
125.862300 0.707600
126.018200 0.685900
126.174100 0.655400
126.330000 0.637300
126.485900 0.632100
126.641800 0.622800
126.797700 0.619900
126.953600 0.615700
127.109500 0.615900
127.265400 0.615200
127.421300 0.635500
127.577200 0.645400
127.733100 0.656700
127.889000 0.661700
128.044900 0.668600
128.200800 0.669200
128.356700 0.671100
128.512600 0.654800
128.668500 0.643500
128.824400 0.648200
128.980300 0.649800
129.136200 0.657400
129.292100 0.656200
129.448000 0.662100
129.603900 0.671700
129.759800 0.693100
129.915700 0.722100
130.071600 0.730800
130.227500 0.741300
130.383400 0.745900
130.539300 0.744700
130.695200 0.731800
130.851100 0.753400
131.007000 0.754700
131.162900 0.756500
131.318900 0.750300
131.474800 0.755800
131.630700 0.746500
131.786600 0.724800
131.942500 0.721300
132.098400 0.715800
132.254300 0.710600
132.410200 0.712600
132.566100 0.702400
132.722000 0.711900
132.877900 0.696100
133.033800 0.692500
133.189700 0.707900
133.345600 0.734100
133.501500 0.750600
133.657400 0.738100
133.813300 0.710300
133.969200 0.695800
134.125100 0.676500
134.281000 0.660700
134.436900 0.631900
134.592800 0.628800
134.748700 0.630400
134.904600 0.641200
135.060500 0.654900
135.216400 0.673900
135.372300 0.691600
135.528200 0.711800
135.684100 0.723900
135.840000 0.720900
135.995900 0.711200
136.151800 0.707700
136.307700 0.700400
136.463600 0.697600
136.619500 0.699400
136.775400 0.696900
136.931300 0.687700
137.087200 0.666200
137.243100 0.648400
137.399000 0.639900
137.554900 0.636100
137.710800 0.640000
137.866700 0.646000
138.022600 0.648400
138.178500 0.660600
138.334400 0.662000
138.490300 0.656400
138.646200 0.653500
138.802100 0.661100
138.958000 0.666200
139.113900 0.675600
139.269800 0.693000
139.425700 0.707800
139.581600 0.717300
139.737600 0.735100
139.893500 0.758100
140.049400 0.784600
140.205300 0.783900
140.361200 0.785900
140.517100 0.789600
140.673000 0.770600
140.828900 0.759900
140.984800 0.758400
141.140700 0.761700
141.296600 0.758600
141.452500 0.755600
141.608400 0.748500
141.764300 0.746300
141.920200 0.751700
142.076100 0.748300
142.232000 0.748500
142.387900 0.757100
142.543800 0.738100
142.699700 0.722900
142.855600 0.712500
143.011500 0.708300
143.167400 0.708300
143.323300 0.696700
143.479200 0.705800
143.635100 0.709500
143.791000 0.725700
143.946900 0.735200
144.102800 0.740000
144.258700 0.741600
144.414600 0.745400
144.570500 0.747700
144.726400 0.743600
144.882300 0.723000
145.038200 0.717400
145.194100 0.702900
145.350000 0.695800
145.505900 0.693600
145.661800 0.694000
145.817700 0.700100
145.973600 0.723200
146.129500 0.734000
146.285400 0.725700
146.441300 0.727300
146.597200 0.720800
146.753100 0.708600
146.909000 0.705100
147.064900 0.703300
147.220800 0.723500
147.376700 0.735800
147.532600 0.730200
147.688500 0.727700
147.844400 0.730100
148.000300 0.720300
148.156300 0.718400
148.312200 0.720100
148.468100 0.713000
148.624000 0.714600
148.779900 0.739500
148.935800 0.755200
149.091700 0.765100
149.247600 0.774500
149.403500 0.731100
149.559400 0.729900
149.715300 0.737700
149.871200 0.747700
150.027100 0.753700
150.183000 0.752600
150.338900 0.756100
150.494800 0.762100
150.650700 0.754900
150.806600 0.732000
150.962500 0.712600
151.118400 0.701900
151.274300 0.698700
151.430200 0.697800
151.586100 0.691800
151.742000 0.689600
151.897900 0.697100
152.053800 0.704100
152.209700 0.700800
152.365600 0.697200
152.521500 0.692800
152.677400 0.719700
152.833300 0.699300
152.989200 0.688400
153.145100 0.677100
153.301000 0.671500
153.456900 0.666100
153.612800 0.660400
153.768700 0.656300
153.924600 0.645600
154.080500 0.654100
154.236400 0.669200
154.392300 0.691900
154.548200 0.693200
154.704100 0.688700
154.860000 0.682200
155.015900 0.682700
155.171800 0.687000
155.327700 0.696700
155.483600 0.705900
155.639500 0.713300
155.795400 0.710500
155.951300 0.716100
156.107200 0.725100
156.263100 0.719800
156.419000 0.709100
156.575000 0.704900
156.730900 0.700900
156.886800 0.698000
157.042700 0.705100
157.198600 0.713600
157.354500 0.730300
157.510400 0.754100
157.666300 0.756300
157.822200 0.760600
157.978100 0.763300
158.134000 0.767600
158.289900 0.779000
158.445800 0.803500
158.601700 0.837500
158.757600 0.810300
158.913500 0.812600
159.069400 0.790300
159.225300 0.789600
159.381200 0.783500
159.537100 0.769100
159.693000 0.762000
159.848900 0.757300
160.004800 0.754900
160.160700 0.761000
160.316600 0.760500
160.472500 0.765400
160.628400 0.777200
160.784300 0.775100
160.940200 0.781800
161.096100 0.799400
161.252000 0.817600
161.407900 0.833500
161.563800 0.847500
161.719700 0.852100
161.875600 0.853700
162.031500 0.835500
162.187400 0.817200
162.343300 0.804800
162.499200 0.776300
162.655100 0.750600
162.811000 0.740800
162.966900 0.746600
163.122800 0.756900
163.278700 0.771200
163.434600 0.780200
163.590500 0.775800
163.746400 0.771900
163.902300 0.767300
164.058200 0.750600
164.214100 0.759300
164.370000 0.763600
164.525900 0.768800
164.681800 0.760500
164.837700 0.759800
164.993700 0.756100
165.149600 0.764600
165.305500 0.786600
165.461400 0.799300
165.617300 0.807500
165.773200 0.799700
165.929100 0.786700
166.085000 0.774900
166.240900 0.770900
166.396800 0.769100
166.552700 0.759600
166.708600 0.745300
166.864500 0.748200
167.020400 0.758500
167.176300 0.780300
167.332200 0.803200
167.488100 0.809100
167.644000 0.811700
167.799900 0.819400
167.955800 0.807700
168.111700 0.779900
168.267600 0.764500
168.423500 0.758400
168.579400 0.757500
168.735300 0.759700
168.891200 0.770000
169.047100 0.771200
169.203000 0.771000
169.358900 0.788800
169.514800 0.805700
169.670700 0.814400
169.826600 0.820600
169.982500 0.819000
170.138400 0.817800
170.294300 0.797500
170.450200 0.780000
170.606100 0.769800
170.762000 0.758700
170.917900 0.745000
171.073800 0.739500
171.229700 0.739300
171.385600 0.744000
171.541500 0.742600
171.697400 0.763300
171.853300 0.769700
172.009200 0.778500
172.165100 0.773800
172.321000 0.758600
172.476900 0.743100
172.632800 0.752400
172.788700 0.752800
172.944600 0.769300
173.100500 0.769700
173.256400 0.759400
173.412400 0.769300
173.568300 0.771600
173.724200 0.761100
173.880100 0.764400
174.036000 0.767100
174.191900 0.760800
174.347800 0.749000
174.503700 0.744500
174.659600 0.753600
174.815500 0.757400
174.971400 0.742300
175.127300 0.743000
175.283200 0.729500
175.439100 0.719800
175.595000 0.722600
175.750900 0.731400
175.906800 0.757800
176.062700 0.777500
176.218600 0.814900
176.374500 0.829800
176.530400 0.808600
176.686300 0.804800
176.842200 0.796700
176.998100 0.784800
177.154000 0.774600
177.309900 0.743600
177.465800 0.740200
177.621700 0.762100
177.777600 0.776400
177.933500 0.787000
178.089400 0.784400
178.245300 0.788400
178.401200 0.800300
178.557100 0.814600
178.713000 0.826300
178.868900 0.845300
179.024800 0.860900
179.180700 0.866200
179.336600 0.868300
179.492500 0.863100
179.648400 0.871700
179.804300 0.864400
179.960200 0.850700
180.116100 0.826500
180.272000 0.815000
180.427900 0.817100
180.583800 0.829100
180.739700 0.830100
180.895600 0.838100
181.051500 0.832400
181.207400 0.834600
181.363300 0.824700
181.519200 0.816800
181.675100 0.825100
181.831000 0.822700
181.987000 0.819200
182.142900 0.809400
182.298800 0.814400
182.454700 0.820800
182.610600 0.814400
182.766500 0.820800
182.922400 0.832300
183.078300 0.837900
183.234200 0.822800
183.390100 0.831100
183.546000 0.826300
183.701900 0.821300
183.857800 0.807100
184.013700 0.784500
184.169600 0.773900
184.325500 0.796600
184.481400 0.804600
184.637300 0.813200
184.793200 0.819600
184.949100 0.819100
185.105000 0.817200
185.260900 0.823600
185.416800 0.803400
185.572700 0.809800
185.728600 0.804400
185.884500 0.784600
186.040400 0.769800
186.196300 0.769000
186.352200 0.769400
186.508100 0.778900
186.664000 0.798300
186.819900 0.830100
186.975800 0.838800
187.131700 0.826600
187.287600 0.803200
187.443500 0.779700
187.599400 0.781200
187.755300 0.773900
187.911200 0.776200
188.067100 0.786400
188.223000 0.801400
188.378900 0.809500
188.534800 0.817600
188.690700 0.825500
188.846600 0.843700
189.002500 0.841200
189.158400 0.836500
189.314300 0.837100
189.470200 0.825600
189.626100 0.822400
189.782000 0.815000
189.937900 0.814100
190.093800 0.835700
190.249700 0.848400
190.405700 0.847100
190.561600 0.834400
190.717500 0.801300
190.873400 0.782500
191.029300 0.785300
191.185200 0.804100
191.341100 0.827700
191.497000 0.858400
191.652900 0.886500
191.808800 0.891300
191.964700 0.892200
192.120600 0.882300
192.276500 0.870800
192.432400 0.852700
192.588300 0.840700
192.744200 0.827900
192.900100 0.812400
193.056000 0.824400
193.211900 0.821400
193.367800 0.829700
193.523700 0.832300
193.679600 0.819900
193.835500 0.814700
193.991400 0.830900
194.147300 0.830000
194.303200 0.834800
194.459100 0.854900
194.615000 0.865500
194.770900 0.870800
194.926800 0.865100
195.082700 0.872800
195.238600 0.856200
195.394500 0.848400
195.550400 0.851800
195.706300 0.843600
195.862200 0.830800
196.018100 0.841000
196.174000 0.850900
196.329900 0.849100
196.485800 0.840600
196.641700 0.843000
196.797600 0.836000
196.953500 0.818200
197.109400 0.808700
197.265300 0.797200
197.421200 0.803500
197.577100 0.802300
197.733000 0.809500
197.888900 0.819200
198.044800 0.826800
198.200700 0.839000
198.356600 0.836400
198.512500 0.839300
198.668400 0.846900
198.824400 0.855000
198.980300 0.854900
199.136200 0.859000
199.292100 0.847900
199.448000 0.837900
199.603900 0.827500
199.759800 0.826700
199.915700 0.830800
200.071600 0.842100
200.227500 0.840100
200.383400 0.833800
200.539300 0.838400
200.695200 0.840300
200.851100 0.853900
201.007000 0.851600
201.162900 0.848200
201.318800 0.846500
201.474700 0.840400
201.630600 0.839200
201.786500 0.829500
201.942400 0.812000
202.098300 0.800300
202.254200 0.804100
202.410100 0.821500
202.566000 0.839700
202.721900 0.857400
202.877800 0.871500
203.033700 0.874800
203.189600 0.872500
203.345500 0.866400
203.501400 0.857400
203.657300 0.839300
203.813200 0.825600
203.969100 0.809200
204.125000 0.803900
204.280900 0.800400
204.436800 0.813400
204.592700 0.829900
204.748600 0.847600
204.904500 0.851600
205.060400 0.859900
205.216300 0.865200
205.372200 0.869800
205.528100 0.872400
205.684000 0.854700
205.839900 0.847200
205.995800 0.855100
206.151700 0.850800
206.307600 0.853100
206.463500 0.866100
206.619400 0.853200
206.775300 0.847500
206.931200 0.839100
207.087100 0.846500
207.243100 0.846700
207.399000 0.853800
207.554900 0.848100
207.710800 0.843200
207.866700 0.852000
208.022600 0.850500
208.178500 0.851300
208.334400 0.855800
208.490300 0.851400
208.646200 0.842900
208.802100 0.834200
208.958000 0.839900
209.113900 0.845900
209.269800 0.854300
209.425700 0.854800
209.581600 0.843800
209.737500 0.849000
209.893400 0.871400
210.049300 0.871400
210.205200 0.891300
210.361100 0.892300
210.517000 0.893900
210.672900 0.888700
210.828800 0.879100
210.984700 0.876800
211.140600 0.880800
211.296500 0.875100
211.452400 0.876100
211.608300 0.882000
211.764200 0.893700
211.920100 0.900600
212.076000 0.902900
212.231900 0.888200
212.387800 0.875400
212.543700 0.865200
212.699600 0.867300
212.855500 0.877000
213.011400 0.879700
213.167300 0.896700
213.323200 0.893900
213.479100 0.888000
213.635000 0.878400
213.790900 0.871200
213.946800 0.863200
214.102700 0.866000
214.258600 0.856600
214.414500 0.858600
214.570400 0.854100
214.726300 0.864600
214.882200 0.874200
215.038100 0.885300
215.194000 0.886400
215.349900 0.867600
215.505800 0.862900
215.661800 0.850500
215.817700 0.848200
215.973600 0.852600
216.129500 0.857000
216.285400 0.857300
216.441300 0.849900
216.597200 0.842400
216.753100 0.844200
216.909000 0.846900
217.064900 0.858300
217.220800 0.870000
217.376700 0.891200
217.532600 0.906100
217.688500 0.916200
217.844400 0.919000
218.000300 0.928600
218.156200 0.929400
218.312100 0.924600
218.468000 0.924600
218.623900 0.921600
218.779800 0.926300
218.935700 0.905800
219.091600 0.881900
219.247500 0.868000
219.403400 0.861400
219.559300 0.864000
219.715200 0.861800
219.871100 0.850900
220.027000 0.844300
220.182900 0.847800
220.338800 0.844800
220.494700 0.844100
220.650600 0.849200
220.806500 0.851100
220.962400 0.833200
221.118300 0.821200
221.274200 0.812900
221.430100 0.810700
221.586000 0.798900
221.741900 0.809900
221.897800 0.813600
222.053700 0.824000
222.209600 0.829800
222.365500 0.848600
222.521400 0.851800
222.677300 0.848600
222.833200 0.839600
222.989100 0.837200
223.145000 0.847600
223.300900 0.857900
223.456800 0.867200
223.612700 0.865800
223.768600 0.867500
223.924500 0.867800
224.080500 0.862200
224.236400 0.862700
224.392300 0.866500
224.548200 0.868500
224.704100 0.857700
224.860000 0.851400
225.015900 0.849800
225.171800 0.859900
225.327700 0.852100
225.483600 0.845900
225.639500 0.851000
225.795400 0.859400
225.951300 0.870400
226.107200 0.876600
226.263100 0.891900
226.419000 0.893500
226.574900 0.900700
226.730800 0.911000
226.886700 0.907300
227.042600 0.900900
227.198500 0.889400
227.354400 0.878300
227.510300 0.871100
227.666200 0.872800
227.822100 0.878700
227.978000 0.878700
228.133900 0.884100
228.289800 0.895100
228.445700 0.895100
228.601600 0.887700
228.757500 0.882500
228.913400 0.882800
229.069300 0.886100
229.225200 0.882800
229.381100 0.884600
229.537000 0.891100
229.692900 0.895500
229.848800 0.900500
230.004700 0.885400
230.160600 0.879200
230.316500 0.876700
230.472400 0.881200
230.628300 0.883800
230.784200 0.883000
230.940100 0.874400
231.096000 0.875800
231.251900 0.874700
231.407800 0.873500
231.563700 0.881300
231.719600 0.894800
231.875500 0.896900
232.031400 0.900300
232.187300 0.904700
232.343200 0.909600
232.499200 0.916900
232.655100 0.916300
232.811000 0.914300
232.966900 0.925200
233.122800 0.933400
233.278700 0.932600
233.434600 0.928100
233.590500 0.910100
233.746400 0.889800
233.902300 0.873100
234.058200 0.858800
234.214100 0.861900
234.370000 0.838800
234.525900 0.830800
234.681800 0.819400
234.837700 0.812900
234.993600 0.813800
235.149500 0.810100
235.305400 0.808300
235.461300 0.808600
235.617200 0.816200
235.773100 0.821900
235.929000 0.833300
236.084900 0.846900
236.240800 0.871900
236.396700 0.851400
236.552600 0.839700
236.708500 0.843000
236.864400 0.848500
237.020300 0.855000
237.176200 0.862800
237.332100 0.859000
237.488000 0.846800
237.643900 0.842100
237.799800 0.832300
237.955700 0.822200
238.111600 0.816900
238.267500 0.821700
238.423400 0.838600
238.579300 0.829800
238.735200 0.821200
238.891100 0.816900
239.047000 0.811000
239.202900 0.799400
239.358800 0.789800
239.514700 0.780100
239.670600 0.769200
239.826500 0.755900
239.982400 0.747300
240.138300 0.743100
240.294200 0.742400
240.450100 0.745000
240.606000 0.753800
240.761900 0.754500
240.917800 0.749500
241.073800 0.744000
241.229700 0.734200
241.385600 0.727500
241.541500 0.720800
241.697400 0.715400
241.853300 0.717200
242.009200 0.711600
242.165100 0.703600
242.321000 0.698400
242.476900 0.692600
242.632800 0.677300
242.788700 0.661900
242.944600 0.653900
243.100500 0.644300
243.256400 0.611800
243.412300 0.588000
243.568200 0.563800
243.724100 0.542700
243.880000 0.523900
244.035900 0.505500
244.191800 0.489900
244.347700 0.474700
244.503600 0.470100
244.659500 0.469100
244.815400 0.475500
244.971300 0.486300
245.127200 0.481700
245.283100 0.481200
245.439000 0.469800
245.594900 0.453300
245.750800 0.446400
245.906700 0.434500
246.062600 0.423000
246.218500 0.398100
246.374400 0.392900
246.530300 0.384700
246.686200 0.377300
246.842100 0.361600
246.998000 0.348900
247.153900 0.340300
247.309800 0.330700
247.465700 0.317800
247.621600 0.309400
247.777500 0.298100
247.933400 0.278900
248.089300 0.265900
248.245200 0.240600
248.401100 0.223400
248.557000 0.211400
248.712900 0.200700
248.868800 0.193200
249.024700 0.186900
249.180600 0.175900
249.336500 0.158000
249.492500 0.145900
249.648400 0.141500
249.804300 0.133500
249.960200 0.127200
250.116100 0.121000
250.272000 0.115700
250.427900 0.111100
250.583800 0.107700
250.739700 0.101600
250.895600 0.096600
251.051500 0.092100
251.207400 0.086700
251.363300 0.082300
251.519200 0.078700
251.675100 0.075400
251.831000 0.072100
251.986900 0.068600
252.142800 0.065300
252.298700 0.062400
252.454600 0.060600
252.610500 0.057600
252.766400 0.054800
252.922300 0.052300
253.078200 0.049900
253.234100 0.047600
253.390000 0.045700
253.545900 0.043300
253.701800 0.039000
253.857700 0.035600
254.013600 0.032600
254.169500 0.029900
254.325400 0.028000
254.481300 0.026500
254.637200 0.025000
254.793100 0.024100
254.949000 0.023400
255.104900 0.022400
255.260800 0.021400
255.416700 0.020300
255.572600 0.019200
255.728500 0.017900
255.884400 0.016400
256.040300 0.015000
256.196200 0.013700
256.352100 0.012200
256.508000 0.010700
256.663900 0.009200
256.819800 0.007700
256.975700 0.006800
257.131600 0.006200
257.287500 0.005500
257.443400 0.005000
257.599300 0.004500
257.755200 0.004000
257.911200 0.003600
258.067100 0.003300
258.223000 0.003100
258.378900 0.002800
258.534800 0.002600
258.690700 0.002400
258.846600 0.002200
259.002500 0.002000
259.158400 0.001900
259.314300 0.001700
259.470200 0.001600
259.626100 0.001400
259.782000 0.001300
259.937900 0.001200
260.093800 0.001100
260.249700 0.001000
260.405600 0.000900
260.561500 0.000800
260.717400 0.000700
260.873300 0.000600
261.029200 0.000500
261.185100 0.000400
261.341000 0.000300
261.496900 0.000200
261.652800 0.000100
261.808700 0.000000
261.964600 0.000000
262.120500 0.000000
262.276400 0.000000
262.432300 0.000000
262.588200 0.000000
262.744100 0.000000
262.900000 0.000000
263.055900 0.000000
263.211800 0.000000
263.367700 0.000000
263.523600 0.000000
263.679500 0.000000
263.835400 0.000000
263.991300 0.000000
264.147200 0.000000
264.303100 0.000000
264.459000 0.000000
264.614900 0.000000
264.770800 0.000000
264.926700 0.000000
265.082600 0.000000
265.238500 0.000000
265.394400 0.000000
265.550300 0.000000
265.706200 0.000000
265.862100 0.000000
266.018000 0.000000
266.173900 0.000000
266.329900 0.000000
266.485800 0.000000
266.641700 0.000000
266.797600 0.000000
266.953500 0.000000
267.109400 0.000000
267.265300 0.000000
267.421200 0.000000
267.577100 0.000000
267.733000 0.000000
267.888900 0.000000
268.044800 0.000000
268.200700 0.000000
268.356600 0.000000
268.512500 0.000000
268.668400 0.000000
268.824300 0.000000
268.980200 0.000000
269.136100 0.000000
269.292000 0.000000
269.447900 0.000000
269.603800 0.000000
269.759700 0.000000
269.915600 0.000000
270.071500 0.000000
270.227400 0.000000
270.383300 0.000000
270.539200 0.000000
270.695100 0.000000
270.851000 0.000000
271.006900 0.000000
271.162800 0.000000
271.318700 0.000000
271.474600 0.000000
271.630500 0.000000
271.786400 0.000000
271.942300 0.000000
272.098200 0.000000
272.254100 0.000000
272.410000 0.000000
272.565900 0.000000
272.721800 0.000000
272.877700 0.000000
273.033600 0.000000
273.189500 0.000000
273.345400 0.000000
273.501300 0.000000
273.657200 0.000000
273.813100 0.000000
273.969000 0.000000
274.124900 0.000000
274.280800 0.000000
274.436700 0.000000
274.592600 0.000000
274.748600 0.000000
274.904500 0.000000
275.060400 0.000000
275.216300 0.000000
275.372200 0.000000
275.528100 0.000000
275.684000 0.000000
275.839900 0.000000
275.995800 0.000000
e
