set title 'mp-9889 - Density of States'
set xlabel 'Energy (eV)'
set ylabel 'DOS (states/eV)'
set grid
set xrange [-10:10]
set yrange [0:11.393]
set xzeroaxis lt -1
set terminal png size 800,600
set output 'mp-9889_dos_gnuplot.png'
plot '-' using 1:2 with lines title 'DOS'
-15.890300 0.000000
-15.860200 0.000000
-15.830000 0.000000
-15.799900 0.000000
-15.769800 0.000000
-15.739600 0.000000
-15.709500 0.000000
-15.679400 0.000000
-15.649300 0.000000
-15.619100 0.000000
-15.589000 0.000000
-15.558900 0.000000
-15.528800 0.000000
-15.498600 0.000000
-15.468500 0.000000
-15.438400 0.000000
-15.408200 0.000000
-15.378100 0.000000
-15.348000 0.000000
-15.317900 0.000000
-15.287700 0.000000
-15.257600 0.000000
-15.227500 0.000000
-15.197400 0.000000
-15.167200 0.000000
-15.137100 0.000000
-15.107000 0.000000
-15.076900 0.000000
-15.046700 0.000000
-15.016600 0.000000
-14.986500 0.000000
-14.956300 0.000000
-14.926200 0.000000
-14.896100 0.000000
-14.866000 0.000000
-14.835800 0.000000
-14.805700 0.000000
-14.775600 0.000000
-14.745500 0.000000
-14.715300 0.000000
-14.685200 0.000000
-14.655100 0.000000
-14.624900 0.000000
-14.594800 0.000000
-14.564700 0.000000
-14.534600 0.000000
-14.504400 0.000000
-14.474300 0.000000
-14.444200 0.000000
-14.414100 0.000000
-14.383900 0.000000
-14.353800 0.000000
-14.323700 0.000000
-14.293600 0.000000
-14.263400 0.000000
-14.233300 0.000000
-14.203200 0.000000
-14.173000 0.000000
-14.142900 0.000000
-14.112800 0.000000
-14.082700 0.000000
-14.052500 0.000000
-14.022400 0.000000
-13.992300 0.000000
-13.962200 0.000000
-13.932000 0.000000
-13.901900 0.000000
-13.871800 0.000000
-13.841600 0.000000
-13.811500 0.000000
-13.781400 0.000000
-13.751300 0.000000
-13.721100 0.000000
-13.691000 0.000000
-13.660900 0.000000
-13.630800 0.000000
-13.600600 0.000000
-13.570500 0.000000
-13.540400 0.000000
-13.510300 0.000000
-13.480100 0.000000
-13.450000 0.000000
-13.419900 0.000000
-13.389700 0.000000
-13.359600 0.000000
-13.329500 0.000000
-13.299400 0.000000
-13.269200 0.000000
-13.239100 0.000000
-13.209000 0.000000
-13.178900 0.000000
-13.148700 15.016600
-13.118600 42.220400
-13.088500 23.483100
-13.058300 14.152800
-13.028200 5.504100
-12.998100 4.636100
-12.968000 32.963500
-12.937800 5.411000
-12.907700 103.599000
-12.877600 46.117000
-12.847500 26.729200
-12.817300 37.181500
-12.787200 2.702000
-12.757100 131.688800
-12.726900 13.899700
-12.696800 0.687600
-12.666700 5.591800
-12.636600 10.121300
-12.606400 23.126100
-12.576300 0.000000
-12.546200 0.000000
-12.516100 0.000000
-12.485900 0.000000
-12.455800 0.000000
-12.425700 0.000000
-12.395600 0.000000
-12.365400 0.000000
-12.335300 0.000000
-12.305200 0.000000
-12.275000 0.000000
-12.244900 0.000000
-12.214800 0.000000
-12.184700 0.000000
-12.154500 0.000000
-12.124400 0.000000
-12.094300 0.000000
-12.064200 0.000000
-12.034000 0.000000
-12.003900 0.001900
-11.973800 0.064100
-11.943600 0.154500
-11.913500 0.244800
-11.883400 0.335200
-11.853300 0.425600
-11.823100 0.516000
-11.793000 0.606300
-11.762900 0.696700
-11.732800 0.787100
-11.702600 0.930500
-11.672500 1.093200
-11.642400 0.904600
-11.612300 1.035500
-11.582100 1.166300
-11.552000 1.297200
-11.521900 1.428100
-11.491700 1.559000
-11.461600 1.689900
-11.431500 1.700600
-11.401400 1.424800
-11.371200 1.457800
-11.341100 1.490800
-11.311000 1.523900
-11.280900 1.556900
-11.250700 1.589900
-11.220600 1.622900
-11.190500 1.656000
-11.160300 1.689000
-11.130200 1.722000
-11.100100 1.763400
-11.070000 1.813200
-11.039800 1.863000
-11.009700 1.912900
-10.979600 1.962700
-10.949500 2.012600
-10.919300 2.072400
-10.889200 2.156500
-10.859100 2.247400
-10.829000 2.338300
-10.798800 2.429100
-10.768700 2.520000
-10.738600 2.612600
-10.708400 2.716600
-10.678300 2.822100
-10.648200 2.927600
-10.618100 3.033100
-10.587900 3.138600
-10.557800 3.244100
-10.527700 3.349700
-10.497600 3.455200
-10.467400 3.560700
-10.437300 3.666200
-10.407200 13.231700
-10.377000 4.014600
-10.346900 3.847600
-10.316800 4.531700
-10.286700 3.835300
-10.256500 3.138800
-10.226400 2.442200
-10.196300 1.745600
-10.166200 1.048800
-10.136000 0.352000
-10.105900 0.000000
-10.075800 0.000000
-10.045600 0.000000
-10.015500 0.000000
-9.985400 0.000000
-9.955300 0.000000
-9.925100 0.000000
-9.895000 0.000000
-9.864900 0.000000
-9.834800 0.000000
-9.804600 0.000000
-9.774500 0.000000
-9.744400 0.000000
-9.714300 0.000000
-9.684100 0.000000
-9.654000 0.000000
-9.623900 0.000000
-9.593700 0.000000
-9.563600 0.000000
-9.533500 0.000000
-9.503400 0.000000
-9.473200 0.000000
-9.443100 0.000000
-9.413000 0.000000
-9.382900 0.000000
-9.352700 0.000000
-9.322600 0.000000
-9.292500 0.000000
-9.262300 0.000000
-9.232200 0.000000
-9.202100 0.000000
-9.172000 0.000000
-9.141800 0.000000
-9.111700 0.000000
-9.081600 0.000000
-9.051500 0.000000
-9.021300 0.000000
-8.991200 0.000000
-8.961100 0.000000
-8.931000 0.000000
-8.900800 0.000000
-8.870700 0.000000
-8.840600 0.000000
-8.810400 0.000000
-8.780300 0.000000
-8.750200 0.000000
-8.720100 0.000000
-8.689900 0.000000
-8.659800 0.000000
-8.629700 0.000000
-8.599600 0.000000
-8.569400 0.000000
-8.539300 0.000000
-8.509200 0.000000
-8.479000 0.000000
-8.448900 0.000000
-8.418800 0.000000
-8.388700 0.000000
-8.358500 0.000000
-8.328400 0.000000
-8.298300 0.000000
-8.268200 0.000000
-8.238000 0.000000
-8.207900 0.000000
-8.177800 0.000000
-8.147700 0.000000
-8.117500 0.000000
-8.087400 0.000000
-8.057300 0.000000
-8.027100 0.000000
-7.997000 0.000000
-7.966900 0.000000
-7.936800 0.000000
-7.906600 0.000000
-7.876500 0.000000
-7.846400 0.000000
-7.816300 0.000000
-7.786100 0.000000
-7.756000 0.000000
-7.725900 0.000000
-7.695700 0.000000
-7.665600 0.000000
-7.635500 0.000000
-7.605400 0.000000
-7.575200 0.000000
-7.545100 0.000000
-7.515000 0.000000
-7.484900 0.000000
-7.454700 0.000000
-7.424600 0.000000
-7.394500 0.000000
-7.364400 0.000000
-7.334200 0.000000
-7.304100 0.000000
-7.274000 0.000000
-7.243800 0.000000
-7.213700 0.000000
-7.183600 0.000000
-7.153500 0.000000
-7.123300 0.000000
-7.093200 0.000000
-7.063100 0.000000
-7.033000 0.000000
-7.002800 0.000000
-6.972700 0.000000
-6.942600 0.000000
-6.912400 0.000000
-6.882300 0.000000
-6.852200 0.000000
-6.822100 0.000000
-6.791900 0.000000
-6.761800 0.000000
-6.731700 0.000000
-6.701600 0.000000
-6.671400 0.000000
-6.641300 0.000000
-6.611200 0.000000
-6.581000 0.000000
-6.550900 0.000000
-6.520800 0.000000
-6.490700 0.000000
-6.460500 0.000000
-6.430400 0.000000
-6.400300 0.000000
-6.370200 0.000000
-6.340000 0.000000
-6.309900 0.000000
-6.279800 0.000000
-6.249700 0.000000
-6.219500 0.000000
-6.189400 0.000000
-6.159300 0.000000
-6.129100 0.000000
-6.099000 0.000000
-6.068900 0.000000
-6.038800 0.000000
-6.008600 0.000000
-5.978500 0.000000
-5.948400 0.000000
-5.918300 0.000000
-5.888100 0.000000
-5.858000 0.000000
-5.827900 0.000000
-5.797700 0.000000
-5.767600 0.000000
-5.737500 0.000000
-5.707400 0.000000
-5.677200 0.000000
-5.647100 0.000000
-5.617000 0.000000
-5.586900 0.000000
-5.556700 0.000000
-5.526600 0.000000
-5.496500 0.000000
-5.466400 0.000000
-5.436200 0.000000
-5.406100 0.180700
-5.376000 0.479100
-5.345800 0.777600
-5.315700 1.076100
-5.285600 1.374600
-5.255500 3.363000
-5.225300 5.705600
-5.195200 8.044900
-5.165100 1.559700
-5.135000 1.535500
-5.104800 1.511200
-5.074700 1.486900
-5.044600 1.462700
-5.014400 1.438400
-4.984300 1.414200
-4.954200 1.389900
-4.924100 1.365600
-4.893900 1.341400
-4.863800 1.317100
-4.833700 1.292900
-4.803600 1.268600
-4.773400 1.317100
-4.743300 1.479300
-4.713200 1.641500
-4.683100 1.954500
-4.652900 2.464300
-4.622800 3.076000
-4.592700 3.829200
-4.562500 4.603500
-4.532400 4.868600
-4.502300 3.599100
-4.472200 1.070500
-4.442000 1.215300
-4.411900 1.360100
-4.381800 5.109300
-4.351700 10.357400
-4.321500 0.976700
-4.291400 0.961600
-4.261300 0.946500
-4.231100 0.931500
-4.201000 0.916400
-4.170900 0.901300
-4.140800 0.886200
-4.110600 0.871200
-4.080500 0.856100
-4.050400 0.841000
-4.020300 0.826000
-3.990100 0.810900
-3.960000 0.795800
-3.929900 0.780700
-3.899800 0.765700
-3.869600 0.750600
-3.839500 0.735500
-3.809400 0.720500
-3.779200 0.705400
-3.749100 0.690700
-3.719000 0.677100
-3.688900 0.663500
-3.658700 0.649900
-3.628600 0.636300
-3.598500 0.622700
-3.568400 0.609100
-3.538200 0.595500
-3.508100 0.581900
-3.478000 0.568300
-3.447800 0.554700
-3.417700 0.541100
-3.387600 0.527500
-3.357500 0.513900
-3.327300 0.500300
-3.297200 0.486700
-3.267100 0.473100
-3.237000 0.459600
-3.206800 0.446000
-3.176700 0.432400
-3.146600 0.419600
-3.116400 0.415400
-3.086300 0.413000
-3.056200 0.410600
-3.026100 0.408300
-2.995900 0.405900
-2.965800 0.403500
-2.935700 0.401100
-2.905600 0.398800
-2.875400 0.396400
-2.845300 0.394000
-2.815200 0.391600
-2.785100 0.389300
-2.754900 0.386900
-2.724800 0.384500
-2.694700 0.382100
-2.664500 0.385100
-2.634400 0.413800
-2.604300 0.472000
-2.574200 0.530200
-2.544000 0.588400
-2.513900 0.646600
-2.483800 0.704800
-2.453700 0.762900
-2.423500 0.821100
-2.393400 0.879300
-2.363300 0.937500
-2.333100 0.995700
-2.303000 1.053900
-2.272900 1.112100
-2.242800 1.170300
-2.212600 1.866200
-2.182500 2.146300
-2.152400 1.781700
-2.122300 1.825300
-2.092100 1.936200
-2.062000 1.988900
-2.031900 2.216200
-2.001800 2.613200
-1.971600 3.190700
-1.941500 4.047100
-1.911400 5.085000
-1.881200 7.106900
-1.851100 6.275400
-1.821000 4.404400
-1.790900 3.336900
-1.760700 3.016100
-1.730600 2.928700
-1.700500 2.841200
-1.670400 2.753800
-1.640200 2.666400
-1.610100 2.579000
-1.580000 2.491600
-1.549800 2.404200
-1.519700 2.316800
-1.489600 2.229400
-1.459500 2.142100
-1.429300 2.054700
-1.399200 1.986200
-1.369100 1.951800
-1.339000 2.555800
-1.308800 3.113400
-1.278700 3.626400
-1.248600 4.245700
-1.218500 4.667300
-1.188300 4.620900
-1.158200 4.514000
-1.128100 4.355900
-1.097900 4.619000
-1.067800 4.641800
-1.037700 4.623000
-1.007600 4.632500
-0.977400 4.662400
-0.947300 4.756000
-0.917200 4.851600
-0.887100 4.710500
-0.856900 4.600000
-0.826800 4.571600
-0.796700 4.616200
-0.766500 4.788400
-0.736400 5.704000
-0.706300 9.752500
-0.676200 10.126100
-0.646000 10.037800
-0.615900 8.288800
-0.585800 4.506600
-0.555700 3.812700
-0.525500 3.114000
-0.495400 2.410600
-0.465300 1.942200
-0.435100 1.875700
-0.405000 1.810000
-0.374900 1.744400
-0.344800 1.678700
-0.314600 1.613000
-0.284500 1.547300
-0.254400 1.481700
-0.224300 1.416000
-0.194100 1.350300
-0.164000 1.284600
-0.133900 1.218900
-0.103800 1.153200
-0.073600 1.087500
-0.043500 1.418600
-0.013400 1.397000
0.016800 1.375400
0.046900 1.353800
0.077000 1.729300
0.107100 1.895700
0.137300 1.806600
0.167400 1.717400
0.197500 1.628300
0.227600 1.539100
0.257800 1.449800
0.287900 1.360600
0.318000 1.275900
0.348200 1.481300
0.378300 1.942300
0.408400 2.766500
0.438500 3.821100
0.468700 3.325200
0.498800 2.295100
0.528900 1.741100
0.559000 1.694300
0.589200 1.647800
0.619300 1.601500
0.649400 1.555400
0.679500 1.509500
0.709700 1.463800
0.739800 1.418400
0.769900 1.373200
0.800100 1.328200
0.830200 1.283400
0.860300 1.253600
0.890400 1.272100
0.920600 1.331700
0.950700 1.398600
0.980800 1.531100
1.010900 1.670600
1.041100 1.817200
1.071200 1.970800
1.101300 2.496800
1.131500 2.146800
1.161600 1.693700
1.191700 1.410000
1.221800 1.252400
1.252000 1.141800
1.282100 1.041300
1.312200 0.932400
1.342300 0.815100
1.372500 0.704800
1.402600 0.649200
1.432700 0.654600
1.462800 0.977100
1.493000 0.000000
1.523100 0.000000
1.553200 0.000000
1.583400 0.000000
1.613500 0.000000
1.643600 0.000000
1.673700 0.000000
1.703900 0.000000
1.734000 0.000000
1.764100 0.000000
1.794200 0.000000
1.824400 0.000000
1.854500 0.000000
1.884600 0.000000
1.914800 0.000000
1.944900 0.000000
1.975000 0.000000
2.005100 0.000000
2.035300 0.000000
2.065400 0.000000
2.095500 0.000000
2.125600 0.000000
2.155800 0.000000
2.185900 0.000000
2.216000 0.000000
2.246100 0.000000
2.276300 0.000000
2.306400 0.000000
2.336500 0.000000
2.366700 0.000000
2.396800 0.000000
2.426900 0.000000
2.457000 0.000000
2.487200 0.000000
2.517300 0.000000
2.547400 0.000000
2.577500 0.000000
2.607700 0.000000
2.637800 0.000000
2.667900 0.000000
2.698100 0.000000
2.728200 0.000000
2.758300 0.000000
2.788400 0.000000
2.818600 0.000000
2.848700 0.000000
2.878800 0.000000
2.908900 0.000000
2.939100 0.000000
2.969200 0.000000
2.999300 0.000000
3.029500 0.000000
3.059600 0.000000
3.089700 0.000000
3.119800 0.000000
3.150000 0.000000
3.180100 0.000000
3.210200 0.000000
3.240300 0.000000
3.270500 0.000000
3.300600 0.000000
3.330700 0.000000
3.360800 0.000000
3.391000 0.000000
3.421100 0.000000
3.451200 0.001700
3.481400 0.004400
3.511500 0.007900
3.541600 0.012000
3.571700 0.016900
3.601900 0.022500
3.632000 0.029100
3.662100 0.036700
3.692200 0.045400
3.722400 0.055200
3.752500 0.067900
3.782600 0.081000
3.812800 0.097500
3.842900 0.151000
3.873000 0.365300
3.903100 0.652700
3.933300 0.903300
3.963400 1.072200
3.993500 1.205100
4.023600 1.318000
4.053800 1.418100
4.083900 1.506000
4.114000 1.582700
4.144100 1.664300
4.174300 1.776500
4.204400 1.901000
4.234500 2.049400
4.264700 2.207400
4.294800 2.365300
4.324900 2.523200
4.355000 2.681000
4.385200 2.844200
4.415300 3.222800
4.445400 3.838000
4.475500 4.738900
4.505700 5.242300
4.535800 5.301100
4.565900 4.996200
4.596100 4.638700
4.626200 4.308700
4.656300 3.983000
4.686400 3.656800
4.716600 3.329900
4.746700 3.342200
4.776800 4.989400
4.806900 5.692000
4.837100 6.091300
4.867200 8.982300
4.897300 3.671800
4.927400 3.054800
4.957600 2.728700
4.987700 2.429300
5.017800 2.152500
5.048000 1.942300
5.078100 1.876100
5.108200 1.941500
5.138300 2.097100
5.168500 2.259500
5.198600 2.422300
5.228700 2.584400
5.258800 2.745900
5.289000 2.908400
5.319100 3.075600
5.349200 3.244500
5.379400 1.844300
5.409500 1.884800
5.439600 2.001400
5.469700 2.117900
5.499900 2.234400
5.530000 2.350900
5.560100 2.467300
5.590200 2.583600
5.620400 2.410600
5.650500 2.327700
5.680600 2.189800
5.710700 1.906800
5.740900 1.836400
5.771000 1.766100
5.801100 1.695700
5.831300 1.691100
5.861400 2.008000
5.891500 2.167500
5.921600 2.323300
5.951800 2.523500
5.981900 2.747300
6.012000 1.546800
6.042100 1.094000
6.072300 0.782600
6.102400 0.569900
6.132500 0.423000
6.162700 0.322000
6.192800 0.286100
6.222900 0.258400
6.253000 0.230800
6.283200 0.203100
6.313300 0.175500
6.343400 0.147800
6.373500 0.120200
6.403700 0.092600
6.433800 0.065000
6.463900 0.037400
6.494100 0.009800
6.524200 0.040200
6.554300 0.101400
6.584400 0.585800
6.614600 1.764200
6.644700 2.602300
6.674800 2.679700
6.704900 2.757700
6.735100 2.836400
6.765200 2.915700
6.795300 2.995700
6.825400 3.076400
6.855600 3.320900
6.885700 6.018900
6.915800 4.708700
6.946000 4.307800
6.976100 3.906600
7.006200 3.505100
7.036300 3.103200
7.066500 2.745800
7.096600 2.272000
7.126700 1.638700
7.156800 1.058300
7.187000 0.858400
7.217100 1.085700
7.247200 1.354300
7.277400 1.576100
7.307500 1.821600
7.337600 2.057500
7.367700 2.248700
7.397900 2.395200
7.428000 2.312300
7.458100 2.112200
7.488200 1.988100
7.518400 1.863600
7.548500 1.738800
7.578600 1.613700
7.608700 1.488200
7.638900 1.362500
7.669000 1.238500
7.699100 1.292900
7.729300 1.930700
7.759400 2.200600
7.789500 2.230500
7.819600 2.181800
7.849800 2.025200
7.879900 1.955500
7.910000 1.920700
7.940100 1.917200
7.970300 1.916900
8.000400 1.910400
8.030500 1.911800
8.060700 1.989800
8.090800 2.104600
8.120900 2.385100
8.151000 2.806500
8.181200 3.312900
8.211300 3.873200
8.241400 4.486200
8.271500 4.990600
8.301700 5.332900
8.331800 6.146200
8.361900 6.602200
8.392000 6.709500
8.422200 6.685300
8.452300 6.343700
8.482400 5.293900
8.512600 4.567100
8.542700 4.112100
8.572800 3.702300
8.602900 3.383100
8.633100 3.091300
8.663200 2.315300
8.693300 1.717400
8.723400 1.351700
8.753600 1.297500
8.783700 1.288200
8.813800 1.396400
8.844000 1.591200
8.874100 1.796900
8.904200 1.990700
8.934300 2.172400
8.964500 2.399100
8.994600 2.852800
9.024700 4.939500
9.054800 6.372600
9.085000 6.202000
9.115100 5.146400
9.145200 4.828800
9.175400 4.592700
9.205500 4.299200
9.235600 3.944600
9.265700 3.645100
9.295900 3.354200
9.326000 3.072800
9.356100 2.791000
9.386200 2.508700
9.416400 2.225800
9.446500 1.942300
9.476600 1.812000
9.506700 1.666500
9.536900 1.507400
9.567000 1.348600
9.597100 1.201800
9.627300 1.114400
9.657400 1.046800
9.687500 1.014100
9.717600 1.001000
9.747800 1.003400
9.777900 1.021200
9.808000 1.058000
9.838100 1.115800
9.868300 1.185800
9.898400 1.517000
9.928500 1.721300
9.958700 1.768900
9.988800 2.004400
10.018900 2.214600
10.049000 2.399600
10.079200 2.562600
10.109300 2.754200
10.139400 2.991700
10.169500 3.186600
10.199700 3.360000
10.229800 3.538400
10.259900 3.663100
10.290000 3.358100
10.320200 3.251700
10.350300 3.172000
10.380400 3.071500
10.410600 2.883800
10.440700 2.653100
10.470800 2.499100
10.500900 2.443100
10.531100 2.455800
10.561200 2.512500
10.591300 2.635400
10.621400 2.974400
10.651600 3.009700
10.681700 2.865600
10.711800 2.810200
10.742000 2.801600
10.772100 2.798200
10.802200 2.827600
10.832300 3.071500
10.862500 2.675800
10.892600 2.009000
10.922700 1.833400
10.952800 1.668400
10.983000 1.514000
11.013100 1.370000
11.043200 1.236500
11.073300 1.127700
11.103500 1.027300
11.133600 1.065200
11.163700 1.252500
11.193900 1.488600
11.224000 1.780500
11.254100 2.816700
11.284200 3.522400
11.314400 4.289300
11.344500 4.917700
11.374600 5.051300
11.404700 4.995600
11.434900 4.654800
11.465000 4.060800
11.495100 3.616000
11.525300 3.353400
11.555400 3.194400
11.585500 3.071000
11.615600 2.933700
11.645800 2.814800
11.675900 2.841800
11.706000 2.890500
11.736100 2.935500
11.766300 2.944900
11.796400 2.912500
11.826500 2.889700
11.856600 2.890300
11.886800 2.899300
11.916900 2.923400
11.947000 2.972000
11.977200 2.992800
12.007300 3.032900
12.037400 3.079100
12.067500 3.188600
12.097700 3.351600
12.127800 3.216900
12.157900 3.007800
12.188000 2.315100
12.218200 2.292700
12.248300 2.279100
12.278400 2.322800
12.308600 2.320600
12.338700 2.205200
12.368800 1.982300
12.398900 1.791600
12.429100 1.947200
12.459200 2.094000
12.489300 2.219400
12.519400 2.319600
12.549600 2.393200
12.579700 2.448800
12.609800 2.502200
12.640000 2.587800
12.670100 2.698600
12.700200 2.800800
12.730300 2.887000
12.760500 2.926500
12.790600 2.903300
12.820700 2.870200
12.850800 2.839900
12.881000 2.816200
12.911100 2.813600
12.941200 2.823900
12.971300 2.825700
13.001500 2.806600
13.031600 2.769100
13.061700 2.736000
13.091900 2.714400
13.122000 2.700300
13.152100 2.694300
13.182200 2.696200
13.212400 2.705900
13.242500 2.720300
13.272600 2.737000
13.302700 2.753800
13.332900 2.770400
13.363000 2.786900
13.393100 2.805600
13.423300 2.793300
13.453400 2.763800
13.483500 2.748600
13.513600 2.731900
13.543800 2.704300
13.573900 2.663200
13.604000 2.607000
13.634100 2.572600
13.664300 2.535900
13.694400 2.480000
13.724500 2.435100
13.754600 2.393400
13.784800 2.355400
13.814900 2.321300
13.845000 2.308700
13.875200 2.307400
13.905300 2.314900
13.935400 2.335400
13.965500 2.381500
13.995700 2.426000
14.025800 2.472400
14.055900 2.520800
14.086000 2.571200
14.116200 2.625500
14.146300 2.689400
14.176400 2.760200
14.206600 2.838300
14.236700 2.917000
14.266800 2.912400
14.296900 2.503400
14.327100 2.407100
14.357200 2.340700
14.387300 2.322900
14.417400 2.367900
14.447600 2.484600
14.477700 2.658300
14.507800 2.881300
14.537900 3.135800
14.568100 3.387300
14.598200 3.617500
14.628300 3.872500
14.658500 4.178900
14.688600 4.541100
14.718700 5.255700
14.748800 5.180500
14.779000 4.008500
14.809100 3.417800
14.839200 2.822200
14.869300 2.435400
14.899500 2.221200
14.929600 2.111800
14.959700 2.307000
14.989900 2.456100
15.020000 2.555000
15.050100 2.591700
15.080200 2.636800
15.110400 2.671600
15.140500 2.708400
15.170600 2.716100
15.200700 2.730300
15.230900 2.746100
15.261000 2.786100
15.291100 2.853900
15.321200 2.887100
15.351400 2.883100
15.381500 2.842000
15.411600 2.779500
15.441800 2.777400
15.471900 2.801800
15.502000 2.876700
15.532100 3.007100
15.562300 3.182100
15.592400 3.369900
15.622500 3.437800
15.652600 3.519500
15.682800 3.649700
15.712900 3.825000
15.743000 4.167500
15.773200 4.587800
15.803300 5.070600
15.833400 5.098400
15.863500 5.930300
15.893700 4.634800
15.923800 4.525700
15.953900 4.463700
15.984000 4.451100
16.014200 4.468900
16.044300 4.506600
16.074400 4.714400
16.104600 4.908400
16.134700 4.675600
16.164800 4.503600
16.194900 4.384200
16.225100 3.998300
16.255200 3.726200
16.285300 3.664500
16.315400 3.539600
16.345600 3.279600
16.375700 2.771500
16.405800 2.682100
16.435900 2.876900
16.466100 3.065200
16.496200 2.901100
16.526300 3.038100
16.556500 3.223700
16.586600 3.428700
16.616700 3.637400
16.646800 3.783600
16.677000 3.918300
16.707100 4.041300
16.737200 4.122400
16.767300 4.141700
16.797500 3.984900
16.827600 3.797100
16.857700 3.637800
16.887900 3.488400
16.918000 3.349100
16.948100 3.217800
16.978200 3.094200
17.008400 2.886700
17.038500 3.754900
17.068600 3.476400
17.098700 3.303800
17.128900 3.241400
17.159000 3.200700
17.189100 3.166100
17.219200 3.138200
17.249400 3.117100
17.279500 3.102900
17.309600 3.096100
17.339800 3.097000
17.369900 3.104600
17.400000 3.111400
17.430100 3.118800
17.460300 3.128400
17.490400 3.139300
17.520500 3.145100
17.550600 3.153400
17.580800 3.191200
17.610900 3.233300
17.641000 3.262700
17.671200 3.267400
17.701300 3.265000
17.731400 3.262900
17.761500 3.276300
17.791700 3.295700
17.821800 3.297000
17.851900 3.296200
17.882000 3.288700
17.912200 3.248400
17.942300 3.190700
17.972400 3.208600
18.002500 3.255200
18.032700 3.311000
18.062800 3.252700
18.092900 3.604000
18.123100 2.955600
18.153200 2.965000
18.183300 2.951300
18.213400 2.922500
18.243600 2.878700
18.273700 2.819900
18.303800 2.746300
18.333900 2.662000
18.364100 2.610600
18.394200 2.636500
18.424300 2.743200
18.454500 2.930000
18.484600 3.166200
18.514700 3.405800
18.544800 3.651900
18.575000 3.904200
18.605100 4.014700
18.635200 3.828900
18.665300 3.594200
18.695500 3.434200
18.725600 3.392700
18.755700 3.383200
18.785900 3.299100
18.816000 3.323200
18.846100 3.429000
18.876200 3.536900
18.906400 4.019300
18.936500 4.289600
18.966600 4.612600
18.996700 4.923900
19.026900 4.984400
19.057000 4.867800
19.087100 4.618100
19.117200 4.295200
19.147400 3.890700
19.177500 3.679200
19.207600 3.459000
19.237800 3.238600
19.267900 3.023300
19.298000 2.812900
19.328100 2.627900
19.358300 2.470400
19.388400 2.356100
19.418500 2.264700
19.448600 2.197900
19.478800 2.161700
19.508900 2.155600
19.539000 2.173500
19.569200 2.210700
19.599300 2.267300
19.629400 2.468400
19.659500 2.772500
19.689700 2.899400
19.719800 3.165300
19.749900 3.049600
19.780000 3.040300
19.810200 3.066700
19.840300 3.096700
19.870400 3.105600
19.900500 3.088300
19.930700 3.052700
19.960800 3.005800
19.990900 2.971000
20.021100 2.971100
20.051200 2.999700
20.081300 3.053900
20.111400 3.134800
20.141600 3.314200
20.171700 2.970700
20.201800 2.563200
20.231900 2.367800
20.262100 2.442200
20.292200 2.722800
20.322300 2.878600
20.352500 2.884000
20.382600 2.947400
20.412700 3.099200
20.442800 3.229200
20.473000 3.292000
20.503100 3.222500
20.533200 3.169400
20.563300 3.119000
20.593500 3.195700
20.623600 3.232900
20.653700 3.244100
20.683800 3.229500
20.714000 3.276000
20.744100 3.397100
20.774200 3.617900
20.804400 3.768400
20.834500 3.865200
20.864600 3.913200
20.894700 4.003400
20.924900 4.161600
20.955000 4.324800
20.985100 4.488400
21.015200 4.607500
21.045400 4.647800
21.075500 4.791500
21.105600 4.567300
21.135800 4.275500
21.165900 4.286800
21.196000 3.911600
21.226100 3.532100
21.256300 3.489600
21.286400 3.183700
21.316500 3.078900
21.346600 3.064200
21.376800 3.080900
21.406900 3.024200
21.437000 2.895200
21.467100 2.775000
21.497300 3.172700
21.527400 3.910100
21.557500 4.405300
21.587700 4.403200
21.617800 4.355600
21.647900 4.219200
21.678000 4.019600
21.708200 3.871500
21.738300 3.735500
21.768400 3.568800
21.798500 3.296200
21.828700 3.085100
21.858800 2.958300
21.888900 2.896200
21.919100 3.038900
21.949200 2.995200
21.979300 2.882900
22.009400 2.846100
22.039600 2.846700
22.069700 3.305200
22.099800 3.511100
22.129900 3.676900
22.160100 3.818100
22.190200 3.919000
22.220300 3.916400
22.250500 3.899200
22.280600 3.879400
22.310700 4.032500
22.340800 4.548400
22.371000 4.538200
22.401100 4.122800
22.431200 3.901300
22.461300 3.943000
22.491500 4.005400
22.521600 4.107500
22.551700 4.236800
22.581800 4.415500
22.612000 4.607000
22.642100 4.772000
22.672200 4.904000
22.702400 4.942300
22.732500 4.878200
22.762600 4.807800
22.792700 4.665000
22.822900 4.482600
22.853000 4.313900
22.883100 4.122900
22.913200 3.925900
22.943400 3.827400
22.973500 3.751300
23.003600 3.613400
23.033800 3.540500
23.063900 3.512300
23.094000 3.567600
23.124100 3.713000
23.154300 3.920300
23.184400 4.069900
23.214500 4.139500
23.244600 5.396100
23.274800 3.933400
23.304900 3.923600
23.335000 3.951100
23.365100 3.990200
23.395300 4.032800
23.425400 3.971300
23.455500 4.149900
23.485700 3.987400
23.515800 3.832300
23.545900 3.761300
23.576000 3.796400
23.606200 3.992700
23.636300 4.372100
23.666400 4.909300
23.696500 5.897000
23.726700 6.036600
23.756800 5.480100
23.786900 5.126700
23.817100 4.879900
23.847200 4.940900
23.877300 4.877100
23.907400 4.561100
23.937600 4.023300
23.967700 3.767100
23.997800 3.499000
24.027900 3.268100
24.058100 3.077800
24.088200 2.926800
24.118300 2.805100
24.148400 2.809300
24.178600 2.851100
24.208700 2.895700
24.238800 2.943200
24.269000 3.011400
24.299100 3.191800
24.329200 3.402500
24.359300 3.572600
24.389500 3.768700
24.419600 3.904800
24.449700 4.000300
24.479800 4.022800
24.510000 3.844500
24.540100 3.660500
24.570200 3.659100
24.600400 3.586200
24.630500 3.433600
24.660600 3.201400
24.690700 2.962200
24.720900 2.815800
24.751000 2.769700
24.781100 2.733300
24.811200 2.699000
24.841400 2.743900
24.871500 2.869400
24.901600 2.937000
24.931700 2.960100
24.961900 2.975900
24.992000 2.951900
25.022100 2.999900
25.052300 3.162300
25.082400 3.152700
25.112500 3.016300
25.142600 3.073700
25.172800 3.165400
25.202900 3.315200
25.233000 3.549700
25.263100 3.779400
25.293300 3.847000
25.323400 3.711000
25.353500 3.682200
25.383700 3.725100
25.413800 3.800400
25.443900 3.806500
25.474000 3.725000
25.504200 3.609200
25.534300 3.427400
25.564400 3.199900
25.594500 3.011200
25.624700 2.901300
25.654800 2.870100
25.684900 2.952700
25.715100 3.023800
25.745200 3.031800
25.775300 2.976800
25.805400 2.846200
25.835600 2.804800
25.865700 2.772900
25.895800 2.863100
25.925900 2.992300
25.956100 3.103900
25.986200 3.204400
26.016300 3.335800
26.046400 3.475900
26.076600 3.501700
26.106700 3.474000
26.136800 3.433300
26.167000 3.432200
26.197100 3.437500
26.227200 3.451900
26.257300 3.458900
26.287500 3.496600
26.317600 3.481800
26.347700 3.413700
26.377800 3.290300
26.408000 3.142600
26.438100 2.969900
26.468200 2.769500
26.498400 2.561700
26.528500 2.639900
26.558600 2.567000
26.588700 2.605700
26.618900 2.670900
26.649000 3.220400
26.679100 3.012200
26.709200 3.548800
26.739400 3.822500
26.769500 4.108300
26.799600 4.336500
26.829700 4.489800
26.859900 4.519500
26.890000 4.416500
26.920100 4.466000
26.950300 4.589300
26.980400 4.747800
27.010500 4.814800
27.040600 4.796100
27.070800 5.495800
27.100900 4.567800
27.131000 4.406300
27.161100 5.231900
27.191300 5.372800
27.221400 5.628600
27.251500 5.875200
27.281700 5.490500
27.311800 5.293900
27.341900 4.813100
27.372000 4.216400
27.402200 3.799400
27.432300 4.033900
27.462400 4.245900
27.492500 4.480200
27.522700 4.715400
27.552800 4.813800
27.582900 4.802900
27.613000 4.902900
27.643200 5.027800
27.673300 5.147100
27.703400 4.490800
27.733600 4.288800
27.763700 4.117400
27.793800 4.050000
27.823900 3.952700
27.854100 3.872500
27.884200 3.910100
27.914300 3.935400
27.944400 3.939600
27.974600 3.689300
28.004700 3.410200
28.034800 3.374400
28.065000 3.524400
28.095100 3.631100
28.125200 3.708200
28.155300 3.800300
28.185500 3.882500
28.215600 3.903700
28.245700 3.881500
28.275800 3.832700
28.306000 3.775800
28.336100 3.681900
28.366200 3.456700
28.396400 3.466700
28.426500 3.553700
28.456600 3.678800
28.486700 3.626600
28.516900 3.436200
28.547000 3.424900
28.577100 3.529100
28.607200 3.644500
28.637400 3.798100
28.667500 3.977700
28.697600 4.170800
28.727700 4.360600
28.757900 4.541100
28.788000 4.687000
28.818100 4.629000
28.848300 4.520000
28.878400 4.453700
28.908500 4.456900
28.938600 4.460400
28.968800 4.400200
28.998900 4.084800
29.029000 3.654900
29.059100 3.990900
29.089300 4.613100
29.119400 5.066800
29.149500 5.645300
29.179700 5.445000
29.209800 5.400800
29.239900 5.167000
29.270000 4.858100
29.300200 4.503600
29.330300 4.270100
29.360400 4.317700
29.390500 4.504000
29.420700 4.134600
29.450800 3.916500
29.480900 4.177100
29.511000 4.006300
29.541200 4.027400
29.571300 4.205800
29.601400 4.415000
29.631600 4.634000
29.661700 5.331800
29.691800 5.879200
29.721900 6.031500
29.752100 6.542700
29.782200 4.700900
29.812300 3.834800
29.842400 5.786500
29.872600 4.034200
29.902700 3.646900
29.932800 3.442600
29.963000 3.302000
29.993100 3.209400
30.023200 3.140900
30.053300 3.091300
30.083500 3.073800
30.113600 3.094700
30.143700 3.283800
30.173800 3.458300
30.204000 3.985800
30.234100 3.925500
30.264200 4.078200
30.294300 4.151300
30.324500 4.078500
30.354600 3.914900
30.384700 3.720800
30.414900 3.678200
30.445000 3.699300
30.475100 3.772900
30.505200 4.097700
30.535400 3.718100
30.565500 3.675400
30.595600 3.511500
30.625700 4.296600
30.655900 3.358900
30.686000 3.572200
30.716100 3.333600
30.746300 3.333500
30.776400 3.328700
30.806500 3.311300
30.836600 3.279100
30.866800 3.239800
30.896900 3.201900
30.927000 3.226500
30.957100 3.294000
30.987300 3.412000
31.017400 3.589400
31.047500 3.876400
31.077600 4.225200
31.107800 4.567500
31.137900 4.804400
31.168000 4.906900
31.198200 4.903900
31.228300 4.956700
31.258400 5.026100
31.288500 4.541900
31.318700 4.072000
31.348800 3.896300
31.378900 3.780200
31.409000 3.683500
31.439200 3.619500
31.469300 3.589500
31.499400 3.542300
31.529600 3.528800
31.559700 3.748600
31.589800 4.041500
31.619900 4.388100
31.650100 4.516300
31.680200 4.490800
31.710300 4.409600
31.740400 4.270900
31.770600 4.149400
31.800700 4.151600
31.830800 4.005500
31.861000 3.490300
31.891100 3.432400
31.921200 3.333300
31.951300 3.262400
31.981500 3.202300
32.011600 3.155400
32.041700 3.066300
32.071800 2.970700
32.102000 2.867300
32.132100 2.759700
32.162200 2.813900
32.192300 2.993200
32.222500 3.198000
32.252600 3.434900
32.282700 3.749900
32.312900 4.130100
32.343000 4.659900
32.373100 5.354300
32.403200 5.447300
32.433400 5.420000
32.463500 4.949200
32.493600 4.631500
32.523700 4.295400
32.553900 4.271900
32.584000 5.460600
32.614100 5.735100
32.644300 5.440100
32.674400 5.114700
32.704500 4.893400
32.734600 4.769400
32.764800 4.668000
32.794900 4.675700
32.825000 4.774300
32.855100 4.961100
32.885300 5.271100
32.915400 5.189700
32.945500 4.838300
32.975600 4.256100
33.005800 3.676400
33.035900 3.667200
33.066000 4.574300
33.096200 3.490600
33.126300 3.575800
33.156400 3.594400
33.186500 3.415800
33.216700 3.216900
33.246800 3.230900
33.276900 3.302200
33.307000 3.361500
33.337200 3.398100
33.367300 3.403900
33.397400 3.315700
33.427600 3.189500
33.457700 3.221100
33.487800 3.476100
33.517900 3.632200
33.548100 3.733400
33.578200 3.846600
33.608300 3.951000
33.638400 4.009800
33.668600 3.900600
33.698700 3.899300
33.728800 3.912800
33.758900 3.922500
33.789100 3.926400
33.819200 3.958000
33.849300 3.987600
33.879500 4.018000
33.909600 4.050000
33.939700 4.088300
33.969800 4.187100
34.000000 4.317600
34.030100 4.398900
34.060200 4.451400
34.090300 4.513000
34.120500 4.549600
34.150600 4.596300
34.180700 4.667600
34.210900 4.831100
34.241000 4.988100
34.271100 4.900800
34.301200 5.046300
34.331400 5.195800
34.361500 5.359300
34.391600 5.448100
34.421700 5.456600
34.451900 5.513000
34.482000 4.967800
34.512100 4.641400
34.542300 4.688200
34.572400 4.630800
34.602500 3.796400
34.632600 3.636300
34.662800 3.650300
34.692900 3.682600
34.723000 3.746400
34.753100 3.819000
34.783300 3.903500
34.813400 4.018100
34.843500 4.717100
34.873600 4.313200
34.903800 4.150900
34.933900 4.042300
34.964000 4.011000
34.994200 4.051000
35.024300 4.135700
35.054400 3.526800
35.084500 3.509300
35.114700 3.988900
35.144800 4.286100
35.174900 5.006300
35.205000 4.987700
35.235200 4.990800
35.265300 4.772600
35.295400 4.477400
35.325600 4.235400
35.355700 4.099300
35.385800 4.015300
35.415900 3.982100
35.446100 4.074600
35.476200 4.211300
35.506300 4.341900
35.536400 4.453000
35.566600 4.553000
35.596700 4.746700
35.626800 4.965700
35.656900 5.098800
35.687100 5.193900
35.717200 5.240300
35.747300 5.220700
35.777500 5.086500
35.807600 4.825300
35.837700 4.636900
35.867800 4.468000
35.898000 4.303600
35.928100 4.142300
35.958200 4.171800
35.988300 4.467900
36.018500 4.721000
36.048600 4.944200
36.078700 5.191900
36.108900 6.330600
36.139000 6.765200
36.169100 6.105800
36.199200 5.790800
36.229400 5.779200
36.259500 5.889400
36.289600 6.071200
36.319700 6.295900
36.349900 6.790100
36.380000 6.348100
36.410100 5.518400
36.440200 4.797200
36.470400 4.554500
36.500500 4.603300
36.530600 4.550100
36.560800 4.399300
36.590900 4.248200
36.621000 4.443300
36.651100 4.536700
36.681300 4.558800
36.711400 4.584600
36.741500 4.590800
36.771600 4.544800
36.801800 4.813500
36.831900 4.807000
36.862000 4.449100
36.892200 4.381400
36.922300 4.365500
36.952400 4.364500
36.982500 4.368800
37.012700 4.371500
37.042800 5.140300
37.072900 5.174100
37.103000 4.666500
37.133200 4.453500
37.163300 4.469100
37.193400 4.445000
37.223500 4.347100
37.253700 4.276300
37.283800 4.435200
37.313900 4.463700
37.344100 4.234300
37.374200 3.861100
37.404300 3.137500
37.434400 2.802400
37.464600 2.630800
37.494700 2.633300
37.524800 2.823900
37.554900 3.072000
37.585100 3.333300
37.615200 3.610000
37.645300 4.874700
37.675500 5.884200
37.705600 6.922900
37.735700 5.339000
37.765800 4.455600
37.796000 3.815900
37.826100 3.397400
37.856200 3.551000
37.886300 5.173000
37.916500 6.322400
37.946600 6.575300
37.976700 6.257000
38.006900 5.769900
38.037000 5.169300
38.067100 4.409400
38.097200 3.877800
38.127400 3.473800
38.157500 3.172600
38.187600 2.978800
38.217700 2.832500
38.247900 2.705800
38.278000 2.620800
38.308100 2.571100
38.338200 2.544100
38.368400 2.513500
38.398500 2.468200
38.428600 2.401600
38.458800 2.314400
38.488900 2.207400
38.519000 2.080600
38.549100 1.934000
38.579300 1.859100
38.609400 1.794300
38.639500 1.728700
38.669600 1.664700
38.699800 1.603400
38.729900 1.544900
38.760000 1.489000
38.790200 1.438800
38.820300 1.400800
38.850400 1.369600
38.880500 1.342500
38.910700 1.326700
38.940800 1.319800
38.970900 1.295700
39.001000 1.273500
39.031200 1.247700
39.061300 1.216000
39.091400 1.178300
39.121500 1.134600
39.151700 1.084700
39.181800 1.027900
39.211900 0.976400
39.242100 0.935600
39.272200 0.903700
39.302300 0.882700
39.332400 0.864400
39.362600 0.846300
39.392700 0.828500
39.422800 0.811000
39.452900 0.793700
39.483100 0.775800
39.513200 0.756400
39.543300 0.735700
39.573500 0.713800
39.603600 0.690700
39.633700 0.666500
39.663800 0.641100
39.694000 0.622100
39.724100 0.605100
39.754200 0.587000
39.784300 0.568000
39.814500 0.549900
39.844600 0.535200
39.874700 0.522100
39.904800 0.510600
39.935000 0.500800
39.965100 0.494600
39.995200 0.488300
40.025400 0.480200
40.055500 0.470400
40.085600 0.458800
40.115700 0.445600
40.145900 0.430600
40.176000 0.414000
40.206100 0.397500
40.236200 0.382000
40.266400 0.366100
40.296500 0.349000
40.326600 0.330800
40.356800 0.307200
40.386900 0.285000
40.417000 0.264700
40.447100 0.246500
40.477300 0.233800
40.507400 0.223300
40.537500 0.213700
40.567600 0.201700
40.597800 0.186800
40.627900 0.169000
40.658000 0.148300
40.688100 0.124700
40.718300 0.098300
40.748400 0.069700
40.778500 0.062200
40.808700 0.059100
40.838800 0.056000
40.868900 0.053000
40.899000 0.050100
40.929200 0.047200
40.959300 0.044400
40.989400 0.041700
41.019500 0.039000
41.049700 0.036500
41.079800 0.033900
41.109900 0.031500
41.140100 0.029100
41.170200 0.026800
41.200300 0.024500
41.230400 0.022300
41.260600 0.020200
41.290700 0.018200
41.320800 0.016200
41.350900 0.014300
41.381100 0.012400
41.411200 0.010700
41.441300 0.008900
41.471500 0.007300
41.501600 0.005700
41.531700 0.004200
41.561800 0.002800
41.592000 0.001400
41.622100 0.000100
41.652200 0.000000
41.682300 0.000000
41.712500 0.000000
41.742600 0.000000
41.772700 0.000000
41.802800 0.000000
41.833000 0.000000
41.863100 0.000000
41.893200 0.000000
41.923400 0.000000
41.953500 0.000000
41.983600 0.000000
42.013700 0.000000
42.043900 0.000000
42.074000 0.000000
42.104100 0.000000
42.134200 0.000000
42.164400 0.000000
42.194500 0.000000
42.224600 0.000000
42.254800 0.000000
42.284900 0.000000
42.315000 0.000000
42.345100 0.000000
42.375300 0.000000
42.405400 0.000000
42.435500 0.000000
42.465600 0.000000
42.495800 0.000000
42.525900 0.000000
42.556000 0.000000
42.586100 0.000000
42.616300 0.000000
42.646400 0.000000
42.676500 0.000000
42.706700 0.000000
42.736800 0.000000
42.766900 0.000000
42.797000 0.000000
42.827200 0.000000
42.857300 0.000000
42.887400 0.000000
42.917500 0.000000
42.947700 0.000000
42.977800 0.000000
43.007900 0.000000
43.038100 0.000000
43.068200 0.000000
43.098300 0.000000
43.128400 0.000000
43.158600 0.000000
43.188700 0.000000
43.218800 0.000000
43.248900 0.000000
43.279100 0.000000
43.309200 0.000000
43.339300 0.000000
43.369400 0.000000
43.399600 0.000000
43.429700 0.000000
43.459800 0.000000
43.490000 0.000000
43.520100 0.000000
43.550200 0.000000
43.580300 0.000000
43.610500 0.000000
43.640600 0.000000
43.670700 0.000000
43.700800 0.000000
43.731000 0.000000
43.761100 0.000000
43.791200 0.000000
43.821400 0.000000
43.851500 0.000000
43.881600 0.000000
43.911700 0.000000
43.941900 0.000000
43.972000 0.000000
44.002100 0.000000
44.032200 0.000000
44.062400 0.000000
44.092500 0.000000
44.122600 0.000000
44.152800 0.000000
44.182900 0.000000
44.213000 0.000000
44.243100 0.000000
44.273300 0.000000
44.303400 0.000000
44.333500 0.000000
44.363600 0.000000
e
