set title 'mp-676011 - Density of States'
set xlabel 'Energy (eV)'
set ylabel 'DOS (states/eV)'
set grid
set xrange [-10:10]
set yrange [0:6.735]
set xzeroaxis lt -1
set terminal png size 800,600
set output 'mp-676011_dos_gnuplot.png'
plot '-' using 1:2 with lines title 'DOS'
-8.072000 0.000000
-8.057300 0.000000
-8.042700 0.000000
-8.028000 0.000000
-8.013400 0.000000
-7.998700 0.000000
-7.984100 0.000000
-7.969400 0.000000
-7.954700 0.000000
-7.940100 0.000000
-7.925400 0.000000
-7.910800 0.000000
-7.896100 0.000000
-7.881500 0.000000
-7.866800 0.000000
-7.852200 0.000000
-7.837500 0.000000
-7.822900 0.000000
-7.808200 0.000000
-7.793600 0.000000
-7.778900 0.000000
-7.764200 0.000000
-7.749600 0.000000
-7.734900 0.000000
-7.720300 0.000000
-7.705600 0.000000
-7.691000 0.000000
-7.676300 0.000000
-7.661700 0.000000
-7.647000 0.000000
-7.632400 0.000000
-7.617700 0.000000
-7.603100 0.000000
-7.588400 0.000000
-7.573700 0.000000
-7.559100 0.000000
-7.544400 0.000000
-7.529800 0.000000
-7.515100 0.000000
-7.500500 0.000000
-7.485800 0.000000
-7.471200 0.000000
-7.456500 0.000000
-7.441900 0.000000
-7.427200 0.000000
-7.412500 0.000000
-7.397900 0.000000
-7.383200 0.000000
-7.368600 0.000000
-7.353900 0.000000
-7.339300 0.000000
-7.324600 0.000000
-7.310000 0.000000
-7.295300 0.000000
-7.280700 0.000000
-7.266000 0.000000
-7.251400 0.000000
-7.236700 0.000000
-7.222000 0.000000
-7.207400 0.000000
-7.192700 0.000000
-7.178100 0.000000
-7.163400 0.000000
-7.148800 0.000000
-7.134100 0.000000
-7.119500 0.000000
-7.104800 0.000000
-7.090200 0.000000
-7.075500 0.000000
-7.060900 0.000000
-7.046200 0.000000
-7.031500 0.000000
-7.016900 0.000000
-7.002200 0.000000
-6.987600 0.000000
-6.972900 0.000000
-6.958300 0.000000
-6.943600 0.000000
-6.929000 0.000000
-6.914300 0.000000
-6.899700 0.000000
-6.885000 0.000000
-6.870400 0.000000
-6.855700 0.000000
-6.841000 0.000000
-6.826400 0.000000
-6.811700 0.000000
-6.797100 0.000000
-6.782400 0.000000
-6.767800 0.000000
-6.753100 0.000000
-6.738500 0.000200
-6.723800 0.027900
-6.709200 0.102600
-6.694500 0.224200
-6.679900 0.387300
-6.665200 0.450000
-6.650500 0.449900
-6.635900 0.485600
-6.621200 0.532900
-6.606600 0.585800
-6.591900 0.641600
-6.577300 0.694700
-6.562600 0.740700
-6.548000 0.786700
-6.533300 0.833700
-6.518700 0.873300
-6.504000 0.913800
-6.489400 0.953300
-6.474700 0.993600
-6.460000 1.037900
-6.445400 1.115500
-6.430700 1.230900
-6.416100 1.309900
-6.401400 1.344600
-6.386800 1.347300
-6.372100 1.321500
-6.357500 1.312300
-6.342800 1.328900
-6.328200 1.345100
-6.313500 1.360700
-6.298900 1.374000
-6.284200 1.386100
-6.269500 1.398400
-6.254900 1.409800
-6.240200 1.416200
-6.225600 1.418300
-6.210900 1.419300
-6.196300 1.426100
-6.181600 1.437600
-6.167000 1.450500
-6.152300 1.464200
-6.137700 1.480900
-6.123000 1.501000
-6.108400 1.522000
-6.093700 1.545000
-6.079000 1.634200
-6.064400 1.711500
-6.049700 1.738900
-6.035100 1.744200
-6.020400 1.732700
-6.005800 1.714600
-5.991100 1.693600
-5.976500 1.685000
-5.961800 1.675200
-5.947200 1.666100
-5.932500 1.658600
-5.917800 1.653400
-5.903200 1.649400
-5.888500 1.642600
-5.873900 1.633800
-5.859200 1.622500
-5.844600 1.610800
-5.829900 1.598600
-5.815300 1.592100
-5.800600 1.594700
-5.786000 1.615700
-5.771300 1.607700
-5.756700 1.551700
-5.742000 1.499100
-5.727300 1.457500
-5.712700 1.426300
-5.698000 1.405500
-5.683400 1.395200
-5.668700 1.389600
-5.654100 1.385000
-5.639400 1.383300
-5.624800 1.384000
-5.610100 1.385000
-5.595500 1.388400
-5.580800 1.389700
-5.566200 1.404200
-5.551500 1.428100
-5.536800 1.498700
-5.522200 1.413400
-5.507500 1.370200
-5.492900 1.364200
-5.478200 1.363900
-5.463600 1.364400
-5.448900 1.372700
-5.434300 1.350800
-5.419600 1.293800
-5.405000 1.220300
-5.390300 1.126000
-5.375700 1.049600
-5.361000 1.031900
-5.346300 1.012600
-5.331700 0.984300
-5.317000 0.955400
-5.302400 0.925300
-5.287700 0.894400
-5.273100 0.873200
-5.258400 0.872900
-5.243800 0.899400
-5.229100 0.938200
-5.214500 0.978800
-5.199800 0.959400
-5.185200 0.890400
-5.170500 0.818100
-5.155800 0.724900
-5.141200 0.730500
-5.126500 0.735100
-5.111900 0.667300
-5.097200 0.604800
-5.082600 0.548100
-5.067900 0.498900
-5.053300 0.471200
-5.038600 0.456700
-5.024000 0.461600
-5.009300 0.478300
-4.994700 0.493200
-4.980000 0.502800
-4.965300 0.518100
-4.950700 0.543500
-4.936000 0.578300
-4.921400 0.613000
-4.906700 0.647700
-4.892100 0.688000
-4.877400 0.732100
-4.862800 0.777100
-4.848100 0.842000
-4.833500 0.943600
-4.818800 1.020700
-4.804200 1.061000
-4.789500 1.073000
-4.774800 1.073300
-4.760200 1.088800
-4.745500 1.118300
-4.730900 1.146600
-4.716200 1.179600
-4.701600 1.215600
-4.686900 1.255100
-4.672300 1.325700
-4.657600 1.442000
-4.643000 1.556500
-4.628300 1.687400
-4.613700 1.871400
-4.599000 2.096700
-4.584300 2.483000
-4.569700 2.819300
-4.555000 2.926900
-4.540400 2.949400
-4.525700 2.939700
-4.511100 2.864600
-4.496400 2.695400
-4.481800 2.624300
-4.467100 2.618800
-4.452500 2.527200
-4.437800 2.456700
-4.423100 2.400300
-4.408500 2.355500
-4.393800 2.355100
-4.379200 2.343400
-4.364500 2.310200
-4.349900 2.274200
-4.335200 2.272500
-4.320600 2.141700
-4.305900 1.986800
-4.291300 1.913400
-4.276600 1.863600
-4.262000 1.825500
-4.247300 1.795500
-4.232600 1.771400
-4.218000 1.758200
-4.203300 1.751600
-4.188700 1.778500
-4.174000 1.858900
-4.159400 1.864500
-4.144700 1.735700
-4.130100 1.802600
-4.115400 1.756400
-4.100800 1.634100
-4.086100 1.579800
-4.071500 1.555800
-4.056800 1.548800
-4.042100 1.559000
-4.027500 1.515800
-4.012800 1.459500
-3.998200 1.424500
-3.983500 1.417200
-3.968900 1.417200
-3.954200 1.415000
-3.939600 1.406300
-3.924900 1.398700
-3.910300 1.389700
-3.895600 1.397300
-3.881000 1.455000
-3.866300 1.528800
-3.851600 1.608100
-3.837000 1.771900
-3.822300 1.962500
-3.807700 2.097100
-3.793000 2.102600
-3.778400 2.012100
-3.763700 1.976600
-3.749100 1.968200
-3.734400 1.949300
-3.719800 1.959100
-3.705100 2.143400
-3.690500 3.250600
-3.675800 2.745000
-3.661100 2.787500
-3.646500 2.820500
-3.631800 2.920200
-3.617200 2.902100
-3.602500 2.970700
-3.587900 2.807300
-3.573200 2.670900
-3.558600 2.564600
-3.543900 2.512800
-3.529300 2.459200
-3.514600 2.439500
-3.500000 2.458100
-3.485300 2.471400
-3.470600 2.467400
-3.456000 2.544100
-3.441300 2.678000
-3.426700 2.633300
-3.412000 2.520000
-3.397400 2.270800
-3.382700 2.197400
-3.368100 2.021000
-3.353400 1.819700
-3.338800 1.663900
-3.324100 1.590100
-3.309500 1.476500
-3.294800 1.326600
-3.280100 1.211200
-3.265500 1.148100
-3.250800 1.109700
-3.236200 1.072200
-3.221500 1.034800
-3.206900 0.996100
-3.192200 0.955000
-3.177600 0.919400
-3.162900 0.888000
-3.148300 0.840500
-3.133600 0.819100
-3.119000 0.799400
-3.104300 0.789700
-3.089600 0.805100
-3.075000 0.835000
-3.060300 0.870100
-3.045700 0.910100
-3.031000 0.958100
-3.016400 1.033600
-3.001700 1.103900
-2.987100 1.168400
-2.972400 1.237700
-2.957800 1.321800
-2.943100 1.441200
-2.928500 1.602600
-2.913800 1.800300
-2.899100 2.107800
-2.884500 2.240600
-2.869800 2.107300
-2.855200 2.265700
-2.840500 2.376400
-2.825900 2.473900
-2.811200 2.585300
-2.796600 2.733100
-2.781900 2.841700
-2.767300 2.869200
-2.752600 2.955100
-2.737900 2.993800
-2.723300 2.915500
-2.708600 2.831400
-2.694000 2.806300
-2.679300 2.808500
-2.664700 2.827500
-2.650000 2.867000
-2.635400 2.889900
-2.620700 2.848800
-2.606100 2.774100
-2.591400 2.693000
-2.576800 2.614900
-2.562100 2.542100
-2.547400 2.513600
-2.532800 2.514900
-2.518100 2.455400
-2.503500 2.405300
-2.488800 2.399200
-2.474200 2.414200
-2.459500 2.436700
-2.444900 2.474200
-2.430200 2.649300
-2.415600 2.586700
-2.400900 2.532100
-2.386300 2.535000
-2.371600 2.517200
-2.356900 2.491800
-2.342300 2.454600
-2.327600 2.420900
-2.313000 2.388600
-2.298300 2.355400
-2.283700 2.321900
-2.269000 2.294900
-2.254400 2.277300
-2.239700 2.255100
-2.225100 2.278300
-2.210400 2.318000
-2.195800 2.260000
-2.181100 2.218600
-2.166400 2.190100
-2.151800 2.172800
-2.137100 2.162100
-2.122500 2.155600
-2.107800 2.149100
-2.093200 2.142100
-2.078500 2.134100
-2.063900 2.119700
-2.049200 2.110600
-2.034600 2.104100
-2.019900 2.099100
-2.005300 2.095500
-1.990600 2.092000
-1.975900 2.087200
-1.961300 2.078000
-1.946600 2.067700
-1.932000 2.057000
-1.917300 2.045800
-1.902700 2.033700
-1.888000 2.025900
-1.873400 2.021500
-1.858700 2.018500
-1.844100 2.015400
-1.829400 2.013700
-1.814800 2.010200
-1.800100 2.002200
-1.785400 1.990900
-1.770800 1.978400
-1.756100 1.966200
-1.741500 1.960900
-1.726800 1.965500
-1.712200 1.973700
-1.697500 1.984800
-1.682900 1.994800
-1.668200 2.001300
-1.653600 2.005200
-1.638900 2.007700
-1.624300 2.008800
-1.609600 2.007500
-1.594900 2.003200
-1.580300 1.997500
-1.565600 1.996200
-1.551000 1.996400
-1.536300 1.999000
-1.521700 2.011700
-1.507000 2.030000
-1.492400 2.048200
-1.477700 2.074200
-1.463100 2.104900
-1.448400 2.119600
-1.433800 2.077400
-1.419100 2.068900
-1.404400 2.058300
-1.389800 2.045000
-1.375100 2.027700
-1.360500 2.000300
-1.345800 1.969200
-1.331200 1.843700
-1.316500 1.794400
-1.301900 1.754600
-1.287200 1.721200
-1.272600 1.728600
-1.257900 1.751000
-1.243200 1.775600
-1.228600 1.802000
-1.213900 1.818200
-1.199300 1.830000
-1.184600 1.848100
-1.170000 1.852600
-1.155300 1.883700
-1.140700 1.919300
-1.126000 1.960000
-1.111400 2.058900
-1.096700 2.148800
-1.082100 2.252000
-1.067400 2.372100
-1.052700 2.401200
-1.038100 2.382200
-1.023400 2.362600
-1.008800 2.339700
-0.994100 2.302400
-0.979500 2.279200
-0.964800 2.255100
-0.950200 2.225000
-0.935500 2.184700
-0.920900 2.133800
-0.906200 2.113000
-0.891600 2.116700
-0.876900 2.118600
-0.862200 2.111500
-0.847600 2.099300
-0.832900 2.090000
-0.818300 2.084400
-0.803600 2.116400
-0.789000 2.146500
-0.774300 2.143700
-0.759700 2.113200
-0.745000 2.067100
-0.730400 2.039600
-0.715700 2.035400
-0.701100 1.995700
-0.686400 1.876900
-0.671700 1.796300
-0.657100 1.747900
-0.642400 1.716800
-0.627800 1.692300
-0.613100 1.661600
-0.598500 1.623000
-0.583800 1.590500
-0.569200 1.571900
-0.554500 1.557700
-0.539900 1.545100
-0.525200 1.531900
-0.510600 1.520400
-0.495900 1.506700
-0.481200 1.488500
-0.466600 1.480600
-0.451900 1.496600
-0.437300 1.539700
-0.422600 1.581800
-0.408000 1.624100
-0.393300 1.678400
-0.378700 1.855700
-0.364000 2.178100
-0.349400 2.105300
-0.334700 2.127700
-0.320100 2.138900
-0.305400 2.116500
-0.290700 2.096100
-0.276100 2.090400
-0.261400 2.209400
-0.246800 2.106500
-0.232100 2.084900
-0.217500 2.106800
-0.202800 2.147800
-0.188200 2.212500
-0.173500 2.291900
-0.158900 2.448600
-0.144200 2.702700
-0.129600 3.077700
-0.114900 3.281800
-0.100200 3.555400
-0.085600 3.896300
-0.070900 4.012500
-0.056300 3.985500
-0.041600 3.986600
-0.027000 3.891000
-0.012300 3.747000
0.002300 3.610300
0.017000 3.490700
0.031600 3.377500
0.046300 3.270400
0.060900 3.163700
0.075600 3.066700
0.090300 2.971000
0.104900 2.881800
0.119600 2.799900
0.134200 2.682800
0.148900 2.531400
0.163500 2.391300
0.178200 2.247700
0.192800 2.178900
0.207500 2.136900
0.222100 2.076900
0.236800 1.998400
0.251500 1.958000
0.266100 1.910100
0.280800 1.963400
0.295400 2.105800
0.310100 2.328100
0.324700 2.630700
0.339400 2.973200
0.354000 3.251100
0.368700 3.401000
0.383300 3.612600
0.398000 3.843600
0.412600 3.703200
0.427300 4.182900
0.442000 3.744800
0.456600 3.639400
0.471300 3.527500
0.485900 3.506100
0.500600 3.319100
0.515200 3.048700
0.529900 2.877700
0.544500 2.739300
0.559200 2.589200
0.573800 2.447700
0.588500 2.250500
0.603100 2.131200
0.617800 2.067400
0.632500 2.017800
0.647100 1.968800
0.661800 1.907400
0.676400 1.853300
0.691100 1.842600
0.705700 1.839200
0.720400 1.824100
0.735000 1.820700
0.749700 1.838700
0.764300 1.912600
0.779000 1.966100
0.793600 2.074900
0.808300 2.066900
0.823000 2.054900
0.837600 2.119000
0.852300 2.188300
0.866900 2.269200
0.881600 2.388400
0.896200 2.576900
0.910900 2.608700
0.925500 2.422400
0.940200 2.290900
0.954800 2.176800
0.969500 2.137700
0.984100 2.138100
0.998800 2.127400
1.013500 2.126200
1.028100 2.143600
1.042800 2.171500
1.057400 2.207500
1.072100 2.256200
1.086700 2.395400
1.101400 2.558100
1.116000 2.759800
1.130700 2.972400
1.145300 3.013900
1.160000 2.903800
1.174600 2.958100
1.189300 2.919600
1.204000 2.820700
1.218600 2.694400
1.233300 2.574400
1.247900 2.462400
1.262600 2.371400
1.277200 2.307000
1.291900 2.261300
1.306500 2.265700
1.321200 2.406000
1.335800 2.377800
1.350500 2.253300
1.365100 2.185500
1.379800 2.131500
1.394500 2.103300
1.409100 2.142100
1.423800 2.254600
1.438400 2.293000
1.453100 2.620300
1.467700 2.285200
1.482400 2.123200
1.497000 2.063200
1.511700 2.031300
1.526300 2.029800
1.541000 2.062000
1.555600 2.129400
1.570300 2.227200
1.585000 2.302500
1.599600 2.331900
1.614300 2.501000
1.628900 2.648600
1.643600 2.813900
1.658200 2.792700
1.672900 2.815700
1.687500 2.899900
1.702200 2.980000
1.716800 3.039600
1.731500 3.077100
1.746200 3.095700
1.760800 3.107000
1.775500 3.088800
1.790100 3.098200
1.804800 3.144400
1.819400 3.135500
1.834100 3.161900
1.848700 3.193700
1.863400 3.251700
1.878000 3.264700
1.892700 3.325700
1.907300 3.374900
1.922000 3.411500
1.936700 3.443000
1.951300 3.444900
1.966000 3.560600
1.980600 3.557000
1.995300 3.557500
2.009900 3.579500
2.024600 3.580700
2.039200 3.600000
2.053900 3.661200
2.068500 3.685900
2.083200 3.669300
2.097800 3.633400
2.112500 3.582700
2.127200 3.557700
2.141800 3.518600
2.156500 3.516300
2.171100 3.559100
2.185800 3.616900
2.200400 3.636700
2.215100 3.349000
2.229700 3.236700
2.244400 3.153300
2.259000 3.092000
2.273700 3.070300
2.288300 3.035200
2.303000 2.958000
2.317700 2.918200
2.332300 2.896200
2.347000 2.873400
2.361600 2.871200
2.376300 2.883900
2.390900 2.912200
2.405600 2.934700
2.420200 2.944200
2.434900 2.988800
2.449500 3.057100
2.464200 3.142500
2.478800 3.245300
2.493500 3.314600
2.508200 3.378500
2.522800 3.557900
2.537500 3.738700
2.552100 3.913300
2.566800 4.081000
2.581400 4.173400
2.596100 4.145400
2.610700 3.986200
2.625400 3.949200
2.640000 3.931300
2.654700 3.904000
2.669300 3.854900
2.684000 3.807300
2.698700 3.731600
2.713300 3.705900
2.728000 3.692100
2.742600 3.650900
2.757300 3.618000
2.771900 3.574900
2.786600 3.525600
2.801200 3.447700
2.815900 3.401300
2.830500 3.324200
2.845200 3.162800
2.859800 3.075900
2.874500 3.059500
2.889200 3.073300
2.903800 3.103400
2.918500 3.182500
2.933100 3.246100
2.947800 3.285800
2.962400 3.379500
2.977100 3.280200
2.991700 3.197600
3.006400 3.259400
3.021000 3.286100
3.035700 3.291500
3.050300 3.298400
3.065000 3.396000
3.079700 3.519400
3.094300 3.566300
3.109000 3.656700
3.123600 3.735100
3.138300 3.832300
3.152900 3.944900
3.167600 4.053100
3.182200 4.160800
3.196900 4.328000
3.211500 4.575000
3.226200 4.622800
3.240800 4.814300
3.255500 4.921800
3.270200 4.837800
3.284800 4.789100
3.299500 4.672000
3.314100 4.498400
3.328800 4.332900
3.343400 4.213700
3.358100 4.128100
3.372700 3.942800
3.387400 3.765200
3.402000 3.615100
3.416700 3.476800
3.431400 3.376400
3.446000 3.277100
3.460700 3.087700
3.475300 3.021500
3.490000 3.007100
3.504600 3.128000
3.519300 3.007400
3.533900 3.073200
3.548600 3.232900
3.563200 3.460500
3.577900 3.799100
3.592500 4.222200
3.607200 4.684800
3.621900 5.159100
3.636500 5.442000
3.651200 5.794400
3.665800 6.087800
3.680500 6.122600
3.695100 5.891700
3.709800 5.863500
3.724400 5.693600
3.739100 5.551400
3.753700 5.336500
3.768400 5.124500
3.783000 4.816600
3.797700 4.540900
3.812400 4.292700
3.827000 4.084900
3.841700 3.822800
3.856300 3.597400
3.871000 3.354300
3.885600 3.276600
3.900300 3.267500
3.914900 3.275900
3.929600 3.327300
3.944200 3.542500
3.958900 3.971800
3.973500 4.193100
3.988200 4.483200
4.002900 4.696400
4.017500 4.824300
4.032200 4.930000
4.046800 5.134000
4.061500 5.518600
4.076100 5.696800
4.090800 5.858600
4.105400 5.881400
4.120100 5.880300
4.134700 5.711800
4.149400 5.488700
4.164000 5.280600
4.178700 5.043700
4.193400 4.876200
4.208000 4.635100
4.222700 4.498700
4.237300 4.442300
4.252000 4.398300
4.266600 4.475500
4.281300 4.290400
4.295900 4.251400
4.310600 4.189100
4.325200 4.122500
4.339900 4.028800
4.354500 3.973700
4.369200 3.985800
4.383900 3.986900
4.398500 3.992900
4.413200 3.960400
4.427800 4.176400
4.442500 4.049200
4.457100 4.051300
4.471800 4.104400
4.486400 4.159800
4.501100 4.253400
4.515700 4.324500
4.530400 4.401900
4.545000 4.506800
4.559700 4.537600
4.574400 4.444700
4.589000 4.430400
4.603700 4.551500
4.618300 4.545700
4.633000 4.394000
4.647600 4.222000
4.662300 4.059700
4.676900 3.926600
4.691600 3.826400
4.706200 3.779400
4.720900 3.748100
4.735500 3.734600
4.750200 3.788900
4.764900 3.727100
4.779500 3.674500
4.794200 3.620500
4.808800 3.550500
4.823500 3.457700
4.838100 3.313600
4.852800 3.284700
4.867400 3.294200
4.882100 3.307300
4.896700 3.308400
4.911400 3.342300
4.926100 3.361900
4.940700 3.267800
4.955400 3.155500
4.970000 3.222500
4.984700 3.141000
4.999300 3.060400
5.014000 2.995900
5.028600 2.960000
5.043300 3.149400
5.057900 3.069400
5.072600 2.999300
5.087200 2.929700
5.101900 2.967200
5.116600 3.014400
5.131200 3.001600
5.145900 2.998500
5.160500 3.007200
5.175200 3.022700
5.189800 3.081200
5.204500 3.070300
5.219100 2.984700
5.233800 2.917000
5.248400 2.857100
5.263100 2.817500
5.277700 2.846700
5.292400 2.912800
5.307100 2.968900
5.321700 3.025900
5.336400 3.004700
5.351000 2.956500
5.365700 2.986200
5.380300 2.953800
5.395000 2.823000
5.409600 2.732800
5.424300 2.637000
5.438900 2.543200
5.453600 2.473600
5.468200 2.428200
5.482900 2.403900
5.497600 2.395200
5.512200 2.390200
5.526900 2.391500
5.541500 2.394500
5.556200 2.398700
5.570800 2.409000
5.585500 2.422600
5.600100 2.398800
5.614800 2.395600
5.629400 2.391000
5.644100 2.390100
5.658700 2.403300
5.673400 2.437600
5.688100 2.487400
5.702700 2.542200
5.717400 2.602800
5.732000 2.678600
5.746700 2.558300
5.761300 2.428800
5.776000 2.377800
5.790600 2.450800
5.805300 2.335900
5.819900 2.265800
5.834600 2.222900
5.849200 2.172400
5.863900 2.128900
5.878600 2.086400
5.893200 2.046000
5.907900 2.002900
5.922500 1.957900
5.937200 1.917200
5.951800 1.873500
5.966500 1.829600
5.981100 1.786400
5.995800 1.747000
6.010400 1.711800
6.025100 1.680100
6.039700 1.652700
6.054400 1.623700
6.069100 1.592200
6.083700 1.560200
6.098400 1.526800
6.113000 1.493600
6.127700 1.456900
6.142300 1.420300
6.157000 1.389100
6.171600 1.363200
6.186300 1.346400
6.200900 1.337900
6.215600 1.341500
6.230200 1.356300
6.244900 1.381000
6.259600 1.416600
6.274200 1.462800
6.288900 1.528100
6.303500 1.684100
6.318200 1.957800
6.332800 2.166200
6.347500 2.305500
6.362100 2.430900
6.376800 2.563100
6.391400 2.711900
6.406100 2.820300
6.420800 3.055900
6.435400 3.088500
6.450100 2.971000
6.464700 2.776000
6.479400 2.650300
6.494000 2.564800
6.508700 2.537800
6.523300 2.562200
6.538000 2.586900
6.552600 2.591800
6.567300 2.593000
6.581900 2.612100
6.596600 2.633300
6.611300 2.644200
6.625900 2.655300
6.640600 2.652100
6.655200 2.647900
6.669900 2.664100
6.684500 2.688000
6.699200 2.708200
6.713800 2.758700
6.728500 2.807600
6.743100 2.832700
6.757800 2.869600
6.772400 2.927700
6.787100 2.994400
6.801800 3.042000
6.816400 3.004700
6.831100 2.927500
6.845700 2.932300
6.860400 2.974700
6.875000 3.010200
6.889700 3.051100
6.904300 3.133700
6.919000 3.229400
6.933600 3.289600
6.948300 3.396900
6.962900 3.496100
6.977600 3.601400
6.992300 3.744100
7.006900 3.806700
7.021600 3.676200
7.036200 3.588400
7.050900 3.525700
7.065500 3.455700
7.080200 3.393900
7.094800 3.339200
7.109500 3.305900
7.124100 3.294500
7.138800 3.267900
7.153400 3.244500
7.168100 3.192600
7.182800 3.136100
7.197400 3.085900
7.212100 3.010000
7.226700 2.935700
7.241400 2.924800
7.256000 2.924700
7.270700 2.952600
7.285300 3.046100
7.300000 3.014600
7.314600 3.118400
7.329300 3.292100
7.343900 3.507800
7.358600 3.632300
7.373300 3.603100
7.387900 3.647100
7.402600 3.889600
7.417200 4.138700
7.431900 4.167500
7.446500 4.311100
7.461200 4.520000
7.475800 4.758300
7.490500 4.981500
7.505100 5.422000
7.519800 5.729500
7.534400 5.426400
7.549100 5.104100
7.563800 5.007000
7.578400 4.779600
7.593100 4.583500
7.607700 4.420500
7.622400 4.178600
7.637000 4.098000
7.651700 4.203400
7.666300 4.368300
7.681000 4.533100
7.695600 4.856000
7.710300 4.873400
7.724900 4.639100
7.739600 4.672900
7.754300 4.768900
7.768900 4.941400
7.783600 5.097600
7.798200 4.964800
7.812900 5.096500
7.827500 5.157600
7.842200 5.102400
7.856800 4.942200
7.871500 4.812800
7.886100 4.680900
7.900800 5.080900
7.915400 5.229500
7.930100 5.372800
7.944800 5.408800
7.959400 5.464000
7.974100 5.419600
7.988700 5.472800
8.003400 5.230000
8.018000 4.798200
8.032700 4.592400
8.047300 4.474100
8.062000 4.455900
8.076600 4.453700
8.091300 4.521600
8.106000 4.507300
8.120600 4.429800
8.135300 4.434600
8.149900 4.537200
8.164600 5.073800
8.179200 5.162800
8.193900 5.170400
8.208500 4.885900
8.223200 4.723000
8.237800 4.700700
8.252500 4.851400
8.267100 4.645100
8.281800 4.586900
8.296500 4.562700
8.311100 4.597100
8.325800 4.714300
8.340400 4.692600
8.355100 4.730600
8.369700 4.812800
8.384400 4.826400
8.399000 4.775500
8.413700 4.603800
8.428300 4.631700
8.443000 4.518900
8.457600 4.338000
8.472300 4.252400
8.487000 4.232300
8.501600 4.217900
8.516300 4.241800
8.530900 4.486100
8.545600 4.631100
8.560200 4.685200
8.574900 4.766800
8.589500 4.872000
8.604200 4.987200
8.618800 5.096800
8.633500 5.262400
8.648100 5.433100
8.662800 5.633100
8.677500 5.807400
8.692100 5.970000
8.706800 6.058100
8.721400 5.949000
8.736100 5.802800
8.750700 5.548700
8.765400 5.305900
8.780000 5.038200
8.794700 4.734500
8.809300 4.491500
8.824000 4.279300
8.838600 4.182100
8.853300 4.232600
8.868000 4.314500
8.882600 4.495800
8.897300 4.784400
8.911900 4.946200
8.926600 5.115600
8.941200 5.379000
8.955900 5.324800
8.970500 5.275100
8.985200 5.185200
8.999800 4.860000
9.014500 4.639100
9.029100 4.557800
9.043800 4.412500
9.058500 4.324700
9.073100 4.355000
9.087800 4.326900
9.102400 4.222200
9.117100 4.161700
9.131700 4.099700
9.146400 4.000900
9.161000 4.080100
9.175700 4.058600
9.190300 3.873500
9.205000 3.896000
9.219600 4.081700
9.234300 4.301600
9.249000 4.464300
9.263600 4.515200
9.278300 4.628800
9.292900 4.823200
9.307600 4.823300
9.322200 4.754600
9.336900 4.610100
9.351500 4.409200
9.366200 4.255700
9.380800 4.147300
9.395500 4.132900
9.410100 4.190000
9.424800 4.244900
9.439500 4.410500
9.454100 4.599100
9.468800 4.627800
9.483400 4.582200
9.498100 4.567200
9.512700 4.646700
9.527400 4.685900
9.542000 4.793300
9.556700 4.984600
9.571300 4.943700
9.586000 4.877300
9.600700 4.818500
9.615300 4.825600
9.630000 4.882400
9.644600 4.869400
9.659300 4.788200
9.673900 4.623900
9.688600 4.520100
9.703200 4.570700
9.717900 4.578700
9.732500 4.661500
9.747200 4.676900
9.761800 4.783300
9.776500 4.788900
9.791200 4.789500
9.805800 4.798100
9.820500 4.619400
9.835100 4.550100
9.849800 4.481000
9.864400 4.403200
9.879100 4.305500
9.893700 4.212200
9.908400 4.209900
9.923000 4.179400
9.937700 4.117700
9.952300 4.018800
9.967000 3.988100
9.981700 4.018300
9.996300 4.128700
10.011000 4.354400
10.025600 4.594300
10.040300 4.658100
10.054900 4.750000
10.069600 4.906400
10.084200 5.057400
10.098900 5.056600
10.113500 5.058900
10.128200 4.968600
10.142800 4.959500
10.157500 4.879900
10.172200 4.831700
10.186800 4.879300
10.201500 4.976400
10.216100 5.119900
10.230800 5.247100
10.245400 5.204500
10.260100 5.214700
10.274700 5.350600
10.289400 5.356300
10.304000 5.264300
10.318700 5.117100
10.333300 4.917800
10.348000 4.754100
10.362700 4.619900
10.377300 4.549700
10.392000 4.541800
10.406600 4.554800
10.421300 4.422800
10.435900 4.367900
10.450600 4.351900
10.465200 4.343200
10.479900 4.310900
10.494500 4.313200
10.509200 4.379600
10.523800 4.463400
10.538500 4.537300
10.553200 4.496900
10.567800 4.524600
10.582500 4.546900
10.597100 4.566200
10.611800 4.600800
10.626400 4.628000
10.641100 4.629700
10.655700 4.623100
10.670400 4.649400
10.685000 4.711400
10.699700 4.671600
10.714300 4.763900
10.729000 4.854900
10.743700 4.954900
10.758300 5.041800
10.773000 5.116200
10.787600 5.187300
10.802300 5.253700
10.816900 5.130800
10.831600 5.104900
10.846200 5.023500
10.860900 4.930800
10.875500 4.788000
10.890200 4.625700
10.904800 4.485400
10.919500 4.373600
10.934200 4.270000
10.948800 4.198800
10.963500 4.172000
10.978100 4.196000
10.992800 4.243200
11.007400 4.210400
11.022100 4.185000
11.036700 4.167000
11.051400 4.105900
11.066000 4.329900
11.080700 4.631700
11.095400 4.756800
11.110000 4.826000
11.124700 4.834600
11.139300 4.753800
11.154000 4.585400
11.168600 4.454100
11.183300 4.465000
11.197900 4.480000
11.212600 4.487600
11.227200 4.781300
11.241900 4.818300
11.256500 5.060300
11.271200 5.320100
11.285900 5.265100
11.300500 5.081700
11.315200 5.089300
11.329800 5.199200
11.344500 5.030000
11.359100 4.894200
11.373800 4.718800
11.388400 4.614400
11.403100 4.619500
11.417700 4.703600
11.432400 4.863300
11.447000 4.890700
11.461700 4.818800
11.476400 4.828600
11.491000 4.895400
11.505700 4.975500
11.520300 5.086800
11.535000 5.194300
11.549600 5.329300
11.564300 5.340400
11.578900 5.261100
11.593600 5.187900
11.608200 5.177500
11.622900 5.218500
11.637500 5.227700
11.652200 5.247100
11.666900 5.284800
11.681500 5.147500
11.696200 4.986000
11.710800 4.921000
11.725500 4.829300
11.740100 4.731500
11.754800 4.658800
11.769400 4.793900
11.784100 4.861300
11.798700 4.742700
11.813400 4.687500
11.828000 4.706500
11.842700 4.825000
11.857400 4.957600
11.872000 4.997700
11.886700 4.986000
11.901300 5.043300
11.916000 5.051600
11.930600 4.978500
11.945300 4.933900
11.959900 4.923400
11.974600 4.964100
11.989200 4.983300
12.003900 4.941500
12.018500 4.959500
12.033200 4.932300
12.047900 4.894300
12.062500 4.896300
12.077200 4.850500
12.091800 4.757000
12.106500 4.617500
12.121100 4.457300
12.135800 4.354000
12.150400 4.289100
12.165100 4.239600
12.179700 4.186000
12.194400 4.154100
12.209000 4.150100
12.223700 4.168600
12.238400 4.173600
12.253000 4.122400
12.267700 4.062900
12.282300 4.020100
12.297000 3.955400
12.311600 3.950800
12.326300 4.017500
12.340900 4.147300
12.355600 4.306100
12.370200 4.399000
12.384900 4.343700
12.399500 4.451700
12.414200 4.551500
12.428900 4.591300
12.443500 4.489300
12.458200 4.502000
12.472800 4.563800
12.487500 4.646700
12.502100 4.740700
12.516800 4.818000
12.531400 4.911300
12.546100 5.024000
12.560700 5.078400
12.575400 5.071500
12.590100 5.000700
12.604700 4.860200
12.619400 4.836700
12.634000 4.843300
12.648700 4.900500
12.663300 4.958500
12.678000 4.951500
12.692600 4.865400
12.707300 4.728500
12.721900 4.617800
12.736600 4.480400
12.751200 4.310200
12.765900 4.138700
12.780600 4.089700
12.795200 4.072100
12.809900 4.068600
12.824500 4.108500
12.839200 4.225400
12.853800 4.218600
12.868500 4.291000
12.883100 4.503700
12.897800 4.674400
12.912400 4.742500
12.927100 4.764000
12.941700 4.786000
12.956400 4.977100
12.971100 5.112000
12.985700 5.153900
13.000400 5.183500
13.015000 5.186400
13.029700 5.079500
13.044300 5.117000
13.059000 4.713300
13.073600 4.572400
13.088300 4.413700
13.102900 4.304300
13.117600 4.246700
13.132200 4.272800
13.146900 4.358800
13.161600 4.446200
13.176200 4.576700
13.190900 4.724700
13.205500 4.790400
13.220200 4.706600
13.234800 4.604800
13.249500 4.654200
13.264100 4.745400
13.278800 4.842300
13.293400 4.731000
13.308100 4.610200
13.322700 4.633500
13.337400 4.832700
13.352100 4.926100
13.366700 4.976000
13.381400 4.845700
13.396000 4.761400
13.410700 4.778000
13.425300 4.811000
13.440000 4.829300
13.454600 4.817700
13.469300 4.775200
13.483900 4.779700
13.498600 4.891800
13.513200 4.867200
13.527900 4.889500
13.542600 4.847600
13.557200 5.264500
13.571900 5.134600
13.586500 5.079200
13.601200 5.026600
13.615800 4.983300
13.630500 4.954300
13.645100 4.884200
13.659800 4.816400
13.674400 4.829900
13.689100 4.885200
13.703700 4.832100
13.718400 4.722400
13.733100 4.576500
13.747700 4.447000
13.762400 4.359900
13.777000 4.354400
13.791700 4.402600
13.806300 4.505000
13.821000 4.569200
13.835600 4.611100
13.850300 4.671000
13.864900 4.756500
13.879600 4.925600
13.894200 5.001300
13.908900 5.037800
13.923600 5.128300
13.938200 5.084100
13.952900 4.969700
13.967500 4.869300
13.982200 4.803700
13.996800 4.620600
14.011500 4.378500
14.026100 4.174800
14.040800 4.137000
14.055400 4.237300
14.070100 4.317000
14.084700 4.270200
14.099400 4.371000
14.114100 4.645900
14.128700 5.043600
14.143400 5.378500
14.158000 5.280000
14.172700 5.459100
14.187300 5.656300
14.202000 5.645900
14.216600 5.633800
14.231300 5.799700
14.245900 6.005800
14.260600 5.954000
14.275300 5.800400
14.289900 5.596600
14.304600 5.306200
14.319200 5.122900
14.333900 4.977300
14.348500 4.980800
14.363200 4.951400
14.377800 4.922000
14.392500 5.155900
14.407100 5.215100
14.421800 5.143100
14.436400 5.061100
14.451100 4.977500
14.465800 4.924900
14.480400 4.910900
14.495100 4.948700
14.509700 5.092600
14.524400 5.098200
14.539000 5.070000
14.553700 5.076700
14.568300 5.177100
14.583000 5.429700
14.597600 5.539600
14.612300 5.571800
14.626900 5.453100
14.641600 5.225700
14.656300 5.120900
14.670900 5.077400
14.685600 5.151900
14.700200 5.082400
14.714900 5.103000
14.729500 5.195300
14.744200 5.209600
14.758800 5.231000
14.773500 5.271800
14.788100 5.308200
14.802800 5.273700
14.817400 5.331500
14.832100 5.456000
14.846800 5.675300
14.861400 5.932800
14.876100 6.011900
14.890700 6.089200
14.905400 5.849500
14.920000 5.710500
14.934700 5.622400
14.949300 5.451700
14.964000 5.285900
14.978600 5.195100
14.993300 5.112800
15.007900 5.052500
15.022600 5.001900
15.037300 4.949400
15.051900 4.874600
15.066600 4.817100
15.081200 4.790900
15.095900 4.791700
15.110500 4.845200
15.125200 4.899900
15.139800 4.997300
15.154500 5.195800
15.169100 5.310600
15.183800 5.324400
15.198400 5.506400
15.213100 5.585000
15.227800 5.680300
15.242400 5.701100
15.257100 5.660700
15.271700 5.610700
15.286400 5.570500
15.301000 5.512400
15.315700 5.455100
15.330300 5.323100
15.345000 5.204000
15.359600 5.071800
15.374300 4.929000
15.388900 4.791000
15.403600 4.729400
15.418300 4.662000
15.432900 4.620900
15.447600 4.573400
15.462200 4.634100
15.476900 4.681000
15.491500 4.757200
15.506200 4.821400
15.520800 4.820300
15.535500 4.810600
15.550100 4.796900
15.564800 4.816400
15.579400 4.898400
15.594100 4.881100
15.608800 4.809500
15.623400 4.852200
15.638100 5.015500
15.652700 5.111900
15.667400 5.173400
15.682000 5.262200
15.696700 5.345000
15.711300 5.470300
15.726000 5.584600
15.740600 5.649800
15.755300 5.697600
15.770000 5.659700
15.784600 5.693500
15.799300 5.717600
15.813900 5.770200
15.828600 5.821700
15.843200 5.906600
15.857900 5.955800
15.872500 5.984000
15.887200 5.973100
15.901800 5.886800
15.916500 5.840900
15.931100 5.777200
15.945800 5.710200
15.960500 5.442600
15.975100 5.197200
15.989800 5.155000
16.004400 5.185700
16.019100 5.224700
16.033700 5.204800
16.048400 5.162900
16.063000 5.167100
16.077700 5.252400
16.092300 5.395800
16.107000 5.488400
16.121600 5.444600
16.136300 5.358900
16.151000 5.351900
16.165600 5.217000
16.180300 5.121300
16.194900 5.123000
16.209600 5.136100
16.224200 5.038900
16.238900 4.934800
16.253500 4.888000
16.268200 4.874100
16.282800 5.042300
16.297500 5.147600
16.312100 5.261000
16.326800 5.517900
16.341500 5.624700
16.356100 5.546700
16.370800 5.628700
16.385400 5.749400
16.400100 5.823100
16.414700 5.868100
16.429400 5.987900
16.444000 5.983100
16.458700 5.972800
16.473300 5.834100
16.488000 5.736900
16.502600 5.600500
16.517300 5.513800
16.532000 5.432600
16.546600 5.412700
16.561300 5.437900
16.575900 5.467300
16.590600 5.490500
16.605200 5.540300
16.619900 5.558000
16.634500 5.446800
16.649200 5.345800
16.663800 5.269300
16.678500 5.301200
16.693100 5.440900
16.707800 5.463500
16.722500 5.322800
16.737100 5.320400
16.751800 5.309900
16.766400 5.335800
16.781100 5.428000
16.795700 5.494200
16.810400 5.567000
16.825000 5.639200
16.839700 5.646200
16.854300 5.614600
16.869000 5.513900
16.883600 5.588800
16.898300 5.583700
16.913000 5.579100
16.927600 5.652400
16.942300 5.833000
16.956900 5.936500
16.971600 5.761800
16.986200 5.580600
17.000900 5.566200
17.015500 5.528500
17.030200 5.462900
17.044800 5.479600
17.059500 5.098300
17.074100 5.037200
17.088800 5.156200
17.103500 5.190700
17.118100 5.232900
17.132800 5.322800
17.147400 5.432900
17.162100 5.578400
17.176700 5.965800
17.191400 6.522500
17.206000 6.470400
17.220700 6.431900
17.235300 6.400900
17.250000 6.233400
17.264700 6.114200
17.279300 6.011600
17.294000 5.654300
17.308600 5.463100
17.323300 5.318100
17.337900 5.223700
17.352600 5.113900
17.367200 5.075600
17.381900 5.036400
17.396500 4.985800
17.411200 5.030200
17.425800 5.222300
17.440500 5.477400
17.455200 5.674000
17.469800 5.904400
17.484500 6.082000
17.499100 6.232500
17.513800 6.409200
17.528400 6.424900
17.543100 6.555400
17.557700 6.673300
17.572400 6.714800
17.587000 6.658100
17.601700 6.598500
17.616300 6.579900
17.631000 6.514500
17.645700 6.199000
17.660300 5.854800
17.675000 5.504100
17.689600 5.253300
17.704300 5.081000
17.718900 5.013600
17.733600 5.042600
17.748200 5.135200
17.762900 5.261600
17.777500 5.284300
17.792200 5.388000
17.806800 5.509500
17.821500 5.636700
17.836200 5.749700
17.850800 5.765700
17.865500 5.828200
17.880100 5.855400
17.894800 5.844800
17.909400 5.801800
17.924100 5.663100
17.938700 5.493500
17.953400 5.333800
17.968000 5.324100
17.982700 5.425300
17.997300 5.506400
18.012000 5.560400
18.026700 5.468100
18.041300 5.303900
18.056000 5.000000
18.070600 4.742300
18.085300 4.775700
18.099900 4.917800
18.114600 5.135700
18.129200 5.307400
18.143900 5.439200
18.158500 5.499100
18.173200 5.573800
18.187800 5.600200
18.202500 5.513800
18.217200 5.440900
18.231800 5.712000
18.246500 6.074200
18.261100 6.296400
18.275800 6.223700
18.290400 5.789500
18.305100 5.596600
18.319700 5.499300
18.334400 5.403500
18.349000 5.409200
18.363700 5.531300
18.378300 5.688200
18.393000 5.740800
18.407700 5.488700
18.422300 5.475100
18.437000 5.367700
18.451600 5.228900
18.466300 5.286200
18.480900 5.360800
18.495600 5.373200
18.510200 5.460600
18.524900 5.589500
18.539500 5.682300
18.554200 5.763000
18.568800 5.780100
18.583500 5.776200
18.598200 5.548500
18.612800 5.467700
18.627500 5.480400
18.642100 5.694400
18.656800 5.877900
18.671400 6.103200
18.686100 6.229600
18.700700 6.347000
18.715400 6.341000
18.730000 6.221100
18.744700 6.094200
18.759300 5.953800
18.774000 5.897200
18.788700 5.936300
18.803300 5.976800
18.818000 6.034800
18.832600 6.019300
18.847300 5.804400
18.861900 5.884900
18.876600 5.690500
18.891200 5.420600
18.905900 5.334000
18.920500 5.233400
18.935200 5.229200
18.949900 5.332100
18.964500 5.177800
18.979200 5.058400
18.993800 4.933800
19.008500 4.877500
19.023100 4.843200
19.037800 4.839400
19.052400 4.904000
19.067100 4.970000
19.081700 5.038300
19.096400 5.082000
19.111000 5.279400
19.125700 5.176800
19.140400 5.285200
19.155000 5.361200
19.169700 5.521800
19.184300 5.542100
19.199000 5.217900
19.213600 4.910800
19.228300 4.738900
19.242900 4.564800
19.257600 4.364300
19.272200 4.140600
19.286900 3.932000
19.301500 3.766200
19.316200 3.614500
19.330900 3.392900
19.345500 3.314800
19.360200 3.395800
19.374800 3.457100
19.389500 3.457600
19.404100 3.513000
19.418800 2.801600
19.433400 2.616700
19.448100 2.644500
19.462700 2.520000
19.477400 2.198900
19.492000 1.917900
19.506700 1.674900
19.521400 1.479100
19.536000 1.312100
19.550700 1.148800
19.565300 0.993800
19.580000 0.887900
19.594600 0.798400
19.609300 0.720900
19.623900 0.645000
19.638600 0.567400
19.653200 0.494800
19.667900 0.429400
19.682500 0.368700
19.697200 0.311400
19.711900 0.253100
19.726500 0.195900
19.741200 0.149700
19.755800 0.109100
19.770500 0.072600
19.785100 0.047000
19.799800 0.034500
19.814400 0.025500
19.829100 0.017800
19.843700 0.011500
19.858400 0.006600
19.873000 0.003000
19.887700 0.000800
19.902400 0.000000
19.917000 0.000000
19.931700 0.000000
19.946300 0.000000
19.961000 0.000000
19.975600 0.000000
19.990300 0.000000
20.004900 0.000000
20.019600 0.000000
20.034200 0.000000
20.048900 0.000000
20.063500 0.000000
20.078200 0.000000
20.092900 0.000000
20.107500 0.000000
20.122200 0.000000
20.136800 0.000000
20.151500 0.000000
20.166100 0.000000
20.180800 0.000000
20.195400 0.000000
20.210100 0.000000
20.224700 0.000000
20.239400 0.000000
20.254000 0.000000
20.268700 0.000000
20.283400 0.000000
20.298000 0.000000
20.312700 0.000000
20.327300 0.000000
20.342000 0.000000
20.356600 0.000000
20.371300 0.000000
20.385900 0.000000
20.400600 0.000000
20.415200 0.000000
20.429900 0.000000
20.444600 0.000000
20.459200 0.000000
20.473900 0.000000
20.488500 0.000000
20.503200 0.000000
20.517800 0.000000
20.532500 0.000000
20.547100 0.000000
20.561800 0.000000
20.576400 0.000000
20.591100 0.000000
20.605700 0.000000
20.620400 0.000000
20.635100 0.000000
20.649700 0.000000
20.664400 0.000000
20.679000 0.000000
20.693700 0.000000
20.708300 0.000000
20.723000 0.000000
20.737600 0.000000
20.752300 0.000000
20.766900 0.000000
20.781600 0.000000
20.796200 0.000000
20.810900 0.000000
20.825600 0.000000
20.840200 0.000000
20.854900 0.000000
20.869500 0.000000
20.884200 0.000000
20.898800 0.000000
20.913500 0.000000
20.928100 0.000000
20.942800 0.000000
20.957400 0.000000
20.972100 0.000000
20.986700 0.000000
21.001400 0.000000
21.016100 0.000000
21.030700 0.000000
21.045400 0.000000
21.060000 0.000000
21.074700 0.000000
21.089300 0.000000
21.104000 0.000000
21.118600 0.000000
21.133300 0.000000
21.147900 0.000000
21.162600 0.000000
21.177200 0.000000
21.191900 0.000000
21.206600 0.000000
21.221200 0.000000
21.235900 0.000000
e
