set title 'mp-1228819 - Density of States'
set xlabel 'Energy (eV)'
set ylabel 'DOS (states/eV)'
set grid
set xrange [-10:10]
set yrange [0:7.107]
set xzeroaxis lt -1
set terminal png size 800,600
set output 'mp-1228819_dos_gnuplot.png'
plot '-' using 1:2 with lines title 'DOS'
-11.588700 0.000000
-11.569800 0.000000
-11.550800 0.000000
-11.531900 0.000000
-11.512900 0.000000
-11.494000 0.000000
-11.475000 0.000000
-11.456100 0.000000
-11.437100 0.000000
-11.418200 0.000000
-11.399200 0.000000
-11.380300 0.000000
-11.361400 0.000000
-11.342400 0.000000
-11.323500 0.000000
-11.304500 0.000000
-11.285600 0.000000
-11.266600 0.000000
-11.247700 0.000000
-11.228700 0.000000
-11.209800 0.000000
-11.190900 0.000000
-11.171900 0.000000
-11.153000 0.000000
-11.134000 0.000000
-11.115100 0.000000
-11.096100 0.000000
-11.077200 0.000000
-11.058200 0.000000
-11.039300 0.000000
-11.020300 0.000000
-11.001400 0.000000
-10.982500 0.000000
-10.963500 0.000000
-10.944600 0.000000
-10.925600 0.000000
-10.906700 0.000000
-10.887700 0.000000
-10.868800 0.000000
-10.849800 0.000000
-10.830900 0.000000
-10.812000 0.000000
-10.793000 0.000000
-10.774100 0.000000
-10.755100 0.000000
-10.736200 0.000000
-10.717200 0.000000
-10.698300 0.000000
-10.679300 0.000000
-10.660400 0.000000
-10.641400 0.000000
-10.622500 0.000000
-10.603600 0.000000
-10.584600 0.000000
-10.565700 0.000000
-10.546700 0.000000
-10.527800 0.000000
-10.508800 0.000000
-10.489900 0.000000
-10.470900 0.000000
-10.452000 0.000000
-10.433000 0.000000
-10.414100 0.000000
-10.395200 0.000000
-10.376200 0.000000
-10.357300 0.000000
-10.338300 0.000000
-10.319400 0.000000
-10.300400 0.000000
-10.281500 0.000000
-10.262500 0.000000
-10.243600 0.000000
-10.224700 0.000000
-10.205700 0.000000
-10.186800 0.000000
-10.167800 0.000000
-10.148900 0.000000
-10.129900 0.000000
-10.111000 0.000000
-10.092000 0.000000
-10.073100 0.000000
-10.054100 0.000000
-10.035200 0.000000
-10.016300 0.000000
-9.997300 0.000000
-9.978400 0.000300
-9.959400 0.001500
-9.940500 0.006200
-9.921500 0.019000
-9.902600 0.045200
-9.883600 0.084600
-9.864700 0.130300
-9.845700 0.179400
-9.826800 0.243300
-9.807900 0.333200
-9.788900 0.430600
-9.770000 0.487800
-9.751000 0.473300
-9.732100 0.408900
-9.713100 0.358600
-9.694200 0.379300
-9.675200 0.478500
-9.656300 0.617100
-9.637400 0.747800
-9.618400 0.840600
-9.599500 0.875000
-9.580500 0.838000
-9.561600 0.743800
-9.542600 0.642200
-9.523700 0.588200
-9.504700 0.593500
-9.485800 0.623000
-9.466800 0.651400
-9.447900 0.708600
-9.429000 0.838300
-9.410000 1.018700
-9.391100 1.160700
-9.372100 1.203500
-9.353200 1.177600
-9.334200 1.148200
-9.315300 1.135500
-9.296300 1.113200
-9.277400 1.052400
-9.258400 0.949600
-9.239500 0.835000
-9.220600 0.756800
-9.201600 0.755700
-9.182700 0.854700
-9.163700 1.047000
-9.144800 1.273100
-9.125800 1.444200
-9.106900 1.510100
-9.087900 1.490100
-9.069000 1.445500
-9.050100 1.434100
-9.031100 1.461900
-9.012200 1.476100
-8.993200 1.433500
-8.974300 1.361200
-8.955300 1.308800
-8.936400 1.279000
-8.917400 1.254300
-8.898500 1.249700
-8.879500 1.293800
-8.860600 1.385400
-8.841700 1.501000
-8.822700 1.631800
-8.803800 1.787100
-8.784800 1.955300
-8.765900 2.089200
-8.746900 2.139400
-8.728000 2.092200
-8.709000 1.987300
-8.690100 1.891700
-8.671200 1.826800
-8.652200 1.749600
-8.633300 1.646400
-8.614300 1.595000
-8.595400 1.689800
-8.576400 1.931900
-8.557500 2.215100
-8.538500 2.409300
-8.519600 2.468800
-8.500600 2.477500
-8.481700 2.561100
-8.462800 2.750100
-8.443800 2.960100
-8.424900 3.097000
-8.405900 3.133800
-8.387000 3.092600
-8.368000 3.005700
-8.349100 2.915200
-8.330100 2.874900
-8.311200 2.901200
-8.292200 2.918300
-8.273300 2.796200
-8.254400 2.473400
-8.235400 2.044300
-8.216500 1.730800
-8.197500 1.748900
-8.178600 2.151200
-8.159600 2.779600
-8.140700 3.391300
-8.121700 3.845500
-8.102800 4.174600
-8.083900 4.444100
-8.064900 4.556100
-8.046000 4.308800
-8.027000 3.698300
-8.008100 3.032300
-7.989100 2.658600
-7.970200 2.660700
-7.951200 2.859600
-7.932300 3.028800
-7.913300 3.048700
-7.894400 2.909700
-7.875500 2.657400
-7.856500 2.357200
-7.837600 2.073500
-7.818600 1.861500
-7.799700 1.764200
-7.780700 1.778700
-7.761800 1.824800
-7.742800 1.785200
-7.723900 1.591600
-7.704900 1.289100
-7.686000 1.023300
-7.667100 0.926800
-7.648100 0.988300
-7.629200 1.057400
-7.610200 1.002800
-7.591300 0.843600
-7.572300 0.712500
-7.553400 0.723500
-7.534400 0.885300
-7.515500 1.104700
-7.496600 1.244700
-7.477600 1.209900
-7.458700 1.023500
-7.439700 0.828100
-7.420800 0.794600
-7.401800 1.001600
-7.382900 1.366600
-7.363900 1.680900
-7.345000 1.749400
-7.326000 1.547200
-7.307100 1.247900
-7.288200 1.069900
-7.269200 1.089900
-7.250300 1.207300
-7.231300 1.260100
-7.212400 1.169000
-7.193400 0.992000
-7.174500 0.849900
-7.155500 0.819300
-7.136600 0.901900
-7.117600 1.052300
-7.098700 1.192600
-7.079800 1.238500
-7.060800 1.162700
-7.041900 1.023900
-7.022900 0.909100
-7.004000 0.851300
-6.985000 0.818900
-6.966100 0.777000
-6.947100 0.730700
-6.928200 0.705200
-6.909300 0.710400
-6.890300 0.726600
-6.871400 0.717000
-6.852400 0.672400
-6.833500 0.637800
-6.814500 0.658300
-6.795600 0.724200
-6.776600 0.813100
-6.757700 0.939400
-6.738700 1.097100
-6.719800 1.193000
-6.700900 1.117200
-6.681900 0.879800
-6.663000 0.625200
-6.644000 0.505100
-6.625100 0.565800
-6.606100 0.745600
-6.587200 0.935700
-6.568200 1.051300
-6.549300 1.088200
-6.530400 1.107900
-6.511400 1.142600
-6.492500 1.146500
-6.473500 1.073000
-6.454600 0.967200
-6.435600 0.953900
-6.416700 1.125500
-6.397700 1.425300
-6.378800 1.652500
-6.359800 1.627900
-6.340900 1.350600
-6.322000 0.976600
-6.303000 0.688100
-6.284100 0.607000
-6.265100 0.755100
-6.246200 1.036000
-6.227200 1.305900
-6.208300 1.499300
-6.189300 1.640900
-6.170400 1.732800
-6.151400 1.713500
-6.132500 1.548500
-6.113600 1.298700
-6.094600 1.079500
-6.075700 0.977800
-6.056700 1.004400
-6.037800 1.103500
-6.018800 1.208400
-5.999900 1.288100
-5.980900 1.341500
-5.962000 1.364000
-5.943100 1.344100
-5.924100 1.301900
-5.905200 1.316500
-5.886200 1.479900
-5.867300 1.813300
-5.848300 2.254700
-5.829400 2.715100
-5.810400 3.102700
-5.791500 3.308600
-5.772500 3.258800
-5.753600 3.021300
-5.734700 2.825200
-5.715700 2.944000
-5.696800 3.507900
-5.677800 4.345500
-5.658900 5.023700
-5.639900 5.159100
-5.621000 4.720900
-5.602000 3.994700
-5.583100 3.308000
-5.564100 2.863600
-5.545200 2.769300
-5.526300 3.089200
-5.507300 3.766600
-5.488400 4.500900
-5.469400 4.858500
-5.450500 4.644200
-5.431500 4.088100
-5.412600 3.593100
-5.393600 3.393600
-5.374700 3.469500
-5.355800 3.634100
-5.336800 3.674200
-5.317900 3.524800
-5.298900 3.324100
-5.280000 3.259000
-5.261000 3.381200
-5.242100 3.551900
-5.223100 3.529000
-5.204200 3.175000
-5.185200 2.606600
-5.166300 2.073600
-5.147400 1.726500
-5.128400 1.585300
-5.109500 1.663000
-5.090500 1.984300
-5.071600 2.477900
-5.052600 2.937500
-5.033700 3.152500
-5.014700 3.071700
-4.995800 2.817900
-4.976800 2.582700
-4.957900 2.525100
-4.939000 2.693800
-4.920000 2.983900
-4.901100 3.200200
-4.882100 3.200100
-4.863200 2.984700
-4.844200 2.667600
-4.825300 2.361600
-4.806300 2.098700
-4.787400 1.860700
-4.768500 1.649300
-4.749500 1.492800
-4.730600 1.414200
-4.711600 1.417000
-4.692700 1.482300
-4.673700 1.581900
-4.654800 1.707800
-4.635800 1.876600
-4.616900 2.093000
-4.597900 2.296200
-4.579000 2.341500
-4.560100 2.097700
-4.541100 1.606800
-4.522200 1.080500
-4.503200 0.701400
-4.484300 0.495300
-4.465300 0.409300
-4.446400 0.425100
-4.427400 0.549400
-4.408500 0.741000
-4.389600 0.906800
-4.370600 0.972600
-4.351700 0.925500
-4.332700 0.806500
-4.313800 0.698800
-4.294800 0.686400
-4.275900 0.770200
-4.256900 0.849000
-4.238000 0.826600
-4.219000 0.725600
-4.200100 0.668900
-4.181200 0.759700
-4.162200 0.998500
-4.143300 1.303700
-4.124300 1.569300
-4.105400 1.693100
-4.086400 1.617500
-4.067500 1.384100
-4.048500 1.112800
-4.029600 0.904800
-4.010600 0.795600
-3.991700 0.789300
-3.972800 0.876700
-3.953800 1.006500
-3.934900 1.092900
-3.915900 1.090800
-3.897000 1.022900
-3.878000 0.920700
-3.859100 0.798800
-3.840100 0.694700
-3.821200 0.663300
-3.802300 0.710100
-3.783300 0.770000
-3.764400 0.770200
-3.745400 0.693200
-3.726500 0.583300
-3.707500 0.519200
-3.688600 0.568300
-3.669600 0.741600
-3.650700 0.982500
-3.631700 1.189100
-3.612800 1.260600
-3.593900 1.167900
-3.574900 0.991100
-3.556000 0.862200
-3.537000 0.872800
-3.518100 1.052900
-3.499100 1.392100
-3.480200 1.822900
-3.461200 2.192700
-3.442300 2.328200
-3.423300 2.201100
-3.404400 2.013700
-3.385500 2.018300
-3.366500 2.228200
-3.347600 2.413700
-3.328600 2.400500
-3.309700 2.255500
-3.290700 2.138000
-3.271800 2.072700
-3.252800 1.948500
-3.233900 1.704400
-3.215000 1.428800
-3.196000 1.247000
-3.177100 1.185900
-3.158100 1.210800
-3.139200 1.331800
-3.120200 1.572100
-3.101300 1.831100
-3.082300 1.893900
-3.063400 1.661000
-3.044400 1.309300
-3.025500 1.136100
-3.006600 1.270100
-2.987600 1.591700
-2.968700 1.896900
-2.949700 2.067300
-2.930800 2.089800
-2.911800 2.002200
-2.892900 1.852100
-2.873900 1.656000
-2.855000 1.387300
-2.836000 1.042300
-2.817100 0.700500
-2.798200 0.475300
-2.779200 0.429000
-2.760300 0.564900
-2.741300 0.851900
-2.722400 1.188900
-2.703400 1.389800
-2.684500 1.309200
-2.665500 0.997000
-2.646600 0.653400
-2.627700 0.432100
-2.608700 0.341600
-2.589800 0.313900
-2.570800 0.295900
-2.551900 0.274200
-2.532900 0.254500
-2.514000 0.234100
-2.495000 0.197400
-2.476100 0.139400
-2.457100 0.077900
-2.438200 0.033500
-2.419300 0.011000
-2.400300 0.002700
-2.381400 0.000500
-2.362400 0.000100
-2.343500 0.000000
-2.324500 0.000000
-2.305600 0.000000
-2.286600 0.000000
-2.267700 0.000000
-2.248800 0.000000
-2.229800 0.000000
-2.210900 0.000000
-2.191900 0.000000
-2.173000 0.000000
-2.154000 0.000000
-2.135100 0.000000
-2.116100 0.000000
-2.097200 0.000000
-2.078200 0.000000
-2.059300 0.000000
-2.040400 0.000000
-2.021400 0.000000
-2.002500 0.000000
-1.983500 0.000000
-1.964600 0.000000
-1.945600 0.000000
-1.926700 0.000000
-1.907700 0.000000
-1.888800 0.000000
-1.869800 0.000000
-1.850900 0.000000
-1.832000 0.000000
-1.813000 0.000000
-1.794100 0.000000
-1.775100 0.000000
-1.756200 0.000000
-1.737200 0.000000
-1.718300 0.000000
-1.699300 0.000000
-1.680400 0.000000
-1.661500 0.000000
-1.642500 0.000000
-1.623600 0.000000
-1.604600 0.000000
-1.585700 0.000000
-1.566700 0.000000
-1.547800 0.000000
-1.528800 0.000000
-1.509900 0.000000
-1.490900 0.000000
-1.472000 0.000000
-1.453100 0.000000
-1.434100 0.000000
-1.415200 0.000000
-1.396200 0.000000
-1.377300 0.000000
-1.358300 0.000000
-1.339400 0.000000
-1.320400 0.000000
-1.301500 0.000000
-1.282500 0.000000
-1.263600 0.000000
-1.244700 0.000000
-1.225700 0.000000
-1.206800 0.000000
-1.187800 0.000000
-1.168900 0.000000
-1.149900 0.000000
-1.131000 0.000000
-1.112000 0.000000
-1.093100 0.000000
-1.074200 0.000000
-1.055200 0.000000
-1.036300 0.000000
-1.017300 0.000000
-0.998400 0.000000
-0.979400 0.000000
-0.960500 0.000000
-0.941500 0.000000
-0.922600 0.000000
-0.903600 0.000000
-0.884700 0.000000
-0.865800 0.000000
-0.846800 0.000000
-0.827900 0.000000
-0.808900 0.000000
-0.790000 0.000200
-0.771000 0.001400
-0.752100 0.007600
-0.733100 0.031800
-0.714200 0.102700
-0.695200 0.259400
-0.676300 0.519400
-0.657400 0.846300
-0.638400 1.171800
-0.619500 1.462600
-0.600500 1.723800
-0.581600 1.921700
-0.562600 1.982700
-0.543700 1.917400
-0.524700 1.882100
-0.505800 2.070600
-0.486900 2.576700
-0.467900 3.349100
-0.449000 4.192400
-0.430000 4.802800
-0.411100 4.929800
-0.392100 4.602800
-0.373200 4.158800
-0.354200 3.961400
-0.335300 4.068100
-0.316300 4.200500
-0.297400 4.057500
-0.278500 3.613100
-0.259500 3.083200
-0.240600 2.677100
-0.221600 2.450300
-0.202700 2.357100
-0.183700 2.367600
-0.164800 2.507800
-0.145800 2.804800
-0.126900 3.216000
-0.108000 3.634900
-0.089000 3.958700
-0.070100 4.117300
-0.051100 4.055900
-0.032200 3.761800
-0.013200 3.340800
0.005700 3.004900
0.024700 2.925600
0.043600 3.112000
0.062600 3.437900
0.081500 3.736300
0.100400 3.874800
0.119400 3.824600
0.138300 3.671800
0.157300 3.512500
0.176200 3.351900
0.195200 3.140800
0.214100 2.879200
0.233100 2.648900
0.252000 2.572600
0.271000 2.739000
0.289900 3.106100
0.308800 3.484300
0.327800 3.688400
0.346700 3.695800
0.365700 3.623800
0.384600 3.596200
0.403600 3.654600
0.422500 3.753400
0.441500 3.807900
0.460400 3.745600
0.479300 3.559300
0.498300 3.357500
0.517200 3.298400
0.536200 3.380200
0.555100 3.374200
0.574100 3.087300
0.593000 2.638500
0.612000 2.360100
0.630900 2.464300
0.649900 2.885800
0.668800 3.406200
0.687700 3.832500
0.706700 4.050500
0.725600 3.989200
0.744600 3.630500
0.763500 3.078300
0.782500 2.558600
0.801400 2.287100
0.820400 2.333600
0.839300 2.625100
0.858300 3.045700
0.877200 3.501900
0.896100 3.916300
0.915100 4.215600
0.934000 4.353700
0.953000 4.333400
0.971900 4.186100
0.990900 3.931900
1.009800 3.579600
1.028800 3.171600
1.047700 2.805400
1.066600 2.587900
1.085600 2.564300
1.104500 2.696700
1.123500 2.921300
1.142400 3.205600
1.161400 3.519200
1.180300 3.783300
1.199300 3.930400
1.218200 3.999700
1.237200 4.076000
1.256100 4.136800
1.275000 4.061200
1.294000 3.787900
1.312900 3.394400
1.331900 3.030100
1.350800 2.792700
1.369800 2.652200
1.388700 2.505100
1.407700 2.320100
1.426600 2.210400
1.445600 2.332500
1.464500 2.712700
1.483400 3.191300
1.502400 3.539100
1.521300 3.628500
1.540300 3.509400
1.559200 3.327500
1.578200 3.174300
1.597100 3.044600
1.616100 2.932000
1.635000 2.881400
1.653900 2.898600
1.672900 2.884300
1.691800 2.742700
1.710800 2.512900
1.729700 2.327100
1.748700 2.287600
1.767600 2.422100
1.786600 2.684100
1.805500 2.945400
1.824500 3.060300
1.843400 3.003500
1.862300 2.903200
1.881300 2.907400
1.900200 3.064100
1.919200 3.335000
1.938100 3.676800
1.957100 4.085200
1.976000 4.554600
1.995000 5.006200
2.013900 5.292800
2.032800 5.290400
2.051800 4.977200
2.070700 4.433400
2.089700 3.805300
2.108600 3.279200
2.127600 3.019400
2.146500 3.057100
2.165500 3.253800
2.184400 3.420900
2.203400 3.477800
2.222300 3.468700
2.241200 3.434300
2.260200 3.341000
2.279100 3.180700
2.298100 3.066600
2.317000 3.145300
2.336000 3.428000
2.354900 3.762000
2.373900 3.961900
2.392800 3.935700
2.411800 3.712500
2.430700 3.404400
2.449600 3.136600
2.468600 2.983100
2.487500 2.971700
2.506500 3.113100
2.525400 3.384900
2.544400 3.748600
2.563300 4.198400
2.582300 4.690400
2.601200 5.043300
2.620100 5.069900
2.639100 4.792800
2.658000 4.425700
2.677000 4.221000
2.695900 4.385700
2.714900 4.963200
2.733800 5.701300
2.752800 6.159100
2.771700 6.048700
2.790700 5.461000
2.809600 4.733300
2.828500 4.135600
2.847500 3.741000
2.866400 3.535300
2.885400 3.514500
2.904300 3.630100
2.923300 3.726700
2.942200 3.635000
2.961200 3.350900
2.980100 3.081700
2.999100 3.066800
3.018000 3.336300
3.036900 3.672500
3.055900 3.833600
3.074800 3.792700
3.093800 3.726600
3.112700 3.812400
3.131700 4.079000
3.150600 4.412000
3.169600 4.646900
3.188500 4.663200
3.207400 4.429600
3.226400 4.000600
3.245300 3.493800
3.264300 3.067100
3.283200 2.869400
3.302200 2.954800
3.321100 3.251000
3.340100 3.639400
3.359000 4.047500
3.378000 4.435800
3.396900 4.740200
3.415800 4.892400
3.434800 4.868700
3.453700 4.657400
3.472700 4.242700
3.491600 3.713700
3.510600 3.334200
3.529500 3.406700
3.548500 4.032400
3.567400 4.991800
3.586400 5.846300
3.605300 6.189700
3.624200 5.888800
3.643200 5.150300
3.662100 4.350500
3.681100 3.783800
3.700000 3.525200
3.719000 3.443100
3.737900 3.348200
3.756900 3.196100
3.775800 3.124700
3.794700 3.275100
3.813700 3.650600
3.832600 4.167200
3.851600 4.722900
3.870500 5.154400
3.889500 5.264800
3.908400 5.006300
3.927400 4.535000
3.946300 4.014100
3.965300 3.469400
3.984200 2.888200
4.003100 2.339800
4.022100 1.921900
4.041000 1.669100
4.060000 1.582800
4.078900 1.669900
4.097900 1.885000
4.116800 2.115700
4.135800 2.289600
4.154700 2.434300
4.173600 2.584600
4.192600 2.683300
4.211500 2.646700
4.230500 2.508400
4.249400 2.410700
4.268400 2.456500
4.287300 2.638800
4.306300 2.880300
4.325200 3.081800
4.344200 3.186000
4.363100 3.237100
4.382000 3.316800
4.401000 3.410600
4.419900 3.421200
4.438900 3.333500
4.457800 3.275400
4.476800 3.353900
4.495700 3.478500
4.514700 3.440300
4.533600 3.144300
4.552600 2.672200
4.571500 2.144600
4.590400 1.650700
4.609400 1.297800
4.628300 1.195100
4.647300 1.358500
4.666200 1.701300
4.685200 2.123500
4.704100 2.570300
4.723100 3.003600
4.742000 3.325900
4.760900 3.386400
4.779900 3.132500
4.798800 2.713500
4.817800 2.356400
4.836700 2.164300
4.855700 2.058500
4.874600 1.890400
4.893600 1.600400
4.912500 1.273500
4.931500 1.048200
4.950400 0.980000
4.969300 0.998600
4.988300 1.005500
5.007200 0.991400
5.026200 1.033400
5.045100 1.204100
5.064100 1.502500
5.083000 1.849300
5.102000 2.133700
5.120900 2.285300
5.139900 2.327500
5.158800 2.361200
5.177700 2.470700
5.196700 2.644000
5.215600 2.791800
5.234600 2.814100
5.253500 2.643100
5.272500 2.284400
5.291400 1.865300
5.310400 1.605100
5.329300 1.670300
5.348200 2.030000
5.367200 2.466300
5.386100 2.718700
5.405100 2.636800
5.424000 2.270200
5.443000 1.833800
5.461900 1.541500
5.480900 1.472800
5.499800 1.591700
5.518800 1.814100
5.537700 2.021000
5.556600 2.079400
5.575600 1.929200
5.594500 1.647400
5.613500 1.386400
5.632400 1.261800
5.651400 1.329600
5.670300 1.595800
5.689300 1.959900
5.708200 2.220700
5.727200 2.240300
5.746100 2.060000
5.765000 1.822100
5.784000 1.647300
5.802900 1.587400
5.821900 1.609700
5.840800 1.622800
5.859800 1.577600
5.878700 1.530700
5.897700 1.564600
5.916600 1.667000
5.935500 1.715200
5.954500 1.591400
5.973400 1.319600
5.992400 1.062800
6.011300 0.968900
6.030300 1.055400
6.049200 1.247600
6.068200 1.478700
6.087100 1.735700
6.106100 2.033000
6.125000 2.335100
6.143900 2.512800
6.162900 2.438000
6.181800 2.142300
6.200800 1.851300
6.219700 1.844900
6.238700 2.234100
6.257600 2.812800
6.276600 3.180700
6.295500 3.093200
6.314400 2.656900
6.333400 2.148700
6.352300 1.729000
6.371300 1.389400
6.390200 1.109900
6.409200 0.949500
6.428100 0.947300
6.447100 1.018300
6.466000 1.039900
6.485000 1.011400
6.503900 1.047300
6.522800 1.230400
6.541800 1.532100
6.560700 1.853100
6.579700 2.098800
6.598600 2.234900
6.617600 2.295000
6.636500 2.341400
6.655500 2.425300
6.674400 2.546900
6.693400 2.616300
6.712300 2.517200
6.731200 2.263300
6.750200 2.030200
6.769100 1.982600
6.788100 2.106000
6.807000 2.256000
6.826000 2.350800
6.844900 2.445300
6.863900 2.625000
6.882800 2.892700
6.901700 3.179700
6.920700 3.416300
6.939600 3.543500
6.958600 3.498000
6.977500 3.263300
6.996500 2.944000
7.015400 2.730400
7.034400 2.748200
7.053300 2.954600
7.072300 3.206500
7.091200 3.401100
7.110100 3.507500
7.129100 3.507100
7.148000 3.401600
7.167000 3.263700
7.185900 3.205400
7.204900 3.314100
7.223800 3.619800
7.242800 4.042000
7.261700 4.365500
7.280700 4.378200
7.299600 4.094200
7.318500 3.793200
7.337500 3.767400
7.356400 4.002200
7.375400 4.148000
7.394300 3.857900
7.413300 3.134700
7.432200 2.323800
7.451200 1.821700
7.470100 1.823700
7.489000 2.252000
7.508000 2.827000
7.526900 3.250600
7.545900 3.394800
7.564800 3.319400
7.583800 3.140200
7.602700 2.934500
7.621700 2.742800
7.640600 2.583000
7.659600 2.470900
7.678500 2.467200
7.697400 2.661500
7.716400 3.056800
7.735300 3.493300
7.754300 3.759000
7.773200 3.814300
7.792200 3.848700
7.811100 4.063900
7.830100 4.470700
7.849000 4.942900
7.868000 5.337700
7.886900 5.492200
7.905800 5.256700
7.924800 4.645400
7.943700 3.881800
7.962700 3.258600
7.981600 2.963700
8.000600 2.983600
8.019500 3.149700
8.038500 3.329300
8.057400 3.538200
8.076300 3.829000
8.095300 4.175000
8.114200 4.504900
8.133200 4.768100
8.152100 4.951200
8.171100 5.048300
8.190000 5.030300
8.209000 4.893700
8.227900 4.732600
8.246900 4.698700
8.265800 4.891000
8.284700 5.291800
8.303700 5.770000
8.322600 6.162100
8.341600 6.388000
8.360500 6.461200
8.379500 6.381800
8.398400 6.108200
8.417400 5.661000
8.436300 5.159300
8.455200 4.716300
8.474200 4.370800
8.493100 4.118500
8.512100 3.940300
8.531000 3.821700
8.550000 3.794700
8.568900 3.919500
8.587900 4.185400
8.606800 4.472200
8.625800 4.648600
8.644700 4.687800
8.663600 4.648800
8.682600 4.597800
8.701500 4.621000
8.720500 4.842800
8.739400 5.292000
8.758400 5.757500
8.777300 5.891100
8.796300 5.509100
8.815200 4.761900
8.834200 3.983000
8.853100 3.405200
8.872000 3.048900
8.891000 2.819900
8.909900 2.643700
8.928900 2.529900
8.947800 2.528700
8.966800 2.614100
8.985700 2.665900
9.004700 2.608600
9.023600 2.495200
9.042500 2.427600
9.061500 2.466000
9.080400 2.610900
9.099400 2.806500
9.118300 2.967000
9.137300 3.025400
9.156200 2.950000
9.175200 2.734400
9.194100 2.416800
9.213100 2.118500
9.232000 2.001100
9.250900 2.110000
9.269900 2.295900
9.288800 2.373800
9.307800 2.325300
9.326700 2.269600
9.345700 2.286200
9.364600 2.352100
9.383600 2.444900
9.402500 2.632200
9.421500 3.008000
9.440400 3.536200
9.459300 3.993300
9.478300 4.137700
9.497200 3.983100
9.516200 3.841700
9.535100 4.001000
9.554100 4.385400
9.573000 4.642300
9.592000 4.556600
9.610900 4.258400
9.629800 4.030000
9.648800 4.047200
9.667700 4.306100
9.686700 4.636500
9.705600 4.771400
9.724600 4.551900
9.743500 4.100800
9.762500 3.704400
9.781400 3.518300
9.800400 3.456200
9.819300 3.334900
9.838200 3.044300
9.857200 2.600000
9.876100 2.128500
9.895100 1.796000
9.914000 1.668300
9.933000 1.648800
9.951900 1.616100
9.970900 1.565500
9.989800 1.554200
10.008800 1.589200
10.027700 1.635400
10.046600 1.677800
10.065600 1.720100
10.084500 1.742500
10.103500 1.689100
10.122400 1.514800
10.141400 1.259900
10.160300 1.077600
10.179300 1.143000
10.198200 1.498400
10.217100 1.995500
10.236100 2.395000
10.255000 2.524800
10.274000 2.381800
10.292900 2.138300
10.311900 2.043100
10.330800 2.236000
10.349800 2.630500
10.368700 3.004400
10.387700 3.199300
10.406600 3.219400
10.425500 3.179800
10.444500 3.201900
10.463400 3.336600
10.482400 3.525400
10.501300 3.635000
10.520300 3.593500
10.539200 3.481900
10.558200 3.417400
10.577100 3.381100
10.596000 3.245300
10.615000 2.946100
10.633900 2.560000
10.652900 2.215700
10.671800 1.969800
10.690800 1.769600
10.709700 1.520700
10.728700 1.208400
10.747600 0.947900
10.766600 0.868400
10.785500 0.958900
10.804400 1.080500
10.823400 1.118000
10.842300 1.073500
10.861300 1.026500
10.880200 1.051300
10.899200 1.168900
10.918100 1.330900
10.937100 1.445300
10.956000 1.456500
10.975000 1.419800
10.993900 1.474800
11.012800 1.725400
11.031800 2.148100
11.050700 2.599700
11.069700 2.901100
11.088600 2.956900
11.107600 2.821200
11.126500 2.616200
11.145500 2.417100
11.164400 2.277800
11.183300 2.281700
11.202300 2.437800
11.221200 2.574800
11.240200 2.472500
11.259100 2.117200
11.278100 1.750400
11.297000 1.616400
11.316000 1.711800
11.334900 1.852200
11.353900 1.937200
11.372800 2.051000
11.391700 2.303800
11.410700 2.660500
11.429600 2.958000
11.448600 3.078900
11.467500 3.084400
11.486500 3.139200
11.505400 3.303600
11.524400 3.452800
11.543300 3.425300
11.562300 3.223500
11.581200 3.052300
11.600100 3.149900
11.619100 3.565700
11.638000 4.122500
11.657000 4.593300
11.675900 4.869500
11.694900 4.978200
11.713800 5.012700
11.732800 5.036300
11.751700 5.024300
11.770600 4.930200
11.789600 4.793200
11.808500 4.702000
11.827500 4.661600
11.846400 4.590600
11.865400 4.447800
11.884300 4.299400
11.903300 4.262200
11.922200 4.358100
11.941200 4.410500
11.960100 4.169600
11.979000 3.588400
11.998000 2.912500
12.016900 2.452100
12.035900 2.304100
12.054800 2.329600
12.073800 2.372200
12.092700 2.414900
12.111700 2.508400
12.130600 2.637500
12.149600 2.730900
12.168500 2.764000
12.187400 2.794600
12.206400 2.885000
12.225300 3.005200
12.244300 3.059700
12.263200 3.004100
12.282200 2.883500
12.301100 2.764400
12.320100 2.664200
12.339000 2.534800
12.357900 2.319300
12.376900 2.052700
12.395800 1.886500
12.414800 1.976600
12.433700 2.350700
12.452700 2.898800
12.471600 3.460000
12.490600 3.873500
12.509500 3.996200
12.528500 3.785600
12.547400 3.376900
12.566300 3.005100
12.585300 2.833300
12.604200 2.860100
12.623200 2.949200
12.642100 2.958300
12.661100 2.896700
12.680000 2.924600
12.699000 3.129700
12.717900 3.363800
12.736800 3.389000
12.755800 3.175000
12.774700 2.974100
12.793700 3.039200
12.812600 3.318700
12.831600 3.533700
12.850500 3.519400
12.869500 3.348800
12.888400 3.137500
12.907400 2.888100
12.926300 2.575400
12.945200 2.268000
12.964200 2.089400
12.983100 2.122200
13.002100 2.392700
13.021000 2.869900
13.040000 3.426000
13.058900 3.862900
13.077900 4.040200
13.096800 3.947200
13.115800 3.659600
13.134700 3.297700
13.153600 3.013800
13.172600 2.920000
13.191500 3.007300
13.210500 3.191100
13.229400 3.425800
13.248400 3.690100
13.267300 3.868200
13.286300 3.772300
13.305200 3.346000
13.324100 2.765200
13.343100 2.290200
13.362000 2.068500
13.381000 2.085300
13.399900 2.234000
13.418900 2.407500
13.437800 2.559800
13.456800 2.709700
13.475700 2.882700
13.494700 3.041800
13.513600 3.082000
13.532500 2.916900
13.551500 2.595300
13.570400 2.308000
13.589400 2.228500
13.608300 2.344400
13.627300 2.461800
13.646200 2.374500
13.665200 2.049300
13.684100 1.671000
13.703100 1.479500
13.722000 1.547800
13.740900 1.745500
13.759900 1.917500
13.778800 2.041700
13.797800 2.187700
13.816700 2.360200
13.835700 2.450800
13.854600 2.373700
13.873600 2.182900
13.892500 1.994900
13.911400 1.851900
13.930400 1.720700
13.949300 1.576900
13.968300 1.443100
13.987200 1.375600
14.006200 1.425600
14.025100 1.589100
14.044100 1.811000
14.063000 2.034300
14.082000 2.193100
14.100900 2.205000
14.119800 2.069400
14.138800 1.965500
14.157700 2.155500
14.176700 2.719600
14.195600 3.377300
14.214600 3.660100
14.233500 3.344600
14.252500 2.664300
14.271400 2.044800
14.290400 1.719000
14.309300 1.665600
14.328200 1.799000
14.347200 2.074000
14.366100 2.428200
14.385100 2.741400
14.404000 2.909000
14.423000 2.942200
14.441900 2.955400
14.460900 3.029200
14.479800 3.135100
14.498700 3.228700
14.517700 3.334800
14.536600 3.481500
14.555600 3.621200
14.574500 3.660100
14.593500 3.526300
14.612400 3.229100
14.631400 2.886400
14.650300 2.650200
14.669300 2.588700
14.688200 2.661300
14.707100 2.783400
14.726100 2.899000
14.745000 3.023900
14.764000 3.205400
14.782900 3.422400
14.801900 3.594800
14.820800 3.705000
14.839800 3.818100
14.858700 3.978600
14.877600 4.172400
14.896600 4.368200
14.915500 4.540100
14.934500 4.691100
14.953400 4.832300
14.972400 4.873600
14.991300 4.634200
15.010300 4.068400
15.029200 3.383200
15.048200 2.868000
15.067100 2.671600
15.086000 2.731600
15.105000 2.847800
15.123900 2.846700
15.142900 2.713900
15.161800 2.576900
15.180800 2.573700
15.199700 2.740300
15.218700 3.002100
15.237600 3.238800
15.256600 3.336200
15.275500 3.211000
15.294400 2.853900
15.313400 2.355200
15.332300 1.859700
15.351300 1.502200
15.370200 1.362800
15.389200 1.435900
15.408100 1.646700
15.427100 1.920000
15.446000 2.223200
15.464900 2.554200
15.483900 2.914100
15.502800 3.289100
15.521800 3.653300
15.540700 3.982200
15.559700 4.236700
15.578600 4.349900
15.597600 4.296800
15.616500 4.163800
15.635500 4.053800
15.654400 3.957200
15.673300 3.820000
15.692300 3.664900
15.711200 3.558900
15.730200 3.559400
15.749100 3.697800
15.768100 3.881300
15.787000 3.872200
15.806000 3.540200
15.824900 3.090300
15.843900 2.905300
15.862800 3.170200
15.881700 3.692600
15.900700 4.086100
15.919600 4.132800
15.938600 3.959900
15.957500 3.863700
15.976500 4.004800
15.995400 4.293100
16.014400 4.530200
16.033300 4.622600
16.052200 4.650000
16.071200 4.724700
16.090100 4.797000
16.109100 4.666100
16.128000 4.238000
16.147000 3.711600
16.165900 3.435900
16.184900 3.618900
16.203800 4.190700
16.222800 4.888500
16.241700 5.435800
16.260600 5.649500
16.279600 5.450800
16.298500 4.897900
16.317500 4.222900
16.336400 3.730600
16.355400 3.600500
16.374300 3.787700
16.393300 4.084600
16.412200 4.265400
16.431200 4.258700
16.450100 4.216200
16.469000 4.339100
16.488000 4.613600
16.506900 4.780400
16.525900 4.611400
16.544800 4.190000
16.563800 3.840300
16.582700 3.775200
16.601700 3.920100
16.620600 4.098500
16.639500 4.272500
16.658500 4.522300
16.677400 4.849700
16.696400 5.107200
16.715300 5.131500
16.734300 4.873500
16.753200 4.385200
16.772200 3.793400
16.791100 3.339900
16.810100 3.329900
16.829000 3.924700
16.847900 5.003400
16.866900 6.246400
16.885800 7.287800
16.904800 7.799900
16.923700 7.607400
16.942700 6.822700
16.961600 5.789200
16.980600 4.834900
16.999500 4.137400
17.018400 3.792200
17.037400 3.842100
17.056300 4.187600
17.075300 4.576200
17.094200 4.754600
17.113200 4.619900
17.132100 4.247100
17.151100 3.840000
17.170000 3.628400
17.189000 3.696300
17.207900 3.883400
17.226800 3.928700
17.245800 3.750400
17.264700 3.538700
17.283700 3.529500
17.302600 3.744400
17.321600 4.013400
17.340500 4.196400
17.359500 4.320000
17.378400 4.511600
17.397400 4.833200
17.416300 5.195500
17.435200 5.463400
17.454200 5.632800
17.473100 5.836600
17.492100 6.139300
17.511000 6.378500
17.530000 6.290900
17.548900 5.808600
17.567900 5.146200
17.586800 4.580900
17.605700 4.245700
17.624700 4.143200
17.643600 4.236700
17.662600 4.475600
17.681500 4.796300
17.700500 5.130100
17.719400 5.417100
17.738400 5.634300
17.757300 5.794900
17.776300 5.881000
17.795200 5.793700
17.814100 5.430900
17.833100 4.834100
17.852000 4.204000
17.871000 3.731800
17.889900 3.455800
17.908900 3.341500
17.927800 3.437000
17.946800 3.832400
17.965700 4.474200
17.984700 5.101400
18.003600 5.394500
18.022500 5.217900
18.041500 4.749300
18.060400 4.320300
18.079400 4.091800
18.098300 3.936900
18.117300 3.666700
18.136200 3.280800
18.155200 2.948500
18.174100 2.838900
18.193000 3.015500
18.212000 3.409600
18.230900 3.855900
18.249900 4.206100
18.268800 4.423300
18.287800 4.548300
18.306700 4.602400
18.325700 4.564300
18.344600 4.422800
18.363600 4.219500
18.382500 4.042300
18.401400 3.970100
18.420400 4.010800
18.439300 4.135800
18.458300 4.369400
18.477200 4.740000
18.496200 5.128200
18.515100 5.299700
18.534100 5.143000
18.553000 4.783400
18.572000 4.458500
18.590900 4.365200
18.609800 4.579900
18.628800 4.999100
18.647700 5.370200
18.666700 5.485700
18.685600 5.346700
18.704600 5.077200
18.723500 4.748400
18.742500 4.379000
18.761400 4.020000
18.780300 3.735100
18.799300 3.556900
18.818200 3.507200
18.837200 3.594300
18.856100 3.759700
18.875100 3.868000
18.894000 3.802000
18.913000 3.614200
18.931900 3.554000
18.950900 3.833800
18.969800 4.350700
18.988700 4.754300
19.007700 4.824200
19.026600 4.660900
19.045600 4.473200
19.064500 4.332800
19.083500 4.219900
19.102400 4.169200
19.121400 4.244200
19.140300 4.418000
19.159200 4.568600
19.178200 4.587100
19.197100 4.472000
19.216100 4.320400
19.235000 4.219000
19.254000 4.147300
19.272900 4.013000
19.291900 3.781400
19.310800 3.526500
19.329800 3.337900
19.348700 3.245600
19.367600 3.285000
19.386600 3.536600
19.405500 3.989000
19.424500 4.435800
19.443400 4.663300
19.462400 4.714300
19.481300 4.819400
19.500300 5.072600
19.519200 5.311700
19.538200 5.346200
19.557100 5.201700
19.576000 5.087400
19.595000 5.170800
19.613900 5.404700
19.632900 5.544100
19.651800 5.344200
19.670800 4.788900
19.689700 4.118500
19.708700 3.651800
19.727600 3.618700
19.746500 4.091100
19.765500 4.966200
19.784400 5.976600
19.803400 6.754800
19.822300 6.986900
19.841300 6.591000
19.860200 5.742200
19.879200 4.729700
19.898100 3.835700
19.917100 3.307000
19.936000 3.309400
19.954900 3.834700
19.973900 4.660700
19.992800 5.441100
20.011800 5.867200
20.030700 5.797300
20.049700 5.310200
20.068600 4.673600
20.087600 4.216900
20.106500 4.149000
20.125500 4.431000
20.144400 4.813700
20.163300 5.034000
20.182300 4.973900
20.201200 4.662700
20.220200 4.230400
20.239100 3.859500
20.258100 3.674300
20.277000 3.657700
20.296000 3.735800
20.314900 3.921900
20.333800 4.288200
20.352800 4.762800
20.371700 5.047500
20.390700 4.870200
20.409600 4.327800
20.428600 3.820900
20.447500 3.596000
20.466500 3.503300
20.485400 3.280100
20.504400 2.932200
20.523300 2.730100
20.542200 2.916600
20.561200 3.506200
20.580100 4.302900
20.599100 5.027600
20.618000 5.484200
20.637000 5.701200
20.655900 5.884700
20.674900 6.167100
20.693800 6.435200
20.712800 6.452600
20.731700 6.131800
20.750600 5.664100
20.769600 5.365800
20.788500 5.377300
20.807500 5.527300
20.826400 5.519400
20.845400 5.225800
20.864300 4.746700
20.883300 4.232800
20.902200 3.779600
20.921100 3.490900
20.940100 3.493200
20.959000 3.802400
20.978000 4.244500
20.996900 4.596900
21.015900 4.802000
21.034800 4.977800
21.053800 5.197000
21.072700 5.339600
21.091700 5.251900
21.110600 4.984200
21.129500 4.749200
21.148500 4.671700
21.167400 4.650100
21.186400 4.466700
21.205300 4.038200
21.224300 3.541100
21.243200 3.253800
21.262200 3.319300
21.281100 3.691700
21.300000 4.221500
21.319000 4.715500
21.337900 5.005600
21.356900 5.083200
21.375800 5.151400
21.394800 5.453700
21.413700 6.011100
21.432700 6.533700
21.451600 6.605400
21.470600 6.018800
21.489500 5.000600
21.508400 4.100700
21.527400 3.814600
21.546300 4.258600
21.565300 5.114700
21.584200 5.846200
21.603200 6.057100
21.622100 5.750000
21.641100 5.262700
21.660000 4.923600
21.679000 4.750400
21.697900 4.528600
21.716800 4.148800
21.735800 3.744000
21.754700 3.524400
21.773700 3.585800
21.792600 3.855900
21.811600 4.186000
21.830500 4.523200
21.849500 4.936800
21.868400 5.386700
21.887300 5.585100
21.906300 5.258100
21.925200 4.497600
21.944200 3.727900
21.963100 3.341800
21.982100 3.422600
22.001000 3.776800
22.020000 4.181000
22.038900 4.580400
22.057900 5.032900
22.076800 5.480100
22.095700 5.691300
22.114700 5.536800
22.133600 5.214300
22.152600 5.028600
22.171500 5.021300
22.190500 5.010400
22.209400 4.929600
22.228400 4.910100
22.247300 5.050300
22.266300 5.285200
22.285200 5.497700
22.304100 5.633900
22.323100 5.681700
22.342000 5.602800
22.361000 5.341600
22.379900 4.930700
22.398900 4.582800
22.417800 4.588800
22.436800 5.018700
22.455700 5.575300
22.474600 5.864300
22.493600 5.777500
22.512500 5.492300
22.531500 5.149200
22.550400 4.708000
22.569400 4.142000
22.588300 3.623400
22.607300 3.425600
22.626200 3.677900
22.645200 4.224100
22.664100 4.691500
22.683000 4.742000
22.702000 4.328900
22.720900 3.704000
22.739900 3.171400
22.758800 2.887900
22.777800 2.869500
22.796700 3.047400
22.815700 3.282700
22.834600 3.424300
22.853600 3.406300
22.872500 3.288300
22.891400 3.193300
22.910400 3.184100
22.929300 3.223100
22.948300 3.266600
22.967200 3.331300
22.986200 3.433700
23.005100 3.521500
23.024100 3.496300
23.043000 3.305500
23.061900 3.005800
23.080900 2.709500
23.099800 2.474600
23.118800 2.292600
23.137700 2.173300
23.156700 2.173300
23.175600 2.320700
23.194600 2.557900
23.213500 2.780600
23.232500 2.901500
23.251400 2.879000
23.270300 2.736500
23.289300 2.549000
23.308200 2.356500
23.327200 2.106900
23.346100 1.741600
23.365100 1.303700
23.384000 0.897800
23.403000 0.581900
23.421900 0.358700
23.440800 0.233400
23.459800 0.219300
23.478700 0.297200
23.497700 0.401000
23.516600 0.459300
23.535600 0.450700
23.554500 0.410200
23.573500 0.385700
23.592400 0.394200
23.611400 0.414900
23.630300 0.421900
23.649200 0.419300
23.668200 0.421800
23.687100 0.411900
23.706100 0.354200
23.725000 0.250200
23.744000 0.147400
23.762900 0.093400
23.781900 0.100400
23.800800 0.145300
23.819800 0.187500
23.838700 0.197900
23.857600 0.178300
23.876600 0.147900
23.895500 0.116300
23.914500 0.082200
23.933400 0.048400
23.952400 0.022500
23.971300 0.008100
23.990300 0.002200
24.009200 0.000500
24.028100 0.000200
24.047100 0.000800
24.066000 0.003300
24.085000 0.011300
24.103900 0.028700
24.122900 0.055400
24.141800 0.080800
24.160800 0.088900
24.179700 0.073900
24.198700 0.046500
24.217600 0.022000
24.236500 0.007900
24.255500 0.002100
24.274400 0.000400
24.293400 0.000100
24.312300 0.000000
24.331300 0.000000
24.350200 0.000000
24.369200 0.000000
24.388100 0.000000
24.407100 0.000000
24.426000 0.000000
24.444900 0.000000
24.463900 0.000200
24.482800 0.001100
24.501800 0.004600
24.520700 0.014600
24.539700 0.034800
24.558600 0.062600
24.577600 0.084900
24.596500 0.087100
24.615400 0.067500
24.634400 0.039500
24.653300 0.017500
24.672300 0.005800
24.691200 0.001500
24.710200 0.000300
24.729100 0.000000
24.748100 0.000000
24.767000 0.000000
24.786000 0.000000
24.804900 0.000000
24.823800 0.000000
24.842800 0.000000
24.861700 0.000000
24.880700 0.000000
24.899600 0.000000
24.918600 0.000000
24.937500 0.000000
24.956500 0.000000
24.975400 0.000000
24.994400 0.000000
25.013300 0.000000
25.032200 0.000000
25.051200 0.000000
25.070100 0.000000
25.089100 0.000000
25.108000 0.000000
25.127000 0.000000
25.145900 0.000000
25.164900 0.000000
25.183800 0.000000
25.202700 0.000000
25.221700 0.000000
25.240600 0.000000
25.259600 0.000000
25.278500 0.000000
25.297500 0.000000
25.316400 0.000000
25.335400 0.000000
25.354300 0.000000
25.373300 0.000000
25.392200 0.000000
25.411100 0.000000
25.430100 0.000000
25.449000 0.000000
25.468000 0.000000
25.486900 0.000000
25.505900 0.000000
25.524800 0.000000
25.543800 0.000000
25.562700 0.000000
25.581600 0.000000
25.600600 0.000000
25.619500 0.000000
25.638500 0.000000
25.657400 0.000000
25.676400 0.000000
25.695300 0.000000
25.714300 0.000000
25.733200 0.000000
25.752200 0.000000
25.771100 0.000000
25.790000 0.000000
25.809000 0.000000
25.827900 0.000000
25.846900 0.000000
25.865800 0.000000
25.884800 0.000000
25.903700 0.000000
25.922700 0.000000
25.941600 0.000000
25.960600 0.000000
25.979500 0.000000
25.998400 0.000000
26.017400 0.000000
26.036300 0.000000
26.055300 0.000000
26.074200 0.000000
26.093200 0.000000
26.112100 0.000000
26.131100 0.000000
26.150000 0.000000
26.168900 0.000000
26.187900 0.000000
26.206800 0.000000
26.225800 0.000000
26.244700 0.000000
26.263700 0.000000
26.282600 0.000000
26.301600 0.000000
e
