set title 'mp-1057216 - Density of States'
set xlabel 'Energy (eV)'
set ylabel 'DOS (states/eV)'
set grid
set xrange [-10:10]
set yrange [0:2.613]
set xzeroaxis lt -1
set terminal png size 800,600
set output 'mp-1057216_dos_gnuplot.png'
plot '-' using 1:2 with lines title 'DOS'
-49.734900 0.000000
-49.657800 0.000000
-49.580800 0.000000
-49.503700 0.000000
-49.426600 0.000000
-49.349500 0.000000
-49.272400 0.000000
-49.195300 0.000000
-49.118200 0.000000
-49.041200 0.000000
-48.964100 0.000000
-48.887000 0.000000
-48.809900 0.000000
-48.732800 0.000000
-48.655700 0.000000
-48.578600 0.000000
-48.501600 0.000000
-48.424500 0.000000
-48.347400 0.000000
-48.270300 0.000000
-48.193200 0.000000
-48.116100 0.000000
-48.039000 0.000000
-47.962000 0.000000
-47.884900 0.000000
-47.807800 0.000000
-47.730700 0.000000
-47.653600 0.000000
-47.576500 0.000000
-47.499500 0.000000
-47.422400 0.000000
-47.345300 0.000000
-47.268200 0.000000
-47.191100 0.000000
-47.114000 0.000000
-47.036900 0.000000
-46.959900 0.000000
-46.882800 0.000000
-46.805700 0.000000
-46.728600 0.000000
-46.651500 0.000000
-46.574400 0.000000
-46.497300 0.000000
-46.420300 0.000000
-46.343200 0.000000
-46.266100 0.000000
-46.189000 0.000000
-46.111900 0.000000
-46.034800 0.000000
-45.957700 0.000000
-45.880700 0.000000
-45.803600 0.000000
-45.726500 0.000000
-45.649400 0.000000
-45.572300 0.000000
-45.495200 0.000000
-45.418100 0.000000
-45.341100 0.000000
-45.264000 0.000000
-45.186900 0.000000
-45.109800 0.000000
-45.032700 0.000000
-44.955600 0.000000
-44.878500 0.000000
-44.801500 0.000000
-44.724400 0.000000
-44.647300 0.000000
-44.570200 0.000000
-44.493100 0.000000
-44.416000 0.000000
-44.338900 0.000000
-44.261900 0.000000
-44.184800 0.000000
-44.107700 0.000000
-44.030600 0.000000
-43.953500 0.000000
-43.876400 0.000000
-43.799300 0.000000
-43.722300 0.000000
-43.645200 0.000000
-43.568100 0.000000
-43.491000 0.000000
-43.413900 0.000000
-43.336800 0.000000
-43.259700 0.000000
-43.182700 0.000000
-43.105600 0.000000
-43.028500 0.000000
-42.951400 0.000000
-42.874300 0.000000
-42.797200 0.000000
-42.720100 149.507300
-42.643100 0.000000
-42.566000 0.000000
-42.488900 0.000000
-42.411800 0.000000
-42.334700 0.000000
-42.257600 0.000000
-42.180500 0.000000
-42.103500 0.000000
-42.026400 0.000000
-41.949300 0.000000
-41.872200 0.000000
-41.795100 0.000000
-41.718000 0.000000
-41.640900 0.000000
-41.563900 0.000000
-41.486800 0.000000
-41.409700 0.000000
-41.332600 0.000000
-41.255500 0.000000
-41.178400 0.000000
-41.101300 0.000000
-41.024300 0.000000
-40.947200 0.000000
-40.870100 0.000000
-40.793000 0.000000
-40.715900 0.000000
-40.638800 0.000000
-40.561800 0.000000
-40.484700 0.000000
-40.407600 0.000000
-40.330500 0.000000
-40.253400 0.000000
-40.176300 0.000000
-40.099200 0.000000
-40.022200 0.000000
-39.945100 0.000000
-39.868000 0.000000
-39.790900 0.000000
-39.713800 0.000000
-39.636700 0.000000
-39.559600 0.000000
-39.482600 0.000000
-39.405500 0.000000
-39.328400 0.000000
-39.251300 0.000000
-39.174200 0.000000
-39.097100 0.000000
-39.020000 0.000000
-38.943000 0.000000
-38.865900 0.000000
-38.788800 0.000000
-38.711700 0.000000
-38.634600 0.000000
-38.557500 0.000000
-38.480400 0.000000
-38.403400 0.000000
-38.326300 0.000000
-38.249200 0.000000
-38.172100 0.000000
-38.095000 0.000000
-38.017900 0.000000
-37.940800 0.000000
-37.863800 0.000000
-37.786700 0.000000
-37.709600 0.000000
-37.632500 0.000000
-37.555400 0.000000
-37.478300 0.000000
-37.401200 0.000000
-37.324200 0.000000
-37.247100 0.000000
-37.170000 0.000000
-37.092900 0.000000
-37.015800 0.000000
-36.938700 0.000000
-36.861600 0.000000
-36.784600 0.000000
-36.707500 0.000000
-36.630400 0.000000
-36.553300 0.000000
-36.476200 0.000000
-36.399100 0.000000
-36.322000 0.000000
-36.245000 0.000000
-36.167900 0.000000
-36.090800 0.000000
-36.013700 0.000000
-35.936600 0.000000
-35.859500 0.000000
-35.782400 0.000000
-35.705400 0.000000
-35.628300 0.000000
-35.551200 0.000000
-35.474100 0.000000
-35.397000 0.000000
-35.319900 0.000000
-35.242800 0.000000
-35.165800 0.000000
-35.088700 0.000000
-35.011600 0.000000
-34.934500 0.000000
-34.857400 0.000000
-34.780300 0.000000
-34.703200 0.000000
-34.626200 0.000000
-34.549100 0.000000
-34.472000 0.000000
-34.394900 0.000000
-34.317800 0.000000
-34.240700 0.000000
-34.163600 0.000000
-34.086600 0.000000
-34.009500 0.000000
-33.932400 0.000000
-33.855300 0.000000
-33.778200 0.000000
-33.701100 0.000000
-33.624100 0.000000
-33.547000 0.000000
-33.469900 0.000000
-33.392800 0.000000
-33.315700 0.000000
-33.238600 0.000000
-33.161500 0.000000
-33.084500 0.000000
-33.007400 0.000000
-32.930300 0.000000
-32.853200 0.000000
-32.776100 0.000000
-32.699000 0.000000
-32.621900 0.000000
-32.544900 0.000000
-32.467800 0.000000
-32.390700 0.000000
-32.313600 0.000000
-32.236500 0.000000
-32.159400 0.000000
-32.082300 0.000000
-32.005300 0.000000
-31.928200 0.000000
-31.851100 0.000000
-31.774000 0.000000
-31.696900 0.000000
-31.619800 0.000000
-31.542700 0.000000
-31.465700 0.000000
-31.388600 0.000000
-31.311500 0.000000
-31.234400 0.000000
-31.157300 0.000000
-31.080200 0.000000
-31.003100 0.000000
-30.926100 0.000000
-30.849000 0.000000
-30.771900 0.000000
-30.694800 0.000000
-30.617700 0.000000
-30.540600 0.000000
-30.463500 0.000000
-30.386500 0.000000
-30.309400 0.000000
-30.232300 0.000000
-30.155200 0.000000
-30.078100 0.000000
-30.001000 0.000000
-29.923900 0.000000
-29.846900 0.000000
-29.769800 0.000000
-29.692700 0.000000
-29.615600 0.000000
-29.538500 0.000000
-29.461400 0.000000
-29.384300 0.000000
-29.307300 0.000000
-29.230200 0.000000
-29.153100 0.000000
-29.076000 0.000000
-28.998900 0.000000
-28.921800 0.000000
-28.844700 0.000000
-28.767700 0.000000
-28.690600 0.000000
-28.613500 0.000000
-28.536400 0.000000
-28.459300 0.000000
-28.382200 0.000000
-28.305100 0.000000
-28.228100 0.000000
-28.151000 0.000000
-28.073900 0.000000
-27.996800 0.000000
-27.919700 0.000000
-27.842600 0.000000
-27.765500 0.000000
-27.688500 0.000000
-27.611400 0.000000
-27.534300 0.000000
-27.457200 0.000000
-27.380100 0.000000
-27.303000 0.000000
-27.225900 0.000000
-27.148900 0.000000
-27.071800 0.000000
-26.994700 0.000000
-26.917600 0.000000
-26.840500 0.000000
-26.763400 0.000000
-26.686400 0.000000
-26.609300 0.000000
-26.532200 0.000000
-26.455100 0.000000
-26.378000 0.000000
-26.300900 0.000000
-26.223800 0.000000
-26.146800 0.000000
-26.069700 0.000000
-25.992600 0.000000
-25.915500 0.000000
-25.838400 0.000000
-25.761300 0.000000
-25.684200 0.000000
-25.607200 0.000000
-25.530100 0.000000
-25.453000 0.000000
-25.375900 0.000000
-25.298800 0.000000
-25.221700 0.000000
-25.144600 0.000000
-25.067600 0.000000
-24.990500 0.000000
-24.913400 0.000000
-24.836300 0.000000
-24.759200 0.000000
-24.682100 0.000000
-24.605000 0.000000
-24.528000 0.000000
-24.450900 0.000000
-24.373800 0.000000
-24.296700 0.000000
-24.219600 0.000000
-24.142500 0.000000
-24.065400 0.000000
-23.988400 0.000000
-23.911300 0.000000
-23.834200 0.000000
-23.757100 0.000000
-23.680000 0.000000
-23.602900 0.000000
-23.525800 0.000000
-23.448800 0.000000
-23.371700 0.000000
-23.294600 0.000000
-23.217500 0.000000
-23.140400 0.000000
-23.063300 0.000000
-22.986200 0.000000
-22.909200 0.000000
-22.832100 0.000000
-22.755000 0.000000
-22.677900 0.000000
-22.600800 0.000000
-22.523700 0.000000
-22.446600 0.000000
-22.369600 0.000000
-22.292500 0.000000
-22.215400 0.000000
-22.138300 0.000000
-22.061200 0.000000
-21.984100 0.000000
-21.907000 0.000000
-21.830000 0.000000
-21.752900 0.000000
-21.675800 0.000000
-21.598700 0.000000
-21.521600 0.000000
-21.444500 0.000000
-21.367400 0.000000
-21.290400 0.000000
-21.213300 0.000000
-21.136200 0.000000
-21.059100 0.000000
-20.982000 0.000000
-20.904900 0.000000
-20.827800 0.000000
-20.750800 0.000000
-20.673700 0.000000
-20.596600 0.000000
-20.519500 0.000000
-20.442400 0.000000
-20.365300 0.000000
-20.288200 0.000000
-20.211200 0.000000
-20.134100 0.000000
-20.057000 0.000000
-19.979900 0.000000
-19.902800 0.000000
-19.825700 0.000000
-19.748700 0.000000
-19.671600 0.000000
-19.594500 0.000000
-19.517400 0.000000
-19.440300 0.000000
-19.363200 0.000000
-19.286100 0.000000
-19.209100 0.000000
-19.132000 0.000000
-19.054900 0.000000
-18.977800 0.000000
-18.900700 0.000000
-18.823600 0.000000
-18.746500 0.000000
-18.669500 0.000000
-18.592400 0.000000
-18.515300 0.000000
-18.438200 0.000000
-18.361100 0.000000
-18.284000 0.000000
-18.206900 0.000000
-18.129900 0.000000
-18.052800 0.000000
-17.975700 0.000000
-17.898600 0.000000
-17.821500 0.000000
-17.744400 0.000000
-17.667300 0.000000
-17.590300 0.000000
-17.513200 0.000000
-17.436100 0.000000
-17.359000 0.000000
-17.281900 0.000000
-17.204800 0.000000
-17.127700 0.000000
-17.050700 0.000000
-16.973600 0.000000
-16.896500 0.000000
-16.819400 0.000000
-16.742300 0.000000
-16.665200 0.000000
-16.588100 0.000000
-16.511100 0.000000
-16.434000 0.000000
-16.356900 0.000000
-16.279800 0.000000
-16.202700 0.000000
-16.125600 0.000000
-16.048500 0.000000
-15.971500 0.000000
-15.894400 0.000000
-15.817300 0.000000
-15.740200 0.000000
-15.663100 0.000000
-15.586000 0.000000
-15.508900 0.000000
-15.431900 0.000000
-15.354800 0.000000
-15.277700 0.000000
-15.200600 0.000000
-15.123500 0.000000
-15.046400 0.000000
-14.969300 0.000000
-14.892300 0.000000
-14.815200 0.000000
-14.738100 0.000000
-14.661000 0.000000
-14.583900 0.000000
-14.506800 0.000000
-14.429700 0.000000
-14.352700 0.000000
-14.275600 0.000000
-14.198500 0.000000
-14.121400 0.000000
-14.044300 0.000000
-13.967200 0.000000
-13.890100 0.000000
-13.813100 0.000000
-13.736000 0.000000
-13.658900 0.000000
-13.581800 0.000000
-13.504700 0.000000
-13.427600 0.000000
-13.350500 0.000000
-13.273500 0.000000
-13.196400 0.000000
-13.119300 0.000000
-13.042200 0.000000
-12.965100 0.000000
-12.888000 0.000000
-12.811000 0.000000
-12.733900 0.000000
-12.656800 0.000000
-12.579700 0.000000
-12.502600 0.000000
-12.425500 0.000000
-12.348400 0.000000
-12.271400 0.000000
-12.194300 0.000000
-12.117200 0.000000
-12.040100 0.000000
-11.963000 0.000000
-11.885900 0.000000
-11.808800 0.000000
-11.731800 0.000000
-11.654700 0.000000
-11.577600 0.000000
-11.500500 0.000000
-11.423400 0.000000
-11.346300 0.000000
-11.269200 0.000000
-11.192200 0.000000
-11.115100 0.000000
-11.038000 0.000000
-10.960900 0.000000
-10.883800 0.000000
-10.806700 0.000000
-10.729600 0.000000
-10.652600 0.257400
-10.575500 0.442100
-10.498400 0.654100
-10.421300 0.664800
-10.344200 0.668300
-10.267100 0.692700
-10.190000 0.709600
-10.113000 0.722800
-10.035900 0.751300
-9.958800 0.776800
-9.881700 0.802700
-9.804600 0.835100
-9.727500 0.879500
-9.650400 0.942500
-9.573400 1.004900
-9.496300 1.081000
-9.419200 1.309300
-9.342100 1.582900
-9.265000 1.350500
-9.187900 1.169700
-9.110800 0.966500
-9.033800 0.883300
-8.956700 0.768600
-8.879600 0.724900
-8.802500 0.677200
-8.725400 0.621700
-8.648300 0.581900
-8.571200 0.548000
-8.494200 0.517600
-8.417100 0.493700
-8.340000 0.452900
-8.262900 0.424300
-8.185800 0.413600
-8.108700 1.599500
-8.031600 0.000000
-7.954600 0.000000
-7.877500 0.000000
-7.800400 0.000000
-7.723300 0.000000
-7.646200 0.000000
-7.569100 0.000000
-7.492000 0.000000
-7.415000 0.000000
-7.337900 0.000000
-7.260800 0.000000
-7.183700 0.000000
-7.106600 0.000000
-7.029500 0.000000
-6.952400 0.000000
-6.875400 0.000000
-6.798300 0.000000
-6.721200 0.000000
-6.644100 0.000000
-6.567000 0.000000
-6.489900 0.000000
-6.412800 0.000000
-6.335800 0.000000
-6.258700 0.000000
-6.181600 0.000000
-6.104500 0.000000
-6.027400 0.000000
-5.950300 0.000000
-5.873300 0.000000
-5.796200 0.000000
-5.719100 0.000000
-5.642000 0.000000
-5.564900 0.000000
-5.487800 0.000000
-5.410700 0.000000
-5.333700 0.000000
-5.256600 0.000000
-5.179500 0.000000
-5.102400 0.000000
-5.025300 0.000000
-4.948200 0.000000
-4.871100 0.000000
-4.794100 0.000000
-4.717000 0.000000
-4.639900 0.000000
-4.562800 0.000000
-4.485700 0.000000
-4.408600 0.000000
-4.331500 0.000000
-4.254500 0.000000
-4.177400 0.000000
-4.100300 0.000000
-4.023200 0.000000
-3.946100 0.000000
-3.869000 0.000000
-3.791900 0.000000
-3.714900 0.000000
-3.637800 0.000000
-3.560700 0.000000
-3.483600 0.000000
-3.406500 0.000000
-3.329400 0.000000
-3.252300 0.000000
-3.175300 0.000000
-3.098200 0.000000
-3.021100 0.000000
-2.944000 0.000000
-2.866900 0.000000
-2.789800 0.000000
-2.712700 0.000000
-2.635700 0.000000
-2.558600 0.000000
-2.481500 0.000000
-2.404400 0.000000
-2.327300 0.000000
-2.250200 0.000000
-2.173100 0.000000
-2.096100 0.876100
-2.019000 0.555200
-1.941900 0.600300
-1.864800 0.642400
-1.787700 0.780400
-1.710600 0.800600
-1.633500 0.839200
-1.556500 0.886700
-1.479400 0.946200
-1.402300 0.994000
-1.325200 1.051900
-1.248100 1.117600
-1.171000 1.382600
-1.093900 1.371200
-1.016900 1.357900
-0.939800 1.656400
-0.862700 1.661400
-0.785600 1.273800
-0.708500 1.127800
-0.631400 1.169700
-0.554300 1.290200
-0.477300 1.357000
-0.400200 1.475100
-0.323100 1.276000
-0.246000 1.427500
-0.168900 1.569400
-0.091800 1.713900
-0.014700 1.791900
0.062300 1.991300
0.139400 2.104200
0.216500 2.196600
0.293600 2.375000
0.370700 1.882800
0.447800 1.681900
0.524900 1.458400
0.601900 0.848100
0.679000 0.924300
0.756100 1.382000
0.833200 1.963700
0.910300 1.279800
0.987400 0.745100
1.064400 0.642500
1.141500 0.540400
1.218600 0.537800
1.295700 0.522600
1.372800 0.532600
1.449900 0.534800
1.527000 0.545300
1.604000 0.551800
1.681100 0.510100
1.758200 0.508200
1.835300 0.506900
1.912400 0.506600
1.989500 0.536900
2.066600 0.529700
2.143600 0.533200
2.220700 0.616800
2.297800 0.551100
2.374900 0.564600
2.452000 0.585100
2.529100 0.554300
2.606200 0.560500
2.683200 0.567200
2.760300 0.574600
2.837400 0.628300
2.914500 0.680400
2.991600 0.740600
3.068700 0.819100
3.145800 0.874900
3.222800 0.950700
3.299900 0.904100
3.377000 0.868900
3.454100 0.820900
3.531200 0.705000
3.608300 0.649400
3.685400 0.618500
3.762400 0.624300
3.839500 0.631200
3.916600 0.518200
3.993700 0.386900
4.070800 0.200400
4.147900 0.000000
4.225000 0.000000
4.302000 0.000000
4.379100 0.000000
4.456200 0.000000
4.533300 0.000000
4.610400 0.000000
4.687500 0.000000
4.764600 0.000000
4.841600 0.000000
4.918700 0.000000
4.995800 0.000000
5.072900 0.000000
5.150000 0.000000
5.227100 0.000000
5.304200 0.000000
5.381200 0.000000
5.458300 0.000000
5.535400 0.000000
5.612500 0.000000
5.689600 0.000000
5.766700 0.000000
5.843800 0.000000
5.920800 0.000000
5.997900 0.000000
6.075000 0.000000
6.152100 0.002000
6.229200 0.035800
6.306300 0.281100
6.383400 0.470900
6.460400 0.757700
6.537500 1.195200
6.614600 1.150200
6.691700 1.188500
6.768800 1.178000
6.845900 1.230400
6.923000 1.296900
7.000000 1.350200
7.077100 1.841300
7.154200 1.325100
7.231300 1.091900
7.308400 1.002000
7.385500 0.889900
7.462600 0.735300
7.539600 0.642800
7.616700 0.535100
7.693800 0.486400
7.770900 0.443000
7.848000 0.408100
7.925100 0.445100
8.002100 0.511100
8.079200 0.508700
8.156300 0.512700
8.233400 0.509600
8.310500 0.513300
8.387600 0.540800
8.464700 0.571800
8.541700 0.627400
8.618800 0.847100
8.695900 0.900900
8.773000 1.009900
8.850100 1.023200
8.927200 1.038400
9.004300 1.005100
9.081300 0.902900
9.158400 0.765600
9.235500 0.737300
9.312600 0.716000
9.389700 0.738900
9.466800 0.715800
9.543900 0.713300
9.620900 0.709800
9.698000 0.709300
9.775100 0.717200
9.852200 0.733500
9.929300 0.766500
10.006400 0.800200
10.083500 0.862300
10.160500 0.892600
10.237600 0.857600
10.314700 0.868400
10.391800 0.904000
10.468900 0.968100
10.546000 1.038300
10.623100 1.112300
10.700100 1.272700
10.777200 1.400300
10.854300 1.215400
10.931400 1.083100
11.008500 0.983200
11.085600 0.950800
11.162700 0.912800
11.239700 0.826200
11.316800 0.759700
11.393900 0.590200
11.471000 0.627500
11.548100 0.701300
11.625200 0.768000
11.702300 0.867800
11.779300 0.998000
11.856400 1.124400
11.933500 1.155800
12.010600 1.235900
12.087700 1.290800
12.164800 1.356300
12.241900 1.374600
12.318900 1.409100
12.396000 1.448800
12.473100 1.500500
12.550200 1.582300
12.627300 1.908100
12.704400 1.930500
12.781500 1.973600
12.858500 1.881100
12.935600 1.780200
13.012700 1.714800
13.089800 1.736100
13.166900 1.631200
13.244000 1.309000
13.321100 1.270300
13.398100 1.254200
13.475200 1.251700
13.552300 1.252300
13.629400 1.293600
13.706500 1.409500
13.783600 1.644600
13.860700 1.645700
13.937700 1.560500
14.014800 1.507800
14.091900 1.415700
14.169000 1.353100
14.246100 1.489300
14.323200 1.843500
14.400300 2.012400
14.477300 2.032700
14.554400 1.780800
14.631500 1.689800
14.708600 1.654700
14.785700 1.503900
14.862800 1.359200
14.939800 1.195400
15.016900 1.057100
15.094000 0.898600
15.171100 0.809000
15.248200 0.734000
15.325300 0.636500
15.402400 0.527600
15.479400 0.588500
15.556500 0.869800
15.633600 1.168000
15.710700 1.204200
15.787800 1.368400
15.864900 1.155200
15.942000 1.106300
16.019000 1.146700
16.096100 1.292700
16.173200 1.675900
16.250300 1.654700
16.327400 1.534600
16.404500 1.452000
16.481600 1.439900
16.558600 1.451700
16.635700 1.357800
16.712800 1.232800
16.789900 1.151900
16.867000 1.112900
16.944100 1.044900
17.021200 0.980500
17.098200 0.868100
17.175300 0.817100
17.252400 0.848700
17.329500 0.806500
17.406600 0.668900
17.483700 0.651600
17.560800 0.622000
17.637800 0.587900
17.714900 0.614200
17.792000 0.698000
17.869100 0.841100
17.946200 1.050400
18.023300 1.264300
18.100400 1.445000
18.177400 2.115500
18.254500 1.558100
18.331600 1.358700
18.408700 1.317600
18.485800 1.277600
18.562900 1.333700
18.640000 1.539900
18.717000 1.394200
18.794100 1.406300
18.871200 1.225700
18.948300 1.091100
19.025400 1.040300
19.102500 0.991200
19.179600 0.963300
19.256600 0.927000
19.333700 0.931000
19.410800 1.001100
19.487900 1.084600
19.565000 1.156000
19.642100 1.216200
19.719200 1.269400
19.796200 1.331700
19.873300 1.403600
19.950400 1.562700
20.027500 1.729800
20.104600 1.932700
20.181700 1.706300
20.258800 1.531100
20.335800 1.311500
20.412900 1.170400
20.490000 1.054200
20.567100 1.009200
20.644200 1.005700
20.721300 1.009200
20.798400 0.984900
20.875400 0.990000
20.952500 0.964700
21.029600 0.948100
21.106700 0.964200
21.183800 1.055300
21.260900 0.952900
21.338000 0.942800
21.415000 1.022200
21.492100 1.046400
21.569200 1.048700
21.646300 1.025500
21.723400 1.027800
21.800500 1.065300
21.877600 1.089600
21.954600 1.130000
22.031700 1.174000
22.108800 1.270500
22.185900 1.346300
22.263000 1.426600
22.340100 1.488400
22.417100 1.343300
22.494200 1.287300
22.571300 1.253000
22.648400 1.198700
22.725500 1.166000
22.802600 1.194900
22.879700 1.190100
22.956700 1.257600
23.033800 1.282700
23.110900 1.316500
23.188000 1.345100
23.265100 1.488200
23.342200 1.460600
23.419300 1.420000
23.496300 1.385300
23.573400 1.370100
23.650500 1.354100
23.727600 1.368900
23.804700 1.247500
23.881800 1.166800
23.958900 1.129600
24.035900 1.159500
24.113000 1.222600
24.190100 1.228600
24.267200 1.179700
24.344300 1.158800
24.421400 1.309700
24.498500 1.288600
24.575500 1.269600
24.652600 1.272800
24.729700 1.265300
24.806800 1.294600
24.883900 1.294800
24.961000 1.287700
25.038100 1.217500
25.115100 1.137100
25.192200 1.112000
25.269300 1.487500
25.346400 1.515600
25.423500 1.461100
25.500600 1.392800
25.577700 1.431600
25.654700 1.644200
25.731800 1.756300
25.808900 1.719400
25.886000 1.688000
25.963100 1.618800
26.040200 1.452000
26.117300 1.401000
26.194300 1.449600
26.271400 1.516700
26.348500 1.462900
26.425600 1.490100
26.502700 1.342500
26.579800 1.224200
26.656900 1.191500
26.733900 1.245100
26.811000 1.241900
26.888100 1.340700
26.965200 1.486600
27.042300 1.587300
27.119400 1.677500
27.196500 1.753500
27.273500 1.715200
27.350600 1.642600
27.427700 1.453900
27.504800 1.215900
27.581900 1.063300
27.659000 1.010300
27.736100 1.026200
27.813100 1.052700
27.890200 1.100200
27.967300 1.239500
28.044400 1.322100
28.121500 1.480600
28.198600 1.764300
28.275700 1.896100
28.352700 1.930400
28.429800 1.786100
28.506900 1.674400
28.584000 1.436400
28.661100 1.309900
28.738200 1.198900
28.815300 1.111400
28.892300 1.114100
28.969400 1.287700
29.046500 1.426700
29.123600 1.437800
29.200700 1.410300
29.277800 1.325000
29.354800 1.251200
29.431900 1.044400
29.509000 1.073300
29.586100 1.070800
29.663200 1.003100
29.740300 1.051700
29.817400 1.050700
29.894400 1.069300
29.971500 1.097200
30.048600 1.176100
30.125700 1.292300
30.202800 1.460200
30.279900 1.507300
30.357000 1.483700
30.434000 1.437500
30.511100 1.490300
30.588200 1.541200
30.665300 1.620200
30.742400 1.683900
30.819500 1.543700
30.896600 1.413700
30.973600 1.365700
31.050700 1.342100
31.127800 1.307300
31.204900 1.337800
31.282000 1.342100
31.359100 1.308400
31.436200 1.421100
31.513200 1.316800
31.590300 1.366300
31.667400 1.462400
31.744500 1.437000
31.821600 1.416000
31.898700 1.415900
31.975800 1.331200
32.052800 1.361700
32.129900 1.511300
32.207000 1.660400
32.284100 1.615900
32.361200 1.662600
32.438300 1.929900
32.515400 2.083900
32.592400 1.994300
32.669500 1.754500
32.746600 1.499900
32.823700 1.413000
32.900800 1.362200
32.977900 1.211700
33.055000 1.166700
33.132000 1.159100
33.209100 1.257600
33.286200 1.331700
33.363300 1.438600
33.440400 1.574300
33.517500 1.779300
33.594600 1.863700
33.671600 1.893600
33.748700 1.720600
33.825800 1.617500
33.902900 1.544200
33.980000 1.449100
34.057100 1.367200
34.134200 1.274400
34.211200 1.174800
34.288300 1.132600
34.365400 1.129600
34.442500 1.149600
34.519600 1.233500
34.596700 1.313800
34.673800 1.436000
34.750800 1.483100
34.827900 1.493900
34.905000 1.554600
34.982100 1.587500
35.059200 1.566600
35.136300 1.506900
35.213400 1.475000
35.290400 1.517800
35.367500 1.503500
35.444600 1.553500
35.521700 1.415400
35.598800 1.326400
35.675900 1.217200
35.753000 1.179400
35.830000 1.229700
35.907100 1.305300
35.984200 1.375900
36.061300 1.388500
36.138400 1.507200
36.215500 1.496000
36.292500 1.433900
36.369600 1.420800
36.446700 1.382600
36.523800 1.356400
36.600900 1.356000
36.678000 1.455700
36.755100 1.525900
36.832100 1.571100
36.909200 1.529500
36.986300 1.646300
37.063400 1.434100
37.140500 1.428700
37.217600 1.416900
37.294700 1.489000
37.371700 1.563000
37.448800 1.719200
37.525900 1.884400
37.603000 2.174700
37.680100 2.284800
37.757200 2.138600
37.834300 2.153700
37.911300 2.012400
37.988400 1.877200
38.065500 1.795900
38.142600 1.279100
38.219700 1.168800
38.296800 1.227500
38.373900 1.381700
38.450900 1.501300
38.528000 1.635700
38.605100 1.838100
38.682200 1.822700
38.759300 1.824000
38.836400 1.829100
38.913500 1.844700
38.990500 1.907100
39.067600 1.786200
39.144700 1.733800
39.221800 1.629800
39.298900 1.277800
39.376000 1.095500
39.453100 1.080000
39.530100 1.224500
39.607200 1.213700
39.684300 1.258700
39.761400 1.305300
39.838500 1.371300
39.915600 1.404800
39.992700 1.481700
40.069700 1.521200
40.146800 1.510500
40.223900 1.534900
40.301000 1.604200
40.378100 1.586200
40.455200 1.628300
40.532300 1.726500
40.609300 1.812100
40.686400 1.728500
40.763500 1.818100
40.840600 1.938300
40.917700 1.813900
40.994800 1.847900
41.071900 1.733800
41.148900 1.580900
41.226000 1.530600
41.303100 1.508300
41.380200 1.481600
41.457300 1.450200
41.534400 1.428200
41.611500 1.405200
41.688500 1.363800
41.765600 1.309100
41.842700 1.340700
41.919800 1.355600
41.996900 1.391000
42.074000 1.450900
42.151100 1.495100
42.228100 1.606300
42.305200 1.518100
42.382300 1.616300
42.459400 1.657100
42.536500 1.716600
42.613600 1.730000
42.690700 1.728100
42.767700 1.670200
42.844800 1.611800
42.921900 1.580100
42.999000 1.611200
43.076100 1.604100
43.153200 1.601100
43.230200 1.527900
43.307300 1.444900
43.384400 1.419000
43.461500 1.376700
43.538600 1.385900
43.615700 1.383300
43.692800 1.402300
43.769800 1.377100
43.846900 1.374600
43.924000 1.407300
44.001100 1.391900
44.078200 1.394500
44.155300 1.420900
44.232400 1.495600
44.309400 1.599400
44.386500 1.770300
44.463600 1.845300
44.540700 1.858800
44.617800 1.800400
44.694900 1.726600
44.772000 1.681600
44.849000 1.536500
44.926100 1.480100
45.003200 1.435100
45.080300 1.459500
45.157400 1.586900
45.234500 1.780600
45.311600 1.986900
45.388600 2.097300
45.465700 2.116000
45.542800 1.876700
45.619900 1.727100
45.697000 1.572700
45.774100 1.414400
45.851200 1.360700
45.928200 1.353800
46.005300 1.398400
46.082400 1.510000
46.159500 1.709800
46.236600 1.924300
46.313700 1.873000
46.390800 1.890700
46.467800 1.920000
46.544900 1.889800
46.622000 1.800400
46.699100 1.764100
46.776200 1.834600
46.853300 1.673900
46.930400 1.635900
47.007400 1.686400
47.084500 1.554400
47.161600 1.534100
47.238700 1.498900
47.315800 1.522700
47.392900 1.582100
47.470000 1.685200
47.547000 1.865500
47.624100 2.085800
47.701200 2.195100
47.778300 2.270100
47.855400 2.264900
47.932500 2.095500
48.009600 1.978600
48.086600 1.788300
48.163700 1.660200
48.240800 1.586400
48.317900 1.541700
48.395000 1.557400
48.472100 1.649200
48.549200 1.810700
48.626200 1.897100
48.703300 2.012500
48.780400 2.141100
48.857500 2.011900
48.934600 2.009200
49.011700 1.925100
49.088800 1.661700
49.165800 1.628200
49.242900 1.593800
49.320000 1.559400
49.397100 1.528400
49.474200 1.510900
49.551300 1.684500
49.628400 1.829000
49.705400 1.956000
49.782500 2.069100
49.859600 2.050300
49.936700 1.987700
50.013800 1.929200
50.090900 1.774600
50.167900 1.652900
50.245000 1.621200
50.322100 1.646200
50.399200 1.612000
50.476300 1.603500
50.553400 1.579200
50.630500 1.673200
50.707500 1.726000
50.784600 1.743300
50.861700 1.774800
50.938800 1.897600
51.015900 1.717000
51.093000 1.597400
51.170100 1.521600
51.247100 1.426600
51.324200 1.352500
51.401300 1.360900
51.478400 1.440600
51.555500 1.499800
51.632600 1.565800
51.709700 1.653900
51.786700 1.702200
51.863800 1.824100
51.940900 2.027000
52.018000 2.186400
52.095100 2.194900
52.172200 2.101900
52.249300 1.991200
52.326300 1.764500
52.403400 1.502300
52.480500 1.370700
52.557600 1.396100
52.634700 1.510200
52.711800 1.558600
52.788900 1.719800
52.865900 1.899700
52.943000 2.087100
53.020100 2.020400
53.097200 1.856200
53.174300 1.773800
53.251400 1.729800
53.328500 1.685200
53.405500 1.644600
53.482600 1.568400
53.559700 1.559100
53.636800 1.552900
53.713900 1.547500
53.791000 1.569600
53.868100 1.683800
53.945100 1.661100
54.022200 1.664000
54.099300 1.713200
54.176400 1.764700
54.253500 1.841100
54.330600 1.887200
54.407700 1.873300
54.484700 1.799500
54.561800 1.708700
54.638900 1.611600
54.716000 1.577000
54.793100 1.529800
54.870200 1.579700
54.947300 1.731200
55.024300 1.962800
55.101400 2.160700
55.178500 2.246900
55.255600 2.079000
55.332700 1.938400
55.409800 1.896600
55.486900 1.712800
55.563900 1.614000
55.641000 1.606800
55.718100 1.641600
55.795200 1.740100
55.872300 1.814000
55.949400 1.959900
56.026500 2.080800
56.103500 2.172900
56.180600 2.305500
56.257700 2.373600
56.334800 2.325000
56.411900 2.237600
56.489000 2.028800
56.566100 1.998500
56.643100 1.870700
56.720200 1.794400
56.797300 1.898300
56.874400 2.039200
56.951500 2.148000
57.028600 2.254100
57.105600 2.284800
57.182700 2.197500
57.259800 2.101700
57.336900 1.973800
57.414000 1.908400
57.491100 1.852900
57.568200 1.714900
57.645200 1.584400
57.722300 1.627200
57.799400 1.744500
57.876500 1.765800
57.953600 1.801900
58.030700 1.811600
58.107800 1.852600
58.184800 1.937000
58.261900 1.926100
58.339000 1.991400
58.416100 1.929000
58.493200 1.850300
58.570300 1.681100
58.647400 1.630200
58.724400 1.596000
58.801500 1.624500
58.878600 1.730500
58.955700 1.887100
59.032800 1.973100
59.109900 1.953100
59.187000 1.933100
59.264000 1.901300
59.341100 1.868600
59.418200 1.831500
59.495300 1.828100
59.572400 1.878900
59.649500 1.853100
59.726600 1.801500
59.803600 1.794300
59.880700 1.783900
59.957800 1.784900
60.034900 1.854600
60.112000 1.854900
60.189100 1.846900
60.266200 1.920500
60.343200 1.976200
60.420300 1.949700
60.497400 1.854900
60.574500 1.823400
60.651600 1.782700
60.728700 1.795700
60.805800 1.830500
60.882800 1.877200
60.959900 1.917300
61.037000 2.006200
61.114100 1.992100
61.191200 1.919700
61.268300 1.886700
61.345400 1.772500
61.422400 1.716000
61.499500 1.719100
61.576600 1.771100
61.653700 1.807700
61.730800 1.802500
61.807900 1.821300
61.885000 1.884700
61.962000 1.885600
62.039100 1.864800
62.116200 1.835400
62.193300 1.892500
62.270400 1.884800
62.347500 1.880300
62.424600 1.941700
62.501600 2.011100
62.578700 2.071400
62.655800 2.018600
62.732900 1.896600
62.810000 1.847900
62.887100 1.891400
62.964200 1.929100
63.041200 1.948900
63.118300 1.915200
63.195400 1.805400
63.272500 1.825700
63.349600 1.923000
63.426700 2.044400
63.503800 2.136200
63.580800 2.111400
63.657900 2.025200
63.735000 1.931900
63.812100 1.957400
63.889200 1.852000
63.966300 1.846800
64.043300 1.930900
64.120400 1.883000
64.197500 1.844300
64.274600 1.910100
64.351700 1.871300
64.428800 2.041100
64.505900 2.246100
64.582900 2.292800
64.660000 2.255100
64.737100 2.215300
64.814200 2.134800
64.891300 1.946900
64.968400 1.827800
65.045500 1.824300
65.122500 1.837400
65.199600 1.812600
65.276700 1.768300
65.353800 1.835200
65.430900 1.895300
65.508000 1.975200
65.585100 1.980000
65.662100 1.990900
65.739200 2.013300
65.816300 2.013800
65.893400 1.956600
65.970500 1.896700
66.047600 1.832100
66.124700 1.829100
66.201700 1.864200
66.278800 1.962200
66.355900 2.028400
66.433000 1.987500
66.510100 2.000800
66.587200 2.017900
66.664300 2.032100
66.741300 2.021700
66.818400 2.024200
66.895500 1.999700
66.972600 2.020700
67.049700 1.982900
67.126800 1.903100
67.203900 1.866300
67.280900 1.882400
67.358000 1.952200
67.435100 2.060400
67.512200 2.059500
67.589300 2.100800
67.666400 2.176200
67.743500 2.223100
67.820500 2.214100
67.897600 2.053600
67.974700 1.918400
68.051800 1.872100
68.128900 1.851400
68.206000 1.831600
68.283100 1.825400
68.360100 1.907400
68.437200 1.931600
68.514300 1.918600
68.591400 1.914700
68.668500 2.001500
68.745600 2.142900
68.822700 2.236100
68.899700 2.206600
68.976800 2.161600
69.053900 2.144900
69.131000 2.127200
69.208100 2.067400
69.285200 1.999000
69.362300 1.969300
69.439300 1.919700
69.516400 1.893900
69.593500 1.949700
69.670600 2.052400
69.747700 2.125200
69.824800 2.177000
69.901900 2.148300
69.978900 2.130400
70.056000 2.183400
70.133100 2.204200
70.210200 2.108300
70.287300 1.995300
70.364400 1.909400
70.441500 1.914400
70.518500 1.984500
70.595600 2.029000
70.672700 1.986700
70.749800 2.018600
70.826900 2.013300
70.904000 1.895400
70.981000 1.858000
71.058100 1.962600
71.135200 2.041300
71.212300 2.107200
71.289400 2.124600
71.366500 2.093100
71.443600 2.090000
71.520600 2.083500
71.597700 2.129600
71.674800 1.996700
71.751900 2.000200
71.829000 1.963500
71.906100 1.928200
71.983200 1.890900
72.060200 2.003300
72.137300 1.958200
72.214400 2.003500
72.291500 2.010100
72.368600 2.074800
72.445700 2.210100
72.522800 2.305800
72.599800 2.310300
72.676900 2.208600
72.754000 2.160000
72.831100 2.103400
72.908200 2.113800
72.985300 2.081400
73.062400 2.091700
73.139400 2.183200
73.216500 2.003300
73.293600 1.842400
73.370700 1.825500
73.447800 1.887700
73.524900 1.975700
73.602000 1.914700
73.679000 1.930200
73.756100 1.921400
73.833200 1.988800
73.910300 2.052300
73.987400 2.104300
74.064500 2.142800
74.141600 2.161000
74.218600 2.160400
74.295700 2.111600
74.372800 2.064200
74.449900 2.037300
74.527000 2.009300
74.604100 1.853400
74.681200 1.899600
74.758200 2.009000
74.835300 2.150400
74.912400 2.205900
74.989500 2.242800
75.066600 2.294500
75.143700 2.194100
75.220800 2.118700
75.297800 2.072800
75.374900 2.070700
75.452000 2.021300
75.529100 2.022800
75.606200 2.075700
75.683300 2.077400
75.760400 1.963100
75.837400 1.867300
75.914500 1.827300
75.991600 1.788200
76.068700 1.808500
76.145800 1.845400
76.222900 1.960700
76.300000 2.079500
76.377000 2.131800
76.454100 2.198000
76.531200 2.354700
76.608300 2.307600
76.685400 2.294400
76.762500 2.156400
76.839600 2.059300
76.916600 1.951200
76.993700 1.856000
77.070800 1.835900
77.147900 1.831300
77.225000 1.864400
77.302100 1.879800
77.379200 1.937400
77.456200 1.970000
77.533300 1.950200
77.610400 1.974000
77.687500 2.054100
77.764600 2.134900
77.841700 2.195000
77.918700 2.299700
77.995800 2.400200
78.072900 2.383900
78.150000 2.398800
78.227100 2.397700
78.304200 2.215400
78.381300 2.086300
78.458300 2.079800
78.535400 2.085600
78.612500 2.062300
78.689600 2.019200
78.766700 2.031600
78.843800 2.138100
78.920900 2.275600
78.997900 2.292100
79.075000 2.461200
79.152100 2.506000
79.229200 2.215400
79.306300 2.196000
79.383400 2.112100
79.460500 2.079500
79.537500 2.187300
79.614600 2.264200
79.691700 2.186300
79.768800 2.190200
79.845900 2.210000
79.923000 2.182600
80.000100 2.147400
80.077100 2.149300
80.154200 2.020100
80.231300 1.994600
80.308400 2.034900
80.385500 2.113500
80.462600 2.131200
80.539700 2.101900
80.616700 2.096900
80.693800 2.127300
80.770900 2.086000
80.848000 2.119200
80.925100 2.175000
81.002200 2.111700
81.079300 2.065100
81.156300 1.968600
81.233400 1.939300
81.310500 2.037500
81.387600 2.159200
81.464700 2.262600
81.541800 2.410900
81.618900 2.473800
81.695900 2.574300
81.773000 2.420000
81.850100 2.287300
81.927200 2.238200
82.004300 2.159300
82.081400 2.118000
82.158500 2.164600
82.235500 2.226100
82.312600 2.191500
82.389700 2.195400
82.466800 2.119600
82.543900 2.127500
82.621000 2.152700
82.698100 2.198800
82.775100 2.206700
82.852200 2.198000
82.929300 2.123200
83.006400 2.139900
83.083500 2.048300
83.160600 1.847100
83.237700 1.788500
83.314700 1.787000
83.391800 1.851500
83.468900 2.037700
83.546000 2.185500
83.623100 2.280600
83.700200 2.253100
83.777300 2.260500
83.854300 2.354200
83.931400 2.245000
84.008500 2.186100
84.085600 2.202100
84.162700 2.176500
84.239800 2.107800
84.316900 2.137200
84.393900 2.099600
84.471000 2.187200
84.548100 2.338900
84.625200 2.384800
84.702300 2.335000
84.779400 2.257500
84.856400 2.240300
84.933500 2.139900
85.010600 2.137200
85.087700 2.077800
85.164800 2.034900
85.241900 2.167800
85.319000 2.224400
85.396000 2.317500
85.473100 2.280900
85.550200 2.340800
85.627300 2.309700
85.704400 2.274000
85.781500 2.239600
85.858600 2.244200
85.935600 2.243300
86.012700 2.278400
86.089800 2.294400
86.166900 2.263700
86.244000 2.206600
86.321100 2.212100
86.398200 2.136900
86.475200 2.107700
86.552300 2.084100
86.629400 2.049100
86.706500 2.081100
86.783600 2.094000
86.860700 2.016700
86.937800 2.037900
87.014800 2.142700
87.091900 2.163100
87.169000 2.139700
87.246100 2.101200
87.323200 2.101800
87.400300 2.080900
87.477400 2.107600
87.554400 2.175100
87.631500 2.200000
87.708600 2.194200
87.785700 2.213200
87.862800 2.178200
87.939900 2.156500
88.017000 2.139500
88.094000 2.090300
88.171100 2.078200
88.248200 2.084600
88.325300 2.129400
88.402400 2.186500
88.479500 2.195500
88.556600 2.197600
88.633600 2.219800
88.710700 2.310200
88.787800 2.293600
88.864900 2.285300
88.942000 2.255400
89.019100 2.260900
89.096200 2.276000
89.173200 2.232200
89.250300 2.209200
89.327400 2.203000
89.404500 2.224800
89.481600 2.230100
89.558700 2.240200
89.635800 2.218600
89.712800 2.145400
89.789900 2.131200
89.867000 2.213300
89.944100 2.235300
90.021200 2.213400
90.098300 2.151300
90.175400 2.097700
90.252400 2.107300
90.329500 2.107200
90.406600 2.099300
90.483700 2.117600
90.560800 2.162000
90.637900 2.209300
90.715000 2.286600
90.792000 2.375400
90.869100 2.296100
90.946200 2.167600
91.023300 2.117200
91.100400 2.064800
91.177500 2.049900
91.254600 2.069100
91.331600 2.044900
91.408700 2.122000
91.485800 2.006500
91.562900 1.915200
91.640000 1.867600
91.717100 1.856000
91.794100 1.899300
91.871200 1.954200
91.948300 1.980600
92.025400 1.976400
92.102500 1.992300
92.179600 1.966500
92.256700 2.028300
92.333700 2.139700
92.410800 2.043100
92.487900 2.009600
92.565000 2.033200
92.642100 1.992800
92.719200 1.978500
92.796300 1.961500
92.873300 1.884200
92.950400 1.881500
93.027500 1.841900
93.104600 1.843600
93.181700 1.861200
93.258800 1.907600
93.335900 1.895900
93.412900 1.852800
93.490000 1.722700
93.567100 1.657000
93.644200 1.709000
93.721300 1.779200
93.798400 1.963000
93.875500 1.942000
93.952500 1.921900
94.029600 1.750500
94.106700 1.587000
94.183800 1.529700
94.260900 1.465300
94.338000 1.410900
94.415100 1.367000
94.492100 1.345700
94.569200 1.293100
94.646300 1.269400
94.723400 1.277600
94.800500 1.302600
94.877600 1.336200
94.954700 1.224800
95.031700 0.992900
95.108800 0.850100
95.185900 0.768000
95.263000 0.688500
95.340100 0.627000
95.417200 0.580000
95.494300 0.527700
95.571300 0.497000
95.648400 0.440900
95.725500 0.410200
95.802600 0.424500
95.879700 0.383000
95.956800 0.325300
96.033900 0.253400
96.110900 0.183300
96.188000 0.164800
96.265100 0.148400
96.342200 0.132200
96.419300 0.115200
96.496400 0.102900
96.573500 0.094100
96.650500 0.081600
96.727600 0.066400
96.804700 0.054400
96.881800 0.043300
96.958900 0.033200
97.036000 0.021800
97.113100 0.010400
97.190100 0.003600
97.267200 0.001300
97.344300 0.000300
97.421400 0.000000
97.498500 0.000000
97.575600 0.000000
97.652700 0.000000
97.729700 0.000000
97.806800 0.000000
97.883900 0.000000
97.961000 0.000000
98.038100 0.000000
98.115200 0.000000
98.192300 0.000000
98.269300 0.000000
98.346400 0.000000
98.423500 0.000000
98.500600 0.000000
98.577700 0.000000
98.654800 0.000000
98.731800 0.000000
98.808900 0.000000
98.886000 0.000000
98.963100 0.000000
99.040200 0.000000
99.117300 0.000000
99.194400 0.000000
99.271400 0.000000
99.348500 0.000000
99.425600 0.000000
99.502700 0.000000
99.579800 0.000000
99.656900 0.000000
99.734000 0.000000
99.811000 0.000000
99.888100 0.000000
99.965200 0.000000
100.042300 0.000000
100.119400 0.000000
100.196500 0.000000
100.273600 0.000000
100.350600 0.000000
100.427700 0.000000
100.504800 0.000000
100.581900 0.000000
100.659000 0.000000
100.736100 0.000000
100.813200 0.000000
100.890200 0.000000
100.967300 0.000000
101.044400 0.000000
101.121500 0.000000
101.198600 0.000000
101.275700 0.000000
101.352800 0.000000
101.429800 0.000000
101.506900 0.000000
101.584000 0.000000
101.661100 0.000000
101.738200 0.000000
101.815300 0.000000
101.892400 0.000000
101.969400 0.000000
102.046500 0.000000
102.123600 0.000000
102.200700 0.000000
102.277800 0.000000
102.354900 0.000000
102.432000 0.000000
102.509000 0.000000
102.586100 0.000000
102.663200 0.000000
102.740300 0.000000
102.817400 0.000000
102.894500 0.000000
102.971600 0.000000
103.048600 0.000000
103.125700 0.000000
103.202800 0.000000
103.279900 0.000000
103.357000 0.000000
103.434100 0.000000
103.511200 0.000000
103.588200 0.000000
103.665300 0.000000
103.742400 0.000000
103.819500 0.000000
103.896600 0.000000
103.973700 0.000000
104.050800 0.000000
104.127800 0.000000
104.204900 0.000000
104.282000 0.000000
104.359100 0.000000
104.436200 0.000000
e
