set title 'mp-484 - Density of States'
set xlabel 'Energy (eV)'
set ylabel 'DOS (states/eV)'
set grid
set xrange [-10:10]
set yrange [0:23.863]
set xzeroaxis lt -1
set terminal png size 800,600
set output 'mp-484_dos_gnuplot.png'
plot '-' using 1:2 with lines title 'DOS'
-10.212200 0.000000
-10.196700 0.000000
-10.181200 0.000000
-10.165700 0.000000
-10.150200 0.000000
-10.134700 0.000000
-10.119200 0.000000
-10.103700 0.000000
-10.088200 0.000000
-10.072700 0.000000
-10.057200 0.000000
-10.041700 0.000000
-10.026200 0.000000
-10.010700 0.000000
-9.995200 0.000000
-9.979700 0.000000
-9.964200 0.000000
-9.948700 0.000000
-9.933200 0.000000
-9.917700 0.000000
-9.902200 0.000000
-9.886600 0.000000
-9.871100 0.000000
-9.855600 0.000000
-9.840100 0.000000
-9.824600 0.000000
-9.809100 0.000000
-9.793600 0.000000
-9.778100 0.000000
-9.762600 0.000000
-9.747100 0.000000
-9.731600 0.000000
-9.716100 0.000000
-9.700600 0.000000
-9.685100 0.000000
-9.669600 0.000000
-9.654100 0.000000
-9.638600 0.000000
-9.623100 0.000000
-9.607600 0.000000
-9.592100 0.000000
-9.576600 0.000000
-9.561100 0.000000
-9.545600 0.000000
-9.530100 0.000000
-9.514600 0.000000
-9.499100 0.000000
-9.483600 0.000000
-9.468100 0.000000
-9.452600 0.000000
-9.437100 0.000000
-9.421600 0.000000
-9.406100 0.000000
-9.390600 0.000000
-9.375100 0.000000
-9.359500 0.000000
-9.344000 0.000000
-9.328500 0.000000
-9.313000 0.000000
-9.297500 0.000000
-9.282000 0.000000
-9.266500 0.000000
-9.251000 0.000000
-9.235500 0.000000
-9.220000 0.000000
-9.204500 0.000000
-9.189000 0.000000
-9.173500 0.000000
-9.158000 0.000000
-9.142500 0.000000
-9.127000 0.000000
-9.111500 0.000000
-9.096000 0.000000
-9.080500 0.000000
-9.065000 0.000000
-9.049500 0.000000
-9.034000 0.000000
-9.018500 0.000000
-9.003000 0.000000
-8.987500 0.000000
-8.972000 0.000000
-8.956500 0.000000
-8.941000 0.000000
-8.925500 0.000000
-8.910000 0.000000
-8.894500 0.000000
-8.879000 0.000000
-8.863500 0.000000
-8.848000 0.000000
-8.832400 0.000000
-8.816900 0.000000
-8.801400 0.000100
-8.785900 0.019000
-8.770400 0.069900
-8.754900 0.152700
-8.739400 0.265200
-8.723900 0.404300
-8.708400 0.570000
-8.692900 0.762000
-8.677400 1.033700
-8.661900 1.324700
-8.646400 1.587100
-8.630900 1.801800
-8.615400 1.976200
-8.599900 2.115800
-8.584400 2.182600
-8.568900 2.182700
-8.553400 2.182700
-8.537900 2.182700
-8.522400 2.182800
-8.506900 2.182800
-8.491400 2.182900
-8.475900 2.182900
-8.460400 2.182900
-8.444900 2.183000
-8.429400 2.183000
-8.413900 2.183100
-8.398400 2.183100
-8.382900 2.183200
-8.367400 2.183200
-8.351900 2.183300
-8.336400 2.356100
-8.320900 2.563400
-8.305400 2.742800
-8.289800 2.926700
-8.274300 2.969000
-8.258800 2.956100
-8.243300 2.907800
-8.227800 2.846800
-8.212300 2.669200
-8.196800 2.600000
-8.181300 2.547200
-8.165800 2.510700
-8.150300 2.390400
-8.134800 2.464100
-8.119300 2.537900
-8.103800 2.611900
-8.088300 2.686000
-8.072800 2.760300
-8.057300 2.834800
-8.041800 2.909400
-8.026300 2.984100
-8.010800 3.053700
-7.995300 3.109400
-7.979800 3.151000
-7.964300 3.176900
-7.948800 3.185100
-7.933300 3.185200
-7.917800 3.185200
-7.902300 3.051600
-7.886800 2.969100
-7.871300 2.877900
-7.855800 2.705900
-7.840300 2.667600
-7.824800 2.630000
-7.809300 2.593300
-7.793800 2.557500
-7.778300 2.528900
-7.762700 2.537700
-7.747200 2.605300
-7.731700 2.715800
-7.716200 2.826300
-7.700700 2.935700
-7.685200 3.044100
-7.669700 3.151400
-7.654200 3.257600
-7.638700 3.394900
-7.623200 3.546700
-7.607700 3.688600
-7.592200 3.820800
-7.576700 3.948400
-7.561200 4.074700
-7.545700 4.200200
-7.530200 4.322300
-7.514700 4.428000
-7.499200 4.515900
-7.483700 4.586000
-7.468200 4.590800
-7.452700 4.589800
-7.437200 4.588800
-7.421700 4.588000
-7.406200 4.587300
-7.390700 4.586800
-7.375200 4.576000
-7.359700 4.556300
-7.344200 4.520300
-7.328700 4.484100
-7.313200 4.453400
-7.297700 4.428300
-7.282200 4.408700
-7.266700 4.394600
-7.251200 4.386100
-7.235600 4.383000
-7.220100 4.385500
-7.204600 4.399400
-7.189100 4.441200
-7.173600 4.466500
-7.158100 4.485800
-7.142600 4.504000
-7.127100 4.521200
-7.111600 4.582900
-7.096100 4.605100
-7.080600 4.601200
-7.065100 4.585900
-7.049600 4.494600
-7.034100 4.332200
-7.018600 4.072400
-7.003100 3.527700
-6.987600 3.141900
-6.972100 2.702800
-6.956600 2.460300
-6.941100 2.468600
-6.925600 2.478700
-6.910100 2.490600
-6.894600 2.504300
-6.879100 2.519700
-6.863600 2.537000
-6.848100 2.556000
-6.832600 2.576800
-6.817100 1.216800
-6.801600 1.090500
-6.786100 1.390000
-6.770600 1.464400
-6.755100 1.723200
-6.739600 2.158300
-6.724100 2.302000
-6.708600 2.448500
-6.693000 2.624600
-6.677500 2.813300
-6.662000 3.009400
-6.646500 3.269100
-6.631000 3.660500
-6.615500 3.852400
-6.600000 4.077200
-6.584500 4.262100
-6.569000 4.321900
-6.553500 4.319500
-6.538000 4.317500
-6.522500 4.315700
-6.507000 4.314400
-6.491500 4.441700
-6.476000 4.590200
-6.460500 4.745400
-6.445000 4.907400
-6.429500 5.077700
-6.414000 5.258600
-6.398500 5.450300
-6.383000 5.652600
-6.367500 5.862200
-6.352000 6.151100
-6.336500 6.358300
-6.321000 6.341100
-6.305500 6.285400
-6.290000 6.146600
-6.274500 5.863400
-6.259000 5.630500
-6.243500 5.285100
-6.228000 4.986000
-6.212500 4.770200
-6.197000 4.638700
-6.181500 4.572300
-6.165900 4.803300
-6.150400 5.192400
-6.134900 6.068300
-6.119400 7.400500
-6.103900 8.555200
-6.088400 9.741100
-6.072900 10.958200
-6.057400 14.342000
-6.041900 18.351800
-6.026400 17.585000
-6.010900 14.200500
-5.995400 8.557300
-5.979900 12.865200
-5.964400 21.693800
-5.948900 13.775000
-5.933400 11.578800
-5.917900 9.582700
-5.902400 7.749500
-5.886900 5.615200
-5.871400 3.309700
-5.855900 1.507000
-5.840400 0.468100
-5.824900 0.019800
-5.809400 0.000000
-5.793900 0.000000
-5.778400 0.000000
-5.762900 0.000000
-5.747400 0.000000
-5.731900 0.000000
-5.716400 0.000000
-5.700900 0.000000
-5.685400 0.000000
-5.669900 0.000000
-5.654400 0.000000
-5.638800 0.000000
-5.623300 0.000000
-5.607800 0.000000
-5.592300 0.011000
-5.576800 0.684500
-5.561300 1.520800
-5.545800 1.980200
-5.530300 2.318100
-5.514800 2.651400
-5.499300 2.980000
-5.483800 3.304000
-5.468300 3.623400
-5.452800 3.938100
-5.437300 3.975900
-5.421800 3.964900
-5.406300 3.954900
-5.390800 3.945800
-5.375300 3.937800
-5.359800 3.930900
-5.344300 3.924900
-5.328800 3.919900
-5.313300 3.916000
-5.297800 3.913000
-5.282300 3.911100
-5.266800 3.910100
-5.251300 3.910200
-5.235800 3.911300
-5.220300 3.913400
-5.204800 3.916500
-5.189300 3.819600
-5.173800 3.652100
-5.158300 3.480900
-5.142800 3.285100
-5.127300 3.078500
-5.111800 2.961800
-5.096200 2.909800
-5.080700 2.859000
-5.065200 2.809200
-5.049700 2.718000
-5.034200 2.522800
-5.018700 2.222900
-5.003200 1.794200
-4.987700 0.803900
-4.972200 0.645900
-4.956700 0.779100
-4.941200 1.034100
-4.925700 1.576200
-4.910200 2.936200
-4.894700 3.876500
-4.879200 4.067200
-4.863700 4.343300
-4.848200 4.744700
-4.832700 4.866900
-4.817200 4.909700
-4.801700 4.922500
-4.786200 4.982900
-4.770700 5.102900
-4.755200 5.257400
-4.739700 5.423600
-4.724200 5.538300
-4.708700 5.472800
-4.693200 4.963000
-4.677700 4.942700
-4.662200 4.922900
-4.646700 4.909500
-4.631200 4.902500
-4.615700 4.901800
-4.600200 4.907600
-4.584700 4.919700
-4.569100 4.938200
-4.553600 4.963100
-4.538100 4.994300
-4.522600 5.031900
-4.507100 5.076000
-4.491600 5.126300
-4.476100 5.183100
-4.460600 5.246300
-4.445100 5.315800
-4.429600 5.380500
-4.414100 5.428500
-4.398600 5.462400
-4.383100 5.409900
-4.367600 4.863200
-4.352100 4.538100
-4.336600 4.281800
-4.321100 4.088000
-4.305600 3.927700
-4.290100 3.749900
-4.274600 3.553900
-4.259100 3.339500
-4.243600 3.115200
-4.228100 2.876400
-4.212600 2.675100
-4.197100 2.607600
-4.181600 2.603400
-4.166100 2.612600
-4.150600 2.635300
-4.135100 2.671300
-4.119600 2.717300
-4.104100 2.763300
-4.088600 2.805800
-4.073100 2.842600
-4.057600 2.873700
-4.042000 2.899200
-4.026500 2.961700
-4.011000 3.003000
-3.995500 3.002200
-3.980000 2.994700
-3.964500 2.980500
-3.949000 2.960400
-3.933500 2.934600
-3.918000 2.903200
-3.902500 2.866200
-3.887000 2.823500
-3.871500 2.775600
-3.856000 2.735200
-3.840500 2.709300
-3.825000 2.697800
-3.809500 2.634500
-3.794000 2.566000
-3.778500 2.499100
-3.763000 2.433700
-3.747500 2.370000
-3.732000 2.309100
-3.716500 2.269800
-3.701000 2.258700
-3.685500 2.267000
-3.670000 2.252300
-3.654500 2.212600
-3.639000 2.125900
-3.623500 2.021400
-3.608000 2.023600
-3.592500 2.007400
-3.577000 1.985200
-3.561500 1.963700
-3.546000 1.942700
-3.530500 1.922400
-3.515000 1.902600
-3.499400 1.929900
-3.483900 1.929800
-3.468400 1.911900
-3.452900 1.893100
-3.437400 1.873500
-3.421900 1.847500
-3.406400 1.710900
-3.390900 1.649900
-3.375400 1.654400
-3.359900 1.652600
-3.344400 1.650700
-3.328900 1.648900
-3.313400 1.647100
-3.297900 1.645300
-3.282400 1.643600
-3.266900 1.641900
-3.251400 1.640300
-3.235900 1.638700
-3.220400 1.637100
-3.204900 1.635600
-3.189400 1.634100
-3.173900 1.632600
-3.158400 1.586600
-3.142900 1.470600
-3.127400 1.404200
-3.111900 1.342800
-3.096400 1.281700
-3.080900 1.220800
-3.065400 1.160100
-3.049900 1.099700
-3.034400 1.039500
-3.018900 0.979600
-3.003400 0.919900
-2.987900 0.860400
-2.972300 0.801200
-2.956800 0.742200
-2.941300 0.683500
-2.925800 0.625000
-2.910300 0.566700
-2.894800 0.508700
-2.879300 0.450500
-2.863800 0.391600
-2.848300 0.331100
-2.832800 0.285200
-2.817300 0.243900
-2.801800 0.205900
-2.786300 0.171000
-2.770800 0.139400
-2.755300 0.111100
-2.739800 0.085900
-2.724300 0.064000
-2.708800 0.045300
-2.693300 0.029800
-2.677800 0.017500
-2.662300 0.008500
-2.646800 0.002700
-2.631300 0.000100
-2.615800 0.000000
-2.600300 0.000000
-2.584800 0.000000
-2.569300 0.000000
-2.553800 0.000000
-2.538300 0.000000
-2.522800 0.000000
-2.507300 0.000000
-2.491800 0.000000
-2.476300 0.000000
-2.460800 0.000000
-2.445200 0.000000
-2.429700 0.000000
-2.414200 0.000000
-2.398700 0.000000
-2.383200 0.000000
-2.367700 0.000000
-2.352200 0.000000
-2.336700 0.000000
-2.321200 0.000000
-2.305700 0.000000
-2.290200 0.000000
-2.274700 0.000000
-2.259200 0.000000
-2.243700 0.000000
-2.228200 0.000000
-2.212700 0.000000
-2.197200 0.000000
-2.181700 0.000000
-2.166200 0.000000
-2.150700 0.000000
-2.135200 0.000000
-2.119700 0.000000
-2.104200 0.000000
-2.088700 0.000000
-2.073200 0.000000
-2.057700 0.000000
-2.042200 0.000000
-2.026700 0.000000
-2.011200 0.000000
-1.995700 0.000000
-1.980200 0.000000
-1.964700 0.000000
-1.949200 0.000000
-1.933700 0.000000
-1.918200 0.000000
-1.902600 0.000000
-1.887100 0.000000
-1.871600 0.000000
-1.856100 0.000000
-1.840600 0.000000
-1.825100 0.000000
-1.809600 0.000000
-1.794100 0.000000
-1.778600 0.000000
-1.763100 0.000000
-1.747600 0.000000
-1.732100 0.000000
-1.716600 0.000000
-1.701100 0.000000
-1.685600 0.000000
-1.670100 0.000000
-1.654600 0.000000
-1.639100 0.000000
-1.623600 0.000000
-1.608100 0.000000
-1.592600 0.000000
-1.577100 0.000000
-1.561600 0.000000
-1.546100 0.000000
-1.530600 0.000000
-1.515100 0.000000
-1.499600 0.000000
-1.484100 0.000000
-1.468600 0.000000
-1.453100 0.000000
-1.437600 0.000000
-1.422100 0.000000
-1.406600 0.000000
-1.391100 0.000000
-1.375500 0.000000
-1.360000 0.000000
-1.344500 0.000000
-1.329000 0.000000
-1.313500 0.000000
-1.298000 0.000000
-1.282500 0.000000
-1.267000 0.000000
-1.251500 0.000000
-1.236000 0.000000
-1.220500 0.000000
-1.205000 0.000000
-1.189500 0.000000
-1.174000 0.000000
-1.158500 0.000000
-1.143000 0.000000
-1.127500 0.000000
-1.112000 0.000000
-1.096500 0.000000
-1.081000 0.000000
-1.065500 0.000000
-1.050000 0.000000
-1.034500 0.000000
-1.019000 0.000000
-1.003500 0.000000
-0.988000 0.000000
-0.972500 0.000000
-0.957000 0.000000
-0.941500 0.000000
-0.926000 0.000000
-0.910500 0.000000
-0.895000 0.000000
-0.879500 0.000000
-0.864000 0.000000
-0.848400 0.000000
-0.832900 0.000000
-0.817400 0.000000
-0.801900 0.000000
-0.786400 0.000000
-0.770900 0.000000
-0.755400 0.000000
-0.739900 0.000000
-0.724400 0.000000
-0.708900 0.000000
-0.693400 0.000000
-0.677900 0.000000
-0.662400 0.000000
-0.646900 0.000000
-0.631400 0.000000
-0.615900 0.000000
-0.600400 0.000500
-0.584900 0.012200
-0.569400 0.039700
-0.553900 0.083000
-0.538400 0.142100
-0.522900 0.217000
-0.507400 0.307700
-0.491900 0.414000
-0.476400 0.537800
-0.460900 0.680300
-0.445400 0.845000
-0.429900 1.032500
-0.414400 1.242600
-0.398900 1.475400
-0.383400 1.730900
-0.367900 2.350600
-0.352400 3.210900
-0.336900 3.516800
-0.321400 3.616100
-0.305800 3.727600
-0.290300 3.851500
-0.274800 3.987700
-0.259300 4.335800
-0.243800 4.816000
-0.228300 5.388800
-0.212800 6.074500
-0.197300 6.704600
-0.181800 7.052800
-0.166300 7.310800
-0.150800 7.657700
-0.135300 8.093600
-0.119800 8.455000
-0.104300 7.470100
-0.088800 6.900300
-0.073300 6.788600
-0.057800 6.701500
-0.042300 6.464200
-0.026800 6.067400
-0.011300 5.511200
0.004200 4.931900
0.019700 4.480200
0.035200 4.120900
0.050700 3.854000
0.066200 3.657900
0.081700 3.458800
0.097200 3.250600
0.112700 2.907900
0.128200 2.500400
0.143700 2.145600
0.159200 1.990100
0.174700 1.960000
0.190200 1.986400
0.205700 2.008900
0.221300 2.027400
0.236800 2.042000
0.252300 2.052700
0.267800 2.059300
0.283300 2.359600
0.298800 3.101700
0.314300 3.581200
0.329800 3.850700
0.345300 3.991600
0.360800 3.921700
0.376300 4.062400
0.391800 4.244500
0.407300 4.663300
0.422800 5.126900
0.438300 5.637200
0.453800 6.278900
0.469300 6.808800
0.484800 7.226800
0.500300 7.441500
0.515800 7.658900
0.531300 7.997300
0.546800 8.082000
0.562300 7.810000
0.577800 7.502800
0.593300 7.489000
0.608800 7.627700
0.624300 7.699500
0.639800 7.693700
0.655300 7.610600
0.670800 7.499800
0.686300 7.399800
0.701800 7.310500
0.717300 7.231900
0.732800 7.164100
0.748400 7.106900
0.763900 7.390000
0.779400 6.876400
0.794900 6.157500
0.810400 5.519600
0.825900 5.080800
0.841400 4.710800
0.856900 4.344700
0.872400 4.767700
0.887900 5.538600
0.903400 5.467200
0.918900 5.490400
0.934400 5.633000
0.949900 5.864600
0.965400 6.154000
0.980900 6.466600
0.996400 7.034400
1.011900 7.649300
1.027400 8.271800
1.042900 8.926200
1.058400 9.678600
1.073900 11.261000
1.089400 11.272500
1.104900 10.702600
1.120400 10.934800
1.135900 11.160600
1.151400 9.532300
1.166900 8.943100
1.182400 8.427600
1.197900 7.881100
1.213400 7.275800
1.228900 6.733900
1.244400 6.622700
1.259900 6.700800
1.275400 6.958800
1.291000 7.396700
1.306500 8.089600
1.322000 8.821000
1.337500 9.377100
1.353000 9.772400
1.368500 9.945400
1.384000 9.889500
1.399500 9.590600
1.415000 9.143600
1.430500 8.713600
1.446000 8.300500
1.461500 7.890100
1.477000 7.567900
1.492500 7.746400
1.508000 8.136700
1.523500 8.524800
1.539000 9.080100
1.554500 9.523200
1.570000 9.795500
1.585500 9.689400
1.601000 9.589200
1.616500 9.516500
1.632000 9.451600
1.647500 9.421500
1.663000 9.450800
1.678500 9.439500
1.694000 9.403400
1.709500 9.346600
1.725000 9.287500
1.740500 9.227100
1.756000 9.103000
1.771500 8.859000
1.787000 8.622300
1.802500 8.387200
1.818100 8.165300
1.833600 8.038800
1.849100 7.928200
1.864600 7.673200
1.880100 7.552900
1.895600 7.318400
1.911100 7.178200
1.926600 7.016900
1.942100 7.001500
1.957600 6.988300
1.973100 6.976000
1.988600 6.967200
2.004100 6.968700
2.019600 6.980300
2.035100 7.002200
2.050600 7.035400
2.066100 7.242200
2.081600 7.793300
2.097100 8.232000
2.112600 8.633500
2.128100 8.860500
2.143600 8.889400
2.159100 9.024600
2.174600 9.183800
2.190100 9.305300
2.205600 9.384500
2.221100 9.371900
2.236600 9.230300
2.252100 9.059800
2.267600 8.875900
2.283100 8.681900
2.298600 8.477900
2.314100 8.317400
2.329600 8.205500
2.345200 8.212500
2.360700 8.491700
2.376200 8.334000
2.391700 8.092900
2.407200 7.889500
2.422700 7.679800
2.438200 7.491100
2.453700 7.344100
2.469200 7.328300
2.484700 7.322700
2.500200 7.317500
2.515700 7.312900
2.531200 7.168000
2.546700 6.741400
2.562200 6.160800
2.577700 5.523300
2.593200 5.242000
2.608700 5.223100
2.624200 5.247800
2.639700 5.298200
2.655200 5.364100
2.670700 5.404400
2.686200 5.330100
2.701700 5.260700
2.717200 5.196000
2.732700 5.137900
2.748200 5.091700
2.763700 5.044000
2.779200 4.963000
2.794700 4.875100
2.810200 4.788200
2.825700 4.704000
2.841200 4.681000
2.856700 4.671100
2.872200 4.737700
2.887800 4.890700
2.903300 5.098400
2.918800 5.361000
2.934300 5.678600
2.949800 6.051200
2.965300 6.493200
2.980800 7.006300
2.996300 7.778900
3.011800 7.590900
3.027300 7.936700
3.042800 8.329400
3.058300 8.314600
3.073800 8.441400
3.089300 8.397900
3.104800 7.965400
3.120300 7.532000
3.135800 7.202500
3.151300 6.933700
3.166800 6.725500
3.182300 6.577800
3.197800 6.451200
3.213300 7.050400
3.228800 5.169900
3.244300 4.749400
3.259800 4.740800
3.275300 4.756100
3.290800 4.788800
3.306300 4.757700
3.321800 4.712300
3.337300 4.725500
3.352800 4.835200
3.368300 4.974000
3.383800 5.139300
3.399300 5.331100
3.414900 5.549400
3.430400 5.794200
3.445900 6.039800
3.461400 6.422400
3.476900 6.645200
3.492400 6.792900
3.507900 6.759800
3.523400 6.291800
3.538900 5.727200
3.554400 5.449900
3.569900 5.217000
3.585400 5.026300
3.600900 4.875900
3.616400 4.743400
3.631900 4.759800
3.647400 5.248700
3.662900 6.401100
3.678400 8.422200
3.693900 9.822600
3.709400 10.814300
3.724900 11.212500
3.740400 10.991500
3.755900 10.822400
3.771400 10.702400
3.786900 10.631600
3.802400 10.975900
3.817900 11.292000
3.833400 11.283900
3.848900 11.203200
3.864400 11.014100
3.879900 10.881300
3.895400 10.756800
3.910900 10.637500
3.926400 10.408900
3.942000 10.046500
3.957500 9.991900
3.973000 9.797200
3.988500 9.378300
4.004000 9.137900
4.019500 8.980600
4.035000 9.426500
4.050500 10.411500
4.066000 11.473500
4.081500 11.883900
4.097000 11.691700
4.112500 11.166500
4.128000 10.825500
4.143500 10.079700
4.159000 9.613700
4.174500 9.037300
4.190000 8.401800
4.205500 8.132900
4.221000 7.956700
4.236500 7.893400
4.252000 7.949700
4.267500 8.541700
4.283000 8.783000
4.298500 8.899000
4.314000 8.908200
4.329500 8.838600
4.345000 8.770500
4.360500 8.568600
4.376000 8.408100
4.391500 8.319500
4.407000 8.309200
4.422500 8.377300
4.438000 8.523900
4.453500 8.748800
4.469000 9.306800
4.484600 14.789600
4.500100 13.232800
4.515600 14.552800
4.531100 11.493400
4.546600 5.450900
4.562100 2.761100
4.577600 2.188000
4.593100 1.725100
4.608600 1.311400
4.624100 0.947100
4.639600 0.631900
4.655100 0.366100
4.670600 0.149500
4.686100 0.000000
4.701600 0.000000
4.717100 0.000000
4.732600 0.000000
4.748100 0.000000
4.763600 0.000000
4.779100 0.000000
4.794600 0.000000
4.810100 0.000000
4.825600 0.000000
4.841100 0.000000
4.856600 0.000000
4.872100 0.000000
4.887600 0.000000
4.903100 0.000000
4.918600 0.000000
4.934100 0.000000
4.949600 0.000000
4.965100 0.000000
4.980600 0.000000
4.996100 0.000000
5.011700 0.000000
5.027200 0.000000
5.042700 0.000000
5.058200 0.000000
5.073700 0.000000
5.089200 0.000000
5.104700 0.000000
5.120200 0.000000
5.135700 0.000000
5.151200 0.000000
5.166700 0.000000
5.182200 0.000000
5.197700 0.000000
5.213200 0.000000
5.228700 0.000000
5.244200 0.000000
5.259700 0.000000
5.275200 0.009100
5.290700 0.026300
5.306200 0.046900
5.321700 0.071000
5.337200 0.098500
5.352700 0.134900
5.368200 0.194500
5.383700 0.278000
5.399200 0.492600
5.414700 0.997900
5.430200 1.280600
5.445700 1.504200
5.461200 1.690800
5.476700 1.840300
5.492200 1.952800
5.507700 2.034600
5.523200 2.102800
5.538800 2.158700
5.554300 2.224500
5.569800 2.312700
5.585300 2.423400
5.600800 2.531100
5.616300 2.649800
5.631800 2.773500
5.647300 2.916700
5.662800 3.087100
5.678300 3.284600
5.693800 3.509300
5.709300 3.761000
5.724800 4.040100
5.740300 4.349300
5.755800 4.690700
5.771300 5.068900
5.786800 5.488800
5.802300 5.968500
5.817800 6.510100
5.833300 6.997200
5.848800 7.314600
5.864300 7.517300
5.879800 7.773500
5.895300 7.637800
5.910800 7.482700
5.926300 7.484300
5.941800 8.436600
5.957300 7.721000
5.972800 4.772200
5.988300 3.794800
6.003800 3.222200
6.019300 3.093300
6.034800 3.180400
6.050300 3.304200
6.065800 3.631100
6.081400 5.525000
6.096900 7.426200
6.112400 8.661200
6.127900 9.461300
6.143400 9.948500
6.158900 10.380500
6.174400 10.609600
6.189900 10.628700
6.205400 10.311700
6.220900 9.632500
6.236400 8.686200
6.251900 8.470600
6.267400 8.266600
6.282900 8.086600
6.298400 8.026300
6.313900 8.110500
6.329400 8.654600
6.344900 9.795900
6.360400 10.769800
6.375900 11.805600
6.391400 10.336900
6.406900 9.234700
6.422400 8.426800
6.437900 8.048500
6.453400 8.006900
6.468900 7.822800
6.484400 7.523400
6.499900 8.069000
6.515400 7.648100
6.530900 7.389500
6.546400 7.242200
6.561900 7.157700
6.577400 7.135400
6.592900 7.159900
6.608500 7.192000
6.624000 7.232600
6.639500 7.290000
6.655000 7.778900
6.670500 8.904700
6.686000 6.382500
6.701500 6.001500
6.717000 5.787700
6.732500 5.614700
6.748000 5.564900
6.763500 5.628300
6.779000 5.581300
6.794500 6.557700
6.810000 7.686600
6.825500 8.640100
6.841000 9.506000
6.856500 10.353400
6.872000 11.099800
6.887500 11.740000
6.903000 12.378400
6.918500 10.890800
6.934000 6.838100
6.949500 6.440000
6.965000 6.103500
6.980500 5.854300
6.996000 5.753300
7.011500 5.491900
7.027000 5.322300
7.042500 5.248000
7.058000 5.349800
7.073500 5.616500
7.089000 6.003600
7.104500 6.565200
7.120000 7.180400
7.135600 8.167000
7.151100 9.766000
7.166600 11.105000
7.182100 12.285100
7.197600 12.322200
7.213100 10.625500
7.228600 9.790700
7.244100 9.018000
7.259600 8.417100
7.275100 8.149400
7.290600 7.732000
7.306100 7.620600
7.321600 7.656500
7.337100 7.492800
7.352600 7.374900
7.368100 7.611300
7.383600 7.864000
7.399100 8.132700
7.414600 8.417300
7.430100 8.739800
7.445600 9.174100
7.461100 9.616600
7.476600 9.998600
7.492100 10.161200
7.507600 9.963600
7.523100 9.370100
7.538600 8.543700
7.554100 7.976000
7.569600 7.526800
7.585100 7.134900
7.600600 6.800200
7.616100 6.522800
7.631600 6.690200
7.647100 6.932400
7.662600 7.072200
7.678200 7.220700
7.693700 7.440200
7.709200 9.860200
7.724700 10.453300
7.740200 10.701600
7.755700 10.391600
7.771200 10.186500
7.786700 10.095100
7.802200 9.181800
7.817700 9.076400
7.833200 9.117100
7.848700 9.234900
7.864200 9.602500
7.879700 9.977300
7.895200 10.388200
7.910700 10.943600
7.926200 11.224600
7.941700 9.999300
7.957200 7.301600
7.972700 6.575100
7.988200 6.128700
8.003700 5.754800
8.019200 5.491700
8.034700 5.229800
8.050200 4.328200
8.065700 4.430300
8.081200 4.526200
8.096700 4.617500
8.112200 4.707100
8.127700 4.794600
8.143200 4.895800
8.158700 5.026300
8.174200 5.186100
8.189700 5.375200
8.205300 5.608300
8.220800 5.956700
8.236300 6.274800
8.251800 6.480600
8.267300 6.535100
8.282800 6.438100
8.298300 6.189600
8.313800 6.137700
8.329300 6.166200
8.344800 6.179600
8.360300 6.177800
8.375800 6.160800
8.391300 7.554100
8.406800 4.940600
8.422300 4.737700
8.437800 6.038200
8.453300 7.728900
8.468800 8.130600
8.484300 7.592200
8.499800 7.349100
8.515300 6.885900
8.530800 6.373100
8.546300 5.917700
8.561800 5.522400
8.577300 5.188500
8.592800 4.916100
8.608300 4.705300
8.623800 4.567700
8.639300 4.534000
8.654800 4.849000
8.670300 5.538000
8.685800 5.930600
8.701300 6.094200
8.716800 5.980800
8.732400 5.711200
8.747900 5.285500
8.763400 6.698800
8.778900 4.922000
8.794400 4.378900
8.809900 4.084500
8.825400 3.811700
8.840900 3.560500
8.856400 3.331000
8.871900 3.126900
8.887400 2.949700
8.902900 2.799700
8.918400 2.676700
8.933900 2.580800
8.949400 2.512000
8.964900 2.540600
8.980400 2.581200
8.995900 2.612100
9.011400 2.626000
9.026900 2.675300
9.042400 2.532400
9.057900 2.264200
9.073400 2.057700
9.088900 1.924600
9.104400 1.862300
9.119900 1.970600
9.135400 2.104900
9.150900 2.250500
9.166400 2.407300
9.181900 2.658100
9.197400 2.927700
9.212900 3.181100
9.228400 3.418300
9.243900 3.639200
9.259400 3.844000
9.275000 4.032600
9.290500 4.204900
9.306000 4.361100
9.321500 4.501000
9.337000 4.624800
9.352500 4.744900
9.368000 4.936800
9.383500 5.119300
9.399000 5.189000
9.414500 5.170800
9.430000 5.147400
9.445500 5.058000
9.461000 4.921500
9.476500 4.711300
9.492000 4.468300
9.507500 4.407300
9.523000 4.221000
9.538500 4.022900
9.554000 3.827100
9.569500 3.633700
9.585000 3.442600
9.600500 3.253900
9.616000 3.067500
9.631500 2.883500
9.647000 2.794600
9.662500 2.923200
9.678000 3.029300
9.693500 3.112800
9.709000 3.180400
9.724500 3.158800
9.740000 3.228400
9.755500 3.384800
9.771000 3.544100
9.786500 3.634300
9.802100 3.735200
9.817600 3.581500
9.833100 3.408600
9.848600 3.276000
9.864100 3.183300
9.879600 3.108900
9.895100 3.037600
9.910600 2.969300
9.926100 2.904000
9.941600 2.841700
9.957100 2.778400
9.972600 2.703200
9.988100 2.629600
10.003600 2.557600
10.019100 2.487100
10.034600 2.418100
10.050100 2.350000
10.065600 2.279900
10.081100 2.293100
10.096600 2.403200
10.112100 2.416100
10.127600 2.429900
10.143100 2.468300
10.158600 2.492900
10.174100 2.381800
10.189600 2.326000
10.205100 2.321700
10.220600 2.330100
10.236100 2.351200
10.251600 2.385000
10.267100 2.431500
10.282600 2.490800
10.298100 2.562700
10.313600 2.647300
10.329200 2.744700
10.344700 2.854700
10.360200 2.994500
10.375700 3.330600
10.391200 3.903600
10.406700 4.220600
10.422200 4.451100
10.437700 4.605700
10.453200 4.697500
10.468700 4.786100
10.484200 4.878900
10.499700 4.975800
10.515200 5.076900
10.530700 5.219500
10.546200 5.378500
10.561700 5.662100
10.577200 6.554600
10.592700 7.427600
10.608200 8.139900
10.623700 8.189100
10.639200 8.309300
10.654700 8.265700
10.670200 8.003800
10.685700 7.558500
10.701200 7.057300
10.716700 6.615400
10.732200 6.368700
10.747700 6.280900
10.763200 6.482500
10.778700 6.752000
10.794200 7.015900
10.809700 7.273700
10.825200 7.572700
10.840700 8.572500
10.856200 7.710600
10.871800 5.663600
10.887300 4.248200
10.902800 3.632600
10.918300 3.153300
10.933800 2.673400
10.949300 2.339600
10.964800 2.061600
10.980300 2.751800
10.995800 3.374100
11.011300 3.490000
11.026800 3.596700
11.042300 3.694100
11.057800 3.794200
11.073300 4.077700
11.088800 5.093800
11.104300 6.140200
11.119800 6.953100
11.135300 7.490100
11.150800 7.728600
11.166300 7.691500
11.181800 7.558900
11.197300 7.246200
11.212800 6.623100
11.228300 5.894100
11.243800 5.288700
11.259300 5.164500
11.274800 5.058400
11.290300 4.833600
11.305800 4.636200
11.321300 4.483200
11.336800 4.401900
11.352300 4.404000
11.367800 4.476700
11.383300 4.569000
11.398900 4.675800
11.414400 4.793200
11.429900 4.906700
11.445400 5.051000
11.460900 5.289500
11.476400 5.440900
11.491900 5.470600
11.507400 5.365400
11.522900 5.177100
11.538400 5.163900
11.553900 5.254900
11.569400 5.534000
11.584900 5.820300
11.600400 5.984000
11.615900 6.126500
11.631400 6.179500
11.646900 6.134600
11.662400 6.257600
11.677900 6.363700
11.693400 6.452700
11.708900 6.523700
11.724400 6.569600
11.739900 6.607000
11.755400 6.684200
11.770900 6.684400
11.786400 6.607500
11.801900 6.445300
11.817400 6.171100
11.832900 5.926100
11.848400 6.242900
11.863900 6.564800
11.879400 7.182600
11.894900 8.210600
11.910400 5.802700
11.926000 5.722300
11.941500 5.615100
11.957000 5.597900
11.972500 5.613100
11.988000 5.627300
12.003500 5.655100
12.019000 5.805800
12.034500 5.885900
12.050000 5.953400
12.065500 6.094000
12.081000 7.252000
12.096500 9.042500
12.112000 8.889800
12.127500 7.608800
12.143000 6.568400
12.158500 5.791200
12.174000 5.392000
12.189500 5.208300
12.205000 5.162600
12.220500 5.208500
12.236000 5.435300
12.251500 5.707200
12.267000 5.990200
12.282500 6.272400
12.298000 6.540900
12.313500 6.927400
12.329000 7.240800
12.344500 7.467100
12.360000 7.618100
12.375500 7.693900
12.391000 7.694400
12.406500 7.619600
12.422000 7.471700
12.437500 7.331100
12.453000 7.242200
12.468600 7.242000
12.484100 7.278500
12.499600 7.113200
12.515100 6.669600
12.530600 6.244300
12.546100 6.273900
12.561600 6.324600
12.577100 6.785100
12.592600 7.052300
12.608100 7.297500
12.623600 7.775200
12.639100 8.236400
12.654600 8.686100
12.670100 8.731400
12.685600 8.624500
12.701100 8.548600
12.716600 8.524400
12.732100 8.540600
12.747600 8.504900
12.763100 8.531900
12.778600 8.578000
12.794100 8.794300
12.809600 9.114000
12.825100 9.318500
12.840600 9.097400
12.856100 9.175400
12.871600 9.170600
12.887100 9.060500
12.902600 8.916200
12.918100 8.728700
12.933600 8.927600
12.949100 8.643900
12.964600 8.290600
12.980100 8.275600
12.995700 8.511300
13.011200 8.691700
13.026700 8.945600
13.042200 9.149000
13.057700 9.315000
13.073200 9.477000
13.088700 9.626800
13.104200 9.820000
13.119700 10.032300
13.135200 10.277000
13.150700 10.647500
13.166200 11.122500
13.181700 11.341500
13.197200 11.525800
13.212700 11.672900
13.228200 11.945000
13.243700 12.386800
13.259200 12.664500
13.274700 12.903600
13.290200 13.090800
13.305700 13.278000
13.321200 13.512300
13.336700 13.428700
13.352200 13.765000
13.367700 12.929000
13.383200 12.294900
13.398700 11.467400
13.414200 10.610100
13.429700 9.983900
13.445200 9.582400
13.460700 9.469800
13.476200 9.359200
13.491700 9.254000
13.507200 9.441000
13.522800 9.236000
13.538300 9.527700
13.553800 9.793000
13.569300 10.048700
13.584800 10.192200
13.600300 10.053000
13.615800 9.658700
13.631300 9.375300
13.646800 9.173500
13.662300 9.022100
13.677800 8.920800
13.693300 8.854200
13.708800 8.779300
13.724300 8.698000
13.739800 8.734100
13.755300 8.943200
13.770800 9.166500
13.786300 9.394200
13.801800 9.626200
13.817300 9.790200
13.832800 11.208800
13.848300 11.116100
13.863800 11.083500
13.879300 10.753300
13.894800 10.501100
13.910300 10.270100
13.925800 10.066800
13.941300 9.889900
13.956800 9.739300
13.972300 9.635000
13.987800 9.372900
14.003300 9.031300
14.018800 8.712200
14.034300 8.326500
14.049800 8.207100
14.065400 8.105200
14.080900 8.019600
14.096400 7.966500
14.111900 7.950000
14.127400 7.958100
14.142900 7.986600
14.158400 8.035900
14.173900 8.123600
14.189400 8.240200
14.204900 8.354100
14.220400 8.467500
14.235900 8.818600
14.251400 9.251900
14.266900 9.548200
14.282400 9.703800
14.297900 9.723700
14.313400 9.608700
14.328900 9.289100
14.344400 9.248200
14.359900 9.189600
14.375400 9.199100
14.390900 9.415400
14.406400 9.584500
14.421900 9.688300
14.437400 9.689400
14.452900 9.574700
14.468400 9.417900
14.483900 9.297800
14.499400 9.372500
14.514900 9.458500
14.530400 9.376500
14.545900 9.356500
14.561400 9.361900
14.576900 9.402100
14.592500 9.486900
14.608000 9.615300
14.623500 9.694000
14.639000 9.828300
14.654500 10.079100
14.670000 10.378800
14.685500 10.519200
14.701000 9.669100
14.716500 8.957400
14.732000 8.477400
14.747500 8.289300
14.763000 8.443900
14.778500 8.591200
14.794000 8.733700
14.809500 8.881100
14.825000 9.032700
14.840500 9.171400
14.856000 9.311300
14.871500 9.500800
14.887000 9.617600
14.902500 9.537900
14.918000 9.480800
14.933500 9.429400
14.949000 9.370700
14.964500 9.134800
14.980000 9.019700
14.995500 9.181000
15.011000 9.378300
15.026500 9.227900
15.042000 9.102700
15.057500 8.999400
15.073000 8.916100
15.088500 8.881100
15.104000 8.900200
15.119600 8.901500
15.135100 8.949500
15.150600 9.017200
15.166100 9.417500
15.181600 9.976100
15.197100 10.395200
15.212600 10.468300
15.228100 10.459400
15.243600 10.404000
15.259100 10.339200
15.274600 10.292100
15.290100 10.051400
15.305600 10.005400
15.321100 9.976700
15.336600 9.971600
15.352100 9.954400
15.367600 9.864300
15.383100 9.577100
15.398600 9.490400
15.414100 9.418200
15.429600 9.387200
15.445100 9.381100
15.460600 9.385800
15.476100 9.396100
15.491600 9.411200
15.507100 9.428200
15.522600 9.444100
15.538100 9.465800
15.553600 9.546400
15.569100 9.632200
15.584600 9.683200
15.600100 9.699000
15.615600 9.629200
15.631100 9.565600
15.646600 9.534600
15.662200 9.518300
15.677700 9.505100
15.693200 9.493200
15.708700 9.482500
15.724200 9.474400
15.739700 9.469700
15.755200 9.468500
15.770700 9.473200
15.786200 9.513100
15.801700 9.564200
15.817200 9.575000
15.832700 9.526200
15.848200 9.477700
15.863700 9.420400
15.879200 9.351200
15.894700 9.253000
15.910200 9.123400
15.925700 8.965600
15.941200 8.746100
15.956700 8.553900
15.972200 8.583100
15.987700 8.663000
16.003200 8.751900
16.018700 8.852300
16.034200 8.912100
16.049700 8.940700
16.065200 8.957400
16.080700 8.929700
16.096200 8.996000
16.111700 9.380200
16.127200 9.875400
16.142700 10.389000
16.158200 10.877300
16.173700 10.980100
16.189300 10.763500
16.204800 10.546300
16.220300 10.369100
16.235800 10.237000
16.251300 10.121600
16.266800 10.006000
16.282300 9.904400
16.297800 9.830100
16.313300 9.814300
16.328800 10.032500
16.344300 10.246200
16.359800 10.419900
16.375300 10.545000
16.390800 8.656400
16.406300 8.637800
16.421800 10.009200
16.437300 8.871600
16.452800 9.066300
16.468300 9.219900
16.483800 9.330500
16.499300 9.395400
16.514800 9.446800
16.530300 9.547900
16.545800 9.791800
16.561300 10.057800
16.576800 10.362500
16.592300 10.701200
16.607800 11.031100
16.623300 12.030900
16.638800 12.063100
16.654300 12.150100
16.669800 12.288300
16.685300 12.338500
16.700800 12.299900
16.716400 12.017900
16.731900 11.575900
16.747400 11.154300
16.762900 10.787900
16.778400 10.500100
16.793900 10.470200
16.809400 10.588700
16.824900 10.730100
16.840400 10.889600
16.855900 11.041700
16.871400 11.180300
16.886900 11.368000
16.902400 11.598900
16.917900 11.842000
16.933400 12.114800
16.948900 14.455500
16.964400 11.037200
16.979900 10.304400
16.995400 10.513700
17.010900 10.686800
17.026400 10.812400
17.041900 10.965400
17.057400 11.136100
17.072900 11.180100
17.088400 11.047500
17.103900 11.002700
17.119400 11.048300
17.134900 11.184300
17.150400 11.083600
17.165900 9.928300
17.181400 10.119400
17.196900 10.312500
17.212400 10.507400
17.227900 10.703900
17.243400 10.899000
17.259000 11.293500
17.274500 11.489500
17.290000 11.390700
17.305500 11.051900
17.321000 10.777400
17.336500 10.567000
17.352000 10.465500
17.367500 10.431800
17.383000 10.425400
17.398500 10.501200
17.414000 11.069600
17.429500 11.190600
17.445000 11.053800
17.460500 11.175900
17.476000 11.260200
17.491500 11.278500
17.507000 11.098000
17.522500 10.892100
17.538000 10.677300
17.553500 10.620500
17.569000 10.817200
17.584500 10.942100
17.600000 10.879700
17.615500 10.882300
17.631000 10.950200
17.646500 11.078400
17.662000 11.218300
17.677500 11.295300
17.693000 11.275100
17.708500 11.214300
17.724000 11.069800
17.739500 10.835900
17.755000 10.506900
17.770500 10.518800
17.786100 10.909200
17.801600 10.890700
17.817100 10.484800
17.832600 10.148300
17.848100 9.881400
17.863600 9.701800
17.879100 9.591100
17.894600 9.305200
17.910100 8.748900
17.925600 8.518900
17.941100 8.237600
17.956600 8.032700
17.972100 7.896200
17.987600 7.808200
18.003100 7.750000
18.018600 7.751000
18.034100 8.024900
18.049600 8.183100
18.065100 8.280800
18.080600 8.334500
18.096100 8.228000
18.111600 7.638900
18.127100 7.240900
18.142600 6.992400
18.158100 6.952100
18.173600 7.087700
18.189100 7.201100
18.204600 7.311200
18.220100 7.493100
18.235600 7.714700
18.251100 7.593100
18.266600 7.494000
18.282100 7.470200
18.297600 7.523400
18.313200 7.619900
18.328700 7.683200
18.344200 7.709400
18.359700 7.851200
18.375200 7.999600
18.390700 8.144000
18.406200 8.285600
18.421700 8.471400
18.437200 8.640300
18.452700 8.780700
18.468200 8.857200
18.483700 8.734700
18.499200 8.611300
18.514700 8.470000
18.530200 8.346100
18.545700 9.706500
18.561200 9.185700
18.576700 9.391100
18.592200 9.566900
18.607700 9.713200
18.623200 9.911400
18.638700 10.161300
18.654200 10.378100
18.669700 10.506100
18.685200 10.552600
18.700700 10.570800
18.716200 10.773500
18.731700 11.132000
18.747200 10.717400
18.762700 10.430600
18.778200 10.118100
18.793700 9.633300
18.809200 9.111300
18.824700 8.557000
18.840200 7.977000
18.855800 7.251900
18.871300 6.625200
18.886800 6.275300
18.902300 6.043800
18.917800 5.834400
18.933300 6.068600
18.948800 5.466100
18.964300 4.817100
18.979800 4.579200
18.995300 4.401500
19.010800 4.222000
19.026300 4.037100
19.041800 3.861100
19.057300 3.686600
19.072800 3.497000
19.088300 3.293400
19.103800 3.078600
19.119300 2.858300
19.134800 2.634500
19.150300 2.407400
19.165800 2.178100
19.181300 1.929600
19.196800 1.638200
19.212300 1.352000
19.227800 1.104300
19.243300 0.896300
19.258800 0.710000
19.274300 0.545300
19.289800 0.402300
19.305300 0.281100
19.320800 0.181500
19.336300 0.103600
19.351800 0.047400
19.367300 0.012900
19.382900 0.000100
19.398400 0.000000
19.413900 0.000000
19.429400 0.000000
19.444900 0.000000
19.460400 0.000000
19.475900 0.000000
19.491400 0.000000
19.506900 0.000000
19.522400 0.000000
19.537900 0.000000
19.553400 0.000000
19.568900 0.000000
19.584400 0.000000
19.599900 0.000000
19.615400 0.000000
19.630900 0.000000
19.646400 0.000000
19.661900 0.000000
19.677400 0.000000
19.692900 0.000000
19.708400 0.000000
19.723900 0.000000
19.739400 0.000000
19.754900 0.000000
19.770400 0.000000
19.785900 0.000000
19.801400 0.000000
19.816900 0.000000
19.832400 0.000000
19.847900 0.000000
19.863400 0.000000
19.878900 0.000000
19.894400 0.000000
19.910000 0.000000
19.925500 0.000000
19.941000 0.000000
19.956500 0.000000
19.972000 0.000000
19.987500 0.000000
20.003000 0.000000
20.018500 0.000000
20.034000 0.000000
20.049500 0.000000
20.065000 0.000000
20.080500 0.000000
20.096000 0.000000
20.111500 0.000000
20.127000 0.000000
20.142500 0.000000
20.158000 0.000000
20.173500 0.000000
20.189000 0.000000
20.204500 0.000000
20.220000 0.000000
20.235500 0.000000
20.251000 0.000000
20.266500 0.000000
20.282000 0.000000
20.297500 0.000000
20.313000 0.000000
20.328500 0.000000
20.344000 0.000000
20.359500 0.000000
20.375000 0.000000
20.390500 0.000000
20.406000 0.000000
20.421500 0.000000
20.437000 0.000000
20.452600 0.000000
20.468100 0.000000
20.483600 0.000000
20.499100 0.000000
20.514600 0.000000
20.530100 0.000000
20.545600 0.000000
20.561100 0.000000
20.576600 0.000000
20.592100 0.000000
20.607600 0.000000
20.623100 0.000000
20.638600 0.000000
20.654100 0.000000
20.669600 0.000000
20.685100 0.000000
20.700600 0.000000
20.716100 0.000000
20.731600 0.000000
20.747100 0.000000
20.762600 0.000000
20.778100 0.000000
20.793600 0.000000
e
