set title 'mp-1227290 - Density of States'
set xlabel 'Energy (eV)'
set ylabel 'DOS (states/eV)'
set grid
set xrange [-10:10]
set yrange [0:3.289]
set xzeroaxis lt -1
set terminal png size 800,600
set output 'mp-1227290_dos_gnuplot.png'
plot '-' using 1:2 with lines title 'DOS'
-9.318400 0.000000
-9.293300 0.000000
-9.268200 0.000000
-9.243200 0.000000
-9.218100 0.000000
-9.193100 0.000000
-9.168000 0.000000
-9.143000 0.000000
-9.117900 0.000000
-9.092900 0.000000
-9.067800 0.000000
-9.042800 0.000000
-9.017700 0.000000
-8.992600 0.000000
-8.967600 0.000000
-8.942500 0.000000
-8.917500 0.000000
-8.892400 0.000000
-8.867400 0.000000
-8.842300 0.000000
-8.817300 0.000000
-8.792200 0.000000
-8.767200 0.000000
-8.742100 0.000000
-8.717100 0.000000
-8.692000 0.000000
-8.666900 0.000000
-8.641900 0.000000
-8.616800 0.000000
-8.591800 0.000000
-8.566700 0.000000
-8.541700 0.000000
-8.516600 0.000000
-8.491600 0.000000
-8.466500 0.000000
-8.441500 0.000000
-8.416400 0.000000
-8.391300 0.000000
-8.366300 0.000000
-8.341200 0.000000
-8.316200 0.000000
-8.291100 0.000000
-8.266100 0.000000
-8.241000 0.000000
-8.216000 0.000000
-8.190900 0.000000
-8.165900 0.000000
-8.140800 0.000000
-8.115700 0.000000
-8.090700 0.000000
-8.065600 0.000000
-8.040600 0.000000
-8.015500 0.000000
-7.990500 0.000000
-7.965400 0.000000
-7.940400 0.000000
-7.915300 0.000000
-7.890300 0.000000
-7.865200 0.000000
-7.840100 0.000000
-7.815100 0.000000
-7.790000 0.000000
-7.765000 0.000000
-7.739900 0.000000
-7.714900 0.000000
-7.689800 0.000000
-7.664800 0.000000
-7.639700 0.000000
-7.614700 0.000000
-7.589600 0.000000
-7.564500 0.000000
-7.539500 0.000000
-7.514400 0.000000
-7.489400 0.000000
-7.464300 0.000000
-7.439300 0.000000
-7.414200 0.000000
-7.389200 0.000000
-7.364100 0.000000
-7.339100 0.000000
-7.314000 0.000000
-7.289000 0.000000
-7.263900 0.000000
-7.238800 0.000000
-7.213800 0.000000
-7.188700 0.000000
-7.163700 0.000000
-7.138600 0.000000
-7.113600 0.000000
-7.088500 0.000000
-7.063500 0.000000
-7.038400 0.007300
-7.013400 0.085100
-6.988300 0.147100
-6.963200 0.178800
-6.938200 0.202300
-6.913100 0.228300
-6.888100 0.257900
-6.863000 0.286400
-6.838000 0.307600
-6.812900 0.326700
-6.787900 0.342800
-6.762800 0.358100
-6.737800 0.378400
-6.712700 0.399200
-6.687600 0.420400
-6.662600 0.442000
-6.637500 0.459200
-6.612500 0.475700
-6.587400 0.491200
-6.562400 0.507900
-6.537300 0.524700
-6.512300 0.542400
-6.487200 0.560500
-6.462200 0.579300
-6.437100 0.599000
-6.412000 0.619000
-6.387000 0.639300
-6.361900 0.658800
-6.336900 0.678600
-6.311800 0.699000
-6.286800 0.720300
-6.261700 0.742700
-6.236700 0.765900
-6.211600 0.789800
-6.186600 0.814400
-6.161500 0.839800
-6.136500 0.866000
-6.111400 0.893700
-6.086300 0.930800
-6.061300 0.974800
-6.036200 1.023300
-6.011200 1.104200
-5.986100 1.154300
-5.961100 1.154200
-5.936000 1.183600
-5.911000 1.216400
-5.885900 1.232600
-5.860900 1.245400
-5.835800 1.271500
-5.810700 1.303800
-5.785700 1.333700
-5.760600 1.363100
-5.735600 1.393500
-5.710500 1.426400
-5.685500 1.467900
-5.660400 1.523800
-5.635400 1.591600
-5.610300 1.669400
-5.585300 1.758600
-5.560200 1.870500
-5.535100 2.022600
-5.510100 2.355500
-5.485000 2.503900
-5.460000 2.435900
-5.434900 2.571200
-5.409900 2.874200
-5.384800 2.846700
-5.359800 2.990400
-5.334700 2.383100
-5.309700 2.214500
-5.284600 1.828800
-5.259500 1.655800
-5.234500 1.566300
-5.209400 1.361800
-5.184400 0.000000
-5.159300 0.000000
-5.134300 0.000000
-5.109200 0.000000
-5.084200 0.000000
-5.059100 0.000000
-5.034100 0.000000
-5.009000 0.000000
-4.983900 0.000000
-4.958900 0.000000
-4.933800 0.000000
-4.908800 0.000000
-4.883700 0.000000
-4.858700 0.000000
-4.833600 0.000000
-4.808600 0.000000
-4.783500 0.000000
-4.758500 0.000000
-4.733400 0.000000
-4.708400 0.000000
-4.683300 0.000000
-4.658200 0.000000
-4.633200 0.000000
-4.608100 0.000000
-4.583100 0.000000
-4.558000 0.000000
-4.533000 0.000000
-4.507900 0.000000
-4.482900 0.000000
-4.457800 0.000000
-4.432800 0.000000
-4.407700 0.000000
-4.382600 0.000000
-4.357600 0.000000
-4.332500 0.000000
-4.307500 0.000000
-4.282400 0.000000
-4.257400 0.000000
-4.232300 0.000000
-4.207300 0.000000
-4.182200 0.000000
-4.157200 0.000000
-4.132100 0.000000
-4.107000 0.000000
-4.082000 0.000000
-4.056900 0.000000
-4.031900 0.000000
-4.006800 0.000000
-3.981800 0.000000
-3.956700 0.000000
-3.931700 0.000000
-3.906600 0.000000
-3.881600 0.000000
-3.856500 0.000000
-3.831400 0.000000
-3.806400 0.000000
-3.781300 0.000000
-3.756300 0.000000
-3.731200 0.000000
-3.706200 0.000000
-3.681100 0.000000
-3.656100 0.052200
-3.631000 0.151300
-3.606000 0.576300
-3.580900 0.434300
-3.555900 0.570700
-3.530800 0.695300
-3.505700 0.796000
-3.480700 1.103700
-3.455600 1.336900
-3.430600 1.520300
-3.405500 1.653000
-3.380500 1.627900
-3.355400 1.615200
-3.330400 1.640400
-3.305300 1.699100
-3.280300 1.690900
-3.255200 1.667300
-3.230100 1.754100
-3.205100 1.904200
-3.180000 2.025500
-3.155000 2.414300
-3.129900 2.798300
-3.104900 2.644400
-3.079800 2.118600
-3.054800 1.941700
-3.029700 1.815700
-3.004700 1.712300
-2.979600 1.612800
-2.954500 1.551900
-2.929500 1.492700
-2.904400 1.433500
-2.879400 1.409500
-2.854300 1.377400
-2.829300 1.344300
-2.804200 1.298000
-2.779200 1.337100
-2.754100 1.262300
-2.729100 1.182300
-2.704000 1.084600
-2.678900 0.988800
-2.653900 0.894600
-2.628800 0.820500
-2.603800 0.778300
-2.578700 0.750600
-2.553700 0.728300
-2.528600 0.706500
-2.503600 0.685000
-2.478500 0.663900
-2.453500 0.642900
-2.428400 0.622100
-2.403300 0.599600
-2.378300 0.574500
-2.353200 0.549600
-2.328200 0.524100
-2.303100 0.497300
-2.278100 0.477000
-2.253000 0.463200
-2.228000 0.449200
-2.202900 0.433700
-2.177900 0.418100
-2.152800 0.404600
-2.127800 0.394100
-2.102700 0.384100
-2.077600 0.374300
-2.052600 0.364400
-2.027500 0.354400
-2.002500 0.344000
-1.977400 0.333500
-1.952400 0.323100
-1.927300 0.312200
-1.902300 0.301200
-1.877200 0.290500
-1.852200 0.279900
-1.827100 0.270200
-1.802000 0.262700
-1.777000 0.255300
-1.751900 0.248100
-1.726900 0.240900
-1.701800 0.233400
-1.676800 0.225600
-1.651700 0.218100
-1.626700 0.211100
-1.601600 0.204900
-1.576600 0.198700
-1.551500 0.192600
-1.526400 0.186300
-1.501400 0.180000
-1.476300 0.173700
-1.451300 0.167500
-1.426200 0.161200
-1.401200 0.154800
-1.376100 0.148900
-1.351100 0.143600
-1.326000 0.138600
-1.301000 0.133600
-1.275900 0.128600
-1.250800 0.123700
-1.225800 0.118800
-1.200700 0.113900
-1.175700 0.108900
-1.150600 0.103900
-1.125600 0.098800
-1.100500 0.093700
-1.075500 0.088800
-1.050400 0.084100
-1.025400 0.079600
-1.000300 0.074900
-0.975300 0.069800
-0.950200 0.064600
-0.925100 0.059400
-0.900100 0.054500
-0.875000 0.049800
-0.850000 0.045400
-0.824900 0.040000
-0.799900 0.032600
-0.774800 0.023800
-0.749800 0.013700
-0.724700 0.002200
-0.699700 0.000000
-0.674600 0.000000
-0.649500 0.000000
-0.624500 0.000000
-0.599400 0.000000
-0.574400 0.000000
-0.549300 0.000000
-0.524300 0.000000
-0.499200 0.000000
-0.474200 0.000000
-0.449100 0.000000
-0.424100 0.000000
-0.399000 0.000000
-0.373900 0.000000
-0.348900 0.000000
-0.323800 0.000000
-0.298800 0.000000
-0.273700 0.000000
-0.248700 0.000000
-0.223600 0.000000
-0.198600 0.000000
-0.173500 0.000000
-0.148500 0.000000
-0.123400 0.000000
-0.098300 0.000000
-0.073300 0.000000
-0.048200 0.000000
-0.023200 0.000000
0.001900 0.000000
0.026900 0.000000
0.052000 0.000000
0.077000 0.000000
0.102100 0.000000
0.127100 0.000000
0.152200 0.000000
0.177300 0.000000
0.202300 0.000000
0.227400 0.000000
0.252400 0.000000
0.277500 0.000000
0.302500 0.000000
0.327600 0.000000
0.352600 0.000000
0.377700 0.000000
0.402700 0.000000
0.427800 0.000000
0.452800 0.000000
0.477900 0.000000
0.503000 0.000000
0.528000 0.000000
0.553100 0.000000
0.578100 0.000000
0.603200 0.000000
0.628200 0.000000
0.653300 0.000000
0.678300 0.000000
0.703400 0.000000
0.728400 0.000000
0.753500 0.000000
0.778600 0.000000
0.803600 0.000000
0.828700 0.000000
0.853700 0.000000
0.878800 0.000000
0.903800 0.264500
0.928900 0.332100
0.953900 0.429800
0.979000 0.485600
1.004000 0.533800
1.029100 0.593300
1.054200 0.601300
1.079200 0.615900
1.104300 0.628500
1.129300 0.649400
1.154400 0.688100
1.179400 0.723900
1.204500 0.753100
1.229500 0.783900
1.254600 0.821700
1.279600 0.869900
1.304700 1.071500
1.329800 1.051100
1.354800 1.005900
1.379900 0.960700
1.404900 0.980900
1.430000 0.982800
1.455000 0.973900
1.480100 0.950600
1.505100 0.919800
1.530200 0.890600
1.555200 0.869000
1.580300 0.872600
1.605300 0.875600
1.630400 0.883400
1.655500 0.894800
1.680500 0.911300
1.705600 0.930100
1.730600 0.949300
1.755700 0.969000
1.780700 0.989100
1.805800 1.012100
1.830800 1.035100
1.855900 1.048800
1.880900 1.060600
1.906000 1.073800
1.931100 1.089600
1.956100 1.108200
1.981200 1.130100
2.006200 1.143600
2.031300 1.145800
2.056300 1.148900
2.081400 1.158100
2.106400 1.173400
2.131500 1.190500
2.156500 1.207800
2.181600 1.227700
2.206700 1.252000
2.231700 1.282100
2.256800 1.314000
2.281800 1.344400
2.306900 1.369600
2.331900 1.396500
2.357000 1.429600
2.382000 1.467100
2.407100 1.528700
2.432100 1.782300
2.457200 1.807800
2.482300 1.725500
2.507300 1.717800
2.532400 1.723000
2.557400 1.740600
2.582500 1.765600
2.607500 1.785400
2.632600 1.790500
2.657600 1.787800
2.682700 1.784300
2.707700 1.769500
2.732800 1.748000
2.757900 1.735900
2.782900 1.735600
2.808000 1.738700
2.833000 1.758500
2.858100 1.772000
2.883100 1.774700
2.908200 1.774600
2.933200 1.770800
2.958300 1.763200
2.983300 1.746100
3.008400 1.746200
3.033400 1.745900
3.058500 1.743000
3.083600 1.738600
3.108600 1.735700
3.133700 1.737000
3.158700 1.737800
3.183800 1.736600
3.208800 1.738800
3.233900 1.744800
3.258900 1.750000
3.284000 1.754900
3.309000 1.760800
3.334100 1.767900
3.359200 1.775900
3.384200 1.783500
3.409300 1.788800
3.434300 1.792100
3.459400 1.795700
3.484400 1.793200
3.509500 1.789200
3.534500 1.783800
3.559600 1.785300
3.584600 1.785700
3.609700 1.777100
3.634800 1.767900
3.659800 1.761100
3.684900 1.753500
3.709900 1.746800
3.735000 1.743300
3.760000 1.742100
3.785100 1.754100
3.810100 1.774200
3.835200 1.792800
3.860200 1.809200
3.885300 1.818600
3.910400 1.820200
3.935400 1.801400
3.960500 1.772600
3.985500 1.764700
4.010600 2.030000
4.035600 2.066300
4.060700 2.056300
4.085700 1.964500
4.110800 1.935200
4.135800 1.902100
4.160900 1.834900
4.185900 1.768400
4.211000 1.711500
4.236100 1.645900
4.261100 1.657900
4.286200 1.662300
4.311200 1.591800
4.336300 1.513900
4.361300 1.463000
4.386400 1.438500
4.411400 1.436300
4.436500 1.463000
4.461500 1.487000
4.486600 1.510800
4.511700 1.531900
4.536700 1.567100
4.561800 1.604700
4.586800 1.587200
4.611900 1.517000
4.636900 1.423000
4.662000 1.369100
4.687000 1.381900
4.712100 1.404800
4.737100 1.383200
4.762200 1.336000
4.787300 1.307900
4.812300 1.247100
4.837400 1.173500
4.862400 1.098300
4.887500 1.056500
4.912500 1.061600
4.937600 1.074400
4.962600 1.055000
4.987700 0.998100
5.012700 0.942900
5.037800 0.877500
5.062900 0.813000
5.087900 0.766000
5.113000 0.744100
5.138000 0.744700
5.163100 0.842200
5.188100 0.867100
5.213200 0.782600
5.238200 0.645700
5.263300 0.390600
5.288300 0.245800
5.313400 0.148900
5.338500 0.080800
5.363500 0.047600
5.388600 0.026900
5.413600 0.011700
5.438700 0.002700
5.463700 0.000000
5.488800 0.000000
5.513800 0.000000
5.538900 0.000000
5.563900 0.000000
5.589000 0.000900
5.614000 0.004300
5.639100 0.010100
5.664200 0.018300
5.689200 0.029000
5.714300 0.042100
5.739300 0.057700
5.764400 0.074800
5.789400 0.090800
5.814500 0.109700
5.839500 0.131300
5.864600 0.155800
5.889600 0.199500
5.914700 0.264300
5.939800 0.387600
5.964800 0.394700
5.989900 0.473700
6.014900 0.587800
6.040000 0.739300
6.065000 0.808500
6.090100 0.847400
6.115100 0.900100
6.140200 1.026600
6.165200 1.117700
6.190300 1.266800
6.215400 1.860300
6.240400 1.527100
6.265500 1.511200
6.290500 1.483100
6.315600 1.521600
6.340600 1.588600
6.365700 1.655000
6.390700 1.713100
6.415800 1.763800
6.440800 1.826800
6.465900 2.007000
6.491000 1.972900
6.516000 1.834900
6.541100 1.740100
6.566100 1.671700
6.591200 1.652800
6.616200 1.617400
6.641300 1.594300
6.666300 1.569800
6.691400 1.543000
6.716400 1.520500
6.741500 1.504300
6.766500 1.489500
6.791600 1.468200
6.816700 1.430400
6.841700 1.412300
6.866800 1.398800
6.891800 1.387300
6.916900 1.377400
6.941900 1.368900
6.967000 1.361700
6.992000 1.355700
7.017100 1.351000
7.042100 1.347100
7.067200 1.346200
7.092300 1.346300
7.117300 1.348800
7.142400 1.351400
7.167400 1.353200
7.192500 1.357100
7.217500 1.359800
7.242600 1.360800
7.267600 1.362500
7.292700 1.364800
7.317700 1.366000
7.342800 1.370600
7.367900 1.375200
7.392900 1.379600
7.418000 1.384300
7.443000 1.390200
7.468100 1.397000
7.493100 1.404800
7.518200 1.413600
7.543200 1.423700
7.568300 1.438400
7.593300 1.458600
7.618400 1.463700
7.643500 1.490200
7.668500 1.542400
7.693600 1.603800
7.718600 1.677700
7.743700 1.768800
7.768700 1.882800
7.793800 2.019900
7.818800 2.182400
7.843900 2.329600
7.868900 2.311600
7.894000 2.259700
7.919100 2.210000
7.944100 2.143600
7.969200 2.025500
7.994200 1.773400
8.019300 1.565400
8.044300 1.454300
8.069400 1.360000
8.094400 1.335400
8.119500 1.282000
8.144500 1.181000
8.169600 1.174600
8.194600 1.168800
8.219700 1.169300
8.244800 1.193200
8.269800 1.219200
8.294900 1.288600
8.319900 1.342900
8.345000 1.220000
8.370000 1.230600
8.395100 1.231300
8.420100 1.221000
8.445200 1.228500
8.470200 1.250100
8.495300 1.273900
8.520400 1.290500
8.545400 1.301100
8.570500 1.306300
8.595500 1.310100
8.620600 1.329300
8.645600 1.353300
8.670700 1.366500
8.695700 1.374800
8.720800 1.379300
8.745800 1.379700
8.770900 1.387900
8.796000 1.413000
8.821000 1.428200
8.846100 1.426400
8.871100 1.410600
8.896200 1.386900
8.921200 1.370900
8.946300 1.355500
8.971300 1.414100
8.996400 1.566100
9.021400 1.588600
9.046500 1.534700
9.071600 1.546300
9.096600 1.576200
9.121700 1.599800
9.146700 1.589300
9.171800 1.543700
9.196800 1.470400
9.221900 1.405800
9.246900 1.340000
9.272000 1.282100
9.297000 1.234300
9.322100 1.195600
9.347100 1.163000
9.372200 1.134600
9.397300 1.110600
9.422300 1.088400
9.447400 1.066600
9.472400 1.045100
9.497500 1.023900
9.522500 1.003500
9.547600 0.984900
9.572600 0.969700
9.597700 0.950800
9.622700 0.927900
9.647800 0.902600
9.672900 0.874600
9.697900 0.844000
9.723000 0.817200
9.748000 0.796500
9.773100 0.777500
9.798100 0.759700
9.823200 0.743500
9.848200 0.728900
9.873300 0.724600
9.898300 0.742000
9.923400 0.885500
9.948500 1.013800
9.973500 1.337500
9.998600 1.643300
10.023600 1.402900
10.048700 1.474800
10.073700 1.607000
10.098800 1.663700
10.123800 1.719900
10.148900 1.903000
10.173900 1.915900
10.199000 1.980000
10.224100 1.941900
10.249100 1.921300
10.274200 1.945400
10.299200 1.975700
10.324300 1.988800
10.349300 1.993200
10.374400 1.977500
10.399400 1.993700
10.424500 1.962800
10.449500 1.908900
10.474600 1.864000
10.499700 1.823000
10.524700 1.788600
10.549800 1.760900
10.574800 1.748200
10.599900 1.742600
10.624900 1.724200
10.650000 1.675200
10.675000 1.631400
10.700100 1.584000
10.725100 1.510300
10.750200 1.415200
10.775200 1.316400
10.800300 1.250300
10.825400 1.212500
10.850400 1.204300
10.875500 1.203700
10.900500 1.212400
10.925600 1.228500
10.950600 1.250200
10.975700 1.299000
11.000700 1.430900
11.025800 1.784500
11.050800 1.708900
11.075900 1.685000
11.101000 1.709000
11.126000 1.792800
11.151100 1.888200
11.176100 1.973500
11.201200 1.945700
11.226200 1.868100
11.251300 1.581700
11.276300 1.512700
11.301400 1.378100
11.326400 1.313700
11.351500 1.217100
11.376600 1.145000
11.401600 1.103800
11.426700 1.063800
11.451700 1.023100
11.476800 0.972000
11.501800 0.934200
11.526900 0.892300
11.551900 0.846700
11.577000 0.812600
11.602000 0.785400
11.627100 0.786000
11.652200 0.801300
11.677200 0.780900
11.702300 0.796600
11.727300 0.823900
11.752400 0.859100
11.777400 0.914300
11.802500 0.963800
11.827500 1.021200
11.852600 1.007700
11.877600 0.975200
11.902700 0.976400
11.927700 0.983000
11.952800 0.989600
11.977900 0.994500
12.002900 0.996700
12.028000 1.002800
12.053000 1.007900
12.078100 1.012500
12.103100 1.026100
12.128200 1.046200
12.153200 1.062600
12.178300 1.075300
12.203300 1.085400
12.228400 1.094400
12.253500 1.111000
12.278500 1.127200
12.303600 1.148400
12.328600 1.172000
12.353700 1.201100
12.378700 1.231000
12.403800 1.317000
12.428800 1.403400
12.453900 1.461200
12.478900 1.526500
12.504000 1.440900
12.529100 1.437400
12.554100 1.286900
12.579200 1.279400
12.604200 1.282900
12.629300 1.293100
12.654300 1.304100
12.679400 1.315500
12.704400 1.326400
12.729500 1.336700
12.754500 1.346500
12.779600 1.339100
12.804700 1.310600
12.829700 1.304100
12.854800 1.316300
12.879800 1.337500
12.904900 1.345400
12.929900 1.355300
12.955000 1.376600
12.980000 1.395400
13.005100 1.430100
13.030100 1.446900
13.055200 1.466200
13.080300 1.484800
13.105300 1.503700
13.130400 1.527300
13.155400 1.552700
13.180500 1.575500
13.205500 1.593100
13.230600 1.611500
13.255600 1.631300
13.280700 1.651500
13.305700 1.648300
13.330800 1.655600
13.355800 1.663500
13.380900 1.673000
13.406000 1.688800
13.431000 1.687100
13.456100 1.685700
13.481100 1.685900
13.506200 1.687500
13.531200 1.690600
13.556300 1.696100
13.581300 1.700000
13.606400 1.705900
13.631400 1.743000
13.656500 1.794800
13.681600 1.848000
13.706600 1.901200
13.731700 1.919000
13.756700 1.936400
13.781800 1.955700
13.806800 1.978500
13.831900 2.006500
13.856900 2.031600
13.882000 2.081100
13.907000 2.128600
13.932100 2.173500
13.957200 2.228000
13.982200 2.203900
14.007300 2.154200
14.032300 2.111700
14.057400 2.095800
14.082400 2.082400
14.107500 2.013000
14.132500 1.990100
14.157600 1.967800
14.182600 2.018000
14.207700 2.092500
14.232800 2.091500
14.257800 1.954400
14.282900 1.910000
14.307900 1.921900
14.333000 1.932800
14.358000 1.948800
14.383100 2.000500
14.408100 2.091200
14.433200 2.135300
14.458200 2.154800
14.483300 2.216200
14.508300 2.367200
14.533400 2.355000
14.558500 2.287900
14.583500 2.247600
14.608600 2.255800
14.633600 2.273600
14.658700 2.332000
14.683700 2.424600
14.708800 2.512500
14.733800 2.641300
14.758900 2.725300
14.783900 2.659500
14.809000 2.612100
14.834100 2.544800
14.859100 2.350500
14.884200 2.250700
14.909200 2.174100
14.934300 2.117300
14.959300 2.077200
14.984400 2.043100
15.009400 2.009600
15.034500 1.998600
15.059500 1.994500
15.084600 1.991200
15.109700 2.011600
15.134700 1.993100
15.159800 1.928900
15.184800 1.906900
15.209900 1.871500
15.234900 1.864600
15.260000 1.894000
15.285000 1.905100
15.310100 1.986900
15.335100 2.077600
15.360200 2.191100
15.385300 2.177400
15.410300 2.281000
15.435400 2.361800
15.460400 2.468800
15.485500 2.585200
15.510500 2.681600
15.535600 2.736300
15.560600 2.708900
15.585700 2.822900
15.610700 2.699000
15.635800 2.642600
15.660900 2.569300
15.685900 2.432200
15.711000 2.222100
15.736000 2.061600
15.761100 2.009900
15.786100 2.029500
15.811200 2.061000
15.836200 1.998500
15.861300 1.929900
15.886300 1.834600
15.911400 1.735300
15.936400 1.711600
15.961500 1.714700
15.986600 1.732800
16.011600 1.774400
16.036700 1.822300
16.061700 1.872500
16.086800 1.927300
16.111800 1.972400
16.136900 2.004200
16.161900 2.105700
16.187000 2.358300
16.212000 1.946100
16.237100 1.747700
16.262200 1.695900
16.287200 1.703600
16.312300 1.769000
16.337300 1.851600
16.362400 1.919400
16.387400 1.975300
16.412500 2.088400
16.437500 2.118400
16.462600 2.138600
16.487600 2.171900
16.512700 2.169300
16.537800 2.119600
16.562800 2.087400
16.587900 2.087600
16.612900 2.080600
16.638000 2.095300
16.663000 2.118500
16.688100 2.168000
16.713100 2.245100
16.738200 2.283600
16.763200 2.322900
16.788300 2.355300
16.813400 2.446600
16.838400 2.236000
16.863500 2.191900
16.888500 2.178900
16.913600 2.158100
16.938600 2.349700
16.963700 2.186500
16.988700 2.321500
17.013800 2.322700
17.038800 2.304700
17.063900 2.303700
17.088900 2.302900
17.114000 2.297800
17.139100 2.330300
17.164100 2.141400
17.189200 2.054000
17.214200 1.949300
17.239300 1.873100
17.264300 1.828700
17.289400 1.819500
17.314400 1.857500
17.339500 1.857800
17.364500 1.928600
17.389600 1.962600
17.414700 2.077200
17.439700 2.159400
17.464800 2.247700
17.489800 2.308600
17.514900 2.389800
17.539900 2.375000
17.565000 2.344000
17.590000 2.375000
17.615100 2.435900
17.640100 2.479500
17.665200 2.551200
17.690300 2.547900
17.715300 2.556700
17.740400 2.575900
17.765400 2.595600
17.790500 2.594500
17.815500 2.610700
17.840600 2.599800
17.865600 2.606000
17.890700 2.611800
17.915700 2.650700
17.940800 2.635800
17.965900 2.735300
17.990900 2.887800
18.016000 2.867100
18.041000 2.809600
18.066100 2.720500
18.091100 2.609800
18.116200 2.558000
18.141200 2.558400
18.166300 2.572700
18.191300 2.536700
18.216400 2.484200
18.241500 2.441500
18.266500 2.412800
18.291600 2.378700
18.316600 2.354900
18.341700 2.329500
18.366700 2.368300
18.391800 2.384200
18.416800 2.400800
18.441900 2.424600
18.466900 2.460500
18.492000 2.504600
18.517000 2.554600
18.542100 2.603900
18.567200 2.541700
18.592200 2.555500
18.617300 2.541000
18.642300 2.530600
18.667400 2.529600
18.692400 2.528800
18.717500 2.532000
18.742500 2.546700
18.767600 2.583000
18.792600 2.604700
18.817700 2.585400
18.842800 2.561700
18.867800 2.551800
18.892900 2.493100
18.917900 2.452400
18.943000 2.503900
18.968000 2.540000
18.993100 2.608300
19.018100 2.678400
19.043200 2.736000
19.068200 2.757700
19.093300 2.824900
19.118400 3.003000
19.143400 3.013200
19.168500 2.999700
19.193500 2.955400
19.218600 2.787900
19.243600 2.807700
19.268700 2.767500
19.293700 2.624200
19.318800 2.560900
19.343800 2.517100
19.368900 2.513900
19.394000 2.539100
19.419000 2.612700
19.444100 2.669800
19.469100 2.647400
19.494200 2.623900
19.519200 2.662900
19.544300 2.713800
19.569300 2.761000
19.594400 2.762300
19.619400 2.742200
19.644500 2.716600
19.669500 2.671600
19.694600 2.612600
19.719700 2.571700
19.744700 2.523000
19.769800 2.478100
19.794800 2.442400
19.819900 2.422700
19.844900 2.422000
19.870000 2.430700
19.895000 2.519700
19.920100 2.610000
19.945100 2.790300
19.970200 2.773200
19.995300 2.699100
20.020300 2.678100
20.045400 2.541400
20.070400 2.385700
20.095500 2.276500
20.120500 2.217300
20.145600 2.185900
20.170600 2.184300
20.195700 2.205200
20.220700 2.214100
20.245800 2.245700
20.270900 2.378800
20.295900 2.475600
20.321000 2.631200
20.346000 2.825600
20.371100 2.882200
20.396100 2.859900
20.421200 2.869700
20.446200 2.904300
20.471300 2.916600
20.496300 2.897300
20.521400 2.776800
20.546500 2.635600
20.571500 2.611500
20.596600 2.639000
20.621600 2.645900
20.646700 2.653900
20.671700 2.720500
20.696800 2.647300
20.721800 2.622300
20.746900 2.603600
20.771900 2.551600
20.797000 2.559100
20.822100 2.527300
20.847100 2.554800
20.872200 2.712100
20.897200 2.948900
20.922300 2.879600
20.947300 2.828100
20.972400 2.923300
20.997400 2.992100
21.022500 2.991000
21.047500 3.002200
21.072600 3.086300
21.097600 3.241700
21.122700 3.317200
21.147800 3.303100
21.172800 3.204500
21.197900 3.036300
21.222900 2.864700
21.248000 2.835400
21.273000 2.955600
21.298100 3.066700
21.323100 2.891900
21.348200 2.854200
21.373200 2.824000
21.398300 2.792900
21.423400 2.778500
21.448400 2.819400
21.473500 2.918700
21.498500 2.960900
21.523600 3.085400
21.548600 3.173600
21.573700 3.100400
21.598700 3.003800
21.623800 2.898200
21.648800 2.828300
21.673900 2.783400
21.699000 2.747000
21.724000 2.677800
21.749100 2.656500
21.774100 2.637000
21.799200 2.642300
21.824200 2.661500
21.849300 2.811800
21.874300 2.691600
21.899400 2.648800
21.924400 2.633000
21.949500 2.650800
21.974600 2.696500
21.999600 2.770300
22.024700 2.767000
22.049700 2.796100
22.074800 2.863100
22.099800 2.907400
22.124900 2.957600
22.149900 3.085900
22.175000 3.071600
22.200000 3.081900
22.225100 3.060900
22.250100 2.998800
22.275200 3.003100
22.300300 3.023500
22.325300 3.212400
22.350400 3.233000
22.375400 3.204900
22.400500 3.107900
22.425500 3.142100
22.450600 3.238700
22.475600 3.163800
22.500700 3.171200
22.525700 3.139400
22.550800 3.099300
22.575900 3.107900
22.600900 3.117900
22.626000 3.119000
22.651000 3.070600
22.676100 2.934900
22.701100 2.933000
22.726200 2.934000
22.751200 2.801100
22.776300 2.794000
22.801300 2.830100
22.826400 2.873900
22.851500 2.981000
22.876500 3.084100
22.901600 3.142800
22.926600 3.117900
22.951700 3.075200
22.976700 3.047400
23.001800 3.041600
23.026800 3.031300
23.051900 3.022700
23.076900 3.055300
23.102000 3.113300
23.127100 3.144600
23.152100 3.139200
23.177200 3.187900
23.202200 3.238400
23.227300 3.309600
23.252300 3.401100
23.277400 3.473800
23.302400 3.390000
23.327500 3.268600
23.352500 3.199600
23.377600 3.209200
23.402700 3.114500
23.427700 3.062000
23.452800 3.024200
23.477800 3.020300
23.502900 3.019600
23.527900 3.038700
23.553000 3.080600
23.578000 3.191000
23.603100 3.295700
23.628100 3.497100
23.653200 3.407200
23.678200 3.351000
23.703300 3.434300
23.728400 3.380600
23.753400 3.527100
23.778500 3.290300
23.803500 3.240700
23.828600 3.222600
23.853600 3.224100
23.878700 3.210400
23.903700 3.168200
23.928800 3.158700
23.953800 3.219700
23.978900 3.194300
24.004000 3.206300
24.029000 3.226200
24.054100 3.214500
24.079100 3.202700
24.104200 3.210900
24.129200 3.262500
24.154300 3.367600
24.179300 3.481900
24.204400 3.585800
24.229400 3.503700
24.254500 3.456900
24.279600 3.408500
24.304600 3.391500
24.329700 3.374100
24.354700 3.362700
24.379800 3.396000
24.404800 3.419800
24.429900 3.524600
24.454900 3.498800
24.480000 3.335700
24.505000 3.298100
24.530100 3.308500
24.555200 3.311000
24.580200 3.428100
24.605300 3.442200
24.630300 3.539200
24.655400 3.696500
24.680400 3.783600
24.705500 3.837200
24.730500 3.775600
24.755600 3.736800
24.780600 3.735000
24.805700 3.683000
24.830700 3.602500
24.855800 3.544800
24.880900 3.493400
24.905900 3.451400
24.931000 3.457500
24.956000 3.481600
24.981100 3.523500
25.006100 3.574400
25.031200 3.439100
25.056200 3.392300
25.081300 3.363500
25.106300 3.287900
25.131400 3.203600
25.156500 3.066100
25.181500 3.089100
25.206600 3.152400
25.231600 3.260100
25.256700 3.294800
25.281700 3.252500
25.306800 3.253500
25.331800 3.227300
25.356900 3.169900
25.381900 3.224200
25.407000 3.300000
25.432100 3.281700
25.457100 3.303700
25.482200 3.321400
25.507200 3.383400
25.532300 3.460500
25.557300 3.522400
25.582400 3.536600
25.607400 3.503400
25.632500 3.371600
25.657500 3.316500
25.682600 3.298900
25.707700 3.293400
25.732700 3.287600
25.757800 3.265900
25.782800 3.234300
25.807900 3.317800
25.832900 3.309000
25.858000 3.243700
25.883000 3.166800
25.908100 3.101500
25.933100 3.135400
25.958200 3.184600
25.983300 3.190900
26.008300 3.151300
26.033400 3.378300
26.058400 3.259300
26.083500 3.490200
26.108500 3.472900
26.133600 3.706500
26.158600 3.870300
26.183700 3.564100
26.208700 3.374000
26.233800 3.264800
26.258800 3.211100
26.283900 3.046000
26.309000 2.949500
26.334000 2.846100
26.359100 2.755200
26.384100 2.672900
26.409200 2.639300
26.434200 2.611100
26.459300 2.598100
26.484300 2.622300
26.509400 2.648500
26.534400 2.692300
26.559500 2.781700
26.584600 2.806100
26.609600 2.942200
26.634700 3.026900
26.659700 3.071300
26.684800 3.028700
26.709800 2.970600
26.734900 2.946400
26.759900 2.996300
26.785000 3.037500
26.810000 3.055200
26.835100 3.105600
26.860200 3.164700
26.885200 3.211800
26.910300 3.263800
26.935300 3.183100
26.960400 3.131300
26.985400 3.079200
27.010500 3.026700
27.035500 2.979700
27.060600 2.923600
27.085600 2.967500
27.110700 2.972000
27.135800 2.986800
27.160800 3.000400
27.185900 3.078000
27.210900 3.089100
27.236000 3.148000
27.261000 3.265500
27.286100 3.436800
27.311100 3.661000
27.336200 3.763200
27.361200 3.776600
27.386300 3.597400
27.411300 3.494300
27.436400 3.417300
27.461500 3.415400
27.486500 3.437800
27.511600 3.453900
27.536600 3.497100
27.561700 3.533500
27.586700 3.503800
27.611800 3.531600
27.636800 3.758500
27.661900 4.099900
27.686900 4.260900
27.712000 4.251100
27.737100 4.219600
27.762100 4.074100
27.787200 3.908000
27.812200 3.849800
27.837300 3.429500
27.862300 3.351800
27.887400 3.351200
27.912400 3.406400
27.937500 3.455000
27.962500 3.463300
27.987600 3.469900
28.012700 3.529400
28.037700 3.416600
28.062800 3.481800
28.087800 3.553000
28.112900 3.528100
28.137900 3.526600
28.163000 3.497700
28.188000 3.461800
28.213100 3.478300
28.238100 3.565700
28.263200 3.742100
28.288300 3.961900
28.313300 4.085900
28.338400 4.406700
28.363400 4.575300
28.388500 4.848000
28.413500 5.158300
28.438600 4.639200
28.463600 4.505600
28.488700 4.343300
28.513700 4.226800
28.538800 4.029000
28.563900 3.874000
28.588900 3.859700
28.614000 3.905100
28.639000 4.067200
28.664100 4.102900
28.689100 3.868800
28.714200 3.956500
28.739200 4.146800
28.764300 4.402800
28.789300 4.695900
28.814400 5.065600
28.839400 5.428300
28.864500 5.583300
28.889600 5.430000
28.914600 5.222600
28.939700 4.751700
28.964700 4.456900
28.989800 4.255900
29.014800 4.046500
29.039900 4.315000
29.064900 4.037500
29.090000 3.825300
29.115000 3.753800
29.140100 3.742900
29.165200 3.387700
29.190200 3.239200
29.215300 3.258400
29.240300 3.338600
29.265400 3.401600
29.290400 3.475100
29.315500 3.547400
29.340500 3.512100
29.365600 3.626600
29.390600 3.674900
29.415700 3.634400
29.440800 3.639100
29.465800 3.640900
29.490900 3.506700
29.515900 3.408800
29.541000 3.421400
29.566000 3.559100
29.591100 3.506500
29.616100 3.412500
29.641200 3.488000
29.666200 3.262800
29.691300 3.164000
29.716400 3.119000
29.741400 3.285100
29.766500 3.567900
29.791500 3.484400
29.816600 3.443700
29.841600 3.507700
29.866700 3.474900
29.891700 3.510600
29.916800 3.635100
29.941800 3.846400
29.966900 4.036600
29.991900 4.221300
30.017000 4.216000
30.042100 4.104200
30.067100 4.111400
30.092200 4.102600
30.117200 3.957600
30.142300 3.935400
30.167300 3.658700
30.192400 3.335900
30.217400 3.047500
30.242500 2.842100
30.267500 2.628000
30.292600 2.441400
30.317700 2.335900
30.342700 2.281500
30.367800 2.195300
30.392800 2.287400
30.417900 2.451800
30.442900 2.671900
30.468000 2.777900
30.493000 2.930600
30.518100 3.130500
30.543100 3.431500
30.568200 3.701900
30.593300 3.857600
30.618300 3.843100
30.643400 3.831100
30.668400 3.768600
30.693500 3.678100
30.718500 3.595600
30.743600 3.530900
30.768600 3.554800
30.793700 3.444100
30.818700 3.189000
30.843800 3.025400
30.868900 2.970300
30.893900 2.857500
30.919000 3.028100
30.944000 3.222900
30.969100 3.423100
30.994100 4.016600
31.019200 4.377600
31.044200 4.663800
31.069300 4.876100
31.094300 4.825000
31.119400 4.607700
31.144500 4.810000
31.169500 4.851900
31.194600 4.892900
31.219600 4.616300
31.244700 4.305900
31.269700 3.895200
31.294800 3.504600
31.319800 3.188500
31.344900 2.942700
31.369900 2.860100
31.395000 2.821300
31.420000 2.846700
31.445100 3.075800
31.470200 3.132700
31.495200 3.113600
31.520300 3.381400
31.545300 3.969700
31.570400 4.148700
31.595400 4.605400
31.620500 4.630600
31.645500 4.527700
31.670600 4.696000
31.695600 4.350700
31.720700 3.836000
31.745800 3.590500
31.770800 3.331100
31.795900 3.149200
31.820900 3.287600
31.846000 3.054600
31.871000 2.986900
31.896100 2.987300
31.921100 3.024700
31.946200 3.092000
31.971200 3.250200
31.996300 3.336300
32.021400 3.258000
32.046400 3.208800
32.071500 3.118600
32.096500 2.870500
32.121600 2.816700
32.146600 2.947300
32.171700 2.935800
32.196700 2.810300
32.221800 3.029100
32.246800 3.119000
32.271900 3.020400
32.297000 3.005500
32.322000 3.081400
32.347100 3.204200
32.372100 3.250300
32.397200 3.215100
32.422200 3.204000
32.447300 3.193500
32.472300 3.264000
32.497400 3.406700
32.522400 3.454900
32.547500 3.463900
32.572500 3.338100
32.597600 3.314200
32.622700 3.347000
32.647700 3.271200
32.672800 3.220300
32.697800 3.019400
32.722900 2.940400
32.747900 2.942900
32.773000 2.993000
32.798000 3.099400
32.823100 3.147000
32.848100 3.177300
32.873200 3.156700
32.898300 3.127100
32.923300 3.115300
32.948400 3.131500
32.973400 3.181600
32.998500 3.241100
33.023500 3.433200
33.048600 3.582300
33.073600 3.598500
33.098700 3.445000
33.123700 3.145000
33.148800 2.929900
33.173900 3.071500
33.198900 3.048700
33.224000 3.051200
33.249000 3.101200
33.274100 3.181200
33.299100 3.055500
33.324200 3.160100
33.349200 3.168700
33.374300 3.045500
33.399300 3.084900
33.424400 2.882400
33.449500 2.878700
33.474500 2.899500
33.499600 2.900000
33.524600 2.873100
33.549700 2.840200
33.574700 2.894900
33.599800 2.820200
33.624800 2.821900
33.649900 2.897400
33.674900 3.024900
33.700000 3.165000
33.725100 3.266100
33.750100 3.563500
33.775200 3.534400
33.800200 3.551000
33.825300 3.543400
33.850300 3.587500
33.875400 3.551700
33.900400 3.400600
33.925500 3.239300
33.950500 3.143100
33.975600 3.105800
34.000600 3.179600
34.025700 3.426400
34.050800 3.545200
34.075800 3.272800
34.100900 3.054100
34.125900 3.046900
34.151000 3.081500
34.176000 3.132900
34.201100 3.145400
34.226100 3.252000
34.251200 3.479300
34.276200 3.823700
34.301300 3.998900
34.326400 4.049200
34.351400 3.914400
34.376500 4.110300
34.401500 3.496600
34.426600 3.328300
34.451600 3.243700
34.476700 3.160800
34.501700 3.135200
34.526800 3.150800
34.551800 3.216500
34.576900 3.317200
34.602000 3.358800
34.627000 3.355400
34.652100 3.099100
34.677100 3.119700
34.702200 3.282800
34.727200 3.254800
34.752300 3.302700
34.777300 3.371600
34.802400 3.564700
34.827400 3.812600
34.852500 3.823500
34.877600 3.842100
34.902600 3.800000
34.927700 4.010400
34.952700 4.485500
34.977800 4.448000
35.002800 4.690700
35.027900 4.672500
35.052900 4.779800
35.078000 4.717200
35.103000 4.553200
35.128100 4.304600
35.153100 4.228500
35.178200 4.522900
35.203300 4.543400
35.228300 4.316200
35.253400 4.129400
35.278400 3.996200
35.303500 4.011800
35.328500 3.767200
35.353600 3.369100
35.378600 3.089700
35.403700 2.742800
35.428700 2.648200
35.453800 2.810000
35.478900 3.040100
35.503900 3.035700
35.529000 3.031800
35.554000 3.096300
35.579100 3.256500
35.604100 3.319300
35.629200 3.373100
35.654200 3.468400
35.679300 3.603500
35.704300 3.924900
35.729400 4.354200
35.754500 4.594100
35.779500 4.761800
35.804600 4.806900
35.829600 4.406000
35.854700 4.011100
35.879700 3.860100
35.904800 3.664900
35.929800 3.549300
35.954900 3.546400
35.979900 3.251900
36.005000 3.116100
36.030100 3.157400
36.055100 3.341300
36.080200 3.591500
36.105200 3.894200
36.130300 4.134800
36.155300 4.219400
36.180400 4.435000
36.205400 4.544100
36.230500 4.303900
36.255500 4.094200
36.280600 4.025800
36.305700 4.106000
36.330700 3.948100
36.355800 4.182900
36.380800 3.420700
36.405900 3.159100
36.430900 3.032300
36.456000 2.946600
36.481000 2.890400
36.506100 2.776000
36.531100 2.590900
36.556200 2.473800
36.581200 2.470100
36.606300 2.513400
36.631400 2.694200
36.656400 2.830100
36.681500 3.355000
36.706500 3.966200
36.731600 4.426000
36.756600 4.464900
36.781700 4.459000
36.806700 4.429300
36.831800 4.244000
36.856800 4.098100
36.881900 4.044000
36.907000 3.911000
36.932000 3.814600
36.957100 3.562000
36.982100 3.534600
37.007200 3.284600
37.032200 3.116700
37.057300 3.080100
37.082300 3.070500
37.107400 2.734700
37.132400 2.463500
37.157500 2.472500
37.182600 2.377700
37.207600 2.360600
37.232700 2.503000
37.257700 2.613500
37.282800 2.707000
37.307800 2.804600
37.332900 2.982400
37.357900 3.002600
37.383000 3.037300
37.408000 3.136200
37.433100 3.227400
37.458200 3.262400
37.483200 3.226600
37.508300 3.235600
37.533300 3.213700
37.558400 3.110400
37.583400 2.881300
37.608500 2.709800
37.633500 2.546600
37.658600 2.355400
37.683600 2.325600
37.708700 2.474800
37.733700 2.726700
37.758800 2.874900
37.783900 2.826000
37.808900 2.777800
37.834000 2.781000
37.859000 2.789500
37.884100 2.818900
37.909100 2.767900
37.934200 2.585200
37.959200 2.429500
37.984300 2.319900
38.009300 2.151100
38.034400 2.103900
38.059500 2.146900
38.084500 2.038500
38.109600 2.015200
38.134600 1.913900
38.159700 1.782500
38.184700 1.640500
38.209800 1.521200
38.234800 1.400100
38.259900 1.276200
38.284900 1.173200
38.310000 1.022400
38.335100 0.865900
38.360100 0.738900
38.385200 0.615700
38.410200 0.434500
38.435300 0.223300
38.460300 0.165200
38.485400 0.158200
38.510400 0.001300
38.535500 0.000000
38.560500 0.000000
38.585600 0.000000
38.610700 0.000000
38.635700 0.000000
38.660800 0.000000
38.685800 0.000000
38.710900 0.000000
38.735900 0.000000
38.761000 0.000000
38.786000 0.000000
38.811100 0.000000
38.836100 0.000000
38.861200 0.000000
38.886300 0.000000
38.911300 0.000000
38.936400 0.000000
38.961400 0.000000
38.986500 0.000000
39.011500 0.000000
39.036600 0.000000
39.061600 0.000000
39.086700 0.000000
39.111700 0.000000
39.136800 0.000000
39.161800 0.000000
39.186900 0.000000
39.212000 0.000000
39.237000 0.000000
39.262100 0.000000
39.287100 0.000000
39.312200 0.000000
39.337200 0.000000
39.362300 0.000000
39.387300 0.000000
39.412400 0.000000
39.437400 0.000000
39.462500 0.000000
39.487600 0.000000
39.512600 0.000000
39.537700 0.000000
39.562700 0.000000
39.587800 0.000000
39.612800 0.000000
39.637900 0.000000
39.662900 0.000000
39.688000 0.000000
39.713000 0.000000
39.738100 0.000000
39.763200 0.000000
39.788200 0.000000
39.813300 0.000000
39.838300 0.000000
39.863400 0.000000
39.888400 0.000000
39.913500 0.000000
39.938500 0.000000
39.963600 0.000000
39.988600 0.000000
40.013700 0.000000
40.038800 0.000000
40.063800 0.000000
40.088900 0.000000
40.113900 0.000000
40.139000 0.000000
40.164000 0.000000
40.189100 0.000000
40.214100 0.000000
40.239200 0.000000
40.264200 0.000000
40.289300 0.000000
40.314300 0.000000
40.339400 0.000000
40.364500 0.000000
40.389500 0.000000
40.414600 0.000000
40.439600 0.000000
40.464700 0.000000
40.489700 0.000000
40.514800 0.000000
40.539800 0.000000
40.564900 0.000000
40.589900 0.000000
40.615000 0.000000
40.640100 0.000000
40.665100 0.000000
40.690200 0.000000
40.715200 0.000000
40.740300 0.000000
40.765300 0.000000
40.790400 0.000000
e
