set title 'mp-1184819 - Density of States'
set xlabel 'Energy (eV)'
set ylabel 'DOS (states/eV)'
set grid
set xrange [-10:10]
set yrange [0:84.658]
set xzeroaxis lt -1
set terminal png size 800,600
set output 'mp-1184819_dos_gnuplot.png'
plot '-' using 1:2 with lines title 'DOS'
-10.526700 0.000000
-10.502400 0.000000
-10.478200 0.000000
-10.453900 0.000000
-10.429700 0.000000
-10.405400 0.000000
-10.381200 0.000000
-10.357000 0.000000
-10.332700 0.000000
-10.308500 0.000000
-10.284200 0.000000
-10.260000 0.000000
-10.235700 0.000000
-10.211500 0.000000
-10.187200 0.000000
-10.163000 0.000000
-10.138700 0.000000
-10.114500 0.000000
-10.090200 0.000000
-10.066000 0.000000
-10.041700 0.000000
-10.017500 0.000000
-9.993200 0.000000
-9.969000 0.000000
-9.944700 0.000000
-9.920500 0.000000
-9.896200 0.000000
-9.872000 0.000000
-9.847700 0.000000
-9.823500 0.000000
-9.799200 0.000000
-9.775000 0.000000
-9.750700 0.000000
-9.726500 0.000000
-9.702200 0.000000
-9.678000 0.000000
-9.653700 0.000000
-9.629500 0.000000
-9.605300 0.000000
-9.581000 0.000000
-9.556800 0.000000
-9.532500 0.000000
-9.508300 0.000000
-9.484000 0.000000
-9.459800 0.000000
-9.435500 0.000000
-9.411300 0.000000
-9.387000 0.000000
-9.362800 0.000000
-9.338500 0.000000
-9.314300 0.000000
-9.290000 0.000000
-9.265800 0.000000
-9.241500 0.000000
-9.217300 0.000000
-9.193000 0.000000
-9.168800 0.000000
-9.144500 0.000000
-9.120300 0.000000
-9.096000 0.000000
-9.071800 0.000000
-9.047500 0.000000
-9.023300 0.000000
-8.999000 0.000000
-8.974800 0.000000
-8.950500 0.000000
-8.926300 0.000000
-8.902000 0.000000
-8.877800 0.000000
-8.853500 0.000000
-8.829300 0.000000
-8.805100 0.000000
-8.780800 0.000000
-8.756600 0.000000
-8.732300 0.000000
-8.708100 0.000000
-8.683800 0.000000
-8.659600 0.000000
-8.635300 0.000000
-8.611100 0.000000
-8.586800 0.000000
-8.562600 0.000000
-8.538300 0.000000
-8.514100 0.000000
-8.489800 0.000000
-8.465600 0.000000
-8.441300 0.000000
-8.417100 0.000000
-8.392800 0.000000
-8.368600 0.000000
-8.344300 0.000000
-8.320100 0.503500
-8.295800 12.112300
-8.271600 28.390100
-8.247300 31.268300
-8.223100 28.789100
-8.198800 16.206000
-8.174600 10.701800
-8.150300 7.837500
-8.126100 5.986900
-8.101800 4.554000
-8.077600 3.577600
-8.053400 2.774900
-8.029100 2.080900
-8.004900 1.543700
-7.980600 0.991000
-7.956400 0.439800
-7.932100 6.605100
-7.907900 20.021700
-7.883600 48.859600
-7.859400 69.956900
-7.835100 56.449200
-7.810900 47.103000
-7.786600 36.373500
-7.762400 36.852300
-7.738100 53.074300
-7.713900 54.956100
-7.689600 69.403900
-7.665400 47.360700
-7.641100 76.961700
-7.616900 46.733800
-7.592600 6.896100
-7.568400 0.000000
-7.544100 0.000000
-7.519900 0.000000
-7.495600 0.000000
-7.471400 0.000000
-7.447100 0.000000
-7.422900 0.000000
-7.398600 0.000000
-7.374400 0.000000
-7.350100 0.000000
-7.325900 0.000000
-7.301700 0.000000
-7.277400 0.000000
-7.253200 0.000000
-7.228900 0.000000
-7.204700 0.000000
-7.180400 0.000000
-7.156200 0.000000
-7.131900 0.000000
-7.107700 0.000000
-7.083400 0.000000
-7.059200 0.000000
-7.034900 0.000000
-7.010700 0.000000
-6.986400 0.000000
-6.962200 0.000000
-6.937900 0.000000
-6.913700 0.000000
-6.889400 0.000000
-6.865200 0.000000
-6.840900 0.000000
-6.816700 0.000000
-6.792400 0.000000
-6.768200 0.000000
-6.743900 0.000000
-6.719700 0.000000
-6.695400 0.000000
-6.671200 0.000000
-6.646900 0.000000
-6.622700 0.000000
-6.598400 0.000000
-6.574200 0.000000
-6.550000 0.000000
-6.525700 0.000000
-6.501500 0.000000
-6.477200 0.000000
-6.453000 0.000000
-6.428700 0.000000
-6.404500 0.000000
-6.380200 0.000000
-6.356000 0.000000
-6.331700 0.000000
-6.307500 0.000000
-6.283200 0.000000
-6.259000 0.000000
-6.234700 0.000000
-6.210500 0.000000
-6.186200 0.000000
-6.162000 0.000000
-6.137700 0.000000
-6.113500 0.005300
-6.089200 0.032200
-6.065000 0.082100
-6.040700 0.130000
-6.016500 0.146100
-5.992200 0.148700
-5.968000 0.164100
-5.943700 0.183900
-5.919500 0.204400
-5.895200 0.225700
-5.871000 0.245000
-5.846700 0.258100
-5.822500 0.264800
-5.798200 0.270600
-5.774000 0.281000
-5.749800 0.293100
-5.725500 0.305500
-5.701300 0.317900
-5.677000 0.330200
-5.652800 0.342600
-5.628500 0.355500
-5.604300 0.369300
-5.580000 0.380700
-5.555800 0.390400
-5.531500 0.399000
-5.507300 0.407100
-5.483000 0.416100
-5.458800 0.425000
-5.434500 0.433900
-5.410300 0.443100
-5.386000 0.452400
-5.361800 0.462400
-5.337500 0.472900
-5.313300 0.483700
-5.289000 0.494800
-5.264800 0.506100
-5.240500 0.517400
-5.216300 0.528000
-5.192000 0.537500
-5.167800 0.546200
-5.143500 0.554900
-5.119300 0.563200
-5.095000 0.571600
-5.070800 0.580900
-5.046500 0.590300
-5.022300 0.599700
-4.998100 0.609300
-4.973800 0.619000
-4.949600 0.629000
-4.925300 0.639100
-4.901100 0.649400
-4.876800 0.659800
-4.852600 0.670300
-4.828300 0.680800
-4.804100 0.691400
-4.779800 0.701900
-4.755600 0.711800
-4.731300 0.722100
-4.707100 0.733200
-4.682800 0.744200
-4.658600 0.754900
-4.634300 0.765500
-4.610100 0.776600
-4.585800 0.787800
-4.561600 0.799100
-4.537300 0.810600
-4.513100 0.822100
-4.488800 0.833800
-4.464600 0.845500
-4.440300 0.857300
-4.416100 0.869300
-4.391800 0.881500
-4.367600 0.894500
-4.343300 0.908300
-4.319100 0.921900
-4.294800 0.935800
-4.270600 0.950000
-4.246400 0.964800
-4.222100 0.979900
-4.197900 0.995300
-4.173600 1.011100
-4.149400 1.027700
-4.125100 1.045500
-4.100900 1.063200
-4.076600 1.081300
-4.052400 1.100300
-4.028100 1.119800
-4.003900 1.140300
-3.979600 1.162300
-3.955400 1.184800
-3.931100 1.207900
-3.906900 1.231600
-3.882600 1.255900
-3.858400 1.281000
-3.834100 1.308200
-3.809900 1.337100
-3.785600 1.367100
-3.761400 1.399500
-3.737100 1.436900
-3.712900 1.482000
-3.688600 1.541400
-3.664400 1.606600
-3.640100 1.676300
-3.615900 1.801700
-3.591600 2.059000
-3.567400 2.006900
-3.543100 1.975600
-3.518900 1.991200
-3.494600 1.984800
-3.470400 1.950600
-3.446200 1.938900
-3.421900 1.928300
-3.397700 1.921000
-3.373400 1.938500
-3.349200 1.965000
-3.324900 1.992800
-3.300700 1.958200
-3.276400 1.945000
-3.252200 1.936500
-3.227900 1.930000
-3.203700 1.929000
-3.179400 1.941500
-3.155200 1.954800
-3.130900 1.958200
-3.106700 1.956100
-3.082400 1.952300
-3.058200 1.948600
-3.033900 1.942500
-3.009700 1.936600
-2.985400 2.037100
-2.961200 1.937700
-2.936900 1.960000
-2.912700 1.986200
-2.888400 2.003200
-2.864200 2.010400
-2.839900 2.029000
-2.815700 2.098000
-2.791400 2.257600
-2.767200 2.358300
-2.742900 2.473900
-2.718700 4.126800
-2.694500 3.357800
-2.670200 3.244700
-2.646000 2.912000
-2.621700 2.268000
-2.597500 1.640000
-2.573200 1.095000
-2.549000 0.574000
-2.524700 0.191400
-2.500500 0.000000
-2.476200 0.000000
-2.452000 0.000000
-2.427700 0.000000
-2.403500 0.000000
-2.379200 0.000000
-2.355000 0.000000
-2.330700 0.000000
-2.306500 0.000000
-2.282200 0.000000
-2.258000 0.000000
-2.233700 0.000000
-2.209500 0.000000
-2.185200 0.000000
-2.161000 0.000000
-2.136700 0.000000
-2.112500 0.000000
-2.088200 0.000000
-2.064000 0.000000
-2.039700 0.000000
-2.015500 0.000000
-1.991200 0.000000
-1.967000 0.000000
-1.942800 0.000000
-1.918500 0.000000
-1.894300 0.000000
-1.870000 0.000000
-1.845800 0.000000
-1.821500 0.000000
-1.797300 0.000000
-1.773000 0.000000
-1.748800 0.000000
-1.724500 0.000000
-1.700300 0.000000
-1.676000 0.000000
-1.651800 0.000000
-1.627500 0.000000
-1.603300 0.000000
-1.579000 0.000000
-1.554800 0.000000
-1.530500 0.000000
-1.506300 0.000000
-1.482000 0.000000
-1.457800 0.000000
-1.433500 0.000000
-1.409300 0.000000
-1.385000 0.000000
-1.360800 0.000000
-1.336500 0.000000
-1.312300 0.000000
-1.288000 0.000000
-1.263800 0.000000
-1.239500 0.000000
-1.215300 0.000000
-1.191000 0.000000
-1.166800 0.000000
-1.142600 0.000000
-1.118300 0.000000
-1.094100 0.000000
-1.069800 0.000000
-1.045600 0.000000
-1.021300 0.000000
-0.997100 0.000000
-0.972800 0.000000
-0.948600 0.000000
-0.924300 0.000000
-0.900100 0.000000
-0.875800 0.000000
-0.851600 0.000000
-0.827300 0.000000
-0.803100 0.000000
-0.778800 0.000000
-0.754600 0.000000
-0.730300 0.000000
-0.706100 0.000000
-0.681800 0.000000
-0.657600 0.000000
-0.633300 0.000000
-0.609100 0.000000
-0.584800 0.000000
-0.560600 0.000000
-0.536300 0.000000
-0.512100 0.000000
-0.487800 0.000000
-0.463600 0.000000
-0.439300 0.000000
-0.415100 0.000000
-0.390900 0.000000
-0.366600 0.000000
-0.342400 0.000000
-0.318100 0.000000
-0.293900 0.000000
-0.269600 0.000000
-0.245400 0.000000
-0.221100 0.000000
-0.196900 0.000000
-0.172600 0.000000
-0.148400 0.000000
-0.124100 0.000000
-0.099900 0.000000
-0.075600 0.000000
-0.051400 0.000000
-0.027100 0.000000
-0.002900 0.000000
0.021400 0.000000
0.045600 0.000000
0.069900 0.000000
0.094100 0.000000
0.118400 0.000000
0.142600 0.000000
0.166900 0.000000
0.191100 0.000000
0.215400 0.000000
0.239600 0.000000
0.263900 0.000300
0.288100 0.007900
0.312400 0.025800
0.336600 0.039700
0.360800 0.053700
0.385100 0.068600
0.409300 0.084600
0.433600 0.101500
0.457800 0.118200
0.482100 0.134500
0.506300 0.151100
0.530600 0.168200
0.554800 0.183300
0.579100 0.191800
0.603300 0.295900
0.627600 0.489800
0.651800 0.737300
0.676100 0.945000
0.700300 1.057500
0.724600 1.180200
0.748800 1.350600
0.773100 1.551600
0.797300 1.784400
0.821600 1.978900
0.845800 2.032200
0.870100 2.141900
0.894300 2.294700
0.918600 2.480200
0.942800 2.694500
0.967100 2.952400
0.991300 4.049100
1.015600 3.593500
1.039800 3.532900
1.064100 3.836700
1.088300 3.752900
1.112500 3.739000
1.136800 3.506900
1.161000 2.840600
1.185300 2.324700
1.209500 2.142400
1.233800 2.002200
1.258000 1.892600
1.282300 1.808300
1.306500 1.746800
1.330800 1.695500
1.355000 1.654300
1.379300 1.595800
1.403500 1.542000
1.427800 1.491900
1.452000 1.447400
1.476300 1.393700
1.500500 1.376500
1.524800 1.354600
1.549000 1.338000
1.573300 1.329400
1.597500 1.323300
1.621800 1.318800
1.646000 1.315300
1.670300 1.330600
1.694500 1.343300
1.718800 1.365000
1.743000 1.399200
1.767300 1.472200
1.791500 1.555100
1.815800 1.592900
1.840000 1.603100
1.864300 1.598300
1.888500 1.568400
1.912700 1.441000
1.937000 1.319600
1.961200 1.274700
1.985500 1.230200
2.009700 1.189000
2.034000 1.152100
2.058200 1.119400
2.082500 1.090900
2.106700 1.065300
2.131000 1.040300
2.155200 1.013100
2.179500 0.987000
2.203700 0.962800
2.228000 0.942300
2.252200 0.996300
2.276500 1.010500
2.300700 0.986600
2.325000 0.988300
2.349200 0.990900
2.373500 0.993600
2.397700 0.995900
2.422000 0.997800
2.446200 0.999600
2.470500 0.995300
2.494700 0.991800
2.519000 0.987400
2.543200 0.984000
2.567500 0.981900
2.591700 0.980400
2.616000 0.979500
2.640200 0.978500
2.664400 0.988800
2.688700 1.005000
2.712900 1.024100
2.737200 1.037700
2.761400 1.069900
2.785700 1.147100
2.809900 1.275700
2.834200 1.520300
2.858400 1.645900
2.882700 1.718500
2.906900 1.815400
2.931200 1.931500
2.955400 2.040300
2.979700 1.986600
3.003900 1.879200
3.028200 1.666200
3.052400 1.485000
3.076700 1.475100
3.100900 1.467300
3.125200 1.460300
3.149400 1.456300
3.173700 1.454400
3.197900 1.459900
3.222200 1.481800
3.246400 1.506300
3.270700 1.535300
3.294900 1.569400
3.319200 1.608400
3.343400 1.636200
3.367700 1.643000
3.391900 1.642600
3.416100 1.632200
3.440400 1.631300
3.464600 1.639600
3.488900 1.668400
3.513100 1.685700
3.537400 1.711600
3.561600 1.745200
3.585900 1.781300
3.610100 1.819200
3.634400 1.859200
3.658600 1.905700
3.682900 1.924000
3.707100 1.924600
3.731400 1.932800
3.755600 1.964300
3.779900 1.994600
3.804100 2.028000
3.828400 2.060900
3.852600 2.086600
3.876900 2.112200
3.901100 2.139500
3.925400 2.267900
3.949600 2.195800
3.973900 2.176500
3.998100 2.156900
4.022400 2.133200
4.046600 2.101400
4.070900 2.061800
4.095100 2.034100
4.119400 2.008000
4.143600 1.995900
4.167900 2.081400
4.192100 2.137100
4.216300 2.191900
4.240600 2.260400
4.264800 2.337100
4.289100 2.412100
4.313300 2.472200
4.337600 2.506900
4.361800 2.857600
4.386100 2.654800
4.410300 2.646600
4.434600 2.637500
4.458800 2.653100
4.483100 2.680000
4.507300 2.768100
4.531600 2.813200
4.555800 2.834400
4.580100 2.866800
4.604300 2.963800
4.628600 3.139200
4.652800 3.380500
4.677100 3.408600
4.701300 3.389200
4.725600 3.286400
4.749800 3.180600
4.774100 3.057100
4.798300 2.956500
4.822600 2.917700
4.846800 2.918800
4.871100 2.935800
4.895300 2.977200
4.919600 3.056400
4.943800 3.096900
4.968000 3.308800
4.992300 3.668700
5.016500 4.121400
5.040800 4.061700
5.065000 4.058300
5.089300 4.118800
5.113500 4.401100
5.137800 4.549300
5.162000 4.485800
5.186300 4.248700
5.210500 4.049100
5.234800 3.953100
5.259000 3.777900
5.283300 3.675600
5.307500 3.570300
5.331800 3.430700
5.356000 3.310900
5.380300 3.281400
5.404500 3.217900
5.428800 3.138700
5.453000 3.040100
5.477300 2.944300
5.501500 2.871800
5.525800 2.816600
5.550000 2.764300
5.574300 2.714900
5.598500 2.675000
5.622800 2.641900
5.647000 2.621600
5.671300 2.594700
5.695500 2.562500
5.719700 2.560600
5.744000 2.573400
5.768200 2.477400
5.792500 2.354000
5.816700 2.217600
5.841000 2.100100
5.865200 2.037600
5.889500 1.986000
5.913700 1.914200
5.938000 1.812500
5.962200 1.736900
5.986500 1.670200
6.010700 1.656500
6.035000 1.558300
6.059200 1.476900
6.083500 1.413700
6.107700 1.366800
6.132000 1.325400
6.156200 1.286400
6.180500 1.247200
6.204700 1.216600
6.229000 1.221000
6.253200 1.153200
6.277500 1.094500
6.301700 1.040100
6.326000 0.987400
6.350200 0.936900
6.374500 0.899400
6.398700 0.872600
6.423000 0.849400
6.447200 0.802500
6.471500 0.751000
6.495700 0.698300
6.519900 0.647600
6.544200 0.599000
6.568400 0.519500
6.592700 0.478600
6.616900 0.457900
6.641200 0.399200
6.665400 0.332900
6.689700 0.271900
6.713900 0.236300
6.738200 0.210800
6.762400 0.096000
6.786700 0.006300
6.810900 0.000000
6.835200 0.000000
6.859400 0.000000
6.883700 0.000000
6.907900 0.000000
6.932200 0.000000
6.956400 0.000000
6.980700 0.000000
7.004900 0.000000
7.029200 0.000000
7.053400 0.000000
7.077700 0.000000
7.101900 0.000000
7.126200 0.000000
7.150400 0.000000
7.174700 0.000000
7.198900 0.000000
7.223200 0.000000
7.247400 0.000000
7.271600 0.000000
7.295900 0.000000
7.320100 0.000000
7.344400 0.000000
7.368600 0.000000
7.392900 0.000000
7.417100 0.000000
7.441400 0.000000
7.465600 0.000000
7.489900 0.000000
7.514100 0.000000
7.538400 0.000000
7.562600 0.000000
7.586900 0.000000
7.611100 0.000000
7.635400 0.000000
7.659600 0.000000
7.683900 0.000000
7.708100 0.000200
7.732400 0.000500
7.756600 0.000900
7.780900 0.001500
7.805100 0.002200
7.829400 0.003000
7.853600 0.004000
7.877900 0.005100
7.902100 0.006300
7.926400 0.007700
7.950600 0.009200
7.974900 0.010900
7.999100 0.012600
8.023300 0.014600
8.047600 0.016600
8.071800 0.018800
8.096100 0.023800
8.120300 0.027200
8.144600 0.030200
8.168800 0.033200
8.193100 0.036000
8.217300 0.038800
8.241600 0.041500
8.265800 0.044100
8.290100 0.046600
8.314300 0.049000
8.338600 0.051400
8.362800 0.053700
8.387100 0.056100
8.411300 0.059400
8.435600 0.062800
8.459800 0.066300
8.484100 0.069800
8.508300 0.073500
8.532600 0.077200
8.556800 0.080900
8.581100 0.084900
8.605300 0.088900
8.629600 0.093100
8.653800 0.097500
8.678100 0.102000
8.702300 0.106600
8.726600 0.111400
8.750800 0.116300
8.775000 0.121500
8.799300 0.127200
8.823500 0.133200
8.847800 0.139600
8.872000 0.146500
8.896300 0.153600
8.920500 0.160900
8.944800 0.167800
8.969000 0.174700
8.993300 0.181800
9.017500 0.189100
9.041800 0.196600
9.066000 0.204200
9.090300 0.212000
9.114500 0.220000
9.138800 0.228300
9.163000 0.236800
9.187300 0.245700
9.211500 0.258600
9.235800 0.271700
9.260000 0.291800
9.284300 0.332600
9.308500 0.391900
9.332800 0.460900
9.357000 0.539300
9.381300 0.627100
9.405500 0.724300
9.429800 0.820900
9.454000 0.926900
9.478300 1.025700
9.502500 1.114800
9.526800 1.224200
9.551000 1.359200
9.575200 1.472800
9.599500 1.562700
9.623700 1.648800
9.648000 1.713500
9.672200 1.729500
9.696500 1.759200
9.720700 1.773200
9.745000 1.793200
9.769200 1.813200
9.793500 1.816300
9.817700 1.826100
9.842000 1.824700
9.866200 1.845300
9.890500 1.869600
9.914700 1.894300
9.939000 1.918600
9.963200 1.943200
9.987500 1.968100
10.011700 1.992800
10.036000 2.014300
10.060200 2.054800
10.084500 2.087600
10.108700 2.122000
10.133000 2.154000
10.157200 2.178500
10.181500 2.235000
10.205700 2.297000
10.230000 2.345900
10.254200 2.403400
10.278500 2.462700
10.302700 2.577700
10.326900 2.717000
10.351200 2.790700
10.375400 2.798700
10.399700 2.845800
10.423900 2.873400
10.448200 2.853800
10.472400 2.819400
10.496700 2.771400
10.520900 2.701400
10.545200 2.619800
10.569400 2.561200
10.593700 2.448300
10.617900 2.241100
10.642200 2.088800
10.666400 2.014100
10.690700 1.976500
10.714900 1.980100
10.739200 2.012100
10.763400 2.126800
10.787700 2.195700
10.811900 2.146800
10.836200 2.133200
10.860400 1.854200
10.884700 1.798500
10.908900 1.774300
10.933200 1.721100
10.957400 1.668600
10.981700 1.613600
11.005900 1.635800
11.030200 1.710700
11.054400 1.862400
11.078600 1.969200
11.102900 2.024800
11.127100 2.002200
11.151400 1.897800
11.175600 1.648600
11.199900 1.464300
11.224100 1.359300
11.248400 1.321200
11.272600 1.244100
11.296900 1.205900
11.321100 1.178500
11.345400 1.161800
11.369600 1.133500
11.393900 1.100600
11.418100 1.029200
11.442400 1.037000
11.466600 1.044700
11.490900 0.986000
11.515100 1.009600
11.539400 1.041700
11.563600 1.079900
11.587900 1.128300
11.612100 1.174900
11.636400 1.223900
11.660600 1.274400
11.684900 1.328700
11.709100 1.399100
11.733400 1.479600
11.757600 1.578700
11.781900 1.690400
11.806100 1.783400
11.830400 1.940900
11.854600 2.156900
11.878800 2.342900
11.903100 2.494500
11.927300 2.602900
11.951600 2.688600
11.975800 2.988900
12.000100 3.440100
12.024300 3.129300
12.048600 3.063100
12.072800 3.223300
12.097100 3.175800
12.121300 2.959400
12.145600 2.828700
12.169800 2.768500
12.194100 2.729300
12.218300 2.771600
12.242600 3.061600
12.266800 3.254200
12.291100 3.480600
12.315300 3.810300
12.339600 4.193400
12.363800 4.547800
12.388100 5.037700
12.412300 6.455400
12.436600 5.575500
12.460800 5.272900
12.485100 5.053000
12.509300 4.681300
12.533600 3.919500
12.557800 3.415600
12.582100 3.189200
12.606300 2.975300
12.630500 2.798800
12.654800 2.644000
12.679000 2.489600
12.703300 2.308100
12.727500 1.965200
12.751800 1.648000
12.776000 1.265500
12.800300 1.013600
12.824500 0.843500
12.848800 0.784900
12.873000 0.738300
12.897300 0.690500
12.921500 0.637800
12.945800 0.586500
12.970000 0.546300
12.994300 0.496700
13.018500 0.451400
13.042800 0.384600
13.067000 0.364300
13.091300 0.344400
13.115500 0.324800
13.139800 0.327000
13.164000 0.463100
13.188300 0.769100
13.212500 1.255100
13.236800 1.608500
13.261000 1.643100
13.285300 1.602700
13.309500 1.687900
13.333800 1.780900
13.358000 1.707700
13.382200 1.651400
13.406500 1.674700
13.430700 1.728000
13.455000 1.804900
13.479200 1.888900
13.503500 1.976300
13.527700 2.329200
13.552000 2.544100
13.576200 2.718000
13.600500 2.878700
13.624700 3.394800
13.649000 4.898600
13.673200 5.482400
13.697500 4.957800
13.721700 4.430500
13.746000 4.093800
13.770200 3.866300
13.794500 3.818400
13.818700 3.851200
13.843000 3.916100
13.867200 3.998600
13.891500 3.889900
13.915700 3.858900
13.940000 3.847400
13.964200 3.862200
13.988500 3.880800
14.012700 3.948200
14.037000 3.862700
14.061200 3.625100
14.085500 3.490100
14.109700 3.383300
14.134000 3.218500
14.158200 3.161300
14.182400 3.135200
14.206700 3.028300
14.230900 2.996700
14.255200 2.986400
14.279400 2.933300
14.303700 2.817900
14.327900 2.679900
14.352200 2.624100
14.376400 2.782300
14.400700 2.893000
14.424900 2.986100
14.449200 3.127000
14.473400 3.967400
14.497700 2.720400
14.521900 1.721100
14.546200 1.357800
14.570400 1.070600
14.594700 0.864500
14.618900 0.972500
14.643200 1.575400
14.667400 2.421000
14.691700 1.605700
14.715900 1.613600
14.740200 1.664600
14.764400 1.730700
14.788700 1.906900
14.812900 3.040900
14.837200 2.645600
14.861400 2.069800
14.885700 2.078300
14.909900 2.080700
14.934100 2.060700
14.958400 2.046200
14.982600 2.029400
15.006900 1.998100
15.031100 1.957600
15.055400 1.927600
15.079600 1.921900
15.103900 1.906500
15.128100 1.871000
15.152400 1.844500
15.176600 1.822000
15.200900 1.811000
15.225100 1.810000
15.249400 1.824000
15.273600 1.854900
15.297900 1.883300
15.322100 1.906400
15.346400 1.921200
15.370600 1.924800
15.394900 1.929000
15.419100 1.927000
15.443400 1.934400
15.467600 1.950300
15.491900 1.974300
15.516100 2.001700
15.540400 2.026800
15.564600 2.041300
15.588900 2.026400
15.613100 2.006200
15.637400 1.985900
15.661600 1.964600
15.685800 1.951100
15.710100 1.945400
15.734300 1.933700
15.758600 1.921200
15.782800 1.905200
15.807100 1.884600
15.831300 1.879900
15.855600 1.921300
15.879800 1.916200
15.904100 1.912300
15.928300 1.708300
15.952600 1.649600
15.976800 1.593700
16.001100 1.544400
16.025300 1.500900
16.049600 1.456200
16.073800 1.427700
16.098100 1.410900
16.122300 1.404100
16.146600 1.401400
16.170800 1.402100
16.195100 1.456600
16.219300 1.480700
16.243600 1.526900
16.267800 1.507900
16.292100 1.521300
16.316300 1.527800
16.340600 1.552000
16.364800 1.583300
16.389100 1.615200
16.413300 1.648700
16.437500 1.695700
16.461800 1.764900
16.486000 1.850500
16.510300 1.990400
16.534500 2.216300
16.558800 2.477800
16.583000 2.675700
16.607300 2.591700
16.631500 2.423700
16.655800 2.320300
16.680000 2.250400
16.704300 2.254400
16.728500 2.318000
16.752800 2.362100
16.777000 2.177600
16.801300 1.860200
16.825500 1.647800
16.849800 1.479500
16.874000 1.298800
16.898300 1.332700
16.922500 1.357700
16.946800 1.395400
16.971000 1.485800
16.995300 1.604000
17.019500 1.732500
17.043800 1.906400
17.068000 2.220200
17.092300 2.674400
17.116500 3.310500
17.140800 3.403200
17.165000 3.119800
17.189300 2.504200
17.213500 2.048500
17.237700 1.811900
17.262000 1.691200
17.286200 1.588600
17.310500 1.497000
17.334700 1.424900
17.359000 1.384100
17.383200 1.359500
17.407500 1.340800
17.431700 1.332700
17.456000 1.334000
17.480200 1.373500
17.504500 1.387900
17.528700 1.402000
17.553000 1.416400
17.577200 1.432500
17.601500 1.448600
17.625700 1.462400
17.650000 1.489300
17.674200 1.513800
17.698500 1.539100
17.722700 1.565000
17.747000 1.543500
17.771200 1.561200
17.795500 1.587800
17.819700 1.620500
17.844000 1.659600
17.868200 1.744800
17.892500 1.795700
17.916700 1.835700
17.941000 1.867900
17.965200 1.876200
17.989400 2.003700
18.013700 2.072500
18.037900 2.111200
18.062200 2.113200
18.086400 2.107500
18.110700 2.080800
18.134900 2.024100
18.159200 1.895200
18.183400 1.841500
18.207700 1.803200
18.231900 1.778700
18.256200 1.755400
18.280400 1.728900
18.304700 1.704100
18.328900 1.695100
18.353200 1.705600
18.377400 1.695100
18.401700 1.671500
18.425900 1.636400
18.450200 1.600000
18.474400 1.563200
18.498700 1.525100
18.522900 1.481500
18.547200 1.442700
18.571400 1.412300
18.595700 1.388400
18.619900 1.374400
18.644200 1.364000
18.668400 1.346800
18.692700 1.276500
18.716900 1.200800
18.741100 1.164700
18.765400 1.133200
18.789600 1.105900
18.813900 1.083500
18.838100 1.065900
18.862400 1.054800
18.886600 1.044100
18.910900 1.032800
18.935100 1.020800
18.959400 1.008200
18.983600 1.001900
19.007900 0.994700
19.032100 0.965400
19.056400 0.941200
19.080600 0.913300
19.104900 0.881100
19.129100 0.884400
19.153400 0.889900
19.177600 0.896700
19.201900 0.904600
19.226100 0.914600
19.250400 0.936600
19.274600 0.982600
19.298900 1.019200
19.323100 0.997500
19.347400 0.959100
19.371600 0.916400
19.395900 0.890000
19.420100 0.881200
19.444400 0.962200
19.468600 1.081300
19.492900 1.083100
19.517100 1.089000
19.541300 1.085600
19.565600 1.086300
19.589800 1.083900
19.614100 1.081800
19.638300 1.103700
19.662600 1.132000
19.686800 1.138100
19.711100 1.078600
19.735300 1.087200
19.759600 1.133700
19.783800 1.686600
19.808100 2.055700
19.832300 1.861700
19.856600 1.607500
19.880800 1.494800
19.905100 1.467400
19.929300 1.454600
19.953600 1.440600
19.977800 1.568500
20.002100 1.584700
20.026300 1.633900
20.050600 1.692500
20.074800 1.759600
20.099100 1.829200
20.123300 1.898200
20.147600 1.938300
20.171800 1.969200
20.196100 2.094900
20.220300 2.185500
20.244600 2.146500
20.268800 2.130100
20.293000 2.120000
20.317300 2.091400
20.341500 2.076600
20.365800 2.128400
20.390000 2.133500
20.414300 2.159300
20.438500 2.203600
20.462800 2.241200
20.487000 2.319400
20.511300 2.387500
20.535500 2.446900
20.559800 2.502100
20.584000 2.325500
20.608300 2.294300
20.632500 2.320800
20.656800 2.357800
20.681000 2.405300
20.705300 2.487400
20.729500 2.525500
20.753800 2.567500
20.778000 2.664300
20.802300 2.768400
20.826500 2.830200
20.850800 2.899900
20.875000 2.971100
20.899300 3.039200
20.923500 3.130800
20.947800 3.175900
20.972000 3.233500
20.996300 3.097400
21.020500 2.956900
21.044700 2.836000
21.069000 2.865500
21.093200 2.787400
21.117500 2.741100
21.141700 2.591200
21.166000 2.417100
21.190200 2.239200
21.214500 2.083400
21.238700 1.930900
21.263000 1.833500
21.287200 1.763400
21.311500 1.717900
21.335700 1.680600
21.360000 1.645300
21.384200 1.706800
21.408500 1.572600
21.432700 1.566600
21.457000 1.572200
21.481200 1.602400
21.505500 1.649600
21.529700 1.701100
21.554000 1.752100
21.578200 1.751700
21.602500 1.814000
21.626700 1.880000
21.651000 1.943900
21.675200 1.969600
21.699500 1.966000
21.723700 1.972300
21.748000 1.975400
21.772200 1.977200
21.796500 1.994000
21.820700 2.016700
21.844900 2.038000
21.869200 2.049700
21.893400 2.071700
21.917700 2.133900
21.941900 2.159100
21.966200 2.234100
21.990400 2.325100
22.014700 2.445800
22.038900 2.563100
22.063200 2.625700
22.087400 2.556600
22.111700 2.367100
22.135900 2.206400
22.160200 2.085900
22.184400 1.980400
22.208700 1.878200
22.232900 1.782600
22.257200 1.701000
22.281400 1.637500
22.305700 1.596100
22.329900 1.587900
22.354200 1.599700
22.378400 1.613600
22.402700 1.611300
22.426900 1.614400
22.451200 1.616800
22.475400 1.619500
22.499700 1.628900
22.523900 1.648500
22.548200 1.677000
22.572400 1.703800
22.596600 1.723600
22.620900 1.752100
22.645100 1.776100
22.669400 1.805000
22.693600 1.855800
22.717900 1.841100
22.742100 1.895000
22.766400 1.951600
22.790600 2.007000
22.814900 2.059200
22.839100 2.118500
22.863400 2.148500
22.887600 2.182600
22.911900 2.214800
22.936100 2.223900
22.960400 2.209200
22.984600 2.185600
23.008900 2.137700
23.033100 2.133100
23.057400 2.155700
23.081600 2.181100
23.105900 2.219600
23.130100 2.258200
23.154400 2.303700
23.178600 2.361100
23.202900 2.428800
23.227100 2.405500
23.251400 2.344300
23.275600 2.292400
23.299900 2.267000
23.324100 2.159200
23.348300 2.123100
23.372600 2.098900
23.396800 2.080600
23.421100 2.076400
23.445300 2.081800
23.469600 2.071100
23.493800 2.051600
23.518100 2.023700
23.542300 2.008800
23.566600 2.011200
23.590800 2.006000
23.615100 2.096900
23.639300 2.315900
23.663600 2.327100
23.687800 2.074900
23.712100 1.947000
23.736300 1.757800
23.760600 1.450800
23.784800 1.367100
23.809100 1.331500
23.833300 1.299100
23.857600 1.268200
23.881800 1.241900
23.906100 1.221400
23.930300 1.211200
23.954600 1.215300
23.978800 1.226800
24.003100 1.245600
24.027300 1.271500
24.051600 1.304000
24.075800 1.369600
24.100000 1.459400
24.124300 1.546900
24.148500 1.622800
24.172800 1.703000
24.197000 1.830400
24.221300 2.071300
24.245500 2.608800
24.269800 2.819400
24.294000 2.935700
24.318300 3.141400
24.342500 3.385900
24.366800 3.508400
24.391000 3.419500
24.415300 3.440300
24.439500 3.530200
24.463800 3.755500
24.488000 3.782700
24.512300 3.803400
24.536500 3.898800
24.560800 4.077200
24.585000 4.272000
24.609300 4.320200
24.633500 4.464200
24.657800 4.693900
24.682000 4.871500
24.706300 5.044400
24.730500 4.835900
24.754800 4.612000
24.779000 4.797900
24.803300 4.271800
24.827500 4.610200
24.851800 5.187300
24.876000 4.991600
24.900200 4.500900
24.924500 3.941000
24.948700 3.567900
24.973000 3.293600
24.997200 3.151100
25.021500 3.458300
25.045700 3.493100
25.070000 2.761700
25.094200 2.590000
25.118500 2.974700
25.142700 3.510700
25.167000 4.067800
25.191200 4.432500
25.215500 4.657100
25.239700 4.969100
25.264000 4.923300
25.288200 4.346300
25.312500 4.111100
25.336700 3.975000
25.361000 3.697500
25.385200 3.383000
25.409500 3.349000
25.433700 3.373600
25.458000 3.407800
25.482200 3.544100
25.506500 3.766800
25.530700 3.943300
25.555000 4.055900
25.579200 4.173900
25.603500 4.139900
25.627700 4.143300
25.651900 4.173700
25.676200 4.173200
25.700400 4.104500
25.724700 4.063300
25.748900 4.041700
25.773200 4.030400
25.797400 3.971400
25.821700 3.899900
25.845900 3.804200
25.870200 3.704600
25.894400 3.735500
25.918700 3.809400
25.942900 3.920000
25.967200 3.643900
25.991400 3.390700
26.015700 3.080900
26.039900 2.899900
26.064200 2.848900
26.088400 2.765500
26.112700 2.639800
26.136900 2.432600
26.161200 2.334200
26.185400 2.107800
26.209700 1.884500
26.233900 1.807000
26.258200 1.809600
26.282400 1.909600
26.306700 1.911400
26.330900 1.912200
26.355200 1.913400
26.379400 1.935200
26.403600 1.909800
26.427900 1.869400
26.452100 1.840200
26.476400 1.809800
26.500600 1.774500
26.524900 1.743100
26.549100 1.720800
26.573400 1.703500
26.597600 1.685300
26.621900 1.667000
26.646100 1.693300
26.670400 1.783800
26.694600 1.855600
26.718900 1.929200
26.743100 2.013900
26.767400 2.089800
26.791600 2.201900
26.815900 2.267200
26.840100 2.317600
26.864400 2.381400
26.888600 2.385100
26.912900 2.490900
26.937100 2.618500
26.961400 2.805700
26.985600 3.162300
27.009900 3.426900
27.034100 3.567400
27.058400 3.362900
27.082600 3.202800
27.106900 3.259800
27.131100 3.303400
27.155400 3.302100
27.179600 3.343700
27.203800 3.539000
27.228100 3.789600
27.252300 3.709500
27.276600 3.734300
27.300800 3.877600
27.325100 3.970900
27.349300 4.130000
27.373600 4.287000
27.397800 4.380000
27.422100 4.403600
27.446300 4.383900
27.470600 4.393500
27.494800 4.354800
27.519100 4.247000
27.543300 4.091200
27.567600 3.730900
27.591800 3.300200
27.616100 3.050800
27.640300 2.483900
27.664600 2.237800
27.688800 2.159000
27.713100 2.152900
27.737300 2.174500
27.761600 2.210000
27.785800 2.251800
27.810100 2.310200
27.834300 2.352100
27.858600 2.358300
27.882800 2.310700
27.907100 2.326300
27.931300 2.415100
27.955500 2.524600
27.979800 2.655300
28.004000 3.009900
28.028300 3.422800
28.052500 3.673000
28.076800 3.998300
28.101000 4.197700
28.125300 4.251100
28.149500 4.159700
28.173800 3.467300
28.198000 2.905800
28.222300 2.536000
28.246500 2.287500
28.270800 1.994600
28.295000 1.918500
28.319300 1.958700
28.343500 2.104800
28.367800 2.258500
28.392000 2.411600
28.416300 2.565400
28.440500 2.851800
28.464800 3.294800
28.489000 3.461000
28.513300 3.350000
28.537500 2.894400
28.561800 2.527400
28.586000 2.381200
28.610300 2.297800
28.634500 2.243300
28.658800 2.236100
28.683000 2.225500
28.707200 2.231100
28.731500 2.233100
28.755700 2.226300
28.780000 2.209600
28.804200 2.203800
28.828500 2.224600
28.852700 2.274300
28.877000 2.336100
28.901200 2.409700
28.925500 2.503300
28.949700 2.555000
28.974000 2.545100
28.998200 2.543500
29.022500 2.564600
29.046700 2.578800
29.071000 2.533400
29.095200 2.456100
29.119500 2.396900
29.143700 2.388400
29.168000 2.396800
29.192200 2.450000
29.216500 2.535700
29.240700 2.649800
29.265000 2.866900
29.289200 2.917900
29.313500 2.881400
29.337700 2.550200
29.362000 2.306700
29.386200 2.135800
29.410500 2.013100
29.434700 1.905300
29.459000 1.898700
29.483200 1.906800
29.507400 1.773200
29.531700 1.710900
29.555900 1.671100
29.580200 1.641000
29.604400 1.598800
29.628700 1.543300
29.652900 1.527200
29.677200 1.511800
29.701400 1.499200
29.725700 1.488300
29.749900 1.479100
29.774200 1.472800
29.798400 1.471200
29.822700 1.477200
29.846900 1.490600
29.871200 1.510000
29.895400 1.535700
29.919700 1.565600
29.943900 1.582200
29.968200 1.651300
29.992400 1.781000
30.016700 1.945100
30.040900 2.126400
30.065200 2.298100
30.089400 2.486100
30.113700 2.683400
30.137900 2.862300
30.162200 3.007400
30.186400 3.098600
30.210700 3.125500
30.234900 3.149800
30.259100 3.101400
30.283400 3.079100
30.307600 3.091200
30.331900 3.108200
30.356100 3.073900
30.380400 2.939300
30.404600 2.757500
30.428900 2.678500
30.453100 2.619400
30.477400 2.551600
30.501600 2.451900
30.525900 2.356000
30.550100 2.276400
30.574400 2.240400
30.598600 2.216900
30.622900 2.194700
30.647100 2.165900
30.671400 2.173300
30.695600 2.178800
30.719900 2.184400
30.744100 2.196400
30.768400 2.215800
30.792600 2.233000
30.816900 2.256600
30.841100 2.296300
30.865400 2.369200
30.889600 2.485000
30.913900 2.566500
30.938100 2.611100
30.962400 2.657600
30.986600 2.840600
31.010800 2.970400
31.035100 3.096900
31.059300 3.121600
31.083600 3.175000
31.107800 3.212200
31.132100 3.234600
31.156300 3.243400
31.180600 3.277400
31.204800 3.299900
31.229100 3.350200
31.253300 3.426600
31.277600 3.466900
31.301800 3.520600
31.326100 3.513100
31.350300 3.542900
31.374600 3.584300
31.398800 3.413900
31.423100 3.243400
31.447300 3.072400
31.471600 3.022700
31.495800 3.047700
31.520100 3.156100
31.544300 3.237200
31.568600 3.071400
31.592800 2.978300
31.617100 2.926500
31.641300 2.942900
31.665600 2.903600
31.689800 2.858500
31.714100 2.823200
31.738300 2.794600
31.762500 2.782100
31.786800 2.832900
31.811000 2.800600
31.835300 2.796000
31.859500 2.792500
31.883800 2.785300
31.908000 2.769500
31.932300 2.766100
31.956500 2.761300
31.980800 2.737500
32.005000 2.723400
32.029300 2.731700
32.053500 2.748600
32.077800 2.753200
32.102000 2.774100
32.126300 2.841500
32.150500 2.903900
32.174800 2.954300
32.199000 2.828400
32.223300 2.838300
32.247500 2.867200
32.271800 2.889600
32.296000 2.908500
32.320300 2.938800
32.344500 2.944800
32.368800 2.931300
32.393000 2.927600
32.417300 2.887300
32.441500 2.958200
32.465800 3.092900
32.490000 3.062000
32.514300 3.014700
32.538500 2.995300
32.562700 2.952100
32.587000 2.915100
32.611200 2.875100
32.635500 2.839400
32.659700 2.869900
32.684000 2.884000
32.708200 2.899300
32.732500 2.990600
32.756700 2.848700
32.781000 2.674100
32.805200 2.548200
32.829500 2.426800
32.853700 2.218800
32.878000 2.075800
32.902200 1.981600
32.926500 1.945500
32.950700 1.978400
32.975000 2.033600
32.999200 2.108400
33.023500 2.196800
33.047700 2.298400
33.072000 2.469400
33.096200 2.845800
33.120500 3.089600
33.144700 3.336800
33.169000 3.494500
33.193200 3.554000
33.217500 3.341900
33.241700 3.275000
33.266000 3.283200
33.290200 3.299500
33.314400 3.354200
33.338700 3.707100
33.362900 3.904900
33.387200 4.069500
33.411400 4.355100
33.435700 4.590600
33.459900 4.435600
33.484200 4.138300
33.508400 3.813100
33.532700 3.651300
33.556900 3.591800
33.581200 3.680500
33.605400 3.672600
33.629700 3.756900
33.653900 3.574400
33.678200 3.534100
33.702400 3.381700
33.726700 3.283900
33.750900 3.192800
33.775200 3.110800
33.799400 3.055800
33.823700 3.050700
33.847900 2.995500
33.872200 2.846600
33.896400 2.777100
33.920700 2.735900
33.944900 2.598500
33.969200 2.514300
33.993400 2.479300
34.017700 2.475500
34.041900 2.536100
34.066100 2.606000
34.090400 2.728800
34.114600 2.801200
34.138900 2.819900
34.163100 2.755800
34.187400 2.721200
34.211600 2.714300
34.235900 2.684800
34.260100 2.630500
34.284400 2.643300
34.308600 2.564200
34.332900 2.474500
34.357100 2.368500
34.381400 2.290100
34.405600 2.241900
34.429900 2.344000
34.454100 2.489900
34.478400 2.565900
34.502600 2.425900
34.526900 2.311100
34.551100 2.015800
34.575400 1.777900
34.599600 1.557600
34.623900 1.309200
34.648100 1.093700
34.672400 0.903800
34.696600 0.738200
34.720900 0.643100
34.745100 0.578200
34.769400 0.514400
34.793600 0.637500
34.817900 0.294200
34.842100 0.227600
34.866300 0.179700
34.890600 0.150600
34.914800 0.140100
34.939100 0.137200
34.963300 0.135100
34.987600 0.133700
35.011800 0.132600
35.036100 0.130700
35.060300 0.126000
35.084600 0.120000
35.108800 0.114000
35.133100 0.109200
35.157300 0.104900
35.181600 0.100400
35.205800 0.095700
35.230100 0.093400
35.254300 0.092900
35.278600 0.089800
35.302800 0.084900
35.327100 0.080100
35.351300 0.075400
35.375600 0.070800
35.399800 0.066400
35.424100 0.062200
35.448300 0.058000
35.472600 0.054000
35.496800 0.050200
35.521100 0.046400
35.545300 0.042900
35.569600 0.039400
35.593800 0.036100
35.618000 0.030500
35.642300 0.022200
35.666500 0.014300
35.690800 0.008200
35.715000 0.003700
35.739300 0.001000
35.763500 0.000000
35.787800 0.000000
35.812000 0.000000
35.836300 0.000000
35.860500 0.000000
35.884800 0.000000
35.909000 0.000000
35.933300 0.000000
35.957500 0.000000
35.981800 0.000000
36.006000 0.000000
36.030300 0.000000
36.054500 0.000000
36.078800 0.000000
36.103000 0.000000
36.127300 0.000000
36.151500 0.000000
36.175800 0.000000
36.200000 0.000000
36.224300 0.000000
36.248500 0.000000
36.272800 0.000000
36.297000 0.000000
36.321300 0.000000
36.345500 0.000000
36.369700 0.000000
36.394000 0.000000
36.418200 0.000000
36.442500 0.000000
36.466700 0.000000
36.491000 0.000000
36.515200 0.000000
36.539500 0.000000
36.563700 0.000000
36.588000 0.000000
36.612200 0.000000
36.636500 0.000000
36.660700 0.000000
36.685000 0.000000
36.709200 0.000000
36.733500 0.000000
36.757700 0.000000
36.782000 0.000000
36.806200 0.000000
36.830500 0.000000
36.854700 0.000000
36.879000 0.000000
36.903200 0.000000
36.927500 0.000000
36.951700 0.000000
36.976000 0.000000
37.000200 0.000000
37.024500 0.000000
37.048700 0.000000
37.073000 0.000000
37.097200 0.000000
37.121500 0.000000
37.145700 0.000000
37.169900 0.000000
37.194200 0.000000
37.218400 0.000000
37.242700 0.000000
37.266900 0.000000
37.291200 0.000000
37.315400 0.000000
37.339700 0.000000
37.363900 0.000000
37.388200 0.000000
37.412400 0.000000
37.436700 0.000000
37.460900 0.000000
37.485200 0.000000
37.509400 0.000000
37.533700 0.000000
37.557900 0.000000
37.582200 0.000000
37.606400 0.000000
37.630700 0.000000
37.654900 0.000000
37.679200 0.000000
37.703400 0.000000
37.727700 0.000000
37.751900 0.000000
37.776200 0.000000
37.800400 0.000000
37.824700 0.000000
37.848900 0.000000
37.873200 0.000000
37.897400 0.000000
37.921600 0.000000
37.945900 0.000000
37.970100 0.000000
e
