set title 'mp-998861 - Density of States'
set xlabel 'Energy (eV)'
set ylabel 'DOS (states/eV)'
set grid
set xrange [-10:10]
set yrange [0:1.278]
set xzeroaxis lt -1
set terminal png size 800,600
set output 'mp-998861_dos_gnuplot.png'
plot '-' using 1:2 with lines title 'DOS'
-18.445500 0.000000
-18.393100 0.000000
-18.340800 0.000000
-18.288500 0.000000
-18.236100 0.000000
-18.183800 0.000000
-18.131400 0.000000
-18.079100 0.000000
-18.026800 0.000000
-17.974400 0.000000
-17.922100 0.000000
-17.869700 0.000000
-17.817400 0.000000
-17.765000 0.000000
-17.712700 0.000000
-17.660400 0.000000
-17.608000 0.000000
-17.555700 0.000000
-17.503300 0.000000
-17.451000 0.000000
-17.398700 0.000000
-17.346300 0.000000
-17.294000 0.000000
-17.241600 0.000000
-17.189300 0.000000
-17.137000 0.000000
-17.084600 0.000000
-17.032300 0.000000
-16.979900 0.000000
-16.927600 0.000000
-16.875300 0.000000
-16.822900 0.000000
-16.770600 0.000000
-16.718200 0.000000
-16.665900 0.000000
-16.613600 0.000000
-16.561200 0.000000
-16.508900 0.000000
-16.456500 0.000000
-16.404200 0.000000
-16.351800 0.000000
-16.299500 0.000000
-16.247200 0.000000
-16.194800 0.000000
-16.142500 0.000000
-16.090100 0.000000
-16.037800 0.000000
-15.985500 0.000000
-15.933100 0.000000
-15.880800 0.000000
-15.828400 0.000000
-15.776100 0.000000
-15.723800 0.000000
-15.671400 0.000000
-15.619100 0.000000
-15.566700 0.000000
-15.514400 0.000000
-15.462100 0.000000
-15.409700 0.000000
-15.357400 0.000000
-15.305000 0.000000
-15.252700 0.000000
-15.200300 0.000000
-15.148000 0.000000
-15.095700 0.000000
-15.043300 0.000000
-14.991000 0.000000
-14.938600 0.000000
-14.886300 0.000000
-14.834000 0.000000
-14.781600 0.000000
-14.729300 0.000000
-14.676900 0.000000
-14.624600 0.000000
-14.572300 0.000000
-14.519900 0.000000
-14.467600 0.000000
-14.415200 0.000000
-14.362900 0.000000
-14.310600 0.000000
-14.258200 0.000000
-14.205900 0.000000
-14.153500 0.000000
-14.101200 0.000000
-14.048800 0.000000
-13.996500 0.000000
-13.944200 0.000000
-13.891800 0.000000
-13.839500 0.000000
-13.787100 0.000000
-13.734800 0.000000
-13.682500 0.017700
-13.630100 0.055600
-13.577800 0.079000
-13.525400 0.100300
-13.473100 0.114800
-13.420800 0.132400
-13.368400 0.146200
-13.316100 0.161900
-13.263700 0.177200
-13.211400 0.192100
-13.159100 0.208200
-13.106700 0.224900
-13.054400 0.240800
-13.002000 0.259800
-12.949700 0.278600
-12.897400 0.299100
-12.845000 0.321100
-12.792700 0.345800
-12.740300 0.372500
-12.688000 0.401900
-12.635600 0.436400
-12.583300 0.474800
-12.531000 0.523000
-12.478600 0.577500
-12.426300 0.652400
-12.373900 0.755000
-12.321600 0.982100
-12.269300 1.034000
-12.216900 1.053700
-12.164600 1.071800
-12.112200 1.094400
-12.059900 1.140000
-12.007600 1.183600
-11.955200 1.311400
-11.902900 1.368500
-11.850500 1.742600
-11.798200 0.000000
-11.745900 0.000000
-11.693500 0.000000
-11.641200 0.000000
-11.588800 0.000000
-11.536500 0.000000
-11.484100 0.000000
-11.431800 0.000000
-11.379500 0.000000
-11.327100 0.000000
-11.274800 0.000000
-11.222400 0.000000
-11.170100 0.000000
-11.117800 0.000000
-11.065400 0.000000
-11.013100 0.000000
-10.960700 0.000000
-10.908400 0.000000
-10.856100 0.000000
-10.803700 0.000000
-10.751400 0.000000
-10.699000 0.000000
-10.646700 0.000000
-10.594400 0.000000
-10.542000 0.000000
-10.489700 0.000000
-10.437300 0.000000
-10.385000 0.000000
-10.332700 0.000000
-10.280300 0.000000
-10.228000 0.000000
-10.175600 0.000000
-10.123300 0.000000
-10.070900 0.000000
-10.018600 0.000000
-9.966300 0.000000
-9.913900 0.000000
-9.861600 0.000000
-9.809200 0.000000
-9.756900 0.000000
-9.704600 0.000000
-9.652200 0.000000
-9.599900 0.000000
-9.547500 0.000000
-9.495200 0.000000
-9.442900 0.000000
-9.390500 0.000000
-9.338200 0.000000
-9.285800 0.000000
-9.233500 0.000000
-9.181200 0.000000
-9.128800 0.000000
-9.076500 0.000000
-9.024100 0.000000
-8.971800 0.000000
-8.919400 0.000000
-8.867100 0.000000
-8.814800 0.000000
-8.762400 0.000000
-8.710100 0.000000
-8.657700 0.000000
-8.605400 0.000000
-8.553100 0.000000
-8.500700 0.000000
-8.448400 0.000000
-8.396000 0.000000
-8.343700 0.000000
-8.291400 0.000000
-8.239000 0.000000
-8.186700 0.000000
-8.134300 0.000000
-8.082000 0.000000
-8.029700 0.000000
-7.977300 0.000000
-7.925000 0.000000
-7.872600 0.000000
-7.820300 0.000000
-7.767900 0.000000
-7.715600 0.000000
-7.663300 0.000000
-7.610900 0.000000
-7.558600 0.000000
-7.506200 0.000000
-7.453900 0.000000
-7.401600 0.000000
-7.349200 0.000000
-7.296900 0.000000
-7.244500 0.000000
-7.192200 0.000000
-7.139900 0.000000
-7.087500 0.000000
-7.035200 0.000000
-6.982800 0.000000
-6.930500 0.000000
-6.878200 0.000000
-6.825800 0.000000
-6.773500 0.000000
-6.721100 0.000000
-6.668800 0.000000
-6.616500 0.000000
-6.564100 0.000000
-6.511800 0.000000
-6.459400 0.000000
-6.407100 0.000000
-6.354700 0.000000
-6.302400 0.000000
-6.250100 0.000000
-6.197700 0.000000
-6.145400 0.000000
-6.093000 0.000000
-6.040700 0.000000
-5.988400 0.000000
-5.936000 0.000000
-5.883700 0.000000
-5.831300 0.000000
-5.779000 0.000000
-5.726700 0.000000
-5.674300 0.000000
-5.622000 0.000000
-5.569600 0.000000
-5.517300 0.000000
-5.465000 0.000000
-5.412600 0.000000
-5.360300 0.000000
-5.307900 0.000000
-5.255600 0.000000
-5.203200 0.000000
-5.150900 0.000000
-5.098600 0.000000
-5.046200 0.000000
-4.993900 0.000000
-4.941500 0.000000
-4.889200 0.000000
-4.836900 0.000000
-4.784500 0.000000
-4.732200 0.000000
-4.679800 0.000000
-4.627500 0.000000
-4.575200 0.000000
-4.522800 0.000000
-4.470500 0.000000
-4.418100 0.000000
-4.365800 0.000000
-4.313500 0.000000
-4.261100 0.000000
-4.208800 0.000000
-4.156400 0.000000
-4.104100 0.000000
-4.051800 0.000000
-3.999400 0.000000
-3.947100 0.000000
-3.894700 0.000000
-3.842400 0.000000
-3.790000 0.000000
-3.737700 0.000000
-3.685400 0.000000
-3.633000 0.000000
-3.580700 0.000000
-3.528300 0.000000
-3.476000 0.000000
-3.423700 0.000000
-3.371300 0.000000
-3.319000 0.000000
-3.266600 0.000000
-3.214300 0.000000
-3.162000 0.000000
-3.109600 0.000000
-3.057300 0.000000
-3.004900 0.000000
-2.952600 0.000000
-2.900300 0.086000
-2.847900 0.110500
-2.795600 0.145200
-2.743200 0.163600
-2.690900 0.189200
-2.638500 0.212100
-2.586200 0.229800
-2.533900 0.251400
-2.481500 0.276600
-2.429200 0.353900
-2.376800 0.411500
-2.324500 0.466500
-2.272200 0.523800
-2.219800 0.593100
-2.167500 0.661900
-2.115100 0.763900
-2.062800 0.971900
-2.010500 1.051000
-1.958100 1.000400
-1.905800 1.006400
-1.853400 0.945300
-1.801100 1.161600
-1.748800 0.765700
-1.696400 0.643300
-1.644100 0.505300
-1.591700 0.408500
-1.539400 0.341900
-1.487000 0.301000
-1.434700 0.222700
-1.382400 0.206800
-1.330000 0.194900
-1.277700 0.247500
-1.225300 0.311800
-1.173000 0.343400
-1.120700 0.348400
-1.068300 0.357000
-1.016000 0.365600
-0.963600 0.379800
-0.911300 0.382800
-0.859000 0.388800
-0.806600 0.394700
-0.754300 0.399800
-0.701900 0.404000
-0.649600 0.409800
-0.597300 0.414800
-0.544900 0.415900
-0.492600 0.417600
-0.440200 0.420200
-0.387900 0.422900
-0.335600 0.425500
-0.283200 0.428400
-0.230900 0.429500
-0.178500 0.429600
-0.126200 0.430500
-0.073800 0.432100
-0.021500 0.433600
0.030800 0.472100
0.083200 0.496200
0.135500 0.527500
0.187900 0.557200
0.240200 0.583600
0.292500 0.610400
0.344900 0.656500
0.397200 0.705300
0.449600 0.770100
0.501900 0.862300
0.554200 0.872500
0.606600 0.863200
0.658900 0.866600
0.711300 0.859500
0.763600 0.865300
0.815900 0.859500
0.868300 0.868500
0.920600 0.865600
0.973000 0.857900
1.025300 0.868600
1.077700 0.872900
1.130000 0.870700
1.182300 0.871300
1.234700 0.874700
1.287000 0.880900
1.339400 0.887300
1.391700 0.884100
1.444000 0.894700
1.496400 0.901800
1.548700 0.914000
1.601100 0.910500
1.653400 0.915300
1.705700 0.951100
1.758100 0.860900
1.810400 0.697500
1.862800 0.649800
1.915100 0.575400
1.967400 0.520700
2.019800 0.486000
2.072100 0.436300
2.124500 0.397100
2.176800 0.354700
2.229100 0.321800
2.281500 0.256000
2.333800 0.196900
2.386200 0.042100
2.438500 0.000000
2.490900 0.000000
2.543200 0.000000
2.595500 0.000000
2.647900 0.000000
2.700200 0.000000
2.752600 0.000000
2.804900 0.000000
2.857200 0.000000
2.909600 0.000000
2.961900 0.000000
3.014300 0.000000
3.066600 0.000000
3.118900 0.000000
3.171300 0.000000
3.223600 0.000000
3.276000 0.000000
3.328300 0.000000
3.380600 0.000000
3.433000 0.000000
3.485300 0.000000
3.537700 0.000000
3.590000 0.000000
3.642400 0.000000
3.694700 0.000000
3.747000 0.000000
3.799400 0.000000
3.851700 0.000000
3.904100 0.000000
3.956400 0.000000
4.008700 0.000000
4.061100 0.000000
4.113400 0.000000
4.165800 0.000000
4.218100 0.000000
4.270400 0.000000
4.322800 0.000000
4.375100 0.000000
4.427500 0.000000
4.479800 0.000000
4.532100 0.000000
4.584500 0.000000
4.636800 0.000000
4.689200 0.000000
4.741500 0.000000
4.793900 0.000000
4.846200 0.000000
4.898500 0.000000
4.950900 0.000000
5.003200 0.000000
5.055600 0.000000
5.107900 0.000000
5.160200 0.000000
5.212600 0.000000
5.264900 0.000000
5.317300 0.000000
5.369600 0.000000
5.421900 0.000000
5.474300 0.000000
5.526600 0.000000
5.579000 0.000000
5.631300 0.000000
5.683600 0.000000
5.736000 0.000000
5.788300 0.000000
5.840700 0.000000
5.893000 0.000000
5.945300 0.000000
5.997700 0.000000
6.050000 0.000000
6.102400 0.000000
6.154700 0.000000
6.207100 0.000000
6.259400 0.000000
6.311700 0.000000
6.364100 0.000000
6.416400 0.000000
6.468800 0.000000
6.521100 0.000000
6.573400 0.000000
6.625800 0.000000
6.678100 0.000000
6.730500 0.000000
6.782800 0.000000
6.835100 0.000000
6.887500 0.000000
6.939800 0.000000
6.992200 0.000000
7.044500 0.000000
7.096800 0.000000
7.149200 0.000000
7.201500 0.000000
7.253900 0.000000
7.306200 0.000000
7.358600 0.000000
7.410900 0.000000
7.463200 0.000000
7.515600 0.000000
7.567900 0.000000
7.620300 0.000000
7.672600 0.000000
7.724900 0.000000
7.777300 0.000000
7.829600 0.000000
7.882000 0.000000
7.934300 0.000000
7.986600 0.000000
8.039000 0.000000
8.091300 0.000000
8.143700 0.000000
8.196000 0.000000
8.248300 0.011100
8.300700 0.020500
8.353000 0.029000
8.405400 0.035300
8.457700 0.039700
8.510100 0.044900
8.562400 0.050700
8.614700 0.057700
8.667100 0.062900
8.719400 0.068100
8.771800 0.073000
8.824100 0.077600
8.876400 0.083400
8.928800 0.089800
8.981100 0.097100
9.033500 0.103300
9.085800 0.107700
9.138100 0.112100
9.190500 0.116800
9.242800 0.122700
9.295200 0.129200
9.347500 0.136300
9.399800 0.142400
9.452200 0.165900
9.504500 0.176600
9.556900 0.191100
9.609200 0.201300
9.661500 0.214100
9.713900 0.226000
9.766200 0.238600
9.818600 0.249400
9.870900 0.260100
9.923300 0.271900
9.975600 0.300100
10.027900 0.333800
10.080300 0.348200
10.132600 0.369400
10.185000 0.394300
10.237300 0.411100
10.289600 0.432200
10.342000 0.455700
10.394300 0.481900
10.446700 0.508000
10.499000 0.535700
10.551300 0.569100
10.603700 0.607700
10.656000 0.658800
10.708400 0.732100
10.760700 0.810900
10.813000 0.905500
10.865400 0.823800
10.917700 0.767000
10.970100 0.725500
11.022400 0.700700
11.074800 0.685000
11.127100 0.666200
11.179400 0.631800
11.231800 0.600900
11.284100 0.569600
11.336500 0.563800
11.388800 0.542200
11.441100 0.443900
11.493500 0.403800
11.545800 0.370000
11.598200 0.345800
11.650500 0.326900
11.702800 0.313100
11.755200 0.309400
11.807500 0.321700
11.859900 0.337200
11.912200 0.345400
11.964500 0.358800
12.016900 0.397000
12.069200 0.438600
12.121600 0.474800
12.173900 0.531600
12.226200 0.639600
12.278600 0.673300
12.330900 0.675200
12.383300 0.679300
12.435600 0.622700
12.488000 0.569100
12.540300 0.545900
12.592600 0.529800
12.645000 0.512300
12.697300 0.509500
12.749700 0.493600
12.802000 0.495000
12.854300 0.473000
12.906700 0.480100
12.959000 0.425500
13.011400 0.410200
13.063700 0.402700
13.116000 0.392000
13.168400 0.388500
13.220700 0.396900
13.273100 0.386500
13.325400 0.340200
13.377700 0.328400
13.430100 0.300700
13.482400 0.318100
13.534800 0.326300
13.587100 0.336600
13.639500 0.348600
13.691800 0.377400
13.744100 0.402700
13.796500 0.413700
13.848800 0.431900
13.901200 0.447400
13.953500 0.487000
14.005800 0.480200
14.058200 0.502700
14.110500 0.543700
14.162900 0.576000
14.215200 0.605700
14.267500 0.639000
14.319900 0.652000
14.372200 0.638100
14.424600 0.633200
14.476900 0.680600
14.529200 0.759300
14.581600 0.731600
14.633900 0.672800
14.686300 0.610800
14.738600 0.597400
14.791000 0.588000
14.843300 0.576500
14.895600 0.578000
14.948000 0.549500
15.000300 0.535000
15.052700 0.540800
15.105000 0.536900
15.157300 0.540000
15.209700 0.527600
15.262000 0.496000
15.314400 0.471700
15.366700 0.448300
15.419000 0.418700
15.471400 0.408100
15.523700 0.406300
15.576100 0.435900
15.628400 0.446000
15.680700 0.502400
15.733100 0.549900
15.785400 0.588200
15.837800 0.593300
15.890100 0.585800
15.942400 0.573500
15.994800 0.583000
16.047100 0.601700
16.099500 0.613300
16.151800 0.644800
16.204200 0.679500
16.256500 0.680600
16.308800 0.651600
16.361200 0.592100
16.413500 0.568500
16.465900 0.552300
16.518200 0.532300
16.570500 0.516900
16.622900 0.497500
16.675200 0.489600
16.727600 0.451800
16.779900 0.380000
16.832200 0.364600
16.884600 0.354400
16.936900 0.346600
16.989300 0.340100
17.041600 0.336200
17.093900 0.327100
17.146300 0.316800
17.198600 0.311500
17.251000 0.305500
17.303300 0.299600
17.355700 0.295600
17.408000 0.291900
17.460300 0.289000
17.512700 0.286700
17.565000 0.286300
17.617400 0.287100
17.669700 0.292200
17.722000 0.295100
17.774400 0.297000
17.826700 0.301800
17.879100 0.313300
17.931400 0.323000
17.983700 0.324500
18.036100 0.329300
18.088400 0.324700
18.140800 0.325300
18.193100 0.333800
18.245400 0.318700
18.297800 0.317400
18.350100 0.316600
18.402500 0.316700
18.454800 0.316400
18.507100 0.318700
18.559500 0.330000
18.611800 0.324500
18.664200 0.329600
18.716500 0.334200
18.768900 0.340200
18.821200 0.350000
18.873500 0.354500
18.925900 0.360200
18.978200 0.366900
19.030600 0.374300
19.082900 0.381700
19.135200 0.390400
19.187600 0.398300
19.239900 0.413400
19.292300 0.434100
19.344600 0.463800
19.396900 0.467600
19.449300 0.447400
19.501600 0.444000
19.554000 0.454400
19.606300 0.470500
19.658600 0.495700
19.711000 0.504200
19.763300 0.505100
19.815700 0.505500
19.868000 0.502400
19.920400 0.500200
19.972700 0.491200
20.025000 0.487300
20.077400 0.480000
20.129700 0.485600
20.182100 0.472700
20.234400 0.458500
20.286700 0.456400
20.339100 0.461700
20.391400 0.471100
20.443800 0.473200
20.496100 0.477000
20.548400 0.483500
20.600800 0.494700
20.653100 0.509600
20.705500 0.524300
20.757800 0.524500
20.810100 0.522000
20.862500 0.513600
20.914800 0.510300
20.967200 0.502600
21.019500 0.500600
21.071900 0.499100
21.124200 0.499300
21.176500 0.498700
21.228900 0.491500
21.281200 0.499100
21.333600 0.485500
21.385900 0.474300
21.438200 0.467400
21.490600 0.473400
21.542900 0.474400
21.595300 0.472200
21.647600 0.472100
21.699900 0.474800
21.752300 0.488600
21.804600 0.480500
21.857000 0.482200
21.909300 0.478500
21.961600 0.482000
22.014000 0.484700
22.066300 0.487900
22.118700 0.486000
22.171000 0.486400
22.223300 0.495500
22.275700 0.481500
22.328000 0.538600
22.380400 0.501400
22.432700 0.511000
22.485100 0.515900
22.537400 0.540600
22.589700 0.497400
22.642100 0.509800
22.694400 0.511700
22.746800 0.502400
22.799100 0.501500
22.851400 0.500100
22.903800 0.499100
22.956100 0.479200
23.008500 0.471700
23.060800 0.469900
23.113100 0.468200
23.165500 0.469000
23.217800 0.464000
23.270200 0.448000
23.322500 0.432600
23.374800 0.417300
23.427200 0.405800
23.479500 0.390300
23.531900 0.342100
23.584200 0.319500
23.636600 0.294700
23.688900 0.271700
23.741200 0.267100
23.793600 0.269600
23.845900 0.274400
23.898300 0.280400
23.950600 0.286500
24.002900 0.307600
24.055300 0.350200
24.107600 0.412700
24.160000 0.512000
24.212300 0.541600
24.264600 0.629200
24.317000 0.702200
24.369300 0.746500
24.421700 0.762000
24.474000 0.753200
24.526300 0.825900
24.578700 0.690000
24.631000 0.665200
24.683400 0.643400
24.735700 0.628100
24.788000 0.616400
24.840400 0.603000
24.892700 0.589500
24.945100 0.567400
24.997400 0.556000
25.049800 0.549100
25.102100 0.545900
25.154400 0.541000
25.206800 0.534200
25.259100 0.528000
25.311500 0.527500
25.363800 0.538700
25.416100 0.541400
25.468500 0.539800
25.520800 0.548400
25.573200 0.546800
25.625500 0.541300
25.677800 0.535700
25.730200 0.534900
25.782500 0.536500
25.834900 0.539600
25.887200 0.541000
25.939500 0.534800
25.991900 0.534800
26.044200 0.538000
26.096600 0.543800
26.148900 0.550400
26.201300 0.557900
26.253600 0.558000
26.305900 0.564700
26.358300 0.584400
26.410600 0.612200
26.463000 0.643200
26.515300 0.640800
26.567600 0.631700
26.620000 0.628400
26.672300 0.614600
26.724700 0.585400
26.777000 0.571500
26.829300 0.559400
26.881700 0.559700
26.934000 0.570900
26.986400 0.564000
27.038700 0.563100
27.091000 0.547200
27.143400 0.533100
27.195700 0.520900
27.248100 0.517700
27.300400 0.504000
27.352800 0.526600
27.405100 0.516600
27.457400 0.492100
27.509800 0.479300
27.562100 0.455700
27.614500 0.444800
27.666800 0.438500
27.719100 0.442600
27.771500 0.458100
27.823800 0.470200
27.876200 0.459900
27.928500 0.453400
27.980800 0.456800
28.033200 0.453300
28.085500 0.452000
28.137900 0.460300
28.190200 0.473200
28.242500 0.519900
28.294900 0.548000
28.347200 0.556000
28.399600 0.561800
28.451900 0.514100
28.504200 0.497500
28.556600 0.484200
28.608900 0.467300
28.661300 0.460900
28.713600 0.463800
28.766000 0.464000
28.818300 0.466400
28.870600 0.470900
28.923000 0.457800
28.975300 0.452500
29.027700 0.458400
29.080000 0.467200
29.132300 0.467000
29.184700 0.469200
29.237000 0.480900
29.289400 0.549700
29.341700 0.542200
29.394000 0.553000
29.446400 0.563900
29.498700 0.580300
29.551100 0.591400
29.603400 0.580600
29.655700 0.566900
29.708100 0.543800
29.760400 0.543300
29.812800 0.581900
29.865100 0.606500
29.917500 0.648400
29.969800 0.685500
30.022100 0.704000
30.074500 0.709700
30.126800 0.690600
30.179200 0.655700
30.231500 0.621000
30.283800 0.598100
30.336200 0.579200
30.388500 0.568900
30.440900 0.570700
30.493200 0.590200
30.545500 0.620500
30.597900 0.656700
30.650200 0.695900
30.702600 0.765000
30.754900 0.764800
30.807200 0.763700
30.859600 0.776500
30.911900 0.765100
30.964300 0.752900
31.016600 0.723100
31.068900 0.704900
31.121300 0.701000
31.173600 0.648400
31.226000 0.600900
31.278300 0.574600
31.330700 0.561500
31.383000 0.542300
31.435300 0.511200
31.487700 0.485200
31.540000 0.460600
31.592400 0.449900
31.644700 0.439500
31.697000 0.438400
31.749400 0.448300
31.801700 0.473500
31.854100 0.457500
31.906400 0.456700
31.958700 0.447800
32.011100 0.442600
32.063400 0.442400
32.115800 0.444800
32.168100 0.444100
32.220400 0.459400
32.272800 0.455200
32.325100 0.461600
32.377500 0.466700
32.429800 0.482600
32.482200 0.498200
32.534500 0.485800
32.586800 0.486000
32.639200 0.488800
32.691500 0.495300
32.743900 0.503100
32.796200 0.508000
32.848500 0.523100
32.900900 0.531100
32.953200 0.545200
33.005600 0.574600
33.057900 0.549800
33.110200 0.556100
33.162600 0.562700
33.214900 0.558400
33.267300 0.559400
33.319600 0.559600
33.371900 0.558900
33.424300 0.537200
33.476600 0.526700
33.529000 0.526800
33.581300 0.533500
33.633700 0.537300
33.686000 0.548800
33.738300 0.553500
33.790700 0.567700
33.843000 0.572300
33.895400 0.591200
33.947700 0.602100
34.000000 0.619300
34.052400 0.610200
34.104700 0.608200
34.157100 0.613000
34.209400 0.623800
34.261700 0.630100
34.314100 0.660200
34.366400 0.704800
34.418800 0.744100
34.471100 0.758200
34.523400 0.725500
34.575800 0.701800
34.628100 0.675300
34.680500 0.670900
34.732800 0.667100
34.785100 0.658200
34.837500 0.635700
34.889800 0.622000
34.942200 0.623800
34.994500 0.601400
35.046900 0.583000
35.099200 0.556900
35.151500 0.537400
35.203900 0.533700
35.256200 0.536700
35.308600 0.526900
35.360900 0.519300
35.413200 0.514400
35.465600 0.506200
35.517900 0.510600
35.570300 0.518100
35.622600 0.518500
35.674900 0.530000
35.727300 0.567000
35.779600 0.541200
35.832000 0.544800
35.884300 0.555600
35.936600 0.574600
35.989000 0.589400
36.041300 0.596100
36.093700 0.608100
36.146000 0.604600
36.198400 0.615500
36.250700 0.651300
36.303000 0.656300
36.355400 0.671100
36.407700 0.697500
36.460100 0.725600
36.512400 0.745000
36.564700 0.766900
36.617100 0.806800
36.669400 0.852600
36.721800 0.866700
36.774100 0.832600
36.826400 0.752000
36.878800 0.702800
36.931100 0.656500
36.983500 0.593400
37.035800 0.560900
37.088100 0.539900
37.140500 0.547600
37.192800 0.549900
37.245200 0.557700
37.297500 0.559500
37.349900 0.575200
37.402200 0.565600
37.454500 0.564400
37.506900 0.571400
37.559200 0.578200
37.611600 0.593800
37.663900 0.613400
37.716200 0.643800
37.768600 0.667200
37.820900 0.699000
37.873300 0.720300
37.925600 0.730500
37.977900 0.732000
38.030300 0.733100
38.082600 0.729000
38.135000 0.678700
38.187300 0.651300
38.239600 0.625300
38.292000 0.592000
38.344300 0.557300
38.396700 0.505900
38.449000 0.468900
38.501300 0.455600
38.553700 0.459300
38.606000 0.476500
38.658400 0.491000
38.710700 0.507100
38.763100 0.535600
38.815400 0.578100
38.867700 0.597900
38.920100 0.616300
38.972400 0.633200
39.024800 0.611700
39.077100 0.595500
39.129400 0.599300
39.181800 0.598900
39.234100 0.585800
39.286500 0.582900
39.338800 0.574700
39.391100 0.576200
39.443500 0.588300
39.495800 0.620600
39.548200 0.656300
39.600500 0.672200
39.652800 0.705100
39.705200 0.714600
39.757500 0.709900
39.809900 0.700800
39.862200 0.700200
39.914600 0.703300
39.966900 0.707800
40.019200 0.702600
40.071600 0.693700
40.123900 0.640900
40.176300 0.590900
40.228600 0.553400
40.280900 0.523900
40.333300 0.507900
40.385600 0.494100
40.438000 0.481000
40.490300 0.474000
40.542600 0.475500
40.595000 0.497200
40.647300 0.553400
40.699700 0.585300
40.752000 0.609200
40.804300 0.639300
40.856700 0.665900
40.909000 0.706300
40.961400 0.688200
41.013700 0.694800
41.066000 0.698800
41.118400 0.698500
41.170700 0.693000
41.223100 0.654300
41.275400 0.618100
41.327800 0.642900
41.380100 0.670500
41.432400 0.670800
41.484800 0.650100
41.537100 0.638200
41.589500 0.632700
41.641800 0.629600
41.694100 0.637800
41.746500 0.659300
41.798800 0.655400
41.851200 0.672800
41.903500 0.712900
41.955800 0.690100
42.008200 0.637800
42.060500 0.604500
42.112900 0.573800
42.165200 0.552700
42.217500 0.543600
42.269900 0.543500
42.322200 0.533400
42.374600 0.534700
42.426900 0.525400
42.479300 0.528000
42.531600 0.541100
42.583900 0.551600
42.636300 0.551400
42.688600 0.553000
42.741000 0.556200
42.793300 0.548500
42.845600 0.554100
42.898000 0.555500
42.950300 0.571900
43.002700 0.589700
43.055000 0.613500
43.107300 0.654300
43.159700 0.670100
43.212000 0.664600
43.264400 0.667400
43.316700 0.662100
43.369000 0.655300
43.421400 0.644400
43.473700 0.632700
43.526100 0.633500
43.578400 0.645300
43.630800 0.653000
43.683100 0.661000
43.735400 0.696600
43.787800 0.717200
43.840100 0.744400
43.892500 0.774300
43.944800 0.769800
43.997100 0.753000
44.049500 0.738700
44.101800 0.729300
44.154200 0.700800
44.206500 0.708700
44.258800 0.679300
44.311200 0.665500
44.363500 0.647700
44.415900 0.637600
44.468200 0.614600
44.520500 0.612000
44.572900 0.613500
44.625200 0.602000
44.677600 0.626800
44.729900 0.620700
44.782200 0.637500
44.834600 0.664300
44.886900 0.694900
44.939300 0.724000
44.991600 0.761100
45.044000 0.798600
45.096300 0.820700
45.148600 0.845000
45.201000 0.846200
45.253300 0.832100
45.305700 0.816600
45.358000 0.814000
45.410300 0.810500
45.462700 0.817300
45.515000 0.810900
45.567400 0.807300
45.619700 0.802800
45.672000 0.801100
45.724400 0.791100
45.776700 0.712600
45.829100 0.697200
45.881400 0.705100
45.933700 0.702100
45.986100 0.716900
46.038400 0.725600
46.090800 0.724000
46.143100 0.719100
46.195500 0.712200
46.247800 0.718100
46.300100 0.728700
46.352500 0.726100
46.404800 0.716100
46.457200 0.727900
46.509500 0.712800
46.561800 0.713900
46.614200 0.722800
46.666500 0.730400
46.718900 0.725000
46.771200 0.713200
46.823500 0.701300
46.875900 0.698300
46.928200 0.682700
46.980600 0.676300
47.032900 0.654900
47.085200 0.654600
47.137600 0.642000
47.189900 0.642200
47.242300 0.654600
47.294600 0.674500
47.346900 0.689300
47.399300 0.688100
47.451600 0.686800
47.504000 0.687700
47.556300 0.689500
47.608700 0.695800
47.661000 0.697000
47.713300 0.701300
47.765700 0.704700
47.818000 0.699000
47.870400 0.689600
47.922700 0.680300
47.975000 0.660000
48.027400 0.644900
48.079700 0.639400
48.132100 0.625400
48.184400 0.622600
48.236700 0.627400
48.289100 0.632200
48.341400 0.628700
48.393800 0.629200
48.446100 0.631000
48.498400 0.635300
48.550800 0.646700
48.603100 0.649500
48.655500 0.659900
48.707800 0.662200
48.760200 0.665600
48.812500 0.670500
48.864800 0.684700
48.917200 0.694100
48.969500 0.697800
49.021900 0.696100
49.074200 0.703200
49.126500 0.706000
49.178900 0.709800
49.231200 0.699400
49.283600 0.690300
49.335900 0.683000
49.388200 0.673700
49.440600 0.688100
49.492900 0.682600
49.545300 0.669700
49.597600 0.666500
49.649900 0.658800
49.702300 0.648600
49.754600 0.644000
49.807000 0.673700
49.859300 0.681500
49.911700 0.682400
49.964000 0.660200
50.016300 0.631300
50.068700 0.610900
50.121000 0.602800
50.173400 0.601400
50.225700 0.605400
50.278000 0.609000
50.330400 0.608000
50.382700 0.616200
50.435100 0.614800
50.487400 0.621300
50.539700 0.634100
50.592100 0.649500
50.644400 0.681300
50.696800 0.683900
50.749100 0.706500
50.801400 0.724800
50.853800 0.735800
50.906100 0.723300
50.958500 0.728200
51.010800 0.713500
51.063100 0.712100
51.115500 0.701800
51.167800 0.692400
51.220200 0.690100
51.272500 0.677200
51.324900 0.651700
51.377200 0.648800
51.429500 0.650900
51.481900 0.652000
51.534200 0.648100
51.586600 0.653900
51.638900 0.668800
51.691200 0.717900
51.743600 0.751600
51.795900 0.727500
51.848300 0.718800
51.900600 0.711100
51.952900 0.710500
52.005300 0.704700
52.057600 0.701900
52.110000 0.697600
52.162300 0.694200
52.214600 0.724400
52.267000 0.746400
52.319300 0.703000
52.371700 0.663700
52.424000 0.660900
52.476400 0.656400
52.528700 0.642600
52.581000 0.645500
52.633400 0.649600
52.685700 0.661800
52.738100 0.685800
52.790400 0.724900
52.842700 0.700400
52.895100 0.662100
52.947400 0.651800
52.999800 0.644500
53.052100 0.644300
53.104400 0.647300
53.156800 0.675300
53.209100 0.701600
53.261500 0.715900
53.313800 0.732400
53.366100 0.725300
53.418500 0.732100
53.470800 0.743000
53.523200 0.764000
53.575500 0.783300
53.627800 0.818600
53.680200 0.844900
53.732500 0.851000
53.784900 0.836700
53.837200 0.812800
53.889600 0.804000
53.941900 0.779000
53.994200 0.753900
54.046600 0.736800
54.098900 0.762700
54.151300 0.765800
54.203600 0.769900
54.255900 0.772400
54.308300 0.751800
54.360600 0.751400
54.413000 0.773700
54.465300 0.780600
54.517600 0.795100
54.570000 0.791900
54.622300 0.779200
54.674700 0.777200
54.727000 0.776100
54.779300 0.757700
54.831700 0.745300
54.884000 0.737900
54.936400 0.732700
54.988700 0.714000
55.041100 0.706500
55.093400 0.708300
55.145700 0.675500
55.198100 0.674900
55.250400 0.651100
55.302800 0.640100
55.355100 0.625800
55.407400 0.617700
55.459800 0.617200
55.512100 0.627100
55.564500 0.625600
55.616800 0.638600
55.669100 0.639500
55.721500 0.643400
55.773800 0.662500
55.826200 0.679400
55.878500 0.699200
55.930800 0.715600
55.983200 0.741700
56.035500 0.743100
56.087900 0.719300
56.140200 0.707500
56.192600 0.694500
56.244900 0.674000
56.297200 0.665600
56.349600 0.662900
56.401900 0.681600
56.454300 0.708200
56.506600 0.727100
56.558900 0.712400
56.611300 0.718500
56.663600 0.739800
56.716000 0.740900
56.768300 0.739500
56.820600 0.749600
56.873000 0.774300
56.925300 0.834900
56.977700 0.864700
57.030000 0.883100
57.082300 0.867900
57.134700 0.836500
57.187000 0.780200
57.239400 0.719300
57.291700 0.675000
57.344000 0.632600
57.396400 0.638400
57.448700 0.644300
57.501100 0.663800
57.553400 0.696000
57.605800 0.729500
57.658100 0.736300
57.710400 0.761900
57.762800 0.787900
57.815100 0.805000
57.867500 0.807000
57.919800 0.836200
57.972100 0.849400
58.024500 0.847400
58.076800 0.837500
58.129200 0.807300
58.181500 0.755300
58.233800 0.725100
58.286200 0.718400
58.338500 0.732600
58.390900 0.695700
58.443200 0.661400
58.495500 0.655000
58.547900 0.644900
58.600200 0.653100
58.652600 0.673000
58.704900 0.694700
58.757300 0.706800
58.809600 0.736000
58.861900 0.709900
58.914300 0.717000
58.966600 0.733800
59.019000 0.806100
59.071300 0.792900
59.123600 0.784100
59.176000 0.785200
59.228300 0.800000
59.280700 0.807300
59.333000 0.798200
59.385300 0.814200
59.437700 0.784800
59.490000 0.759700
59.542400 0.738300
59.594700 0.741200
59.647000 0.701100
59.699400 0.690300
59.751700 0.712100
59.804100 0.673800
59.856400 0.671200
59.908800 0.677900
59.961100 0.697700
60.013400 0.711500
60.065800 0.717400
60.118100 0.745500
60.170500 0.762700
60.222800 0.787500
60.275100 0.795100
60.327500 0.790500
60.379800 0.780200
60.432200 0.783400
60.484500 0.744700
60.536800 0.727800
60.589200 0.727000
60.641500 0.769200
60.693900 0.743200
60.746200 0.741600
60.798500 0.743700
60.850900 0.745500
60.903200 0.723500
60.955600 0.729600
61.007900 0.729200
61.060200 0.720700
61.112600 0.712900
61.164900 0.703600
61.217300 0.708700
61.269600 0.717700
61.322000 0.724700
61.374300 0.728100
61.426600 0.739600
61.479000 0.756000
61.531300 0.759200
61.583700 0.776400
61.636000 0.794600
61.688300 0.807000
61.740700 0.812100
61.793000 0.813900
61.845400 0.807100
61.897700 0.798500
61.950000 0.796100
62.002400 0.788600
62.054700 0.778200
62.107100 0.771900
62.159400 0.772000
62.211700 0.755300
62.264100 0.770400
62.316400 0.773200
62.368800 0.761000
62.421100 0.759000
62.473500 0.755400
62.525800 0.751000
62.578100 0.754900
62.630500 0.773800
62.682800 0.789800
62.735200 0.784100
62.787500 0.786700
62.839800 0.803900
62.892200 0.805600
62.944500 0.800900
62.996900 0.776600
63.049200 0.752700
63.101500 0.745500
63.153900 0.747700
63.206200 0.763700
63.258600 0.778100
63.310900 0.778900
63.363200 0.773400
63.415600 0.769700
63.467900 0.775100
63.520300 0.791700
63.572600 0.789700
63.624900 0.805300
63.677300 0.827300
63.729600 0.843700
63.782000 0.850600
63.834300 0.843100
63.886700 0.827400
63.939000 0.800100
63.991300 0.795000
64.043700 0.778000
64.096000 0.744600
64.148400 0.760600
64.200700 0.764600
64.253000 0.764000
64.305400 0.760000
64.357700 0.761800
64.410100 0.761000
64.462400 0.751400
64.514700 0.737500
64.567100 0.725600
64.619400 0.718800
64.671800 0.716100
64.724100 0.720600
64.776400 0.729100
64.828800 0.741600
64.881100 0.750600
64.933500 0.778000
64.985800 0.787700
65.038200 0.793200
65.090500 0.806000
65.142800 0.805500
65.195200 0.805000
65.247500 0.798200
65.299900 0.789100
65.352200 0.795100
65.404500 0.784400
65.456900 0.790200
65.509200 0.793900
65.561600 0.779600
65.613900 0.772400
65.666200 0.788100
65.718600 0.792000
65.770900 0.795400
65.823300 0.786100
65.875600 0.784000
65.927900 0.780000
65.980300 0.775700
66.032600 0.759300
66.085000 0.752100
66.137300 0.718400
66.189700 0.704200
66.242000 0.706800
66.294300 0.716300
66.346700 0.730100
66.399000 0.755700
66.451400 0.754100
66.503700 0.768500
66.556000 0.780200
66.608400 0.789900
66.660700 0.823300
66.713100 0.820900
66.765400 0.836200
66.817700 0.821400
66.870100 0.809000
66.922400 0.801200
66.974800 0.788900
67.027100 0.787200
67.079400 0.807800
67.131800 0.782400
67.184100 0.763000
67.236500 0.752300
67.288800 0.723400
67.341100 0.713100
67.393500 0.714000
67.445800 0.714700
67.498200 0.714600
67.550500 0.736900
67.602900 0.748100
67.655200 0.758400
67.707500 0.790200
67.759900 0.789000
67.812200 0.764200
67.864600 0.763400
67.916900 0.776400
67.969200 0.808000
68.021600 0.800900
68.073900 0.816000
68.126300 0.826700
68.178600 0.840200
68.230900 0.813500
68.283300 0.796700
68.335600 0.788800
68.388000 0.798400
68.440300 0.783600
68.492600 0.781300
68.545000 0.778800
68.597300 0.785800
68.649700 0.786400
68.702000 0.793200
68.754400 0.785400
68.806700 0.796400
68.859000 0.805000
68.911400 0.798900
68.963700 0.806700
69.016100 0.811900
69.068400 0.811800
69.120700 0.806100
69.173100 0.765100
69.225400 0.749400
69.277800 0.769400
69.330100 0.795600
69.382400 0.830700
69.434800 0.857400
69.487100 0.852200
69.539500 0.835100
69.591800 0.801100
69.644100 0.795600
69.696500 0.798800
69.748800 0.803400
69.801200 0.814600
69.853500 0.828300
69.905800 0.842800
69.958200 0.847200
70.010500 0.846500
70.062900 0.840700
70.115200 0.833900
70.167600 0.830800
70.219900 0.829100
70.272200 0.828400
70.324600 0.802300
70.376900 0.780900
70.429300 0.777600
70.481600 0.752500
70.533900 0.749300
70.586300 0.763200
70.638600 0.781800
70.691000 0.787800
70.743300 0.834900
70.795600 0.866900
70.848000 0.881300
70.900300 0.853000
70.952700 0.857000
71.005000 0.855200
71.057300 0.845100
71.109700 0.844300
71.162000 0.822500
71.214400 0.800200
71.266700 0.791100
71.319100 0.777300
71.371400 0.773500
71.423700 0.765200
71.476100 0.766000
71.528400 0.762100
71.580800 0.763300
71.633100 0.792700
71.685400 0.762700
71.737800 0.749200
71.790100 0.760800
71.842500 0.762400
71.894800 0.749000
71.947100 0.729300
71.999500 0.729900
72.051800 0.739600
72.104200 0.750600
72.156500 0.741200
72.208800 0.726000
72.261200 0.729200
72.313500 0.737500
72.365900 0.766900
72.418200 0.791100
72.470600 0.804800
72.522900 0.804900
72.575200 0.811100
72.627600 0.808500
72.679900 0.819000
72.732300 0.805800
72.784600 0.801900
72.836900 0.803400
72.889300 0.818700
72.941600 0.808700
72.994000 0.780600
73.046300 0.765100
73.098600 0.747900
73.151000 0.733900
73.203300 0.719700
73.255700 0.707100
73.308000 0.705600
73.360300 0.706300
73.412700 0.731100
73.465000 0.727000
73.517400 0.744300
73.569700 0.764000
73.622000 0.794500
73.674400 0.804200
73.726700 0.823700
73.779100 0.839600
73.831400 0.853700
73.883800 0.839400
73.936100 0.835400
73.988400 0.838000
74.040800 0.841300
74.093100 0.831000
74.145500 0.820700
74.197800 0.763000
74.250100 0.749800
74.302500 0.737200
74.354800 0.739600
74.407200 0.758100
74.459500 0.763700
74.511800 0.744300
74.564200 0.739600
74.616500 0.741400
74.668900 0.732100
74.721200 0.771200
74.773500 0.725200
74.825900 0.726200
74.878200 0.746500
74.930600 0.746400
74.982900 0.760200
75.035300 0.764400
75.087600 0.772300
75.139900 0.771500
75.192300 0.775800
75.244600 0.772400
75.297000 0.760400
75.349300 0.770700
75.401600 0.785200
75.454000 0.789100
75.506300 0.784900
75.558700 0.783700
75.611000 0.778200
75.663300 0.768400
75.715700 0.746300
75.768000 0.741600
75.820400 0.747400
75.872700 0.748800
75.925000 0.761200
75.977400 0.771700
76.029700 0.788200
76.082100 0.815900
76.134400 0.839200
76.186700 0.836000
76.239100 0.825100
76.291400 0.787900
76.343800 0.766700
76.396100 0.750900
76.448500 0.734300
76.500800 0.696000
76.553100 0.667000
76.605500 0.642400
76.657800 0.630000
76.710200 0.627200
76.762500 0.622300
76.814800 0.617000
76.867200 0.613700
76.919500 0.619700
76.971900 0.640000
77.024200 0.686700
77.076500 0.670400
77.128900 0.675200
77.181200 0.681300
77.233600 0.696300
77.285900 0.705300
77.338200 0.720500
77.390600 0.730800
77.442900 0.731000
77.495300 0.727100
77.547600 0.715100
77.600000 0.690500
77.652300 0.658800
77.704600 0.642100
77.757000 0.631900
77.809300 0.621200
77.861700 0.616100
77.914000 0.624000
77.966300 0.591900
78.018700 0.563300
78.071000 0.528500
78.123400 0.529900
78.175700 0.492600
78.228000 0.458800
78.280400 0.395000
78.332700 0.357000
78.385100 0.319900
78.437400 0.292100
78.489700 0.264900
78.542100 0.242900
78.594400 0.213800
78.646800 0.182800
78.699100 0.158600
78.751500 0.139100
78.803800 0.120200
78.856100 0.105200
78.908500 0.093400
78.960800 0.081300
79.013200 0.070900
79.065500 0.063600
79.117800 0.057100
79.170200 0.051200
79.222500 0.046800
79.274900 0.043400
79.327200 0.040500
79.379500 0.037900
79.431900 0.039000
79.484200 0.036800
79.536600 0.034800
79.588900 0.032800
79.641200 0.030800
79.693600 0.029500
79.745900 0.025200
79.798300 0.021100
79.850600 0.017300
79.902900 0.014800
79.955300 0.013900
80.007600 0.012600
80.060000 0.012300
80.112300 0.013400
80.164700 0.013700
80.217000 0.014000
80.269300 0.015400
80.321700 0.016800
80.374000 0.017400
80.426400 0.016900
80.478700 0.010500
80.531000 0.009800
80.583400 0.009100
80.635700 0.008400
80.688100 0.007800
80.740400 0.007100
80.792700 0.006500
80.845100 0.005900
80.897400 0.005500
80.949800 0.005100
81.002100 0.004700
81.054400 0.004300
81.106800 0.003900
81.159100 0.003500
81.211500 0.003200
81.263800 0.002900
81.316200 0.002500
81.368500 0.002200
81.420800 0.001900
81.473200 0.000000
81.525500 0.000000
81.577900 0.000000
81.630200 0.000000
81.682500 0.000000
81.734900 0.000000
81.787200 0.000000
81.839600 0.000000
81.891900 0.000000
81.944200 0.000000
81.996600 0.000000
82.048900 0.000000
82.101300 0.000000
82.153600 0.000000
82.205900 0.000000
82.258300 0.000000
82.310600 0.000000
82.363000 0.000000
82.415300 0.000000
82.467600 0.000000
82.520000 0.000000
82.572300 0.000000
82.624700 0.000000
82.677000 0.000000
82.729400 0.000000
82.781700 0.000000
82.834000 0.000000
82.886400 0.000000
82.938700 0.000000
82.991100 0.000000
83.043400 0.000000
83.095700 0.000000
83.148100 0.000000
83.200400 0.000000
83.252800 0.000000
83.305100 0.000000
83.357400 0.000000
83.409800 0.000000
83.462100 0.000000
83.514500 0.000000
83.566800 0.000000
83.619100 0.000000
83.671500 0.000000
83.723800 0.000000
83.776200 0.000000
83.828500 0.000000
83.880900 0.000000
83.933200 0.000000
83.985500 0.000000
84.037900 0.000000
84.090200 0.000000
84.142600 0.000000
84.194900 0.000000
84.247200 0.000000
84.299600 0.000000
84.351900 0.000000
84.404300 0.000000
84.456600 0.000000
84.508900 0.000000
84.561300 0.000000
84.613600 0.000000
84.666000 0.000000
84.718300 0.000000
84.770600 0.000000
84.823000 0.000000
84.875300 0.000000
84.927700 0.000000
84.980000 0.000000
85.032400 0.000000
85.084700 0.000000
85.137000 0.000000
85.189400 0.000000
85.241700 0.000000
85.294100 0.000000
85.346400 0.000000
85.398700 0.000000
85.451100 0.000000
85.503400 0.000000
85.555800 0.000000
85.608100 0.000000
85.660400 0.000000
85.712800 0.000000
85.765100 0.000000
85.817500 0.000000
85.869800 0.000000
85.922100 0.000000
85.974500 0.000000
86.026800 0.000000
86.079200 0.000000
86.131500 0.000000
86.183800 0.000000
86.236200 0.000000
e
