set title 'mp-7947 - Density of States'
set xlabel 'Energy (eV)'
set ylabel 'DOS (states/eV)'
set grid
set xrange [-10:10]
set yrange [0:14.852]
set xzeroaxis lt -1
set terminal png size 800,600
set output 'mp-7947_dos_gnuplot.png'
plot '-' using 1:2 with lines title 'DOS'
-20.247200 0.000000
-20.199700 0.000000
-20.152300 0.000000
-20.104900 0.000000
-20.057500 0.000000
-20.010100 0.000000
-19.962700 0.000000
-19.915300 0.000000
-19.867900 0.000000
-19.820400 0.000000
-19.773000 0.000000
-19.725600 0.000000
-19.678200 0.000000
-19.630800 0.000000
-19.583400 0.000000
-19.536000 0.000000
-19.488600 0.000000
-19.441100 0.000000
-19.393700 0.000000
-19.346300 0.000000
-19.298900 0.000000
-19.251500 0.000000
-19.204100 0.000000
-19.156700 0.000000
-19.109300 0.000000
-19.061800 0.000000
-19.014400 0.000000
-18.967000 0.000000
-18.919600 0.000000
-18.872200 0.000000
-18.824800 0.000000
-18.777400 0.000000
-18.730000 0.000000
-18.682500 0.000000
-18.635100 0.000000
-18.587700 0.000000
-18.540300 0.000000
-18.492900 0.000000
-18.445500 0.000000
-18.398100 0.000000
-18.350700 0.000000
-18.303200 0.000000
-18.255800 0.000000
-18.208400 0.000000
-18.161000 0.000000
-18.113600 0.000000
-18.066200 0.000000
-18.018800 0.000000
-17.971300 0.000000
-17.923900 0.000000
-17.876500 0.000000
-17.829100 0.000000
-17.781700 0.000000
-17.734300 0.000000
-17.686900 0.000000
-17.639500 0.000000
-17.592000 0.000000
-17.544600 0.000000
-17.497200 0.000000
-17.449800 0.000000
-17.402400 0.000000
-17.355000 0.000000
-17.307600 0.000000
-17.260200 0.000000
-17.212700 0.000000
-17.165300 0.000000
-17.117900 0.000000
-17.070500 0.000000
-17.023100 0.000000
-16.975700 0.000000
-16.928300 0.000000
-16.880900 0.000000
-16.833400 0.000000
-16.786000 0.000000
-16.738600 0.000000
-16.691200 0.000000
-16.643800 0.000000
-16.596400 0.000000
-16.549000 0.000000
-16.501600 0.000000
-16.454100 0.000000
-16.406700 0.000000
-16.359300 0.000000
-16.311900 0.000000
-16.264500 0.000000
-16.217100 0.000000
-16.169700 0.000000
-16.122200 0.000000
-16.074800 0.000000
-16.027400 0.000000
-15.980000 0.000000
-15.932600 0.004000
-15.885200 0.310700
-15.837800 0.465600
-15.790400 0.607600
-15.742900 0.750300
-15.695500 0.897500
-15.648100 1.069600
-15.600700 1.284800
-15.553300 1.532400
-15.505900 1.946700
-15.458500 4.771000
-15.411100 5.600500
-15.363600 4.185600
-15.316200 3.113200
-15.268800 2.592400
-15.221400 2.237200
-15.174000 2.446700
-15.126600 2.431000
-15.079200 2.605800
-15.031800 6.543500
-14.984300 2.934700
-14.936900 7.735500
-14.889500 8.564800
-14.842100 7.625900
-14.794700 7.610100
-14.747300 3.538700
-14.699900 1.256000
-14.652500 0.840000
-14.605000 0.503700
-14.557600 0.000500
-14.510200 0.000000
-14.462800 0.000000
-14.415400 0.000000
-14.368000 0.000000
-14.320600 0.000000
-14.273100 0.000000
-14.225700 0.000000
-14.178300 0.000000
-14.130900 0.000000
-14.083500 0.000000
-14.036100 0.000000
-13.988700 0.000000
-13.941300 0.000000
-13.893800 0.000000
-13.846400 0.000000
-13.799000 0.000000
-13.751600 0.000000
-13.704200 0.000000
-13.656800 0.000000
-13.609400 0.000000
-13.562000 0.000000
-13.514500 0.000000
-13.467100 0.000000
-13.419700 0.000000
-13.372300 0.000000
-13.324900 0.000000
-13.277500 0.000000
-13.230100 0.000000
-13.182700 0.000000
-13.135200 0.000000
-13.087800 0.000000
-13.040400 0.000000
-12.993000 0.000000
-12.945600 0.000000
-12.898200 0.000000
-12.850800 0.000000
-12.803400 0.000000
-12.755900 0.000000
-12.708500 0.000000
-12.661100 0.000000
-12.613700 0.000000
-12.566300 0.000000
-12.518900 0.000000
-12.471500 0.000000
-12.424000 0.000000
-12.376600 0.000000
-12.329200 0.000000
-12.281800 0.000000
-12.234400 0.000000
-12.187000 0.000000
-12.139600 0.000000
-12.092200 0.000000
-12.044700 0.000000
-11.997300 0.000000
-11.949900 0.000000
-11.902500 0.000000
-11.855100 0.000000
-11.807700 0.000000
-11.760300 0.000000
-11.712900 0.000000
-11.665400 0.000000
-11.618000 0.000000
-11.570600 0.000000
-11.523200 0.000000
-11.475800 0.000000
-11.428400 0.000000
-11.381000 0.000000
-11.333600 0.000000
-11.286100 0.000000
-11.238700 0.000000
-11.191300 0.000000
-11.143900 0.000000
-11.096500 0.000000
-11.049100 0.000000
-11.001700 0.000000
-10.954300 0.000000
-10.906800 0.000000
-10.859400 0.000000
-10.812000 0.000000
-10.764600 0.000000
-10.717200 0.000000
-10.669800 0.000000
-10.622400 0.000000
-10.575000 0.000000
-10.527500 0.000000
-10.480100 0.000000
-10.432700 0.000000
-10.385300 0.000000
-10.337900 0.000000
-10.290500 0.000000
-10.243100 0.000000
-10.195600 0.000000
-10.148200 0.000000
-10.100800 0.000000
-10.053400 0.000000
-10.006000 0.000000
-9.958600 0.000000
-9.911200 0.000000
-9.863800 0.000000
-9.816300 0.000000
-9.768900 0.000000
-9.721500 0.000000
-9.674100 0.000000
-9.626700 0.000000
-9.579300 0.000000
-9.531900 0.000000
-9.484500 0.000000
-9.437000 0.000000
-9.389600 0.000000
-9.342200 0.000000
-9.294800 0.000000
-9.247400 0.000000
-9.200000 0.000000
-9.152600 0.000000
-9.105200 0.000000
-9.057700 0.000000
-9.010300 0.000000
-8.962900 0.000000
-8.915500 0.000000
-8.868100 0.000000
-8.820700 0.000000
-8.773300 0.000000
-8.725900 0.000000
-8.678400 0.000000
-8.631000 0.000000
-8.583600 0.000000
-8.536200 0.000000
-8.488800 0.000000
-8.441400 0.000000
-8.394000 0.000000
-8.346500 0.000000
-8.299100 0.000000
-8.251700 0.000000
-8.204300 0.000000
-8.156900 0.000000
-8.109500 0.000000
-8.062100 0.000000
-8.014700 0.000000
-7.967200 0.000000
-7.919800 0.000000
-7.872400 0.000000
-7.825000 0.000000
-7.777600 0.000000
-7.730200 0.000000
-7.682800 0.000000
-7.635400 0.000000
-7.587900 0.000000
-7.540500 0.000000
-7.493100 0.000000
-7.445700 0.000000
-7.398300 0.000000
-7.350900 0.000000
-7.303500 0.000000
-7.256100 0.000000
-7.208600 0.000000
-7.161200 0.000000
-7.113800 0.000000
-7.066400 0.000000
-7.019000 0.000000
-6.971600 0.000000
-6.924200 0.000000
-6.876800 0.000000
-6.829300 0.000000
-6.781900 0.000000
-6.734500 0.000000
-6.687100 0.000000
-6.639700 0.000000
-6.592300 0.000000
-6.544900 0.000000
-6.497400 0.000000
-6.450000 0.000000
-6.402600 0.000000
-6.355200 0.000000
-6.307800 0.000000
-6.260400 0.000000
-6.213000 0.000000
-6.165600 0.000000
-6.118100 0.000000
-6.070700 0.000000
-6.023300 0.000000
-5.975900 0.000000
-5.928500 0.000000
-5.881100 0.000000
-5.833700 0.000000
-5.786300 0.000000
-5.738800 0.000000
-5.691400 0.000000
-5.644000 0.000000
-5.596600 0.000000
-5.549200 0.000000
-5.501800 0.000000
-5.454400 0.000000
-5.407000 0.000000
-5.359500 0.000000
-5.312100 0.000000
-5.264700 0.000000
-5.217300 0.000000
-5.169900 0.000000
-5.122500 0.000000
-5.075100 0.000000
-5.027700 0.000000
-4.980200 0.000000
-4.932800 0.000000
-4.885400 0.000000
-4.838000 0.000000
-4.790600 0.000000
-4.743200 0.000000
-4.695800 0.001200
-4.648400 0.042200
-4.600900 0.095800
-4.553500 0.136000
-4.506100 0.156300
-4.458700 0.184400
-4.411300 0.202700
-4.363900 0.223400
-4.316500 0.252800
-4.269000 0.283900
-4.221600 0.310600
-4.174200 0.328700
-4.126800 0.355100
-4.079400 0.383100
-4.032000 0.411100
-3.984600 0.440200
-3.937200 0.474300
-3.889700 0.517800
-3.842300 0.559000
-3.794900 0.601900
-3.747500 0.653600
-3.700100 0.725100
-3.652700 0.798600
-3.605300 0.879200
-3.557900 1.013100
-3.510400 1.164400
-3.463000 1.425900
-3.415600 2.211700
-3.368200 2.598200
-3.320800 2.254100
-3.273400 1.828000
-3.226000 1.702600
-3.178600 1.610400
-3.131100 1.443300
-3.083700 1.285600
-3.036300 1.297900
-2.988900 1.748400
-2.941500 2.275100
-2.894100 3.392200
-2.846700 3.289400
-2.799300 3.400500
-2.751800 3.655300
-2.704400 4.825400
-2.657000 5.114600
-2.609600 4.501700
-2.562200 4.796800
-2.514800 4.127000
-2.467400 5.106700
-2.419900 7.029100
-2.372500 7.112800
-2.325100 5.080500
-2.277700 5.141900
-2.230300 5.230000
-2.182900 4.178800
-2.135500 3.515900
-2.088100 3.198400
-2.040600 3.123000
-1.993200 2.965500
-1.945800 2.643600
-1.898400 2.395000
-1.851000 2.554900
-1.803600 2.773200
-1.756200 2.535000
-1.708800 2.396000
-1.661300 2.371300
-1.613900 2.343200
-1.566500 2.368600
-1.519100 2.619500
-1.471700 2.918900
-1.424300 3.138900
-1.376900 3.766200
-1.329500 3.988300
-1.282000 4.476400
-1.234600 3.049700
-1.187200 3.207600
-1.139800 3.175600
-1.092400 2.823200
-1.045000 2.542000
-0.997600 2.397900
-0.950200 2.270200
-0.902700 2.296800
-0.855300 2.262900
-0.807900 2.241200
-0.760500 2.349700
-0.713100 2.570900
-0.665700 2.421600
-0.618300 2.896400
-0.570800 3.044800
-0.523400 3.193700
-0.476000 3.146900
-0.428600 2.805200
-0.381200 2.796800
-0.333800 2.984900
-0.286400 3.638200
-0.239000 3.532600
-0.191500 3.322000
-0.144100 3.067700
-0.096700 2.826500
-0.049300 2.485000
-0.001900 2.248800
0.045500 1.886300
0.092900 1.543100
0.140300 1.335700
0.187800 1.174100
0.235200 1.047600
0.282600 0.886200
0.330000 0.793100
0.377400 0.733200
0.424800 0.668800
0.472200 0.580500
0.519600 0.464900
0.567100 0.367000
0.614500 0.268800
0.661900 0.222500
0.709300 0.178700
0.756700 0.129900
0.804100 0.108200
0.851500 0.105200
0.898900 0.130500
0.946400 0.259200
0.993800 0.435100
1.041200 0.367800
1.088600 0.405400
1.136000 0.460100
1.183400 0.548900
1.230800 0.657500
1.278300 0.751600
1.325700 0.899300
1.373100 1.104400
1.420500 1.417600
1.467900 1.639800
1.515300 1.872900
1.562700 2.182600
1.610100 2.549000
1.657600 2.359000
1.705000 2.374800
1.752400 2.298800
1.799800 2.113500
1.847200 2.038800
1.894600 2.087400
1.942000 2.244400
1.989400 2.360900
2.036900 2.448700
2.084300 2.943700
2.131700 3.067100
2.179100 2.933500
2.226500 2.831400
2.273900 2.556100
2.321300 2.239500
2.368700 2.136400
2.416200 2.721300
2.463600 4.757800
2.511000 6.418200
2.558400 9.252000
2.605800 6.519000
2.653200 4.927100
2.700600 5.204500
2.748000 7.881500
2.795500 7.009000
2.842900 6.190900
2.890300 5.739900
2.937700 5.437600
2.985100 5.705700
3.032500 7.964200
3.079900 7.336200
3.127300 8.513300
3.174800 7.449200
3.222200 12.754200
3.269600 13.502100
3.317000 9.202500
3.364400 8.500600
3.411800 5.746200
3.459200 4.631900
3.506700 5.747600
3.554100 5.684400
3.601500 8.015100
3.648900 7.399700
3.696300 6.995600
3.743700 8.176000
3.791100 9.597600
3.838500 6.505700
3.886000 5.209900
3.933400 6.152800
3.980800 4.897200
4.028200 3.700100
4.075600 3.139100
4.123000 2.672300
4.170400 2.516300
4.217800 1.860200
4.265300 1.655800
4.312700 1.273800
4.360100 1.167700
4.407500 0.973400
4.454900 0.911200
4.502300 0.867800
4.549700 0.859800
4.597100 0.858300
4.644600 0.859400
4.692000 0.861700
4.739400 0.865700
4.786800 0.871000
4.834200 1.011500
4.881600 1.156800
4.929000 1.255500
4.976400 1.351600
5.023900 1.611100
5.071300 1.526400
5.118700 1.475300
5.166100 1.449600
5.213500 1.476100
5.260900 1.390200
5.308300 1.276300
5.355800 1.209100
5.403200 1.218700
5.450600 1.442900
5.498000 0.526000
5.545400 0.390500
5.592800 1.029000
5.640200 1.029500
5.687600 0.829900
5.735100 0.879600
5.782500 0.950400
5.829900 1.048500
5.877300 1.151600
5.924700 1.264400
5.972100 1.393700
6.019500 1.582400
6.066900 1.899600
6.114400 2.279400
6.161800 2.829100
6.209200 2.940300
6.256600 3.042700
6.304000 2.397200
6.351400 2.924200
6.398800 1.535200
6.446200 1.349300
6.493700 1.479800
6.541100 1.760400
6.588500 1.743000
6.635900 1.670100
6.683300 1.755000
6.730700 1.841300
6.778100 2.066300
6.825500 2.143800
6.873000 2.066700
6.920400 1.929800
6.967800 1.890000
7.015200 1.968500
7.062600 2.187500
7.110000 2.513700
7.157400 3.267900
7.204900 5.750200
7.252300 4.751000
7.299700 3.413000
7.347100 2.070500
7.394500 1.890100
7.441900 3.048100
7.489300 1.568200
7.536700 1.129600
7.584200 0.971000
7.631600 0.499500
7.679000 0.310400
7.726400 0.365000
7.773800 0.336100
7.821200 0.344100
7.868600 0.354000
7.916000 0.366300
7.963500 0.380200
8.010900 0.395200
8.058300 0.411100
8.105700 0.428300
8.153100 0.446300
8.200500 0.464200
8.247900 0.492100
8.295300 0.526400
8.342800 0.560000
8.390200 0.579400
8.437600 0.599800
8.485000 0.623500
8.532400 0.650400
8.579800 0.679500
8.627200 0.715400
8.674600 0.759500
8.722100 0.817300
8.769500 0.883300
8.816900 1.158700
8.864300 1.668300
8.911700 1.618800
8.959100 1.644800
9.006500 1.760900
9.053900 2.001700
9.101400 2.121800
9.148800 1.886500
9.196200 1.567900
9.243600 1.500100
9.291000 1.408900
9.338400 1.340700
9.385800 1.280100
9.433300 1.226700
9.480700 1.169000
9.528100 1.109500
9.575500 1.023600
9.622900 1.065300
9.670300 0.918000
9.717700 0.857600
9.765100 0.808200
9.812600 0.772100
9.860000 0.789800
9.907400 0.745400
9.954800 0.745900
10.002200 0.827100
10.049600 0.946900
10.097000 1.081900
10.144400 1.251000
10.191900 1.415200
10.239300 1.509600
10.286700 1.622900
10.334100 1.898700
10.381500 2.161100
10.428900 1.915200
10.476300 1.934300
10.523700 1.935800
10.571200 1.935200
10.618600 2.349900
10.666000 1.527900
10.713400 1.516900
10.760800 1.358400
10.808200 1.217600
10.855600 1.186400
10.903000 1.158500
10.950500 1.122700
10.997900 1.056000
11.045300 1.009100
11.092700 0.996400
11.140100 0.926600
11.187500 0.817200
11.234900 0.702700
11.282400 0.643700
11.329800 0.620100
11.377200 0.571100
11.424600 0.539900
11.472000 0.494300
11.519400 0.474800
11.566800 0.463100
11.614200 0.459800
11.661700 0.464400
11.709100 0.473700
11.756500 0.487700
11.803900 0.508000
11.851300 0.524200
11.898700 0.540500
11.946100 0.554800
11.993500 0.577600
12.041000 0.650900
12.088400 0.692400
12.135800 0.705700
12.183200 0.751500
12.230600 0.790100
12.278000 0.806400
12.325400 0.807800
12.372800 0.809200
12.420300 0.829400
12.467700 0.888600
12.515100 0.882400
12.562500 0.853300
12.609900 0.872400
12.657300 0.893500
12.704700 0.911600
12.752100 0.926500
12.799600 0.940400
12.847000 0.953800
12.894400 0.967600
12.941800 0.980700
12.989200 1.000700
13.036600 1.039000
13.084000 1.043000
13.131500 1.048600
13.178900 1.066400
13.226300 1.079900
13.273700 1.097500
13.321100 1.134300
13.368500 1.164000
13.415900 1.171400
13.463300 1.093000
13.510800 0.994900
13.558200 1.057300
13.605600 1.031200
13.653000 1.024900
13.700400 1.058300
13.747800 1.022100
13.795200 1.024900
13.842600 1.025600
13.890100 1.027100
13.937500 1.039300
13.984900 1.085300
14.032300 1.046800
14.079700 1.056100
14.127100 1.070000
14.174500 1.085200
14.221900 1.083000
14.269400 1.075900
14.316800 1.083700
14.364200 1.102100
14.411600 1.134400
14.459000 1.175500
14.506400 1.222500
14.553800 1.264300
14.601200 1.330900
14.648700 1.373600
14.696100 1.350700
14.743500 1.331800
14.790900 1.328500
14.838300 1.254800
14.885700 0.952000
14.933100 0.768400
14.980600 0.692200
15.028000 0.669000
15.075400 0.637900
15.122800 0.656800
15.170200 0.734500
15.217600 0.929800
15.265000 1.533100
15.312400 1.126100
15.359900 1.205200
15.407300 1.279700
15.454700 1.363200
15.502100 1.487900
15.549500 1.778400
15.596900 2.008600
15.644300 2.273700
15.691700 2.663300
15.739200 2.521700
15.786600 2.239100
15.834000 2.215700
15.881400 2.208900
15.928800 1.717100
15.976200 1.630900
16.023600 1.599600
16.071000 1.575600
16.118500 1.560000
16.165900 1.503000
16.213300 1.461200
16.260700 1.391600
16.308100 1.362000
16.355500 1.370600
16.402900 1.305400
16.450300 1.300500
16.497800 1.335500
16.545200 1.354700
16.592600 1.439200
16.640000 1.390400
16.687400 1.358900
16.734800 1.318000
16.782200 1.303600
16.829600 1.293400
16.877100 1.275100
16.924500 1.248700
16.971900 1.289800
17.019300 1.232000
17.066700 1.172300
17.114100 1.155100
17.161500 1.172700
17.209000 1.224500
17.256400 1.193200
17.303800 1.162800
17.351200 1.178100
17.398600 1.142800
17.446000 1.135400
17.493400 1.253400
17.540800 1.249700
17.588300 1.238400
17.635700 1.271300
17.683100 1.300800
17.730500 1.532200
17.777900 1.367100
17.825300 1.412800
17.872700 1.471100
17.920100 1.575300
17.967600 1.608100
18.015000 1.586300
18.062400 1.606400
18.109800 1.617000
18.157200 1.636100
18.204600 1.639100
18.252000 1.660900
18.299400 1.680400
18.346900 1.717700
18.394300 1.751700
18.441700 1.869700
18.489100 1.950000
18.536500 1.924300
18.583900 1.789100
18.631300 1.733600
18.678700 1.733500
18.726200 1.782700
18.773600 1.874200
18.821000 1.929700
18.868400 1.997800
18.915800 2.167200
18.963200 2.289600
19.010600 2.574200
19.058100 2.641900
19.105500 2.810400
19.152900 2.625400
19.200300 2.542500
19.247700 2.458900
19.295100 2.451500
19.342500 2.630800
19.389900 2.837000
19.437400 2.928600
19.484800 2.861600
19.532200 2.404800
19.579600 1.991600
19.627000 1.525400
19.674400 1.265900
19.721800 1.113100
19.769200 0.875900
19.816700 0.849300
19.864100 0.844000
19.911500 0.831400
19.958900 0.815500
20.006300 0.813700
20.053700 0.815300
20.101100 0.869400
20.148500 0.975500
20.196000 1.067600
20.243400 0.976800
20.290800 0.966400
20.338200 0.963200
20.385600 0.955300
20.433000 0.958100
20.480400 0.968300
20.527800 0.980800
20.575300 1.005500
20.622700 1.025800
20.670100 1.048000
20.717500 1.076900
20.764900 1.114800
20.812300 1.254600
20.859700 1.378200
20.907200 1.569100
20.954600 1.724100
21.002000 1.724700
21.049400 1.648300
21.096800 1.671300
21.144200 1.651100
21.191600 1.570900
21.239000 1.528300
21.286500 1.471000
21.333900 1.430700
21.381300 1.408400
21.428700 1.407200
21.476100 1.441900
21.523500 1.505900
21.570900 1.596800
21.618300 1.853300
21.665800 1.877300
21.713200 1.858400
21.760600 1.817600
21.808000 1.746400
21.855400 1.675900
21.902800 1.612100
21.950200 1.563200
21.997600 1.534500
22.045100 1.525300
22.092500 1.532200
22.139900 1.515100
22.187300 1.513000
22.234700 1.513200
22.282100 1.718000
22.329500 1.666000
22.376900 1.759400
22.424400 1.860000
22.471800 1.939400
22.519200 2.022500
22.566600 2.058200
22.614000 2.062100
22.661400 1.905400
22.708800 1.710000
22.756200 1.605500
22.803700 1.541300
22.851100 1.576500
22.898500 1.644700
22.945900 1.748200
22.993300 1.904300
23.040700 1.984700
23.088100 1.995300
23.135600 1.979000
23.183000 1.919900
23.230400 1.950000
23.277800 2.083000
23.325200 1.959000
23.372600 1.469500
23.420000 1.554800
23.467400 1.526000
23.514900 1.562800
23.562300 1.656000
23.609700 1.793800
23.657100 1.862300
23.704500 1.839800
23.751900 1.778400
23.799300 1.730000
23.846700 1.712000
23.894200 1.644900
23.941600 1.523900
23.989000 1.424600
24.036400 1.358400
24.083800 1.291300
24.131200 1.255100
24.178600 1.250000
24.226000 1.281500
24.273500 1.338600
24.320900 1.178500
24.368300 0.967600
24.415700 0.969800
24.463100 1.011100
24.510500 1.092900
24.557900 1.175800
24.605300 1.278700
24.652800 1.448100
24.700200 1.645000
24.747600 1.801400
24.795000 1.806900
24.842400 1.783600
24.889800 1.735000
24.937200 1.690300
24.984700 1.646900
25.032100 1.645100
25.079500 1.634900
25.126900 1.668000
25.174300 1.639400
25.221700 1.564700
25.269100 1.483200
25.316500 1.376200
25.364000 1.461300
25.411400 1.186000
25.458800 1.178600
25.506200 1.176500
25.553600 1.133000
25.601000 1.122800
25.648400 1.115300
25.695800 1.107500
25.743300 1.112500
25.790700 1.086600
25.838100 1.017800
25.885500 0.939600
25.932900 0.911800
25.980300 0.932100
26.027700 0.931700
26.075100 0.860600
26.122600 0.836100
26.170000 0.870000
26.217400 0.943500
26.264800 1.022600
26.312200 1.076500
26.359600 1.119900
26.407000 1.145100
26.454400 1.172100
26.501900 1.179700
26.549300 1.190900
26.596700 1.260100
26.644100 1.400100
26.691500 1.681900
26.738900 1.983500
26.786300 2.236800
26.833800 2.309600
26.881200 2.359500
26.928600 2.320200
26.976000 2.333700
27.023400 2.286500
27.070800 2.181600
27.118200 1.953100
27.165600 1.986900
27.213100 2.250100
27.260500 2.255700
27.307900 2.102100
27.355300 2.010600
27.402700 1.931800
27.450100 1.921700
27.497500 2.349000
27.544900 2.587700
27.592400 2.471900
27.639800 2.404900
27.687200 2.456200
27.734600 2.578100
27.782000 2.180700
27.829400 1.965000
27.876800 1.896100
27.924200 1.828500
27.971700 1.671300
28.019100 1.649800
28.066500 1.675000
28.113900 1.720900
28.161300 2.004700
28.208700 2.067500
28.256100 2.031400
28.303500 2.030600
28.351000 2.101400
28.398400 2.216300
28.445800 2.443100
28.493200 2.485800
28.540600 2.682400
28.588000 2.731800
28.635400 2.561600
28.682900 2.392100
28.730300 2.258000
28.777700 2.162900
28.825100 2.096900
28.872500 2.132900
28.919900 2.266300
28.967300 2.426900
29.014700 2.571700
29.062200 2.803200
29.109600 3.073300
29.157000 3.643700
29.204400 3.519100
29.251800 3.424200
29.299200 3.496200
29.346600 3.051800
29.394000 2.667700
29.441500 2.066400
29.488900 1.819500
29.536300 1.806500
29.583700 1.782400
29.631100 1.700400
29.678500 1.673000
29.725900 1.684700
29.773300 1.672100
29.820800 1.649600
29.868200 1.692600
29.915600 1.911300
29.963000 2.214500
30.010400 2.374200
30.057800 2.490700
30.105200 2.522200
30.152600 2.599900
30.200100 2.603600
30.247500 2.533900
30.294900 2.308600
30.342300 2.067400
30.389700 2.051900
30.437100 2.114400
30.484500 2.219200
30.531900 2.772800
30.579400 2.732400
30.626800 2.861000
30.674200 2.975000
30.721600 2.950100
30.769000 2.893900
30.816400 2.740700
30.863800 2.717400
30.911300 2.353100
30.958700 2.275700
31.006100 2.283800
31.053500 2.413600
31.100900 2.558000
31.148300 2.753100
31.195700 2.978000
31.243100 3.141300
31.290600 3.126700
31.338000 2.848000
31.385400 2.559000
31.432800 2.427700
31.480200 2.435300
31.527600 2.473600
31.575000 2.430100
31.622400 2.361000
31.669900 2.455400
31.717300 2.554600
31.764700 2.819800
31.812100 2.929800
31.859500 3.417500
31.906900 3.633400
31.954300 3.491600
32.001700 3.224900
32.049200 2.992100
32.096600 2.795300
32.144000 2.454200
32.191400 2.278200
32.238800 2.227800
32.286200 2.158400
32.333600 2.112100
32.381000 2.084400
32.428500 2.066800
32.475900 2.089100
32.523300 2.130600
32.570700 2.078500
32.618100 2.014200
32.665500 1.969200
32.712900 1.932500
32.760400 1.925400
32.807800 1.887000
32.855200 1.870100
32.902600 1.843200
32.950000 1.900900
32.997400 1.835500
33.044800 1.810200
33.092200 1.849100
33.139700 1.910100
33.187100 1.957200
33.234500 2.009000
33.281900 2.002500
33.329300 2.008900
33.376700 1.947700
33.424100 1.901800
33.471500 1.960900
33.519000 2.044600
33.566400 2.075700
33.613800 2.056900
33.661200 2.048400
33.708600 2.108800
33.756000 2.035500
33.803400 1.950700
33.850800 1.912400
33.898300 1.978100
33.945700 2.052700
33.993100 2.199600
34.040500 2.284200
34.087900 2.504100
34.135300 2.882200
34.182700 2.843800
34.230100 2.501500
34.277600 2.423700
34.325000 2.293700
34.372400 2.232000
34.419800 2.205700
34.467200 2.127800
34.514600 2.133000
34.562000 2.078700
34.609500 2.099800
34.656900 2.180700
34.704300 2.345600
34.751700 2.462800
34.799100 2.563100
34.846500 2.597800
34.893900 2.610300
34.941300 2.643400
34.988800 2.480000
35.036200 2.415500
35.083600 2.323700
35.131000 2.334800
35.178400 2.319600
35.225800 2.298000
35.273200 2.266700
35.320600 2.267500
35.368100 2.301600
35.415500 2.382100
35.462900 2.433100
35.510300 2.485100
35.557700 2.630200
35.605100 2.755100
35.652500 2.682200
35.699900 2.780200
35.747400 2.545800
35.794800 2.469500
35.842200 2.432200
35.889600 2.389000
35.937000 2.439600
35.984400 2.470200
36.031800 2.623200
36.079200 2.788600
36.126700 2.803300
36.174100 2.800400
36.221500 2.797000
36.268900 2.786900
36.316300 2.852300
36.363700 3.101500
36.411100 2.884100
36.458500 2.934000
36.506000 3.017600
36.553400 2.919000
36.600800 2.848900
36.648200 3.011800
36.695600 3.180400
36.743000 3.517400
36.790400 3.711800
36.837900 3.737500
36.885300 4.137900
36.932700 4.603900
36.980100 4.403600
37.027500 4.515400
37.074900 4.207400
37.122300 3.852900
37.169700 3.792800
37.217200 3.956100
37.264600 4.332000
37.312000 5.045400
37.359400 5.491600
37.406800 6.573800
37.454200 8.333900
37.501600 10.842000
37.549000 10.338800
37.596500 13.522300
37.643900 18.330500
37.691300 16.831900
37.738700 14.548900
37.786100 14.497600
37.833500 16.010400
37.880900 10.554900
37.928300 11.400200
37.975800 7.542200
38.023200 5.786700
38.070600 5.564800
38.118000 7.005400
38.165400 6.754000
38.212800 5.842100
38.260200 6.452200
38.307600 7.695000
38.355100 8.001600
38.402500 5.389800
38.449900 5.200700
38.497300 4.567900
38.544700 5.397600
38.592100 9.279600
38.639500 9.873300
38.687000 8.101500
38.734400 7.108100
38.781800 5.875200
38.829200 4.394200
38.876600 4.344000
38.924000 4.357300
38.971400 4.167400
39.018800 3.188900
39.066300 2.824700
39.113700 2.393700
39.161100 2.240500
39.208500 2.174400
39.255900 2.236500
39.303300 2.251400
39.350700 2.178600
39.398100 2.057600
39.445600 1.918900
39.493000 1.827500
39.540400 1.790100
39.587800 1.773100
39.635200 1.818900
39.682600 2.110000
39.730000 2.113600
39.777400 2.273800
39.824900 2.318200
39.872300 2.460500
39.919700 2.623800
39.967100 2.648700
40.014500 2.687100
40.061900 2.669900
40.109300 2.659800
40.156700 2.685500
40.204200 2.619500
40.251600 2.536000
40.299000 2.441600
40.346400 2.203900
40.393800 2.113200
40.441200 1.971700
40.488600 1.820800
40.536100 1.951400
40.583500 1.956700
40.630900 2.031900
40.678300 2.174800
40.725700 2.205100
40.773100 2.254900
40.820500 2.309300
40.867900 2.348300
40.915400 2.418800
40.962800 2.707000
41.010200 2.420100
41.057600 2.325700
41.105000 2.282700
41.152400 2.412000
41.199800 2.403800
41.247200 2.487100
41.294700 2.650300
41.342100 2.555800
41.389500 2.435300
41.436900 2.273900
41.484300 2.176300
41.531700 2.144400
41.579100 2.179700
41.626500 2.114400
41.674000 2.024900
41.721400 2.059200
41.768800 2.324900
41.816200 2.882500
41.863600 3.344900
41.911000 3.650300
41.958400 3.425800
42.005800 3.297600
42.053300 3.101900
42.100700 3.016300
42.148100 3.087800
42.195500 2.543000
42.242900 2.390300
42.290300 2.362400
42.337700 2.433800
42.385200 2.494600
42.432600 2.634400
42.480000 2.549700
42.527400 2.620500
42.574800 2.737100
42.622200 2.769300
42.669600 2.766300
42.717000 2.914400
42.764500 3.028600
42.811900 3.052300
42.859300 3.160100
42.906700 3.102300
42.954100 3.054900
43.001500 2.950100
43.048900 2.991400
43.096300 2.931100
43.143800 2.872800
43.191200 2.943200
43.238600 3.093200
43.286000 3.201500
43.333400 3.323600
43.380800 3.409100
43.428200 3.318900
43.475600 3.160700
43.523100 3.155200
43.570500 3.036200
43.617900 2.779000
43.665300 2.801500
43.712700 2.906600
43.760100 2.918400
43.807500 2.841000
43.854900 2.866800
43.902400 3.070900
43.949800 3.861100
43.997200 4.347500
44.044600 4.190800
44.092000 4.572300
44.139400 4.261100
44.186800 4.154100
44.234200 4.325700
44.281700 3.437500
44.329100 3.142600
44.376500 2.870900
44.423900 2.752500
44.471300 2.671500
44.518700 2.778600
44.566100 2.938700
44.613600 3.277900
44.661000 3.762700
44.708400 3.830100
44.755800 3.400200
44.803200 3.238200
44.850600 3.227100
44.898000 3.161000
44.945400 3.104000
44.992900 3.056100
45.040300 2.923300
45.087700 2.957600
45.135100 2.834400
45.182500 2.926200
45.229900 2.858500
45.277300 2.984400
45.324700 2.978200
45.372200 2.871100
45.419600 2.547000
45.467000 2.480100
45.514400 2.453500
45.561800 2.622200
45.609200 2.694500
45.656600 2.517900
45.704000 2.483900
45.751500 2.475300
45.798900 2.421400
45.846300 2.343900
45.893700 2.288400
45.941100 2.547100
45.988500 2.612300
46.035900 2.630700
46.083300 2.564800
46.130800 2.463100
46.178200 2.440800
46.225600 2.295900
46.273000 2.281000
46.320400 2.289300
46.367800 2.292800
46.415200 2.344800
46.462700 2.385200
46.510100 2.381500
46.557500 2.433200
46.604900 2.471600
46.652300 2.477700
46.699700 2.402500
46.747100 2.348800
46.794500 2.261300
46.842000 2.152100
46.889400 2.124300
46.936800 2.127500
46.984200 2.287000
47.031600 2.782300
47.079000 2.915200
47.126400 3.011200
47.173800 2.915100
47.221300 2.805300
47.268700 2.715900
47.316100 2.616700
47.363500 2.785600
47.410900 3.065200
47.458300 3.306100
47.505700 3.291200
47.553100 3.162400
47.600600 2.993300
47.648000 2.931000
47.695400 2.744300
47.742800 2.897700
47.790200 3.098400
47.837600 3.050400
47.885000 2.821100
47.932400 2.780200
47.979900 2.950300
48.027300 2.943800
48.074700 2.724900
48.122100 2.631000
48.169500 2.523400
48.216900 2.341100
48.264300 2.239300
48.311800 2.221600
48.359200 2.527900
48.406600 2.576400
48.454000 2.658300
48.501400 2.723000
48.548800 2.673000
48.596200 2.626200
48.643600 2.611800
48.691100 2.686600
48.738500 2.719000
48.785900 2.680900
48.833300 2.657500
48.880700 2.807500
48.928100 2.638000
48.975500 2.722500
49.022900 2.369100
49.070400 2.382500
49.117800 2.204800
49.165200 2.169100
49.212600 2.040900
49.260000 2.089600
49.307400 2.253200
49.354800 2.300800
49.402200 2.273200
49.449700 2.284100
49.497100 2.332300
49.544500 2.335900
49.591900 2.296700
49.639300 2.239800
49.686700 2.197100
49.734100 2.255600
49.781500 2.300100
49.829000 2.315200
49.876400 2.366900
49.923800 2.461600
49.971200 2.554200
50.018600 2.626300
50.066000 2.715400
50.113400 2.841600
50.160800 2.961600
50.208300 2.949900
50.255700 2.840800
50.303100 2.836300
50.350500 2.782700
50.397900 2.775900
50.445300 2.785200
50.492700 2.764700
50.540200 2.741900
50.587600 2.745000
50.635000 2.817400
50.682400 2.926500
50.729800 3.028400
50.777200 3.014200
50.824600 3.067500
50.872000 3.104400
50.919500 3.132300
50.966900 3.157800
51.014300 3.198800
51.061700 3.192700
51.109100 3.146100
51.156500 3.007200
51.203900 2.901300
51.251300 2.989400
51.298800 3.073900
51.346200 3.182600
51.393600 3.194900
51.441000 3.254800
51.488400 3.247700
51.535800 3.222800
51.583200 2.806100
51.630600 2.837500
51.678100 2.920500
51.725500 3.007900
51.772900 3.015000
51.820300 2.956900
51.867700 2.860400
51.915100 2.849500
51.962500 2.838700
52.009900 3.037800
52.057400 3.259300
52.104800 3.690900
52.152200 3.240400
52.199600 3.037700
52.247000 2.657900
52.294400 2.627500
52.341800 2.849700
52.389300 3.208000
52.436700 3.376100
52.484100 3.310000
52.531500 3.385500
52.578900 3.540100
52.626300 3.761500
52.673700 3.683100
52.721100 3.706500
52.768600 3.534700
52.816000 3.135900
52.863400 3.035500
52.910800 2.963100
52.958200 2.903400
53.005600 2.872200
53.053000 2.805300
53.100400 2.827600
53.147900 3.004700
53.195300 3.205700
53.242700 3.179500
53.290100 3.296000
53.337500 3.227600
53.384900 3.159100
53.432300 3.405400
53.479700 3.546500
53.527200 3.491400
53.574600 3.433200
53.622000 3.375000
53.669400 3.298400
53.716800 3.211600
53.764200 3.185000
53.811600 3.258800
53.859000 3.092300
53.906500 2.943900
53.953900 2.889400
54.001300 3.025100
54.048700 3.309800
54.096100 3.392300
54.143500 3.201800
54.190900 3.052000
54.238400 3.064600
54.285800 3.138000
54.333200 3.232000
54.380600 3.132000
54.428000 3.253400
54.475400 3.414600
54.522800 3.700600
54.570200 3.756500
54.617700 3.497200
54.665100 3.307400
54.712500 3.149100
54.759900 2.901100
54.807300 2.514900
54.854700 2.560500
54.902100 2.768900
54.949500 2.878200
54.997000 2.930300
55.044400 3.062400
55.091800 3.223100
55.139200 3.557700
55.186600 3.802900
55.234000 3.920000
55.281400 3.751000
55.328800 3.376900
55.376300 3.233500
55.423700 3.213600
55.471100 3.054000
55.518500 2.856400
55.565900 2.859400
55.613300 2.997900
55.660700 3.137300
55.708100 3.551900
55.755600 3.674100
55.803000 3.472500
55.850400 3.345500
55.897800 3.449700
55.945200 3.371400
55.992600 3.248600
56.040000 3.198600
56.087500 3.194300
56.134900 3.240800
56.182300 3.361300
56.229700 3.632900
56.277100 3.776300
56.324500 3.798700
56.371900 3.807400
56.419300 3.575800
56.466800 3.545600
56.514200 3.656700
56.561600 4.012900
56.609000 4.277400
56.656400 4.284700
56.703800 3.785900
56.751200 3.350300
56.798600 3.302600
56.846100 3.285800
56.893500 3.273200
56.940900 3.356900
56.988300 3.480100
57.035700 3.749900
57.083100 3.850200
57.130500 4.068100
57.177900 4.262900
57.225400 4.486700
57.272800 4.258300
57.320200 4.110400
57.367600 3.846200
57.415000 3.685000
57.462400 3.575400
57.509800 3.498100
57.557200 3.590000
57.604700 3.666400
57.652100 3.909500
57.699500 3.418000
57.746900 3.414600
57.794300 3.278800
57.841700 3.021500
57.889100 2.768300
57.936500 2.757500
57.984000 2.742400
58.031400 2.832100
58.078800 2.939100
58.126200 2.698300
58.173600 2.895900
58.221000 3.418900
58.268400 3.761400
58.315900 4.029900
58.363300 4.061100
58.410700 3.964100
58.458100 3.579900
58.505500 3.148800
58.552900 3.021800
58.600300 3.153100
58.647700 3.380700
58.695200 3.513600
58.742600 3.601900
58.790000 3.502500
58.837400 3.447700
58.884800 3.289700
58.932200 3.127100
58.979600 2.929700
59.027000 2.874500
59.074500 2.879900
59.121900 3.033600
59.169300 3.280900
59.216700 3.202200
59.264100 3.365100
59.311500 3.543600
59.358900 3.789600
59.406300 3.829700
59.453800 3.716000
59.501200 3.994000
59.548600 3.385300
59.596000 3.232100
59.643400 2.893100
59.690800 2.934100
59.738200 2.837800
59.785600 2.704400
59.833100 2.646700
59.880500 2.573200
59.927900 2.580600
59.975300 2.543400
60.022700 2.526200
60.070100 2.617400
60.117500 2.816400
60.165000 2.988300
60.212400 2.958600
60.259800 2.871200
60.307200 2.901500
60.354600 2.814600
60.402000 2.778600
60.449400 2.507700
60.496800 2.394700
60.544300 2.367100
60.591700 2.369300
60.639100 2.423800
60.686500 2.509600
60.733900 2.534800
60.781300 2.642700
60.828700 2.801100
60.876100 2.852700
60.923600 2.887900
60.971000 2.966800
61.018400 2.993300
61.065800 3.149600
61.113200 3.129600
61.160600 3.216400
61.208000 3.320700
61.255400 3.409500
61.302900 3.271300
61.350300 3.255500
61.397700 3.172300
61.445100 3.198400
61.492500 3.208200
61.539900 3.232500
61.587300 3.181400
61.634700 3.076900
61.682200 2.911700
61.729600 2.736400
61.777000 2.645600
61.824400 2.727200
61.871800 2.747500
61.919200 3.011100
61.966600 2.957000
62.014100 2.952900
62.061500 2.992200
62.108900 3.024300
62.156300 3.095400
62.203700 3.315600
62.251100 3.316500
62.298500 3.243300
62.345900 3.163100
62.393400 3.061500
62.440800 2.902700
62.488200 2.886900
62.535600 2.858200
62.583000 2.832800
62.630400 2.859500
62.677800 2.929500
62.725200 2.991300
62.772700 3.207500
62.820100 3.049700
62.867500 2.987300
62.914900 2.999100
62.962300 2.958100
63.009700 3.021800
63.057100 2.816100
63.104500 2.856900
63.152000 2.821400
63.199400 2.580600
63.246800 2.557500
63.294200 2.768800
63.341600 2.977800
63.389000 3.076900
63.436400 2.998300
63.483800 2.960800
63.531300 3.075900
63.578700 3.096700
63.626100 3.303500
63.673500 3.314400
63.720900 3.243400
63.768300 3.278800
63.815700 3.156200
63.863100 2.984200
63.910600 2.947700
63.958000 3.086500
64.005400 3.142100
64.052800 3.072000
64.100200 3.061300
64.147600 3.109200
64.195000 3.162600
64.242500 3.411800
64.289900 3.412500
64.337300 3.557800
64.384700 3.771400
64.432100 4.022400
64.479500 3.991000
64.526900 3.813900
64.574300 3.553500
64.621800 3.214200
64.669200 2.924200
64.716600 2.611900
64.764000 2.463100
64.811400 2.442800
64.858800 2.600600
64.906200 3.127900
64.953600 3.385100
65.001100 3.560000
65.048500 3.945400
65.095900 3.994300
65.143300 3.792300
65.190700 3.665800
65.238100 3.432100
65.285500 3.277100
65.332900 3.204900
65.380400 3.179700
65.427800 3.174300
65.475200 3.340600
65.522600 3.334600
65.570000 3.406900
65.617400 3.426100
65.664800 3.782500
65.712200 3.503400
65.759700 3.460900
65.807100 3.456800
65.854500 3.396000
65.901900 3.474400
65.949300 3.549500
65.996700 3.218500
66.044100 3.063800
66.091600 2.629400
66.139000 2.720400
66.186400 3.004700
66.233800 3.885200
66.281200 4.018000
66.328600 4.311900
66.376000 3.841800
66.423400 3.872500
66.470900 3.896400
66.518300 3.373600
66.565700 3.134300
66.613100 3.071200
66.660500 2.985300
66.707900 2.948000
66.755300 2.863100
66.802700 2.876200
66.850200 3.063600
66.897600 3.182800
66.945000 3.641700
66.992400 3.426000
67.039800 3.209300
67.087200 3.222700
67.134600 3.140100
67.182000 3.342100
67.229500 3.246300
67.276900 3.303500
67.324300 3.410100
67.371700 3.457100
67.419100 3.418600
67.466500 3.061300
67.513900 2.758700
67.561300 2.584900
67.608800 2.543700
67.656200 2.584400
67.703600 2.702300
67.751000 2.898400
67.798400 2.750700
67.845800 2.895500
67.893200 2.963100
67.940700 2.911300
67.988100 3.002000
68.035500 3.116200
68.082900 3.138900
68.130300 3.122900
68.177700 3.211000
68.225100 3.275300
68.272500 3.201400
68.320000 3.048300
68.367400 2.867400
68.414800 2.804600
68.462200 2.899600
68.509600 2.772500
68.557000 2.519800
68.604400 2.444200
68.651800 2.552900
68.699300 2.653300
68.746700 2.647200
68.794100 2.586300
68.841500 2.534200
68.888900 2.560300
68.936300 2.511700
68.983700 2.444300
69.031100 2.269500
69.078600 2.028500
69.126000 1.759000
69.173400 1.563600
69.220800 1.333800
69.268200 1.119500
69.315600 0.919200
69.363000 0.684600
69.410400 0.732100
69.457900 0.477500
69.505300 0.398200
69.552700 0.315700
69.600100 0.197400
69.647500 0.146100
69.694900 0.103800
69.742300 0.072800
69.789800 0.051300
69.837200 0.038900
69.884600 0.032400
69.932000 0.026800
69.979400 0.021800
70.026800 0.017300
70.074200 0.013200
70.121600 0.009400
70.169100 0.004200
70.216500 0.001900
70.263900 0.000000
70.311300 0.000000
70.358700 0.000000
70.406100 0.000000
70.453500 0.000000
70.500900 0.000000
70.548400 0.000000
70.595800 0.000000
70.643200 0.000000
70.690600 0.000000
70.738000 0.000000
70.785400 0.000000
70.832800 0.000000
70.880200 0.000000
70.927700 0.000000
70.975100 0.000000
71.022500 0.000000
71.069900 0.000000
71.117300 0.000000
71.164700 0.000000
71.212100 0.000000
71.259500 0.000000
71.307000 0.000000
71.354400 0.000000
71.401800 0.000000
71.449200 0.000000
71.496600 0.000000
71.544000 0.000000
71.591400 0.000000
71.638800 0.000000
71.686300 0.000000
71.733700 0.000000
71.781100 0.000000
71.828500 0.000000
71.875900 0.000000
71.923300 0.000000
71.970700 0.000000
72.018200 0.000000
72.065600 0.000000
72.113000 0.000000
72.160400 0.000000
72.207800 0.000000
72.255200 0.000000
72.302600 0.000000
72.350000 0.000000
72.397500 0.000000
72.444900 0.000000
72.492300 0.000000
72.539700 0.000000
72.587100 0.000000
72.634500 0.000000
72.681900 0.000000
72.729300 0.000000
72.776800 0.000000
72.824200 0.000000
72.871600 0.000000
72.919000 0.000000
72.966400 0.000000
73.013800 0.000000
73.061200 0.000000
73.108600 0.000000
73.156100 0.000000
73.203500 0.000000
73.250900 0.000000
73.298300 0.000000
73.345700 0.000000
73.393100 0.000000
73.440500 0.000000
73.487900 0.000000
73.535400 0.000000
73.582800 0.000000
73.630200 0.000000
73.677600 0.000000
73.725000 0.000000
73.772400 0.000000
73.819800 0.000000
73.867300 0.000000
73.914700 0.000000
73.962100 0.000000
74.009500 0.000000
74.056900 0.000000
74.104300 0.000000
74.151700 0.000000
74.199100 0.000000
74.246600 0.000000
74.294000 0.000000
74.341400 0.000000
74.388800 0.000000
74.436200 0.000000
74.483600 0.000000
74.531000 0.000000
74.578400 0.000000
e
