set title 'mp-1985 - Density of States'
set xlabel 'Energy (eV)'
set ylabel 'DOS (states/eV)'
set grid
set xrange [-10:10]
set yrange [0:17.410]
set xzeroaxis lt -1
set terminal png size 800,600
set output 'mp-1985_dos_gnuplot.png'
plot '-' using 1:2 with lines title 'DOS'
-18.381700 0.000000
-18.352600 0.000000
-18.323400 0.000000
-18.294300 0.000000
-18.265200 0.000000
-18.236100 0.000000
-18.207000 0.000000
-18.177800 0.000000
-18.148700 0.000000
-18.119600 0.000000
-18.090500 0.000000
-18.061400 0.000000
-18.032200 0.000000
-18.003100 0.000000
-17.974000 0.000000
-17.944900 0.000000
-17.915700 0.000000
-17.886600 0.000000
-17.857500 0.000000
-17.828400 0.000000
-17.799300 0.000000
-17.770100 0.000000
-17.741000 0.000000
-17.711900 0.000000
-17.682800 0.000000
-17.653700 0.000000
-17.624500 0.000000
-17.595400 0.000000
-17.566300 0.000000
-17.537200 0.000000
-17.508100 0.000000
-17.478900 0.000000
-17.449800 0.000000
-17.420700 0.000000
-17.391600 0.000000
-17.362500 0.000000
-17.333300 0.000000
-17.304200 0.000000
-17.275100 0.000000
-17.246000 0.000000
-17.216900 0.000000
-17.187700 0.000000
-17.158600 0.000000
-17.129500 0.000000
-17.100400 0.000000
-17.071300 0.000000
-17.042100 0.000000
-17.013000 0.000000
-16.983900 0.000000
-16.954800 0.000000
-16.925700 0.000000
-16.896500 0.000000
-16.867400 0.000000
-16.838300 0.000000
-16.809200 0.000000
-16.780100 0.000000
-16.750900 0.000000
-16.721800 0.000000
-16.692700 0.000000
-16.663600 0.000000
-16.634500 0.000000
-16.605300 0.000000
-16.576200 0.000000
-16.547100 0.000000
-16.518000 0.000000
-16.488800 0.000000
-16.459700 0.000000
-16.430600 0.000000
-16.401500 0.000000
-16.372400 0.000000
-16.343200 0.000000
-16.314100 0.000000
-16.285000 0.000000
-16.255900 0.000000
-16.226800 0.000000
-16.197600 0.000000
-16.168500 0.000000
-16.139400 0.000000
-16.110300 0.000000
-16.081200 0.000000
-16.052000 0.000000
-16.022900 0.000000
-15.993800 0.000000
-15.964700 0.000000
-15.935600 0.000000
-15.906400 0.000000
-15.877300 0.000000
-15.848200 0.000000
-15.819100 0.000000
-15.790000 0.000000
-15.760800 0.000000
-15.731700 0.000100
-15.702600 0.012700
-15.673500 0.046500
-15.644400 0.101600
-15.615200 0.178100
-15.586100 0.272500
-15.557000 0.375100
-15.527900 0.461600
-15.498800 0.493700
-15.469600 0.514800
-15.440500 0.525100
-15.411400 0.524300
-15.382300 0.561600
-15.353200 0.603100
-15.324000 0.645800
-15.294900 0.689600
-15.265800 0.734500
-15.236700 0.780600
-15.207600 0.827400
-15.178400 0.872800
-15.149300 1.140900
-15.120200 1.382800
-15.091100 1.500800
-15.061900 1.495100
-15.032800 1.402900
-15.003700 1.066300
-14.974600 0.892500
-14.945500 0.798500
-14.916300 0.775600
-14.887200 0.763700
-14.858100 0.751300
-14.829000 0.738500
-14.799900 0.732200
-14.770700 0.736700
-14.741600 0.751800
-14.712500 0.777800
-14.683400 0.812400
-14.654300 0.850600
-14.625100 0.842300
-14.596000 0.872400
-14.566900 0.922600
-14.537800 0.989100
-14.508700 1.059600
-14.479500 1.132700
-14.450400 1.208400
-14.421300 1.378900
-14.392200 1.368500
-14.363100 1.352100
-14.333900 1.327800
-14.304800 1.407000
-14.275700 1.483400
-14.246600 1.561800
-14.217500 1.642300
-14.188300 1.614300
-14.159200 1.661100
-14.130100 1.707500
-14.101000 1.753300
-14.071900 1.798500
-14.042700 1.835000
-14.013600 1.837200
-13.984500 1.847400
-13.955400 1.862300
-13.926300 1.870100
-13.897100 1.913600
-13.868000 1.957500
-13.838900 2.001800
-13.809800 2.024900
-13.780700 2.060800
-13.751500 2.077500
-13.722400 2.070700
-13.693300 2.040100
-13.664200 2.011800
-13.635000 2.062000
-13.605900 2.092000
-13.576800 2.101600
-13.547700 2.092300
-13.518600 1.992300
-13.489400 1.874500
-13.460300 1.773500
-13.431200 1.693900
-13.402100 1.635700
-13.373000 1.598500
-13.343800 1.559700
-13.314700 1.532600
-13.285600 1.505400
-13.256500 1.480100
-13.227400 1.457900
-13.198200 1.434500
-13.169100 1.401200
-13.140000 1.366200
-13.110900 1.339800
-13.081800 1.337900
-13.052600 1.386700
-13.023500 1.503900
-12.994400 1.746100
-12.965300 1.964500
-12.936200 2.139500
-12.907000 2.259800
-12.877900 2.287100
-12.848800 2.310100
-12.819700 2.328400
-12.790600 2.342100
-12.761400 2.351200
-12.732300 2.355600
-12.703200 2.355300
-12.674100 2.350300
-12.645000 2.341200
-12.615800 2.326000
-12.586700 2.473600
-12.557600 2.379700
-12.528500 2.272900
-12.499400 2.178500
-12.470200 1.978400
-12.441100 1.941500
-12.412000 1.910500
-12.382900 1.885000
-12.353800 1.862300
-12.324600 1.836600
-12.295500 1.816000
-12.266400 1.797000
-12.237300 1.780700
-12.208100 1.777500
-12.179000 1.782800
-12.149900 1.790300
-12.120800 1.782900
-12.091700 1.809000
-12.062500 1.836800
-12.033400 1.866500
-12.004300 1.893500
-11.975200 1.917300
-11.946100 1.943900
-11.916900 1.973200
-11.887800 2.005400
-11.858700 2.847100
-11.829600 3.009100
-11.800500 3.162100
-11.771300 3.306400
-11.742200 2.911200
-11.713100 2.956600
-11.684000 3.004600
-11.654900 3.102000
-11.625700 3.133900
-11.596600 3.171800
-11.567500 3.227300
-11.538400 3.301600
-11.509300 3.407500
-11.480100 3.467500
-11.451000 3.429700
-11.421900 3.348800
-11.392800 3.128900
-11.363700 2.963200
-11.334500 2.360000
-11.305400 2.133100
-11.276300 1.954400
-11.247200 1.874100
-11.218100 1.842200
-11.188900 1.814400
-11.159800 1.790500
-11.130700 1.770400
-11.101600 1.754100
-11.072500 1.741600
-11.043300 1.736700
-11.014200 1.742300
-10.985100 1.752900
-10.956000 1.767400
-10.926900 1.781500
-10.897700 1.795200
-10.868600 1.811300
-10.839500 1.812700
-10.810400 1.813000
-10.781200 1.827900
-10.752100 1.843400
-10.723000 1.862700
-10.693900 1.882500
-10.664800 1.902900
-10.635600 1.929200
-10.606500 1.960900
-10.577400 1.995200
-10.548300 2.030400
-10.519200 2.066400
-10.490000 2.103400
-10.460900 2.141200
-10.431800 2.179900
-10.402700 2.219500
-10.373600 2.259800
-10.344400 2.300900
-10.315300 2.342700
-10.286200 2.394600
-10.257100 2.507300
-10.228000 3.414800
-10.198800 3.131400
-10.169700 2.598200
-10.140600 2.430700
-10.111500 2.265000
-10.082400 2.056600
-10.053200 1.751600
-10.024100 1.679500
-9.995000 1.610500
-9.965900 1.752800
-9.936800 1.924500
-9.907600 2.136800
-9.878500 2.389800
-9.849400 2.632900
-9.820300 2.792800
-9.791200 3.172900
-9.762000 3.413900
-9.732900 3.340900
-9.703800 3.324300
-9.674700 3.066100
-9.645600 2.806700
-9.616400 2.427800
-9.587300 1.929200
-9.558200 1.582900
-9.529100 1.430600
-9.500000 1.326400
-9.470800 1.265400
-9.441700 1.225400
-9.412600 1.206300
-9.383500 1.179100
-9.354300 1.143800
-9.325200 1.099800
-9.296100 1.047200
-9.267000 1.013100
-9.237900 1.048400
-9.208700 1.158600
-9.179600 1.332300
-9.150500 1.546100
-9.121400 1.778800
-9.092300 2.145100
-9.063100 2.622700
-9.034000 2.990500
-9.004900 3.155100
-8.975800 3.215400
-8.946700 2.748900
-8.917500 2.327700
-8.888400 2.067800
-8.859300 2.011000
-8.830200 3.505900
-8.801100 3.891700
-8.771900 3.424700
-8.742800 3.496300
-8.713700 3.574300
-8.684600 3.684900
-8.655500 3.791600
-8.626300 4.707900
-8.597200 6.486100
-8.568100 13.550400
-8.539000 15.827200
-8.509900 10.621800
-8.480700 5.680500
-8.451600 4.444500
-8.422500 4.234900
-8.393400 4.582200
-8.364300 6.701100
-8.335100 8.070400
-8.306000 6.520000
-8.276900 0.876200
-8.247800 0.665000
-8.218700 0.482500
-8.189500 0.325300
-8.160400 0.193100
-8.131300 0.086200
-8.102200 0.012400
-8.073100 0.000000
-8.043900 0.000000
-8.014800 0.000000
-7.985700 0.000000
-7.956600 0.000000
-7.927400 0.000000
-7.898300 0.000000
-7.869200 0.000000
-7.840100 0.000000
-7.811000 0.000000
-7.781800 0.000000
-7.752700 0.000000
-7.723600 0.000000
-7.694500 0.000000
-7.665400 0.000000
-7.636200 0.000000
-7.607100 0.000000
-7.578000 0.000000
-7.548900 0.000000
-7.519800 0.000000
-7.490600 0.000000
-7.461500 0.000000
-7.432400 0.000000
-7.403300 0.000000
-7.374200 0.000000
-7.345000 0.000000
-7.315900 0.000000
-7.286800 0.000000
-7.257700 0.000000
-7.228600 0.000000
-7.199400 0.000000
-7.170300 0.000000
-7.141200 0.000000
-7.112100 0.000000
-7.083000 0.000000
-7.053800 0.000000
-7.024700 0.000000
-6.995600 0.000000
-6.966500 0.000000
-6.937400 0.505600
-6.908200 0.804300
-6.879100 1.019500
-6.850000 0.791900
-6.820900 0.730800
-6.791800 0.753400
-6.762600 0.860600
-6.733500 1.033100
-6.704400 1.492500
-6.675300 2.267300
-6.646200 2.819600
-6.617000 3.278900
-6.587900 3.512000
-6.558800 3.608000
-6.529700 4.382800
-6.500500 4.519200
-6.471400 3.568400
-6.442300 3.571400
-6.413200 2.910400
-6.384100 2.677700
-6.354900 2.496100
-6.325800 2.273400
-6.296700 2.149100
-6.267600 2.044400
-6.238500 1.957300
-6.209300 1.881200
-6.180200 1.815400
-6.151100 1.759300
-6.122000 1.714900
-6.092900 1.679400
-6.063700 1.650300
-6.034600 1.626400
-6.005500 1.607600
-5.976400 1.593900
-5.947300 1.585300
-5.918100 1.579200
-5.889000 1.573800
-5.859900 1.569300
-5.830800 1.566300
-5.801700 1.569700
-5.772500 1.571900
-5.743400 1.571400
-5.714300 1.562500
-5.685200 1.552100
-5.656100 1.546700
-5.626900 1.545100
-5.597800 1.545700
-5.568700 1.958900
-5.539600 2.186900
-5.510500 2.451900
-5.481300 2.414800
-5.452200 2.044100
-5.423100 1.868900
-5.394000 1.694100
-5.364900 1.577500
-5.335700 1.484300
-5.306600 1.414300
-5.277500 1.367600
-5.248400 1.344200
-5.219200 1.332700
-5.190100 1.321100
-5.161000 1.309500
-5.131900 1.298900
-5.102800 1.288500
-5.073600 1.278200
-5.044500 1.268700
-5.015400 1.270900
-4.986300 1.288200
-4.957200 1.320500
-4.928000 1.367900
-4.898900 1.484800
-4.869800 1.976300
-4.840700 2.788500
-4.811600 3.802600
-4.782400 4.896400
-4.753300 5.052400
-4.724200 4.884000
-4.695100 4.744000
-4.666000 3.954600
-4.636800 3.228000
-4.607700 2.331800
-4.578600 1.501100
-4.549500 1.380200
-4.520400 1.331500
-4.491200 1.292800
-4.462100 1.247800
-4.433000 1.204500
-4.403900 1.163000
-4.374800 1.123400
-4.345600 1.085700
-4.316500 2.307200
-4.287400 2.970600
-4.258300 4.253400
-4.229200 3.348500
-4.200000 3.417700
-4.170900 3.490800
-4.141800 3.573300
-4.112700 3.661600
-4.083600 4.402400
-4.054400 4.055900
-4.025300 3.880200
-3.996200 3.814700
-3.967100 3.743600
-3.938000 3.699100
-3.908800 3.646400
-3.879700 3.571700
-3.850600 3.467000
-3.821500 3.356800
-3.792300 3.217100
-3.763200 3.014900
-3.734100 2.757500
-3.705000 2.520100
-3.675900 2.389300
-3.646700 2.274700
-3.617600 2.183300
-3.588500 2.109300
-3.559400 1.977100
-3.530300 1.860400
-3.501100 1.759100
-3.472000 1.673200
-3.442900 1.602700
-3.413800 1.555000
-3.384700 1.534600
-3.355500 1.538000
-3.326400 1.573900
-3.297300 1.612300
-3.268200 2.027400
-3.239100 2.276300
-3.209900 2.353100
-3.180800 2.418800
-3.151700 2.478000
-3.122600 2.470700
-3.093500 2.470100
-3.064300 2.476100
-3.035200 2.488700
-3.006100 2.502000
-2.977000 2.559700
-2.947900 2.571700
-2.918700 2.601900
-2.889600 2.627300
-2.860500 2.657500
-2.831400 2.682300
-2.802300 2.701800
-2.773100 2.715900
-2.744000 2.724700
-2.714900 2.729100
-2.685800 2.731500
-2.656700 2.732800
-2.627500 2.735100
-2.598400 2.752600
-2.569300 2.760500
-2.540200 2.773200
-2.511100 3.842400
-2.481900 4.577200
-2.452800 5.104900
-2.423700 4.919600
-2.394600 4.654200
-2.365400 4.452200
-2.336300 4.217200
-2.307200 4.178900
-2.278100 3.901100
-2.249000 3.826600
-2.219800 3.796800
-2.190700 3.820300
-2.161600 3.564400
-2.132500 3.020300
-2.103400 2.973800
-2.074200 2.934500
-2.045100 2.883700
-2.016000 2.778600
-1.986900 2.704800
-1.957800 3.252800
-1.928600 3.697900
-1.899500 3.542400
-1.870400 3.743000
-1.841300 3.992400
-1.812200 4.266800
-1.783000 4.559100
-1.753900 4.803200
-1.724800 4.575500
-1.695700 4.175000
-1.666600 3.723400
-1.637400 3.258500
-1.608300 3.206300
-1.579200 3.212100
-1.550100 3.260500
-1.521000 3.246000
-1.491800 3.234600
-1.462700 3.156200
-1.433600 3.130800
-1.404500 3.115000
-1.375400 3.108700
-1.346200 3.108100
-1.317100 3.109500
-1.288000 3.113000
-1.258900 3.119300
-1.229800 3.144500
-1.200600 3.214800
-1.171500 3.364100
-1.142400 3.543500
-1.113300 5.064500
-1.084200 3.362800
-1.055000 3.100600
-1.025900 3.044700
-0.996800 3.350600
-0.967700 6.188500
-0.938500 4.014800
-0.909400 4.115300
-0.880300 4.259900
-0.851200 4.403100
-0.822100 4.610600
-0.792900 4.897500
-0.763800 4.856800
-0.734700 5.107200
-0.705600 5.248700
-0.676500 5.325600
-0.647300 5.636900
-0.618200 5.482500
-0.589100 4.982200
-0.560000 4.994200
-0.530900 5.173700
-0.501700 5.160500
-0.472600 5.068700
-0.443500 4.906900
-0.414400 4.742400
-0.385300 4.585200
-0.356100 4.876200
-0.327000 4.717800
-0.297900 4.326600
-0.268800 4.640300
-0.239700 6.931200
-0.210500 7.369000
-0.181400 6.985500
-0.152300 6.144100
-0.123200 5.589600
-0.094100 5.069900
-0.064900 4.632900
-0.035800 4.295600
-0.006700 3.694900
0.022400 3.550100
0.051500 4.056600
0.080700 4.768300
0.109800 5.798900
0.138900 5.477000
0.168000 5.528800
0.197100 5.616400
0.226300 5.786600
0.255400 6.185000
0.284500 6.447200
0.313600 6.163600
0.342700 6.250000
0.371900 6.185900
0.401000 6.293400
0.430100 6.662500
0.459200 5.690400
0.488400 5.937100
0.517500 6.151500
0.546600 6.909200
0.575700 6.479900
0.604800 5.689300
0.634000 5.186700
0.663100 3.583400
0.692200 3.637200
0.721300 3.965400
0.750400 4.440300
0.779600 4.989900
0.808700 5.267700
0.837800 5.337800
0.866900 5.314900
0.896000 5.210100
0.925200 5.109800
0.954300 5.024500
0.983400 4.982100
1.012500 4.772500
1.041600 4.699800
1.070800 4.693600
1.099900 4.716600
1.129000 4.831800
1.158100 4.866100
1.187200 4.788000
1.216400 4.670900
1.245500 4.560700
1.274600 4.352600
1.303700 3.991800
1.332800 3.805300
1.362000 3.439000
1.391100 3.275200
1.420200 3.230000
1.449300 3.292400
1.478400 3.305000
1.507600 3.325900
1.536700 3.376900
1.565800 3.334300
1.594900 3.369500
1.624000 3.394300
1.653200 3.402300
1.682300 3.377100
1.711400 3.437900
1.740500 3.330700
1.769600 3.201600
1.798800 3.046800
1.827900 2.866300
1.857000 2.637000
1.886100 2.582600
1.915300 2.624800
1.944400 2.674900
1.973500 2.719700
2.002600 2.701300
2.031700 2.588500
2.060900 2.563200
2.090000 2.524700
2.119100 2.493000
2.148200 2.480000
2.177300 2.467000
2.206500 2.452500
2.235600 2.436600
2.264700 2.487600
2.293800 2.510000
2.322900 2.505700
2.352100 2.484800
2.381200 2.468800
2.410300 2.462700
2.439400 2.455600
2.468500 2.447900
2.497700 2.282600
2.526800 2.098600
2.555900 1.898500
2.585000 1.737800
2.614100 1.601300
2.643300 1.489000
2.672400 1.383500
2.701500 1.374900
2.730600 1.326800
2.759700 0.791600
2.788900 0.578500
2.818000 0.470800
2.847100 0.457100
2.876200 0.460200
2.905300 0.465400
2.934500 0.472800
2.963600 0.482500
2.992700 0.494300
3.021800 0.508400
3.050900 0.524700
3.080100 0.545000
3.109200 0.569600
3.138300 0.598400
3.167400 0.632800
3.196500 0.668200
3.225700 0.667300
3.254800 0.666500
3.283900 0.663600
3.313000 0.657600
3.342200 0.648500
3.371300 0.644200
3.400400 0.650900
3.429500 0.668600
3.458600 0.699200
3.487800 0.779800
3.516900 0.925300
3.546000 1.113100
3.575100 1.324300
3.604200 1.557900
3.633400 1.248100
3.662500 0.942600
3.691600 0.828900
3.720700 0.610200
3.749800 0.626100
3.779000 0.650000
3.808100 0.674100
3.837200 0.698400
3.866300 0.722800
3.895400 0.747300
3.924600 0.776200
3.953700 0.938800
3.982800 1.293800
4.011900 1.809000
4.041000 2.531500
4.070200 3.538800
4.099300 4.414000
4.128400 8.122000
4.157500 5.167100
4.186600 4.135500
4.215800 4.170700
4.244900 4.192900
4.274000 4.183800
4.303100 4.014100
4.332200 4.179600
4.361400 4.031900
4.390500 3.987600
4.419600 4.370300
4.448700 4.412000
4.477800 4.262200
4.507000 2.839200
4.536100 1.614200
4.565200 1.018200
4.594300 0.947100
4.623400 0.872700
4.652600 0.513600
4.681700 0.471800
4.710800 0.469900
4.739900 0.468100
4.769100 0.466300
4.798200 0.464600
4.827300 0.463100
4.856400 0.462100
4.885500 0.464800
4.914700 0.471800
4.943800 0.483100
4.972900 0.498200
5.002000 0.517000
5.031100 0.539500
5.060300 0.565500
5.089400 0.595200
5.118500 0.628500
5.147600 0.672800
5.176700 0.953600
5.205900 1.074400
5.235000 1.122300
5.264100 1.168100
5.293200 1.209100
5.322300 1.240200
5.351500 1.261300
5.380600 1.272400
5.409700 1.273500
5.438800 1.264600
5.467900 1.245800
5.497100 1.216900
5.526200 1.331800
5.555300 1.243100
5.584400 1.152000
5.613500 0.682800
5.642700 0.676300
5.671800 1.633100
5.700900 3.639100
5.730000 7.874800
5.759100 4.059300
5.788300 3.690000
5.817400 3.441600
5.846500 3.399900
5.875600 3.619200
5.904700 4.165600
5.933900 4.454400
5.963000 5.810200
5.992100 6.164600
6.021200 5.032500
6.050300 4.905400
6.079500 4.250800
6.108600 3.921800
6.137700 3.731300
6.166800 3.598100
6.196000 3.450100
6.225100 3.286500
6.254200 3.127900
6.283300 2.970300
6.312400 4.489700
6.341600 6.950700
6.370700 8.449800
6.399800 7.733900
6.428900 6.756000
6.458000 5.967000
6.487200 5.689900
6.516300 5.561500
6.545400 5.393900
6.574500 5.285200
6.603600 5.255800
6.632800 5.627400
6.661900 6.190700
6.691000 6.833300
6.720100 7.179300
6.749200 7.321100
6.778400 6.846600
6.807500 5.919300
6.836600 5.687000
6.865700 5.601800
6.894800 5.584700
6.924000 5.406100
6.953100 5.096000
6.982200 4.781100
7.011300 4.505300
7.040400 4.284000
7.069600 4.982200
7.098700 6.042800
7.127800 6.759400
7.156900 7.429600
7.186000 7.137000
7.215200 6.655600
7.244300 6.873800
7.273400 6.530200
7.302500 5.021400
7.331600 3.910900
7.360800 4.285300
7.389900 2.349100
7.419000 2.041200
7.448100 2.020300
7.477200 2.012700
7.506400 2.003600
7.535500 2.013500
7.564600 2.021200
7.593700 2.029600
7.622900 2.038600
7.652000 2.050500
7.681100 2.073500
7.710200 2.061400
7.739300 2.046400
7.768500 2.028400
7.797600 2.001700
7.826700 1.976700
7.855800 2.396400
7.884900 2.733100
7.914100 2.679500
7.943200 2.753200
7.972300 2.799200
8.001400 2.847800
8.030500 2.876500
8.059700 2.619400
8.088800 2.380700
8.117900 2.149400
8.147000 1.971300
8.176100 1.855900
8.205300 1.713500
8.234400 1.618000
8.263500 1.603800
8.292600 1.631900
8.321700 1.547200
8.350900 1.516300
8.380000 1.496800
8.409100 1.486400
8.438200 1.471200
8.467300 1.450700
8.496500 1.424800
8.525600 1.400700
8.554700 1.391800
8.583800 1.412700
8.612900 1.471500
8.642100 1.538000
8.671200 1.623900
8.700300 1.818500
8.729400 1.825300
8.758500 1.831300
8.787700 1.836400
8.816800 1.840700
8.845900 1.915000
8.875000 1.926500
8.904100 1.935600
8.933300 1.932100
8.962400 1.864600
8.991500 1.821600
9.020600 1.680600
9.049800 1.528300
9.078900 1.364800
9.108000 1.110300
9.137100 1.117600
9.166200 1.128000
9.195400 0.714100
9.224500 0.372800
9.253600 0.000000
9.282700 0.000000
9.311800 0.000000
9.341000 0.000000
9.370100 0.000000
9.399200 0.000000
9.428300 0.000000
9.457400 0.000000
9.486600 0.000000
9.515700 0.000000
9.544800 0.000000
9.573900 0.000000
9.603000 0.000000
9.632200 0.000000
9.661300 0.000000
9.690400 0.000000
9.719500 0.000000
9.748600 0.000000
9.777800 0.000000
9.806900 0.000000
9.836000 0.000000
9.865100 0.000000
9.894200 0.000000
9.923400 0.000000
9.952500 0.000000
9.981600 0.000000
10.010700 0.000000
10.039800 0.000000
10.069000 0.000000
10.098100 0.000000
10.127200 0.000000
10.156300 0.000000
10.185400 0.000000
10.214600 0.000000
10.243700 0.000000
10.272800 0.000000
10.301900 0.000000
10.331000 0.000000
10.360200 0.000000
10.389300 0.000000
10.418400 0.000000
10.447500 0.000000
10.476700 0.000000
10.505800 0.000000
10.534900 0.000000
10.564000 0.000000
10.593100 0.000000
10.622300 0.000000
10.651400 0.000000
10.680500 0.000000
10.709600 0.000000
10.738700 0.000000
10.767900 0.000000
10.797000 0.000000
10.826100 0.000000
10.855200 0.000000
10.884300 0.000000
10.913500 0.000000
10.942600 0.000000
10.971700 0.000000
11.000800 0.000000
11.029900 0.000000
11.059100 0.000000
11.088200 0.000000
11.117300 0.000000
11.146400 0.000000
11.175500 0.000000
11.204700 0.000000
11.233800 0.000000
11.262900 0.000000
11.292000 0.000000
11.321100 0.000000
11.350300 0.000000
11.379400 0.000000
11.408500 0.000000
11.437600 0.000000
11.466700 0.000000
11.495900 0.000000
11.525000 0.000000
11.554100 0.000000
11.583200 0.000000
11.612300 0.000000
11.641500 0.000000
11.670600 0.000000
11.699700 0.000000
11.728800 0.000000
11.757900 0.000000
11.787100 0.000000
11.816200 0.000000
11.845300 0.000000
11.874400 0.000000
11.903600 0.000000
11.932700 0.000000
11.961800 0.000000
11.990900 0.000000
12.020000 0.000000
12.049200 0.000000
12.078300 0.000000
12.107400 0.000000
12.136500 0.000000
12.165600 0.000000
12.194800 0.000000
12.223900 0.000000
12.253000 0.000000
12.282100 0.000000
12.311200 0.000000
12.340400 0.000000
12.369500 0.000000
12.398600 0.000000
12.427700 0.000000
12.456800 0.000000
12.486000 0.000000
12.515100 0.000000
12.544200 0.000000
12.573300 0.000000
12.602400 0.549400
12.631600 1.052000
12.660700 1.229100
12.689800 1.405100
12.718900 1.588100
12.748000 1.511800
12.777200 1.619300
12.806300 1.815900
12.835400 1.969700
12.864500 2.062900
12.893600 2.247000
12.922800 2.706200
12.951900 3.468900
12.981000 4.185400
13.010100 4.590500
13.039200 5.026800
13.068400 5.336600
13.097500 5.330500
13.126600 5.422100
13.155700 5.567200
13.184800 6.222000
13.214000 7.830300
13.243100 7.521700
13.272200 5.281200
13.301300 4.955500
13.330500 3.352700
13.359600 3.196400
13.388700 2.840600
13.417800 2.855100
13.446900 2.863000
13.476100 2.887500
13.505200 2.993800
13.534300 3.159200
13.563400 3.501600
13.592500 3.686800
13.621700 3.962700
13.650800 4.473500
13.679900 4.398300
13.709000 4.201300
13.738100 4.082100
13.767300 4.025900
13.796400 4.009600
13.825500 4.012900
13.854600 4.028500
13.883700 4.065800
13.912900 4.053200
13.942000 4.115200
13.971100 4.167000
14.000200 4.117000
14.029300 3.995100
14.058500 4.053100
14.087600 4.299100
14.116700 4.314600
14.145800 4.327000
14.174900 4.435900
14.204100 4.563600
14.233200 4.645300
14.262300 4.456500
14.291400 4.465600
14.320500 4.508900
14.349700 4.574000
14.378800 4.734300
14.407900 5.061800
14.437000 5.053700
14.466100 5.054100
14.495300 5.584300
14.524400 5.552300
14.553500 5.691300
14.582600 6.738000
14.611700 5.450200
14.640900 4.949700
14.670000 4.920800
14.699100 4.878700
14.728200 4.813000
14.757400 4.233800
14.786500 4.018200
14.815600 3.813400
14.844700 3.710700
14.873800 3.568100
14.903000 3.618900
14.932100 3.675500
14.961200 3.750800
14.990300 3.952100
15.019400 3.978900
15.048600 3.896700
15.077700 3.880700
15.106800 3.921600
15.135900 3.990800
15.165000 3.984800
15.194200 4.370100
15.223300 4.797400
15.252400 4.437300
15.281500 4.369300
15.310600 4.289400
15.339800 4.293500
15.368900 4.183200
15.398000 3.977500
15.427100 3.957700
15.456200 3.771700
15.485400 3.665900
15.514500 3.692900
15.543600 3.743300
15.572700 3.846200
15.601800 3.511800
15.631000 3.890000
15.660100 4.530900
15.689200 5.247100
15.718300 5.192800
15.747400 5.255700
15.776600 5.399300
15.805700 5.288900
15.834800 5.030400
15.863900 4.554600
15.893000 3.844000
15.922200 3.018100
15.951300 3.124600
15.980400 3.265400
16.009500 3.483700
16.038600 3.715400
16.067800 3.924300
16.096900 4.116100
16.126000 4.298400
16.155100 4.549100
16.184300 4.706700
16.213400 4.880700
16.242500 5.339700
16.271600 6.388400
16.300700 5.871600
16.329900 7.105500
16.359000 6.406500
16.388100 7.393800
16.417200 5.244800
16.446300 4.977100
16.475500 4.876800
16.504600 4.863200
16.533700 4.852100
16.562800 5.353500
16.591900 6.338300
16.621100 5.922200
16.650200 5.500200
16.679300 5.114900
16.708400 4.553600
16.737500 3.975000
16.766700 4.540800
16.795800 5.999200
16.824900 8.216200
16.854000 7.773900
16.883100 7.151000
16.912300 5.931100
16.941400 5.253400
16.970500 4.997500
16.999600 5.853600
17.028700 5.826100
17.057900 5.578100
17.087000 5.216900
17.116100 5.089700
17.145200 5.180600
17.174300 5.192300
17.203500 6.695400
17.232600 5.247900
17.261700 4.235100
17.290800 4.104400
17.319900 4.302500
17.349100 4.474600
17.378200 4.823800
17.407300 5.845700
17.436400 6.156600
17.465600 6.064800
17.494700 5.631000
17.523800 5.506200
17.552900 5.435700
17.582000 5.389000
17.611200 5.557300
17.640300 5.757200
17.669400 5.906600
17.698500 6.067200
17.727600 6.182600
17.756800 6.295900
17.785900 5.773400
17.815000 5.550300
17.844100 5.524800
17.873200 5.082300
17.902400 4.813100
17.931500 4.747400
17.960600 4.639100
17.989700 4.929700
18.018800 5.361500
18.048000 5.767500
18.077100 6.399700
18.106200 6.560100
18.135300 6.811200
18.164400 6.663400
18.193600 5.743900
18.222700 5.926100
18.251800 5.919300
18.280900 5.621900
18.310000 4.534100
18.339200 3.554000
18.368300 3.906700
18.397400 4.070400
18.426500 3.988100
18.455600 3.962900
18.484800 4.028800
18.513900 4.198700
18.543000 4.233600
18.572100 4.011300
18.601200 4.000500
18.630400 4.040000
18.659500 4.483200
18.688600 4.565900
18.717700 4.476000
18.746800 4.448400
18.776000 4.069700
18.805100 3.851500
18.834200 4.221700
18.863300 4.435400
18.892500 4.625600
18.921600 4.838500
18.950700 4.810100
18.979800 4.835800
19.008900 4.868400
19.038100 4.906200
19.067200 4.665500
19.096300 4.617800
19.125400 5.226200
19.154500 5.975700
19.183700 7.122000
19.212800 7.189000
19.241900 6.365400
19.271000 5.108600
19.300100 3.993100
19.329300 3.829300
19.358400 3.708300
19.387500 3.236500
19.416600 2.773000
19.445700 2.818700
19.474900 3.745600
19.504000 4.165000
19.533100 4.344500
19.562200 4.155000
19.591300 3.211700
19.620500 2.749500
19.649600 2.608400
19.678700 2.640200
19.707800 3.048700
19.736900 3.594300
19.766100 4.291800
19.795200 4.485400
19.824300 4.639200
19.853400 3.682600
19.882500 3.996100
19.911700 4.448400
19.940800 7.277900
19.969900 5.557900
19.999000 5.430900
20.028100 5.372900
20.057300 5.183400
20.086400 4.841800
20.115500 4.811100
20.144600 4.803800
20.173700 4.822000
20.202900 4.984100
20.232000 5.145200
20.261100 5.261400
20.290200 5.370300
20.319400 5.661200
20.348500 6.417200
20.377600 6.980500
20.406700 7.147900
20.435800 6.510700
20.465000 6.450100
20.494100 6.296300
20.523200 5.926300
20.552300 4.937400
20.581400 4.516500
20.610600 4.399400
20.639700 4.241200
20.668800 3.879700
20.697900 3.908000
20.727000 3.966000
20.756200 4.042100
20.785300 4.126600
20.814400 4.206300
20.843500 4.277500
20.872600 4.397700
20.901800 4.680800
20.930900 5.011800
20.960000 5.128700
20.989100 6.058300
21.018200 5.709600
21.047400 4.911200
21.076500 4.663000
21.105600 4.709200
21.134700 4.850900
21.163800 4.849100
21.193000 4.684800
21.222100 4.425800
21.251200 4.207000
21.280300 4.157300
21.309400 4.045600
21.338600 3.939100
21.367700 3.849400
21.396800 3.617100
21.425900 3.538500
21.455000 3.432100
21.484200 3.189000
21.513300 3.039000
21.542400 2.955100
21.571500 2.955500
21.600600 2.985600
21.629800 3.213300
21.658900 3.352900
21.688000 3.497100
21.717100 3.627200
21.746300 3.793100
21.775400 3.979000
21.804500 4.220300
21.833600 4.560500
21.862700 5.232000
21.891900 5.150200
21.921000 5.439500
21.950100 5.568800
21.979200 4.752400
22.008300 3.219300
22.037500 3.574000
22.066600 4.924500
22.095700 3.538900
22.124800 3.401800
22.153900 3.297000
22.183100 3.245700
22.212200 3.219300
22.241300 3.296200
22.270400 3.424300
22.299500 3.649600
22.328700 3.995000
22.357800 4.332000
22.386900 5.353200
22.416000 6.571500
22.445100 5.714000
22.474300 5.565000
22.503400 5.435900
22.532500 5.327400
22.561600 5.967300
22.590700 5.093600
22.619900 4.856100
22.649000 4.974500
22.678100 5.071500
22.707200 4.855800
22.736300 4.535300
22.765500 3.826000
22.794600 3.094500
22.823700 4.078100
22.852800 5.030200
22.881900 5.382100
22.911100 5.441400
22.940200 5.640300
22.969300 5.817400
22.998400 6.136500
23.027500 6.266300
23.056700 6.417400
23.085800 6.618800
23.114900 6.794200
23.144000 6.921900
23.173200 6.699500
23.202300 5.704400
23.231400 4.477900
23.260500 3.634800
23.289600 2.076600
23.318800 1.490600
23.347900 1.572900
23.377000 1.658100
23.406100 1.938300
23.435200 2.177900
23.464400 2.329900
23.493500 2.394400
23.522600 2.559600
23.551700 2.416400
23.580800 2.293900
23.610000 2.255900
23.639100 2.338300
23.668200 2.420600
23.697300 2.962600
23.726400 3.389300
23.755600 3.517100
23.784700 3.804500
23.813800 4.046000
23.842900 4.492400
23.872000 6.646700
23.901200 7.613600
23.930300 7.306000
23.959400 5.705600
23.988500 5.573400
24.017600 5.450600
24.046800 5.278300
24.075900 4.579100
24.105000 4.130800
24.134100 4.447400
24.163200 4.493800
24.192400 4.366700
24.221500 3.791900
24.250600 3.228700
24.279700 2.724000
24.308800 2.910700
24.338000 4.343300
24.367100 5.843300
24.396200 5.135800
24.425300 5.073900
24.454400 5.199300
24.483600 5.602800
24.512700 6.427500
24.541800 6.032200
24.570900 4.927500
24.600100 3.245000
24.629200 2.827500
24.658300 2.796900
24.687400 2.679700
24.716500 2.584400
24.745700 2.638800
24.774800 2.635300
24.803900 2.604500
24.833000 2.701700
24.862100 2.629900
24.891300 2.588400
24.920400 2.577900
24.949500 2.598500
24.978600 2.844400
25.007700 3.299100
25.036900 4.447100
25.066000 6.716100
25.095100 7.152300
25.124200 6.322900
25.153300 6.695100
25.182500 6.359700
25.211600 6.588300
25.240700 6.729300
25.269800 6.950400
25.298900 6.869900
25.328100 6.185800
25.357200 5.611800
25.386300 5.398200
25.415400 5.057900
25.444500 5.502700
25.473700 5.850000
25.502800 6.225600
25.531900 6.945900
25.561000 7.193700
25.590100 6.500500
25.619300 5.196500
25.648400 5.763100
25.677500 5.593700
25.706600 5.305200
25.735700 4.541500
25.764900 4.056300
25.794000 3.868500
25.823100 4.074600
25.852200 4.652400
25.881300 4.388700
25.910500 3.160800
25.939600 2.675800
25.968700 2.466900
25.997800 3.143000
26.027000 1.951500
26.056100 1.671100
26.085200 1.446900
26.114300 1.296300
26.143400 1.270900
26.172600 1.201600
26.201700 1.186200
26.230800 1.159500
26.259900 1.140500
26.289000 1.123300
26.318200 1.106200
26.347300 1.419200
26.376400 2.029500
26.405500 2.745800
26.434600 3.235300
26.463800 3.642900
26.492900 4.086100
26.522000 4.604200
26.551100 5.178500
26.580200 5.909400
26.609400 8.226300
26.638500 4.043800
26.667600 2.896100
26.696700 2.993000
26.725800 3.087300
26.755000 3.164100
26.784100 3.213500
26.813200 3.235700
26.842300 4.913100
26.871400 3.921800
26.900600 2.755200
26.929700 1.705900
26.958800 1.337300
26.987900 1.277200
27.017000 1.525500
27.046200 2.107200
27.075300 3.917600
27.104400 4.962500
27.133500 5.105800
27.162600 5.456000
27.191800 4.975800
27.220900 4.496000
27.250000 4.566400
27.279100 6.506200
27.308200 6.439100
27.337400 5.909800
27.366500 5.536600
27.395600 5.022100
27.424700 4.616700
27.453900 4.237000
27.483000 3.985000
27.512100 3.771700
27.541200 3.625000
27.570300 3.617900
27.599500 3.674700
27.628600 3.733300
27.657700 3.910100
27.686800 4.496800
27.715900 4.232900
27.745100 4.089600
27.774200 3.556200
27.803300 3.346200
27.832400 3.186900
27.861500 3.078600
27.890700 3.031200
27.919800 3.071400
27.948900 3.142800
27.978000 3.245500
28.007100 3.424300
28.036300 3.720000
28.065400 4.038100
28.094500 4.401900
28.123600 4.788000
28.152700 5.236500
28.181900 6.467200
28.211000 5.599500
28.240100 4.989600
28.269200 4.606600
28.298300 3.179800
28.327500 2.980100
28.356600 2.794200
28.385700 2.622100
28.414800 2.573800
28.443900 1.947100
28.473100 1.929300
28.502200 1.907900
28.531300 1.861500
28.560400 1.794100
28.589500 1.715200
28.618700 1.629300
28.647800 1.606000
28.676900 1.585400
28.706000 1.569700
28.735100 1.587900
28.764300 1.611200
28.793400 1.610400
28.822500 1.626600
28.851600 1.661000
28.880800 1.714800
28.909900 1.789400
28.939000 1.884600
28.968100 2.000600
28.997200 2.052700
29.026400 2.668700
29.055500 2.711600
29.084600 2.733200
29.113700 2.733300
29.142800 2.538400
29.172000 2.505900
29.201100 2.764200
29.230200 3.074400
29.259300 3.337200
29.288400 3.429300
29.317600 3.386600
29.346700 3.299400
29.375800 3.174700
29.404900 3.019900
29.434000 2.937600
29.463200 2.849500
29.492300 2.818700
29.521400 3.015900
29.550500 3.111900
29.579600 3.112000
29.608800 3.102400
29.637900 3.107800
29.667000 3.139300
29.696100 3.170000
29.725200 3.757200
29.754400 4.281100
29.783500 4.050100
29.812600 3.930300
29.841700 3.886600
29.870800 3.905600
29.900000 3.925300
29.929100 3.930900
29.958200 3.932500
29.987300 3.938100
30.016400 3.411700
30.045600 3.163700
30.074700 3.023100
30.103800 2.890100
30.132900 2.754600
30.162000 3.995100
30.191200 3.668100
30.220300 3.680300
30.249400 3.823800
30.278500 3.819600
30.307700 3.905500
30.336800 4.020300
30.365900 4.076500
30.395000 4.022200
30.424100 3.864500
30.453300 3.802100
30.482400 4.055800
30.511500 3.838300
30.540600 3.561600
30.569700 3.523000
30.598900 3.477200
30.628000 3.424400
30.657100 3.364500
30.686200 3.321200
30.715300 3.240400
30.744500 3.172200
30.773600 3.106800
30.802700 2.994400
30.831800 3.075600
30.860900 3.305400
30.890100 3.387500
30.919200 3.464400
30.948300 3.536700
30.977400 3.615300
31.006500 3.699500
31.035700 3.929600
31.064800 3.690200
31.093900 3.156000
31.123000 2.779100
31.152100 2.427000
31.181300 2.116400
31.210400 1.811000
31.239500 1.778900
31.268600 1.789900
31.297700 1.797800
31.326900 1.802300
31.356000 1.856500
31.385100 1.942800
31.414200 2.294000
31.443300 3.565900
31.472500 4.101700
31.501600 3.837400
31.530700 3.830700
31.559800 3.931300
31.588900 4.083000
31.618100 3.961400
31.647200 3.838800
31.676300 3.733300
31.705400 3.646300
31.734600 3.678000
31.763700 3.854200
31.792800 4.041700
31.821900 4.138800
31.851000 4.199600
31.880200 4.438900
31.909300 4.943200
31.938400 5.954400
31.967500 4.781300
31.996600 3.225600
32.025800 2.951700
32.054900 2.719200
32.084000 2.527300
32.113100 2.373700
32.142200 2.240100
32.171400 2.122200
32.200500 2.020000
32.229600 1.933300
32.258700 2.022400
32.287800 1.932800
32.317000 1.883600
32.346100 1.656700
32.375200 1.716600
32.404300 1.764700
32.433400 1.814400
32.462600 1.910800
32.491700 1.956400
32.520800 1.976800
32.549900 2.004100
32.579000 2.039100
32.608200 2.081900
32.637300 2.279800
32.666400 2.603000
32.695500 3.030900
32.724600 3.508300
32.753800 3.825700
32.782900 3.873800
32.812000 3.892200
32.841100 3.797900
32.870200 3.426300
32.899400 3.151000
32.928500 2.976900
32.957600 2.934500
32.986700 3.010400
33.015800 3.277100
33.045000 3.461000
33.074100 4.081200
33.103200 4.641700
33.132300 5.252400
33.161500 5.093800
33.190600 5.419500
33.219700 5.385500
33.248800 6.485900
33.277900 3.904400
33.307100 3.181700
33.336200 3.048600
33.365300 2.952100
33.394400 2.895600
33.423500 2.879000
33.452700 2.902700
33.481800 2.967100
33.510900 3.072300
33.540000 3.218300
33.569100 4.392000
33.598300 5.715200
33.627400 5.294400
33.656500 5.618200
33.685600 6.818600
33.714700 6.466600
33.743900 6.398300
33.773000 6.187300
33.802100 5.662400
33.831200 5.396100
33.860300 5.171600
33.889500 4.948800
33.918600 4.699200
33.947700 4.452100
33.976800 4.210700
34.005900 3.957100
34.035100 3.697700
34.064200 3.470000
34.093300 3.937100
34.122400 5.313300
34.151500 5.218600
34.180700 5.848400
34.209800 6.658600
34.238900 6.029700
34.268000 5.096800
34.297100 5.829500
34.326300 4.579000
34.355400 4.409400
34.384500 4.251500
34.413600 4.217400
34.442700 4.785200
34.471900 5.064400
34.501000 5.162600
34.530100 5.518400
34.559200 5.415600
34.588400 4.946600
34.617500 4.489400
34.646600 4.239400
34.675700 3.891100
34.704800 3.643500
34.734000 3.503700
34.763100 3.498800
34.792200 3.203100
34.821300 2.922000
34.850400 2.366000
34.879600 2.279500
34.908700 2.194500
34.937800 2.111200
34.966900 2.029800
34.996000 1.950200
35.025200 1.914700
35.054300 1.889200
35.083400 1.854600
35.112500 1.799700
35.141600 1.741800
35.170800 1.708900
35.199900 1.673000
35.229000 1.631800
35.258100 1.585400
35.287200 1.533700
35.316400 1.473600
35.345500 2.244900
35.374600 2.339600
35.403700 2.422600
35.432800 2.179700
35.462000 2.075700
35.491100 1.980600
35.520200 1.896300
35.549300 1.823800
35.578400 1.759400
35.607600 1.731300
35.636700 2.396800
35.665800 2.373400
35.694900 1.971100
35.724000 1.618100
35.753200 1.217100
35.782300 1.280900
35.811400 1.349000
35.840500 1.414800
35.869600 1.478000
35.898800 1.538800
35.927900 1.606800
35.957000 1.695300
35.986100 1.804400
36.015300 1.996700
36.044400 2.117900
36.073500 2.268200
36.102600 2.411400
36.131700 2.538500
36.160900 2.662600
36.190000 2.780900
36.219100 3.137200
36.248200 3.313900
36.277300 2.130600
36.306500 1.877400
36.335600 1.595200
36.364700 1.283800
36.393800 1.186700
36.422900 1.146900
36.452100 1.106600
36.481200 1.065800
36.510300 1.024500
36.539400 0.983000
36.568500 0.949200
36.597700 0.937700
36.626800 0.968700
36.655900 1.030500
36.685000 1.064600
36.714100 1.165600
36.743300 1.270400
36.772400 2.112900
36.801500 2.402300
36.830600 2.655200
36.859700 2.117400
36.888900 1.437800
36.918000 0.880500
36.947100 0.766400
36.976200 0.659800
37.005300 0.560900
37.034500 0.469700
37.063600 0.386100
37.092700 0.310200
37.121800 0.241900
37.150900 0.181200
37.180100 0.128200
37.209200 0.007700
37.238300 0.000000
37.267400 0.000000
37.296500 0.000000
37.325700 0.000000
37.354800 0.000000
37.383900 0.000000
37.413000 0.000000
37.442200 0.000000
37.471300 0.000000
37.500400 0.000000
37.529500 0.000000
37.558600 0.000000
37.587800 0.000000
37.616900 0.000000
37.646000 0.000000
37.675100 0.000000
37.704200 0.000000
37.733400 0.000000
37.762500 0.000000
37.791600 0.000000
37.820700 0.000000
37.849800 0.000000
37.879000 0.000000
37.908100 0.000000
37.937200 0.000000
37.966300 0.000000
37.995400 0.000000
38.024600 0.000000
38.053700 0.000000
38.082800 0.000000
38.111900 0.000000
38.141000 0.000000
38.170200 0.000000
38.199300 0.000000
38.228400 0.000000
38.257500 0.000000
38.286600 0.000000
38.315800 0.000000
38.344900 0.000000
38.374000 0.000000
38.403100 0.000000
38.432200 0.000000
38.461400 0.000000
38.490500 0.000000
38.519600 0.000000
38.548700 0.000000
38.577800 0.000000
38.607000 0.000000
38.636100 0.000000
38.665200 0.000000
38.694300 0.000000
38.723400 0.000000
38.752600 0.000000
38.781700 0.000000
38.810800 0.000000
38.839900 0.000000
38.869100 0.000000
38.898200 0.000000
38.927300 0.000000
38.956400 0.000000
38.985500 0.000000
39.014700 0.000000
39.043800 0.000000
39.072900 0.000000
39.102000 0.000000
39.131100 0.000000
39.160300 0.000000
39.189400 0.000000
39.218500 0.000000
39.247600 0.000000
39.276700 0.000000
39.305900 0.000000
39.335000 0.000000
39.364100 0.000000
39.393200 0.000000
39.422300 0.000000
39.451500 0.000000
39.480600 0.000000
39.509700 0.000000
39.538800 0.000000
39.567900 0.000000
39.597100 0.000000
39.626200 0.000000
39.655300 0.000000
39.684400 0.000000
39.713500 0.000000
39.742700 0.000000
39.771800 0.000000
39.800900 0.000000
39.830000 0.000000
39.859100 0.000000
e
