set title 'mp-21296 - Density of States'
set xlabel 'Energy (eV)'
set ylabel 'DOS (states/eV)'
set grid
set xrange [-10:10]
set yrange [0:453.041]
set xzeroaxis lt -1
set terminal png size 800,600
set output 'mp-21296_dos_gnuplot.png'
plot '-' using 1:2 with lines title 'DOS'
-12.079700 0.000000
-12.060400 0.000000
-12.041100 0.000000
-12.021800 0.000000
-12.002500 0.000000
-11.983200 0.000000
-11.963800 0.000000
-11.944500 0.000000
-11.925200 0.000000
-11.905900 0.000000
-11.886600 0.000000
-11.867200 0.000000
-11.847900 0.000000
-11.828600 0.000000
-11.809300 0.000000
-11.790000 0.000000
-11.770600 0.000000
-11.751300 0.000000
-11.732000 0.000000
-11.712700 0.000000
-11.693400 0.000000
-11.674000 0.000000
-11.654700 0.000000
-11.635400 0.000000
-11.616100 0.000000
-11.596800 0.000000
-11.577500 0.000000
-11.558100 0.000000
-11.538800 0.000000
-11.519500 0.000000
-11.500200 0.000000
-11.480900 0.000000
-11.461500 0.000000
-11.442200 0.000000
-11.422900 0.000000
-11.403600 0.000000
-11.384300 0.000000
-11.364900 0.000000
-11.345600 0.000000
-11.326300 0.000000
-11.307000 0.000000
-11.287700 0.000000
-11.268400 0.000000
-11.249000 0.000000
-11.229700 0.000000
-11.210400 0.000000
-11.191100 0.000000
-11.171800 0.000000
-11.152400 0.000000
-11.133100 0.000000
-11.113800 0.000000
-11.094500 0.000000
-11.075200 0.000000
-11.055800 0.000000
-11.036500 0.000000
-11.017200 0.000000
-10.997900 0.000000
-10.978600 0.000000
-10.959200 0.000000
-10.939900 0.000000
-10.920600 0.000000
-10.901300 0.000000
-10.882000 0.000000
-10.862700 0.000000
-10.843300 0.000000
-10.824000 0.000000
-10.804700 0.000000
-10.785400 0.000000
-10.766100 0.000000
-10.746700 0.000000
-10.727400 0.000000
-10.708100 0.000000
-10.688800 0.000000
-10.669500 0.000000
-10.650100 0.000000
-10.630800 0.000000
-10.611500 0.000000
-10.592200 0.000000
-10.572900 0.000000
-10.553600 0.000000
-10.534200 0.000000
-10.514900 0.000000
-10.495600 0.000000
-10.476300 0.000000
-10.457000 0.000000
-10.437600 0.000000
-10.418300 0.000000
-10.399000 0.000000
-10.379700 0.000000
-10.360400 0.000000
-10.341000 0.000000
-10.321700 50.249900
-10.302400 255.670100
-10.283100 125.918100
-10.263800 218.561600
-10.244400 148.532400
-10.225100 223.092000
-10.205800 208.269000
-10.186500 309.585700
-10.167200 235.427900
-10.147900 135.174800
-10.128500 121.994600
-10.109200 212.094400
-10.089900 370.294500
-10.070600 311.011600
-10.051300 186.813800
-10.031900 186.104900
-10.012600 219.893400
-9.993300 298.049700
-9.974000 411.855200
-9.954700 0.000000
-9.935300 0.000000
-9.916000 0.000000
-9.896700 0.000000
-9.877400 0.000000
-9.858100 0.000000
-9.838800 0.000000
-9.819400 0.000000
-9.800100 0.000000
-9.780800 0.000000
-9.761500 0.000000
-9.742200 0.000000
-9.722800 0.000000
-9.703500 0.000000
-9.684200 0.000000
-9.664900 0.000000
-9.645600 0.000000
-9.626200 0.000000
-9.606900 0.000000
-9.587600 0.000000
-9.568300 0.000000
-9.549000 0.000000
-9.529700 0.000000
-9.510300 0.000000
-9.491000 0.000000
-9.471700 0.000000
-9.452400 0.000000
-9.433100 0.000000
-9.413700 0.000000
-9.394400 0.000000
-9.375100 0.000000
-9.355800 0.000000
-9.336500 0.000000
-9.317100 0.000000
-9.297800 0.000000
-9.278500 0.000000
-9.259200 0.000000
-9.239900 0.000000
-9.220500 0.000000
-9.201200 0.000000
-9.181900 0.000000
-9.162600 0.000000
-9.143300 0.000000
-9.124000 0.000000
-9.104600 0.000000
-9.085300 0.000000
-9.066000 0.000000
-9.046700 0.000000
-9.027400 0.000000
-9.008000 0.000000
-8.988700 0.000000
-8.969400 0.000000
-8.950100 0.000000
-8.930800 0.000000
-8.911400 0.000000
-8.892100 0.000000
-8.872800 0.000000
-8.853500 0.000000
-8.834200 0.000000
-8.814900 0.000000
-8.795500 0.000000
-8.776200 0.000000
-8.756900 0.000000
-8.737600 0.000000
-8.718300 0.000000
-8.698900 0.000000
-8.679600 0.000000
-8.660300 0.000000
-8.641000 0.000000
-8.621700 0.000000
-8.602300 0.000000
-8.583000 0.000000
-8.563700 0.000000
-8.544400 0.000000
-8.525100 0.000000
-8.505700 0.000000
-8.486400 0.000000
-8.467100 0.000000
-8.447800 0.000000
-8.428500 0.000000
-8.409200 0.000000
-8.389800 0.000000
-8.370500 0.000000
-8.351200 0.000000
-8.331900 0.000000
-8.312600 0.000000
-8.293200 0.000000
-8.273900 0.000000
-8.254600 0.000000
-8.235300 0.000000
-8.216000 0.000000
-8.196600 0.000000
-8.177300 0.000000
-8.158000 0.000000
-8.138700 0.000000
-8.119400 0.000000
-8.100100 0.000000
-8.080700 0.000000
-8.061400 0.000000
-8.042100 0.000000
-8.022800 0.000000
-8.003500 0.000000
-7.984100 0.000000
-7.964800 0.000000
-7.945500 0.000000
-7.926200 0.000000
-7.906900 0.000000
-7.887500 0.000000
-7.868200 0.000000
-7.848900 0.000000
-7.829600 0.000000
-7.810300 0.000000
-7.790900 0.000000
-7.771600 0.000000
-7.752300 0.000000
-7.733000 0.000000
-7.713700 0.000000
-7.694400 0.000000
-7.675000 0.000000
-7.655700 0.000000
-7.636400 0.000000
-7.617100 0.000000
-7.597800 0.000000
-7.578400 0.000000
-7.559100 0.000000
-7.539800 0.000000
-7.520500 0.000000
-7.501200 0.000000
-7.481800 0.000000
-7.462500 0.000000
-7.443200 0.000000
-7.423900 0.000000
-7.404600 0.000000
-7.385300 0.000000
-7.365900 0.000000
-7.346600 0.000000
-7.327300 0.000000
-7.308000 0.000000
-7.288700 0.000000
-7.269300 0.000000
-7.250000 0.000000
-7.230700 0.000000
-7.211400 0.000000
-7.192100 0.000000
-7.172700 0.000000
-7.153400 0.000000
-7.134100 0.000000
-7.114800 0.000000
-7.095500 0.000000
-7.076100 0.000000
-7.056800 0.000000
-7.037500 0.000000
-7.018200 0.000000
-6.998900 0.000000
-6.979600 0.000000
-6.960200 0.000000
-6.940900 0.000000
-6.921600 0.000000
-6.902300 0.000000
-6.883000 0.000000
-6.863600 0.000000
-6.844300 0.000000
-6.825000 0.000000
-6.805700 0.000000
-6.786400 0.000000
-6.767000 0.000000
-6.747700 0.000000
-6.728400 0.000000
-6.709100 0.000000
-6.689800 0.000000
-6.670500 0.000000
-6.651100 0.000000
-6.631800 0.000000
-6.612500 0.000000
-6.593200 0.000000
-6.573900 0.000000
-6.554500 0.000000
-6.535200 0.000000
-6.515900 0.000000
-6.496600 0.000000
-6.477300 0.000000
-6.457900 0.000000
-6.438600 0.000000
-6.419300 0.000000
-6.400000 0.000000
-6.380700 0.000000
-6.361400 0.000000
-6.342000 0.000000
-6.322700 0.000000
-6.303400 0.000000
-6.284100 0.000000
-6.264800 0.000000
-6.245400 0.000000
-6.226100 0.000000
-6.206800 0.000000
-6.187500 0.000000
-6.168200 0.000000
-6.148800 0.000000
-6.129500 0.000000
-6.110200 0.000000
-6.090900 0.000000
-6.071600 0.000000
-6.052200 0.000000
-6.032900 0.000000
-6.013600 0.000000
-5.994300 0.000000
-5.975000 0.000000
-5.955700 0.000000
-5.936300 0.000000
-5.917000 0.000000
-5.897700 0.000000
-5.878400 0.000000
-5.859100 0.000000
-5.839700 0.000000
-5.820400 0.000000
-5.801100 0.000000
-5.781800 0.000000
-5.762500 0.000000
-5.743100 0.000000
-5.723800 0.000000
-5.704500 0.000000
-5.685200 0.000000
-5.665900 0.000000
-5.646600 0.000000
-5.627200 0.000000
-5.607900 0.000000
-5.588600 0.000000
-5.569300 0.000000
-5.550000 0.000000
-5.530600 0.000000
-5.511300 0.000000
-5.492000 0.000000
-5.472700 0.000000
-5.453400 0.000000
-5.434000 0.000000
-5.414700 0.000000
-5.395400 0.000000
-5.376100 0.000000
-5.356800 0.000000
-5.337400 0.000000
-5.318100 0.000000
-5.298800 0.000000
-5.279500 0.000000
-5.260200 0.000000
-5.240900 0.000000
-5.221500 0.000000
-5.202200 0.000000
-5.182900 0.000000
-5.163600 0.000000
-5.144300 0.000000
-5.124900 0.000000
-5.105600 0.000000
-5.086300 0.000000
-5.067000 0.000000
-5.047700 0.000000
-5.028300 0.000000
-5.009000 0.000000
-4.989700 0.000000
-4.970400 0.000000
-4.951100 0.000000
-4.931800 0.000000
-4.912400 0.000000
-4.893100 0.000000
-4.873800 0.000000
-4.854500 0.000000
-4.835200 0.000000
-4.815800 0.000000
-4.796500 0.000000
-4.777200 0.000000
-4.757900 0.000000
-4.738600 0.000000
-4.719200 0.000000
-4.699900 0.000000
-4.680600 0.000000
-4.661300 0.000000
-4.642000 0.000000
-4.622600 0.000000
-4.603300 0.000000
-4.584000 0.019100
-4.564700 0.088700
-4.545400 0.209000
-4.526100 0.370600
-4.506700 0.502200
-4.487400 0.583200
-4.468100 0.613600
-4.448800 0.623400
-4.429500 0.649100
-4.410100 0.691800
-4.390800 0.750000
-4.371500 0.812100
-4.352200 0.876200
-4.332900 0.937900
-4.313500 0.993600
-4.294200 1.032900
-4.274900 1.055700
-4.255600 1.068700
-4.236300 1.083700
-4.217000 1.107300
-4.197600 1.138000
-4.178300 1.172300
-4.159000 1.206400
-4.139700 1.240200
-4.120400 1.273800
-4.101000 1.307000
-4.081700 1.339900
-4.062400 1.373400
-4.043100 1.410000
-4.023800 1.451100
-4.004400 1.496900
-3.985100 1.545600
-3.965800 1.740500
-3.946500 1.955600
-3.927200 2.148400
-3.907800 2.199000
-3.888500 2.119200
-3.869200 2.047200
-3.849900 1.999900
-3.830600 2.023000
-3.811300 2.039000
-3.791900 2.040900
-3.772600 2.027900
-3.753300 1.999900
-3.734000 1.960700
-3.714700 1.905400
-3.695300 1.836600
-3.676000 1.775000
-3.656700 1.732100
-3.637400 1.703800
-3.618100 1.674000
-3.598700 1.642600
-3.579400 1.609700
-3.560100 1.575300
-3.540800 1.539300
-3.521500 1.504000
-3.502200 1.615200
-3.482800 1.813400
-3.463500 2.030300
-3.444200 2.118500
-3.424900 2.068400
-3.405600 2.013200
-3.386200 2.124500
-3.366900 2.114500
-3.347600 2.108200
-3.328300 2.015000
-3.309000 2.042200
-3.289600 2.071700
-3.270300 2.114300
-3.251000 2.199000
-3.231700 2.290400
-3.212400 2.373900
-3.193000 2.420800
-3.173700 2.406100
-3.154400 2.422100
-3.135100 2.443400
-3.115800 2.490200
-3.096500 2.680100
-3.077100 2.651500
-3.057800 2.625400
-3.038500 2.539900
-3.019200 2.600600
-2.999900 2.678600
-2.980500 2.769600
-2.961200 2.842600
-2.941900 2.894400
-2.922600 2.919400
-2.903300 2.936100
-2.883900 3.055700
-2.864600 3.142300
-2.845300 3.168600
-2.826000 3.105200
-2.806700 3.115100
-2.787400 3.141700
-2.768000 3.085900
-2.748700 3.015000
-2.729400 2.940100
-2.710100 3.005700
-2.690800 2.882600
-2.671400 3.031700
-2.652100 2.513400
-2.632800 2.365500
-2.613500 2.224200
-2.594200 2.067800
-2.574800 1.990800
-2.555500 1.941000
-2.536200 1.918300
-2.516900 1.922800
-2.497600 1.949300
-2.478300 1.979100
-2.458900 2.075500
-2.439600 2.453500
-2.420300 2.702400
-2.401000 2.916800
-2.381700 3.357500
-2.362300 3.806600
-2.343000 4.314400
-2.323700 4.644200
-2.304400 4.470400
-2.285100 4.435600
-2.265700 5.476600
-2.246400 5.102400
-2.227100 4.465300
-2.207800 4.374200
-2.188500 4.284400
-2.169100 4.394600
-2.149800 4.683700
-2.130500 4.933900
-2.111200 4.792000
-2.091900 4.751600
-2.072600 4.591300
-2.053200 4.392000
-2.033900 4.529700
-2.014600 4.643600
-1.995300 4.576400
-1.976000 4.577300
-1.956600 4.675000
-1.937300 4.771000
-1.918000 4.687900
-1.898700 4.561900
-1.879400 4.492500
-1.860000 4.415200
-1.840700 4.613100
-1.821400 4.783800
-1.802100 5.057900
-1.782800 5.406400
-1.763500 5.548900
-1.744100 5.124000
-1.724800 5.143800
-1.705500 5.168600
-1.686200 5.162100
-1.666900 5.167400
-1.647500 5.129100
-1.628200 5.142500
-1.608900 5.232400
-1.589600 4.764200
-1.570300 4.780500
-1.550900 4.622000
-1.531600 4.565600
-1.512300 4.252400
-1.493000 4.322700
-1.473700 4.435500
-1.454300 4.581200
-1.435000 4.803100
-1.415700 4.661300
-1.396400 4.884400
-1.377100 5.651600
-1.357800 4.796700
-1.338400 5.061800
-1.319100 5.316100
-1.299800 5.624900
-1.280500 5.959700
-1.261200 6.238800
-1.241800 6.228700
-1.222500 6.722800
-1.203200 6.346300
-1.183900 5.864100
-1.164600 5.742800
-1.145200 5.596500
-1.125900 5.454600
-1.106600 5.552200
-1.087300 5.878600
-1.068000 6.175200
-1.048700 6.245200
-1.029300 6.308000
-1.010000 6.441900
-0.990700 6.335000
-0.971400 6.212100
-0.952100 5.957700
-0.932700 4.794400
-0.913400 4.305400
-0.894100 4.526400
-0.874800 4.981200
-0.855500 5.289800
-0.836100 5.493300
-0.816800 5.809400
-0.797500 5.754100
-0.778200 6.085900
-0.758900 6.528500
-0.739500 7.375900
-0.720200 6.394300
-0.700900 5.387700
-0.681600 4.822800
-0.662300 4.629500
-0.643000 4.733400
-0.623600 4.979100
-0.604300 5.362300
-0.585000 6.300000
-0.565700 6.682600
-0.546400 6.237600
-0.527000 5.864300
-0.507700 5.691500
-0.488400 5.598700
-0.469100 5.487600
-0.449800 5.441000
-0.430400 5.468200
-0.411100 5.498800
-0.391800 5.742400
-0.372500 5.211900
-0.353200 5.043900
-0.333900 4.969600
-0.314500 4.959800
-0.295200 4.643400
-0.275900 4.735200
-0.256600 5.330000
-0.237300 5.805300
-0.217900 6.229800
-0.198600 6.602100
-0.179300 6.348200
-0.160000 4.500100
-0.140700 2.697200
-0.121300 1.814600
-0.102000 0.780400
-0.082700 0.000000
-0.063400 0.000000
-0.044100 0.000000
-0.024700 0.000000
-0.005400 0.000000
0.013900 0.000000
0.033200 0.000000
0.052500 0.000000
0.071800 0.000000
0.091200 0.000000
0.110500 0.000000
0.129800 0.000000
0.149100 0.000000
0.168400 0.000000
0.187800 0.000000
0.207100 0.000000
0.226400 0.000000
0.245700 0.000000
0.265000 0.000000
0.284400 0.000000
0.303700 0.000000
0.323000 0.000000
0.342300 0.000000
0.361600 0.000000
0.380900 0.000000
0.400300 0.000000
0.419600 0.000000
0.438900 0.000000
0.458200 0.000000
0.477500 0.000000
0.496900 0.000000
0.516200 0.000000
0.535500 0.000000
0.554800 0.000000
0.574100 0.000000
0.593500 0.000000
0.612800 0.000000
0.632100 0.000000
0.651400 0.000000
0.670700 0.000000
0.690000 0.000000
0.709400 0.000000
0.728700 0.000000
0.748000 0.000000
0.767300 0.000000
0.786600 0.000000
0.806000 0.000000
0.825300 0.000000
0.844600 0.000000
0.863900 0.000000
0.883200 0.000000
0.902600 0.000000
0.921900 0.000000
0.941200 0.000000
0.960500 0.000000
0.979800 0.000000
0.999200 0.000000
1.018500 0.000000
1.037800 0.000000
1.057100 0.000000
1.076400 0.000000
1.095700 0.000000
1.115100 0.000000
1.134400 0.000000
1.153700 0.000000
1.173000 0.000000
1.192300 0.000000
1.211700 0.000000
1.231000 0.000000
1.250300 0.000000
1.269600 0.000000
1.288900 0.000000
1.308300 0.000000
1.327600 0.000000
1.346900 0.000000
1.366200 0.000000
1.385500 0.000000
1.404800 0.000000
1.424200 0.000000
1.443500 0.000000
1.462800 0.000000
1.482100 0.000000
1.501400 0.000000
1.520800 0.000000
1.540100 0.000000
1.559400 0.000000
1.578700 0.000000
1.598000 0.000000
1.617400 0.000000
1.636700 0.000000
1.656000 0.000000
1.675300 0.000000
1.694600 0.000400
1.714000 0.006000
1.733300 0.018000
1.752600 0.036000
1.771900 0.056800
1.791200 0.080100
1.810500 0.105800
1.829900 0.134100
1.849200 0.164700
1.868500 0.197900
1.887800 0.233500
1.907100 0.271400
1.926500 0.307500
1.945800 0.340600
1.965100 0.371600
1.984400 0.403600
2.003700 0.443700
2.023100 0.492900
2.042400 0.551300
2.061700 0.613900
2.081000 0.673400
2.100300 0.734800
2.119600 0.799700
2.139000 0.871500
2.158300 0.952100
2.177600 1.038000
2.196900 1.124300
2.216200 1.210700
2.235600 1.297100
2.254900 1.385100
2.274200 1.497100
2.293500 1.640000
2.312800 1.815500
2.332200 2.078400
2.351500 2.408700
2.370800 2.729300
2.390100 3.057600
2.409400 3.647200
2.428800 4.017100
2.448100 4.235000
2.467400 4.484800
2.486700 4.637900
2.506000 4.771000
2.525300 4.795100
2.544700 4.467200
2.564000 4.370400
2.583300 4.175700
2.602600 3.963600
2.621900 3.686300
2.641300 3.652800
2.660600 3.668200
2.679900 3.684500
2.699200 3.719800
2.718500 3.772100
2.737900 3.862300
2.757200 3.983200
2.776500 4.138600
2.795800 4.280500
2.815100 4.412500
2.834400 4.529000
2.853800 4.635300
2.873100 4.802000
2.892400 5.070700
2.911700 5.405100
2.931000 5.765100
2.950400 6.118000
2.969700 6.520500
2.989000 6.525900
3.008300 6.424800
3.027600 6.503000
3.047000 6.704700
3.066300 7.679500
3.085600 9.959600
3.104900 11.278100
3.124200 10.832400
3.143600 10.608100
3.162900 11.004000
3.182200 11.146600
3.201500 11.368500
3.220800 13.419600
3.240100 13.195600
3.259500 13.288500
3.278800 14.433400
3.298100 13.250900
3.317400 13.009400
3.336700 12.855200
3.356100 12.150900
3.375400 12.337600
3.394700 13.418700
3.414000 16.164900
3.433300 12.472600
3.452700 11.416100
3.472000 18.250500
3.491300 17.840100
3.510600 16.960600
3.529900 21.304000
3.549200 24.301900
3.568600 21.006500
3.587900 18.043200
3.607200 20.192700
3.626500 15.686900
3.645800 14.827800
3.665200 15.029000
3.684500 11.980500
3.703800 9.216500
3.723100 7.943500
3.742400 8.703300
3.761800 10.916600
3.781100 14.196700
3.800400 19.550900
3.819700 17.973500
3.839000 16.894100
3.858400 17.145700
3.877700 16.367000
3.897000 15.242200
3.916300 11.800900
3.935600 14.008600
3.954900 15.063800
3.974300 15.727900
3.993600 17.243200
4.012900 18.989000
4.032200 22.267800
4.051500 24.840600
4.070900 19.750400
4.090200 15.894200
4.109500 11.633900
4.128800 11.452300
4.148100 15.461400
4.167500 15.460600
4.186800 11.814000
4.206100 9.791500
4.225400 7.424700
4.244700 6.355800
4.264000 5.702800
4.283400 5.134200
4.302700 4.887800
4.322000 4.208300
4.341300 3.986600
4.360600 3.784200
4.380000 3.896000
4.399300 4.260400
4.418600 5.411500
4.437900 4.357300
4.457200 4.303000
4.476600 5.490600
4.495900 6.702900
4.515200 9.102400
4.534500 12.287700
4.553800 13.410500
4.573100 14.666300
4.592500 17.152400
4.611800 13.849200
4.631100 9.327800
4.650400 8.386200
4.669700 7.650000
4.689100 7.225100
4.708400 6.024500
4.727700 5.940800
4.747000 6.466700
4.766300 6.960400
4.785700 7.777800
4.805000 7.905700
4.824300 7.870400
4.843600 7.834900
4.862900 7.047200
4.882300 5.682100
4.901600 5.094600
4.920900 4.622600
4.940200 4.397100
4.959500 5.122100
4.978800 6.031200
4.998200 6.218100
5.017500 6.655200
5.036800 7.336100
5.056100 8.544700
5.075400 9.485800
5.094800 9.398600
5.114100 8.765300
5.133400 7.582200
5.152700 6.696600
5.172000 5.833600
5.191400 5.038700
5.210700 4.772300
5.230000 4.670400
5.249300 4.852700
5.268600 5.218800
5.287900 5.582300
5.307300 5.912300
5.326600 6.141600
5.345900 6.009600
5.365200 5.221300
5.384500 4.859100
5.403900 4.752700
5.423200 4.746400
5.442500 4.726900
5.461800 4.687900
5.481100 4.667400
5.500500 4.614400
5.519800 4.869700
5.539100 5.110200
5.558400 5.340000
5.577700 5.793500
5.597100 6.358400
5.616400 6.679300
5.635700 6.323700
5.655000 6.102300
5.674300 5.872000
5.693600 6.034100
5.713000 6.077700
5.732300 5.753300
5.751600 5.726800
5.770900 5.509800
5.790200 5.381500
5.809600 5.276500
5.828900 5.182300
5.848200 5.178200
5.867500 5.161000
5.886800 5.220400
5.906200 4.762700
5.925500 4.927500
5.944800 5.090400
5.964100 5.250500
5.983400 5.661400
6.002700 5.842300
6.022100 6.123600
6.041400 6.142700
6.060700 6.516100
6.080000 6.853600
6.099300 7.228600
6.118700 6.142500
6.138000 5.588700
6.157300 5.094900
6.176600 4.779500
6.195900 4.540700
6.215300 4.617100
6.234600 4.549200
6.253900 4.472500
6.273200 4.144700
6.292500 4.346200
6.311900 4.453100
6.331200 4.559700
6.350500 4.712400
6.369800 4.808900
6.389100 5.215300
6.408400 4.506700
6.427800 4.737800
6.447100 4.918300
6.466400 5.813600
6.485700 6.325700
6.505000 6.221500
6.524400 6.084300
6.543700 5.950900
6.563000 5.802700
6.582300 5.460400
6.601600 5.071800
6.621000 4.648300
6.640300 4.055000
6.659600 3.928900
6.678900 3.935500
6.698200 3.872800
6.717500 3.867500
6.736900 3.914300
6.756200 3.987400
6.775500 4.581500
6.794800 4.906300
6.814100 5.109100
6.833500 5.425500
6.852800 5.676800
6.872100 5.951900
6.891400 5.981200
6.910700 6.060700
6.930100 6.127200
6.949400 6.535300
6.968700 5.934200
6.988000 5.152400
7.007300 4.879600
7.026700 4.878100
7.046000 5.050400
7.065300 5.806900
7.084600 6.729000
7.103900 7.197800
7.123200 6.592800
7.142600 6.428300
7.161900 6.658900
7.181200 7.066000
7.200500 6.219900
7.219800 5.776700
7.239200 5.776000
7.258500 5.814800
7.277800 5.093000
7.297100 4.442900
7.316400 3.748200
7.335800 3.406400
7.355100 3.247000
7.374400 3.095900
7.393700 3.264000
7.413000 3.430300
7.432300 3.739700
7.451700 4.547600
7.471000 5.026500
7.490300 5.009400
7.509600 4.888800
7.528900 4.778500
7.548300 4.620700
7.567600 4.487400
7.586900 4.348600
7.606200 4.623200
7.625500 4.415400
7.644900 4.376600
7.664200 3.548200
7.683500 3.510800
7.702800 3.450900
7.722100 3.407000
7.741400 3.381300
7.760800 3.360700
7.780100 3.361200
7.799400 3.531300
7.818700 3.742900
7.838000 3.913100
7.857400 3.836100
7.876700 3.725200
7.896000 3.846400
7.915300 4.111800
7.934600 4.102100
7.954000 4.039000
7.973300 4.082100
7.992600 4.159800
8.011900 4.244400
8.031200 4.428600
8.050600 4.624400
8.069900 4.869000
8.089200 4.987300
8.108500 5.002900
8.127800 5.129200
8.147100 5.222100
8.166500 5.678100
8.185800 5.278000
8.205100 5.146400
8.224400 5.016900
8.243700 4.961600
8.263100 4.938000
8.282400 4.929600
8.301700 4.996500
8.321000 5.045800
8.340300 5.049900
8.359700 5.090400
8.379000 5.130900
8.398300 5.179200
8.417600 5.254000
8.436900 5.323400
8.456200 5.282100
8.475600 5.081200
8.494900 4.925200
8.514200 4.773300
8.533500 4.706900
8.552800 4.579400
8.572200 4.510000
8.591500 4.481300
8.610800 4.539100
8.630100 4.671600
8.649400 4.916300
8.668800 5.426700
8.688100 5.837100
8.707400 6.233700
8.726700 6.797400
8.746000 6.906000
8.765400 6.998700
8.784700 7.155800
8.804000 6.537300
8.823300 5.917600
8.842600 5.539000
8.861900 5.400700
8.881300 5.336200
8.900600 5.294300
8.919900 5.246600
8.939200 5.049600
8.958500 4.847100
8.977900 4.690400
8.997200 4.602400
9.016500 4.528900
9.035800 4.402500
9.055100 4.293300
9.074500 4.161500
9.093800 4.601500
9.113100 4.548200
9.132400 4.396800
9.151700 4.227300
9.171000 4.063000
9.190400 3.873700
9.209700 3.757700
9.229000 3.649100
9.248300 3.779200
9.267600 3.869700
9.287000 4.237400
9.306300 4.397400
9.325600 4.498200
9.344900 4.691700
9.364200 4.848600
9.383600 4.869300
9.402900 4.895500
9.422200 4.914600
9.441500 4.931400
9.460800 5.017900
9.480200 5.131800
9.499500 5.236000
9.518800 5.301600
9.538100 5.402300
9.557400 5.670600
9.576700 5.769400
9.596100 5.585000
9.615400 5.928700
9.634700 6.497100
9.654000 6.400800
9.673300 6.313600
9.692700 6.207600
9.712000 6.130900
9.731300 6.132300
9.750600 6.144100
9.769900 6.084500
9.789300 6.056900
9.808600 6.101700
9.827900 6.075000
9.847200 5.999000
9.866500 6.052300
9.885800 6.116800
9.905200 6.229900
9.924500 6.315000
9.943800 6.628700
9.963100 5.996700
9.982400 5.638900
10.001800 5.368200
10.021100 5.352900
10.040400 5.479600
10.059700 5.799900
10.079000 5.958200
10.098400 6.609300
10.117700 7.302700
10.137000 7.928200
10.156300 8.473700
10.175600 8.898700
10.195000 9.462000
10.214300 9.541800
10.233600 8.058900
10.252900 7.817400
10.272200 7.158500
10.291500 6.772500
10.310900 6.806200
10.330200 7.094200
10.349500 7.405800
10.368800 8.122700
10.388100 8.752600
10.407500 8.966600
10.426800 8.793600
10.446100 8.629700
10.465400 8.696800
10.484700 7.988700
10.504100 7.422000
10.523400 6.984300
10.542700 6.723300
10.562000 6.775500
10.581300 6.887200
10.600600 7.227000
10.620000 7.296100
10.639300 7.328100
10.658600 7.219500
10.677900 7.413500
10.697200 7.197900
10.716600 6.755000
10.735900 6.712000
10.755200 6.858600
10.774500 7.069900
10.793800 7.287700
10.813200 7.368100
10.832500 7.651700
10.851800 7.776000
10.871100 7.896400
10.890400 8.009700
10.909800 8.538500
10.929100 8.542300
10.948400 8.547100
10.967700 8.533900
10.987000 8.378800
11.006300 8.545300
11.025700 8.736900
11.045000 8.942900
11.064300 8.021300
11.083600 7.403900
11.102900 7.008400
11.122300 6.908300
11.141600 6.929600
11.160900 6.971200
11.180200 7.034700
11.199500 7.091500
11.218900 7.253300
11.238200 8.204400
11.257500 8.383500
11.276800 8.494800
11.296100 8.579800
11.315400 7.777100
11.334800 7.302800
11.354100 7.000500
11.373400 6.662800
11.392700 6.811100
11.412000 7.553600
11.431400 6.416800
11.450700 6.422400
11.470000 6.507600
11.489300 6.730800
11.508600 6.825900
11.528000 6.843800
11.547300 6.852300
11.566600 6.847500
11.585900 6.873500
11.605200 7.307700
11.624500 8.995900
11.643900 7.642900
11.663200 7.660900
11.682500 7.193500
11.701800 7.081200
11.721100 6.972300
11.740500 6.658400
11.759800 6.005700
11.779100 5.917800
11.798400 5.954400
11.817700 6.163000
11.837100 7.205600
11.856400 8.227500
11.875700 8.356400
11.895000 8.296800
11.914300 8.164600
11.933700 7.883400
11.953000 7.468300
11.972300 6.947900
11.991600 6.254600
12.010900 5.920800
12.030200 6.119200
12.049600 6.339200
12.068900 5.774300
12.088200 5.714200
12.107500 5.687300
12.126800 5.674500
12.146200 5.053600
12.165500 5.137500
12.184800 5.196700
12.204100 5.171600
12.223400 5.160900
12.242800 5.174900
12.262100 5.241500
12.281400 5.346200
12.300700 5.529300
12.320000 6.135300
12.339300 6.482600
12.358700 6.784000
12.378000 6.979300
12.397300 7.428800
12.416600 8.143400
12.435900 8.771400
12.455300 8.676600
12.474600 7.383900
12.493900 6.671400
12.513200 6.181300
12.532500 5.649700
12.551900 5.212800
12.571200 4.932100
12.590500 4.689500
12.609800 4.463600
12.629100 4.368200
12.648500 3.986600
12.667800 3.775000
12.687100 3.651900
12.706400 3.518800
12.725700 3.396500
12.745000 3.311600
12.764400 3.402400
12.783700 3.673800
12.803000 3.418000
12.822300 3.324600
12.841600 3.265200
12.861000 3.241300
12.880300 3.228200
12.899600 3.253000
12.918900 3.363000
12.938200 3.809300
12.957600 4.273800
12.976900 4.099500
12.996200 3.042000
13.015500 2.966800
13.034800 2.991900
13.054100 2.985600
13.073500 4.466200
13.092800 5.106300
13.112100 4.914200
13.131400 4.338200
13.150700 3.988800
13.170100 3.733200
13.189400 3.711200
13.208700 3.792600
13.228000 3.922100
13.247300 4.194100
13.266700 4.357700
13.286000 4.236700
13.305300 3.937600
13.324600 3.855900
13.343900 3.890400
13.363300 3.829400
13.382600 3.788000
13.401900 3.698900
13.421200 3.356600
13.440500 3.243300
13.459800 3.126100
13.479200 3.119700
13.498500 3.121400
13.517800 3.118000
13.537100 3.107700
13.556400 3.091500
13.575800 3.167900
13.595100 3.205100
13.614400 3.863000
13.633700 3.876800
13.653000 3.830800
13.672400 3.815500
13.691700 3.749600
13.711000 3.719400
13.730300 3.684600
13.749600 3.362000
13.768900 3.406400
13.788300 3.330100
13.807600 3.155600
13.826900 3.013400
13.846200 2.933400
13.865500 2.842100
13.884900 2.875000
13.904200 2.890000
13.923500 2.879200
13.942800 2.955200
13.962100 2.918800
13.981500 2.933800
14.000800 3.229200
14.020100 3.384300
14.039400 3.532800
14.058700 3.634200
14.078100 3.582000
14.097400 3.712500
14.116700 3.976300
14.136000 4.318900
14.155300 4.630400
14.174600 5.007400
14.194000 5.630600
14.213300 6.044700
14.232600 6.418500
14.251900 6.314600
14.271200 5.835600
14.290600 5.568300
14.309900 5.301000
14.329200 5.097200
14.348500 4.937600
14.367800 5.801500
14.387200 5.595500
14.406500 5.116500
14.425800 5.002600
14.445100 4.807900
14.464400 4.701700
14.483700 4.853300
14.503100 5.051000
14.522400 5.283600
14.541700 5.701400
14.561000 5.918400
14.580300 6.045300
14.599700 5.695700
14.619000 5.573100
14.638300 5.365700
14.657600 5.014100
14.676900 4.887500
14.696300 5.137400
14.715600 5.872400
14.734900 7.355500
14.754200 6.229500
14.773500 6.316300
14.792800 6.313600
14.812200 5.865800
14.831500 5.680200
14.850800 5.495900
14.870100 5.310600
14.889400 5.136800
14.908800 5.121600
14.928100 5.024800
14.947400 4.834100
14.966700 4.669600
14.986000 4.646800
15.005400 4.678000
15.024700 4.754800
15.044000 4.836100
15.063300 5.030500
15.082600 5.388700
15.102000 5.598200
15.121300 5.849800
15.140600 6.137900
15.159900 6.911200
15.179200 7.002000
15.198500 7.094200
15.217900 7.178000
15.237200 7.186700
15.256500 7.315000
15.275800 6.935500
15.295100 6.353000
15.314500 5.673600
15.333800 5.335200
15.353100 5.190000
15.372400 5.272300
15.391700 5.629800
15.411100 5.833800
15.430400 5.813700
15.449700 6.069000
15.469000 6.239400
15.488300 6.431200
15.507600 6.569500
15.527000 6.615300
15.546300 6.676600
15.565600 6.648100
15.584900 6.490500
15.604200 6.521500
15.623600 6.529600
15.642900 6.542600
15.662200 6.526600
15.681500 6.341000
15.700800 6.176300
15.720200 6.242300
15.739500 6.030500
15.758800 6.199400
15.778100 6.405900
15.797400 6.691100
15.816800 6.919100
15.836100 7.231500
15.855400 7.590800
15.874700 8.183200
15.894000 8.537700
15.913300 8.272600
15.932700 8.097700
15.952000 7.790600
15.971300 7.534100
15.990600 7.592500
16.009900 7.636600
16.029300 7.653100
16.048600 8.143600
16.067900 8.181300
16.087200 8.304800
16.106500 8.478000
16.125900 8.877400
16.145200 9.604300
16.164500 9.859100
16.183800 9.384200
16.203100 9.241200
16.222400 9.341100
16.241800 9.407100
16.261100 9.316600
16.280400 9.390200
16.299700 9.922900
16.319000 10.285100
16.338400 10.431900
16.357700 10.505500
16.377000 10.603200
16.396300 10.202100
16.415600 9.668000
16.435000 9.540400
16.454300 9.601700
16.473600 9.538000
16.492900 9.479600
16.512200 9.290200
16.531600 8.772500
16.550900 8.547200
16.570200 8.360400
16.589500 8.386500
16.608800 8.528900
16.628100 8.578500
16.647500 8.833400
16.666800 9.128800
16.686100 9.489900
16.705400 10.215100
16.724700 9.895200
16.744100 8.652200
16.763400 7.602000
16.782700 7.074700
16.802000 6.965300
16.821300 6.909300
16.840700 6.896800
16.860000 6.971500
16.879300 7.054400
16.898600 7.097800
16.917900 7.177800
16.937200 7.226900
16.956600 7.410200
16.975900 7.825100
16.995200 7.794700
17.014500 7.717700
17.033800 7.662100
17.053200 7.228800
17.072500 6.810000
17.091800 6.704300
17.111100 7.100800
17.130400 7.339700
17.149800 7.552200
17.169100 7.917500
17.188400 8.176100
17.207700 8.210000
17.227000 8.032100
17.246400 7.763400
17.265700 7.777100
17.285000 7.890600
17.304300 8.084300
17.323600 8.280700
17.342900 8.538200
17.362300 8.813700
17.381600 8.970000
17.400900 9.205500
17.420200 11.385900
17.439500 10.782900
17.458900 11.090100
17.478200 10.654500
17.497500 9.872400
17.516800 9.406200
17.536100 9.500900
17.555500 9.221900
17.574800 8.792100
17.594100 8.430800
17.613400 8.390200
17.632700 8.851700
17.652000 7.285800
17.671400 7.351000
17.690700 7.648500
17.710000 8.627800
17.729300 7.437000
17.748600 6.569300
17.768000 6.513500
17.787300 6.542800
17.806600 6.586000
17.825900 6.641300
17.845200 6.709100
17.864600 6.831000
17.883900 6.753900
17.903200 6.933500
17.922500 7.190700
17.941800 7.359000
17.961200 7.259700
17.980500 7.242600
17.999800 6.792700
18.019100 6.852200
18.038400 7.488200
18.057700 7.263500
18.077100 7.467100
18.096400 7.698400
18.115700 7.885800
18.135000 8.097900
18.154300 8.330400
18.173700 8.451600
18.193000 8.304500
18.212300 8.277300
18.231600 8.347100
18.250900 8.343700
18.270300 8.310800
18.289600 8.233200
18.308900 8.370000
18.328200 8.375300
18.347500 8.991800
18.366800 9.076800
18.386200 8.926000
18.405500 8.720300
18.424800 8.354100
18.444100 7.914400
18.463400 7.982600
18.482800 7.719700
18.502100 7.610600
18.521400 7.532100
18.540700 7.522700
18.560000 7.353600
18.579400 7.152200
18.598700 7.022000
18.618000 7.016000
18.637300 7.014200
18.656600 6.770900
18.675900 6.758200
18.695300 6.753400
18.714600 6.740800
18.733900 6.724000
18.753200 6.670500
18.772500 6.675400
18.791900 6.754600
18.811200 6.883800
18.830500 6.946400
18.849800 7.013700
18.869100 7.129500
18.888500 7.183900
18.907800 7.230400
18.927100 7.362500
18.946400 7.556500
18.965700 7.826700
18.985100 8.088700
19.004400 8.244000
19.023700 8.489300
19.043000 8.752200
19.062300 9.273800
19.081600 8.801400
19.101000 8.714700
19.120300 8.869700
19.139600 9.198600
19.158900 9.292300
19.178200 9.225500
19.197600 9.185800
19.216900 9.146000
19.236200 9.063200
19.255500 9.035100
19.274800 9.064400
19.294200 9.321300
19.313500 9.405500
19.332800 9.537200
19.352100 9.465400
19.371400 9.137500
19.390700 10.142400
19.410100 9.353600
19.429400 9.481300
19.448700 9.838500
19.468000 10.132200
19.487300 10.350700
19.506700 10.494900
19.526000 10.908400
19.545300 9.833400
19.564600 9.542600
19.583900 9.523400
19.603300 9.644000
19.622600 9.510400
19.641900 9.130300
19.661200 8.922400
19.680500 8.988300
19.699900 8.976800
19.719200 8.978800
19.738500 8.984900
19.757800 9.033600
19.777100 9.013300
19.796400 9.045500
19.815800 9.174900
19.835100 9.412800
19.854400 9.488900
19.873700 9.570200
19.893000 9.948700
19.912400 10.189400
19.931700 10.470000
19.951000 10.709500
19.970300 10.027300
19.989600 10.151500
20.009000 10.340800
20.028300 10.435400
20.047600 10.537000
20.066900 10.530900
20.086200 10.546600
20.105500 10.549000
20.124900 10.536500
20.144200 10.519500
20.163500 10.498200
20.182800 11.292900
20.202100 11.259000
20.221500 10.799800
20.240800 9.894800
20.260100 9.754000
20.279400 9.820200
20.298700 9.803600
20.318100 9.988800
20.337400 10.133400
20.356700 10.813700
20.376000 11.305300
20.395300 10.920600
20.414700 10.882600
20.434000 10.870400
20.453300 10.727400
20.472600 11.481700
20.491900 11.770700
20.511200 11.787800
20.530600 11.170800
20.549900 10.879200
20.569200 11.095600
20.588500 11.466800
20.607800 12.289900
20.627200 12.468400
20.646500 11.057400
20.665800 10.494700
20.685100 10.394500
20.704400 10.260300
20.723800 10.322700
20.743100 10.524500
20.762400 10.456300
20.781700 10.678100
20.801000 11.038700
20.820300 11.134400
20.839700 11.066900
20.859000 11.018800
20.878300 10.917800
20.897600 10.681300
20.916900 10.942800
20.936300 10.816300
20.955600 11.273100
20.974900 13.888400
20.994200 11.388200
21.013500 10.668300
21.032900 11.028400
21.052200 11.677200
21.071500 14.386400
21.090800 10.897200
21.110100 10.762900
21.129500 11.333300
21.148800 12.696600
21.168100 13.972500
21.187400 13.198700
21.206700 12.066100
21.226000 11.329100
21.245400 10.891600
21.264700 10.609600
21.284000 10.820000
21.303300 11.305300
21.322600 12.031900
21.342000 12.739700
21.361300 12.756900
21.380600 12.648300
21.399900 12.811900
21.419200 12.969100
21.438600 11.799500
21.457900 10.479300
21.477200 9.386300
21.496500 8.742100
21.515800 9.007600
21.535100 10.125700
21.554500 12.229900
21.573800 10.959800
21.593100 10.173000
21.612400 9.641500
21.631700 9.296000
21.651100 9.215200
21.670400 9.392900
21.689700 9.337300
21.709000 9.249400
21.728300 8.456400
21.747700 7.990100
21.767000 8.332100
21.786300 8.249800
21.805600 8.285600
21.824900 8.565400
21.844200 8.191900
21.863600 8.409500
21.882900 8.843900
21.902200 9.415500
21.921500 10.397600
21.940800 9.224300
21.960200 9.380600
21.979500 9.287400
21.998800 9.219700
22.018100 9.152500
22.037400 9.110700
22.056800 9.007800
22.076100 9.216900
22.095400 9.426200
22.114700 9.782300
22.134000 9.751600
22.153400 9.770800
22.172700 9.999100
22.192000 10.109900
22.211300 10.456200
22.230600 10.842000
22.249900 11.210100
22.269300 11.315300
22.288600 11.511700
22.307900 11.865600
22.327200 12.356300
22.346500 12.381000
22.365900 12.513200
22.385200 12.158700
22.404500 11.122000
22.423800 10.761900
22.443100 10.404400
22.462500 10.392800
22.481800 10.233300
22.501100 10.096200
22.520400 10.378400
22.539700 10.595200
22.559000 10.251400
22.578400 9.673100
22.597700 9.378600
22.617000 9.032900
22.636300 8.587400
22.655600 8.868800
22.675000 9.081200
22.694300 11.470900
22.713600 8.881300
22.732900 9.772000
22.752200 9.885400
22.771600 10.964400
22.790900 10.978100
22.810200 10.966800
22.829500 10.860500
22.848800 10.858900
22.868200 10.705200
22.887500 10.605400
22.906800 10.509000
22.926100 10.219900
22.945400 9.795500
22.964700 9.550500
22.984100 9.992400
23.003400 10.066200
23.022700 9.890300
23.042000 9.602200
23.061300 9.469200
23.080700 9.261300
23.100000 8.810700
23.119300 8.518800
23.138600 8.286200
23.157900 8.065900
23.177300 8.145500
23.196600 8.056400
23.215900 7.883800
23.235200 7.605200
23.254500 7.497300
23.273800 7.655500
23.293200 7.956500
23.312500 8.470700
23.331800 8.839700
23.351100 8.713500
23.370400 8.570500
23.389800 8.257000
23.409100 7.955400
23.428400 7.689100
23.447700 7.318300
23.467000 6.874100
23.486400 6.464300
23.505700 6.156500
23.525000 5.839400
23.544300 5.602700
23.563600 5.421200
23.583000 5.249500
23.602300 5.091100
23.621600 4.852500
23.640900 4.673200
23.660200 4.522400
23.679500 4.377500
23.698900 4.237000
23.718200 4.105900
23.737500 3.980100
23.756800 3.835400
23.776100 3.714800
23.795500 3.599500
23.814800 3.487700
23.834100 3.391300
23.853400 3.299200
23.872700 3.216100
23.892100 3.136600
23.911400 3.060100
23.930700 2.985000
23.950000 2.906100
23.969300 2.823800
23.988600 2.734600
24.008000 2.641600
24.027300 2.556900
24.046600 2.477400
24.065900 2.417500
24.085200 2.366000
24.104600 2.314300
24.123900 2.263200
24.143200 2.211300
24.162500 2.149900
24.181800 2.090700
24.201200 2.043600
24.220500 2.004100
24.239800 1.933400
24.259100 1.848100
24.278400 1.750200
24.297800 1.649900
24.317100 1.546100
24.336400 1.439400
24.355700 1.337100
24.375000 1.240500
24.394300 1.131300
24.413700 1.019200
24.433000 0.921800
24.452300 0.821600
24.471600 0.721600
24.490900 0.626000
24.510300 0.555400
24.529600 0.454200
24.548900 0.416900
24.568200 0.454800
24.587500 0.511900
24.606900 0.539800
24.626200 0.459000
24.645500 0.309300
24.664800 0.185000
24.684100 0.109900
24.703400 0.074800
24.722800 0.048300
24.742100 0.027600
24.761400 0.012600
24.780700 0.003400
24.800000 0.000000
24.819400 0.000000
24.838700 0.000000
24.858000 0.000000
24.877300 0.000000
24.896600 0.000000
24.916000 0.000000
24.935300 0.000000
24.954600 0.000000
24.973900 0.000000
24.993200 0.000000
25.012600 0.000000
25.031900 0.000000
25.051200 0.000000
25.070500 0.000000
25.089800 0.000000
25.109100 0.000000
25.128500 0.000000
25.147800 0.000000
25.167100 0.000000
25.186400 0.000000
25.205700 0.000000
25.225100 0.000000
25.244400 0.000000
25.263700 0.000000
25.283000 0.000000
25.302300 0.000000
25.321700 0.000000
25.341000 0.000000
25.360300 0.000000
25.379600 0.000000
25.398900 0.000000
25.418200 0.000000
25.437600 0.000000
25.456900 0.000000
25.476200 0.000000
25.495500 0.000000
25.514800 0.000000
25.534200 0.000000
25.553500 0.000000
25.572800 0.000000
25.592100 0.000000
25.611400 0.000000
25.630800 0.000000
25.650100 0.000000
25.669400 0.000000
25.688700 0.000000
25.708000 0.000000
25.727300 0.000000
25.746700 0.000000
25.766000 0.000000
25.785300 0.000000
25.804600 0.000000
25.823900 0.000000
25.843300 0.000000
25.862600 0.000000
25.881900 0.000000
25.901200 0.000000
25.920500 0.000000
25.939900 0.000000
25.959200 0.000000
25.978500 0.000000
25.997800 0.000000
26.017100 0.000000
26.036500 0.000000
26.055800 0.000000
26.075100 0.000000
26.094400 0.000000
26.113700 0.000000
26.133000 0.000000
26.152400 0.000000
26.171700 0.000000
26.191000 0.000000
26.210300 0.000000
26.229600 0.000000
26.249000 0.000000
26.268300 0.000000
26.287600 0.000000
26.306900 0.000000
26.326200 0.000000
26.345600 0.000000
26.364900 0.000000
26.384200 0.000000
26.403500 0.000000
26.422800 0.000000
26.442100 0.000000
26.461500 0.000000
26.480800 0.000000
26.500100 0.000000
26.519400 0.000000
26.538700 0.000000
26.558100 0.000000
e
