set title 'mp-1079297 - Density of States'
set xlabel 'Energy (eV)'
set ylabel 'DOS (states/eV)'
set grid
set xrange [-10:10]
set yrange [0:7.920]
set xzeroaxis lt -1
set terminal png size 800,600
set output 'mp-1079297_dos_gnuplot.png'
plot '-' using 1:2 with lines title 'DOS'
-7.928000 0.000000
-7.913700 0.000000
-7.899300 0.000000
-7.885000 0.000000
-7.870700 0.000000
-7.856400 0.000000
-7.842000 0.000000
-7.827700 0.000000
-7.813400 0.000000
-7.799000 0.000000
-7.784700 0.000000
-7.770400 0.000000
-7.756100 0.000000
-7.741700 0.000000
-7.727400 0.000000
-7.713100 0.000000
-7.698700 0.000000
-7.684400 0.000000
-7.670100 0.000000
-7.655800 0.000000
-7.641400 0.000000
-7.627100 0.000000
-7.612800 0.000000
-7.598400 0.000000
-7.584100 0.000000
-7.569800 0.000000
-7.555400 0.000000
-7.541100 0.000000
-7.526800 0.000000
-7.512500 0.000000
-7.498100 0.000000
-7.483800 0.000000
-7.469500 0.000000
-7.455100 0.000000
-7.440800 0.000000
-7.426500 0.000000
-7.412200 0.000000
-7.397800 0.000000
-7.383500 0.000000
-7.369200 0.000000
-7.354800 0.000000
-7.340500 0.000000
-7.326200 0.000000
-7.311900 0.000000
-7.297500 0.000000
-7.283200 0.000000
-7.268900 0.000000
-7.254500 0.000000
-7.240200 0.000000
-7.225900 0.000000
-7.211500 0.000000
-7.197200 0.000000
-7.182900 0.000000
-7.168600 0.000000
-7.154200 0.000000
-7.139900 0.000000
-7.125600 0.000000
-7.111200 0.000000
-7.096900 0.000000
-7.082600 0.000000
-7.068300 0.000000
-7.053900 0.000000
-7.039600 0.000000
-7.025300 0.000000
-7.010900 0.000000
-6.996600 0.000000
-6.982300 0.000000
-6.967900 0.000000
-6.953600 0.000000
-6.939300 0.000000
-6.925000 0.000000
-6.910600 0.000000
-6.896300 0.000000
-6.882000 0.000000
-6.867600 0.000000
-6.853300 0.000000
-6.839000 0.000000
-6.824700 0.000000
-6.810300 0.000000
-6.796000 0.000000
-6.781700 0.000000
-6.767300 0.000000
-6.753000 0.000000
-6.738700 0.000000
-6.724400 0.000000
-6.710000 0.000000
-6.695700 0.000000
-6.681400 0.000000
-6.667000 0.000000
-6.652700 0.000000
-6.638400 0.000000
-6.624000 0.000100
-6.609700 0.021200
-6.595400 0.077900
-6.581100 0.159100
-6.566700 0.228900
-6.552400 0.288700
-6.538100 0.347700
-6.523700 0.408800
-6.509400 0.472600
-6.495100 0.539200
-6.480800 0.606200
-6.466400 0.641800
-6.452100 0.665400
-6.437800 0.688200
-6.423400 0.713200
-6.409100 0.735700
-6.394800 0.759500
-6.380500 0.786400
-6.366100 0.814200
-6.351800 0.842600
-6.337500 0.871600
-6.323100 0.903300
-6.308800 0.938600
-6.294500 0.976300
-6.280100 1.014700
-6.265800 1.054800
-6.251500 1.097700
-6.237200 1.143100
-6.222800 1.190900
-6.208500 1.234100
-6.194200 1.267900
-6.179800 1.297000
-6.165500 1.326200
-6.151200 1.356000
-6.136900 1.384700
-6.122500 1.411300
-6.108200 1.402300
-6.093900 1.384500
-6.079500 1.381100
-6.065200 1.427500
-6.050900 1.465800
-6.036600 1.490600
-6.022200 1.502200
-6.007900 1.509100
-5.993600 1.514300
-5.979200 1.518000
-5.964900 1.521300
-5.950600 1.521700
-5.936200 1.503100
-5.921900 1.476000
-5.907600 1.467300
-5.893300 1.461400
-5.878900 1.458400
-5.864600 1.458000
-5.850300 1.435700
-5.835900 1.393500
-5.821600 1.351800
-5.807300 1.309900
-5.793000 1.267600
-5.778600 1.224300
-5.764300 1.180100
-5.750000 1.122400
-5.735600 1.077300
-5.721300 1.048400
-5.707000 1.033900
-5.692600 1.021100
-5.678300 1.014800
-5.664000 1.021600
-5.649700 1.037200
-5.635300 1.057300
-5.621000 1.086100
-5.606700 1.199600
-5.592300 1.282000
-5.578000 1.374200
-5.563700 1.471500
-5.549400 1.572500
-5.535000 1.686300
-5.520700 1.784400
-5.506400 1.886300
-5.492000 1.957600
-5.477700 1.971200
-5.463400 1.990800
-5.449100 2.021200
-5.434700 2.072400
-5.420400 2.093600
-5.406100 2.087300
-5.391700 2.073000
-5.377400 2.062100
-5.363100 2.054200
-5.348700 2.048500
-5.334400 2.043000
-5.320100 2.032800
-5.305800 2.011800
-5.291400 1.985400
-5.277100 1.978600
-5.262800 1.973800
-5.248400 1.962400
-5.234100 1.959500
-5.219800 1.961500
-5.205500 1.962300
-5.191100 1.962700
-5.176800 1.963000
-5.162500 1.962400
-5.148100 1.961000
-5.133800 1.959200
-5.119500 1.955100
-5.105200 1.940400
-5.090800 1.937000
-5.076500 1.934000
-5.062200 1.931800
-5.047800 1.931500
-5.033500 1.929400
-5.019200 1.925200
-5.004800 1.919600
-4.990500 1.912900
-4.976200 1.911200
-4.961900 1.910400
-4.947500 1.909900
-4.933200 1.910100
-4.918900 1.910500
-4.904500 1.905900
-4.890200 1.905900
-4.875900 1.908100
-4.861600 1.909900
-4.847200 1.910700
-4.832900 1.908700
-4.818600 1.903600
-4.804200 1.896600
-4.789900 1.894300
-4.775600 1.895400
-4.761300 1.895600
-4.746900 1.893700
-4.732600 1.891400
-4.718300 1.888900
-4.703900 1.886700
-4.689600 1.884400
-4.675300 1.885500
-4.660900 1.911000
-4.646600 1.950000
-4.632300 1.990700
-4.618000 2.033100
-4.603600 2.066200
-4.589300 2.072800
-4.575000 2.083000
-4.560600 2.103100
-4.546300 2.113400
-4.532000 2.105400
-4.517700 2.102600
-4.503300 2.096500
-4.489000 2.084800
-4.474700 2.040200
-4.460300 2.035900
-4.446000 2.092200
-4.431700 2.172700
-4.417300 2.230400
-4.403000 2.048900
-4.388700 2.155500
-4.374400 2.251300
-4.360000 2.357400
-4.345700 2.512300
-4.331400 2.730600
-4.317000 2.979200
-4.302700 3.183400
-4.288400 3.329600
-4.274100 3.393100
-4.259700 3.316500
-4.245400 3.209800
-4.231100 2.994600
-4.216700 2.856300
-4.202400 2.761000
-4.188100 2.713400
-4.173800 2.652400
-4.159400 2.581800
-4.145100 2.576400
-4.130800 2.590300
-4.116400 2.672000
-4.102100 2.702400
-4.087800 2.731400
-4.073400 2.751200
-4.059100 2.766900
-4.044800 2.748500
-4.030500 2.694500
-4.016100 2.626100
-4.001800 2.559600
-3.987500 2.484800
-3.973100 2.412000
-3.958800 2.369700
-3.944500 2.352600
-3.930200 2.346800
-3.915800 2.378400
-3.901500 2.423900
-3.887200 2.474200
-3.872800 2.525200
-3.858500 2.578200
-3.844200 2.648400
-3.829900 2.747600
-3.815500 2.897300
-3.801200 3.053300
-3.786900 3.113800
-3.772500 3.126900
-3.758200 3.110800
-3.743900 3.125500
-3.729500 3.151400
-3.715200 3.161800
-3.700900 3.180600
-3.686600 3.231100
-3.672200 3.238500
-3.657900 3.239300
-3.643600 3.240800
-3.629200 3.283400
-3.614900 3.329000
-3.600600 3.366600
-3.586300 3.397100
-3.571900 3.460600
-3.557600 3.550600
-3.543300 3.652900
-3.528900 3.697400
-3.514600 3.682100
-3.500300 3.624000
-3.486000 3.527100
-3.471600 3.393600
-3.457300 3.230600
-3.443000 3.053400
-3.428600 2.893900
-3.414300 2.764100
-3.400000 2.563700
-3.385600 2.382100
-3.371300 2.281800
-3.357000 2.203100
-3.342700 2.128700
-3.328300 2.058300
-3.314000 1.991300
-3.299700 1.924900
-3.285300 1.854200
-3.271000 1.780300
-3.256700 1.712900
-3.242400 1.650800
-3.228000 1.605400
-3.213700 1.604700
-3.199400 1.641100
-3.185000 1.701800
-3.170700 1.771400
-3.156400 1.849800
-3.142000 2.055800
-3.127700 2.287000
-3.113400 2.337900
-3.099100 2.349800
-3.084700 2.371700
-3.070400 2.230500
-3.056100 2.128000
-3.041700 2.093800
-3.027400 2.078500
-3.013100 2.074900
-2.998800 2.083100
-2.984400 2.106600
-2.970100 2.137100
-2.955800 2.167600
-2.941400 2.208000
-2.927100 2.295200
-2.912800 2.376100
-2.898500 2.419800
-2.884100 2.429700
-2.869800 2.420200
-2.855500 2.425400
-2.841100 2.443500
-2.826800 2.601900
-2.812500 2.139000
-2.798100 2.025400
-2.783800 1.930400
-2.769500 1.808400
-2.755200 1.690700
-2.740800 1.584400
-2.726500 1.491800
-2.712200 1.426400
-2.697800 1.391600
-2.683500 1.376600
-2.669200 1.364100
-2.654900 1.371600
-2.640500 1.378700
-2.626200 1.387800
-2.611900 1.398000
-2.597500 1.405100
-2.583200 1.411300
-2.568900 1.418100
-2.554600 1.425600
-2.540200 1.437500
-2.525900 1.476600
-2.511600 1.717400
-2.497200 1.730100
-2.482900 1.442900
-2.468600 1.334700
-2.454200 1.277200
-2.439900 1.253200
-2.425600 1.231100
-2.411300 1.217900
-2.396900 1.210400
-2.382600 1.224400
-2.368300 1.259500
-2.353900 1.309700
-2.339600 1.386300
-2.325300 1.533700
-2.311000 1.716100
-2.296600 1.921600
-2.282300 2.025500
-2.268000 2.076600
-2.253600 2.117900
-2.239300 2.119900
-2.225000 2.143600
-2.210700 2.214300
-2.196300 2.278700
-2.182000 2.381600
-2.167700 2.442700
-2.153300 2.524000
-2.139000 2.617100
-2.124700 2.680800
-2.110300 2.715100
-2.096000 2.568800
-2.081700 2.541000
-2.067400 2.519400
-2.053000 2.501900
-2.038700 2.496100
-2.024400 2.481500
-2.010000 2.412400
-1.995700 2.338500
-1.981400 2.244700
-1.967100 2.152400
-1.952700 2.099900
-1.938400 2.036500
-1.924100 1.939200
-1.909700 1.850900
-1.895400 1.766900
-1.881100 1.706400
-1.866800 1.656900
-1.852400 1.614900
-1.838100 1.591000
-1.823800 1.552200
-1.809400 1.509700
-1.795100 1.479800
-1.780800 1.463100
-1.766400 1.457100
-1.752100 1.455400
-1.737800 1.456600
-1.723500 1.461200
-1.709100 1.469100
-1.694800 1.485500
-1.680500 1.511100
-1.666100 1.547800
-1.651800 1.586500
-1.637500 1.626800
-1.623200 1.671500
-1.608800 1.720500
-1.594500 1.777600
-1.580200 1.847300
-1.565800 1.923800
-1.551500 1.979800
-1.537200 2.055600
-1.522800 2.155300
-1.508500 2.293400
-1.494200 2.527400
-1.479900 3.207500
-1.465500 3.507200
-1.451200 3.128600
-1.436900 3.004000
-1.422500 2.885400
-1.408200 2.825500
-1.393900 2.773600
-1.379600 2.802400
-1.365200 2.832600
-1.350900 2.830500
-1.336600 2.830500
-1.322200 2.836900
-1.307900 2.853400
-1.293600 2.878500
-1.279300 2.910500
-1.264900 2.899900
-1.250600 2.975200
-1.236300 3.085300
-1.221900 3.174200
-1.207600 3.190500
-1.193300 3.120400
-1.178900 3.123800
-1.164600 3.133400
-1.150300 3.163700
-1.136000 3.119700
-1.121600 2.890800
-1.107300 2.708200
-1.093000 2.570100
-1.078600 2.448100
-1.064300 2.338000
-1.050000 2.238800
-1.035700 2.149800
-1.021300 2.071100
-1.007000 2.010400
-0.992700 1.960200
-0.978300 1.917000
-0.964000 1.879400
-0.949700 1.847400
-0.935400 1.820100
-0.921000 1.797400
-0.906700 1.781800
-0.892400 1.774500
-0.878000 1.775700
-0.863700 1.786300
-0.849400 1.800200
-0.835000 1.809200
-0.820700 1.811800
-0.806400 1.806400
-0.792100 1.826200
-0.777700 1.864300
-0.763400 1.900200
-0.749100 1.911600
-0.734700 1.922400
-0.720400 1.934700
-0.706100 1.946100
-0.691800 1.952700
-0.677400 1.955400
-0.663100 1.956500
-0.648800 1.956200
-0.634400 1.954600
-0.620100 1.950800
-0.605800 1.943100
-0.591500 1.937500
-0.577100 1.932900
-0.562800 1.934300
-0.548500 1.932500
-0.534100 1.971100
-0.519800 1.998800
-0.505500 2.031400
-0.491100 2.017100
-0.476800 1.999200
-0.462500 1.985700
-0.448200 1.973000
-0.433800 1.961500
-0.419500 1.951000
-0.405200 1.940300
-0.390800 1.930000
-0.376500 1.919700
-0.362200 1.904900
-0.347900 1.882800
-0.333500 1.862200
-0.319200 1.843300
-0.304900 1.826700
-0.290500 1.810100
-0.276200 1.793400
-0.261900 1.776500
-0.247500 1.759600
-0.233200 1.743800
-0.218900 1.729400
-0.204600 1.715300
-0.190200 1.701400
-0.175900 1.687700
-0.161600 1.674100
-0.147200 1.660400
-0.132900 1.646400
-0.118600 1.633200
-0.104300 1.621000
-0.089900 1.609700
-0.075600 1.599000
-0.061300 1.591000
-0.046900 1.586400
-0.032600 1.581900
-0.018300 1.577500
-0.004000 1.573800
0.010400 1.570500
0.024700 1.567600
0.039000 1.564800
0.053400 1.560500
0.067700 1.556300
0.082000 1.551900
0.096400 1.548200
0.110700 1.547500
0.125000 1.548200
0.139300 1.559400
0.153700 1.575100
0.168000 1.593900
0.182300 1.616000
0.196700 1.568500
0.211000 1.543800
0.225300 1.550800
0.239600 1.572700
0.254000 1.618200
0.268300 1.781300
0.282600 2.019100
0.297000 2.435400
0.311300 3.048700
0.325600 3.176200
0.339900 3.557800
0.354300 4.056900
0.368600 3.606400
0.382900 3.475500
0.397300 3.491500
0.411600 3.194600
0.425900 3.166000
0.440300 3.139500
0.454600 3.137400
0.468900 3.095800
0.483200 3.042000
0.497600 2.940900
0.511900 2.786900
0.526200 2.726900
0.540600 2.591600
0.554900 2.553200
0.569200 2.597200
0.583500 2.669000
0.597900 2.616000
0.612200 2.383600
0.626500 2.182700
0.640900 2.090500
0.655200 2.014300
0.669500 1.956100
0.683800 2.028100
0.698200 2.155500
0.712500 2.342900
0.726800 2.448200
0.741200 2.547200
0.755500 2.650900
0.769800 2.742100
0.784200 2.761500
0.798500 2.745500
0.812800 2.688400
0.827100 2.731800
0.841500 2.824400
0.855800 2.906900
0.870100 3.002300
0.884500 3.118800
0.898800 3.257500
0.913100 3.455000
0.927400 3.358600
0.941800 3.304800
0.956100 3.333700
0.970400 3.359800
0.984800 3.384200
0.999100 3.433900
1.013400 3.482800
1.027800 3.481300
1.042100 3.567100
1.056400 3.669000
1.070700 3.765500
1.085100 3.817700
1.099400 3.863900
1.113700 3.957600
1.128100 3.920000
1.142400 3.641600
1.156700 3.377600
1.171000 3.168000
1.185400 3.034800
1.199700 2.933000
1.214000 2.857500
1.228400 2.796000
1.242700 2.721700
1.257000 2.611900
1.271300 2.562400
1.285700 2.477700
1.300000 2.448200
1.314300 2.467900
1.328700 2.456700
1.343000 2.457300
1.357300 2.465400
1.371700 2.484000
1.386000 2.518900
1.400300 2.571200
1.414600 2.634200
1.429000 2.718600
1.443300 2.831900
1.457600 2.976500
1.472000 3.127900
1.486300 3.301200
1.500600 3.525900
1.514900 3.685800
1.529300 3.766500
1.543600 3.673300
1.557900 3.763900
1.572300 3.649600
1.586600 3.577300
1.600900 3.468900
1.615200 3.353300
1.629600 3.278700
1.643900 3.229200
1.658200 3.205300
1.672600 3.175400
1.686900 3.155800
1.701200 3.140100
1.715600 3.132300
1.729900 3.133000
1.744200 3.119100
1.758500 3.067700
1.772900 2.973600
1.787200 2.973200
1.801500 3.047800
1.815900 3.068800
1.830200 3.261800
1.844500 3.589900
1.858800 3.691700
1.873200 3.605600
1.887500 3.166900
1.901800 3.096400
1.916200 3.153900
1.930500 3.265500
1.944800 3.384800
1.959100 3.515800
1.973500 3.589200
1.987800 3.535400
2.002100 3.555400
2.016500 3.568300
2.030800 3.537600
2.045100 3.517300
2.059500 3.557900
2.073800 3.646300
2.088100 3.770700
2.102400 3.889300
2.116800 4.079900
2.131100 4.107300
2.145400 4.167500
2.159800 4.178500
2.174100 4.191100
2.188400 4.202800
2.202700 4.239000
2.217100 4.323600
2.231400 4.402500
2.245700 4.478900
2.260100 4.554000
2.274400 4.435700
2.288700 4.460800
2.303100 4.373900
2.317400 4.478800
2.331700 4.437000
2.346000 4.385400
2.360400 4.381600
2.374700 4.421600
2.389000 4.508700
2.403400 4.628400
2.417700 4.794300
2.432000 5.207400
2.446300 5.182000
2.460700 5.080700
2.475000 5.088800
2.489300 5.225700
2.503700 5.686900
2.518000 6.204700
2.532300 6.763200
2.546600 7.200200
2.561000 7.001100
2.575300 6.827900
2.589600 6.674100
2.604000 6.566800
2.618300 6.689500
2.632600 6.002400
2.647000 5.807600
2.661300 5.667800
2.675600 5.532500
2.689900 5.435500
2.704300 5.376400
2.718600 5.379300
2.732900 5.406400
2.747300 5.354800
2.761600 5.286800
2.775900 5.209500
2.790200 5.127700
2.804600 5.062300
2.818900 5.052100
2.833200 5.105000
2.847600 5.173000
2.861900 5.195400
2.876200 5.195500
2.890500 5.255300
2.904900 5.329000
2.919200 5.421700
2.933500 5.475100
2.947900 5.462100
2.962200 5.400400
2.976500 5.313700
2.990900 5.255500
3.005200 5.259600
3.019500 5.244300
3.033800 5.219800
3.048200 5.282900
3.062500 5.542400
3.076800 5.921300
3.091200 5.869600
3.105500 5.846700
3.119800 5.868000
3.134100 5.888100
3.148500 5.853100
3.162800 5.718000
3.177100 5.622200
3.191500 5.573600
3.205800 5.635800
3.220100 5.672500
3.234400 5.684200
3.248800 5.863400
3.263100 5.917200
3.277400 5.804700
3.291800 5.760000
3.306100 5.845400
3.320400 5.863400
3.334800 5.812200
3.349100 5.872300
3.363400 5.951800
3.377700 6.084800
3.392100 6.214700
3.406400 6.234000
3.420700 6.564800
3.435100 6.450800
3.449400 6.291700
3.463700 6.051800
3.478000 5.814900
3.492400 5.463000
3.506700 5.290500
3.521000 5.231400
3.535400 5.347100
3.549700 5.541000
3.564000 5.692000
3.578400 5.665800
3.592700 5.614700
3.607000 5.642700
3.621300 5.670100
3.635700 5.673100
3.650000 5.683000
3.664300 5.735600
3.678700 5.871800
3.693000 6.003600
3.707300 5.782300
3.721600 5.705100
3.736000 5.623300
3.750300 5.558300
3.764600 5.496500
3.779000 5.455800
3.793300 5.313400
3.807600 5.338200
3.821900 5.406000
3.836300 5.498600
3.850600 5.431900
3.864900 5.355400
3.879300 5.300100
3.893600 5.267400
3.907900 5.255600
3.922300 5.266400
3.936600 5.273700
3.950900 5.280200
3.965200 5.269100
3.979600 5.227700
3.993900 5.130900
4.008200 5.015900
4.022600 4.922500
4.036900 4.827400
4.051200 4.724800
4.065500 4.611800
4.079900 4.512000
4.094200 4.406000
4.108500 4.305200
4.122900 4.220900
4.137200 4.137400
4.151500 4.037600
4.165800 3.918200
4.180200 3.786500
4.194500 3.644400
4.208800 3.516000
4.223200 3.416000
4.237500 3.333800
4.251800 3.255200
4.266200 3.173400
4.280500 3.084700
4.294800 2.991700
4.309100 2.922100
4.323500 2.857200
4.337800 2.795800
4.352100 2.738400
4.366500 2.685500
4.380800 2.634800
4.395100 2.584500
4.409400 2.510600
4.423800 2.425900
4.438100 2.357300
4.452400 2.297500
4.466800 2.245500
4.481100 2.194800
4.495400 2.150900
4.509700 2.114800
4.524100 2.077500
4.538400 2.009000
4.552700 1.959000
4.567100 1.930100
4.581400 1.915300
4.595700 1.924100
4.610100 1.934800
4.624400 2.107900
4.638700 1.790400
4.653000 1.674700
4.667400 1.605700
4.681700 1.526000
4.696000 1.463200
4.710400 1.406800
4.724700 1.356600
4.739000 1.338300
4.753300 1.334400
4.767700 1.332900
4.782000 1.311400
4.796300 1.264900
4.810700 1.232900
4.825000 1.195000
4.839300 1.141200
4.853600 1.079800
4.868000 1.009400
4.882300 0.940800
4.896600 0.880500
4.911000 0.826700
4.925300 0.774400
4.939600 0.723900
4.954000 0.676600
4.968300 0.629500
4.982600 0.582100
4.996900 0.537400
5.011300 0.492800
5.025600 0.446300
5.039900 0.397800
5.054300 0.357200
5.068600 0.321200
5.082900 0.286900
5.097200 0.262200
5.111600 0.250100
5.125900 0.239600
5.140200 0.227500
5.154600 0.212000
5.168900 0.192900
5.183200 0.174000
5.197600 0.155500
5.211900 0.137200
5.226200 0.119200
5.240500 0.101500
5.254900 0.084200
5.269200 0.069100
5.283500 0.056800
5.297900 0.047100
5.312200 0.038700
5.326500 0.031100
5.340800 0.024400
5.355200 0.018400
5.369500 0.013300
5.383800 0.009100
5.398200 0.005600
5.412500 0.003000
5.426800 0.001200
5.441100 0.000200
5.455500 0.000000
5.469800 0.000000
5.484100 0.000000
5.498500 0.000000
5.512800 0.000000
5.527100 0.000000
5.541500 0.000000
5.555800 0.000000
5.570100 0.000000
5.584400 0.000000
5.598800 0.000000
5.613100 0.000000
5.627400 0.000000
5.641800 0.000000
5.656100 0.000000
5.670400 0.000000
5.684700 0.000000
5.699100 0.000000
5.713400 0.000000
5.727700 0.000000
5.742100 0.001800
5.756400 0.010500
5.770700 0.020900
5.785000 0.031100
5.799400 0.039600
5.813700 0.049400
5.828000 0.067300
5.842400 0.107800
5.856700 0.143000
5.871000 0.166300
5.885400 0.188000
5.899700 0.209000
5.914000 0.229100
5.928300 0.248400
5.942700 0.267100
5.957000 0.285200
5.971300 0.303300
5.985700 0.331100
6.000000 0.356200
6.014300 0.375100
6.028600 0.392400
6.043000 0.408100
6.057300 0.422400
6.071600 0.436000
6.086000 0.449000
6.100300 0.461400
6.114600 0.473000
6.128900 0.483900
6.143300 0.494100
6.157600 0.504200
6.171900 0.514100
6.186300 0.523900
6.200600 0.533100
6.214900 0.548800
6.229300 0.585800
6.243600 0.633900
6.257900 0.691000
6.272200 0.756300
6.286600 0.828000
6.300900 0.908900
6.315200 1.007000
6.329600 1.151500
6.343900 1.372200
6.358200 1.658400
6.372500 1.981800
6.386900 2.320400
6.401200 2.604700
6.415500 2.819000
6.429900 2.995300
6.444200 3.131200
6.458500 3.164100
6.472900 3.109300
6.487200 3.026000
6.501500 2.884000
6.515800 2.754300
6.530200 2.702700
6.544500 2.715500
6.558800 2.770600
6.573200 2.856300
6.587500 2.976100
6.601800 3.126800
6.616100 3.133100
6.630500 3.157400
6.644800 3.169600
6.659100 3.125400
6.673500 3.089600
6.687800 3.154000
6.702100 3.264400
6.716400 3.398500
6.730800 3.561400
6.745100 3.660600
6.759400 4.347400
6.773800 3.995500
6.788100 3.995600
6.802400 4.027100
6.816800 4.080100
6.831100 4.268300
6.845400 4.242300
6.859700 4.294400
6.874100 4.395600
6.888400 4.508900
6.902700 4.868900
6.917100 5.016900
6.931400 5.271600
6.945700 5.373000
6.960000 5.566400
6.974400 5.706300
6.988700 5.717400
7.003000 5.613900
7.017400 5.474000
7.031700 5.325600
7.046000 5.172100
7.060300 5.016600
7.074700 4.918200
7.089000 4.888400
7.103300 4.868600
7.117700 4.754200
7.132000 4.650300
7.146300 4.605300
7.160700 4.610200
7.175000 5.108300
7.189300 4.844300
7.203600 4.871800
7.218000 5.012400
7.232300 5.162100
7.246600 5.343900
7.261000 5.537500
7.275300 5.722200
7.289600 5.645500
7.303900 5.548000
7.318300 5.367300
7.332600 5.158600
7.346900 4.953200
7.361300 4.750200
7.375600 4.628200
7.389900 4.586500
7.404200 4.591100
7.418600 4.602300
7.432900 4.640900
7.447200 4.661300
7.461600 4.731200
7.475900 4.736300
7.490200 4.717300
7.504600 4.675900
7.518900 4.657100
7.533200 4.649100
7.547500 4.745300
7.561900 4.893100
7.576200 4.988800
7.590500 5.265500
7.604900 5.583500
7.619200 5.771500
7.633500 5.741900
7.647800 5.776700
7.662200 5.863900
7.676500 5.759200
7.690800 5.552100
7.705200 5.379500
7.719500 5.179100
7.733800 5.096400
7.748200 5.139500
7.762500 5.206400
7.776800 5.315200
7.791100 5.468100
7.805500 5.573600
7.819800 6.000600
7.834100 6.232700
7.848500 6.278700
7.862800 6.242500
7.877100 6.213200
7.891400 6.298000
7.905800 5.886600
7.920100 5.682800
7.934400 5.594200
7.948800 5.558500
7.963100 5.507500
7.977400 5.417600
7.991700 5.337800
8.006100 5.356900
8.020400 5.545900
8.034700 5.755100
8.049100 5.760600
8.063400 5.821100
8.077700 5.869900
8.092100 6.026700
8.106400 6.008400
8.120700 5.913500
8.135000 5.712200
8.149400 5.709200
8.163700 5.806300
8.178000 5.939600
8.192400 6.026600
8.206700 6.042500
8.221000 6.116900
8.235300 6.129900
8.249700 6.178800
8.264000 6.190500
8.278300 6.160000
8.292700 6.107000
8.307000 6.067200
8.321300 6.119900
8.335600 6.350300
8.350000 6.322500
8.364300 5.945900
8.378600 5.847100
8.393000 5.812700
8.407300 6.053300
8.421600 5.963600
8.436000 5.812100
8.450300 5.757800
8.464600 6.032500
8.478900 6.131700
8.493300 6.004500
8.507600 5.990300
8.521900 6.058800
8.536300 6.125400
8.550600 6.148200
8.564900 6.149300
8.579200 6.305700
8.593600 6.254100
8.607900 6.103800
8.622200 5.950300
8.636600 5.850300
8.650900 5.766700
8.665200 5.686400
8.679500 5.615000
8.693900 5.535800
8.708200 5.510400
8.722500 5.599800
8.736900 5.745300
8.751200 5.731900
8.765500 5.586700
8.779900 5.459900
8.794200 5.398700
8.808500 5.371000
8.822800 5.390700
8.837200 5.432200
8.851500 5.473300
8.865800 5.498900
8.880200 5.568200
8.894500 5.815500
8.908800 5.817900
8.923100 5.757200
8.937500 5.583900
8.951800 5.532800
8.966100 5.564200
8.980500 5.508600
8.994800 5.453600
9.009100 5.510100
9.023500 5.605000
9.037800 5.712200
9.052100 5.714700
9.066400 5.704800
9.080800 5.744000
9.095100 5.824700
9.109400 6.073200
9.123800 6.130800
9.138100 6.103800
9.152400 6.073200
9.166700 6.038700
9.181100 5.837600
9.195400 5.726800
9.209700 5.767100
9.224100 5.662600
9.238400 5.579600
9.252700 5.593500
9.267000 5.610700
9.281400 5.654600
9.295700 5.739900
9.310000 5.751200
9.324400 5.787100
9.338700 5.780300
9.353000 5.710400
9.367400 5.586200
9.381700 5.363000
9.396000 5.290800
9.410300 5.230900
9.424700 5.204100
9.439000 5.238500
9.453300 5.310200
9.467700 5.426800
9.482000 5.597500
9.496300 5.860300
9.510600 5.793800
9.525000 5.594700
9.539300 5.833200
9.553600 6.103800
9.568000 5.721600
9.582300 5.395700
9.596600 5.314100
9.610900 5.255100
9.625300 5.190100
9.639600 5.099000
9.653900 4.995900
9.668300 4.809700
9.682600 4.549600
9.696900 4.408000
9.711300 4.335000
9.725600 4.285200
9.739900 4.245500
9.754200 4.238900
9.768600 4.252000
9.782900 4.253400
9.797200 4.230700
9.811600 4.249800
9.825900 4.276100
9.840200 4.315900
9.854500 4.374900
9.868900 4.475900
9.883200 4.580000
9.897500 4.670800
9.911900 4.763700
9.926200 4.865900
9.940500 5.207500
9.954800 5.500200
9.969200 5.327700
9.983500 5.282100
9.997800 5.256000
10.012200 5.192600
10.026500 5.131600
10.040800 5.051500
10.055200 4.977300
10.069500 4.893500
10.083800 4.814500
10.098100 4.746300
10.112500 4.720600
10.126800 4.658000
10.141100 4.662300
10.155500 4.713200
10.169800 4.758200
10.184100 4.807500
10.198400 4.837200
10.212800 5.008400
10.227100 5.236700
10.241400 5.283900
10.255800 5.317000
10.270100 5.417400
10.284400 5.468700
10.298800 5.556400
10.313100 5.727500
10.327400 5.853100
10.341700 5.782000
10.356100 5.564500
10.370400 5.359300
10.384700 5.187100
10.399100 5.045100
10.413400 4.938000
10.427700 4.860500
10.442000 4.804300
10.456400 4.754600
10.470700 4.724000
10.485000 4.694800
10.499400 4.672600
10.513700 4.682300
10.528000 4.731200
10.542300 4.754400
10.556700 4.739400
10.571000 4.700200
10.585300 4.664500
10.599700 4.676700
10.614000 4.708700
10.628300 4.744700
10.642700 4.774800
10.657000 4.806700
10.671300 4.814400
10.685600 4.808900
10.700000 4.841300
10.714300 4.863800
10.728600 4.939800
10.743000 5.052800
10.757300 5.125400
10.771600 5.218300
10.785900 5.134200
10.800300 5.087700
10.814600 5.144100
10.828900 5.089700
10.843300 5.080100
10.857600 5.091300
10.871900 5.130000
10.886200 5.170800
10.900600 5.143500
10.914900 5.070300
10.929200 5.016100
10.943600 5.156700
10.957900 5.231200
10.972200 5.270800
10.986600 5.292300
11.000900 5.238600
11.015200 5.104700
11.029500 4.942600
11.043900 4.832600
11.058200 4.749100
11.072500 4.673600
11.086900 4.616300
11.101200 4.567500
11.115500 4.539400
11.129800 4.478900
11.144200 4.461200
11.158500 4.483200
11.172800 4.564800
11.187200 4.742400
11.201500 4.943100
11.215800 5.062100
11.230100 5.050400
11.244500 4.941100
11.258800 4.740200
11.273100 4.670700
11.287500 4.639500
11.301800 4.647700
11.316100 4.577600
11.330500 4.519100
11.344800 4.447100
11.359100 4.352700
11.373400 4.238400
11.387800 4.215200
11.402100 4.178200
11.416400 4.146600
11.430800 4.099700
11.445100 4.104000
11.459400 4.589500
11.473700 4.468900
11.488100 4.353200
11.502400 4.283500
11.516700 4.318000
11.531100 4.414100
11.545400 4.519200
11.559700 4.574500
11.574000 4.656200
11.588400 4.766900
11.602700 4.889200
11.617000 4.811000
11.631400 4.597300
11.645700 4.448000
11.660000 4.446800
11.674400 4.490500
11.688700 4.567000
11.703000 4.650000
11.717300 4.710300
11.731700 4.751700
11.746000 4.780400
11.760300 4.814600
11.774700 4.822300
11.789000 4.808700
11.803300 4.786300
11.817600 4.760600
11.832000 4.707400
11.846300 4.643600
11.860600 4.659600
11.875000 4.627400
11.889300 4.491300
11.903600 4.570600
11.918000 4.668900
11.932300 4.687400
11.946600 4.703200
11.960900 4.730800
11.975300 4.791200
11.989600 4.876900
12.003900 4.937700
12.018300 4.977200
12.032600 5.041000
12.046900 5.130500
12.061200 5.229700
12.075600 5.337000
12.089900 5.452300
12.104200 5.511100
12.118600 5.456000
12.132900 5.373900
12.147200 5.428500
12.161500 5.320200
12.175900 5.159600
12.190200 5.197400
12.204500 5.240700
12.218900 5.255900
12.233200 5.279000
12.247500 5.297000
12.261900 5.267000
12.276200 5.241900
12.290500 5.073000
12.304800 4.895400
12.319200 4.767600
12.333500 4.726300
12.347800 4.712400
12.362200 4.745000
12.376500 4.817900
12.390800 4.830900
12.405100 4.762300
12.419500 4.715700
12.433800 4.668900
12.448100 4.583900
12.462500 4.525800
12.476800 4.467500
12.491100 4.407200
12.505400 4.359600
12.519800 4.348600
12.534100 4.373200
12.548400 4.412000
12.562800 4.452300
12.577100 4.494900
12.591400 4.540500
12.605800 4.598000
12.620100 4.720500
12.634400 4.859400
12.648700 4.935000
12.663100 4.986900
12.677400 5.020400
12.691700 5.006500
12.706100 4.895600
12.720400 4.816300
12.734700 4.771900
12.749000 4.756600
12.763400 4.758600
12.777700 4.766600
12.792000 4.780200
12.806400 4.788200
12.820700 4.794100
12.835000 4.805200
12.849300 4.844400
12.863700 4.876900
12.878000 4.854200
12.892300 4.861100
12.906700 4.878600
12.921000 4.884400
12.935300 4.892600
12.949700 4.914200
12.964000 4.942100
12.978300 4.966200
12.992600 4.998500
13.007000 5.043500
13.021300 5.091100
13.035600 5.152500
13.050000 5.155400
13.064300 5.209400
13.078600 5.282200
13.092900 5.320700
13.107300 5.366900
13.121600 5.342200
13.135900 5.331100
13.150300 5.323000
13.164600 5.262200
13.178900 5.124500
13.193300 4.940300
13.207600 4.787900
13.221900 4.676500
13.236200 4.603000
13.250600 4.584800
13.264900 4.585900
13.279200 4.606800
13.293600 4.634300
13.307900 4.659900
13.322200 4.678900
13.336500 4.696200
13.350900 4.760800
13.365200 4.858900
13.379500 4.958500
13.393900 5.063300
13.408200 5.158500
13.422500 5.234300
13.436800 5.291800
13.451200 5.339300
13.465500 5.319800
13.479800 5.255000
13.494200 5.192900
13.508500 5.154700
13.522800 5.110300
13.537200 5.061400
13.551500 5.000100
13.565800 4.870400
13.580100 4.789400
13.594500 4.744700
13.608800 4.727300
13.623100 4.750100
13.637500 4.786700
13.651800 4.841200
13.666100 4.939500
13.680400 5.046300
13.694800 5.161600
13.709100 5.300600
13.723400 5.448400
13.737800 5.586300
13.752100 5.719600
13.766400 5.768300
13.780700 5.766100
13.795100 5.726300
13.809400 5.640600
13.823700 5.459700
13.838100 5.295300
13.852400 5.170800
13.866700 5.036200
13.881100 4.982400
13.895400 4.902400
13.909700 4.708700
13.924000 4.574900
13.938400 4.458900
13.952700 4.408800
13.967000 4.397600
13.981400 4.461400
13.995700 4.585400
14.010000 4.707400
14.024300 4.917400
14.038700 5.122700
14.053000 5.323300
14.067300 5.515300
14.081700 5.672600
14.096000 5.788900
14.110300 5.877700
14.124600 5.918500
14.139000 5.876000
14.153300 5.788100
14.167600 5.677200
14.182000 5.560100
14.196300 5.452500
14.210600 5.355600
14.225000 5.287200
14.239300 5.244900
14.253600 5.224600
14.267900 5.216700
14.282300 5.226100
14.296600 5.253800
14.310900 5.321800
14.325300 5.399800
14.339600 5.461700
14.353900 5.549700
14.368200 5.591900
14.382600 5.628700
14.396900 5.669300
14.411200 5.640100
14.425600 5.615900
14.439900 5.603300
14.454200 5.548800
14.468600 5.474100
14.482900 5.420500
14.497200 5.481100
14.511500 5.559400
14.525900 5.528700
14.540200 5.505300
14.554500 5.637500
14.568900 5.655700
14.583200 5.704400
14.597500 5.954500
14.611800 6.170000
14.626200 6.289900
14.640500 6.024900
14.654800 5.797600
14.669200 5.673700
14.683500 5.581700
14.697800 5.494600
14.712100 5.352400
14.726500 5.226500
14.740800 5.189600
14.755100 5.176600
14.769500 5.165800
14.783800 5.159700
14.798100 5.157900
14.812500 5.222500
14.826800 5.401300
14.841100 5.639900
14.855400 5.739400
14.869800 6.049400
14.884100 6.189700
14.898400 6.211400
14.912800 6.273000
14.927100 6.191700
14.941400 6.039700
14.955700 5.854700
14.970100 5.675000
14.984400 5.515700
14.998700 5.449800
15.013100 5.451000
15.027400 5.470600
15.041700 5.483300
15.056000 5.485400
15.070400 5.270500
15.084700 5.258400
15.099000 5.262500
15.113400 5.276500
15.127700 5.293400
15.142000 5.193100
15.156400 5.205800
15.170700 5.272500
15.185000 5.332900
15.199300 5.367600
15.213700 5.388000
15.228000 5.327500
15.242300 5.220800
15.256700 5.140400
15.271000 5.127600
15.285300 5.219200
15.299600 5.348700
15.314000 5.512700
15.328300 5.710100
15.342600 5.865900
15.357000 5.979700
15.371300 6.070000
15.385600 6.047700
15.399900 5.989300
15.414300 5.987700
15.428600 6.018400
15.442900 6.036000
15.457300 6.041800
15.471600 6.040200
15.485900 5.996500
15.500300 5.963100
15.514600 5.888500
15.528900 5.827100
15.543200 5.808700
15.557600 5.751800
15.571900 5.678300
15.586200 5.594200
15.600600 5.431600
15.614900 5.196200
15.629200 5.082500
15.643500 4.996600
15.657900 4.941500
15.672200 4.912000
15.686500 4.893700
15.700900 4.890400
15.715200 4.905000
15.729500 4.995300
15.743900 5.148600
15.758200 5.278700
15.772500 5.367600
15.786800 5.471800
15.801200 5.609100
15.815500 5.726600
15.829800 5.840400
15.844200 5.827100
15.858500 5.778000
15.872800 5.723900
15.887100 5.534500
15.901500 5.405900
15.915800 5.306600
15.930100 5.298400
15.944500 5.279100
15.958800 5.236300
15.973100 5.214300
15.987400 5.207800
16.001800 5.197600
16.016100 5.170900
16.030400 5.114900
16.044800 5.093600
16.059100 5.156600
16.073400 5.257500
16.087800 5.312400
16.102100 5.336500
16.116400 5.344900
16.130700 5.387500
16.145100 5.454300
16.159400 5.521900
16.173700 5.566000
16.188100 5.596000
16.202400 5.661300
16.216700 5.761400
16.231000 5.791800
16.245400 5.759800
16.259700 5.607000
16.274000 5.522600
16.288400 5.536200
16.302700 5.588000
16.317000 5.603100
16.331300 5.563900
16.345700 5.481400
16.360000 5.471200
16.374300 5.452900
16.388700 5.458100
16.403000 5.487600
16.417300 5.543200
16.431700 5.578400
16.446000 5.612200
16.460300 5.633900
16.474600 5.598200
16.489000 5.500900
16.503300 5.428700
16.517600 5.433800
16.532000 5.491100
16.546300 5.481500
16.560600 5.436900
16.574900 5.338100
16.589300 5.250100
16.603600 5.088600
16.617900 4.953300
16.632300 4.850500
16.646600 4.835200
16.660900 4.863500
16.675200 4.907900
16.689600 4.930900
16.703900 4.963500
16.718200 5.003300
16.732600 5.052900
16.746900 5.155800
16.761200 5.144900
16.775600 5.142100
16.789900 5.160100
16.804200 5.028800
16.818500 5.016200
16.832900 5.019100
16.847200 5.146800
16.861500 5.247700
16.875900 5.357600
16.890200 5.455300
16.904500 5.599400
16.918800 5.677000
16.933200 5.808900
16.947500 5.816200
16.961800 5.702400
16.976200 5.702900
16.990500 5.753700
17.004800 5.799700
17.019100 5.859300
17.033500 5.968300
17.047800 6.444500
17.062100 6.416100
17.076500 6.400900
17.090800 6.460500
17.105100 6.514700
17.119500 6.501200
17.133800 6.379000
17.148100 6.190200
17.162400 6.119600
17.176800 6.077200
17.191100 6.056600
17.205400 6.021100
17.219800 5.979100
17.234100 5.917900
17.248400 5.823900
17.262700 5.739200
17.277100 5.764500
17.291400 5.893200
17.305700 5.994800
17.320100 6.092400
17.334400 6.220100
17.348700 6.323700
17.363100 6.332500
17.377400 6.316500
17.391700 6.320600
17.406000 6.320300
17.420400 6.346100
17.434700 6.317200
17.449000 6.270600
17.463400 6.225300
17.477700 6.208100
17.492000 6.181300
17.506300 6.163200
17.520700 6.150700
17.535000 6.113100
17.549300 6.081200
17.563700 6.162800
17.578000 6.166400
17.592300 6.127700
17.606600 6.140700
17.621000 6.188900
17.635300 6.250000
17.649600 6.253200
17.664000 6.297200
17.678300 6.383500
17.692600 6.359200
17.707000 6.335400
17.721300 6.291500
17.735600 6.236900
17.749900 6.144600
17.764300 6.061800
17.778600 5.934700
17.792900 5.827200
17.807300 5.765200
17.821600 5.750500
17.835900 5.756200
17.850200 5.844900
17.864600 5.838100
17.878900 5.842800
17.893200 5.787100
17.907600 5.723100
17.921900 5.658200
17.936200 5.541000
17.950500 5.457000
17.964900 5.349100
17.979200 5.281500
17.993500 5.259600
18.007900 5.283700
18.022200 5.323300
18.036500 5.351000
18.050900 5.348400
18.065200 5.336300
18.079500 5.345800
18.093800 5.346300
18.108200 5.167500
18.122500 5.054500
18.136800 4.965300
18.151200 4.872900
18.165500 4.776000
18.179800 4.682300
18.194100 4.578500
18.208500 4.449700
18.222800 4.372200
18.237100 4.326800
18.251500 4.270200
18.265800 4.212700
18.280100 4.152100
18.294400 4.087700
18.308800 4.022500
18.323100 3.976300
18.337400 3.987600
18.351800 3.911800
18.366100 3.727600
18.380400 3.538000
18.394800 3.344400
18.409100 3.198500
18.423400 3.123800
18.437700 3.059900
18.452100 3.006600
18.466400 2.963800
18.480700 2.932600
18.495100 2.903300
18.509400 2.863800
18.523700 2.811600
18.538000 2.748600
18.552400 2.678100
18.566700 2.599000
18.581000 2.508000
18.595400 2.404400
18.609700 2.304600
18.624000 2.208400
18.638400 2.109100
18.652700 2.022600
18.667000 1.927000
18.681300 1.839800
18.695700 1.760000
18.710000 1.675600
18.724300 1.587500
18.738700 1.490100
18.753000 1.427600
18.767300 1.412700
18.781600 1.429000
18.796000 1.579100
18.810300 1.554800
18.824600 1.458300
18.839000 1.188200
18.853300 1.138000
18.867600 1.097900
18.881900 1.049900
18.896300 0.999900
18.910600 1.005600
18.924900 0.773500
18.939300 0.680600
18.953600 0.605900
18.967900 0.535800
18.982300 0.471400
18.996600 0.410400
19.010900 0.351000
19.025200 0.293300
19.039600 0.245200
19.053900 0.207300
19.068200 0.177600
19.082600 0.153600
19.096900 0.132600
19.111200 0.114800
19.125500 0.100100
19.139900 0.086900
19.154200 0.074600
19.168500 0.063100
19.182900 0.053100
19.197200 0.044800
19.211500 0.038300
19.225800 0.033300
19.240200 0.028700
19.254500 0.024500
19.268800 0.020600
19.283200 0.017100
19.297500 0.013900
19.311800 0.011000
19.326200 0.008400
19.340500 0.006200
19.354800 0.004300
19.369100 0.002800
19.383500 0.001600
19.397800 0.000700
19.412100 0.000200
19.426500 0.000000
19.440800 0.000000
19.455100 0.000000
19.469400 0.000000
19.483800 0.000000
19.498100 0.000000
19.512400 0.000000
19.526800 0.000000
19.541100 0.000000
19.555400 0.000000
19.569700 0.000000
19.584100 0.000000
19.598400 0.000000
19.612700 0.000000
19.627100 0.000000
19.641400 0.000000
19.655700 0.000000
19.670100 0.000000
19.684400 0.000000
19.698700 0.000000
19.713000 0.000000
19.727400 0.000000
19.741700 0.000000
19.756000 0.000000
19.770400 0.000000
19.784700 0.000000
19.799000 0.000000
19.813300 0.000000
19.827700 0.000000
19.842000 0.000000
19.856300 0.000000
19.870700 0.000000
19.885000 0.000000
19.899300 0.000000
19.913700 0.000000
19.928000 0.000000
19.942300 0.000000
19.956600 0.000000
19.971000 0.000000
19.985300 0.000000
19.999600 0.000000
20.014000 0.000000
20.028300 0.000000
20.042600 0.000000
20.056900 0.000000
20.071300 0.000000
20.085600 0.000000
20.099900 0.000000
20.114300 0.000000
20.128600 0.000000
20.142900 0.000000
20.157200 0.000000
20.171600 0.000000
20.185900 0.000000
20.200200 0.000000
20.214600 0.000000
20.228900 0.000000
20.243200 0.000000
20.257600 0.000000
20.271900 0.000000
20.286200 0.000000
20.300500 0.000000
20.314900 0.000000
20.329200 0.000000
20.343500 0.000000
20.357900 0.000000
20.372200 0.000000
20.386500 0.000000
20.400800 0.000000
20.415200 0.000000
20.429500 0.000000
20.443800 0.000000
20.458200 0.000000
20.472500 0.000000
20.486800 0.000000
20.501100 0.000000
20.515500 0.000000
20.529800 0.000000
20.544100 0.000000
20.558500 0.000000
20.572800 0.000000
20.587100 0.000000
20.601500 0.000000
20.615800 0.000000
20.630100 0.000000
20.644400 0.000000
20.658800 0.000000
20.673100 0.000000
20.687400 0.000000
20.701800 0.000000
20.716100 0.000000
20.730400 0.000000
e
