set title 'mp-685048 - Density of States'
set xlabel 'Energy (eV)'
set ylabel 'DOS (states/eV)'
set grid
set xrange [-10:10]
set yrange [0:110.920]
set xzeroaxis lt -1
set terminal png size 800,600
set output 'mp-685048_dos_gnuplot.png'
plot '-' using 1:2 with lines title 'DOS'
-9.874900 0.000000
-9.861600 0.000000
-9.848300 0.000000
-9.835000 0.000000
-9.821600 0.000000
-9.808300 0.000000
-9.795000 0.000000
-9.781700 0.000000
-9.768400 0.000000
-9.755000 0.000000
-9.741700 0.000000
-9.728400 0.000000
-9.715100 0.000000
-9.701800 0.000000
-9.688400 0.000000
-9.675100 0.000000
-9.661800 0.000000
-9.648500 0.000000
-9.635200 0.000000
-9.621800 0.000000
-9.608500 0.000000
-9.595200 0.000000
-9.581900 0.000000
-9.568500 0.000000
-9.555200 0.000000
-9.541900 0.000000
-9.528600 0.000000
-9.515300 0.000000
-9.501900 0.000000
-9.488600 0.000000
-9.475300 0.000000
-9.462000 0.000000
-9.448700 0.000000
-9.435300 0.000000
-9.422000 0.000000
-9.408700 0.000000
-9.395400 0.000000
-9.382100 0.000000
-9.368700 0.000000
-9.355400 0.000000
-9.342100 0.000000
-9.328800 0.000000
-9.315500 0.000000
-9.302100 0.000000
-9.288800 0.000000
-9.275500 0.000000
-9.262200 0.000000
-9.248900 0.000000
-9.235500 0.000000
-9.222200 0.000000
-9.208900 0.000000
-9.195600 0.000000
-9.182300 0.000000
-9.168900 0.000000
-9.155600 0.000000
-9.142300 0.000000
-9.129000 0.000000
-9.115700 0.000000
-9.102300 0.000000
-9.089000 0.000000
-9.075700 0.000000
-9.062400 0.000000
-9.049100 0.000000
-9.035700 0.000000
-9.022400 0.000000
-9.009100 0.000000
-8.995800 0.000000
-8.982400 0.000000
-8.969100 0.000000
-8.955800 0.000000
-8.942500 0.000000
-8.929200 0.000000
-8.915800 0.000000
-8.902500 0.000000
-8.889200 0.000000
-8.875900 0.000000
-8.862600 0.000000
-8.849200 0.000000
-8.835900 0.000000
-8.822600 0.000000
-8.809300 0.000000
-8.796000 0.000000
-8.782600 0.000000
-8.769300 0.000000
-8.756000 0.000000
-8.742700 0.000000
-8.729400 0.000000
-8.716000 0.000000
-8.702700 0.000000
-8.689400 0.000000
-8.676100 0.000000
-8.662800 0.108300
-8.649400 1.299800
-8.636100 2.491200
-8.622800 1.736900
-8.609500 1.859900
-8.596200 1.982800
-8.582800 2.105800
-8.569500 2.228700
-8.556200 2.258700
-8.542900 2.230100
-8.529600 2.240400
-8.516200 2.303100
-8.502900 2.377200
-8.489600 2.451300
-8.476300 2.525400
-8.463000 2.603300
-8.449600 2.707200
-8.436300 2.801800
-8.423000 2.926400
-8.409700 3.033400
-8.396300 3.140400
-8.383000 3.246300
-8.369700 3.352100
-8.356400 3.457800
-8.343100 3.800100
-8.329700 6.319900
-8.316400 7.149900
-8.303100 7.538200
-8.289800 8.182500
-8.276500 8.847700
-8.263100 9.450000
-8.249800 11.019800
-8.236500 15.384800
-8.223200 15.676900
-8.209900 15.162600
-8.196500 12.499200
-8.183200 11.120600
-8.169900 4.672200
-8.156600 4.961200
-8.143300 5.244300
-8.129900 5.691100
-8.116600 6.521000
-8.103300 7.934200
-8.090000 12.063200
-8.076700 13.064100
-8.063300 27.167300
-8.050000 17.787600
-8.036700 17.132000
-8.023400 13.805100
-8.010100 3.730300
-7.996700 3.926200
-7.983400 4.122000
-7.970100 4.381200
-7.956800 4.680200
-7.943500 4.972700
-7.930100 5.263400
-7.916800 5.553600
-7.903500 6.255000
-7.890200 7.008500
-7.876900 8.208300
-7.863500 9.351000
-7.850200 11.277000
-7.836900 18.463100
-7.823600 17.909400
-7.810200 14.071100
-7.796900 0.000000
-7.783600 0.000000
-7.770300 0.000000
-7.757000 0.000000
-7.743600 0.000000
-7.730300 0.000000
-7.717000 0.000000
-7.703700 0.000000
-7.690400 0.000000
-7.677000 0.000000
-7.663700 0.223100
-7.650400 1.632100
-7.637100 3.041100
-7.623800 1.922500
-7.610400 2.065400
-7.597100 2.208300
-7.583800 2.351300
-7.570500 2.433000
-7.557200 2.396800
-7.543800 2.382300
-7.530500 2.441500
-7.517200 2.523200
-7.503900 2.604900
-7.490600 2.686600
-7.477200 4.569100
-7.463900 6.862200
-7.450600 5.453900
-7.437300 5.787300
-7.424000 6.120800
-7.410600 6.373300
-7.397300 6.418600
-7.384000 6.602900
-7.370700 6.902300
-7.357400 7.307600
-7.344000 7.658500
-7.330700 9.003700
-7.317400 13.226400
-7.304100 12.544100
-7.290800 13.489500
-7.277400 14.469700
-7.264100 15.685300
-7.250800 18.075800
-7.237500 25.948700
-7.224100 28.515900
-7.210800 26.513700
-7.197500 30.344600
-7.184200 37.239100
-7.170900 29.678800
-7.157500 30.066200
-7.144200 23.005500
-7.130900 24.887300
-7.117600 38.074200
-7.104300 42.511100
-7.090900 40.279800
-7.077600 27.835000
-7.064300 0.000000
-7.051000 0.000000
-7.037700 0.000000
-7.024300 0.000000
-7.011000 0.000000
-6.997700 0.000000
-6.984400 0.000000
-6.971100 0.000000
-6.957700 0.000000
-6.944400 0.000000
-6.931100 0.000000
-6.917800 0.000000
-6.904500 0.000000
-6.891100 0.000000
-6.877800 0.000000
-6.864500 0.000000
-6.851200 0.000000
-6.837900 0.000000
-6.824500 0.000000
-6.811200 0.000000
-6.797900 0.000000
-6.784600 0.000000
-6.771300 0.000000
-6.757900 0.000000
-6.744600 0.000000
-6.731300 0.000000
-6.718000 0.000000
-6.704700 0.000000
-6.691300 0.000000
-6.678000 0.000000
-6.664700 0.000000
-6.651400 0.000000
-6.638000 0.000000
-6.624700 0.000000
-6.611400 0.000000
-6.598100 0.000000
-6.584800 0.000000
-6.571400 0.000000
-6.558100 0.000000
-6.544800 0.000000
-6.531500 0.000000
-6.518200 0.000000
-6.504800 0.000000
-6.491500 0.000000
-6.478200 0.000000
-6.464900 0.000000
-6.451600 0.000000
-6.438200 0.000000
-6.424900 0.000000
-6.411600 0.000000
-6.398300 0.000000
-6.385000 0.000000
-6.371600 0.000000
-6.358300 0.000000
-6.345000 0.000000
-6.331700 0.000000
-6.318400 0.000000
-6.305000 0.000000
-6.291700 0.000000
-6.278400 0.000000
-6.265100 0.000000
-6.251800 0.000000
-6.238400 0.000000
-6.225100 0.000000
-6.211800 0.000000
-6.198500 0.000000
-6.185200 0.000000
-6.171800 0.000000
-6.158500 0.000000
-6.145200 0.000000
-6.131900 0.000000
-6.118500 0.000000
-6.105200 0.000000
-6.091900 0.000000
-6.078600 0.000000
-6.065300 0.000000
-6.051900 0.000000
-6.038600 0.000000
-6.025300 0.000000
-6.012000 0.000000
-5.998700 0.000000
-5.985300 0.000000
-5.972000 0.000000
-5.958700 0.000000
-5.945400 0.000000
-5.932100 0.000000
-5.918700 0.000000
-5.905400 0.000000
-5.892100 0.000000
-5.878800 0.000000
-5.865500 0.000000
-5.852100 0.000000
-5.838800 0.000000
-5.825500 0.000000
-5.812200 0.000000
-5.798900 0.000000
-5.785500 0.000000
-5.772200 0.000000
-5.758900 0.000000
-5.745600 0.000000
-5.732300 0.000000
-5.718900 0.000000
-5.705600 0.000000
-5.692300 0.000000
-5.679000 0.000000
-5.665700 0.000000
-5.652300 0.000000
-5.639000 0.000000
-5.625700 0.000000
-5.612400 0.000000
-5.599100 0.000000
-5.585700 0.000000
-5.572400 0.000000
-5.559100 0.000000
-5.545800 0.000000
-5.532400 0.000000
-5.519100 0.000000
-5.505800 0.000000
-5.492500 0.000000
-5.479200 0.000000
-5.465800 0.000000
-5.452500 0.000000
-5.439200 0.000000
-5.425900 0.000000
-5.412600 0.000000
-5.399200 0.000000
-5.385900 0.000000
-5.372600 0.000000
-5.359300 0.000000
-5.346000 0.000000
-5.332600 0.000000
-5.319300 0.000000
-5.306000 0.000000
-5.292700 0.000000
-5.279400 0.000000
-5.266000 0.000000
-5.252700 0.000000
-5.239400 0.000000
-5.226100 0.000000
-5.212800 0.000000
-5.199400 0.000000
-5.186100 0.000000
-5.172800 0.000000
-5.159500 0.000000
-5.146200 0.000000
-5.132800 0.000000
-5.119500 0.000000
-5.106200 0.000000
-5.092900 0.000000
-5.079600 0.000000
-5.066200 0.000000
-5.052900 0.000000
-5.039600 0.000000
-5.026300 0.000000
-5.013000 0.000000
-4.999600 0.000000
-4.986300 0.000000
-4.973000 0.000000
-4.959700 0.000000
-4.946300 0.000000
-4.933000 0.000000
-4.919700 0.000000
-4.906400 0.000000
-4.893100 0.000000
-4.879700 0.000000
-4.866400 0.000000
-4.853100 0.000000
-4.839800 0.000000
-4.826500 0.000000
-4.813100 0.000000
-4.799800 0.000000
-4.786500 0.000000
-4.773200 0.000000
-4.759900 0.000000
-4.746500 0.000000
-4.733200 0.000000
-4.719900 0.000000
-4.706600 0.000000
-4.693300 0.000000
-4.679900 0.000000
-4.666600 0.000000
-4.653300 0.000000
-4.640000 0.000000
-4.626700 0.000000
-4.613300 0.000000
-4.600000 0.000000
-4.586700 0.000000
-4.573400 0.000000
-4.560100 0.000000
-4.546700 0.000000
-4.533400 0.000000
-4.520100 0.000000
-4.506800 0.000000
-4.493500 0.000000
-4.480100 0.000000
-4.466800 0.000000
-4.453500 0.000000
-4.440200 0.000000
-4.426900 0.000000
-4.413500 0.000000
-4.400200 0.000000
-4.386900 0.000000
-4.373600 0.000000
-4.360200 0.000000
-4.346900 0.000000
-4.333600 0.000000
-4.320300 0.000000
-4.307000 0.000000
-4.293600 0.000000
-4.280300 0.000000
-4.267000 0.000000
-4.253700 0.000000
-4.240400 0.000000
-4.227000 0.000000
-4.213700 0.000000
-4.200400 0.000000
-4.187100 0.000000
-4.173800 0.000000
-4.160400 0.000000
-4.147100 0.000000
-4.133800 0.000000
-4.120500 0.000000
-4.107200 0.000000
-4.093800 0.000000
-4.080500 0.000000
-4.067200 0.000000
-4.053900 0.000000
-4.040600 0.000000
-4.027200 0.000000
-4.013900 0.000000
-4.000600 0.000000
-3.987300 0.000000
-3.974000 0.000000
-3.960600 0.000000
-3.947300 0.000000
-3.934000 0.000000
-3.920700 0.000000
-3.907400 0.000000
-3.894000 0.000000
-3.880700 0.000000
-3.867400 0.000000
-3.854100 0.000000
-3.840800 0.000000
-3.827400 0.000000
-3.814100 0.000000
-3.800800 0.000000
-3.787500 0.000000
-3.774100 0.000000
-3.760800 0.000000
-3.747500 0.000000
-3.734200 0.000000
-3.720900 0.000000
-3.707500 0.000000
-3.694200 0.000000
-3.680900 0.000000
-3.667600 0.000000
-3.654300 0.000000
-3.640900 0.000000
-3.627600 0.000000
-3.614300 0.000000
-3.601000 0.000000
-3.587700 0.000000
-3.574300 0.000000
-3.561000 0.000000
-3.547700 0.000000
-3.534400 0.000000
-3.521100 0.000000
-3.507700 0.000000
-3.494400 0.000000
-3.481100 0.000000
-3.467800 0.000000
-3.454500 0.000000
-3.441100 0.000000
-3.427800 0.000000
-3.414500 0.000000
-3.401200 0.000000
-3.387900 0.000000
-3.374500 0.000000
-3.361200 0.000000
-3.347900 0.000000
-3.334600 0.000000
-3.321300 0.000000
-3.307900 0.000000
-3.294600 0.000000
-3.281300 0.000000
-3.268000 0.000000
-3.254700 0.000000
-3.241300 0.000000
-3.228000 0.000000
-3.214700 0.000000
-3.201400 0.000000
-3.188000 0.000000
-3.174700 0.000000
-3.161400 0.000000
-3.148100 0.000000
-3.134800 0.000000
-3.121400 0.000000
-3.108100 0.000000
-3.094800 0.000000
-3.081500 0.000000
-3.068200 0.000000
-3.054800 0.000000
-3.041500 0.000000
-3.028200 0.000000
-3.014900 0.000000
-3.001600 0.000000
-2.988200 0.000000
-2.974900 0.000000
-2.961600 0.000000
-2.948300 0.000000
-2.935000 0.000000
-2.921600 0.000000
-2.908300 0.000000
-2.895000 0.000000
-2.881700 2.689800
-2.868400 10.923700
-2.855000 11.992500
-2.841700 13.579400
-2.828400 18.971900
-2.815100 14.770200
-2.801800 11.135000
-2.788400 9.744600
-2.775100 7.994100
-2.761800 7.589900
-2.748500 7.033400
-2.735200 6.109900
-2.721800 3.093700
-2.708500 2.526300
-2.695200 2.379800
-2.681900 2.273400
-2.668600 3.678800
-2.655200 8.669700
-2.641900 8.411600
-2.628600 8.823800
-2.615300 11.672600
-2.601900 23.578600
-2.588600 16.958000
-2.575300 17.023600
-2.562000 19.160000
-2.548700 15.396100
-2.535300 9.116100
-2.522000 6.017400
-2.508700 5.104800
-2.495400 4.741000
-2.482100 4.636400
-2.468700 3.625800
-2.455400 1.110600
-2.442100 0.178700
-2.428800 2.755400
-2.415500 5.571900
-2.402100 3.655400
-2.388800 4.473900
-2.375500 7.495200
-2.362200 19.688900
-2.348900 43.120900
-2.335500 25.741100
-2.322200 13.716900
-2.308900 9.357600
-2.295600 14.196200
-2.282300 13.371600
-2.268900 9.838900
-2.255600 9.242200
-2.242300 13.971700
-2.229000 18.161600
-2.215700 18.135300
-2.202300 21.251500
-2.189000 24.656400
-2.175700 25.966800
-2.162400 21.792400
-2.149100 13.227000
-2.135700 17.583100
-2.122400 17.204100
-2.109100 23.285200
-2.095800 18.976500
-2.082500 25.060700
-2.069100 23.135200
-2.055800 27.313800
-2.042500 46.250300
-2.029200 43.591900
-2.015800 30.181900
-2.002500 15.876800
-1.989200 14.768800
-1.975900 13.575700
-1.962600 23.433100
-1.949200 21.377200
-1.935900 24.975500
-1.922600 39.969000
-1.909300 27.627500
-1.896000 24.305300
-1.882600 22.847400
-1.869300 23.559500
-1.856000 28.500100
-1.842700 26.081700
-1.829400 38.884000
-1.816000 41.836600
-1.802700 34.835300
-1.789400 51.125900
-1.776100 40.185500
-1.762800 32.719700
-1.749400 32.168000
-1.736100 29.807800
-1.722800 42.648200
-1.709500 38.330000
-1.696200 31.287600
-1.682800 35.451700
-1.669500 35.547000
-1.656200 44.036200
-1.642900 28.575300
-1.629600 28.757300
-1.616200 50.695400
-1.602900 44.811200
-1.589600 52.798000
-1.576300 46.331700
-1.563000 43.626200
-1.549600 55.136700
-1.536300 20.286800
-1.523000 22.551400
-1.509700 42.361400
-1.496400 88.072000
-1.483000 39.362100
-1.469700 35.189200
-1.456400 46.959300
-1.443100 51.969500
-1.429700 77.589200
-1.416400 47.023200
-1.403100 44.332700
-1.389800 72.126900
-1.376500 58.626500
-1.363100 70.696700
-1.349800 53.847900
-1.336500 43.816500
-1.323200 61.198400
-1.309900 64.543800
-1.296500 58.607400
-1.283200 52.843700
-1.269900 35.944200
-1.256600 88.175400
-1.243300 61.669700
-1.229900 36.613700
-1.216600 45.202000
-1.203300 77.358700
-1.190000 47.791100
-1.176700 51.105900
-1.163300 54.573400
-1.150000 52.285500
-1.136700 32.275700
-1.123400 40.407700
-1.110100 86.982000
-1.096700 39.104700
-1.083400 28.067100
-1.070100 81.908300
-1.056800 46.682300
-1.043500 73.340200
-1.030100 38.121200
-1.016800 72.569400
-1.003500 74.258000
-0.990200 50.804300
-0.976900 90.729100
-0.963500 43.830200
-0.950200 73.296800
-0.936900 55.276900
-0.923600 61.416400
-0.910300 49.592700
-0.896900 66.445100
-0.883600 55.731800
-0.870300 79.939000
-0.857000 80.969300
-0.843600 78.687500
-0.830300 55.359400
-0.817000 73.829100
-0.803700 44.811100
-0.790400 49.330600
-0.777000 71.750100
-0.763700 74.468600
-0.750400 52.858700
-0.737100 64.200900
-0.723800 59.010400
-0.710400 87.555800
-0.697100 78.707100
-0.683800 58.945800
-0.670500 76.737600
-0.657200 91.484900
-0.643800 58.818200
-0.630500 65.919400
-0.617200 45.195800
-0.603900 87.053000
-0.590600 50.934100
-0.577200 89.219800
-0.563900 77.930900
-0.550600 73.962600
-0.537300 66.118100
-0.524000 76.120700
-0.510600 56.260100
-0.497300 75.537200
-0.484000 58.129400
-0.470700 82.335100
-0.457400 88.376000
-0.444000 78.901900
-0.430700 88.610900
-0.417400 65.333400
-0.404100 69.226300
-0.390800 66.604600
-0.377400 73.198800
-0.364100 64.472000
-0.350800 100.836800
-0.337500 56.292500
-0.324200 74.551700
-0.310800 66.760900
-0.297500 60.955900
-0.284200 65.704300
-0.270900 78.923800
-0.257500 86.471600
-0.244200 84.975300
-0.230900 47.202400
-0.217600 39.567800
-0.204300 48.137000
-0.190900 55.712500
-0.177600 35.320400
-0.164300 27.135900
-0.151000 46.268900
-0.137700 41.406700
-0.124300 54.485300
-0.111000 33.380400
-0.097700 38.910000
-0.084400 58.739200
-0.071100 24.005000
-0.057700 32.112900
-0.044400 48.978000
-0.031100 44.015500
-0.017800 33.422000
-0.004500 30.885100
0.008900 38.725400
0.022200 45.994000
0.035500 40.244700
0.048800 50.561300
0.062100 35.611400
0.075500 42.289600
0.088800 82.490200
0.102100 33.890800
0.115400 67.241600
0.128700 58.746100
0.142100 35.263300
0.155400 38.818300
0.168700 93.908600
0.182000 65.709700
0.195300 53.838100
0.208700 49.791800
0.222000 55.335000
0.235300 54.195000
0.248600 44.243300
0.261900 48.175100
0.275300 76.496300
0.288600 88.813200
0.301900 43.172500
0.315200 33.289500
0.328600 41.789500
0.341900 37.474900
0.355200 40.267900
0.368500 45.193800
0.381800 29.360500
0.395200 53.713400
0.408500 37.729400
0.421800 42.090000
0.435100 36.376800
0.448400 36.632600
0.461800 23.144300
0.475100 24.880800
0.488400 29.882500
0.501700 31.678600
0.515000 30.011900
0.528400 16.760400
0.541700 14.237600
0.555000 11.135100
0.568300 13.897000
0.581600 11.678400
0.595000 10.383800
0.608300 17.964700
0.621600 14.117000
0.634900 14.835100
0.648200 18.066400
0.661600 18.040600
0.674900 21.846000
0.688200 18.481200
0.701500 16.020200
0.714800 16.182500
0.728200 16.769400
0.741500 17.185000
0.754800 17.605800
0.768100 20.308300
0.781400 20.836700
0.794800 19.731100
0.808100 21.601400
0.821400 19.813600
0.834700 19.348100
0.848000 21.275600
0.861400 24.204000
0.874700 15.130400
0.888000 15.266100
0.901300 14.223700
0.914700 13.510300
0.928000 13.042100
0.941300 12.457500
0.954600 12.113600
0.967900 11.661300
0.981300 11.234000
0.994600 11.099000
1.007900 10.953400
1.021200 10.715400
1.034500 10.873700
1.047900 11.434900
1.061200 12.068500
1.074500 12.669800
1.087800 23.775600
1.101100 12.218000
1.114500 11.091000
1.127800 10.411300
1.141100 10.730500
1.154400 11.062500
1.167700 11.065400
1.181100 10.179400
1.194400 9.733500
1.207700 9.624700
1.221000 9.508900
1.234300 9.566100
1.247700 12.097200
1.261000 12.376600
1.274300 12.743500
1.287600 12.492600
1.300900 10.206300
1.314300 9.618400
1.327600 9.436100
1.340900 9.307900
1.354200 9.666400
1.367500 10.150100
1.380900 10.922400
1.394200 11.488000
1.407500 11.167900
1.420800 11.368700
1.434100 11.726500
1.447500 11.645900
1.460800 12.454500
1.474100 12.234500
1.487400 12.323600
1.500800 12.357400
1.514100 12.310700
1.527400 12.750300
1.540700 12.576400
1.554000 12.406100
1.567400 12.063000
1.580700 11.876000
1.594000 11.771100
1.607300 11.799100
1.620600 11.813500
1.634000 13.135200
1.647300 13.324500
1.660600 11.870500
1.673900 12.087300
1.687200 12.455500
1.700600 12.824100
1.713900 13.206900
1.727200 13.224100
1.740500 13.305500
1.753800 13.219000
1.767200 12.425100
1.780500 12.014700
1.793800 12.215300
1.807100 12.956000
1.820400 13.296700
1.833800 12.996800
1.847100 12.778300
1.860400 12.803800
1.873700 12.878000
1.887000 12.547400
1.900400 12.063300
1.913700 11.789800
1.927000 11.590600
1.940300 11.359100
1.953600 11.182700
1.967000 13.075700
1.980300 13.060600
1.993600 13.213700
2.006900 13.466200
2.020200 12.709900
2.033600 12.372800
2.046900 12.556600
2.060200 12.194700
2.073500 11.999500
2.086900 11.518100
2.100200 11.415100
2.113500 11.312100
2.126800 11.224800
2.140100 11.157500
2.153500 13.452400
2.166800 11.510400
2.180100 11.154000
2.193400 13.106700
2.206700 13.932900
2.220100 13.668200
2.233400 14.125900
2.246700 13.612400
2.260000 13.177800
2.273300 12.619600
2.286700 11.618600
2.300000 11.542400
2.313300 12.294200
2.326600 12.688300
2.339900 12.585000
2.353300 13.088600
2.366600 13.803700
2.379900 13.811700
2.393200 13.455500
2.406500 12.958400
2.419900 12.655300
2.433200 12.296700
2.446500 12.210900
2.459800 12.063200
2.473100 12.217900
2.486500 12.387600
2.499800 12.041900
2.513100 12.184500
2.526400 12.235100
2.539700 12.124900
2.553100 12.142300
2.566400 12.979700
2.579700 12.662200
2.593000 12.536300
2.606300 12.619300
2.619700 12.698300
2.633000 12.718100
2.646300 12.771900
2.659600 12.617100
2.673000 12.349100
2.686300 11.965900
2.699600 12.319200
2.712900 12.183800
2.726200 12.028400
2.739600 11.885600
2.752900 11.743200
2.766200 12.443200
2.779500 12.361600
2.792800 12.298400
2.806200 12.288400
2.819500 12.039700
2.832800 11.739500
2.846100 11.554800
2.859400 11.449100
2.872800 11.334800
2.886100 11.170000
2.899400 11.200600
2.912700 10.984300
2.926000 10.740700
2.939400 10.519900
2.952700 10.282000
2.966000 10.118900
2.979300 9.991800
2.992600 9.647500
3.006000 9.356600
3.019300 8.973000
3.032600 8.668300
3.045900 8.535400
3.059200 8.804500
3.072600 9.264000
3.085900 9.245300
3.099200 8.908100
3.112500 8.586200
3.125800 7.860500
3.139200 7.667600
3.152500 7.569000
3.165800 7.349700
3.179100 7.257500
3.192400 7.146000
3.205800 7.129100
3.219100 7.086500
3.232400 6.922200
3.245700 6.439000
3.259100 6.098100
3.272400 6.174800
3.285700 6.484400
3.299000 7.555400
3.312300 7.565700
3.325700 7.629700
3.339000 6.305600
3.352300 6.362200
3.365600 6.408900
3.378900 6.247100
3.392300 5.541600
3.405600 5.903300
3.418900 6.595400
3.432200 5.910000
3.445500 5.202500
3.458900 4.634200
3.472200 4.547900
3.485500 4.458800
3.498800 4.428300
3.512100 5.604300
3.525500 6.149000
3.538800 6.669100
3.552100 4.830500
3.565400 4.317900
3.578700 4.361600
3.592100 4.093100
3.605400 3.913000
3.618700 3.919800
3.632000 4.030500
3.645300 3.944900
3.658700 3.893700
3.672000 3.815700
3.685300 3.897000
3.698600 3.951800
3.711900 3.833100
3.725300 4.142300
3.738600 4.249800
3.751900 4.457900
3.765200 4.753900
3.778500 5.049800
3.791900 4.647000
3.805200 4.699600
3.818500 4.736800
3.831800 4.774000
3.845200 6.648300
3.858500 6.699700
3.871800 6.264900
3.885100 5.642800
3.898400 4.852400
3.911800 4.061800
3.925100 3.337300
3.938400 3.060200
3.951700 3.536500
3.965000 3.520100
3.978400 3.404100
3.991700 3.313400
4.005000 3.245600
4.018300 3.085100
4.031600 2.943000
4.045000 2.960600
4.058300 3.010500
4.071600 3.065700
4.084900 3.108600
4.098200 3.327500
4.111600 3.561600
4.124900 3.631600
4.138200 3.701700
4.151500 3.778200
4.164800 3.913800
4.178200 4.058000
4.191500 4.198500
4.204800 4.417300
4.218100 4.514900
4.231400 4.573000
4.244800 4.631200
4.258100 4.666700
4.271400 4.730700
4.284700 4.802800
4.298000 4.859900
4.311400 4.787000
4.324700 5.024800
4.338000 4.933900
4.351300 4.861300
4.364600 4.857500
4.378000 5.020300
4.391300 5.321800
4.404600 5.596300
4.417900 5.101900
4.431300 5.040600
4.444600 4.981300
4.457900 4.931600
4.471200 4.903400
4.484500 5.056000
4.497900 5.072700
4.511200 5.085600
4.524500 5.103000
4.537800 5.122900
4.551100 5.345600
4.564500 6.919800
4.577800 7.660800
4.591100 6.917500
4.604400 6.025700
4.617700 5.843800
4.631100 5.811600
4.644400 5.610600
4.657700 5.866900
4.671000 5.876000
4.684300 5.286900
4.697700 4.964200
4.711000 5.146800
4.724300 5.396300
4.737600 5.212300
4.750900 4.926500
4.764300 4.634400
4.777600 4.355700
4.790900 4.291700
4.804200 4.325100
4.817500 4.429900
4.830900 4.606600
4.844200 4.903200
4.857500 5.119800
4.870800 5.352700
4.884100 5.464200
4.897500 5.575600
4.910800 5.687000
4.924100 5.792400
4.937400 5.845700
4.950700 5.892800
4.964100 5.955700
4.977400 6.049600
4.990700 6.105400
5.004000 6.613100
5.017400 6.449600
5.030700 6.430400
5.044000 6.467100
5.057300 6.498500
5.070600 6.387700
5.084000 6.194300
5.097300 6.005000
5.110600 5.913800
5.123900 5.958000
5.137200 6.002100
5.150600 6.036900
5.163900 5.964700
5.177200 5.849000
5.190500 5.769500
5.203800 5.673800
5.217200 5.481200
5.230500 5.418600
5.243800 5.679800
5.257100 5.745600
5.270400 5.794500
5.283800 6.329000
5.297100 7.287100
5.310400 7.576300
5.323700 7.681900
5.337000 7.507900
5.350400 7.522900
5.363700 7.655300
5.377000 7.795400
5.390300 8.030100
5.403600 8.669000
5.417000 9.642300
5.430300 8.964100
5.443600 8.310800
5.456900 7.992300
5.470200 8.222300
5.483600 8.170000
5.496900 8.097100
5.510200 7.036200
5.523500 7.930600
5.536800 8.083100
5.550200 7.953300
5.563500 7.803000
5.576800 7.647600
5.590100 7.605200
5.603500 8.069800
5.616800 8.436200
5.630100 8.736600
5.643400 9.693700
5.656700 5.634400
5.670100 5.555900
5.683400 5.909600
5.696700 6.617300
5.710000 6.560200
5.723300 6.565800
5.736700 9.378700
5.750000 9.662000
5.763300 10.334000
5.776600 10.970400
5.789900 11.405900
5.803300 11.676500
5.816600 12.116600
5.829900 10.824100
5.843200 10.263900
5.856500 11.053200
5.869900 9.274000
5.883200 8.900100
5.896500 8.098400
5.909800 7.339800
5.923100 8.770300
5.936500 7.242600
5.949800 6.787300
5.963100 7.219300
5.976400 7.220900
5.989700 7.633400
6.003100 7.697800
6.016400 7.997000
6.029700 8.319400
6.043000 8.756900
6.056300 9.323200
6.069700 9.986200
6.083000 10.823500
6.096300 14.051500
6.109600 8.629700
6.122900 7.091800
6.136300 7.212600
6.149600 7.526000
6.162900 7.612200
6.176200 7.957700
6.189600 8.275300
6.202900 8.001300
6.216200 7.419200
6.229500 6.265000
6.242800 6.402000
6.256200 9.055400
6.269500 8.799100
6.282800 8.589600
6.296100 7.871200
6.309400 7.833700
6.322800 8.403000
6.336100 8.803400
6.349400 7.989400
6.362700 7.599900
6.376000 7.296700
6.389400 7.311700
6.402700 7.209100
6.416000 7.409200
6.429300 7.407700
6.442600 7.465900
6.456000 7.836600
6.469300 8.201000
6.482600 8.660100
6.495900 8.859500
6.509200 8.463700
6.522600 6.877300
6.535900 7.259000
6.549200 6.676400
6.562500 6.511700
6.575800 6.505200
6.589200 6.687200
6.602500 7.705100
6.615800 9.229600
6.629100 7.672200
6.642400 9.441700
6.655800 12.314400
6.669100 12.165700
6.682400 13.948500
6.695700 13.394400
6.709100 13.281500
6.722400 12.513700
6.735700 10.734500
6.749000 9.545200
6.762300 12.428700
6.775700 15.320300
6.789000 14.482000
6.802300 13.706900
6.815600 13.492000
6.828900 16.664200
6.842300 14.364800
6.855600 11.788500
6.868900 10.923000
6.882200 11.944400
6.895500 12.351500
6.908900 12.098100
6.922200 12.442400
6.935500 12.279300
6.948800 13.903200
6.962100 13.947000
6.975500 14.254700
6.988800 14.388300
7.002100 13.612800
7.015400 12.943300
7.028700 11.672700
7.042100 12.187900
7.055400 9.823800
7.068700 8.527300
7.082000 8.842700
7.095300 10.284700
7.108700 11.412500
7.122000 10.746700
7.135300 9.850100
7.148600 9.230600
7.161900 9.930600
7.175300 15.158100
7.188600 12.095700
7.201900 9.627400
7.215200 10.095700
7.228500 9.836500
7.241900 10.051600
7.255200 10.038300
7.268500 10.584200
7.281800 12.594500
7.295200 18.007100
7.308500 17.787400
7.321800 15.198500
7.335100 11.895700
7.348400 11.015000
7.361800 10.748100
7.375100 12.980000
7.388400 6.958300
7.401700 6.370100
7.415000 6.495800
7.428400 8.537200
7.441700 9.561100
7.455000 11.360600
7.468300 12.452100
7.481600 14.382300
7.495000 16.043400
7.508300 14.495400
7.521600 12.593800
7.534900 10.062400
7.548200 9.407400
7.561600 9.339600
7.574900 9.664600
7.588200 10.077700
7.601500 11.109200
7.614800 10.232900
7.628200 11.210100
7.641500 10.882800
7.654800 9.496900
7.668100 11.856400
7.681400 13.495000
7.694800 10.732300
7.708100 9.477700
7.721400 10.329000
7.734700 10.287700
7.748000 10.065600
7.761400 10.718000
7.774700 10.171300
7.788000 9.743000
7.801300 10.502500
7.814600 10.631100
7.828000 11.666000
7.841300 11.172400
7.854600 10.872200
7.867900 10.043600
7.881300 11.160000
7.894600 9.364800
7.907900 8.105800
7.921200 8.561300
7.934500 8.808400
7.947900 10.362700
7.961200 10.187300
7.974500 10.679000
7.987800 11.018300
8.001100 10.822400
8.014500 10.938600
8.027800 9.404800
8.041100 10.181100
8.054400 10.157900
8.067700 10.630000
8.081100 10.599800
8.094400 10.246600
8.107700 10.517900
8.121000 12.804600
8.134300 11.450600
8.147700 10.290400
8.161000 10.570700
8.174300 10.282200
8.187600 9.960500
8.200900 9.689200
8.214300 9.340800
8.227600 9.448500
8.240900 9.574200
8.254200 10.056500
8.267500 11.618900
8.280900 17.677200
8.294200 16.037200
8.307500 16.273900
8.320800 12.228900
8.334100 11.586100
8.347500 11.829300
8.360800 13.383400
8.374100 13.813100
8.387400 12.840800
8.400700 11.868300
8.414100 12.117700
8.427400 12.441300
8.440700 12.506800
8.454000 11.324100
8.467400 10.803400
8.480700 12.417300
8.494000 12.325400
8.507300 12.746200
8.520600 13.324400
8.534000 12.838000
8.547300 12.272400
8.560600 11.789200
8.573900 11.496800
8.587200 14.412700
8.600600 12.865100
8.613900 12.835400
8.627200 11.247200
8.640500 10.597100
8.653800 10.602000
8.667200 10.838100
8.680500 11.532700
8.693800 12.737400
8.707100 13.659500
8.720400 13.180300
8.733800 11.497700
8.747100 11.740600
8.760400 12.135700
8.773700 10.698100
8.787000 10.781100
8.800400 10.744600
8.813700 11.005300
8.827000 10.818700
8.840300 10.480800
8.853600 10.603900
8.867000 11.582700
8.880300 11.937300
8.893600 11.873700
8.906900 11.667400
8.920200 12.386200
8.933600 11.558400
8.946900 10.885100
8.960200 10.753400
8.973500 10.821500
8.986800 10.908000
9.000200 11.164400
9.013500 11.648400
9.026800 11.619500
9.040100 11.114000
9.053500 10.877400
9.066800 10.794600
9.080100 10.252200
9.093400 9.901000
9.106700 9.878500
9.120100 9.848800
9.133400 10.431600
9.146700 10.860400
9.160000 10.146300
9.173300 9.881200
9.186700 9.778000
9.200000 9.698500
9.213300 9.704700
9.226600 9.883300
9.239900 10.112400
9.253300 11.419900
9.266600 12.435600
9.279900 10.953600
9.293200 11.557800
9.306500 10.467600
9.319900 10.078500
9.333200 9.762900
9.346500 9.732300
9.359800 9.858600
9.373100 9.988800
9.386500 10.047400
9.399800 10.632300
9.413100 10.611200
9.426400 10.486800
9.439700 10.431800
9.453100 10.396400
9.466400 10.390800
9.479700 10.501400
9.493000 10.657300
9.506300 10.640400
9.519700 10.288700
9.533000 10.026900
9.546300 10.585100
9.559600 9.625600
9.572900 9.591300
9.586300 12.898800
9.599600 11.045900
9.612900 10.650500
9.626200 10.954200
9.639600 12.009100
9.652900 12.119600
9.666200 10.958900
9.679500 10.324400
9.692800 10.347700
9.706200 10.440800
9.719500 10.216700
9.732800 9.738300
9.746100 9.641700
9.759400 9.679700
9.772800 9.475200
9.786100 10.622500
9.799400 10.784900
9.812700 11.023500
9.826000 10.576900
9.839400 10.717800
9.852700 10.522900
9.866000 10.083600
9.879300 10.121700
9.892600 10.400400
9.906000 10.682000
9.919300 11.064300
9.932600 11.549800
9.945900 11.815600
9.959200 11.793000
9.972600 12.122900
9.985900 11.902100
9.999200 11.643200
10.012500 10.649300
10.025800 10.241700
10.039200 10.100300
10.052500 10.747800
10.065800 11.143000
10.079100 11.312800
10.092400 11.457800
10.105800 11.450100
10.119100 11.420900
10.132400 11.423100
10.145700 11.511600
10.159000 11.725700
10.172400 12.216600
10.185700 11.994900
10.199000 12.503300
10.212300 12.649100
10.225700 11.307500
10.239000 10.931100
10.252300 11.001500
10.265600 11.001800
10.278900 11.793700
10.292300 11.830600
10.305600 11.969900
10.318900 11.853200
10.332200 11.757800
10.345500 11.486100
10.358900 11.799500
10.372200 11.171900
10.385500 10.787800
10.398800 10.007500
10.412100 9.611000
10.425500 9.499500
10.438800 9.503400
10.452100 9.477900
10.465400 9.438700
10.478700 9.397100
10.492100 9.357700
10.505400 9.447400
10.518700 9.583000
10.532000 9.608100
10.545300 10.006200
10.558700 11.183500
10.572000 11.046200
10.585300 10.907900
10.598600 11.094200
10.611900 10.691400
10.625300 10.391900
10.638600 10.112800
10.651900 10.311900
10.665200 10.288000
10.678500 10.140300
10.691900 10.315500
10.705200 10.451700
10.718500 10.197200
10.731800 9.980600
10.745100 10.192600
10.758500 9.306800
10.771800 9.404800
10.785100 9.628600
10.798400 11.783500
10.811800 11.511000
10.825100 11.415500
10.838400 12.336900
10.851700 12.094600
10.865000 11.798700
10.878400 12.155300
10.891700 11.806700
10.905000 11.589200
10.918300 12.026900
10.931600 11.637300
10.945000 11.258600
10.958300 11.358300
10.971600 32.794700
10.984900 11.354400
10.998200 11.484200
11.011600 12.925800
11.024900 11.937700
11.038200 12.844000
11.051500 13.241300
11.064800 13.639600
11.078200 13.552600
11.091500 13.552600
11.104800 12.753500
11.118100 12.321800
11.131400 11.888600
11.144800 11.604300
11.158100 11.416100
11.171400 11.411600
11.184700 11.472700
11.198000 11.527200
11.211400 11.717300
11.224700 14.013100
11.238000 15.278000
11.251300 12.953000
11.264600 12.421200
11.278000 12.200000
11.291300 12.246300
11.304600 12.317000
11.317900 12.268700
11.331200 12.089800
11.344600 11.903800
11.357900 11.940700
11.371200 11.601600
11.384500 11.278300
11.397900 11.327300
11.411200 11.376700
11.424500 11.064400
11.437800 11.026100
11.451100 10.999800
11.464500 11.036600
11.477800 11.103000
11.491100 11.329300
11.504400 11.640600
11.517700 11.897600
11.531100 11.979100
11.544400 12.159600
11.557700 12.923500
11.571000 12.560400
11.584300 12.370700
11.597700 12.548100
11.611000 12.662800
11.624300 12.609200
11.637600 12.205100
11.650900 11.560000
11.664300 11.428400
11.677600 11.487500
11.690900 11.778800
11.704200 11.267300
11.717500 10.438700
11.730900 10.282500
11.744200 10.405000
11.757500 10.617000
11.770800 14.171400
11.784100 13.353100
11.797500 11.307200
11.810800 9.580900
11.824100 9.935300
11.837400 10.671300
11.850700 10.600300
11.864100 9.132400
11.877400 9.331800
11.890700 9.614600
11.904000 10.176900
11.917300 10.427700
11.930700 11.474000
11.944000 12.637500
11.957300 14.238300
11.970600 12.902200
11.984000 14.941300
11.997300 12.201100
12.010600 12.009000
12.023900 11.332200
12.037200 10.691600
12.050600 10.665400
12.063900 10.631900
12.077200 10.731300
12.090500 10.649500
12.103800 12.347800
12.117200 9.695200
12.130500 9.873000
12.143800 10.171100
12.157100 12.118800
12.170400 11.507600
12.183800 11.661000
12.197100 11.893800
12.210400 11.584000
12.223700 12.034700
12.237000 12.202600
12.250400 12.166100
12.263700 11.950700
12.277000 12.414400
12.290300 12.878400
12.303600 13.636900
12.317000 14.145200
12.330300 14.763300
12.343600 14.137600
12.356900 14.726100
12.370200 14.043500
12.383600 12.569200
12.396900 11.564700
12.410200 11.099100
12.423500 10.704900
12.436800 10.563200
12.450200 10.416000
12.463500 10.535600
12.476800 10.897300
12.490100 12.112500
12.503400 12.365000
12.516800 13.566100
12.530100 14.338200
12.543400 15.703200
12.556700 15.958400
12.570100 14.739800
12.583400 15.380200
12.596700 14.701000
12.610000 13.626700
12.623300 13.094300
12.636700 12.726200
12.650000 13.290300
12.663300 13.230000
12.676600 14.322000
12.689900 13.640800
12.703300 10.411100
12.716600 11.606700
12.729900 12.835200
12.743200 16.067100
12.756500 19.220900
12.769900 18.784500
12.783200 18.491600
12.796500 16.543900
12.809800 13.556000
12.823100 12.437200
12.836500 11.737900
12.849800 12.331300
12.863100 13.123300
12.876400 13.325500
12.889700 13.823300
12.903100 16.505900
12.916400 16.414500
12.929700 17.328000
12.943000 19.918800
12.956300 15.809900
12.969700 14.809400
12.983000 13.914400
12.996300 13.547600
13.009600 14.158900
13.022900 15.871600
13.036300 15.092600
13.049600 13.753700
13.062900 15.080600
13.076200 13.609100
13.089500 13.645200
13.102900 16.416200
13.116200 14.496100
13.129500 14.712000
13.142800 14.436000
13.156200 16.113700
13.169500 16.198800
13.182800 15.896600
13.196100 14.875900
13.209400 14.828000
13.222800 14.255700
13.236100 15.193000
13.249400 15.914700
13.262700 14.467800
13.276000 13.528900
13.289400 16.304400
13.302700 15.739800
13.316000 15.731500
13.329300 16.528900
13.342600 18.539700
13.356000 18.869100
13.369300 16.013500
13.382600 15.356500
13.395900 15.991900
13.409200 14.349700
13.422600 14.557700
13.435900 15.976000
13.449200 17.917800
13.462500 16.081200
13.475800 15.193600
13.489200 14.141100
13.502500 14.587600
13.515800 14.440200
13.529100 14.253700
13.542400 13.710400
13.555800 13.490100
13.569100 14.066100
13.582400 14.003700
13.595700 14.070200
13.609000 14.838800
13.622400 15.265300
13.635700 16.057600
13.649000 16.376100
13.662300 15.137700
13.675600 15.603000
13.689000 15.924200
13.702300 15.921000
13.715600 15.479200
13.728900 15.096100
13.742300 16.107000
13.755600 14.792900
13.768900 14.819600
13.782200 14.756200
13.795500 14.811000
13.808900 14.883300
13.822200 14.932300
13.835500 14.650300
13.848800 15.228000
13.862100 15.289600
13.875500 16.663700
13.888800 14.866500
13.902100 14.637100
13.915400 14.229400
13.928700 14.168500
13.942100 14.852000
13.955400 15.105600
13.968700 15.181700
13.982000 15.572500
13.995300 17.064400
14.008700 16.043800
14.022000 15.432200
14.035300 16.492500
14.048600 16.959700
14.061900 17.111400
14.075300 17.095300
14.088600 16.274400
14.101900 16.102700
14.115200 15.680100
14.128500 16.552600
14.141900 16.273700
14.155200 17.662700
14.168500 16.524400
14.181800 17.271200
14.195100 18.802100
14.208500 18.962900
14.221800 17.296200
14.235100 15.053100
14.248400 14.350300
14.261700 13.832200
14.275100 13.482000
14.288400 14.476900
14.301700 15.071000
14.315000 14.834500
14.328400 14.142900
14.341700 15.150500
14.355000 15.833200
14.368300 14.315300
14.381600 14.918000
14.395000 15.002400
14.408300 14.283200
14.421600 14.100900
14.434900 14.120100
14.448200 15.669500
14.461600 16.510800
14.474900 14.196100
14.488200 13.104800
14.501500 12.509200
14.514800 12.530900
14.528200 12.564800
14.541500 13.111500
14.554800 14.089100
14.568100 13.451800
14.581400 13.156000
14.594800 13.341300
14.608100 13.021500
14.621400 12.644200
14.634700 11.937200
14.648000 11.155100
14.661400 11.136400
14.674700 11.064000
14.688000 10.987800
14.701300 11.628900
14.714600 13.220900
14.728000 14.124900
14.741300 13.610400
14.754600 12.924000
14.767900 12.196300
14.781200 11.358700
14.794600 10.228500
14.807900 11.121400
14.821200 11.450800
14.834500 11.933600
14.847800 11.856500
14.861200 11.945200
14.874500 11.139300
14.887800 10.421500
14.901100 12.126300
14.914500 13.129700
14.927800 11.280800
14.941100 10.439700
14.954400 9.580000
14.967700 8.891300
14.981100 8.687300
14.994400 8.490000
15.007700 8.473500
15.021000 8.822900
15.034300 9.185200
15.047700 9.235700
15.061000 8.688800
15.074300 8.343400
15.087600 7.412200
15.100900 6.581000
15.114300 6.033400
15.127600 6.430600
15.140900 6.196400
15.154200 5.635800
15.167500 5.869000
15.180900 6.174100
15.194200 5.888900
15.207500 5.251800
15.220800 4.084400
15.234100 3.251500
15.247500 2.955700
15.260800 2.962500
15.274100 2.581000
15.287400 2.357200
15.300700 2.138200
15.314100 1.810500
15.327400 1.482700
15.340700 1.160900
15.354000 0.957000
15.367300 0.763100
15.380700 0.702000
15.394000 0.640900
15.407300 0.579800
15.420600 0.525100
15.433900 0.473100
15.447300 0.421000
15.460600 0.369000
15.473900 0.317000
15.487200 0.264900
15.500600 0.212900
15.513900 0.160800
15.527200 0.108800
15.540500 0.056800
15.553800 0.004700
15.567200 0.000000
15.580500 0.000000
15.593800 0.000000
15.607100 0.000000
15.620400 0.000000
15.633800 0.000000
15.647100 0.000000
15.660400 0.000000
15.673700 0.000000
15.687000 0.000000
15.700400 0.000000
15.713700 0.000000
15.727000 0.000000
15.740300 0.000000
15.753600 0.000000
15.767000 0.000000
15.780300 0.000000
15.793600 0.000000
15.806900 0.000000
15.820200 0.000000
15.833600 0.000000
15.846900 0.000000
15.860200 0.000000
15.873500 0.000000
15.886800 0.000000
15.900200 0.000000
15.913500 0.000000
15.926800 0.000000
15.940100 0.000000
15.953400 0.000000
15.966800 0.000000
15.980100 0.000000
15.993400 0.000000
16.006700 0.000000
16.020000 0.000000
16.033400 0.000000
16.046700 0.000000
16.060000 0.000000
16.073300 0.000000
16.086700 0.000000
16.100000 0.000000
16.113300 0.000000
16.126600 0.000000
16.139900 0.000000
16.153300 0.000000
16.166600 0.000000
16.179900 0.000000
16.193200 0.000000
16.206500 0.000000
16.219900 0.000000
16.233200 0.000000
16.246500 0.000000
16.259800 0.000000
16.273100 0.000000
16.286500 0.000000
16.299800 0.000000
16.313100 0.000000
16.326400 0.000000
16.339700 0.000000
16.353100 0.000000
16.366400 0.000000
16.379700 0.000000
16.393000 0.000000
16.406300 0.000000
16.419700 0.000000
16.433000 0.000000
16.446300 0.000000
16.459600 0.000000
16.472900 0.000000
16.486300 0.000000
16.499600 0.000000
16.512900 0.000000
16.526200 0.000000
16.539500 0.000000
16.552900 0.000000
16.566200 0.000000
16.579500 0.000000
16.592800 0.000000
16.606100 0.000000
16.619500 0.000000
16.632800 0.000000
16.646100 0.000000
16.659400 0.000000
16.672800 0.000000
16.686100 0.000000
16.699400 0.000000
16.712700 0.000000
16.726000 0.000000
16.739400 0.000000
16.752700 0.000000
16.766000 0.000000
e
