set title 'mp-754382 - Density of States'
set xlabel 'Energy (eV)'
set ylabel 'DOS (states/eV)'
set grid
set xrange [-10:10]
set yrange [0:1.944]
set xzeroaxis lt -1
set terminal png size 800,600
set output 'mp-754382_dos_gnuplot.png'
plot '-' using 1:2 with lines title 'DOS'
-22.688100 0.000000
-22.611900 0.000000
-22.535800 0.000000
-22.459700 0.000000
-22.383600 0.000000
-22.307500 0.000000
-22.231400 0.000000
-22.155200 0.000000
-22.079100 0.000000
-22.003000 0.000000
-21.926900 0.000000
-21.850800 0.000000
-21.774600 0.000000
-21.698500 0.000000
-21.622400 0.000000
-21.546300 0.000000
-21.470200 0.000000
-21.394100 0.000000
-21.317900 0.000000
-21.241800 0.000000
-21.165700 0.000000
-21.089600 0.000000
-21.013500 0.000000
-20.937400 0.000000
-20.861200 0.000000
-20.785100 0.000000
-20.709000 0.000000
-20.632900 0.000000
-20.556800 0.000000
-20.480600 0.000000
-20.404500 0.000000
-20.328400 0.000000
-20.252300 0.000000
-20.176200 0.000000
-20.100100 0.000000
-20.023900 0.000000
-19.947800 0.000000
-19.871700 0.000000
-19.795600 0.000000
-19.719500 0.000000
-19.643400 0.000000
-19.567200 0.000000
-19.491100 0.000000
-19.415000 0.000000
-19.338900 0.000000
-19.262800 0.000000
-19.186600 0.000000
-19.110500 0.000000
-19.034400 0.000000
-18.958300 0.000000
-18.882200 0.000000
-18.806100 0.000000
-18.729900 0.000000
-18.653800 0.000000
-18.577700 0.000000
-18.501600 0.000000
-18.425500 0.000000
-18.349400 0.000000
-18.273200 0.000000
-18.197100 0.000000
-18.121000 0.000000
-18.044900 0.000000
-17.968800 0.000000
-17.892600 0.000000
-17.816500 0.000000
-17.740400 0.000000
-17.664300 0.000000
-17.588200 0.000000
-17.512100 0.000000
-17.435900 0.000000
-17.359800 0.000000
-17.283700 0.000000
-17.207600 0.000000
-17.131500 0.000000
-17.055400 0.000000
-16.979200 0.000000
-16.903100 0.000000
-16.827000 0.000000
-16.750900 0.000000
-16.674800 0.000000
-16.598600 0.000000
-16.522500 0.000000
-16.446400 0.000000
-16.370300 0.000000
-16.294200 0.000000
-16.218100 0.000000
-16.141900 0.000000
-16.065800 0.000000
-15.989700 0.000000
-15.913600 0.000000
-15.837500 0.000000
-15.761400 0.001500
-15.685200 0.167600
-15.609100 0.237300
-15.533000 0.336000
-15.456900 0.403200
-15.380800 0.487700
-15.304600 0.582700
-15.228500 0.688300
-15.152400 0.803200
-15.076300 0.955600
-15.000200 1.171700
-14.924100 1.430500
-14.847900 2.099100
-14.771800 2.536700
-14.695700 2.384000
-14.619600 1.975500
-14.543500 1.826300
-14.467400 1.738700
-14.391200 1.679900
-14.315100 1.677800
-14.239000 1.666800
-14.162900 1.135500
-14.086800 0.000000
-14.010600 0.000000
-13.934500 0.000000
-13.858400 0.000000
-13.782300 0.000000
-13.706200 0.000000
-13.630100 0.000000
-13.553900 0.000000
-13.477800 0.000000
-13.401700 0.000000
-13.325600 0.000000
-13.249500 0.000000
-13.173400 0.000000
-13.097200 0.000000
-13.021100 0.000000
-12.945000 0.000000
-12.868900 0.000000
-12.792800 0.000000
-12.716600 0.000000
-12.640500 0.000000
-12.564400 0.000000
-12.488300 0.000000
-12.412200 0.000000
-12.336100 0.000000
-12.259900 0.000000
-12.183800 0.000000
-12.107700 0.000000
-12.031600 0.000000
-11.955500 0.000000
-11.879400 0.000000
-11.803200 0.000000
-11.727100 0.000000
-11.651000 0.000000
-11.574900 0.000000
-11.498800 0.000000
-11.422600 0.000000
-11.346500 0.000000
-11.270400 0.000000
-11.194300 0.000000
-11.118200 0.000000
-11.042100 0.000000
-10.965900 0.000000
-10.889800 0.000000
-10.813700 0.000000
-10.737600 0.000000
-10.661500 0.000000
-10.585300 0.000000
-10.509200 0.000000
-10.433100 0.000000
-10.357000 0.000000
-10.280900 0.000000
-10.204800 0.000000
-10.128600 0.000000
-10.052500 0.000000
-9.976400 0.000000
-9.900300 0.000000
-9.824200 0.000000
-9.748100 0.000000
-9.671900 0.000000
-9.595800 0.000000
-9.519700 0.000000
-9.443600 0.000000
-9.367500 0.000000
-9.291300 0.000000
-9.215200 0.000000
-9.139100 0.000000
-9.063000 0.000000
-8.986900 0.000000
-8.910800 0.000000
-8.834600 0.000000
-8.758500 0.000000
-8.682400 0.000000
-8.606300 0.000000
-8.530200 0.000000
-8.454100 0.000000
-8.377900 0.000000
-8.301800 0.000000
-8.225700 0.000000
-8.149600 0.000000
-8.073500 0.000000
-7.997300 0.000000
-7.921200 0.000000
-7.845100 0.000000
-7.769000 0.000000
-7.692900 0.000000
-7.616800 0.000000
-7.540600 0.000000
-7.464500 0.000000
-7.388400 0.000000
-7.312300 0.000000
-7.236200 0.000000
-7.160100 0.000000
-7.083900 0.000000
-7.007800 0.000000
-6.931700 0.000000
-6.855600 0.000000
-6.779500 0.000000
-6.703300 0.000000
-6.627200 0.000000
-6.551100 0.000000
-6.475000 0.000000
-6.398900 0.000000
-6.322800 0.000000
-6.246600 0.000000
-6.170500 0.000000
-6.094400 0.000000
-6.018300 0.000000
-5.942200 0.000000
-5.866100 0.000000
-5.789900 0.000000
-5.713800 0.000000
-5.637700 0.000000
-5.561600 0.000000
-5.485500 0.000000
-5.409300 0.000000
-5.333200 0.000000
-5.257100 0.000000
-5.181000 0.000000
-5.104900 0.000000
-5.028800 0.000000
-4.952600 0.000000
-4.876500 0.000000
-4.800400 0.000000
-4.724300 0.000000
-4.648200 0.000000
-4.572100 0.000000
-4.495900 0.000000
-4.419800 0.000000
-4.343700 0.000000
-4.267600 0.000000
-4.191500 0.000000
-4.115300 0.000000
-4.039200 0.000000
-3.963100 0.000000
-3.887000 0.000000
-3.810900 0.000000
-3.734800 0.000000
-3.658600 0.000000
-3.582500 0.000000
-3.506400 0.000000
-3.430300 0.000000
-3.354200 0.000000
-3.278100 0.000000
-3.201900 0.000000
-3.125800 0.000000
-3.049700 0.000000
-2.973600 0.000000
-2.897500 0.000000
-2.821300 0.000000
-2.745200 0.000000
-2.669100 0.000000
-2.593000 0.000000
-2.516900 0.000000
-2.440800 0.000000
-2.364600 0.000000
-2.288500 0.000000
-2.212400 0.000000
-2.136300 0.000000
-2.060200 0.000000
-1.984100 0.000000
-1.907900 0.000000
-1.831800 0.000000
-1.755700 0.000000
-1.679600 0.000000
-1.603500 0.000000
-1.527300 0.000000
-1.451200 0.000000
-1.375100 0.000000
-1.299000 0.000000
-1.222900 0.000000
-1.146800 0.000000
-1.070600 0.000000
-0.994500 0.000000
-0.918400 0.000000
-0.842300 0.000000
-0.766200 0.000000
-0.690000 0.000000
-0.613900 0.000000
-0.537800 0.000000
-0.461700 0.000000
-0.385600 0.000000
-0.309500 0.000000
-0.233300 0.000000
-0.157200 0.000000
-0.081100 0.000000
-0.005000 0.000000
0.071100 0.000000
0.147200 0.000000
0.223400 0.000000
0.299500 0.000000
0.375600 0.000000
0.451700 0.000000
0.527800 0.000000
0.604000 0.000000
0.680100 0.000000
0.756200 0.000000
0.832300 0.000000
0.908400 0.000000
0.984500 0.000000
1.060700 0.000000
1.136800 0.000000
1.212900 0.000000
1.289000 0.000000
1.365100 0.000000
1.441200 0.000000
1.517400 0.000000
1.593500 0.000000
1.669600 0.000000
1.745700 0.000000
1.821800 0.000000
1.898000 0.000000
1.974100 0.000000
2.050200 0.000000
2.126300 0.000000
2.202400 0.000000
2.278500 0.000000
2.354700 0.000000
2.430800 0.000000
2.506900 0.000000
2.583000 0.007900
2.659100 0.031100
2.735200 0.062600
2.811400 0.068500
2.887500 0.076900
2.963600 0.092900
3.039700 0.146000
3.115800 0.288300
3.192000 0.494600
3.268100 0.632000
3.344200 0.853700
3.420300 1.293700
3.496400 1.416700
3.572500 1.767300
3.648700 1.530000
3.724800 0.988300
3.800900 0.831200
3.877000 0.749900
3.953100 0.701100
4.029200 0.657300
4.105400 0.611200
4.181500 0.571400
4.257600 0.539600
4.333700 0.521100
4.409800 0.502100
4.486000 0.497900
4.562100 0.462000
4.638200 0.425700
4.714300 0.389500
4.790400 0.374000
4.866500 0.359700
4.942700 0.346500
5.018800 0.334200
5.094900 0.321700
5.171000 0.306600
5.247100 0.294600
5.323200 0.282600
5.399400 0.270500
5.475500 0.260100
5.551600 0.250700
5.627700 0.241000
5.703800 0.233100
5.780000 0.226000
5.856100 0.219200
5.932200 0.212500
6.008300 0.205000
6.084400 0.198700
6.160500 0.212500
6.236700 0.212500
6.312800 0.199700
6.388900 0.197100
6.465000 0.195400
6.541100 0.194200
6.617200 0.193400
6.693400 0.193000
6.769500 0.193000
6.845600 0.190700
6.921700 0.190500
6.997800 0.189400
7.074000 0.187600
7.150100 0.184600
7.226200 0.181700
7.302300 0.179300
7.378400 0.177400
7.454500 0.175700
7.530700 0.174300
7.606800 0.171800
7.682900 0.170000
7.759000 0.167000
7.835100 0.163200
7.911200 0.161200
7.987400 0.160800
8.063500 0.162900
8.139600 0.183900
8.215700 0.216400
8.291800 0.257100
8.368000 0.313900
8.444100 0.376400
8.520200 0.417800
8.596300 0.454600
8.672400 0.495200
8.748500 0.556700
8.824700 0.632200
8.900800 0.691200
8.976900 0.764200
9.053000 0.817300
9.129100 0.811500
9.205200 0.788200
9.281400 0.741800
9.357500 0.728700
9.433600 0.735800
9.509700 0.718900
9.585800 0.653000
9.662000 0.636800
9.738100 0.622400
9.814200 0.604000
9.890300 0.570800
9.966400 0.534300
10.042500 0.496900
10.118700 0.446700
10.194800 0.422200
10.270900 0.399800
10.347000 0.384400
10.423100 0.377900
10.499300 0.363300
10.575400 0.374300
10.651500 0.360600
10.727600 0.352800
10.803700 0.348700
10.879800 0.336300
10.956000 0.332700
11.032100 0.331700
11.108200 0.330100
11.184300 0.322400
11.260400 0.321500
11.336500 0.323700
11.412700 0.327000
11.488800 0.330800
11.564900 0.329800
11.641000 0.330000
11.717100 0.330100
11.793300 0.330600
11.869400 0.368600
11.945500 0.400800
12.021600 0.377800
12.097700 0.367600
12.173800 0.355000
12.250000 0.342100
12.326100 0.340900
12.402200 0.342800
12.478300 0.346000
12.554400 0.349700
12.630500 0.353700
12.706700 0.357900
12.782800 0.362500
12.858900 0.367200
12.935000 0.372100
13.011100 0.377600
13.087300 0.424500
13.163400 0.411600
13.239500 0.405900
13.315600 0.407500
13.391700 0.413100
13.467800 0.417900
13.544000 0.421000
13.620100 0.425500
13.696200 0.433200
13.772300 0.448600
13.848400 0.462500
13.924500 0.476000
14.000700 0.485300
14.076800 0.489600
14.152900 0.489500
14.229000 0.486400
14.305100 0.492500
14.381300 0.504900
14.457400 0.519400
14.533500 0.536300
14.609600 0.637800
14.685700 0.688200
14.761800 0.737200
14.838000 0.837400
14.914100 0.994700
14.990200 0.934200
15.066300 0.772100
15.142400 0.642900
15.218500 0.611700
15.294700 0.573200
15.370800 0.531600
15.446900 0.501700
15.523000 0.486100
15.599100 0.471700
15.675300 0.457600
15.751400 0.443000
15.827500 0.429200
15.903600 0.416000
15.979700 0.403300
16.055800 0.392100
16.132000 0.384600
16.208100 0.378900
16.284200 0.375500
16.360300 0.375500
16.436400 0.381500
16.512500 0.387400
16.588700 0.390700
16.664800 0.390700
16.740900 0.391000
16.817000 0.390600
16.893100 0.389500
16.969300 0.390600
17.045400 0.391500
17.121500 0.392300
17.197600 0.393000
17.273700 0.393000
17.349800 0.392300
17.426000 0.394600
17.502100 0.399400
17.578200 0.406200
17.654300 0.416700
17.730400 0.426200
17.806500 0.431900
17.882700 0.438600
17.958800 0.447000
18.034900 0.454400
18.111000 0.461200
18.187100 0.468900
18.263300 0.477300
18.339400 0.486400
18.415500 0.496200
18.491600 0.507600
18.567700 0.521400
18.643800 0.535300
18.720000 0.546800
18.796100 0.559800
18.872200 0.575700
18.948300 0.596800
19.024400 0.655200
19.100500 0.716100
19.176700 0.774400
19.252800 0.805700
19.328900 0.825300
19.405000 0.762300
19.481100 0.720000
19.557300 0.690700
19.633400 0.681700
19.709500 0.674500
19.785600 0.665800
19.861700 0.656300
19.937800 0.637100
20.014000 0.609800
20.090100 0.580800
20.166200 0.553300
20.242300 0.530700
20.318400 0.513000
20.394600 0.499900
20.470700 0.486400
20.546800 0.471500
20.622900 0.458900
20.699000 0.447700
20.775100 0.437400
20.851300 0.428300
20.927400 0.419800
21.003500 0.412100
21.079600 0.405000
21.155700 0.400100
21.231800 0.403300
21.308000 0.418900
21.384100 0.428900
21.460200 0.433300
21.536300 0.438100
21.612400 0.442600
21.688600 0.447800
21.764700 0.454500
21.840800 0.462800
21.916900 0.471900
21.993000 0.480500
22.069100 0.488700
22.145300 0.497000
22.221400 0.505500
22.297500 0.519400
22.373600 0.545000
22.449700 0.557600
22.525800 0.561700
22.602000 0.570200
22.678100 0.581800
22.754200 0.598100
22.830300 0.620500
22.906400 0.645600
22.982600 0.673600
23.058700 0.700500
23.134800 0.728300
23.210900 0.760200
23.287000 0.784800
23.363100 0.814400
23.439300 0.840500
23.515400 0.897600
23.591500 1.024300
23.667600 0.955100
23.743700 0.926100
23.819800 0.912500
23.896000 0.891900
23.972100 0.737800
24.048200 0.685900
24.124300 0.656500
24.200400 0.641300
24.276600 0.632400
24.352700 0.618700
24.428800 0.572400
24.504900 0.553300
24.581000 0.535200
24.657100 0.519100
24.733300 0.559400
24.809400 0.560400
24.885500 0.546400
24.961600 0.528100
25.037700 0.507300
25.113800 0.499800
25.190000 0.500100
25.266100 0.503600
25.342200 0.512600
25.418300 0.528600
25.494400 0.543500
25.570600 0.560000
25.646700 0.582600
25.722800 0.605900
25.798900 0.632800
25.875000 0.648300
25.951100 0.656800
26.027300 0.649500
26.103400 0.632200
26.179500 0.643800
26.255600 0.660600
26.331700 0.685300
26.407800 0.696500
26.484000 0.684900
26.560100 0.664500
26.636200 0.633600
26.712300 0.603300
26.788400 0.560400
26.864600 0.532200
26.940700 0.527100
27.016800 0.518300
27.092900 0.514300
27.169000 0.511200
27.245100 0.496700
27.321300 0.488400
27.397400 0.486600
27.473500 0.484900
27.549600 0.483200
27.625700 0.479900
27.701800 0.497400
27.778000 0.489600
27.854100 0.486700
27.930200 0.489700
28.006300 0.494300
28.082400 0.496900
28.158600 0.494200
28.234700 0.486300
28.310800 0.475900
28.386900 0.481300
28.463000 0.494600
28.539100 0.523100
28.615300 0.575900
28.691400 0.630300
28.767500 0.694500
28.843600 0.794200
28.919700 0.806900
28.995800 0.801200
29.072000 0.781800
29.148100 0.764700
29.224200 0.750200
29.300300 0.709600
29.376400 0.673700
29.452600 0.659600
29.528700 0.653700
29.604800 0.651400
29.680900 0.655900
29.757000 0.666100
29.833100 0.679900
29.909300 0.687500
29.985400 0.670100
30.061500 0.643200
30.137600 0.635000
30.213700 0.623500
30.289800 0.612300
30.366000 0.603500
30.442100 0.600000
30.518200 0.585900
30.594300 0.574600
30.670400 0.562900
30.746600 0.556000
30.822700 0.551900
30.898800 0.548000
30.974900 0.551900
31.051000 0.555800
31.127100 0.557300
31.203300 0.564800
31.279400 0.575000
31.355500 0.572200
31.431600 0.584800
31.507700 0.597500
31.583900 0.607700
31.660000 0.615700
31.736100 0.623100
31.812200 0.627200
31.888300 0.632400
31.964400 0.641700
32.040600 0.647900
32.116700 0.644800
32.192800 0.674000
32.268900 0.676100
32.345000 0.658800
32.421100 0.658900
32.497300 0.681900
32.573400 0.714800
32.649500 0.722100
32.725600 0.726000
32.801700 0.720800
32.877900 0.723200
32.954000 0.730000
33.030100 0.731100
33.106200 0.730500
33.182300 0.726700
33.258400 0.724000
33.334600 0.728500
33.410700 0.741400
33.486800 0.767000
33.562900 0.786300
33.639000 0.773000
33.715100 0.752900
33.791300 0.753500
33.867400 0.808600
33.943500 0.745400
34.019600 0.706800
34.095700 0.699700
34.171900 0.695300
34.248000 0.710900
34.324100 0.707400
34.400200 0.708300
34.476300 0.701600
34.552400 0.691500
34.628600 0.706600
34.704700 0.726400
34.780800 0.754400
34.856900 0.782000
34.933000 0.711200
35.009100 0.700200
35.085300 0.686800
35.161400 0.669000
35.237500 0.646300
35.313600 0.621200
35.389700 0.594600
35.465900 0.568700
35.542000 0.545600
35.618100 0.523900
35.694200 0.505100
35.770300 0.531600
35.846400 0.530700
35.922600 0.532000
35.998700 0.502500
36.074800 0.481900
36.150900 0.490800
36.227000 0.502300
36.303100 0.518300
36.379300 0.539400
36.455400 0.563700
36.531500 0.585200
36.607600 0.609000
36.683700 0.737800
36.759900 0.688600
36.836000 0.715600
36.912100 0.731900
36.988200 0.745300
37.064300 0.755300
37.140400 0.759400
37.216600 0.741700
37.292700 0.713700
37.368800 0.715000
37.444900 0.715300
37.521000 0.714000
37.597100 0.717000
37.673300 0.724800
37.749400 0.736900
37.825500 0.745900
37.901600 0.758600
37.977700 0.786200
38.053900 0.790800
38.130000 0.789000
38.206100 0.790200
38.282200 0.796100
38.358300 0.798000
38.434400 0.775600
38.510600 0.733200
38.586700 0.712000
38.662800 0.700400
38.738900 0.695100
38.815000 0.689000
38.891100 0.682900
38.967300 0.677700
39.043400 0.675200
39.119500 0.676000
39.195600 0.682100
39.271700 0.691900
39.347900 0.704000
39.424000 0.714600
39.500100 0.722900
39.576200 0.729400
39.652300 0.735800
39.728400 0.744100
39.804600 0.757500
39.880700 0.767600
39.956800 0.773700
40.032900 0.781400
40.109000 0.790400
40.185100 0.777800
40.261300 0.771800
40.337400 0.755900
40.413500 0.738400
40.489600 0.725000
40.565700 0.708400
40.641900 0.695000
40.718000 0.682600
40.794100 0.658900
40.870200 0.655200
40.946300 0.659700
41.022400 0.669800
41.098600 0.672800
41.174700 0.678500
41.250800 0.691900
41.326900 0.713300
41.403000 0.748000
41.479100 0.759600
41.555300 0.757000
41.631400 0.755200
41.707500 0.724300
41.783600 0.713200
41.859700 0.708800
41.935900 0.706000
42.012000 0.700800
42.088100 0.696700
42.164200 0.702100
42.240300 0.714200
42.316400 0.725900
42.392600 0.729400
42.468700 0.727400
42.544800 0.724200
42.620900 0.722600
42.697000 0.735300
42.773200 0.753900
42.849300 0.777400
42.925400 0.806200
43.001500 0.825100
43.077600 0.816000
43.153700 0.814500
43.229900 0.800200
43.306000 0.785000
43.382100 0.772500
43.458200 0.753000
43.534300 0.748600
43.610400 0.748300
43.686600 0.753000
43.762700 0.762900
43.838800 0.778700
43.914900 0.784500
43.991000 0.772600
44.067200 0.775600
44.143300 0.782900
44.219400 0.789800
44.295500 0.802900
44.371600 0.834800
44.447700 0.811200
44.523900 0.801000
44.600000 0.793500
44.676100 0.780500
44.752200 0.775800
44.828300 0.772300
44.904400 0.769200
44.980600 0.767700
45.056700 0.764200
45.132800 0.760100
45.208900 0.757400
45.285000 0.752900
45.361200 0.760300
45.437300 0.777300
45.513400 0.815400
45.589500 0.855100
45.665600 0.887300
45.741700 0.916900
45.817900 0.931600
45.894000 0.928100
45.970100 0.905900
46.046200 0.851700
46.122300 0.817300
46.198400 0.791800
46.274600 0.771100
46.350700 0.744100
46.426800 0.737500
46.502900 0.731800
46.579000 0.728100
46.655200 0.726200
46.731300 0.727600
46.807400 0.731200
46.883500 0.782200
46.959600 0.785000
47.035700 0.778900
47.111900 0.771700
47.188000 0.761200
47.264100 0.747200
47.340200 0.730500
47.416300 0.713500
47.492400 0.697100
47.568600 0.680100
47.644700 0.659700
47.720800 0.650300
47.796900 0.647900
47.873000 0.649500
47.949200 0.650600
48.025300 0.653100
48.101400 0.663600
48.177500 0.675400
48.253600 0.694700
48.329700 0.696500
48.405900 0.731400
48.482000 0.785500
48.558100 0.814000
48.634200 0.831000
48.710300 0.854100
48.786400 0.878100
48.862600 0.903700
48.938700 0.930900
49.014800 0.961800
49.090900 0.998600
49.167000 0.953900
49.243200 0.908400
49.319300 0.909200
49.395400 0.897400
49.471500 0.878900
49.547600 0.857300
49.623700 0.832700
49.699900 0.795500
49.776000 0.768700
49.852100 0.741800
49.928200 0.717800
50.004300 0.696600
50.080400 0.676000
50.156600 0.656900
50.232700 0.647600
50.308800 0.648400
50.384900 0.654800
50.461000 0.665300
50.537200 0.675900
50.613300 0.683200
50.689400 0.685600
50.765500 0.698500
50.841600 0.719500
50.917700 0.740500
50.993900 0.760300
51.070000 0.778200
51.146100 0.794400
51.222200 0.809400
51.298300 0.823100
51.374400 0.879700
51.450600 0.914200
51.526700 0.918200
51.602800 0.914500
51.678900 0.917400
51.755000 0.922800
51.831200 0.933100
51.907300 0.941400
51.983400 0.939300
52.059500 0.921100
52.135600 0.904800
52.211700 0.890000
52.287900 0.877400
52.364000 0.929500
52.440100 0.885300
52.516200 0.859700
52.592300 0.815800
52.668500 0.781300
52.744600 0.747700
52.820700 0.736000
52.896800 0.764700
52.972900 0.751900
53.049000 0.748500
53.125200 0.751200
53.201300 0.769100
53.277400 0.832200
53.353500 0.878200
53.429600 0.911600
53.505700 0.906800
53.581900 0.911900
53.658000 0.928900
53.734100 0.904800
53.810200 0.884900
53.886300 0.875400
53.962500 0.877000
54.038600 0.919800
54.114700 0.891900
54.190800 0.825300
54.266900 0.784300
54.343000 0.766500
54.419200 0.760100
54.495300 0.741500
54.571400 0.726000
54.647500 0.743300
54.723600 0.776000
54.799700 0.821100
54.875900 0.852200
54.952000 0.870000
55.028100 0.888800
55.104200 0.899600
55.180300 0.891000
55.256500 0.881000
55.332600 0.874400
55.408700 0.866000
55.484800 0.855800
55.560900 0.841200
55.637000 0.827700
55.713200 0.810200
55.789300 0.791300
55.865400 0.777800
55.941500 0.766500
56.017600 0.760000
56.093700 0.752700
56.169900 0.746600
56.246000 0.744200
56.322100 0.738700
56.398200 0.733000
56.474300 0.730800
56.550500 0.716600
56.626600 0.700900
56.702700 0.687400
56.778800 0.677900
56.854900 0.676600
56.931000 0.719600
57.007200 0.745700
57.083300 0.792700
57.159400 0.842100
57.235500 0.903400
57.311600 0.975000
57.387700 1.028200
57.463900 1.009000
57.540000 0.973700
57.616100 0.919200
57.692200 0.891700
57.768300 0.858700
57.844500 0.842700
57.920600 0.834500
57.996700 0.836700
58.072800 0.836300
58.148900 0.835500
58.225000 0.843900
58.301200 0.849900
58.377300 0.855600
58.453400 0.858100
58.529500 0.853700
58.605600 0.840400
58.681700 0.829700
58.757900 0.825800
58.834000 0.825000
58.910100 0.833200
58.986200 0.879700
59.062300 0.913200
59.138500 1.118800
59.214600 0.985100
59.290700 0.959300
59.366800 0.948000
59.442900 0.937700
59.519000 0.930700
59.595200 0.941900
59.671300 0.927400
59.747400 0.908300
59.823500 0.876100
59.899600 0.861100
59.975700 0.847400
60.051900 0.833000
60.128000 0.822200
60.204100 0.816900
60.280200 0.815000
60.356300 0.818400
60.432500 0.823800
60.508600 0.827000
60.584700 0.845000
60.660800 0.852600
60.736900 0.857500
60.813000 0.880800
60.889200 0.885800
60.965300 0.892600
61.041400 0.900700
61.117500 0.911200
61.193600 0.924400
61.269700 0.919200
61.345900 0.916000
61.422000 0.916500
61.498100 0.921000
61.574200 0.958000
61.650300 0.898000
61.726500 0.885400
61.802600 0.887000
61.878700 0.891200
61.954800 0.898200
62.030900 0.917000
62.107000 0.925900
62.183200 0.952300
62.259300 0.994700
62.335400 0.974200
62.411500 0.955800
62.487600 0.938500
62.563700 0.925000
62.639900 0.915200
62.716000 0.918300
62.792100 0.901400
62.868200 0.904900
62.944300 0.861100
63.020500 0.849700
63.096600 0.840100
63.172700 0.834600
63.248800 0.836200
63.324900 0.824200
63.401000 0.811200
63.477200 0.797900
63.553300 0.783200
63.629400 0.769200
63.705500 0.756300
63.781600 0.744300
63.857800 0.736300
63.933900 0.735300
64.010000 0.741100
64.086100 0.779900
64.162200 0.823000
64.238300 0.840900
64.314500 0.856500
64.390600 0.876500
64.466700 0.879900
64.542800 0.887800
64.618900 0.899000
64.695000 0.900600
64.771200 0.925200
64.847300 0.955500
64.923400 0.981200
64.999500 0.982700
65.075600 0.993500
65.151800 1.021800
65.227900 1.004000
65.304000 0.987800
65.380100 0.977200
65.456200 0.974400
65.532300 0.983400
65.608500 0.975800
65.684600 0.963700
65.760700 0.963900
65.836800 0.922300
65.912900 0.860700
65.989000 0.845100
66.065200 0.840100
66.141300 0.840800
66.217400 0.843200
66.293500 0.848000
66.369600 0.859500
66.445800 0.877100
66.521900 0.897200
66.598000 0.925700
66.674100 0.953000
66.750200 0.909900
66.826300 0.929600
66.902500 0.951300
66.978600 0.973500
67.054700 0.996700
67.130800 1.016900
67.206900 1.035400
67.283000 1.054200
67.359200 1.074100
67.435300 1.091400
67.511400 1.105200
67.587500 1.066100
67.663600 1.018600
67.739800 1.002200
67.815900 0.984700
67.892000 0.972900
67.968100 0.964200
68.044200 0.967400
68.120300 0.946500
68.196500 0.932500
68.272600 0.924800
68.348700 0.909700
68.424800 0.886400
68.500900 0.857000
68.577000 0.842800
68.653200 0.833200
68.729300 0.844300
68.805400 0.904100
68.881500 0.854400
68.957600 0.821800
69.033800 0.823400
69.109900 0.827800
69.186000 0.828700
69.262100 0.824200
69.338200 0.817300
69.414300 0.813200
69.490500 0.809000
69.566600 0.804900
69.642700 0.804000
69.718800 0.808600
69.794900 0.812800
69.871000 0.805700
69.947200 0.798800
70.023300 0.793400
70.099400 0.789900
70.175500 0.789300
70.251600 0.786100
70.327800 0.781700
70.403900 0.784700
70.480000 0.821600
70.556100 0.842400
70.632200 0.858100
70.708300 0.871300
70.784500 0.883300
70.860600 0.896500
70.936700 0.914200
71.012800 0.933300
71.088900 0.957800
71.165000 0.993600
71.241200 1.012400
71.317300 1.044900
71.393400 1.064000
71.469500 1.076800
71.545600 1.075100
71.621800 1.058000
71.697900 1.066000
71.774000 1.074800
71.850100 1.083700
71.926200 1.101000
72.002300 1.170900
72.078500 1.157600
72.154600 1.108500
72.230700 1.081900
72.306800 1.060400
72.382900 1.062000
72.459000 1.064800
72.535200 1.066400
72.611300 1.049200
72.687400 1.030400
72.763500 1.018700
72.839600 1.013100
72.915800 1.011300
72.991900 1.021300
73.068000 0.986600
73.144100 0.984500
73.220200 0.980400
73.296300 0.983700
73.372500 0.957400
73.448600 0.958400
73.524700 0.960400
73.600800 0.950600
73.676900 0.947000
73.753000 0.947300
73.829200 0.948600
73.905300 0.971800
73.981400 0.978100
74.057500 0.980400
74.133600 0.977000
74.209800 0.955200
74.285900 0.933500
74.362000 0.912400
74.438100 0.894300
74.514200 0.887700
74.590300 0.884600
74.666500 0.869600
74.742600 0.856600
74.818700 0.851000
74.894800 0.849700
74.970900 0.847200
75.047100 0.841900
75.123200 0.837500
75.199300 0.835000
75.275400 0.841400
75.351500 0.854200
75.427600 0.870000
75.503800 0.881300
75.579900 0.898200
75.656000 0.952900
75.732100 0.941000
75.808200 0.939300
75.884300 0.946800
75.960500 0.953200
76.036600 0.956200
76.112700 0.967400
76.188800 0.976200
76.264900 0.974700
76.341100 0.975500
76.417200 0.954200
76.493300 0.943400
76.569400 0.930900
76.645500 0.916500
76.721600 0.903900
76.797800 0.895100
76.873900 0.893100
76.950000 0.896300
77.026100 0.910600
77.102200 0.926800
77.178300 0.920000
77.254500 0.929600
77.330600 0.938700
77.406700 0.937800
77.482800 0.966400
77.558900 0.954700
77.635100 0.940100
77.711200 0.940500
77.787300 0.940800
77.863400 0.939600
77.939500 0.945100
78.015600 0.945500
78.091800 0.947600
78.167900 0.948000
78.244000 0.946700
78.320100 0.946300
78.396200 0.944300
78.472300 0.938300
78.548500 0.933200
78.624600 0.927700
78.700700 0.952200
78.776800 0.957100
78.852900 0.985700
78.929100 1.023500
79.005200 1.066300
79.081300 1.097600
79.157400 1.122400
79.233500 1.149900
79.309600 1.204400
79.385800 1.183500
79.461900 1.192500
79.538000 1.198000
79.614100 1.191900
79.690200 1.193700
79.766300 1.214500
79.842500 1.252300
79.918600 1.299700
79.994700 1.337400
80.070800 1.351900
80.146900 1.349100
80.223100 1.331200
80.299200 1.326700
80.375300 1.269900
80.451400 1.212400
80.527500 1.161500
80.603600 1.114400
80.679800 1.056000
80.755900 1.020700
80.832000 0.976700
80.908100 0.947300
80.984200 0.931900
81.060300 0.928200
81.136500 0.925800
81.212600 0.930700
81.288700 0.944400
81.364800 0.972600
81.440900 0.982300
81.517100 0.974300
81.593200 0.903500
81.669300 0.908100
81.745400 0.907600
81.821500 0.903000
81.897600 0.894300
81.973800 0.892900
82.049900 0.891300
82.126000 0.889800
82.202100 0.888800
82.278200 0.888600
82.354300 0.889000
82.430500 0.895800
82.506600 0.902600
82.582700 0.911300
82.658800 0.917000
82.734900 0.919400
82.811100 0.923400
82.887200 0.912600
82.963300 0.897600
83.039400 0.900500
83.115500 0.896300
83.191600 0.891700
83.267800 0.880200
83.343900 0.881800
83.420000 0.882400
83.496100 0.882600
83.572200 0.882900
83.648300 0.884200
83.724500 0.885000
83.800600 0.895600
83.876700 0.895200
83.952800 0.876400
84.028900 0.845200
84.105100 0.842900
84.181200 0.856900
84.257300 0.863500
84.333400 0.869100
84.409500 0.886000
84.485600 0.920100
84.561800 0.966200
84.637900 1.008200
84.714000 1.024300
84.790100 1.034600
84.866200 1.045500
84.942400 1.066300
85.018500 1.087900
85.094600 1.089000
85.170700 1.095200
85.246800 1.105700
85.322900 1.118900
85.399100 1.149100
85.475200 1.170300
85.551300 1.153900
85.627400 1.115200
85.703500 1.090600
85.779600 1.073800
85.855800 1.049800
85.931900 1.023400
86.008000 0.997600
86.084100 0.980200
86.160200 0.979200
86.236400 0.989400
86.312500 1.006600
86.388600 1.023100
86.464700 1.037900
86.540800 1.045000
86.616900 1.056400
86.693100 1.073300
86.769200 1.050800
86.845300 1.049600
86.921400 1.057400
86.997500 1.071700
87.073600 1.086700
87.149800 1.100200
87.225900 1.112400
87.302000 1.118300
87.378100 1.123600
87.454200 1.128800
87.530400 1.135000
87.606500 1.145700
87.682600 1.165800
87.758700 1.181400
87.834800 1.197600
87.910900 1.206000
87.987100 1.197900
88.063200 1.177300
88.139300 1.158100
88.215400 1.140600
88.291500 1.123500
88.367600 1.107700
88.443800 1.089500
88.519900 1.073300
88.596000 1.072200
88.672100 1.092400
88.748200 1.168700
88.824400 1.132900
88.900500 1.127500
88.976600 1.117900
89.052700 1.107700
89.128800 1.094900
89.204900 1.081300
89.281100 1.069500
89.357200 1.055500
89.433300 1.046300
89.509400 1.032200
89.585500 1.006300
89.661600 0.976500
89.737800 0.963100
89.813900 0.966900
89.890000 0.958800
89.966100 0.938400
90.042200 0.942600
90.118400 0.938000
90.194500 0.934300
90.270600 0.937700
90.346700 0.942800
90.422800 0.943200
90.498900 0.941900
90.575100 0.955300
90.651200 0.925700
90.727300 0.898100
90.803400 0.887600
90.879500 0.884200
90.955600 0.887900
91.031800 0.902200
91.107900 0.926200
91.184000 0.954600
91.260100 0.997600
91.336200 1.025200
91.412400 0.987000
91.488500 0.982800
91.564600 0.983100
91.640700 0.984700
91.716800 0.991200
91.792900 1.006300
91.869100 1.020400
91.945200 0.976100
92.021300 0.984600
92.097400 0.992800
92.173500 1.002800
92.249600 1.016300
92.325800 1.034000
92.401900 1.054800
92.478000 1.074600
92.554100 1.093100
92.630200 1.105400
92.706400 1.103900
92.782500 1.095500
92.858600 1.088800
92.934700 1.091900
93.010800 1.087500
93.086900 1.085400
93.163100 1.076100
93.239200 1.062300
93.315300 1.034900
93.391400 1.036800
93.467500 1.040100
93.543600 1.049300
93.619800 1.058100
93.695900 1.068500
93.772000 1.094600
93.848100 1.108500
93.924200 1.136200
94.000400 1.140000
94.076500 1.143200
94.152600 1.125800
94.228700 1.125000
94.304800 1.119900
94.380900 1.132600
94.457100 1.148200
94.533200 1.159100
94.609300 1.170300
94.685400 1.180800
94.761500 1.193400
94.837600 1.207200
94.913800 1.220300
94.989900 1.236000
95.066000 1.251100
95.142100 1.253800
95.218200 1.231100
95.294400 1.240900
95.370500 1.254900
95.446600 1.273600
95.522700 1.292300
95.598800 1.258000
95.674900 1.249600
95.751100 1.225700
95.827200 1.214900
95.903300 1.202900
95.979400 1.191800
96.055500 1.178600
96.131700 1.162700
96.207800 1.147200
96.283900 1.131500
96.360000 1.115600
96.436100 1.102800
96.512200 1.092300
96.588400 1.082700
96.664500 1.080300
96.740600 1.081700
96.816700 1.039100
96.892800 1.025600
96.968900 1.013900
97.045100 1.007100
97.121200 1.003800
97.197300 0.997800
97.273400 0.992000
97.349500 0.988000
97.425700 0.984500
97.501800 0.983400
97.577900 0.983100
97.654000 0.984000
97.730100 0.979700
97.806200 0.977600
97.882400 0.975200
97.958500 0.976000
98.034600 0.978100
98.110700 0.982900
98.186800 0.989500
98.262900 1.000800
98.339100 1.009400
98.415200 1.016100
98.491300 1.033500
98.567400 1.047200
98.643500 1.036700
98.719700 1.010800
98.795800 1.009400
98.871900 1.011100
98.948000 1.008000
99.024100 1.006200
99.100200 1.008300
99.176400 1.011300
99.252500 1.021700
99.328600 1.022400
99.404700 1.024300
99.480800 1.025800
99.556900 1.027400
99.633100 1.021200
99.709200 1.011100
99.785300 1.009600
99.861400 1.007700
99.937500 1.012900
100.013700 1.016900
100.089800 1.024200
100.165900 1.026000
100.242000 1.037600
100.318100 1.048200
100.394200 1.054600
100.470400 1.066300
100.546500 1.064000
100.622600 1.066600
100.698700 1.076600
100.774800 1.092900
100.850900 1.108900
100.927100 1.126300
101.003200 1.162000
101.079300 1.185800
101.155400 1.194100
101.231500 1.202400
101.307700 1.219100
101.383800 1.237300
101.459900 1.235800
101.536000 1.235900
101.612100 1.226800
101.688200 1.220100
101.764400 1.221000
101.840500 1.230500
101.916600 1.244800
101.992700 1.281100
102.068800 1.262900
102.144900 1.242400
102.221100 1.212500
102.297200 1.189600
102.373300 1.181400
102.449400 1.176300
102.525500 1.179500
102.601700 1.175400
102.677800 1.173600
102.753900 1.161600
102.830000 1.148300
102.906100 1.137300
102.982200 1.114300
103.058400 1.105600
103.134500 1.098400
103.210600 1.093200
103.286700 1.090900
103.362800 1.085100
103.438900 1.087600
103.515100 1.109300
103.591200 1.099900
103.667300 1.103900
103.743400 1.099100
103.819500 1.115100
103.895700 1.134100
103.971800 1.154500
104.047900 1.176800
104.124000 1.190700
104.200100 1.192700
104.276200 1.178000
104.352400 1.172100
104.428500 1.175800
104.504600 1.179100
104.580700 1.187000
104.656800 1.194000
104.732900 1.208600
104.809100 1.220600
104.885200 1.232800
104.961300 1.229700
105.037400 1.231900
105.113500 1.224800
105.189700 1.208800
105.265800 1.194800
105.341900 1.201000
105.418000 1.192300
105.494100 1.184500
105.570200 1.167500
105.646400 1.153600
105.722500 1.133800
105.798600 1.177600
105.874700 1.124700
105.950800 1.108100
106.027000 1.093000
106.103100 1.081900
106.179200 1.073900
106.255300 1.067700
106.331400 1.066400
106.407500 1.067500
106.483700 1.072200
106.559800 1.053400
106.635900 1.027300
106.712000 1.011500
106.788100 1.082100
106.864200 1.017600
106.940400 1.010100
107.016500 1.067600
107.092600 1.019400
107.168700 1.028300
107.244800 1.036400
107.321000 1.044400
107.397100 1.054600
107.473200 1.064200
107.549300 1.074100
107.625400 1.087400
107.701500 1.092100
107.777700 1.103800
107.853800 1.107400
107.929900 1.115600
108.006000 1.103500
108.082100 1.082100
108.158200 1.051900
108.234400 1.046800
108.310500 1.047000
108.386600 1.045800
108.462700 1.038900
108.538800 1.033500
108.615000 1.027500
108.691100 1.025300
108.767200 1.032500
108.843300 1.035500
108.919400 1.042300
108.995500 1.052600
109.071700 1.060300
109.147800 1.066100
109.223900 1.074400
109.300000 1.089300
109.376100 1.122100
109.452200 1.159900
109.528400 1.246100
109.604500 1.229100
109.680600 1.211300
109.756700 1.198400
109.832800 1.189500
109.909000 1.188700
109.985100 1.184300
110.061200 1.183200
110.137300 1.181100
110.213400 1.175800
110.289500 1.168500
110.365700 1.165400
110.441800 1.172600
110.517900 1.186000
110.594000 1.199800
110.670100 1.209300
110.746200 1.212500
110.822400 1.214100
110.898500 1.283500
110.974600 1.185000
111.050700 1.187500
111.126800 1.191200
111.203000 1.196000
111.279100 1.223400
111.355200 1.237600
111.431300 1.259100
111.507400 1.303300
111.583500 1.344600
111.659700 1.345100
111.735800 1.340500
111.811900 1.327700
111.888000 1.312900
111.964100 1.287200
112.040200 1.261800
112.116400 1.248400
112.192500 1.238400
112.268600 1.215300
112.344700 1.191600
112.420800 1.172600
112.497000 1.138600
112.573100 1.106300
112.649200 1.104300
112.725300 1.068000
112.801400 1.040300
112.877500 1.019900
112.953700 1.016300
113.029800 0.997200
113.105900 0.964000
113.182000 0.942800
113.258100 0.921600
113.334200 0.894300
113.410400 0.880400
113.486500 0.868400
113.562600 0.855900
113.638700 0.841600
113.714800 0.828000
113.791000 0.816300
113.867100 0.793600
113.943200 0.772300
114.019300 0.753800
114.095400 0.740100
114.171500 0.730500
114.247700 0.724800
114.323800 0.733900
114.399900 0.730100
114.476000 0.715900
114.552100 0.703500
114.628200 0.688600
114.704400 0.674000
114.780500 0.667100
114.856600 0.639000
114.932700 0.602600
115.008800 0.583300
115.085000 0.566800
115.161100 0.551500
115.237200 0.542300
115.313300 0.534300
115.389400 0.523900
115.465500 0.510900
115.541700 0.496200
115.617800 0.481100
115.693900 0.464600
115.770000 0.451400
115.846100 0.439200
115.922200 0.426900
115.998400 0.416200
116.074500 0.406900
116.150600 0.398500
116.226700 0.391200
116.302800 0.383500
116.379000 0.377600
116.455100 0.372100
116.531200 0.366900
116.607300 0.362500
116.683400 0.359200
116.759500 0.356200
116.835700 0.354100
116.911800 0.353000
116.987900 0.353000
117.064000 0.354300
117.140100 0.374400
117.216300 0.368500
117.292400 0.355200
117.368500 0.328000
117.444600 0.318900
117.520700 0.309900
117.596800 0.306700
117.673000 0.311700
117.749100 0.305400
117.825200 0.299100
117.901300 0.293900
117.977400 0.288600
118.053500 0.283200
118.129700 0.276300
118.205800 0.273100
118.281900 0.271600
118.358000 0.271400
118.434100 0.272600
118.510300 0.274400
118.586400 0.269100
118.662500 0.266100
118.738600 0.259000
118.814700 0.244000
118.890800 0.237800
118.967000 0.238100
119.043100 0.236600
119.119200 0.222800
119.195300 0.204700
119.271400 0.186700
119.347500 0.168300
119.423700 0.149100
119.499800 0.127800
119.575900 0.112700
119.652000 0.096100
119.728100 0.086300
119.804300 0.077100
119.880400 0.068400
119.956500 0.060200
120.032600 0.052700
120.108700 0.045600
120.184800 0.039600
120.261000 0.034800
120.337100 0.030500
120.413200 0.026800
120.489300 0.023900
120.565400 0.021900
120.641500 0.020200
120.717700 0.018500
120.793800 0.016600
120.869900 0.014600
120.946000 0.012400
121.022100 0.010100
121.098300 0.007700
121.174400 0.005100
121.250500 0.002900
121.326600 0.002600
121.402700 0.002300
121.478800 0.002000
121.555000 0.001700
121.631100 0.001500
121.707200 0.001300
121.783300 0.001100
121.859400 0.000900
121.935500 0.000700
122.011700 0.000600
122.087800 0.000400
122.163900 0.000300
122.240000 0.000200
122.316100 0.000100
122.392300 0.000100
122.468400 0.000000
122.544500 0.000000
122.620600 0.000000
122.696700 0.000000
122.772800 0.000000
122.849000 0.000000
122.925100 0.000000
123.001200 0.000000
123.077300 0.000000
123.153400 0.000000
123.229500 0.000000
123.305700 0.000000
123.381800 0.000000
123.457900 0.000000
123.534000 0.000000
123.610100 0.000000
123.686300 0.000000
123.762400 0.000000
123.838500 0.000000
123.914600 0.000000
123.990700 0.000000
124.066800 0.000000
124.143000 0.000000
124.219100 0.000000
124.295200 0.000000
124.371300 0.000000
124.447400 0.000000
124.523500 0.000000
124.599700 0.000000
124.675800 0.000000
124.751900 0.000000
124.828000 0.000000
124.904100 0.000000
124.980300 0.000000
125.056400 0.000000
125.132500 0.000000
125.208600 0.000000
125.284700 0.000000
125.360800 0.000000
125.437000 0.000000
125.513100 0.000000
125.589200 0.000000
125.665300 0.000000
125.741400 0.000000
125.817500 0.000000
125.893700 0.000000
125.969800 0.000000
126.045900 0.000000
126.122000 0.000000
126.198100 0.000000
126.274300 0.000000
126.350400 0.000000
126.426500 0.000000
126.502600 0.000000
126.578700 0.000000
126.654800 0.000000
126.731000 0.000000
126.807100 0.000000
126.883200 0.000000
126.959300 0.000000
127.035400 0.000000
127.111500 0.000000
127.187700 0.000000
127.263800 0.000000
127.339900 0.000000
127.416000 0.000000
127.492100 0.000000
127.568300 0.000000
127.644400 0.000000
127.720500 0.000000
127.796600 0.000000
127.872700 0.000000
127.948800 0.000000
128.025000 0.000000
128.101100 0.000000
128.177200 0.000000
128.253300 0.000000
128.329400 0.000000
128.405600 0.000000
128.481700 0.000000
128.557800 0.000000
128.633900 0.000000
128.710000 0.000000
128.786100 0.000000
128.862300 0.000000
128.938400 0.000000
129.014500 0.000000
129.090600 0.000000
129.166700 0.000000
129.242800 0.000000
129.319000 0.000000
129.395100 0.000000
129.471200 0.000000
129.547300 0.000000
e
