set title 'mp-982510 - Density of States'
set xlabel 'Energy (eV)'
set ylabel 'DOS (states/eV)'
set grid
set xrange [-10:10]
set yrange [0:15.995]
set xzeroaxis lt -1
set terminal png size 800,600
set output 'mp-982510_dos_gnuplot.png'
plot '-' using 1:2 with lines title 'DOS'
-11.628400 0.000000
-11.606100 0.000000
-11.583800 0.000000
-11.561500 0.000000
-11.539200 0.000000
-11.516900 0.000000
-11.494700 0.000000
-11.472400 0.000000
-11.450100 0.000000
-11.427800 0.000000
-11.405500 0.000000
-11.383200 0.000000
-11.360900 0.000000
-11.338600 0.000000
-11.316300 0.000000
-11.294000 0.000000
-11.271700 0.000000
-11.249400 0.000000
-11.227100 0.000000
-11.204900 0.000000
-11.182600 0.000000
-11.160300 0.000000
-11.138000 0.000000
-11.115700 0.000000
-11.093400 0.000000
-11.071100 0.000000
-11.048800 0.000000
-11.026500 0.000000
-11.004200 0.000000
-10.981900 0.000000
-10.959600 0.000000
-10.937300 0.000000
-10.915000 0.000000
-10.892800 0.000000
-10.870500 0.000000
-10.848200 0.000000
-10.825900 0.000000
-10.803600 0.000000
-10.781300 0.000000
-10.759000 0.000000
-10.736700 0.000000
-10.714400 0.000000
-10.692100 0.000000
-10.669800 0.000000
-10.647500 0.000000
-10.625200 0.000000
-10.602900 0.000000
-10.580700 0.000000
-10.558400 0.000000
-10.536100 0.000000
-10.513800 0.000000
-10.491500 0.000000
-10.469200 0.000000
-10.446900 0.000000
-10.424600 0.000000
-10.402300 0.000000
-10.380000 0.000000
-10.357700 0.000000
-10.335400 0.000000
-10.313100 0.000000
-10.290800 0.000000
-10.268600 0.000000
-10.246300 0.000000
-10.224000 0.000000
-10.201700 0.000000
-10.179400 0.000000
-10.157100 0.000000
-10.134800 0.000000
-10.112500 0.000000
-10.090200 0.000000
-10.067900 0.000000
-10.045600 0.000000
-10.023300 0.000000
-10.001000 0.000000
-9.978700 0.000000
-9.956500 0.000000
-9.934200 0.000000
-9.911900 0.000000
-9.889600 0.000000
-9.867300 0.000000
-9.845000 0.000000
-9.822700 0.000000
-9.800400 0.000000
-9.778100 0.000000
-9.755800 0.000000
-9.733500 0.000000
-9.711200 0.000000
-9.688900 0.000000
-9.666700 0.000000
-9.644400 0.000000
-9.622100 0.000000
-9.599800 0.001500
-9.577500 0.094700
-9.555200 0.245500
-9.532900 0.396200
-9.510600 0.547000
-9.488300 0.648500
-9.466000 0.609700
-9.443700 0.559400
-9.421400 0.509200
-9.399100 0.461800
-9.376800 0.460100
-9.354600 0.477100
-9.332300 0.494000
-9.310000 0.511000
-9.287700 0.528000
-9.265400 0.544900
-9.243100 0.561900
-9.220800 0.578800
-9.198500 0.591900
-9.176200 0.575700
-9.153900 0.552100
-9.131600 0.528600
-9.109300 0.505000
-9.087000 0.496300
-9.064700 0.499800
-9.042500 0.503200
-9.020200 0.506700
-8.997900 0.510200
-8.975600 0.513600
-8.953300 0.517100
-8.931000 0.520500
-8.908700 0.524000
-8.886400 0.527500
-8.864100 0.530900
-8.841800 0.534400
-8.819500 0.537800
-8.797200 0.542400
-8.774900 0.548800
-8.752600 0.555100
-8.730400 0.561500
-8.708100 0.566600
-8.685800 0.558900
-8.663500 0.547800
-8.641200 0.536700
-8.618900 0.525600
-8.596600 0.520600
-8.574300 0.521000
-8.552000 0.521400
-8.529700 0.521700
-8.507400 0.522100
-8.485100 0.522500
-8.462800 0.522800
-8.440500 0.523200
-8.418300 0.523600
-8.396000 0.523900
-8.373700 0.524300
-8.351400 0.524700
-8.329100 0.537400
-8.306800 0.605100
-8.284500 0.721000
-8.262200 0.840000
-8.239900 0.959000
-8.217600 1.070000
-8.195300 1.111300
-8.173000 1.082500
-8.150700 1.045400
-8.128500 1.008400
-8.106200 0.977600
-8.083900 0.972000
-8.061600 0.989300
-8.039300 1.007500
-8.017000 1.023300
-7.994700 1.032000
-7.972400 1.040500
-7.950100 1.049000
-7.927800 1.058200
-7.905500 1.072200
-7.883200 1.083100
-7.860900 1.077500
-7.838600 1.057700
-7.816400 1.038200
-7.794100 1.022900
-7.771800 1.021500
-7.749500 1.029600
-7.727200 1.034400
-7.704900 1.039300
-7.682600 1.044200
-7.660300 1.049000
-7.638000 1.054500
-7.615700 1.061000
-7.593400 1.067700
-7.571100 1.074300
-7.548800 1.080900
-7.526500 1.087600
-7.504300 1.096200
-7.482000 1.108800
-7.459700 1.123200
-7.437400 1.137600
-7.415100 1.152000
-7.392800 1.166300
-7.370500 1.180700
-7.348200 1.190500
-7.325900 1.192000
-7.303600 1.190000
-7.281300 1.189600
-7.259000 1.193200
-7.236700 1.198700
-7.214400 1.204300
-7.192200 1.217400
-7.169900 1.239600
-7.147600 1.884100
-7.125300 1.954900
-7.103000 1.953200
-7.080700 1.964500
-7.058400 1.599800
-7.036100 1.496300
-7.013800 1.508100
-6.991500 1.519900
-6.969200 1.531700
-6.946900 1.543500
-6.924600 1.555300
-6.902300 1.567200
-6.880100 1.579000
-6.857800 1.596700
-6.835500 1.631600
-6.813200 1.676000
-6.790900 2.696200
-6.768600 3.009300
-6.746300 3.310100
-6.724000 4.037600
-6.701700 2.748200
-6.679400 2.548300
-6.657100 2.536800
-6.634800 2.474400
-6.612500 2.356900
-6.590300 2.219200
-6.568000 1.731400
-6.545700 1.336600
-6.523400 1.318000
-6.501100 1.303400
-6.478800 1.291400
-6.456500 1.282100
-6.434200 1.273000
-6.411900 1.264000
-6.389600 1.255000
-6.367300 1.246000
-6.345000 1.428500
-6.322700 3.553400
-6.300400 2.096600
-6.278200 1.272100
-6.255900 1.214300
-6.233600 1.156900
-6.211300 1.152800
-6.189000 1.670400
-6.166700 1.880600
-6.144400 0.871300
-6.122100 0.466500
-6.099800 0.301600
-6.077500 0.295800
-6.055200 0.353100
-6.032900 0.625100
-6.010600 1.506700
-5.988300 1.714500
-5.966100 0.755300
-5.943800 0.672300
-5.921500 0.677400
-5.899200 0.682500
-5.876900 0.687700
-5.854600 0.692800
-5.832300 0.697900
-5.810000 0.703100
-5.787700 0.708300
-5.765400 0.713400
-5.743100 0.622900
-5.720800 0.603500
-5.698500 0.606800
-5.676200 0.610200
-5.654000 0.613500
-5.631700 0.616900
-5.609400 0.620200
-5.587100 0.623600
-5.564800 0.626900
-5.542500 0.630300
-5.520200 0.633600
-5.497900 0.637000
-5.475600 0.640400
-5.453300 0.643700
-5.431000 0.647100
-5.408700 0.650400
-5.386400 0.653800
-5.364100 0.657100
-5.341900 0.640400
-5.319600 0.644800
-5.297300 0.649300
-5.275000 0.653700
-5.252700 0.658200
-5.230400 0.662600
-5.208100 0.667000
-5.185800 0.671500
-5.163500 0.675900
-5.141200 0.680400
-5.118900 0.684800
-5.096600 0.587200
-5.074300 0.595200
-5.052000 0.603100
-5.029800 0.611100
-5.007500 0.619000
-4.985200 0.627000
-4.962900 0.634900
-4.940600 0.642900
-4.918300 0.650800
-4.896000 1.065000
-4.873700 1.057000
-4.851400 1.044700
-4.829100 1.032200
-4.806800 1.019600
-4.784500 1.008900
-4.762200 0.999800
-4.740000 0.990800
-4.717700 0.640700
-4.695400 0.632000
-4.673100 0.623300
-4.650800 0.614600
-4.628500 0.605900
-4.606200 0.597200
-4.583900 0.588700
-4.561600 0.581800
-4.539300 0.574800
-4.517000 0.567800
-4.494700 0.560800
-4.472400 0.553900
-4.450100 0.546900
-4.427900 0.539900
-4.405600 0.533000
-4.383300 0.526000
-4.361000 0.519000
-4.338700 0.512100
-4.316400 0.455000
-4.294100 0.451500
-4.271800 0.448000
-4.249500 0.444500
-4.227200 0.441000
-4.204900 0.437600
-4.182600 0.434100
-4.160300 0.430600
-4.138000 0.427100
-4.115800 0.423600
-4.093500 0.420100
-4.071200 0.416600
-4.048900 0.413100
-4.026600 0.409600
-4.004300 0.406200
-3.982000 0.402700
-3.959700 0.399200
-3.937400 0.395700
-3.915100 0.392200
-3.892800 0.388700
-3.870500 0.385200
-3.848200 0.381700
-3.825900 0.378200
-3.803700 0.374700
-3.781400 0.371300
-3.759100 0.367800
-3.736800 0.364300
-3.714500 0.360800
-3.692200 0.357300
-3.669900 0.353800
-3.647600 0.350300
-3.625300 0.346800
-3.603000 0.914600
-3.580700 0.950500
-3.558400 0.986400
-3.536100 1.024500
-3.513800 1.078200
-3.491600 0.747500
-3.469300 0.778600
-3.447000 0.810700
-3.424700 0.846300
-3.402400 0.882000
-3.380100 0.917600
-3.357800 0.794900
-3.335500 0.812000
-3.313200 0.829000
-3.290900 0.846100
-3.268600 0.863100
-3.246300 0.880200
-3.224000 0.897200
-3.201800 0.914300
-3.179500 0.931300
-3.157200 0.948400
-3.134900 0.965400
-3.112600 0.982500
-3.090300 0.956400
-3.068000 1.035300
-3.045700 1.114100
-3.023400 1.192900
-3.001100 1.271800
-2.978800 1.341800
-2.956500 1.225200
-2.934200 1.179100
-2.911900 1.234200
-2.889700 1.290900
-2.867400 1.348000
-2.845100 1.405100
-2.822800 1.462200
-2.800500 1.519300
-2.778200 1.576300
-2.755900 1.633400
-2.733600 1.760200
-2.711300 1.986500
-2.689000 2.212800
-2.666700 2.439100
-2.644400 2.665400
-2.622100 1.418600
-2.599800 1.394700
-2.577600 1.370900
-2.555300 1.347000
-2.533000 1.323100
-2.510700 1.299300
-2.488400 1.275400
-2.466100 1.684500
-2.443800 1.750000
-2.421500 1.815400
-2.399200 1.867500
-2.376900 1.943000
-2.354600 2.028900
-2.332300 2.115600
-2.310000 2.202200
-2.287700 1.928200
-2.265500 1.934000
-2.243200 1.939700
-2.220900 1.946600
-2.198600 1.958100
-2.176300 1.962600
-2.154000 1.966700
-2.131700 2.112500
-2.109400 2.150500
-2.087100 2.189300
-2.064800 2.294800
-2.042500 2.610300
-2.020200 2.853100
-1.997900 2.892000
-1.975600 2.890700
-1.953400 2.884700
-1.931100 2.878700
-1.908800 2.872700
-1.886500 2.822800
-1.864200 3.956300
-1.841900 3.678200
-1.819600 2.035300
-1.797300 2.254500
-1.775000 2.575800
-1.752700 3.082900
-1.730400 3.292800
-1.708100 3.502700
-1.685800 4.046700
-1.663600 3.647000
-1.641300 3.436600
-1.619000 3.223900
-1.596700 2.781900
-1.574400 2.374800
-1.552100 2.303000
-1.529800 2.281900
-1.507500 2.260800
-1.485200 2.239700
-1.462900 2.024800
-1.440600 1.991600
-1.418300 1.958300
-1.396000 1.925100
-1.373700 1.889600
-1.351500 1.848200
-1.329200 1.820500
-1.306900 1.799100
-1.284600 1.777600
-1.262300 1.756100
-1.240000 1.734600
-1.217700 1.175700
-1.195400 0.482700
-1.173100 0.493200
-1.150800 0.503800
-1.128500 0.750500
-1.106200 2.537800
-1.083900 3.603200
-1.061600 3.169600
-1.039400 3.330200
-1.017100 3.609900
-0.994800 3.765400
-0.972500 3.878100
-0.950200 4.025200
-0.927900 3.975700
-0.905600 3.880600
-0.883300 3.783600
-0.861000 3.706200
-0.838700 3.748300
-0.816400 3.761000
-0.794100 3.728100
-0.771800 3.690100
-0.749500 3.086600
-0.727300 2.280200
-0.705000 2.406600
-0.682700 2.798500
-0.660400 3.210300
-0.638100 3.344600
-0.615800 3.452500
-0.593500 3.406400
-0.571200 4.278000
-0.548900 5.681400
-0.526600 5.383600
-0.504300 5.122300
-0.482000 4.926100
-0.459700 8.435700
-0.437400 4.260800
-0.415200 4.141600
-0.392900 2.605400
-0.370600 2.350700
-0.348300 1.850700
-0.326000 1.559600
-0.303700 2.294900
-0.281400 2.422600
-0.259100 3.031200
-0.236800 3.055100
-0.214500 3.140400
-0.192200 3.364700
-0.169900 4.168600
-0.147600 3.601400
-0.125300 5.276400
-0.103100 3.538200
-0.080800 3.663100
-0.058500 3.789400
-0.036200 3.926900
-0.013900 4.091300
0.008400 4.796600
0.030700 4.701300
0.053000 5.262600
0.075300 5.868100
0.097600 6.315900
0.119900 6.619400
0.142200 7.404900
0.164500 9.346200
0.186700 10.655200
0.209000 10.274500
0.231300 12.060500
0.253600 14.541000
0.275900 6.502200
0.298200 4.860600
0.320500 3.295100
0.342800 2.933000
0.365100 3.476500
0.387400 3.271400
0.409700 2.610600
0.432000 3.857800
0.454300 3.952500
0.476600 3.821900
0.498800 3.462000
0.521100 3.170800
0.543400 2.315300
0.565700 1.642400
0.588000 1.528100
0.610300 1.503500
0.632600 1.483500
0.654900 1.487000
0.677200 1.490900
0.699500 1.537700
0.721800 1.708200
0.744100 2.001600
0.766400 1.945100
0.788700 2.044300
0.810900 1.964800
0.833200 3.054600
0.855500 2.121800
0.877800 2.127500
0.900100 2.140700
0.922400 2.150900
0.944700 2.156100
0.967000 2.382100
0.989300 2.894200
1.011600 3.202600
1.033900 4.004400
1.056200 4.306500
1.078500 4.420300
1.100800 4.351300
1.123000 4.631700
1.145300 3.278900
1.167600 2.806000
1.189900 2.429800
1.212200 2.401400
1.234500 3.729000
1.256800 2.705800
1.279100 2.332200
1.301400 2.618900
1.323700 2.789800
1.346000 2.825200
1.368300 2.574000
1.390600 2.396900
1.412900 2.442100
1.435100 2.466400
1.457400 2.461800
1.479700 2.426700
1.502000 2.381600
1.524300 2.332500
1.546600 2.284100
1.568900 2.226100
1.591200 2.153700
1.613500 2.064900
1.635800 1.922100
1.658100 1.826600
1.680400 1.766200
1.702700 1.735600
1.724900 1.832400
1.747200 1.848000
1.769500 1.828400
1.791800 1.897100
1.814100 1.698100
1.836400 1.558500
1.858700 1.548100
1.881000 1.585300
1.903300 1.631600
1.925600 1.684500
1.947900 1.731300
1.970200 1.763300
1.992500 1.783700
2.014800 1.803700
2.037000 1.837400
2.059300 1.855600
2.081600 1.900700
2.103900 1.973100
2.126200 2.117800
2.148500 2.185000
2.170800 2.183800
2.193100 2.194300
2.215400 2.219100
2.237700 2.241300
2.260000 2.243900
2.282300 2.230400
2.304600 2.215000
2.326900 2.195200
2.349100 2.181100
2.371400 2.149300
2.393700 2.096200
2.416000 2.042200
2.438300 2.025100
2.460600 2.017300
2.482900 1.944600
2.505200 1.880900
2.527500 1.843600
2.549800 1.881300
2.572100 2.036400
2.594400 1.818000
2.616700 1.673600
2.639000 1.559900
2.661200 1.479200
2.683500 1.433400
2.705800 1.408800
2.728100 1.394500
2.750400 1.395500
2.772700 1.429600
2.795000 1.465200
2.817300 1.492100
2.839600 1.525500
2.861900 1.574400
2.884200 1.625400
2.906500 1.662400
2.928800 1.677900
2.951100 1.675100
2.973300 1.676100
2.995600 1.677900
3.017900 1.688600
3.040200 1.710300
3.062500 1.739200
3.084800 3.018700
3.107100 1.994700
3.129400 2.032900
3.151700 2.122600
3.174000 2.221800
3.196300 2.385200
3.218600 2.429600
3.240900 2.427000
3.263100 2.509400
3.285400 2.507400
3.307700 2.543200
3.330000 2.588000
3.352300 2.606900
3.374600 2.570700
3.396900 2.428600
3.419200 2.439200
3.441500 2.436200
3.463800 2.425500
3.486100 2.382400
3.508400 2.342900
3.530700 2.281100
3.553000 2.201600
3.575200 2.308800
3.597500 2.419800
3.619800 2.543100
3.642100 2.558400
3.664400 2.528700
3.686700 2.629300
3.709000 2.853200
3.731300 3.177600
3.753600 3.356900
3.775900 3.478900
3.798200 3.687800
3.820500 4.322300
3.842800 3.311700
3.865100 3.337400
3.887300 3.240900
3.909600 3.006200
3.931900 3.067300
3.954200 3.000300
3.976500 2.852400
3.998800 2.762500
4.021100 2.750400
4.043400 2.685100
4.065700 2.654100
4.088000 2.520100
4.110300 2.442800
4.132600 2.441500
4.154900 2.421700
4.177200 2.384800
4.199400 2.425200
4.221700 2.573200
4.244000 2.866100
4.266300 2.829000
4.288600 2.758900
4.310900 2.717400
4.333200 2.760600
4.355500 3.148400
4.377800 3.202300
4.400100 2.890400
4.422400 2.938200
4.444700 2.979700
4.467000 2.949800
4.489300 2.955400
4.511500 3.027900
4.533800 3.100400
4.556100 3.229900
4.578400 3.497600
4.600700 3.336600
4.623000 3.324900
4.645300 3.165700
4.667600 3.171700
4.689900 3.186500
4.712200 3.226000
4.734500 3.287400
4.756800 3.302100
4.779100 3.302900
4.801300 3.235300
4.823600 3.373400
4.845900 3.373700
4.868200 3.298500
4.890500 2.973400
4.912800 2.819500
4.935100 2.807500
4.957400 2.835100
4.979700 2.832400
5.002000 2.757400
5.024300 2.706800
5.046600 2.623700
5.068900 2.538900
5.091200 2.431100
5.113400 2.362600
5.135700 2.228500
5.158000 2.085800
5.180300 1.888400
5.202600 1.614100
5.224900 1.406000
5.247200 1.248700
5.269500 1.193000
5.291800 1.167200
5.314100 1.144800
5.336400 1.147700
5.358700 1.233800
5.381000 1.256700
5.403300 1.269800
5.425500 1.275700
5.447800 1.280800
5.470100 1.285900
5.492400 1.291000
5.514700 1.294800
5.537000 1.284000
5.559300 1.253000
5.581600 1.135900
5.603900 1.041500
5.626200 0.995400
5.648500 0.964500
5.670800 0.941300
5.693100 0.936600
5.715400 0.942300
5.737600 0.956000
5.759900 0.971400
5.782200 0.989000
5.804500 1.015100
5.826800 1.046100
5.849100 1.077200
5.871400 1.116000
5.893700 1.160100
5.916000 1.204100
5.938300 1.248200
5.960600 1.292200
5.982900 1.335700
6.005200 1.309600
6.027500 1.283500
6.049700 1.257300
6.072000 1.231200
6.094300 1.206200
6.116600 1.188100
6.138900 1.170000
6.161200 1.151900
6.183500 1.148500
6.205800 1.106800
6.228100 1.064900
6.250400 1.023000
6.272700 0.993600
6.295000 1.013500
6.317300 1.029500
6.339600 1.062200
6.361800 1.089200
6.384100 1.096500
6.406400 1.103700
6.428700 1.111000
6.451000 1.118300
6.473300 1.125500
6.495600 1.132800
6.517900 1.140000
6.540200 1.147400
6.562500 1.154900
6.584800 1.162500
6.607100 1.165800
6.629400 1.163500
6.651600 1.158600
6.673900 1.150400
6.696200 1.144600
6.718500 1.142400
6.740800 1.142300
6.763100 1.144600
6.785400 1.147700
6.807700 1.150900
6.830000 1.162700
6.852300 1.188900
6.874600 1.211000
6.896900 1.233100
6.919200 1.255200
6.941500 1.277300
6.963700 1.354300
6.986000 1.322700
7.008300 1.314900
7.030600 1.307100
7.052900 1.299300
7.075200 1.291500
7.097500 1.139300
7.119800 1.139500
7.142100 1.139700
7.164400 1.139900
7.186700 1.140100
7.209000 1.140200
7.231300 1.140400
7.253600 1.140600
7.275800 1.131200
7.298100 1.129200
7.320400 1.148700
7.342700 1.177500
7.365000 1.206100
7.387300 1.234700
7.409600 1.263200
7.431900 1.285300
7.454200 1.303000
7.476500 1.321800
7.498800 1.352500
7.521100 1.296900
7.543400 1.338800
7.565700 0.904000
7.587900 0.868300
7.610200 0.862400
7.632500 0.856500
7.654800 0.850900
7.677100 0.856200
7.699400 0.857800
7.721700 0.845900
7.744000 0.834500
7.766300 0.823600
7.788600 0.880900
7.810900 1.065700
7.833200 1.252000
7.855500 1.444400
7.877800 1.641900
7.900000 1.869500
7.922300 1.945300
7.944600 1.958500
7.966900 1.834300
7.989200 1.614600
8.011500 1.544500
8.033800 1.537300
8.056100 1.541400
8.078400 1.543800
8.100700 1.545800
8.123000 1.546500
8.145300 1.555200
8.167600 1.574300
8.189800 1.612400
8.212100 1.672000
8.234400 1.704400
8.256700 1.747800
8.279000 1.692500
8.301300 1.585600
8.323600 1.442500
8.345900 1.344100
8.368200 1.270900
8.390500 1.214500
8.412800 1.223000
8.435100 1.311300
8.457400 1.382300
8.479700 1.419900
8.501900 1.472200
8.524200 1.536600
8.546500 1.591000
8.568800 1.708100
8.591100 1.814800
8.613400 1.870900
8.635700 1.925800
8.658000 1.979600
8.680300 2.016700
8.702600 2.051400
8.724900 2.210000
8.747200 2.350900
8.769500 2.429800
8.791800 2.578000
8.814000 2.808300
8.836300 2.815000
8.858600 2.635000
8.880900 2.558600
8.903200 2.484000
8.925500 2.403800
8.947800 2.233900
8.970100 2.147700
8.992400 2.079700
9.014700 2.000000
9.037000 1.936900
9.059300 1.878000
9.081600 1.840700
9.103900 1.833700
9.126100 1.817100
9.148400 1.793700
9.170700 1.773400
9.193000 1.756400
9.215300 1.742400
9.237600 1.741900
9.259900 1.749500
9.282200 1.749800
9.304500 1.797800
9.326800 1.872400
9.349100 1.926000
9.371400 1.970300
9.393700 1.991300
9.416000 1.992700
9.438200 2.020900
9.460500 2.071000
9.482800 2.019600
9.505100 1.992000
9.527400 1.843700
9.549700 1.739800
9.572000 1.676700
9.594300 1.624600
9.616600 1.587000
9.638900 1.548400
9.661200 1.563400
9.683500 1.636400
9.705800 1.592700
9.728000 1.485000
9.750300 1.399700
9.772600 1.191400
9.794900 1.246700
9.817200 1.664900
9.839500 1.637300
9.861800 1.557100
9.884100 1.575100
9.906400 1.598900
9.928700 1.614600
9.951000 1.679900
9.973300 1.687400
9.995600 1.712600
10.017900 1.817600
10.040100 1.901800
10.062400 1.939900
10.084700 1.989600
10.107000 1.882400
10.129300 1.917400
10.151600 1.972400
10.173900 1.970100
10.196200 1.984100
10.218500 1.995500
10.240800 2.004000
10.263100 2.009500
10.285400 2.014200
10.307700 2.019900
10.330000 2.025800
10.352200 2.033800
10.374500 2.091800
10.396800 2.214700
10.419100 2.330000
10.441400 2.373300
10.463700 2.403000
10.486000 2.428800
10.508300 2.459500
10.530600 2.491900
10.552900 2.376600
10.575200 2.333800
10.597500 2.352900
10.619800 2.404500
10.642100 2.432800
10.664300 2.410000
10.686600 2.337200
10.708900 2.363400
10.731200 2.362400
10.753500 2.374600
10.775800 2.385100
10.798100 2.394400
10.820400 2.393500
10.842700 2.333700
10.865000 2.187500
10.887300 2.200000
10.909600 2.297400
10.931900 2.407700
10.954200 2.345200
10.976400 2.291700
10.998700 2.258400
11.021000 2.242600
11.043300 2.215700
11.065600 2.146100
11.087900 2.038600
11.110200 1.943200
11.132500 1.880100
11.154800 1.879200
11.177100 1.904000
11.199400 1.878000
11.221700 1.868900
11.244000 1.881600
11.266300 1.955300
11.288500 2.021100
11.310800 2.099900
11.333100 2.218800
11.355400 2.334200
11.377700 2.408800
11.400000 2.484400
11.422300 2.583900
11.444600 2.744800
11.466900 2.850300
11.489200 2.955300
11.511500 3.342200
11.533800 3.161100
11.556100 3.106000
11.578300 3.285600
11.600600 3.240600
11.622900 3.189600
11.645200 3.153300
11.667500 3.093500
11.689800 2.926500
11.712100 2.775800
11.734400 2.656600
11.756700 2.565300
11.779000 2.521100
11.801300 2.499200
11.823600 2.493000
11.845900 2.495100
11.868200 2.502700
11.890400 2.521800
11.912700 2.546500
11.935000 2.585300
11.957300 2.616000
11.979600 2.623700
12.001900 2.645400
12.024200 2.674600
12.046500 2.710200
12.068800 2.745400
12.091100 2.755800
12.113400 2.775800
12.135700 2.857100
12.158000 2.917600
12.180300 2.930000
12.202500 2.904500
12.224800 2.865400
12.247100 2.901500
12.269400 2.886200
12.291700 2.819400
12.314000 2.786800
12.336300 2.897000
12.358600 2.614100
12.380900 2.510000
12.403200 2.467300
12.425500 2.449900
12.447800 2.453800
12.470100 2.459300
12.492400 2.402500
12.514600 2.352200
12.536900 2.154700
12.559200 1.976000
12.581500 1.870600
12.603800 1.779400
12.626100 1.706400
12.648400 1.644600
12.670700 1.602200
12.693000 1.579900
12.715300 1.571000
12.737600 1.572700
12.759900 1.582100
12.782200 1.596200
12.804500 1.601500
12.826700 1.626100
12.849000 1.664700
12.871300 1.728100
12.893600 1.819100
12.915900 1.943800
12.938200 2.029800
12.960500 2.127200
12.982800 2.238000
13.005100 2.414300
13.027400 2.662300
13.049700 3.123500
13.072000 3.656300
13.094300 4.604300
13.116500 4.840800
13.138800 4.478400
13.161100 4.154800
13.183400 3.989200
13.205700 3.942900
13.228000 3.929500
13.250300 3.737600
13.272600 3.806800
13.294900 3.889700
13.317200 4.747700
13.339500 3.878500
13.361800 3.910300
13.384100 3.921400
13.406400 3.918500
13.428600 3.918500
13.450900 3.848300
13.473200 3.777200
13.495500 3.739100
13.517800 3.725800
13.540100 3.690700
13.562400 3.631500
13.584700 3.815200
13.607000 3.463500
13.629300 3.446200
13.651600 3.639700
13.673900 3.528500
13.696200 3.415400
13.718500 3.425900
13.740700 3.355700
13.763000 3.328100
13.785300 3.297200
13.807600 3.324300
13.829900 3.380700
13.852200 3.457300
13.874500 3.498300
13.896800 3.476100
13.919100 3.483800
13.941400 3.733200
13.963700 3.463500
13.986000 3.398600
14.008300 3.402300
14.030600 3.395300
14.052800 3.381700
14.075100 3.353700
14.097400 3.266800
14.119700 2.967700
14.142000 2.804700
14.164300 2.716200
14.186600 2.634600
14.208900 2.553700
14.231200 2.550200
14.253500 2.422100
14.275800 2.195300
14.298100 2.148900
14.320400 2.154700
14.342700 2.115500
14.364900 2.094600
14.387200 2.077600
14.409500 2.065000
14.431800 2.057100
14.454100 2.054100
14.476400 2.073900
14.498700 2.112800
14.521000 2.230000
14.543300 2.376800
14.565600 2.537200
14.587900 2.735900
14.610200 2.971900
14.632500 3.181500
14.654700 3.385900
14.677000 3.574300
14.699300 3.482200
14.721600 3.594100
14.743900 3.848200
14.766200 3.929100
14.788500 4.161800
14.810800 3.651300
14.833100 3.457200
14.855400 3.440000
14.877700 3.459600
14.900000 3.440400
14.922300 3.386200
14.944600 3.329600
14.966800 3.287400
14.989100 3.275400
15.011400 3.346700
15.033700 3.442700
15.056000 3.573900
15.078300 3.476700
15.100600 3.319100
15.122900 3.203700
15.145200 3.109100
15.167500 3.105900
15.189800 3.108000
15.212100 3.152600
15.234400 3.321800
15.256700 3.320000
15.278900 3.313200
15.301200 3.104100
15.323500 2.876800
15.345800 2.656400
15.368100 2.506300
15.390400 2.405000
15.412700 2.315600
15.435000 2.272000
15.457300 2.269100
15.479600 2.308000
15.501900 2.318500
15.524200 2.286200
15.546500 2.254600
15.568800 2.199200
15.591000 2.147600
15.613300 2.098900
15.635600 2.045500
15.657900 2.001400
15.680200 1.952200
15.702500 1.902400
15.724800 1.868500
15.747100 1.844000
15.769400 1.828800
15.791700 1.797600
15.814000 1.749200
15.836300 1.716300
15.858600 1.704300
15.880900 1.705400
15.903100 1.748000
15.925400 1.770000
15.947700 1.789500
15.970000 1.809600
15.992300 1.830100
16.014600 1.836300
16.036900 1.853800
16.059200 1.863600
16.081500 1.929500
16.103800 2.029900
16.126100 2.183900
16.148400 2.398200
16.170700 2.483100
16.193000 2.815100
16.215200 3.105800
16.237500 3.235300
16.259800 3.416400
16.282100 3.410300
16.304400 3.369700
16.326700 3.141800
16.349000 3.063600
16.371300 3.066800
16.393600 3.070800
16.415900 3.099700
16.438200 3.139500
16.460500 3.234600
16.482800 3.147600
16.505000 3.059500
16.527300 2.881000
16.549600 2.718500
16.571900 2.643800
16.594200 2.556100
16.616500 2.472300
16.638800 2.403500
16.661100 2.700000
16.683400 2.940100
16.705700 3.018000
16.728000 2.761400
16.750300 2.697900
16.772600 2.738200
16.794900 2.783500
16.817100 2.842300
16.839400 2.881400
16.861700 2.904300
16.884000 2.881200
16.906300 2.893800
16.928600 2.859300
16.950900 2.784500
16.973200 2.735900
16.995500 2.678400
17.017800 2.618800
17.040100 2.576000
17.062400 2.551800
17.084700 2.542200
17.107000 2.534700
17.129200 2.500900
17.151500 2.517700
17.173800 2.530700
17.196100 2.553600
17.218400 2.600600
17.240700 2.609400
17.263000 2.605900
17.285300 2.607600
17.307600 2.603700
17.329900 2.597300
17.352200 2.585100
17.374500 2.563600
17.396800 2.532900
17.419100 2.516500
17.441300 2.526000
17.463600 2.544900
17.485900 2.629300
17.508200 2.687000
17.530500 2.802000
17.552800 2.956600
17.575100 2.919900
17.597400 2.871300
17.619700 2.848900
17.642000 2.872700
17.664300 2.883400
17.686600 2.897900
17.708900 2.862100
17.731200 2.864500
17.753400 2.917100
17.775700 3.005100
17.798000 3.070700
17.820300 3.085200
17.842600 3.088200
17.864900 3.165200
17.887200 3.266200
17.909500 3.356200
17.931800 3.413300
17.954100 3.426000
17.976400 3.396300
17.998700 3.432800
18.021000 3.655400
18.043200 3.983700
18.065500 3.848900
18.087800 3.424300
18.110100 3.325200
18.132400 3.209900
18.154700 3.089900
18.177000 2.934100
18.199300 2.761700
18.221600 2.646000
18.243900 2.542600
18.266200 2.454300
18.288500 2.377700
18.310800 2.310600
18.333100 2.297300
18.355300 2.241100
18.377600 2.162000
18.399900 2.105100
18.422200 2.078900
18.444500 2.207600
18.466800 2.559400
18.489100 2.495700
18.511400 2.447400
18.533700 2.437500
18.556000 2.437300
18.578300 2.449300
18.600600 2.446300
18.622900 2.432100
18.645200 2.721400
18.667400 2.686600
18.689700 2.703700
18.712000 2.708800
18.734300 2.710600
18.756600 2.720800
18.778900 2.791900
18.801200 2.925100
18.823500 3.078200
18.845800 3.153900
18.868100 3.047900
18.890400 3.019600
18.912700 2.986300
18.935000 2.903400
18.957300 2.837300
18.979500 2.773300
19.001800 2.712200
19.024100 2.557000
19.046400 2.478200
19.068700 2.453900
19.091000 2.474200
19.113300 2.484800
19.135600 2.471800
19.157900 2.447000
19.180200 2.433100
19.202500 2.426400
19.224800 2.499600
19.247100 2.627000
19.269400 2.904400
19.291600 3.143100
19.313900 3.366900
19.336200 3.696600
19.358500 3.926400
19.380800 4.173900
19.403100 4.409700
19.425400 4.612100
19.447700 4.546200
19.470000 4.140400
19.492300 3.809100
19.514600 3.559900
19.536900 3.400900
19.559200 3.224900
19.581400 3.004300
19.603700 2.934400
19.626000 2.925900
19.648300 2.975700
19.670600 3.023600
19.692900 3.027900
19.715200 3.123800
19.737500 3.272800
19.759800 3.364900
19.782100 3.459600
19.804400 3.582800
19.826700 3.616600
19.849000 3.660700
19.871300 3.736800
19.893500 3.739200
19.915800 3.652600
19.938100 3.565400
19.960400 3.473400
19.982700 3.382700
20.005000 3.314800
20.027300 3.249400
20.049600 3.186500
20.071900 3.258200
20.094200 3.194800
20.116500 3.139300
20.138800 3.094900
20.161100 3.048300
20.183400 2.988300
20.205600 3.041100
20.227900 3.130900
20.250200 3.756200
20.272500 2.648700
20.294800 2.563200
20.317100 2.823500
20.339400 2.761400
20.361700 2.839300
20.384000 2.790100
20.406300 2.806000
20.428600 2.879700
20.450900 2.927100
20.473200 2.911200
20.495500 2.897900
20.517700 2.855400
20.540000 2.783400
20.562300 2.690900
20.584600 2.563200
20.606900 2.447800
20.629200 2.345600
20.651500 2.220400
20.673800 2.082200
20.696100 2.038300
20.718400 2.069300
20.740700 2.179500
20.763000 2.289800
20.785300 2.620900
20.807600 2.226600
20.829800 2.294000
20.852100 2.430200
20.874400 2.723100
20.896700 2.826900
20.919000 2.860700
20.941300 2.880100
20.963600 2.980000
20.985900 3.100200
21.008200 3.153000
21.030500 3.122800
21.052800 3.079900
21.075100 3.011000
21.097400 2.984400
21.119600 2.949600
21.141900 2.944900
21.164200 3.053000
21.186500 3.064000
21.208800 3.031500
21.231100 3.109000
21.253400 2.920000
21.275700 2.917600
21.298000 2.917800
21.320300 2.913800
21.342600 2.917600
21.364900 2.920400
21.387200 2.922200
21.409500 2.924300
21.431700 2.916400
21.454000 2.901000
21.476300 2.887500
21.498600 2.909300
21.520900 2.917800
21.543200 3.046300
21.565500 2.772700
21.587800 2.790500
21.610100 2.789700
21.632400 2.773700
21.654700 2.800300
21.677000 2.756500
21.699300 2.684800
21.721600 2.657100
21.743800 2.664300
21.766100 2.690200
21.788400 2.720600
21.810700 2.844200
21.833000 3.282000
21.855300 3.217700
21.877600 3.523100
21.899900 3.632700
21.922200 3.395500
21.944500 3.288500
21.966800 3.136400
21.989100 2.885200
22.011400 2.858300
22.033700 2.849800
22.055900 2.909600
22.078200 2.904600
22.100500 2.948600
22.122800 3.048900
22.145100 3.131100
22.167400 3.218900
22.189700 3.383900
22.212000 3.526600
22.234300 3.360000
22.256600 3.370800
22.278900 3.378300
22.301200 3.388300
22.323500 3.453700
22.345800 3.636600
22.368000 3.756500
22.390300 3.788200
22.412600 3.781400
22.434900 3.773300
22.457200 3.764600
22.479500 3.773000
22.501800 3.780500
22.524100 3.772600
22.546400 3.713100
22.568700 3.657300
22.591000 3.597000
22.613300 3.590600
22.635600 3.656000
22.657900 3.681900
22.680100 3.407100
22.702400 3.176500
22.724700 3.070100
22.747000 3.110300
22.769300 3.086400
22.791600 3.105600
22.813900 3.222900
22.836200 3.392200
22.858500 3.460500
22.880800 3.556400
22.903100 3.704200
22.925400 3.742000
22.947700 3.828300
22.969900 3.650800
22.992200 3.660000
23.014500 3.670800
23.036800 3.739100
23.059100 3.730100
23.081400 3.767900
23.103700 3.685400
23.126000 3.595800
23.148300 3.570800
23.170600 3.684100
23.192900 3.584400
23.215200 3.547600
23.237500 3.496800
23.259800 3.492800
23.282000 3.501700
23.304300 3.481000
23.326600 3.487600
23.348900 3.528000
23.371200 3.582500
23.393500 3.636800
23.415800 3.735700
23.438100 3.943600
23.460400 3.859000
23.482700 3.862800
23.505000 3.896700
23.527300 3.968300
23.549600 4.008100
23.571900 3.975100
23.594100 3.938400
23.616400 3.887900
23.638700 3.772800
23.661000 3.649000
23.683300 3.575700
23.705600 3.598500
23.727900 3.737400
23.750200 3.973400
23.772500 3.954000
23.794800 4.034200
23.817100 4.093500
23.839400 4.162500
23.861700 4.130200
23.884000 4.043100
23.906200 3.882300
23.928500 3.777500
23.950800 3.495500
23.973100 3.340500
23.995400 3.278400
24.017700 3.192100
24.040000 3.086800
24.062300 3.046900
24.084600 2.977900
24.106900 2.895600
24.129200 2.851000
24.151500 2.834800
24.173800 2.843200
24.196100 2.987000
24.218300 2.893800
24.240600 3.048000
24.262900 3.328800
24.285200 3.537300
24.307500 3.642200
24.329800 3.569100
24.352100 3.589000
24.374400 3.548400
24.396700 3.480900
24.419000 3.420100
24.441300 3.314800
24.463600 3.135900
24.485900 3.062700
24.508100 3.060100
24.530400 3.058000
24.552700 3.023300
24.575000 2.947600
24.597300 2.922900
24.619600 3.024100
24.641900 3.379500
24.664200 3.421400
24.686500 3.501400
24.708800 3.543300
24.731100 3.564500
24.753400 3.617400
24.775700 3.634900
24.798000 3.638200
24.820200 3.660100
24.842500 3.675100
24.864800 3.626600
24.887100 3.533700
24.909400 3.128500
24.931700 2.993200
24.954000 2.799400
24.976300 2.669800
24.998600 2.525700
25.020900 2.408600
25.043200 2.393000
25.065500 2.386100
25.087800 2.380300
25.110100 2.322700
25.132300 2.331700
25.154600 2.352500
25.176900 2.374500
25.199200 2.421000
25.221500 2.613900
25.243800 2.775800
25.266100 2.891200
25.288400 2.781500
25.310700 2.956200
25.333000 3.319600
25.355300 3.497700
25.377600 3.501900
25.399900 3.528700
25.422200 3.573100
25.444400 3.416700
25.466700 3.165700
25.489000 3.047500
25.511300 3.038400
25.533600 3.037000
25.555900 3.069000
25.578200 3.156900
25.600500 3.282000
25.622800 3.546400
25.645100 3.744400
25.667400 3.958100
25.689700 4.207900
25.712000 4.119000
25.734300 4.088000
25.756500 4.088100
25.778800 4.078200
25.801100 3.991700
25.823400 4.148300
25.845700 4.295700
25.868000 4.285100
25.890300 4.048600
25.912600 3.968600
25.934900 3.917800
25.957200 3.920300
25.979500 3.679100
26.001800 3.631700
26.024100 3.590800
26.046300 3.477700
26.068600 3.544400
26.090900 3.683500
26.113200 3.737100
26.135500 3.642800
26.157800 3.451100
26.180100 3.414500
26.202400 3.387900
26.224700 3.363400
26.247000 3.357900
26.269300 3.576400
26.291600 3.443900
26.313900 3.485400
26.336200 3.154000
26.358400 3.164000
26.380700 3.257500
26.403000 3.366900
26.425300 3.469200
26.447600 3.715100
26.469900 3.762700
26.492200 3.806200
26.514500 3.888000
26.536800 3.987900
26.559100 3.917800
26.581400 3.845500
26.603700 3.831700
26.626000 3.671700
26.648300 3.545100
26.670500 3.539800
26.692800 3.459700
26.715100 3.150900
26.737400 2.918400
26.759700 2.719100
26.782000 2.534400
26.804300 2.391500
26.826600 2.300200
26.848900 2.273600
26.871200 2.278300
26.893500 2.238100
26.915800 2.289400
26.938100 2.454800
26.960400 2.421800
26.982600 2.487400
27.004900 2.625500
27.027200 2.873200
27.049500 3.137900
27.071800 3.329400
27.094100 3.375900
27.116400 3.293900
27.138700 3.234600
27.161000 3.197800
27.183300 3.158900
27.205600 3.110800
27.227900 3.073200
27.250200 3.074000
27.272500 3.242300
27.294700 3.521400
27.317000 3.756000
27.339300 4.990500
27.361600 4.565500
27.383900 4.117100
27.406200 3.625300
27.428500 3.135200
27.450800 2.986200
27.473100 2.975700
27.495400 3.029100
27.517700 3.354600
27.540000 3.371800
27.562300 3.512400
27.584600 3.720400
27.606800 3.860500
27.629100 3.892200
27.651400 3.730000
27.673700 3.581100
27.696000 3.570000
27.718300 3.535600
27.740600 3.484100
27.762900 3.386200
27.785200 3.281500
27.807500 3.204200
27.829800 3.241400
27.852100 3.121400
27.874400 2.992900
27.896600 2.902700
27.918900 2.872800
27.941200 2.864700
27.963500 3.097200
27.985800 3.315200
28.008100 3.330000
28.030400 3.377800
28.052700 3.419300
28.075000 3.373400
28.097300 3.354900
28.119600 3.236800
28.141900 3.016500
28.164200 2.958100
28.186500 2.807900
28.208700 2.612500
28.231000 2.414600
28.253300 2.178200
28.275600 2.188200
28.297900 2.116700
28.320200 2.119700
28.342500 2.055100
28.364800 2.040300
28.387100 1.995800
28.409400 1.977000
28.431700 2.044600
28.454000 2.131600
28.476300 2.227000
28.498600 2.354000
28.520800 2.497800
28.543100 2.601500
28.565400 2.630300
28.587700 2.697900
28.610000 2.743400
28.632300 2.894800
28.654600 3.129500
28.676900 3.508900
28.699200 3.914900
28.721500 4.123700
28.743800 4.277800
28.766100 4.350300
28.788400 4.164200
28.810700 4.120100
28.832900 4.116300
28.855200 4.088500
28.877500 4.070200
28.899800 4.098000
28.922100 4.135800
28.944400 4.187200
28.966700 4.146700
28.989000 4.113300
29.011300 4.050100
29.033600 3.946900
29.055900 3.972200
29.078200 4.029700
29.100500 4.016900
29.122800 4.112800
29.145000 4.134600
29.167300 4.098400
29.189600 4.010000
29.211900 4.051300
29.234200 4.003700
29.256500 3.826100
29.278800 3.740800
29.301100 3.665900
29.323400 3.442600
29.345700 3.309800
29.368000 3.228900
29.390300 3.118500
29.412600 3.070500
29.434800 3.031900
29.457100 3.099800
29.479400 3.019400
29.501700 3.024400
29.524000 3.059600
29.546300 3.153200
29.568600 3.167400
29.590900 3.228900
29.613200 3.306000
29.635500 3.427000
29.657800 3.586100
29.680100 3.750800
29.702400 3.833100
29.724700 3.729200
29.746900 3.620300
29.769200 3.423300
29.791500 3.236600
29.813800 3.071600
29.836100 2.920800
29.858400 2.785800
29.880700 2.611100
29.903000 2.402700
29.925300 2.219200
29.947600 2.057300
29.969900 1.926000
29.992200 1.883600
30.014500 1.610200
30.036800 1.595600
30.059000 1.710700
30.081300 1.802700
30.103600 1.899500
30.125900 1.675200
30.148200 1.622600
30.170500 1.595700
30.192800 1.506000
30.215100 1.432900
30.237400 1.446200
30.259700 1.109800
30.282000 0.819000
30.304300 0.641000
30.326600 0.479800
30.348900 0.350100
30.371100 0.280900
30.393400 0.255000
30.415700 0.231500
30.438000 0.210500
30.460300 0.192000
30.482600 0.176200
30.504900 0.164100
30.527200 0.152600
30.549500 0.141500
30.571800 0.130900
30.594100 0.120800
30.616400 0.111100
30.638700 0.101900
30.661000 0.093100
30.683200 0.084700
30.705500 0.076800
30.727800 0.069400
30.750100 0.062400
30.772400 0.055900
30.794700 0.049800
30.817000 0.044200
30.839300 0.039000
30.861600 0.033100
30.883900 0.026100
30.906200 0.018000
30.928500 0.008700
30.950800 0.000000
30.973000 0.000000
30.995300 0.000000
31.017600 0.000000
31.039900 0.000000
31.062200 0.000000
31.084500 0.000000
31.106800 0.000000
31.129100 0.000000
31.151400 0.000000
31.173700 0.000000
31.196000 0.000000
31.218300 0.000000
31.240600 0.000000
31.262900 0.000000
31.285100 0.000000
31.307400 0.000000
31.329700 0.000000
31.352000 0.000000
31.374300 0.000000
31.396600 0.000000
31.418900 0.000000
31.441200 0.000000
31.463500 0.000000
31.485800 0.000000
31.508100 0.000000
31.530400 0.000000
31.552700 0.000000
31.575000 0.000000
31.597200 0.000000
31.619500 0.000000
31.641800 0.000000
31.664100 0.000000
31.686400 0.000000
31.708700 0.000000
31.731000 0.000000
31.753300 0.000000
31.775600 0.000000
31.797900 0.000000
31.820200 0.000000
31.842500 0.000000
31.864800 0.000000
31.887100 0.000000
31.909300 0.000000
31.931600 0.000000
31.953900 0.000000
31.976200 0.000000
31.998500 0.000000
32.020800 0.000000
32.043100 0.000000
32.065400 0.000000
32.087700 0.000000
32.110000 0.000000
32.132300 0.000000
32.154600 0.000000
32.176900 0.000000
32.199200 0.000000
32.221400 0.000000
32.243700 0.000000
32.266000 0.000000
32.288300 0.000000
32.310600 0.000000
32.332900 0.000000
32.355200 0.000000
32.377500 0.000000
32.399800 0.000000
32.422100 0.000000
32.444400 0.000000
32.466700 0.000000
32.489000 0.000000
32.511300 0.000000
32.533500 0.000000
32.555800 0.000000
32.578100 0.000000
32.600400 0.000000
32.622700 0.000000
32.645000 0.000000
32.667300 0.000000
32.689600 0.000000
32.711900 0.000000
32.734200 0.000000
32.756500 0.000000
32.778800 0.000000
32.801100 0.000000
32.823300 0.000000
32.845600 0.000000
32.867900 0.000000
32.890200 0.000000
32.912500 0.000000
32.934800 0.000000
32.957100 0.000000
e
