set title 'mp-1223637 - Density of States'
set xlabel 'Energy (eV)'
set ylabel 'DOS (states/eV)'
set grid
set xrange [-10:10]
set yrange [0:55.005]
set xzeroaxis lt -1
set terminal png size 800,600
set output 'mp-1223637_dos_gnuplot.png'
plot '-' using 1:2 with lines title 'DOS'
-10.264200 0.000000
-10.236000 0.000000
-10.207800 0.000000
-10.179600 0.000000
-10.151400 0.000000
-10.123300 0.000000
-10.095100 0.000000
-10.066900 0.000000
-10.038700 0.000000
-10.010500 0.000000
-9.982300 0.000000
-9.954100 0.000000
-9.925900 0.000000
-9.897700 0.000000
-9.869600 0.000000
-9.841400 0.000000
-9.813200 0.000000
-9.785000 0.000000
-9.756800 0.000000
-9.728600 0.000000
-9.700400 0.000000
-9.672200 0.000000
-9.644000 0.000000
-9.615900 0.000000
-9.587700 0.000000
-9.559500 0.000000
-9.531300 0.000000
-9.503100 0.000000
-9.474900 0.000000
-9.446700 0.000000
-9.418500 0.000000
-9.390300 0.000000
-9.362200 0.000000
-9.334000 0.000000
-9.305800 0.000000
-9.277600 0.000000
-9.249400 0.000000
-9.221200 0.000000
-9.193000 0.000000
-9.164800 0.000000
-9.136700 0.000000
-9.108500 0.000000
-9.080300 0.000000
-9.052100 0.000000
-9.023900 0.000000
-8.995700 0.000000
-8.967500 0.000000
-8.939300 0.000000
-8.911100 0.000000
-8.883000 0.000000
-8.854800 0.000000
-8.826600 0.000000
-8.798400 0.000000
-8.770200 0.000000
-8.742000 0.000000
-8.713800 0.000000
-8.685600 0.000000
-8.657400 0.000000
-8.629300 0.000000
-8.601100 0.000000
-8.572900 0.000000
-8.544700 0.000000
-8.516500 0.000000
-8.488300 0.000000
-8.460100 0.000000
-8.431900 0.000000
-8.403800 0.000000
-8.375600 0.000000
-8.347400 0.000000
-8.319200 0.000000
-8.291000 0.000000
-8.262800 0.000000
-8.234600 0.000000
-8.206400 0.000000
-8.178200 0.000000
-8.150100 0.000000
-8.121900 0.000000
-8.093700 0.000000
-8.065500 0.000000
-8.037300 0.000000
-8.009100 0.000000
-7.980900 0.000000
-7.952700 0.000000
-7.924500 0.000000
-7.896400 0.000000
-7.868200 0.000000
-7.840000 0.000100
-7.811800 0.003100
-7.783600 0.041400
-7.755400 0.315300
-7.727200 1.386900
-7.699000 3.588800
-7.670800 5.754000
-7.642700 6.884500
-7.614500 9.262000
-7.586300 16.297400
-7.558100 28.338200
-7.529900 40.634000
-7.501700 47.552300
-7.473500 50.004900
-7.445300 49.999400
-7.417200 42.504400
-7.389000 27.454300
-7.360800 14.225100
-7.332600 6.781900
-7.304400 2.779100
-7.276200 0.793600
-7.248000 0.138800
-7.219800 0.014100
-7.191600 0.000800
-7.163500 0.000000
-7.135300 0.000000
-7.107100 0.000000
-7.078900 0.000000
-7.050700 0.000000
-7.022500 0.000000
-6.994300 0.000000
-6.966100 0.000000
-6.937900 0.000000
-6.909800 0.000000
-6.881600 0.000000
-6.853400 0.000000
-6.825200 0.000000
-6.797000 0.000000
-6.768800 0.000000
-6.740600 0.000000
-6.712400 0.000000
-6.684300 0.000000
-6.656100 0.000000
-6.627900 0.000000
-6.599700 0.000000
-6.571500 0.000000
-6.543300 0.000000
-6.515100 0.000000
-6.486900 0.000000
-6.458700 0.000000
-6.430600 0.000000
-6.402400 0.000000
-6.374200 0.000000
-6.346000 0.000000
-6.317800 0.000000
-6.289600 0.000000
-6.261400 0.000000
-6.233200 0.000000
-6.205000 0.000000
-6.176900 0.000000
-6.148700 0.000000
-6.120500 0.000000
-6.092300 0.000000
-6.064100 0.000000
-6.035900 0.000000
-6.007700 0.000000
-5.979500 0.000000
-5.951400 0.000000
-5.923200 0.000000
-5.895000 0.000000
-5.866800 0.000000
-5.838600 0.000000
-5.810400 0.000000
-5.782200 0.000000
-5.754000 0.000000
-5.725800 0.000000
-5.697700 0.000000
-5.669500 0.000000
-5.641300 0.000000
-5.613100 0.000000
-5.584900 0.000000
-5.556700 0.000000
-5.528500 0.000000
-5.500300 0.000000
-5.472100 0.000000
-5.444000 0.000000
-5.415800 0.000000
-5.387600 0.000000
-5.359400 0.000000
-5.331200 0.000000
-5.303000 0.000000
-5.274800 0.000000
-5.246600 0.000000
-5.218400 0.000000
-5.190300 0.000000
-5.162100 0.000000
-5.133900 0.000000
-5.105700 0.000000
-5.077500 0.000000
-5.049300 0.000000
-5.021100 0.000000
-4.992900 0.000000
-4.964800 0.000000
-4.936600 0.000000
-4.908400 0.000000
-4.880200 0.000000
-4.852000 0.000000
-4.823800 0.000000
-4.795600 0.000000
-4.767400 0.000000
-4.739200 0.000000
-4.711100 0.000000
-4.682900 0.000000
-4.654700 0.000000
-4.626500 0.000000
-4.598300 0.000000
-4.570100 0.000000
-4.541900 0.000000
-4.513700 0.000000
-4.485500 0.000000
-4.457400 0.000000
-4.429200 0.000000
-4.401000 0.000000
-4.372800 0.000000
-4.344600 0.000000
-4.316400 0.000000
-4.288200 0.000000
-4.260000 0.000000
-4.231900 0.000000
-4.203700 0.000500
-4.175500 0.004100
-4.147300 0.017300
-4.119100 0.041000
-4.090900 0.058800
-4.062700 0.072200
-4.034500 0.119800
-4.006300 0.198000
-3.978200 0.240500
-3.950000 0.228100
-3.921800 0.196500
-3.893600 0.161200
-3.865400 0.162500
-3.837200 0.241500
-3.809000 0.338000
-3.780800 0.354600
-3.752600 0.303100
-3.724500 0.268000
-3.696300 0.247900
-3.668100 0.256500
-3.639900 0.355700
-3.611700 0.459500
-3.583500 0.488600
-3.555300 0.494600
-3.527100 0.446200
-3.499000 0.333400
-3.470800 0.306300
-3.442600 0.412400
-3.414400 0.475800
-3.386200 0.406500
-3.358000 0.353800
-3.329800 0.403700
-3.301600 0.482300
-3.273400 0.548500
-3.245300 0.552000
-3.217100 0.529600
-3.188900 0.620400
-3.160700 0.739000
-3.132500 0.722800
-3.104300 0.669200
-3.076100 0.712200
-3.047900 0.770300
-3.019700 0.725600
-2.991600 0.607600
-2.963400 0.530800
-2.935200 0.628500
-2.907000 0.924900
-2.878800 1.128700
-2.850600 0.990900
-2.822400 0.741600
-2.794200 0.606600
-2.766000 0.523000
-2.737900 0.469900
-2.709700 0.526200
-2.681500 0.701900
-2.653300 0.901300
-2.625100 1.019700
-2.596900 0.988700
-2.568700 0.874100
-2.540500 0.795100
-2.512400 0.676000
-2.484200 0.513600
-2.456000 0.520600
-2.427800 0.730900
-2.399600 0.932700
-2.371400 0.943000
-2.343200 0.804100
-2.315000 0.704900
-2.286800 0.702800
-2.258700 0.670700
-2.230500 0.653400
-2.202300 0.784300
-2.174100 0.905600
-2.145900 0.862600
-2.117700 0.755300
-2.089500 0.644700
-2.061300 0.537000
-2.033100 0.482400
-2.005000 0.513900
-1.976800 0.587700
-1.948600 0.553900
-1.920400 0.469500
-1.892200 0.564700
-1.864000 0.725500
-1.835800 0.719000
-1.807600 0.633700
-1.779500 0.601500
-1.751300 0.609500
-1.723100 0.657300
-1.694900 0.747300
-1.666700 0.791600
-1.638500 0.744500
-1.610300 0.658600
-1.582100 0.582500
-1.553900 0.543900
-1.525800 0.560800
-1.497600 0.623100
-1.469400 0.658900
-1.441200 0.576100
-1.413000 0.405000
-1.384800 0.330300
-1.356600 0.446800
-1.328400 0.600300
-1.300200 0.620200
-1.272100 0.527900
-1.243900 0.435600
-1.215700 0.499400
-1.187500 0.789500
-1.159300 1.080600
-1.131100 1.156100
-1.102900 1.109000
-1.074700 1.116000
-1.046600 1.179100
-1.018400 1.196600
-0.990200 1.153300
-0.962000 1.054700
-0.933800 0.927200
-0.905600 0.795800
-0.877400 0.598100
-0.849200 0.338500
-0.821000 0.129300
-0.792900 0.030900
-0.764700 0.004400
-0.736500 0.000400
-0.708300 0.000000
-0.680100 0.000000
-0.651900 0.000000
-0.623700 0.000000
-0.595500 0.000000
-0.567300 0.000000
-0.539200 0.000000
-0.511000 0.000000
-0.482800 0.000000
-0.454600 0.000000
-0.426400 0.000000
-0.398200 0.000000
-0.370000 0.000000
-0.341800 0.000000
-0.313600 0.000000
-0.285500 0.000000
-0.257300 0.000000
-0.229100 0.000200
-0.200900 0.002600
-0.172700 0.016900
-0.144500 0.061200
-0.116300 0.126300
-0.088100 0.159200
-0.060000 0.153500
-0.031800 0.164000
-0.003600 0.183600
0.024600 0.157300
0.052800 0.091300
0.081000 0.050900
0.109200 0.085300
0.137400 0.187100
0.165600 0.292600
0.193700 0.339400
0.221900 0.329000
0.250100 0.333200
0.278300 0.367900
0.306500 0.353600
0.334700 0.315000
0.362900 0.356700
0.391100 0.445900
0.419300 0.443400
0.447400 0.331900
0.475600 0.211400
0.503800 0.121200
0.532000 0.055800
0.560200 0.044400
0.588400 0.139300
0.616600 0.367000
0.644800 0.607000
0.672900 0.674100
0.701100 0.593100
0.729300 0.513100
0.757500 0.501300
0.785700 0.517600
0.813900 0.454500
0.842100 0.332100
0.870300 0.331700
0.898500 0.495900
0.926600 0.635100
0.954800 0.684800
0.983000 0.787100
1.011200 0.904800
1.039400 0.864900
1.067600 0.734600
1.095800 0.650100
1.124000 0.602500
1.152200 0.531400
1.180300 0.400000
1.208500 0.295900
1.236700 0.306400
1.264900 0.336500
1.293100 0.270800
1.321300 0.188000
1.349500 0.190400
1.377700 0.335700
1.405800 0.670700
1.434000 1.060400
1.462200 1.245100
1.490400 1.164600
1.518600 1.076700
1.546800 1.124300
1.575000 1.063700
1.603200 0.774100
1.631400 0.499600
1.659500 0.371000
1.687700 0.297600
1.715900 0.278700
1.744100 0.416500
1.772300 0.660800
1.800500 0.767400
1.828700 0.651900
1.856900 0.534200
1.885100 0.544600
1.913200 0.516900
1.941400 0.340600
1.969600 0.170300
1.997800 0.156100
2.026000 0.268600
2.054200 0.387700
2.082400 0.441200
2.110600 0.464600
2.138800 0.465400
2.166900 0.450600
2.195100 0.583000
2.223300 0.974600
2.251500 1.372000
2.279700 1.360500
2.307900 1.034200
2.336100 0.868600
2.364300 1.052600
2.392400 1.503900
2.420600 1.926000
2.448800 1.916500
2.477000 1.568400
2.505200 1.343200
2.533400 1.324400
2.561600 1.265000
2.589800 1.077200
2.618000 0.867900
2.646100 0.731100
2.674300 0.627100
2.702500 0.472700
2.730700 0.377700
2.758900 0.472800
2.787100 0.640600
2.815300 0.744100
2.843500 0.817100
2.871700 0.834600
2.899800 0.737700
2.928000 0.592000
2.956200 0.440600
2.984400 0.314700
3.012600 0.277800
3.040800 0.341000
3.069000 0.430700
3.097200 0.508100
3.125300 0.676200
3.153500 0.940500
3.181700 1.082200
3.209900 0.982700
3.238100 0.791700
3.266300 0.728900
3.294500 0.751500
3.322700 0.629300
3.350900 0.384700
3.379000 0.229500
3.407200 0.243300
3.435400 0.425200
3.463600 0.681400
3.491800 0.769300
3.520000 0.698500
3.548200 0.764800
3.576400 0.998200
3.604600 1.147800
3.632700 1.095700
3.660900 0.922200
3.689100 0.711000
3.717300 0.515100
3.745500 0.452700
3.773700 0.602500
3.801900 0.751100
3.830100 0.728000
3.858300 0.845700
3.886400 1.285400
3.914600 1.628200
3.942800 1.503200
3.971000 1.033100
3.999200 0.659900
4.027400 0.725600
4.055600 1.065000
4.083800 1.243900
4.111900 1.154700
4.140100 1.037700
4.168300 1.046700
4.196500 1.070500
4.224700 0.950400
4.252900 0.748700
4.281100 0.621800
4.309300 0.604900
4.337500 0.633500
4.365600 0.678900
4.393800 0.821700
4.422000 1.027700
4.450200 1.154900
4.478400 1.148100
4.506600 1.079800
4.534800 1.125100
4.563000 1.272200
4.591200 1.240100
4.619300 0.971100
4.647500 0.793000
4.675700 0.936000
4.703900 1.167500
4.732100 1.177700
4.760300 1.114400
4.788500 1.102300
4.816700 0.969800
4.844800 0.852200
4.873000 1.016100
4.901200 1.228500
4.929400 1.165200
4.957600 1.014900
4.985800 1.068000
5.014000 1.303800
5.042200 1.464200
5.070400 1.358800
5.098500 1.105500
5.126700 0.922800
5.154900 0.894100
5.183100 1.029600
5.211300 1.275800
5.239500 1.409200
5.267700 1.339000
5.295900 1.260400
5.324100 1.147800
5.352200 0.908100
5.380400 0.812900
5.408600 1.009000
5.436800 1.185500
5.465000 1.179200
5.493200 1.224600
5.521400 1.361900
5.549600 1.456600
5.577700 1.593000
5.605900 1.771400
5.634100 1.836400
5.662300 1.747700
5.690500 1.693000
5.718700 1.782100
5.746900 1.914200
5.775100 2.001200
5.803300 1.922400
5.831400 1.616500
5.859600 1.316400
5.887800 1.264000
5.916000 1.383900
5.944200 1.355900
5.972400 1.047300
6.000600 0.739400
6.028800 0.653200
6.057000 0.803000
6.085100 1.096200
6.113300 1.290500
6.141500 1.342300
6.169700 1.442200
6.197900 1.548800
6.226100 1.545600
6.254300 1.469800
6.282500 1.266000
6.310700 0.964800
6.338800 0.786000
6.367000 0.760600
6.395200 0.766700
6.423400 0.787100
6.451600 0.831300
6.479800 0.847300
6.508000 0.751400
6.536200 0.585600
6.564300 0.600700
6.592500 0.855900
6.620700 1.114500
6.648900 1.251400
6.677100 1.300500
6.705300 1.372600
6.733500 1.563200
6.761700 1.707500
6.789900 1.520500
6.818000 1.046100
6.846200 0.609500
6.874400 0.399000
6.902600 0.392400
6.930800 0.496600
6.959000 0.597800
6.987200 0.567500
7.015400 0.431300
7.043600 0.317000
7.071700 0.236200
7.099900 0.219600
7.128100 0.395200
7.156300 0.781400
7.184500 1.165600
7.212700 1.302600
7.240900 1.204100
7.269100 1.011900
7.297200 0.783700
7.325400 0.673500
7.353600 0.869400
7.381800 1.176700
7.410000 1.220000
7.438200 0.983800
7.466400 0.727800
7.494600 0.579300
7.522800 0.519600
7.550900 0.586000
7.579100 0.801100
7.607300 1.042800
7.635500 1.233900
7.663700 1.371200
7.691900 1.418600
7.720100 1.331300
7.748300 1.122800
7.776500 0.986800
7.804600 1.068400
7.832800 1.183900
7.861000 1.132100
7.889200 1.024500
7.917400 0.992800
7.945600 1.088100
7.973800 1.263600
8.002000 1.286100
8.030100 1.091400
8.058300 0.821700
8.086500 0.622800
8.114700 0.644700
8.142900 0.875300
8.171100 1.049200
8.199300 1.027300
8.227500 1.079100
8.255700 1.439500
8.283800 1.830100
8.312000 1.844500
8.340200 1.393900
8.368400 0.773700
8.396600 0.487000
8.424800 0.651100
8.453000 0.915800
8.481200 1.026800
8.509400 1.043300
8.537500 1.040800
8.565700 0.998100
8.593900 0.999300
8.622100 1.081500
8.650300 1.047900
8.678500 0.884600
8.706700 0.731400
8.734900 0.593200
8.763100 0.524200
8.791200 0.625100
8.819400 0.866700
8.847600 1.110700
8.875800 1.152200
8.904000 0.910400
8.932200 0.555900
8.960400 0.303900
8.988600 0.230500
9.016700 0.322900
9.044900 0.562500
9.073100 0.878600
9.101300 1.116700
9.129500 1.131900
9.157700 1.045300
9.185900 1.043900
9.214100 1.040200
9.242300 0.942900
9.270400 0.858600
9.298600 0.797200
9.326800 0.637400
9.355000 0.407500
9.383200 0.282000
9.411400 0.398000
9.439600 0.721300
9.467800 1.082900
9.496000 1.284600
9.524100 1.173200
9.552300 0.918100
9.580500 0.964700
9.608700 1.446900
9.636900 2.041700
9.665100 2.367500
9.693300 2.249900
9.721500 1.743700
9.749600 1.180300
9.777800 0.898300
9.806000 0.965000
9.834200 1.232300
9.862400 1.398200
9.890600 1.392000
9.918800 1.386400
9.947000 1.470500
9.975200 1.581300
10.003300 1.510100
10.031500 1.256600
10.059700 1.043300
10.087900 0.955100
10.116100 0.963000
10.144300 1.001500
10.172500 1.009900
10.200700 1.035800
10.228900 1.163300
10.257000 1.326500
10.285200 1.420400
10.313400 1.519600
10.341600 1.693100
10.369800 1.732700
10.398000 1.610200
10.426200 1.522100
10.454400 1.497600
10.482500 1.550800
10.510700 1.591200
10.538900 1.398000
10.567100 1.035000
10.595300 0.872900
10.623500 1.038400
10.651700 1.305000
10.679900 1.494300
10.708100 1.611100
10.736200 1.676400
10.764400 1.590600
10.792600 1.287900
10.820800 0.963800
10.849000 0.869300
10.877200 0.975600
10.905400 1.017300
10.933600 0.987500
10.961800 1.202800
10.989900 1.643700
11.018100 1.872700
11.046300 1.669200
11.074500 1.282900
11.102700 1.139500
11.130900 1.364000
11.159100 1.667000
11.187300 1.795400
11.215500 1.829600
11.243600 1.890700
11.271800 1.780100
11.300000 1.414600
11.328200 1.161100
11.356400 1.269100
11.384600 1.574300
11.412800 1.849700
11.441000 1.806800
11.469100 1.359900
11.497300 0.957600
11.525500 0.970000
11.553700 1.294700
11.581900 1.610200
11.610100 1.765900
11.638300 1.838000
11.666500 1.895700
11.694700 1.961600
11.722800 1.949300
11.751000 1.761400
11.779200 1.568000
11.807400 1.440800
11.835600 1.356400
11.863800 1.410900
11.892000 1.492000
11.920200 1.435000
11.948400 1.360200
11.976500 1.341200
12.004700 1.303700
12.032900 1.224000
12.061100 1.154300
12.089300 1.228300
12.117500 1.504400
12.145700 1.839300
12.173900 2.050200
12.202000 2.034400
12.230200 1.844500
12.258400 1.571400
12.286600 1.203700
12.314800 0.813200
12.343000 0.550500
12.371200 0.493800
12.399400 0.686400
12.427600 1.048800
12.455700 1.229500
12.483900 1.009700
12.512100 0.710600
12.540300 0.744800
12.568500 1.096400
12.596700 1.456800
12.624900 1.617200
12.653100 1.615600
12.681300 1.509300
12.709400 1.355800
12.737600 1.245100
12.765800 1.147500
12.794000 1.109300
12.822200 1.201600
12.850400 1.199800
12.878600 0.957000
12.906800 0.695100
12.934900 0.592100
12.963100 0.579700
12.991300 0.545100
13.019500 0.488100
13.047700 0.464400
13.075900 0.581100
13.104100 0.858100
13.132300 1.045300
13.160500 1.025800
13.188600 0.986600
13.216800 1.027700
13.245000 1.110800
13.273200 1.193900
13.301400 1.325500
13.329600 1.536500
13.357800 1.635300
13.386000 1.594300
13.414200 1.577800
13.442300 1.454100
13.470500 1.164800
13.498700 1.011700
13.526900 1.190100
13.555100 1.507800
13.583300 1.772900
13.611500 1.978700
13.639700 2.071000
13.667900 1.998700
13.696000 1.803500
13.724200 1.462900
13.752400 1.037400
13.780600 0.849300
13.808800 1.042700
13.837000 1.273100
13.865200 1.186600
13.893400 0.953400
13.921500 0.888600
13.949700 0.906300
13.977900 0.879400
14.006100 0.931000
14.034300 1.152100
14.062500 1.459300
14.090700 1.642200
14.118900 1.540000
14.147100 1.371700
14.175200 1.458400
14.203400 1.647900
14.231600 1.527400
14.259800 1.122700
14.288000 0.847200
14.316200 0.972500
14.344400 1.531800
14.372600 2.200500
14.400800 2.343000
14.428900 1.915300
14.457100 1.510000
14.485300 1.292600
14.513500 1.098100
14.541700 0.950600
14.569900 0.936700
14.598100 0.991800
14.626300 0.961900
14.654400 0.828900
14.682600 0.756000
14.710800 0.768300
14.739000 0.724300
14.767200 0.628600
14.795400 0.622200
14.823600 0.818400
14.851800 1.188500
14.880000 1.526900
14.908100 1.626500
14.936300 1.506100
14.964500 1.264200
14.992700 1.012500
15.020900 0.922200
15.049100 1.110000
15.077300 1.512400
15.105500 1.848700
15.133700 1.909000
15.161800 1.721600
15.190000 1.397600
15.218200 1.034400
15.246400 0.852100
15.274600 1.074500
15.302800 1.550300
15.331000 1.777200
15.359200 1.624200
15.387400 1.472700
15.415500 1.395900
15.443700 1.261300
15.471900 1.188000
15.500100 1.224900
15.528300 1.254900
15.556500 1.281300
15.584700 1.315900
15.612900 1.258500
15.641000 1.259700
15.669200 1.525100
15.697400 1.869700
15.725600 1.978500
15.753800 1.846600
15.782000 1.794600
15.810200 1.964800
15.838400 2.001400
15.866600 1.669300
15.894700 1.272700
15.922900 1.064400
15.951100 0.988500
15.979300 1.010400
16.007500 1.070500
16.035700 1.099400
16.063900 1.098100
16.092100 1.051700
16.120300 0.940700
16.148400 0.880900
16.176600 1.061800
16.204800 1.362600
16.233000 1.458200
16.261200 1.409600
16.289400 1.613700
16.317600 2.186900
16.345800 2.751700
16.373900 2.925700
16.402100 2.713000
16.430300 2.351400
16.458500 2.037100
16.486700 1.898800
16.514900 1.865700
16.543100 1.729200
16.571300 1.539600
16.599500 1.440000
16.627600 1.485900
16.655800 1.664700
16.684000 1.912800
16.712200 2.156200
16.740400 2.220000
16.768600 2.038500
16.796800 1.709200
16.825000 1.403800
16.853200 1.385500
16.881300 1.667200
16.909500 1.836100
16.937700 1.692500
16.965900 1.514900
16.994100 1.545200
17.022300 1.618400
17.050500 1.463700
17.078700 1.143100
17.106800 0.945100
17.135000 1.093500
17.163200 1.437400
17.191400 1.658900
17.219600 1.717100
17.247800 1.686400
17.276000 1.743400
17.304200 2.015800
17.332400 2.241900
17.360500 2.186400
17.388700 1.999700
17.416900 1.866800
17.445100 1.740300
17.473300 1.591800
17.501500 1.518300
17.529700 1.565000
17.557900 1.623400
17.586100 1.710700
17.614200 1.962800
17.642400 2.244700
17.670600 2.301500
17.698800 2.184300
17.727000 2.007600
17.755200 1.671600
17.783400 1.301600
17.811600 1.254200
17.839800 1.509900
17.867900 1.713000
17.896100 1.741100
17.924300 1.697500
17.952500 1.618300
17.980700 1.513300
18.008900 1.406800
18.037100 1.342000
18.065300 1.420900
18.093400 1.659600
18.121600 1.857000
18.149800 1.725300
18.178000 1.429900
18.206200 1.458900
18.234400 1.859300
18.262600 2.338400
18.290800 2.499300
18.319000 2.284400
18.347100 2.232300
18.375300 2.378200
18.403500 2.195600
18.431700 1.789000
18.459900 1.606000
18.488100 1.595400
18.516300 1.594200
18.544500 1.654800
18.572700 1.654700
18.600800 1.464300
18.629000 1.339600
18.657200 1.614100
18.685400 2.068900
18.713600 2.162700
18.741800 2.076400
18.770000 2.272700
18.798200 2.542400
18.826300 2.494300
18.854500 2.111700
18.882700 1.645300
18.910900 1.365000
18.939100 1.505000
18.967300 2.057300
18.995500 2.536500
19.023700 2.451900
19.051900 1.848200
19.080000 1.238600
19.108200 1.025400
19.136400 1.206800
19.164600 1.507600
19.192800 1.549300
19.221000 1.312600
19.249200 1.169300
19.277400 1.340000
19.305600 1.700400
19.333700 1.950200
19.361900 1.965600
19.390100 1.914600
19.418300 1.899800
19.446500 1.861500
19.474700 1.815400
19.502900 1.881700
19.531100 2.093000
19.559200 2.247600
19.587400 2.293600
19.615600 2.512100
19.643800 2.752600
19.672000 2.542100
19.700200 1.946800
19.728400 1.418300
19.756600 1.340800
19.784800 1.730700
19.812900 2.194500
19.841100 2.441200
19.869300 2.475300
19.897500 2.322600
19.925700 2.141100
19.953900 2.139200
19.982100 2.183300
20.010300 2.157300
20.038500 2.109200
20.066600 1.976400
20.094800 1.844700
20.123000 1.913200
20.151200 2.066700
20.179400 2.176500
20.207600 2.298900
20.235800 2.270700
20.264000 2.027400
20.292200 1.784000
20.320300 1.621900
20.348500 1.458100
20.376700 1.187000
20.404900 0.892600
20.433100 0.832400
20.461300 1.083300
20.489500 1.485100
20.517700 1.840600
20.545800 1.984600
20.574000 1.900700
20.602200 1.767000
20.630400 1.756500
20.658600 1.737300
20.686800 1.549700
20.715000 1.559700
20.743200 1.981000
20.771400 2.427300
20.799500 2.485200
20.827700 2.097700
20.855900 1.551300
20.884100 1.317300
20.912300 1.666200
20.940500 2.233200
20.968700 2.350600
20.996900 1.914600
21.025100 1.574700
21.053200 1.855600
21.081400 2.446300
21.109600 2.838900
21.137800 2.917000
21.166000 2.704400
21.194200 2.300400
21.222400 1.924600
21.250600 1.717700
21.278700 1.607700
21.306900 1.497300
21.335100 1.591800
21.363300 1.981800
21.391500 2.378600
21.419700 2.464800
21.447900 2.248600
21.476100 2.135400
21.504300 2.437100
21.532400 2.747100
21.560600 2.462300
21.588800 1.915500
21.617000 1.667600
21.645200 1.657000
21.673400 1.672900
21.701600 1.689600
21.729800 1.755000
21.758000 1.857100
21.786100 1.849300
21.814300 1.694300
21.842500 1.629300
21.870700 1.808700
21.898900 2.107800
21.927100 2.321200
21.955300 2.369000
21.983500 2.262900
22.011600 2.070400
22.039800 1.941800
22.068000 1.962500
22.096200 2.173200
22.124400 2.552800
22.152600 2.780200
22.180800 2.518600
22.209000 2.012500
22.237200 1.711800
22.265300 1.649700
22.293500 1.680000
22.321700 1.887700
22.349900 2.270100
22.378100 2.454500
22.406300 2.341900
22.434500 2.218100
22.462700 2.318200
22.490900 2.742100
22.519000 3.123000
22.547200 3.062000
22.575400 2.789500
22.603600 2.518300
22.631800 2.194100
22.660000 1.877800
22.688200 1.776800
22.716400 1.937700
22.744600 2.112600
22.772700 2.191800
22.800900 2.252900
22.829100 2.403000
22.857300 2.738000
22.885500 2.998400
22.913700 2.919200
22.941900 2.665800
22.970100 2.312300
22.998200 1.980900
23.026400 1.907800
23.054600 1.953800
23.082800 2.096000
23.111000 2.431700
23.139200 2.632100
23.167400 2.352100
23.195600 1.803100
23.223800 1.459300
23.251900 1.598000
23.280100 2.074400
23.308300 2.372400
23.336500 2.224600
23.364700 1.935900
23.392900 1.912700
23.421100 2.206400
23.449300 2.509300
23.477500 2.434400
23.505600 1.997400
23.533800 1.715900
23.562000 1.907300
23.590200 2.255200
23.618400 2.418400
23.646600 2.311300
23.674800 1.945600
23.703000 1.675100
23.731100 1.785000
23.759300 2.032900
23.787500 2.168400
23.815700 2.268000
23.843900 2.413200
23.872100 2.609000
23.900300 2.877500
23.928500 3.044900
23.956700 2.867500
23.984800 2.692900
24.013000 2.853000
24.041200 2.852900
24.069400 2.437400
24.097600 2.150900
24.125800 2.212500
24.154000 2.329500
24.182200 2.455600
24.210400 2.668400
24.238500 2.761000
24.266700 2.494500
24.294900 2.037300
24.323100 1.697200
24.351300 1.494400
24.379500 1.450900
24.407700 1.648000
24.435900 2.040200
24.464000 2.372300
24.492200 2.347600
24.520400 2.061000
24.548600 1.953200
24.576800 2.256800
24.605000 2.795200
24.633200 3.175500
24.661400 3.042000
24.689600 2.471200
24.717700 1.880800
24.745900 1.684900
24.774100 1.969700
24.802300 2.380800
24.830500 2.669600
24.858700 2.813900
24.886900 2.809700
24.915100 2.787700
24.943300 2.819500
24.971400 2.862100
24.999600 2.981500
25.027800 3.043600
25.056000 2.695500
25.084200 2.258200
25.112400 2.349600
25.140600 2.746500
25.168800 2.943100
25.197000 2.969400
25.225100 2.789100
25.253300 2.256900
25.281500 1.686600
25.309700 1.472600
25.337900 1.586900
25.366100 1.796000
25.394300 1.934700
25.422500 1.922500
25.450600 1.817500
25.478800 1.804100
25.507000 1.925000
25.535200 2.007000
25.563400 1.927800
25.591600 1.773000
25.619800 1.749300
25.648000 1.929500
25.676200 2.234900
25.704300 2.510400
25.732500 2.616500
25.760700 2.654600
25.788900 2.738000
25.817100 2.730800
25.845300 2.530400
25.873500 2.298300
25.901700 2.328100
25.929900 2.564500
25.958000 2.702800
25.986200 2.691100
26.014400 2.474500
26.042600 2.095300
26.070800 2.046800
26.099000 2.598000
26.127200 3.320800
26.155400 3.611300
26.183500 3.435100
26.211700 3.146800
26.239900 2.746400
26.268100 2.271400
26.296300 2.178200
26.324500 2.584900
26.352700 2.850000
26.380900 2.494100
26.409100 2.121400
26.437200 2.405900
26.465400 3.023300
26.493600 3.395200
26.521800 3.353400
26.550000 2.947000
26.578200 2.566300
26.606400 2.538800
26.634600 2.520600
26.662800 2.244100
26.690900 2.001400
26.719100 1.878000
26.747300 1.714500
26.775500 1.718800
26.803700 1.948500
26.831900 1.981700
26.860100 1.807800
26.888300 1.936800
26.916500 2.263900
26.944600 2.222100
26.972800 1.972500
27.001000 1.992600
27.029200 2.323500
27.057400 2.929400
27.085600 3.827300
27.113800 4.460900
27.142000 4.104000
27.170100 3.078100
27.198300 2.324500
27.226500 2.082500
27.254700 1.985300
27.282900 2.020800
27.311100 2.353400
27.339300 2.826800
27.367500 3.031300
27.395700 2.733700
27.423800 2.417600
27.452000 2.646900
27.480200 3.213100
27.508400 3.564900
27.536600 3.584000
27.564800 3.428500
27.593000 2.935000
27.621200 2.051600
27.649400 1.389900
27.677500 1.468600
27.705700 2.015400
27.733900 2.470000
27.762100 2.815000
27.790300 3.237400
27.818500 3.482300
27.846700 3.306700
27.874900 2.969300
27.903000 2.741000
27.931200 2.543800
27.959400 2.334800
27.987600 2.352500
28.015800 2.603500
28.044000 2.689400
28.072200 2.484200
28.100400 2.298400
28.128600 2.352300
28.156700 2.564900
28.184900 2.766400
28.213100 2.887800
28.241300 2.847300
28.269500 2.606900
28.297700 2.229600
28.325900 1.719200
28.354100 1.219700
28.382300 1.058500
28.410400 1.377100
28.438600 1.947100
28.466800 2.447300
28.495000 2.767700
28.523200 2.947700
28.551400 2.904400
28.579600 2.566000
28.607800 2.301900
28.635900 2.408200
28.664100 2.751200
28.692300 3.086600
28.720500 3.161200
28.748700 2.876400
28.776900 2.530300
28.805100 2.494100
28.833300 2.709000
28.861500 2.825300
28.889600 2.690200
28.917800 2.384300
28.946000 2.091400
28.974200 2.091200
29.002400 2.506000
29.030600 3.073400
29.058800 3.330700
29.087000 3.308500
29.115200 3.466600
29.143300 3.758300
29.171500 3.715000
29.199700 3.367600
29.227900 3.003200
29.256100 2.752900
29.284300 2.838800
29.312500 3.287800
29.340700 3.673400
29.368900 3.586900
29.397000 3.171300
29.425200 2.793500
29.453400 2.640700
29.481600 2.602700
29.509800 2.408900
29.538000 2.011200
29.566200 1.728500
29.594400 1.871700
29.622500 2.297200
29.650700 2.744000
29.678900 3.064000
29.707100 3.078800
29.735300 2.802200
29.763500 2.509200
29.791700 2.415600
29.819900 2.532300
29.848100 2.686400
29.876200 2.838000
29.904400 3.130400
29.932600 3.498400
29.960800 3.729300
29.989000 3.691400
30.017200 3.419600
30.045400 3.165900
30.073600 3.202100
30.101800 3.574400
30.129900 3.999200
30.158100 4.083200
30.186300 3.792500
30.214500 3.498800
30.242700 3.317400
30.270900 3.174800
30.299100 3.175800
30.327300 3.237300
30.355400 3.103800
30.383600 2.777600
30.411800 2.568100
30.440000 2.561500
30.468200 2.537400
30.496400 2.422000
30.524600 2.303300
30.552800 2.206800
30.581000 2.162200
30.609100 2.454000
30.637300 3.094500
30.665500 3.703000
30.693700 4.047000
30.721900 4.071400
30.750100 3.833400
30.778300 3.228700
30.806500 2.270000
30.834700 1.592600
30.862800 1.686600
30.891000 2.286500
30.919200 2.861000
30.947400 3.043000
30.975600 2.775400
31.003800 2.417800
31.032000 2.361700
31.060200 2.512900
31.088300 2.463500
31.116500 2.156200
31.144700 1.848200
31.172900 1.683100
31.201100 1.856700
31.229300 2.447600
31.257500 2.952100
31.285700 3.026700
31.313900 3.043900
31.342000 3.199400
31.370200 3.248100
31.398400 3.053700
31.426600 2.702200
31.454800 2.366900
31.483000 2.276900
31.511200 2.610200
31.539400 3.098100
31.567600 3.188500
31.595700 2.897100
31.623900 2.653000
31.652100 2.709000
31.680300 3.068100
31.708500 3.406800
31.736700 3.354000
31.764900 3.049100
31.793100 2.859700
31.821300 2.772100
31.849400 2.630100
31.877600 2.592200
31.905800 2.753900
31.934000 2.870700
31.962200 2.808100
31.990400 2.629000
32.018600 2.548600
32.046800 2.783400
32.074900 3.111800
32.103100 3.300900
32.131300 3.601700
32.159500 3.880600
32.187700 3.629600
32.215900 3.139600
32.244100 2.942100
32.272300 2.867300
32.300500 2.548900
32.328600 2.093300
32.356800 1.741600
32.385000 1.601600
32.413200 1.808100
32.441400 2.142500
32.469600 2.281500
32.497800 2.311400
32.526000 2.355300
32.554200 2.419000
32.582300 2.492300
32.610500 2.509900
32.638700 2.321500
32.666900 2.029500
32.695100 1.998800
32.723300 2.249100
32.751500 2.629900
32.779700 3.056700
32.807800 3.343900
32.836000 3.480500
32.864200 3.565300
32.892400 3.500000
32.920600 3.321000
32.948800 3.267400
32.977000 3.419900
33.005200 3.497500
33.033400 3.182100
33.061500 2.800100
33.089700 2.659800
33.117900 2.530800
33.146100 2.424600
33.174300 2.472900
33.202500 2.520600
33.230700 2.486800
33.258900 2.569700
33.287100 2.779300
33.315200 2.848700
33.343400 2.730300
33.371600 2.689500
33.399800 2.837800
33.428000 2.873000
33.456200 2.650700
33.484400 2.484100
33.512600 2.535400
33.540700 2.712900
33.568900 2.925300
33.597100 3.102700
33.625300 3.140600
33.653500 3.114400
33.681700 3.228100
33.709900 3.317300
33.738100 3.276000
33.766300 3.321400
33.794400 3.320800
33.822600 3.000200
33.850800 2.687300
33.879000 2.829100
33.907200 3.222700
33.935400 3.415600
33.963600 3.508400
33.991800 3.763100
34.020000 3.967700
34.048100 3.831600
34.076300 3.458100
34.104500 3.146600
34.132700 3.008900
34.160900 2.987500
34.189100 3.106100
34.217300 3.461000
34.245500 3.965900
34.273700 4.250100
34.301800 4.070800
34.330000 3.593800
34.358200 3.147200
34.386400 3.018000
34.414600 3.079200
34.442800 3.022500
34.471000 2.963700
34.499200 3.041500
34.527300 3.125200
34.555500 3.132500
34.583700 2.986500
34.611900 2.627700
34.640100 2.270200
34.668300 2.179700
34.696500 2.367200
34.724700 2.690500
34.752900 2.917800
34.781000 2.768600
34.809200 2.299300
34.837400 1.903700
34.865600 1.807600
34.893800 2.019700
34.922000 2.472700
34.950200 2.976700
34.978400 3.169900
35.006600 2.939300
35.034700 2.807200
35.062900 2.909600
35.091100 2.796300
35.119300 2.485800
35.147500 2.234600
35.175700 2.092200
35.203900 2.134300
35.232100 2.321300
35.260200 2.382100
35.288400 2.251100
35.316600 2.213600
35.344800 2.351600
35.373000 2.335300
35.401200 2.050800
35.429400 1.980500
35.457600 2.431200
35.485800 2.835600
35.513900 2.751700
35.542100 2.534000
35.570300 2.497400
35.598500 2.702000
35.626700 3.162300
35.654900 3.537500
35.683100 3.650700
35.711300 3.818600
35.739500 4.007500
35.767600 3.847100
35.795800 3.375100
35.824000 2.923300
35.852200 2.679700
35.880400 2.697600
35.908600 2.764300
35.936800 2.685900
35.965000 2.658800
35.993100 2.831000
36.021300 2.967600
36.049500 2.831100
36.077700 2.555300
36.105900 2.547700
36.134100 2.986800
36.162300 3.600300
36.190500 4.114500
36.218700 4.264300
36.246800 3.812300
36.275000 3.199900
36.303200 3.072800
36.331400 3.392100
36.359600 3.702700
36.387800 3.743200
36.416000 3.697900
36.444200 3.988400
36.472400 4.453900
36.500500 4.404900
36.528700 3.787000
36.556900 3.120300
36.585100 2.786600
36.613300 2.849300
36.641500 2.975400
36.669700 2.914000
36.697900 2.829300
36.726100 2.853700
36.754200 2.909500
36.782400 2.895200
36.810600 2.834800
36.838800 2.831400
36.867000 2.911900
36.895200 3.076200
36.923400 3.242900
36.951600 3.195800
36.979700 2.871300
37.007900 2.543900
37.036100 2.450600
37.064300 2.552900
37.092500 2.652800
37.120700 2.614200
37.148900 2.582900
37.177100 2.693400
37.205300 2.719600
37.233400 2.522200
37.261600 2.421200
37.289800 2.479000
37.318000 2.417900
37.346200 2.309000
37.374400 2.354700
37.402600 2.571800
37.430800 2.797100
37.459000 2.774900
37.487100 2.606600
37.515300 2.727300
37.543500 3.302900
37.571700 3.962400
37.599900 4.221800
37.628100 4.038100
37.656300 3.679700
37.684500 3.303600
37.712600 3.048100
37.740800 3.093200
37.769000 3.268700
37.797200 3.309000
37.825400 3.307900
37.853600 3.301000
37.881800 3.093400
37.910000 2.751900
37.938200 2.509800
37.966300 2.474500
37.994500 2.664000
38.022700 2.944600
38.050900 3.255700
38.079100 3.468500
38.107300 3.295400
38.135500 2.931100
38.163700 2.766000
38.191900 2.721300
38.220000 2.606700
38.248200 2.307600
38.276400 1.821100
38.304600 1.413300
38.332800 1.316600
38.361000 1.506900
38.389200 1.893700
38.417400 2.352100
38.445600 2.670700
38.473700 2.856300
38.501900 3.054800
38.530100 3.236800
38.558300 3.203900
38.586500 2.854600
38.614700 2.393000
38.642900 2.077900
38.671100 1.930400
38.699200 1.797700
38.727400 1.662300
38.755600 1.694600
38.783800 2.058700
38.812000 2.567500
38.840200 2.626000
38.868400 2.183200
38.896600 1.958200
38.924800 2.217600
38.952900 2.418200
38.981100 2.339100
39.009300 2.293400
39.037500 2.345000
39.065700 2.538600
39.093900 2.826600
39.122100 2.713100
39.150300 2.107900
39.178500 1.632100
39.206600 1.627400
39.234800 1.908900
39.263000 2.325500
39.291200 2.684300
39.319400 2.756100
39.347600 2.652700
39.375800 2.506300
39.404000 2.329100
39.432100 2.254300
39.460300 2.349200
39.488500 2.407100
39.516700 2.359500
39.544900 2.429800
39.573100 2.576700
39.601300 2.544200
39.629500 2.411000
39.657700 2.454300
39.685800 2.690000
39.714000 3.031200
39.742200 3.302100
39.770400 3.155200
39.798600 2.747100
39.826800 2.570000
39.855000 2.640000
39.883200 2.631000
39.911400 2.411000
39.939500 2.083800
39.967700 1.764800
39.995900 1.499800
40.024100 1.367000
40.052300 1.413000
40.080500 1.719300
40.108700 2.370800
40.136900 3.109700
40.165000 3.562600
40.193200 3.595400
40.221400 3.394100
40.249600 3.377100
40.277800 3.694600
40.306000 4.143400
40.334200 4.340000
40.362400 4.120100
40.390600 3.858100
40.418700 3.741300
40.446900 3.431500
40.475100 2.947400
40.503300 2.694300
40.531500 2.879100
40.559700 3.349600
40.587900 3.564100
40.616100 3.246300
40.644300 2.850500
40.672400 2.670700
40.700600 2.538200
40.728800 2.528500
40.757000 2.756800
40.785200 2.973000
40.813400 3.016400
40.841600 3.178400
40.869800 3.505200
40.898000 3.535200
40.926100 3.157800
40.954300 2.712100
40.982500 2.401300
41.010700 2.289800
41.038900 2.422800
41.067100 2.730900
41.095300 2.992800
41.123500 3.053100
41.151600 2.931000
41.179800 2.589200
41.208000 2.133300
41.236200 1.832100
41.264400 1.793600
41.292600 2.003700
41.320800 2.392100
41.349000 2.839500
41.377200 3.178600
41.405300 3.326600
41.433500 3.312600
41.461700 3.240200
41.489900 3.211100
41.518100 3.178000
41.546300 3.035800
41.574500 2.849800
41.602700 2.856500
41.630900 3.045400
41.659000 3.146400
41.687200 2.987100
41.715400 2.660100
41.743600 2.604900
41.771800 3.020900
41.800000 3.431100
41.828200 3.373500
41.856400 3.074000
41.884500 3.006300
41.912700 3.009200
41.940900 2.757400
41.969100 2.460900
41.997300 2.452000
42.025500 2.673500
42.053700 2.807300
42.081900 2.719700
42.110100 2.526900
42.138200 2.517900
42.166400 2.720300
42.194600 2.759200
42.222800 2.642400
42.251000 2.765800
42.279200 3.016300
42.307400 3.022300
42.335600 2.756000
42.363800 2.255500
42.391900 1.774700
42.420100 1.731200
42.448300 2.174400
42.476500 2.699600
42.504700 2.787900
42.532900 2.367400
42.561100 1.944900
42.589300 1.966300
42.617400 2.332300
42.645600 2.786400
42.673800 3.172800
42.702000 3.198000
42.730200 2.601300
42.758400 1.690200
42.786600 0.987200
42.814800 0.629500
42.843000 0.551600
42.871100 0.628400
42.899300 0.628900
42.927500 0.480900
42.955700 0.377200
42.983900 0.447400
43.012100 0.606100
43.040300 0.757100
43.068500 0.895900
43.096700 0.952200
43.124800 0.894600
43.153000 0.870400
43.181200 0.880300
43.209400 0.702400
43.237600 0.389300
43.265800 0.236000
43.294000 0.293300
43.322200 0.343600
43.350400 0.266900
43.378500 0.183000
43.406700 0.203100
43.434900 0.294400
43.463100 0.342600
43.491300 0.266100
43.519500 0.156600
43.547700 0.118000
43.575900 0.100300
43.604000 0.056200
43.632200 0.017700
43.660400 0.003000
43.688600 0.000300
43.716800 0.000000
43.745000 0.000000
43.773200 0.000000
43.801400 0.000000
43.829600 0.000000
43.857700 0.000000
43.885900 0.000000
43.914100 0.000000
43.942300 0.000000
43.970500 0.000000
43.998700 0.000000
44.026900 0.000000
44.055100 0.000000
44.083300 0.000000
44.111400 0.000000
44.139600 0.000000
44.167800 0.000000
44.196000 0.000000
44.224200 0.000000
44.252400 0.000000
44.280600 0.000000
44.308800 0.000000
44.336900 0.000000
44.365100 0.000000
44.393300 0.000000
44.421500 0.000000
44.449700 0.000000
44.477900 0.000000
44.506100 0.000000
44.534300 0.000000
44.562500 0.000000
44.590600 0.000000
44.618800 0.000000
44.647000 0.000000
44.675200 0.000000
44.703400 0.000000
44.731600 0.000000
44.759800 0.000000
44.788000 0.000000
44.816200 0.000000
44.844300 0.000000
44.872500 0.000000
44.900700 0.000000
44.928900 0.000000
44.957100 0.000000
44.985300 0.000000
45.013500 0.000000
45.041700 0.000000
45.069800 0.000000
45.098000 0.000000
45.126200 0.000000
45.154400 0.000000
45.182600 0.000000
45.210800 0.000000
45.239000 0.000000
45.267200 0.000000
45.295400 0.000000
45.323500 0.000000
45.351700 0.000000
45.379900 0.000000
45.408100 0.000000
45.436300 0.000000
45.464500 0.000000
45.492700 0.000000
45.520900 0.000000
45.549100 0.000000
45.577200 0.000000
45.605400 0.000000
45.633600 0.000000
45.661800 0.000000
45.690000 0.000000
45.718200 0.000000
45.746400 0.000000
45.774600 0.000000
45.802800 0.000000
45.830900 0.000000
45.859100 0.000000
45.887300 0.000000
45.915500 0.000000
45.943700 0.000000
45.971900 0.000000
46.000100 0.000000
46.028300 0.000000
46.056400 0.000000
46.084600 0.000000
46.112800 0.000000
e
