set title 'mp-570572 - Density of States'
set xlabel 'Energy (eV)'
set ylabel 'DOS (states/eV)'
set grid
set xrange [-10:10]
set yrange [0:11.443]
set xzeroaxis lt -1
set terminal png size 800,600
set output 'mp-570572_dos_gnuplot.png'
plot '-' using 1:2 with lines title 'DOS'
-22.116300 0.000000
-22.088000 0.000000
-22.059700 0.000000
-22.031300 0.000000
-22.003000 0.000000
-21.974700 0.000000
-21.946400 0.000000
-21.918100 0.000000
-21.889800 0.000000
-21.861500 0.000000
-21.833200 0.000000
-21.804900 0.000000
-21.776500 0.000000
-21.748200 0.000000
-21.719900 0.000000
-21.691600 0.000000
-21.663300 0.000000
-21.635000 0.000000
-21.606700 0.000000
-21.578400 0.000000
-21.550100 0.000000
-21.521700 0.000000
-21.493400 0.000000
-21.465100 0.000000
-21.436800 0.000000
-21.408500 0.000000
-21.380200 0.000000
-21.351900 0.000000
-21.323600 0.000000
-21.295300 0.000000
-21.266900 0.000000
-21.238600 0.000000
-21.210300 0.000000
-21.182000 0.000000
-21.153700 0.000000
-21.125400 0.000000
-21.097100 0.000000
-21.068800 0.000000
-21.040500 0.000000
-21.012100 0.000000
-20.983800 0.000000
-20.955500 0.000000
-20.927200 0.000000
-20.898900 0.000000
-20.870600 0.000000
-20.842300 0.000000
-20.814000 0.000000
-20.785700 0.000000
-20.757400 0.000000
-20.729000 0.000000
-20.700700 0.000000
-20.672400 0.000000
-20.644100 0.000000
-20.615800 0.000000
-20.587500 0.000000
-20.559200 0.000000
-20.530900 0.000000
-20.502600 0.000000
-20.474200 0.000000
-20.445900 0.000000
-20.417600 0.000000
-20.389300 0.000000
-20.361000 0.000000
-20.332700 0.000000
-20.304400 0.000000
-20.276100 0.000000
-20.247800 0.000000
-20.219400 0.000000
-20.191100 0.000000
-20.162800 0.000000
-20.134500 0.000000
-20.106200 0.000000
-20.077900 0.000000
-20.049600 0.000000
-20.021300 0.000000
-19.993000 0.000000
-19.964600 0.000000
-19.936300 0.000000
-19.908000 0.000000
-19.879700 0.000000
-19.851400 0.000000
-19.823100 0.000000
-19.794800 0.000000
-19.766500 0.000000
-19.738200 0.000000
-19.709800 0.000000
-19.681500 0.000000
-19.653200 0.000000
-19.624900 0.000000
-19.596600 0.000000
-19.568300 0.000000
-19.540000 0.001600
-19.511700 0.195400
-19.483400 0.564500
-19.455000 1.101800
-19.426700 1.423000
-19.398400 1.622700
-19.370100 1.664200
-19.341800 1.473900
-19.313500 1.547800
-19.285200 1.621700
-19.256900 1.695500
-19.228600 1.742800
-19.200300 1.761600
-19.171900 1.749900
-19.143600 1.733700
-19.115300 1.742300
-19.087000 1.778400
-19.058700 1.835400
-19.030400 1.892400
-19.002100 1.949400
-18.973800 2.006400
-18.945500 2.063500
-18.917100 2.133300
-18.888800 2.278700
-18.860500 2.503000
-18.832200 2.813300
-18.803900 3.392400
-18.775600 4.191600
-18.747300 4.178200
-18.719000 3.483700
-18.690700 2.787700
-18.662300 2.151700
-18.634000 2.375200
-18.605700 3.442400
-18.577400 0.654500
-18.549100 0.000000
-18.520800 0.000000
-18.492500 0.000000
-18.464200 0.000000
-18.435900 0.000000
-18.407500 0.000000
-18.379200 0.000000
-18.350900 0.000000
-18.322600 0.000000
-18.294300 0.000000
-18.266000 0.000000
-18.237700 0.000000
-18.209400 0.000000
-18.181100 0.000000
-18.152700 0.000000
-18.124400 0.000000
-18.096100 0.000000
-18.067800 0.000000
-18.039500 0.000000
-18.011200 0.000000
-17.982900 0.000000
-17.954600 0.000000
-17.926300 0.000000
-17.897900 0.000000
-17.869600 0.000000
-17.841300 0.000000
-17.813000 0.000000
-17.784700 0.000000
-17.756400 0.000000
-17.728100 0.000000
-17.699800 0.000000
-17.671500 0.000000
-17.643200 0.000000
-17.614800 0.000000
-17.586500 5.373800
-17.558200 3.099500
-17.529900 1.470200
-17.501600 1.921000
-17.473300 2.371700
-17.445000 2.822400
-17.416700 3.272900
-17.388400 3.156600
-17.360000 2.180500
-17.331700 2.052900
-17.303400 1.925300
-17.275100 1.797700
-17.246800 1.670100
-17.218500 1.542600
-17.190200 1.415000
-17.161900 1.160400
-17.133600 1.076000
-17.105200 1.059500
-17.076900 1.043000
-17.048600 1.026400
-17.020300 1.009900
-16.992000 0.993400
-16.963700 0.976900
-16.935400 0.960300
-16.907100 0.943800
-16.878800 0.927300
-16.850400 0.910800
-16.822100 0.894300
-16.793800 0.877700
-16.765500 0.861200
-16.737200 0.844300
-16.708900 0.821500
-16.680600 0.791800
-16.652300 0.761300
-16.624000 0.730800
-16.595600 0.700400
-16.567300 0.669900
-16.539000 0.639400
-16.510700 0.609000
-16.482400 0.583700
-16.454100 0.572400
-16.425800 0.564200
-16.397500 0.555900
-16.369200 0.547600
-16.340800 0.539300
-16.312500 0.531100
-16.284200 0.522800
-16.255900 0.514500
-16.227600 0.506200
-16.199300 0.498000
-16.171000 0.489700
-16.142700 0.481400
-16.114400 0.473100
-16.086100 0.464900
-16.057700 0.456600
-16.029400 0.448300
-16.001100 0.440000
-15.972800 0.431700
-15.944500 0.423500
-15.916200 0.415200
-15.887900 0.395100
-15.859600 0.358600
-15.831300 0.342700
-15.802900 0.326900
-15.774600 0.311100
-15.746300 1.590900
-15.718000 1.725400
-15.689700 1.859900
-15.661400 1.994700
-15.633100 2.129600
-15.604800 2.264600
-15.576500 2.400200
-15.548100 2.557900
-15.519800 2.739100
-15.491500 2.923100
-15.463200 3.234000
-15.434900 3.456000
-15.406600 3.599900
-15.378300 3.743800
-15.350000 3.887700
-15.321700 4.031600
-15.293300 3.740100
-15.265000 3.273900
-15.236700 2.779600
-15.208400 2.842500
-15.180100 2.755600
-15.151800 2.490800
-15.123500 2.159100
-15.095200 1.827200
-15.066900 1.495100
-15.038500 2.255200
-15.010200 1.729500
-14.981900 0.365400
-14.953600 0.047300
-14.925300 0.102500
-14.897000 0.157700
-14.868700 0.212800
-14.840400 0.268000
-14.812100 0.323200
-14.783800 0.378400
-14.755400 0.433500
-14.727100 0.488700
-14.698800 0.543900
-14.670500 0.599100
-14.642200 0.654300
-14.613900 1.104800
-14.585600 1.449000
-14.557300 1.709700
-14.529000 1.970500
-14.500600 2.231400
-14.472300 2.553700
-14.444000 4.255900
-14.415700 5.022200
-14.387400 4.740000
-14.359100 4.512500
-14.330800 4.284900
-14.302500 4.057400
-14.274200 3.829800
-14.245800 3.602300
-14.217500 2.942000
-14.189200 2.770300
-14.160900 2.582600
-14.132600 2.375700
-14.104300 2.168800
-14.076000 1.961900
-14.047700 1.755100
-14.019400 1.548200
-13.991000 1.341400
-13.962700 0.000000
-13.934400 0.000000
-13.906100 0.000000
-13.877800 0.000000
-13.849500 0.000000
-13.821200 0.000000
-13.792900 0.000000
-13.764600 0.000000
-13.736200 0.000000
-13.707900 0.000000
-13.679600 0.000000
-13.651300 0.000000
-13.623000 0.000000
-13.594700 0.000000
-13.566400 0.000000
-13.538100 0.000000
-13.509800 0.000000
-13.481400 0.000000
-13.453100 0.000000
-13.424800 0.000000
-13.396500 0.000000
-13.368200 0.000000
-13.339900 0.000000
-13.311600 0.000000
-13.283300 0.000000
-13.255000 0.000000
-13.226700 0.000000
-13.198300 0.000000
-13.170000 0.000000
-13.141700 0.000000
-13.113400 0.000000
-13.085100 0.000000
-13.056800 0.000000
-13.028500 0.000000
-13.000200 0.000000
-12.971900 0.000000
-12.943500 0.000000
-12.915200 0.000000
-12.886900 0.000000
-12.858600 0.000000
-12.830300 0.000000
-12.802000 0.000000
-12.773700 0.000000
-12.745400 0.000000
-12.717100 0.000000
-12.688700 0.000000
-12.660400 0.000000
-12.632100 0.000000
-12.603800 0.000000
-12.575500 0.000000
-12.547200 0.000000
-12.518900 0.000000
-12.490600 0.000000
-12.462300 0.000000
-12.433900 0.000000
-12.405600 0.000000
-12.377300 0.000000
-12.349000 0.000000
-12.320700 0.000000
-12.292400 0.000000
-12.264100 0.000000
-12.235800 0.000000
-12.207500 0.000000
-12.179100 0.000000
-12.150800 0.000000
-12.122500 0.000000
-12.094200 0.000000
-12.065900 0.000000
-12.037600 0.000000
-12.009300 0.000000
-11.981000 0.000000
-11.952700 0.000000
-11.924300 0.000000
-11.896000 0.000000
-11.867700 0.000000
-11.839400 0.000000
-11.811100 0.000000
-11.782800 0.000000
-11.754500 0.000000
-11.726200 0.000000
-11.697900 0.000000
-11.669600 0.000000
-11.641200 0.000000
-11.612900 0.000000
-11.584600 0.000000
-11.556300 0.000000
-11.528000 0.000000
-11.499700 0.000000
-11.471400 0.000000
-11.443100 0.000000
-11.414800 0.000000
-11.386400 0.000000
-11.358100 0.025700
-11.329800 0.171200
-11.301500 0.350500
-11.273200 0.529900
-11.244900 0.709300
-11.216600 0.888700
-11.188300 1.068100
-11.160000 1.247500
-11.131600 1.164200
-11.103300 1.063000
-11.075000 1.115800
-11.046700 1.168600
-11.018400 1.221400
-10.990100 1.274200
-10.961800 1.327000
-10.933500 1.291100
-10.905200 1.154700
-10.876800 1.175000
-10.848500 1.195200
-10.820200 1.215500
-10.791900 1.236400
-10.763600 1.260000
-10.735300 1.284200
-10.707000 1.308300
-10.678700 1.332400
-10.650400 1.356600
-10.622000 1.380700
-10.593700 1.405200
-10.565400 1.432500
-10.537100 1.461400
-10.508800 1.490300
-10.480500 1.519200
-10.452200 1.548100
-10.423900 1.577000
-10.395600 1.605900
-10.367200 1.634800
-10.338900 1.663800
-10.310600 1.692700
-10.282300 1.721600
-10.254000 1.750500
-10.225700 1.844100
-10.197400 1.978800
-10.169100 2.100500
-10.140800 2.220700
-10.112500 2.339200
-10.084100 2.457600
-10.055800 2.576100
-10.027500 3.789900
-9.999200 3.401300
-9.970900 3.012700
-9.942600 2.624100
-9.914300 2.235400
-9.886000 1.846800
-9.857700 1.656000
-9.829300 1.832100
-9.801000 2.008300
-9.772700 2.184300
-9.744400 2.952800
-9.716100 0.483500
-9.687800 0.486200
-9.659500 0.489000
-9.631200 0.491700
-9.602900 0.494400
-9.574500 0.497200
-9.546200 0.499900
-9.517900 0.502600
-9.489600 0.505400
-9.461300 0.508100
-9.433000 0.510800
-9.404700 0.513600
-9.376400 0.516300
-9.348100 0.519000
-9.319700 0.521800
-9.291400 0.524500
-9.263100 0.527200
-9.234800 0.530000
-9.206500 0.532700
-9.178200 0.535500
-9.149900 0.538200
-9.121600 0.540900
-9.093300 0.543700
-9.064900 0.546400
-9.036600 0.549100
-9.008300 0.551900
-8.980000 0.678800
-8.951700 0.924300
-8.923400 0.935200
-8.895100 0.946000
-8.866800 0.956900
-8.838500 0.967700
-8.810100 0.978600
-8.781800 0.989500
-8.753500 1.000300
-8.725200 1.011200
-8.696900 1.022000
-8.668600 1.032900
-8.640300 1.043700
-8.612000 1.054600
-8.583700 1.065500
-8.555400 1.076300
-8.527000 1.599800
-8.498700 1.538600
-8.470400 1.477500
-8.442100 1.416300
-8.413800 2.041100
-8.385500 1.853200
-8.357200 1.665300
-8.328900 1.477400
-8.300600 1.289500
-8.272200 1.101500
-8.243900 0.913600
-8.215600 0.725600
-8.187300 0.537700
-8.159000 0.349700
-8.130700 0.161700
-8.102400 0.000000
-8.074100 0.000000
-8.045800 0.000000
-8.017400 0.000000
-7.989100 0.000000
-7.960800 0.000000
-7.932500 0.000000
-7.904200 0.000000
-7.875900 0.000000
-7.847600 0.000000
-7.819300 0.000000
-7.791000 0.000000
-7.762600 0.000000
-7.734300 0.000000
-7.706000 0.000000
-7.677700 0.000000
-7.649400 0.000000
-7.621100 0.000000
-7.592800 0.000000
-7.564500 0.348900
-7.536200 0.907400
-7.507800 1.466100
-7.479500 2.024900
-7.451200 2.583900
-7.422900 10.403000
-7.394600 1.647900
-7.366300 1.714200
-7.338000 1.780600
-7.309700 1.846900
-7.281400 1.913300
-7.253100 1.979700
-7.224700 2.046100
-7.196400 2.112500
-7.168100 2.178900
-7.139800 2.245300
-7.111500 1.778300
-7.083200 1.316500
-7.054900 1.211300
-7.026600 1.186500
-6.998300 1.161700
-6.969900 1.136900
-6.941600 1.112100
-6.913300 1.087200
-6.885000 1.062400
-6.856700 2.035300
-6.828400 1.981000
-6.800100 1.897600
-6.771800 1.814300
-6.743500 1.730900
-6.715100 1.647600
-6.686800 1.564300
-6.658500 1.481000
-6.630200 1.398000
-6.601900 1.397300
-6.573600 1.404500
-6.545300 1.443300
-6.517000 1.542300
-6.488700 1.641400
-6.460300 1.740500
-6.432000 1.813400
-6.403700 1.817600
-6.375400 1.821200
-6.347100 1.824900
-6.318800 1.828600
-6.290500 1.832300
-6.262200 1.836000
-6.233900 1.839600
-6.205500 1.843300
-6.177200 1.847000
-6.148900 1.850700
-6.120600 1.854400
-6.092300 2.087700
-6.064000 2.519400
-6.035700 2.270800
-6.007400 2.022100
-5.979100 1.773400
-5.950700 1.524700
-5.922400 1.237900
-5.894100 1.759100
-5.865800 2.279900
-5.837500 1.652000
-5.809200 0.701700
-5.780900 0.709000
-5.752600 0.767800
-5.724300 0.867500
-5.696000 0.941900
-5.667600 0.990000
-5.639300 1.029600
-5.611000 1.077200
-5.582700 1.132700
-5.554400 1.195900
-5.526100 1.264600
-5.497800 1.338500
-5.469500 1.417400
-5.441200 1.517000
-5.412800 1.647300
-5.384500 1.109200
-5.356200 1.067600
-5.327900 1.022900
-5.299600 0.975100
-5.271300 0.930200
-5.243000 0.895400
-5.214700 0.870600
-5.186400 1.263000
-5.158000 1.335400
-5.129700 1.430700
-5.101400 1.549200
-5.073100 1.666900
-5.044800 1.768900
-5.016500 1.884300
-4.988200 2.016300
-4.959900 2.164800
-4.931600 2.443100
-4.903200 2.763500
-4.874900 2.692600
-4.846600 2.689200
-4.818300 2.619200
-4.790000 2.545800
-4.761700 2.299200
-4.733400 2.145100
-4.705100 2.228600
-4.676800 2.317200
-4.648400 2.430400
-4.620100 2.569400
-4.591800 2.734000
-4.563500 2.924300
-4.535200 3.097700
-4.506900 2.811800
-4.478600 3.300800
-4.450300 3.550300
-4.422000 4.566000
-4.393600 5.190800
-4.365300 4.360900
-4.337000 4.305600
-4.308700 4.293200
-4.280400 4.311200
-4.252100 4.359100
-4.223800 4.667600
-4.195500 5.156100
-4.167200 5.779700
-4.138900 6.162500
-4.110500 5.611100
-4.082200 4.604700
-4.053900 3.730200
-4.025600 3.042500
-3.997300 2.755700
-3.969000 2.097900
-3.940700 1.769000
-3.912400 1.491900
-3.884100 1.266400
-3.855700 1.078300
-3.827400 1.702800
-3.799100 1.576400
-3.770800 1.066300
-3.742500 0.560800
-3.714200 0.078700
-3.685900 0.057400
-3.657600 0.126200
-3.629300 0.195000
-3.600900 0.263700
-3.572600 0.332500
-3.544300 0.401300
-3.516000 0.470100
-3.487700 0.538800
-3.459400 0.607600
-3.431100 0.676400
-3.402800 0.745100
-3.374500 0.488700
-3.346100 0.615900
-3.317800 0.968300
-3.289500 1.288600
-3.261200 1.532400
-3.232900 2.029800
-3.204600 2.216200
-3.176300 2.259000
-3.148000 2.364100
-3.119700 2.545500
-3.091300 2.563800
-3.063000 2.699300
-3.034700 2.702300
-3.006400 2.654300
-2.978100 2.600100
-2.949800 2.539800
-2.921500 2.470500
-2.893200 2.616800
-2.864900 3.700100
-2.836500 3.349400
-2.808200 3.242300
-2.779900 3.108600
-2.751600 2.948300
-2.723300 2.798600
-2.695000 2.654700
-2.666700 2.460400
-2.638400 1.892800
-2.610100 1.324300
-2.581800 0.919500
-2.553400 0.568800
-2.525100 0.272300
-2.496800 0.037700
-2.468500 0.000000
-2.440200 0.000000
-2.411900 0.000000
-2.383600 0.002900
-2.355300 0.026200
-2.327000 0.062300
-2.298600 0.108700
-2.270300 0.165300
-2.242000 0.232200
-2.213700 0.309800
-2.185400 0.400700
-2.157100 0.512100
-2.128800 0.644700
-2.100500 0.798400
-2.072200 0.973200
-2.043800 1.167100
-2.015500 1.368700
-1.987200 1.636500
-1.958900 2.157300
-1.930600 3.150100
-1.902300 3.315000
-1.874000 2.663100
-1.845700 2.411000
-1.817400 2.219600
-1.789000 2.055400
-1.760700 1.918500
-1.732400 1.808800
-1.704100 1.726300
-1.675800 1.693500
-1.647500 1.673600
-1.619200 1.653500
-1.590900 1.633000
-1.562600 2.207300
-1.534200 2.114100
-1.505900 2.021600
-1.477600 1.929900
-1.449300 1.838800
-1.421000 1.748500
-1.392700 1.660900
-1.364400 1.579600
-1.336100 1.607100
-1.307800 2.439700
-1.279500 2.155000
-1.251100 2.003300
-1.222800 1.877500
-1.194500 1.714000
-1.166200 2.590800
-1.137900 3.363100
-1.109600 3.534200
-1.081300 4.368600
-1.053000 4.086500
-1.024700 4.221500
-0.996300 4.426500
-0.968000 4.830200
-0.939700 4.254200
-0.911400 3.978700
-0.883100 3.763100
-0.854800 3.599200
-0.826500 3.355400
-0.798200 3.084000
-0.769900 2.818500
-0.741500 2.581400
-0.713200 2.446400
-0.684900 2.290100
-0.656600 2.172900
-0.628300 2.121900
-0.600000 1.984700
-0.571700 1.718500
-0.543400 1.173900
-0.515100 1.081000
-0.486700 0.329600
-0.458400 0.000000
-0.430100 0.000000
-0.401800 0.000000
-0.373500 0.000000
-0.345200 0.000000
-0.316900 0.000000
-0.288600 0.000000
-0.260300 0.000000
-0.231900 0.000000
-0.203600 0.000000
-0.175300 0.000000
-0.147000 0.000000
-0.118700 0.000000
-0.090400 0.000000
-0.062100 0.000000
-0.033800 0.000000
-0.005500 0.034900
0.022900 0.878000
0.051200 1.788900
0.079500 2.700200
0.107800 1.046600
0.136100 1.161300
0.164400 1.276000
0.192700 1.390800
0.221000 1.506100
0.249300 1.636800
0.277600 1.786800
0.306000 1.540900
0.334300 1.222000
0.362600 1.301100
0.390900 1.388300
0.419200 1.484300
0.447500 1.589600
0.475800 1.736500
0.504100 1.913900
0.532400 2.100300
0.560800 2.294600
0.589100 2.497200
0.617400 2.709300
0.645700 2.930600
0.674000 3.089300
0.702300 3.333400
0.730600 3.670100
0.758900 3.926700
0.787200 4.178600
0.815600 4.412700
0.843900 5.058400
0.872200 5.321200
0.900500 1.792300
0.928800 2.446000
0.957100 2.679500
0.985400 2.909900
1.013700 3.114700
1.042000 3.268000
1.070400 3.419200
1.098700 3.149900
1.127000 2.907100
1.155300 2.692600
1.183600 2.489400
1.211900 2.454000
1.240200 2.607500
1.268500 1.188600
1.296800 0.746300
1.325200 0.731400
1.353500 0.716600
1.381800 0.701700
1.410100 0.686900
1.438400 0.672000
1.466700 0.657200
1.495000 0.642400
1.523300 0.627600
1.551600 0.612800
1.580000 0.600200
1.608300 0.590200
1.636600 0.580300
1.664900 0.570400
1.693200 0.560400
1.721500 0.550500
1.749800 0.540500
1.778100 0.530600
1.806400 0.520700
1.834700 0.510700
1.863100 0.500800
1.891400 0.490800
1.919700 0.480900
1.948000 0.470900
1.976300 0.465300
2.004600 0.461200
2.032900 0.457100
2.061200 1.339000
2.089500 1.412300
2.117900 1.485600
2.146200 1.558900
2.174500 1.632200
2.202800 1.705500
2.231100 1.778800
2.259400 1.852100
2.287700 1.925400
2.316000 1.998700
2.344300 2.135800
2.372700 2.427400
2.401000 2.719100
2.429300 3.010800
2.457600 3.478800
2.485900 3.678800
2.514200 3.809500
2.542500 3.940200
2.570800 4.070800
2.599100 3.850500
2.627500 3.292800
2.655800 3.019300
2.684100 2.745800
2.712400 2.472300
2.740700 2.593800
2.769000 2.751800
2.797300 2.507200
2.825600 2.262600
2.853900 2.018000
2.882300 1.773400
2.910600 1.528800
2.938900 2.217800
2.967200 1.959900
2.995500 0.816400
3.023800 0.024300
3.052100 0.000000
3.080400 0.000000
3.108700 0.000000
3.137100 0.000000
3.165400 0.000000
3.193700 0.000000
3.222000 0.000000
3.250300 0.000000
3.278600 0.000000
3.306900 0.000000
3.335200 0.000000
3.363500 0.000000
3.391800 0.000000
3.420200 0.000000
3.448500 0.000000
3.476800 0.000000
3.505100 0.000000
3.533400 0.000000
3.561700 0.000000
3.590000 0.000000
3.618300 0.000000
3.646600 0.000000
3.675000 0.000000
3.703300 0.000000
3.731600 0.000000
3.759900 0.000000
3.788200 0.000000
3.816500 0.000000
3.844800 0.000000
3.873100 0.000000
3.901400 0.000000
3.929800 0.000000
3.958100 0.000000
3.986400 0.000000
4.014700 0.000000
4.043000 0.000000
4.071300 0.000000
4.099600 0.000000
4.127900 0.000000
4.156200 0.000000
4.184600 0.000000
4.212900 0.000000
4.241200 0.000000
4.269500 0.000000
4.297800 0.000000
4.326100 0.000000
4.354400 0.000000
4.382700 0.000000
4.411000 0.000000
4.439400 0.000000
4.467700 0.016500
4.496000 0.071000
4.524300 0.163500
4.552600 0.275400
4.580900 0.385300
4.609200 0.502900
4.637500 0.648100
4.665800 0.757300
4.694100 0.879600
4.722500 1.024000
4.750800 1.178100
4.779100 1.355600
4.807400 1.602400
4.835700 1.852400
4.864000 2.068400
4.892300 2.259100
4.920600 2.474900
4.948900 2.712700
4.977300 2.883400
5.005600 3.067600
5.033900 7.266300
5.062200 7.618600
5.090500 7.142100
5.118800 6.200500
5.147100 4.794300
5.175400 4.118800
5.203700 3.643100
5.232100 2.977400
5.260400 2.332000
5.288700 1.996300
5.317000 1.707300
5.345300 1.447700
5.373600 1.214200
5.401900 1.003200
5.430200 0.824800
5.458500 0.595600
5.486900 0.504700
5.515200 0.513300
5.543500 0.521800
5.571800 0.529700
5.600100 0.536400
5.628400 0.542200
5.656700 0.547700
5.685000 0.552800
5.713300 0.557600
5.741700 0.562700
5.770000 0.568700
5.798300 0.575000
5.826600 0.581600
5.854900 0.588500
5.883200 0.595900
5.911500 0.603700
5.939800 0.612100
5.968100 0.621200
5.996500 0.630800
6.024800 0.642100
6.053100 0.653400
6.081400 0.664800
6.109700 0.676300
6.138000 0.687700
6.166300 0.699100
6.194600 0.710500
6.222900 0.721900
6.251200 0.733400
6.279600 0.744800
6.307900 0.756300
6.336200 0.767700
6.364500 0.779200
6.392800 0.790700
6.421100 0.802200
6.449400 0.813700
6.477700 0.825200
6.506000 0.836700
6.534400 0.862800
6.562700 0.958000
6.591000 1.130300
6.619300 1.236800
6.647600 1.323500
6.675900 1.418500
6.704200 1.520700
6.732500 1.584400
6.760800 1.688300
6.789200 1.611600
6.817500 1.534800
6.845800 1.457900
6.874100 1.380900
6.902400 1.303700
6.930700 1.226500
6.959000 1.149100
6.987300 1.071600
7.015600 0.994000
7.044000 0.918100
7.072300 0.858200
7.100600 0.824200
7.128900 0.809300
7.157200 0.821000
7.185500 0.851200
7.213800 0.885000
7.242100 0.922500
7.270400 0.959800
7.298800 0.991800
7.327100 1.021200
7.355400 1.169300
7.383700 1.950300
7.412000 0.196000
7.440300 0.199900
7.468600 0.203600
7.496900 0.208600
7.525200 0.214900
7.553600 0.222200
7.581900 0.229800
7.610200 0.237800
7.638500 0.246000
7.666800 0.254600
7.695100 0.263600
7.723400 0.272800
7.751700 0.282400
7.780000 0.292400
7.808300 0.302600
7.836700 0.313100
7.865000 0.323900
7.893300 0.335000
7.921600 0.346400
7.949900 0.357600
7.978200 0.368000
8.006500 0.377500
8.034800 0.386100
8.063100 0.393900
8.091500 0.402800
8.119800 0.412000
8.148100 0.421400
8.176400 0.430800
8.204700 0.440300
8.233000 0.449900
8.261300 0.458800
8.289600 0.468000
8.317900 0.477700
8.346300 0.487700
8.374600 0.498100
8.402900 0.509000
8.431200 0.520100
8.459500 0.531700
8.487800 0.543900
8.516100 0.557300
8.544400 0.571800
8.572700 0.587500
8.601100 0.604400
8.629400 0.622200
8.657700 0.640900
8.686000 0.660700
8.714300 0.681400
8.742600 0.708600
8.770900 0.763700
8.799200 0.823900
8.827500 0.889100
8.855900 0.956400
8.884200 1.014100
8.912500 1.061200
8.940800 1.100700
8.969100 1.145300
8.997400 1.184100
9.025700 1.219400
9.054000 1.269200
9.082300 1.327500
9.110700 1.380600
9.139000 1.423500
9.167300 1.437200
9.195600 1.459200
9.223900 1.541400
9.252200 1.641600
9.280500 1.747300
9.308800 1.850600
9.337100 1.944500
9.365400 2.049100
9.393800 2.161600
9.422100 2.327000
9.450400 2.401500
9.478700 2.445300
9.507000 2.470800
9.535300 2.476500
9.563600 2.599500
9.591900 3.506200
9.620200 4.093600
9.648600 4.807400
9.676900 5.631400
9.705200 5.928900
9.733500 5.738200
9.761800 5.545700
9.790100 5.197100
9.818400 5.786600
9.846700 5.664500
9.875000 6.244800
9.903400 6.299300
9.931700 5.880900
9.960000 5.744100
9.988300 5.889000
10.016600 5.687800
10.044900 5.460000
10.073200 5.016100
10.101500 4.443100
10.129800 3.237100
10.158200 2.883200
10.186500 2.921400
10.214800 3.141800
10.243100 2.341900
10.271400 2.142100
10.299700 2.042700
10.328000 1.975300
10.356300 1.985900
10.384600 2.005300
10.413000 2.028200
10.441300 2.054300
10.469600 2.083500
10.497900 2.115700
10.526200 2.149600
10.554500 2.187300
10.582800 2.233600
10.611100 2.288700
10.639400 2.352600
10.667700 2.425400
10.696100 2.507000
10.724400 2.607100
10.752700 2.718700
10.781000 3.002000
10.809300 3.233700
10.837600 3.012900
10.865900 2.777800
10.894200 2.543200
10.922500 2.320900
10.950900 2.109300
10.979200 2.101300
11.007500 2.162600
11.035800 2.861600
11.064100 2.494400
11.092400 2.336300
11.120700 2.462400
11.149000 2.425600
11.177300 2.235100
11.205700 2.132000
11.234000 2.232400
11.262300 2.064200
11.290600 2.061700
11.318900 2.155000
11.347200 2.253400
11.375500 2.356200
11.403800 2.462900
11.432100 2.553500
11.460500 2.678500
11.488800 2.400500
11.517100 2.389500
11.545400 2.389900
11.573700 2.400500
11.602000 2.409600
11.630300 2.414400
11.658600 2.366500
11.686900 1.931700
11.715300 1.885400
11.743600 1.913100
11.771900 1.956900
11.800200 2.014800
11.828500 2.086400
11.856800 2.165300
11.885100 2.181400
11.913400 2.190500
11.941700 2.055900
11.970100 1.995500
11.998400 1.957400
12.026700 2.019500
12.055000 1.914100
12.083300 1.855100
12.111600 1.858200
12.139900 1.830300
12.168200 1.863600
12.196500 1.803200
12.224800 1.841700
12.253200 1.907500
12.281500 1.973600
12.309800 2.025000
12.338100 2.063700
12.366400 2.084500
12.394700 2.067700
12.423000 2.058800
12.451300 2.116100
12.479600 2.154700
12.508000 2.489200
12.536300 2.058400
12.564600 1.971000
12.592900 1.865000
12.621200 1.888600
12.649500 1.958100
12.677800 2.009500
12.706100 2.028800
12.734400 2.083700
12.762800 2.129900
12.791100 2.197200
12.819400 2.295600
12.847700 2.417200
12.876000 2.560800
12.904300 2.587200
12.932600 2.785300
12.960900 2.842700
12.989200 2.868100
13.017600 2.925400
13.045900 3.599800
13.074200 2.301400
13.102500 1.836100
13.130800 1.653800
13.159100 1.780200
13.187400 1.846700
13.215700 1.793700
13.244000 1.670900
13.272400 1.572900
13.300700 1.605400
13.329000 1.640700
13.357300 1.676100
13.385600 1.708900
13.413900 1.736200
13.442200 1.757800
13.470500 1.773800
13.498800 1.785600
13.527200 1.797200
13.555500 1.799000
13.583800 1.754100
13.612100 1.648300
13.640400 1.598100
13.668700 1.559900
13.697000 1.522700
13.725300 1.488000
13.753600 1.456200
13.781900 1.441700
13.810300 1.453800
13.838600 1.475800
13.866900 1.507500
13.895200 1.551000
13.923500 1.645500
13.951800 1.714300
13.980100 1.757200
14.008400 1.722400
14.036700 1.757000
14.065100 1.829900
14.093400 1.933100
14.121700 2.015500
14.150000 2.093200
14.178300 2.164600
14.206600 2.223900
14.234900 2.324400
14.263200 2.535500
14.291500 2.773800
14.319900 3.071800
14.348200 3.429600
14.376500 3.613500
14.404800 3.686400
14.433100 3.750500
14.461400 3.973400
14.489700 3.934200
14.518000 6.254900
14.546300 2.739000
14.574700 2.744700
14.603000 3.159100
14.631300 3.754500
14.659600 4.509300
14.687900 5.442100
14.716200 6.479800
14.744500 7.497400
14.772800 7.161900
14.801100 6.267400
14.829500 5.334800
14.857800 3.904600
14.886100 2.785000
14.914400 2.184500
14.942700 2.242800
14.971000 2.458600
14.999300 2.895800
15.027600 3.640900
15.055900 4.392400
15.084300 5.032800
15.112600 5.034700
15.140900 5.406300
15.169200 6.259400
15.197500 3.932300
15.225800 2.632800
15.254100 2.386000
15.282400 2.122100
15.310700 1.754300
15.339000 1.446200
15.367400 1.200500
15.395700 1.065300
15.424000 0.980900
15.452300 0.913700
15.480600 0.856000
15.508900 0.756500
15.537200 0.685800
15.565500 0.724000
15.593800 1.311300
15.622200 3.379800
15.650500 2.505300
15.678800 2.524200
15.707100 2.757100
15.735400 3.228600
15.763700 3.932700
15.792000 5.970800
15.820300 6.028500
15.848600 5.607600
15.877000 4.565500
15.905300 3.653000
15.933600 3.236500
15.961900 2.985800
15.990200 2.721100
16.018500 2.530600
16.046800 2.315800
16.075100 2.076600
16.103400 1.853100
16.131800 1.570800
16.160100 1.340400
16.188400 1.172600
16.216700 1.036300
16.245000 0.907800
16.273300 0.784000
16.301600 0.755000
16.329900 1.123300
16.358200 1.493200
16.386600 1.628300
16.414900 1.847100
16.443200 2.108700
16.471500 2.386900
16.499800 3.169100
16.528100 6.367800
16.556400 5.749800
16.584700 5.055700
16.613000 4.703800
16.641300 3.644100
16.669700 2.977800
16.698000 2.466800
16.726300 2.167500
16.754600 2.056000
16.782900 2.084600
16.811200 2.056300
16.839500 2.323000
16.867800 2.677400
16.896100 3.015000
16.924500 3.111800
16.952800 3.207800
16.981100 3.323800
17.009400 3.424000
17.037700 3.506100
17.066000 3.554100
17.094300 3.554700
17.122600 3.476700
17.150900 3.361600
17.179300 3.316700
17.207600 3.270100
17.235900 3.217500
17.264200 3.151400
17.292500 3.070900
17.320800 2.970300
17.349100 2.873700
17.377400 2.667500
17.405700 2.521700
17.434100 2.422800
17.462400 2.336000
17.490700 2.263700
17.519000 2.236700
17.547300 2.215700
17.575600 2.221800
17.603900 2.257100
17.632200 2.209400
17.660500 2.050200
17.688900 1.937200
17.717200 1.908400
17.745500 1.935800
17.773800 1.992100
17.802100 1.987000
17.830400 1.946500
17.858700 1.944400
17.887000 1.990600
17.915300 2.065600
17.943700 2.277700
17.972000 2.547500
18.000300 2.417200
18.028600 2.277100
18.056900 2.168300
18.085200 2.055400
18.113500 1.967700
18.141800 1.933000
18.170100 1.928500
18.198400 1.955800
18.226800 2.013600
18.255100 2.094900
18.283400 2.171400
18.311700 2.239400
18.340000 2.322100
18.368300 2.601700
18.396600 2.712200
18.424900 2.714100
18.453200 2.706400
18.481600 2.734600
18.509900 2.812100
18.538200 2.907700
18.566500 2.865100
18.594800 2.702500
18.623100 2.665700
18.651400 2.638100
18.679700 2.645100
18.708000 2.649600
18.736400 2.657200
18.764700 2.693500
18.793000 2.732900
18.821300 2.775300
18.849600 2.819000
18.877900 2.913400
18.906200 2.847000
18.934500 2.782600
18.962800 2.722500
18.991200 2.667200
19.019500 2.666300
19.047800 2.728900
19.076100 2.856000
19.104400 2.986000
19.132700 3.059900
19.161000 3.003400
19.189300 2.717500
19.217600 2.431000
19.246000 2.327300
19.274300 2.224400
19.302600 2.123200
19.330900 2.030600
19.359200 1.946200
19.387500 1.868900
19.415800 1.824900
19.444100 1.825500
19.472400 1.819300
19.500800 1.810000
19.529100 1.799100
19.557400 1.791700
19.585700 1.785200
19.614000 1.774600
19.642300 1.759900
19.670600 1.762200
19.698900 1.791300
19.727200 1.816200
19.755500 1.836900
19.783900 1.852600
19.812200 1.862500
19.840500 1.866000
19.868800 1.862800
19.897100 1.856500
19.925400 1.849200
19.953700 1.841600
19.982000 1.838100
20.010300 1.836400
20.038700 1.835000
20.067000 1.846800
20.095300 1.813100
20.123600 1.752300
20.151900 1.744600
20.180200 1.812000
20.208500 1.927700
20.236800 2.005800
20.265100 2.147700
20.293500 2.075100
20.321800 1.985100
20.350100 1.998000
20.378400 2.281400
20.406700 2.358000
20.435000 2.313200
20.463300 2.212000
20.491600 2.413000
20.519900 2.569400
20.548300 2.643300
20.576600 2.613200
20.604900 2.572800
20.633200 2.536800
20.661500 2.502700
20.689800 2.753800
20.718100 2.888300
20.746400 2.986200
20.774700 3.238200
20.803100 3.249100
20.831400 3.112800
20.859700 2.931600
20.888000 2.834000
20.916300 2.725500
20.944600 2.574100
20.972900 2.366100
21.001200 2.089300
21.029500 1.943600
21.057900 1.868300
21.086200 1.857400
21.114500 1.870800
21.142800 1.889800
21.171100 1.907600
21.199400 1.923800
21.227700 1.948400
21.256000 1.996000
21.284300 2.137700
21.312600 2.564900
21.341000 2.428500
21.369300 2.334500
21.397600 2.099000
21.425900 1.831400
21.454200 1.643700
21.482500 1.666200
21.510800 1.700500
21.539100 1.753700
21.567400 1.817200
21.595800 1.882900
21.624100 2.024000
21.652400 2.623500
21.680700 2.578800
21.709000 2.487100
21.737300 2.513400
21.765600 2.483700
21.793900 2.401300
21.822200 2.268200
21.850600 2.198500
21.878900 2.247900
21.907200 2.310400
21.935500 2.375900
21.963800 2.458500
21.992100 2.574000
22.020400 2.668000
22.048700 2.740500
22.077000 2.782600
22.105400 2.897900
22.133700 2.999800
22.162000 3.164700
22.190300 3.500600
22.218600 3.408700
22.246900 3.755100
22.275200 3.964500
22.303500 4.042900
22.331800 3.986200
22.360200 3.891000
22.388500 3.834000
22.416800 4.090200
22.445100 3.342200
22.473400 3.181700
22.501700 3.355300
22.530000 4.208100
22.558300 4.233300
22.586600 4.338600
22.615000 4.432800
22.643300 4.534400
22.671600 4.535700
22.699900 4.279500
22.728200 3.770600
22.756500 2.979900
22.784800 2.796700
22.813100 2.695500
22.841400 2.609700
22.869700 2.397400
22.898100 2.179100
22.926400 2.026200
22.954700 1.921800
22.983000 1.825400
23.011300 1.693800
23.039600 1.934700
23.067900 3.302100
23.096200 3.547000
23.124500 3.848900
23.152900 4.109900
23.181200 4.410500
23.209500 5.098500
23.237800 5.030000
23.266100 4.820600
23.294400 4.616700
23.322700 4.568900
23.351000 4.496400
23.379300 4.148700
23.407700 3.709700
23.436000 3.312400
23.464300 2.958800
23.492600 2.719000
23.520900 2.549100
23.549200 2.392300
23.577500 2.288100
23.605800 2.377300
23.634100 3.017600
23.662500 3.225900
23.690800 2.884900
23.719100 2.641500
23.747400 2.520000
23.775700 2.499800
23.804000 3.002600
23.832300 3.237000
23.860600 3.611300
23.888900 3.857900
23.917300 4.212900
23.945600 4.180100
23.973900 4.227500
24.002200 4.213700
24.030500 4.314700
24.058800 3.943500
24.087100 3.654200
24.115400 3.318600
24.143700 2.937400
24.172000 2.718900
24.200400 2.603600
24.228700 2.568000
24.257000 2.583300
24.285300 2.613400
24.313600 2.631300
24.341900 2.636000
24.370200 2.626400
24.398500 2.561000
24.426800 2.444000
24.455200 2.175500
24.483500 1.905400
24.511800 1.849300
24.540100 1.787200
24.568400 1.724100
24.596700 1.677300
24.625000 1.660600
24.653300 1.695600
24.681600 1.728500
24.710000 1.758400
24.738300 1.810700
24.766600 2.031300
24.794900 2.230900
24.823200 2.412100
24.851500 2.558500
24.879800 2.684800
24.908100 2.770600
24.936400 2.823700
24.964800 3.413800
24.993100 3.521400
25.021400 3.277200
25.049700 3.075100
25.078000 3.041400
25.106300 3.181400
25.134600 3.352300
25.162900 3.477000
25.191200 3.638000
25.219600 3.891900
25.247900 4.313400
25.276200 4.563100
25.304500 4.613000
25.332800 4.903300
25.361100 4.793700
25.389400 4.725400
25.417700 4.396300
25.446000 3.812700
25.474400 3.286000
25.502700 2.907500
25.531000 2.747500
25.559300 2.788300
25.587600 2.756900
25.615900 2.668500
25.644200 2.559000
25.672500 2.437100
25.700800 2.321100
25.729100 2.244100
25.757500 2.138000
25.785800 2.222600
25.814100 2.319400
25.842400 2.466800
25.870700 2.618000
25.899000 2.809000
25.927300 2.962800
25.955600 3.062800
25.983900 3.150400
26.012300 3.222500
26.040600 3.211100
26.068900 3.196300
26.097200 3.190400
26.125500 3.179600
26.153800 2.918100
26.182100 2.776900
26.210400 2.771900
26.238700 2.702200
26.267100 2.501100
26.295400 2.082200
26.323700 1.984000
26.352000 1.976100
26.380300 1.968400
26.408600 1.979600
26.436900 2.017000
26.465200 2.090600
26.493500 2.202100
26.521900 2.325400
26.550200 2.292100
26.578500 3.468600
26.606800 3.738600
26.635100 3.725100
26.663400 3.638400
26.691700 3.371200
26.720000 3.340600
26.748300 3.386000
26.776700 3.232700
26.805000 2.553800
26.833300 2.254500
26.861600 2.222100
26.889900 2.483600
26.918200 2.579300
26.946500 2.568300
26.974800 2.401700
27.003100 2.283500
27.031500 2.289700
27.059800 2.362100
27.088100 2.737100
27.116400 3.152900
27.144700 4.436000
27.173000 4.111400
27.201300 4.324100
27.229600 4.461600
27.257900 4.482300
27.286200 4.543200
27.314600 4.498800
27.342900 4.350700
27.371200 4.792800
27.399500 2.982000
27.427800 2.349700
27.456100 2.277600
27.484400 2.417000
27.512700 2.557700
27.541000 2.692700
27.569400 2.821000
27.597700 2.868100
27.626000 3.141600
27.654300 3.562800
27.682600 3.929600
27.710900 3.406300
27.739200 3.432800
27.767500 3.710800
27.795800 5.256800
27.824200 4.876600
27.852500 4.920500
27.880800 3.254500
27.909100 3.141700
27.937400 3.009900
27.965700 2.871100
27.994000 2.742600
28.022300 2.910000
28.050600 2.587400
28.079000 2.899000
28.107300 2.904800
28.135600 2.918200
28.163900 2.942200
28.192200 2.977900
28.220500 3.014800
28.248800 3.068700
28.277100 3.058100
28.305400 3.077300
28.333800 3.146900
28.362100 3.210000
28.390400 3.267300
28.418700 3.357500
28.447000 3.492400
28.475300 3.636300
28.503600 3.859600
28.531900 3.920600
28.560200 3.628300
28.588600 3.708300
28.616900 3.595400
28.645200 3.688200
28.673500 3.753000
28.701800 3.775300
28.730100 3.773400
28.758400 3.804700
28.786700 3.904100
28.815000 4.072100
28.843300 3.805800
28.871700 3.450800
28.900000 3.352100
28.928300 3.336500
28.956600 3.587900
28.984900 4.065700
29.013200 4.522800
29.041500 5.109600
29.069800 5.521200
29.098100 5.543100
29.126500 3.965900
29.154800 3.331700
29.183100 2.722900
29.211400 2.190100
29.239700 1.854800
29.268000 1.618600
29.296300 1.425900
29.324600 1.243200
29.352900 1.070800
29.381300 0.985200
29.409600 0.952400
29.437900 0.950500
29.466200 0.994900
29.494500 1.071700
29.522800 1.158200
29.551100 1.250100
29.579400 1.359300
29.607700 1.488100
29.636100 1.636300
29.664400 1.803900
29.692700 1.994300
29.721000 2.641700
29.749300 3.215700
29.777600 3.004700
29.805900 2.818400
29.834200 2.956000
29.862500 3.254200
29.890900 3.695100
29.919200 4.364900
29.947500 5.093100
29.975800 4.688500
30.004100 3.840400
30.032400 3.182800
30.060700 2.686100
30.089000 2.333400
30.117300 2.196400
30.145600 2.089300
30.174000 1.988700
30.202300 1.886100
30.230600 1.771600
30.258900 1.634500
30.287200 1.813900
30.315500 1.659300
30.343800 1.411700
30.372100 1.258200
30.400400 1.105100
30.428800 0.964900
30.457100 0.839300
30.485400 0.728100
30.513700 0.631400
30.542000 0.549800
30.570300 0.489300
30.598600 0.449700
30.626900 0.423400
30.655200 0.402600
30.683600 0.384300
30.711900 0.368200
30.740200 0.357400
30.768500 0.349500
30.796800 0.341700
30.825100 0.333900
30.853400 0.326100
30.881700 0.318400
30.910000 0.310700
30.938400 0.303000
30.966700 0.295400
30.995000 0.287700
31.023300 0.280200
31.051600 0.272600
31.079900 0.265100
31.108200 0.257600
31.136500 0.250100
31.164800 0.242700
31.193200 0.235700
31.221500 0.230300
31.249800 0.226900
31.278100 0.225200
31.306400 0.225400
31.334700 0.227400
31.363000 0.231200
31.391300 0.236800
31.419600 0.487600
31.448000 0.318000
31.476300 0.279600
31.504600 0.243900
31.532900 0.210800
31.561200 0.180300
31.589500 0.152500
31.617800 0.127300
31.646100 0.104800
31.674400 0.084900
31.702700 0.067600
31.731100 0.053000
31.759400 0.040800
31.787700 0.030200
31.816000 0.021100
31.844300 0.013600
31.872600 0.007600
31.900900 0.003100
31.929200 0.000100
31.957500 0.000000
31.985900 0.000000
32.014200 0.000000
32.042500 0.000000
32.070800 0.000000
32.099100 0.000000
32.127400 0.000000
32.155700 0.000000
32.184000 0.000000
32.212300 0.000000
32.240700 0.000000
32.269000 0.000000
32.297300 0.000000
32.325600 0.000000
32.353900 0.000000
32.382200 0.000000
32.410500 0.000000
32.438800 0.000000
32.467100 0.000000
32.495500 0.000000
32.523800 0.000000
32.552100 0.000000
32.580400 0.000000
32.608700 0.000000
32.637000 0.000000
32.665300 0.000000
32.693600 0.000000
32.721900 0.000000
32.750300 0.000000
32.778600 0.000000
32.806900 0.000000
32.835200 0.000000
32.863500 0.000000
32.891800 0.000000
32.920100 0.000000
32.948400 0.000000
32.976700 0.000000
33.005100 0.000000
33.033400 0.000000
33.061700 0.000000
33.090000 0.000000
33.118300 0.000000
33.146600 0.000000
33.174900 0.000000
33.203200 0.000000
33.231500 0.000000
33.259800 0.000000
33.288200 0.000000
33.316500 0.000000
33.344800 0.000000
33.373100 0.000000
33.401400 0.000000
33.429700 0.000000
33.458000 0.000000
33.486300 0.000000
33.514600 0.000000
33.543000 0.000000
33.571300 0.000000
33.599600 0.000000
33.627900 0.000000
33.656200 0.000000
33.684500 0.000000
33.712800 0.000000
33.741100 0.000000
33.769400 0.000000
33.797800 0.000000
33.826100 0.000000
33.854400 0.000000
33.882700 0.000000
33.911000 0.000000
33.939300 0.000000
33.967600 0.000000
33.995900 0.000000
34.024200 0.000000
34.052600 0.000000
34.080900 0.000000
34.109200 0.000000
34.137500 0.000000
34.165800 0.000000
34.194100 0.000000
34.222400 0.000000
34.250700 0.000000
34.279000 0.000000
34.307400 0.000000
34.335700 0.000000
34.364000 0.000000
34.392300 0.000000
34.420600 0.000000
34.448900 0.000000
34.477200 0.000000
34.505500 0.000000
e
