set title 'mp-2237 - Density of States'
set xlabel 'Energy (eV)'
set ylabel 'DOS (states/eV)'
set grid
set xrange [-10:10]
set yrange [0:16.040]
set xzeroaxis lt -1
set terminal png size 800,600
set output 'mp-2237_dos_gnuplot.png'
plot '-' using 1:2 with lines title 'DOS'
-15.843800 0.000000
-15.824400 0.000000
-15.804900 0.000000
-15.785400 0.000000
-15.765900 0.000000
-15.746500 0.000000
-15.727000 0.000000
-15.707500 0.000000
-15.688000 0.000000
-15.668500 0.000000
-15.649100 0.000000
-15.629600 0.000000
-15.610100 0.000000
-15.590600 0.000000
-15.571200 0.000000
-15.551700 0.000000
-15.532200 0.000000
-15.512700 0.000000
-15.493200 0.000000
-15.473800 0.000000
-15.454300 0.000000
-15.434800 0.000000
-15.415300 0.000000
-15.395900 0.000000
-15.376400 0.000000
-15.356900 0.000000
-15.337400 0.000000
-15.317900 0.000000
-15.298500 0.000000
-15.279000 0.000000
-15.259500 0.000000
-15.240000 0.000000
-15.220500 0.000000
-15.201100 0.000000
-15.181600 0.000000
-15.162100 0.000000
-15.142600 0.000000
-15.123200 0.000000
-15.103700 0.000000
-15.084200 0.000000
-15.064700 0.000000
-15.045200 0.000000
-15.025800 0.000000
-15.006300 0.000000
-14.986800 0.000000
-14.967300 0.000000
-14.947900 0.000000
-14.928400 0.000000
-14.908900 0.000000
-14.889400 0.000000
-14.869900 0.000000
-14.850500 0.000000
-14.831000 0.000000
-14.811500 0.000000
-14.792000 0.000000
-14.772600 0.000000
-14.753100 0.000000
-14.733600 0.000000
-14.714100 0.000000
-14.694600 0.000000
-14.675200 0.000000
-14.655700 0.000000
-14.636200 0.000000
-14.616700 0.000000
-14.597300 0.000000
-14.577800 0.000000
-14.558300 0.000000
-14.538800 0.000000
-14.519300 0.000000
-14.499900 0.000000
-14.480400 0.000000
-14.460900 0.000000
-14.441400 0.000000
-14.422000 0.000000
-14.402500 0.000000
-14.383000 0.000000
-14.363500 0.000000
-14.344000 0.000000
-14.324600 0.000000
-14.305100 0.000000
-14.285600 0.000000
-14.266100 0.000000
-14.246600 0.000000
-14.227200 0.000000
-14.207700 0.000000
-14.188200 0.000000
-14.168700 0.000000
-14.149300 0.000000
-14.129800 0.000000
-14.110300 0.000000
-14.090800 0.000000
-14.071300 0.119800
-14.051900 0.241300
-14.032400 0.356700
-14.012900 0.411500
-13.993400 0.459800
-13.974000 0.521500
-13.954500 0.597000
-13.935000 0.634100
-13.915500 0.666900
-13.896000 0.704000
-13.876600 0.749500
-13.857100 0.798700
-13.837600 0.848600
-13.818100 0.883400
-13.798700 0.916600
-13.779200 0.951300
-13.759700 0.986900
-13.740200 1.024200
-13.720700 1.063700
-13.701300 1.105300
-13.681800 1.147600
-13.662300 1.185600
-13.642800 1.221700
-13.623400 1.254800
-13.603900 1.290600
-13.584400 1.328300
-13.564900 1.368600
-13.545400 1.410300
-13.526000 1.453000
-13.506500 1.496900
-13.487000 1.760400
-13.467500 1.793000
-13.448100 1.763800
-13.428600 1.758700
-13.409100 1.748400
-13.389600 1.742900
-13.370100 1.722000
-13.350700 1.717800
-13.331200 1.705300
-13.311700 1.692600
-13.292200 1.683200
-13.272700 2.123500
-13.253300 2.178700
-13.233800 2.240300
-13.214300 2.328400
-13.194800 2.418100
-13.175400 2.533200
-13.155900 2.892200
-13.136400 2.938900
-13.116900 2.825000
-13.097400 2.849300
-13.078000 2.863700
-13.058500 2.848400
-13.039000 2.869900
-13.019500 2.880100
-13.000100 2.891300
-12.980600 2.907700
-12.961100 2.904000
-12.941600 2.911400
-12.922100 2.925700
-12.902700 2.949700
-12.883200 2.984600
-12.863700 3.016900
-12.844200 3.029800
-12.824800 3.058600
-12.805300 3.090100
-12.785800 3.129900
-12.766300 3.183500
-12.746800 3.405800
-12.727400 3.498100
-12.707900 3.514100
-12.688400 3.542400
-12.668900 3.585000
-12.649500 3.758100
-12.630000 3.831200
-12.610500 3.929300
-12.591000 4.053700
-12.571500 4.171300
-12.552100 4.522500
-12.532600 4.365600
-12.513100 4.226500
-12.493600 5.143800
-12.474200 9.941100
-12.454700 2.877800
-12.435200 2.475000
-12.415700 2.179600
-12.396200 1.964800
-12.376800 1.715800
-12.357300 1.532200
-12.337800 1.449500
-12.318300 1.239200
-12.298800 1.074900
-12.279400 1.495500
-12.259900 2.446100
-12.240400 3.112100
-12.220900 4.693000
-12.201500 5.019200
-12.182000 5.073100
-12.162500 5.091400
-12.143000 5.278100
-12.123500 5.484300
-12.104100 5.653400
-12.084600 6.035000
-12.065100 6.489800
-12.045600 11.124000
-12.026200 14.105500
-12.006700 18.940400
-11.987200 21.485600
-11.967700 22.236600
-11.948200 16.963900
-11.928800 12.221800
-11.909300 9.850300
-11.889800 7.342400
-11.870300 8.402600
-11.850900 11.696500
-11.831400 0.000000
-11.811900 0.000000
-11.792400 0.000000
-11.772900 0.000000
-11.753500 0.000000
-11.734000 0.000000
-11.714500 0.000000
-11.695000 0.000000
-11.675600 0.000000
-11.656100 0.000000
-11.636600 0.000000
-11.617100 0.000000
-11.597600 0.000000
-11.578200 0.000000
-11.558700 0.000000
-11.539200 0.000000
-11.519700 0.000000
-11.500300 0.000000
-11.480800 0.000000
-11.461300 0.000000
-11.441800 0.000000
-11.422300 0.000000
-11.402900 0.000000
-11.383400 0.000000
-11.363900 0.000000
-11.344400 0.000000
-11.324900 0.000000
-11.305500 0.000000
-11.286000 0.000000
-11.266500 0.000000
-11.247000 0.000000
-11.227600 0.000000
-11.208100 0.000000
-11.188600 0.000000
-11.169100 0.000000
-11.149600 0.000000
-11.130200 0.000000
-11.110700 0.000000
-11.091200 0.000000
-11.071700 0.000000
-11.052300 0.000000
-11.032800 0.000000
-11.013300 0.000000
-10.993800 0.000000
-10.974300 0.000000
-10.954900 0.000000
-10.935400 0.000000
-10.915900 0.000000
-10.896400 0.000000
-10.877000 0.000000
-10.857500 0.000000
-10.838000 0.000000
-10.818500 0.000000
-10.799000 0.000000
-10.779600 0.000000
-10.760100 0.000000
-10.740600 0.000000
-10.721100 0.000000
-10.701700 0.000000
-10.682200 0.000000
-10.662700 0.000000
-10.643200 0.000000
-10.623700 0.000000
-10.604300 0.000000
-10.584800 0.000000
-10.565300 0.000000
-10.545800 0.000000
-10.526400 0.000000
-10.506900 0.000000
-10.487400 0.000000
-10.467900 0.000000
-10.448400 0.000000
-10.429000 0.000000
-10.409500 0.000000
-10.390000 0.000000
-10.370500 0.000000
-10.351000 0.000000
-10.331600 0.000000
-10.312100 0.000000
-10.292600 0.000000
-10.273100 0.000000
-10.253700 0.000000
-10.234200 0.000000
-10.214700 0.000000
-10.195200 0.000000
-10.175700 0.000000
-10.156300 0.000000
-10.136800 0.000000
-10.117300 0.000000
-10.097800 0.000000
-10.078400 0.000000
-10.058900 0.000000
-10.039400 0.000000
-10.019900 0.000000
-10.000400 0.000000
-9.981000 0.000000
-9.961500 0.000000
-9.942000 0.000000
-9.922500 0.000000
-9.903100 0.000000
-9.883600 0.000000
-9.864100 0.000000
-9.844600 0.000000
-9.825100 0.000000
-9.805700 0.000000
-9.786200 0.000000
-9.766700 0.000000
-9.747200 0.000000
-9.727800 0.000000
-9.708300 0.000000
-9.688800 0.000000
-9.669300 0.000000
-9.649800 0.000000
-9.630400 0.000000
-9.610900 0.000000
-9.591400 0.000000
-9.571900 0.000000
-9.552500 0.000000
-9.533000 0.000000
-9.513500 0.000000
-9.494000 0.000000
-9.474500 0.000000
-9.455100 0.000000
-9.435600 0.000000
-9.416100 0.000000
-9.396600 0.000000
-9.377100 0.000000
-9.357700 0.000000
-9.338200 0.000000
-9.318700 0.000000
-9.299200 0.000000
-9.279800 0.000000
-9.260300 0.000000
-9.240800 0.000000
-9.221300 0.000000
-9.201800 0.000000
-9.182400 0.000000
-9.162900 0.000000
-9.143400 0.000000
-9.123900 0.000000
-9.104500 0.000000
-9.085000 0.000000
-9.065500 0.000000
-9.046000 0.000000
-9.026500 0.000000
-9.007100 0.000000
-8.987600 0.000000
-8.968100 0.000000
-8.948600 0.000000
-8.929200 0.000000
-8.909700 0.000000
-8.890200 0.000000
-8.870700 0.000000
-8.851200 0.000000
-8.831800 0.000000
-8.812300 0.000000
-8.792800 0.000000
-8.773300 0.000000
-8.753900 0.000000
-8.734400 0.000000
-8.714900 0.000000
-8.695400 0.000000
-8.675900 0.000000
-8.656500 0.000000
-8.637000 0.000000
-8.617500 0.000000
-8.598000 0.000000
-8.578600 0.000000
-8.559100 0.000000
-8.539600 0.000000
-8.520100 0.000000
-8.500600 0.000000
-8.481200 0.000000
-8.461700 0.000000
-8.442200 0.000000
-8.422700 0.000000
-8.403200 0.000000
-8.383800 0.000000
-8.364300 0.000000
-8.344800 0.000000
-8.325300 0.000000
-8.305900 0.000000
-8.286400 0.000000
-8.266900 0.000000
-8.247400 0.000000
-8.227900 0.000000
-8.208500 0.000000
-8.189000 0.000000
-8.169500 0.000000
-8.150000 0.000000
-8.130600 0.000000
-8.111100 0.000000
-8.091600 0.000000
-8.072100 0.000000
-8.052600 0.000000
-8.033200 0.000000
-8.013700 0.000000
-7.994200 0.000000
-7.974700 0.000000
-7.955300 0.000000
-7.935800 0.000000
-7.916300 0.000000
-7.896800 0.000000
-7.877300 0.000000
-7.857900 0.000000
-7.838400 0.000000
-7.818900 0.000000
-7.799400 0.000000
-7.780000 0.000000
-7.760500 0.000000
-7.741000 0.000000
-7.721500 0.000000
-7.702000 0.000000
-7.682600 0.000000
-7.663100 0.000000
-7.643600 0.000000
-7.624100 0.000000
-7.604700 0.000000
-7.585200 0.000000
-7.565700 0.000000
-7.546200 0.000000
-7.526700 0.000000
-7.507300 0.000000
-7.487800 0.000000
-7.468300 0.000000
-7.448800 0.000000
-7.429300 0.000000
-7.409900 0.000000
-7.390400 0.000000
-7.370900 0.000000
-7.351400 0.000000
-7.332000 0.000000
-7.312500 0.000000
-7.293000 0.000000
-7.273500 0.000000
-7.254000 0.000000
-7.234600 0.000000
-7.215100 0.000000
-7.195600 0.000000
-7.176100 0.000000
-7.156700 0.000000
-7.137200 0.000000
-7.117700 0.000000
-7.098200 0.000000
-7.078700 0.000000
-7.059300 0.000000
-7.039800 0.000000
-7.020300 0.000000
-7.000800 0.000000
-6.981400 0.000000
-6.961900 0.000000
-6.942400 0.000000
-6.922900 0.000000
-6.903400 0.000000
-6.884000 0.000000
-6.864500 0.000000
-6.845000 0.000000
-6.825500 0.000000
-6.806100 0.000000
-6.786600 0.288200
-6.767100 0.443800
-6.747600 0.364900
-6.728100 0.432100
-6.708700 0.490800
-6.689200 0.559000
-6.669700 0.568300
-6.650200 0.564900
-6.630800 0.559600
-6.611300 0.576700
-6.591800 0.599100
-6.572300 0.616300
-6.552800 0.639500
-6.533400 0.667100
-6.513900 0.697400
-6.494400 0.731200
-6.474900 0.769900
-6.455400 0.784200
-6.436000 0.801500
-6.416500 0.812800
-6.397000 0.821700
-6.377500 0.845000
-6.358100 0.866400
-6.338600 0.894700
-6.319100 0.927200
-6.299600 0.962000
-6.280100 0.995900
-6.260700 1.030600
-6.241200 1.071900
-6.221700 1.117700
-6.202200 1.174800
-6.182800 1.368700
-6.163300 1.657200
-6.143800 1.859200
-6.124300 2.145400
-6.104800 2.762000
-6.085400 2.928000
-6.065900 2.987400
-6.046400 3.150700
-6.026900 3.058500
-6.007500 2.740700
-5.988000 2.566800
-5.968500 2.499800
-5.949000 2.437900
-5.929500 2.382500
-5.910100 2.339700
-5.890600 2.296500
-5.871100 2.270800
-5.851600 2.266000
-5.832200 2.245800
-5.812700 2.227900
-5.793200 2.329400
-5.773700 2.101200
-5.754200 2.148600
-5.734800 2.259200
-5.715300 2.365300
-5.695800 2.528500
-5.676300 3.094200
-5.656800 2.026000
-5.637400 1.972900
-5.617900 1.918000
-5.598400 1.873600
-5.578900 1.842000
-5.559500 1.811600
-5.540000 1.781900
-5.520500 1.752100
-5.501000 1.721200
-5.481500 1.687900
-5.462100 1.665500
-5.442600 1.640600
-5.423100 1.617900
-5.403600 1.594500
-5.384200 1.570500
-5.364700 1.554600
-5.345200 1.544300
-5.325700 1.526500
-5.306200 1.508100
-5.286800 1.485500
-5.267300 1.488500
-5.247800 1.481300
-5.228300 1.467500
-5.208900 1.521300
-5.189400 1.544200
-5.169900 1.433900
-5.150400 1.363700
-5.130900 1.281800
-5.111500 1.253200
-5.092000 1.225700
-5.072500 1.194400
-5.053000 1.169600
-5.033600 1.145300
-5.014100 1.119200
-4.994600 1.102400
-4.975100 1.085900
-4.955600 1.071500
-4.936200 1.063600
-4.916700 1.058200
-4.897200 1.062700
-4.877700 1.046000
-4.858300 1.030200
-4.838800 1.015500
-4.819300 1.013300
-4.799800 1.011000
-4.780300 1.012900
-4.760900 1.094900
-4.741400 1.084300
-4.721900 1.081500
-4.702400 1.070600
-4.682900 1.155600
-4.663500 1.211400
-4.644000 1.231000
-4.624500 1.206900
-4.605000 1.176700
-4.585600 1.151000
-4.566100 1.209000
-4.546600 1.316400
-4.527100 0.860900
-4.507600 0.838800
-4.488200 0.817400
-4.468700 0.796500
-4.449200 0.775900
-4.429700 0.755900
-4.410300 0.736700
-4.390800 0.718400
-4.371300 0.701400
-4.351800 0.686000
-4.332300 0.672800
-4.312900 0.659900
-4.293400 0.646300
-4.273900 0.632900
-4.254400 0.619900
-4.235000 0.606900
-4.215500 0.588800
-4.196000 0.578800
-4.176500 0.568700
-4.157000 0.558400
-4.137600 0.547500
-4.118100 0.536100
-4.098600 0.524700
-4.079100 0.513000
-4.059700 0.502200
-4.040200 0.491300
-4.020700 0.480800
-4.001200 0.470600
-3.981700 0.460900
-3.962300 0.451400
-3.942800 0.440900
-3.923300 0.433600
-3.903800 0.426500
-3.884400 0.419400
-3.864900 0.412500
-3.845400 0.405600
-3.825900 0.398700
-3.806400 0.391900
-3.787000 0.384700
-3.767500 0.377400
-3.748000 0.370000
-3.728500 0.362600
-3.709000 0.352600
-3.689600 0.346400
-3.670100 0.340200
-3.650600 0.334000
-3.631100 0.327900
-3.611700 0.321800
-3.592200 0.315700
-3.572700 0.309700
-3.553200 0.303400
-3.533700 0.297100
-3.514300 0.291200
-3.494800 0.285400
-3.475300 0.279500
-3.455800 0.273700
-3.436400 0.267900
-3.416900 0.262300
-3.397400 0.256900
-3.377900 0.251700
-3.358400 0.246500
-3.339000 0.241300
-3.319500 0.236600
-3.300000 0.232000
-3.280500 0.227500
-3.261100 0.223000
-3.241600 0.218600
-3.222100 0.214200
-3.202600 0.208500
-3.183100 0.204400
-3.163700 0.200800
-3.144200 0.197100
-3.124700 0.193200
-3.105200 0.189300
-3.085800 0.185300
-3.066300 0.181300
-3.046800 0.177300
-3.027300 0.172200
-3.007800 0.169300
-2.988400 0.165700
-2.968900 0.162000
-2.949400 0.158300
-2.929900 0.154700
-2.910500 0.151000
-2.891000 0.147300
-2.871500 0.143500
-2.852000 0.139400
-2.832500 0.135500
-2.813100 0.131700
-2.793600 0.128000
-2.774100 0.124500
-2.754600 0.121300
-2.735100 0.118200
-2.715700 0.115100
-2.696200 0.112100
-2.676700 0.109100
-2.657200 0.106300
-2.637800 0.103500
-2.618300 0.100800
-2.598800 0.098200
-2.579300 0.095900
-2.559800 0.093500
-2.540400 0.091100
-2.520900 0.088700
-2.501400 0.086300
-2.481900 0.082300
-2.462500 0.080000
-2.443000 0.077800
-2.423500 0.075500
-2.404000 0.073200
-2.384500 0.070900
-2.365100 0.068500
-2.345600 0.066100
-2.326100 0.063800
-2.306600 0.060800
-2.287200 0.057800
-2.267700 0.054900
-2.248200 0.052000
-2.228700 0.049300
-2.209200 0.046600
-2.189800 0.044000
-2.170300 0.041400
-2.150800 0.039000
-2.131300 0.040000
-2.111900 0.037200
-2.092400 0.034500
-2.072900 0.031800
-2.053400 0.029200
-2.033900 0.026800
-2.014500 0.024400
-1.995000 0.022100
-1.975500 0.019800
-1.956000 0.017700
-1.936600 0.015700
-1.917100 0.000000
-1.897600 0.000000
-1.878100 0.000000
-1.858600 0.000000
-1.839200 0.000000
-1.819700 0.000000
-1.800200 0.000000
-1.780700 0.000000
-1.761200 0.000000
-1.741800 0.000000
-1.722300 0.000000
-1.702800 0.000000
-1.683300 0.000000
-1.663900 0.000000
-1.644400 0.000000
-1.624900 0.000000
-1.605400 0.000000
-1.585900 0.000000
-1.566500 0.000000
-1.547000 0.277100
-1.527500 0.459900
-1.508000 0.704900
-1.488600 0.970000
-1.469100 1.112100
-1.449600 1.216800
-1.430100 1.450700
-1.410600 1.735600
-1.391200 1.776500
-1.371700 1.840000
-1.352200 1.883400
-1.332700 1.881400
-1.313300 1.847000
-1.293800 1.820900
-1.274300 1.792600
-1.254800 1.782500
-1.235300 1.783000
-1.215900 1.789200
-1.196400 1.786400
-1.176900 1.793500
-1.157400 1.807100
-1.138000 1.824900
-1.118500 1.837800
-1.099000 1.844600
-1.079500 1.854100
-1.060000 1.847000
-1.040600 1.842100
-1.021100 1.853400
-1.001600 1.861800
-0.982100 1.871000
-0.962700 1.884100
-0.943200 1.901100
-0.923700 1.920400
-0.904200 1.944100
-0.884700 1.968300
-0.865300 2.002000
-0.845800 2.050700
-0.826300 2.099400
-0.806800 2.145600
-0.787300 2.190400
-0.767900 2.252100
-0.748400 2.319100
-0.728900 2.391200
-0.709400 2.685400
-0.690000 2.742600
-0.670500 3.058200
-0.651000 2.807200
-0.631500 2.684500
-0.612000 2.610400
-0.592600 2.551500
-0.573100 2.488100
-0.553600 2.398400
-0.534100 2.569100
-0.514700 2.525900
-0.495200 2.510100
-0.475700 2.537900
-0.456200 2.581100
-0.436700 2.634000
-0.417300 2.696900
-0.397800 2.740900
-0.378300 2.904700
-0.358800 3.006500
-0.339400 3.107200
-0.319900 3.165800
-0.300400 3.262200
-0.280900 3.352000
-0.261400 3.443700
-0.242000 3.600500
-0.222500 3.833200
-0.203000 4.297500
-0.183500 4.894400
-0.164100 4.688400
-0.144600 4.678500
-0.125100 4.962700
-0.105600 4.822500
-0.086100 5.004100
-0.066700 5.265000
-0.047200 4.999000
-0.027700 5.036400
-0.008200 5.109200
0.011200 5.087700
0.030700 4.928800
0.050200 4.879400
0.069700 5.538500
0.089200 5.452300
0.108600 4.694800
0.128100 4.078400
0.147600 3.929700
0.167100 3.786100
0.186600 3.722100
0.206000 3.644500
0.225500 3.594600
0.245000 3.671500
0.264500 3.532800
0.283900 3.469100
0.303400 3.324400
0.322900 3.237400
0.342400 3.209400
0.361900 3.197300
0.381300 3.179100
0.400800 3.175100
0.420300 3.183200
0.439800 3.256800
0.459200 3.264900
0.478700 3.236200
0.498200 3.254500
0.517700 3.007700
0.537200 2.847700
0.556600 2.717700
0.576100 2.597200
0.595600 2.456000
0.615100 2.315800
0.634500 2.315600
0.654000 2.351400
0.673500 2.577800
0.693000 3.535600
0.712500 2.623400
0.731900 2.522600
0.751400 2.489700
0.770900 2.483000
0.790400 2.539000
0.809800 2.617300
0.829300 2.711000
0.848800 2.763900
0.868300 2.803700
0.887800 2.855800
0.907200 3.045400
0.926700 3.108100
0.946200 2.968000
0.965700 2.803000
0.985100 2.596500
1.004600 2.653400
1.024100 2.804300
1.043600 2.886000
1.063100 2.955600
1.082500 2.957900
1.102000 2.931900
1.121500 2.954800
1.141000 2.766000
1.160500 2.756900
1.179900 2.742600
1.199400 2.719200
1.218900 2.718900
1.238400 2.709000
1.257800 2.724700
1.277300 2.749600
1.296800 2.770400
1.316300 2.771400
1.335800 2.783400
1.355200 2.772300
1.374700 2.747900
1.394200 2.735800
1.413700 2.740000
1.433100 2.745100
1.452600 2.752900
1.472100 2.757600
1.491600 2.785100
1.511100 2.845800
1.530500 2.912300
1.550000 3.118000
1.569500 3.091800
1.589000 2.979300
1.608400 3.039200
1.627900 3.097100
1.647400 3.107000
1.666900 3.096200
1.686400 3.087500
1.705800 2.891700
1.725300 2.736700
1.744800 2.534600
1.764300 2.402100
1.783700 2.303400
1.803200 2.210500
1.822700 2.249200
1.842200 2.529800
1.861700 2.912000
1.881100 3.004500
1.900600 2.823100
1.920100 2.828400
1.939600 2.695400
1.959000 2.751800
1.978500 2.804900
1.998000 2.858900
2.017500 2.979000
2.037000 3.477000
2.056400 3.572700
2.075900 3.634400
2.095400 3.601300
2.114900 3.611900
2.134400 3.628800
2.153800 3.656800
2.173300 3.639400
2.192800 3.741100
2.212300 2.985900
2.231700 3.679200
2.251200 2.333800
2.270700 2.402100
2.290200 2.478400
2.309700 2.566200
2.329100 2.668200
2.348600 2.930600
2.368100 2.996700
2.387600 3.077500
2.407000 3.224600
2.426500 3.251900
2.446000 3.155600
2.465500 3.219600
2.485000 3.420900
2.504400 3.719200
2.523900 4.509500
2.543400 4.507100
2.562900 3.285000
2.582300 3.001600
2.601800 2.817000
2.621300 2.701300
2.640800 2.706200
2.660300 2.708400
2.679700 2.873400
2.699200 2.771100
2.718700 4.373300
2.738200 3.648300
2.757600 3.678000
2.777100 4.030800
2.796600 4.186500
2.816100 4.374500
2.835600 4.813000
2.855000 7.035600
2.874500 5.984100
2.894000 9.398100
2.913500 5.300500
2.932900 4.532400
2.952400 4.270400
2.971900 4.020000
2.991400 3.913500
3.010900 3.910200
3.030300 3.981200
3.049800 4.094500
3.069300 5.380500
3.088800 5.487700
3.108300 4.058900
3.127700 3.718200
3.147200 3.655300
3.166700 3.610100
3.186200 4.687200
3.205600 4.824800
3.225100 5.130100
3.244600 5.893500
3.264100 6.138100
3.283600 5.937400
3.303000 6.589200
3.322500 7.011200
3.342000 5.937600
3.361500 4.846700
3.380900 4.124800
3.400400 3.923800
3.419900 3.859700
3.439400 3.885500
3.458900 3.797600
3.478300 3.863300
3.497800 3.953300
3.517300 4.083500
3.536800 4.193000
3.556200 4.382300
3.575700 5.323700
3.595200 4.472500
3.614700 4.831000
3.634200 7.062100
3.653600 8.547700
3.673100 9.677800
3.692600 12.510400
3.712100 13.885800
3.731500 14.582200
3.751000 13.095900
3.770500 13.449900
3.790000 11.771700
3.809500 9.868500
3.828900 9.411000
3.848400 7.813600
3.867900 6.264400
3.887400 5.363000
3.906800 4.611700
3.926300 3.910800
3.945800 3.250700
3.965300 2.672500
3.984800 2.179900
4.004200 1.714500
4.023700 1.435800
4.043200 1.210700
4.062700 1.145200
4.082200 1.217900
4.101600 1.520800
4.121100 2.080500
4.140600 3.279100
4.160100 3.608900
4.179500 3.189200
4.199000 2.803400
4.218500 2.465100
4.238000 2.237700
4.257500 2.189000
4.276900 2.068900
4.296400 1.941700
4.315900 1.863800
4.335400 1.803600
4.354800 1.706000
4.374300 1.639200
4.393800 1.563900
4.413300 1.500800
4.432800 1.462500
4.452200 1.312700
4.471700 1.330400
4.491200 1.323200
4.510700 1.386000
4.530100 1.361100
4.549600 1.658600
4.569100 2.017900
4.588600 2.739500
4.608100 2.336300
4.627500 2.465900
4.647000 2.611200
4.666500 2.838300
4.686000 2.854400
4.705400 2.951000
4.724900 3.095100
4.744400 3.267600
4.763900 2.782300
4.783400 2.572000
4.802800 2.769400
4.822300 2.507500
4.841800 2.494500
4.861300 2.444600
4.880700 2.379800
4.900200 2.343500
4.919700 2.311900
4.939200 2.285700
4.958700 2.263400
4.978100 2.206500
4.997600 2.164600
5.017100 2.142300
5.036600 2.122100
5.056100 2.092300
5.075500 2.066600
5.095000 2.045100
5.114500 2.030400
5.134000 2.016900
5.153400 2.006100
5.172900 1.977300
5.192400 1.948300
5.211900 1.931100
5.231400 1.920200
5.250800 1.911300
5.270300 1.895500
5.289800 1.876700
5.309300 1.866300
5.328700 1.845200
5.348200 1.821200
5.367700 1.792000
5.387200 1.764400
5.406700 1.746800
5.426100 1.738600
5.445600 1.721700
5.465100 1.697700
5.484600 1.929100
5.504000 2.020800
5.523500 1.616000
5.543000 1.518700
5.562500 1.441800
5.582000 1.395400
5.601400 1.354300
5.620900 1.315300
5.640400 1.303200
5.659900 1.281000
5.679300 1.259000
5.698800 1.234500
5.718300 1.217500
5.737800 1.202500
5.757300 1.193100
5.776700 1.339000
5.796200 1.296500
5.815700 1.342200
5.835200 1.425900
5.854600 1.608400
5.874100 1.788500
5.893600 1.767300
5.913100 1.589300
5.932600 1.337200
5.952000 1.257900
5.971500 1.175400
5.991000 1.097700
6.010500 1.028300
6.030000 0.983100
6.049400 0.987400
6.068900 0.904300
6.088400 0.859900
6.107900 0.824900
6.127300 0.768100
6.146800 0.714400
6.166300 0.664000
6.185800 0.627400
6.205300 0.620800
6.224700 0.601800
6.244200 0.553400
6.263700 0.491600
6.283200 0.433100
6.302600 0.383400
6.322100 0.370000
6.341600 0.291400
6.361100 0.198000
6.380600 0.143900
6.400000 0.000000
6.419500 0.000000
6.439000 0.000000
6.458500 0.032700
6.477900 0.068200
6.497400 0.080700
6.516900 0.093900
6.536400 0.107900
6.555900 0.122700
6.575300 0.138200
6.594800 0.145800
6.614300 0.158800
6.633800 0.166500
6.653200 0.178400
6.672700 0.190600
6.692200 0.203500
6.711700 0.218000
6.731200 0.233000
6.750600 0.248400
6.770100 0.259600
6.789600 0.273300
6.809100 0.287000
6.828500 0.298500
6.848000 0.311600
6.867500 0.323500
6.887000 0.338700
6.906500 0.352800
6.925900 0.367000
6.945400 0.381400
6.964900 0.396100
6.984400 0.412200
7.003900 0.427800
7.023300 0.443500
7.042800 0.459500
7.062300 0.477300
7.081800 0.499400
7.101200 0.520200
7.120700 0.545000
7.140200 0.566800
7.159700 0.588800
7.179200 0.612600
7.198600 0.637200
7.218100 0.722600
7.237600 0.765000
7.257100 0.807700
7.276500 0.852500
7.296000 0.897800
7.315500 0.962900
7.335000 1.035900
7.354500 1.111100
7.373900 1.240600
7.393400 1.324100
7.412900 1.411200
7.432400 1.499100
7.451800 1.690300
7.471300 1.834400
7.490800 1.868500
7.510300 1.905800
7.529800 1.970700
7.549200 2.011200
7.568700 2.057500
7.588200 2.098700
7.607700 2.141700
7.627100 2.197800
7.646600 2.229300
7.666100 2.272900
7.685600 2.283200
7.705100 2.345900
7.724500 2.405700
7.744000 2.305300
7.763500 2.190500
7.783000 2.175200
7.802400 2.161200
7.821900 2.142600
7.841400 2.129300
7.860900 2.144600
7.880400 2.177200
7.899800 2.182400
7.919300 2.191300
7.938800 2.226900
7.958300 2.287000
7.977800 2.383200
7.997200 2.467700
8.016700 2.526800
8.036200 2.545700
8.055700 2.566800
8.075100 2.589800
8.094600 2.547000
8.114100 2.439000
8.133600 2.320100
8.153100 2.209200
8.172500 2.126800
8.192000 2.054700
8.211500 1.989100
8.231000 1.945200
8.250400 1.908300
8.269900 1.873700
8.289400 1.841000
8.308900 1.812400
8.328400 1.785200
8.347800 1.760100
8.367300 1.736500
8.386800 1.706400
8.406300 1.665000
8.425700 1.622700
8.445200 1.598700
8.464700 1.578100
8.484200 1.639700
8.503700 1.648500
8.523100 1.658400
8.542600 1.667000
8.562100 1.672900
8.581600 1.679100
8.601000 1.703300
8.620500 1.568500
8.640000 1.532500
8.659500 1.517900
8.679000 1.509800
8.698400 1.505900
8.717900 1.519200
8.737400 1.603300
8.756900 1.589900
8.776300 1.578400
8.795800 1.599600
8.815300 1.633600
8.834800 1.659000
8.854300 1.673000
8.873700 1.675100
8.893200 1.699100
8.912700 1.730600
8.932200 1.775600
8.951700 1.817200
8.971100 1.905700
8.990600 2.117800
9.010100 2.409900
9.029600 2.851100
9.049000 3.138300
9.068500 3.279400
9.088000 3.145300
9.107500 3.025100
9.127000 2.854100
9.146400 2.650100
9.165900 2.519200
9.185400 2.444900
9.204900 2.420200
9.224300 2.388000
9.243800 2.349200
9.263300 2.331400
9.282800 2.290800
9.302300 2.254900
9.321700 2.229300
9.341200 2.216200
9.360700 2.216400
9.380200 2.217900
9.399600 2.229500
9.419100 2.215800
9.438600 2.215900
9.458100 2.253400
9.477600 2.260800
9.497000 2.264500
9.516500 2.280000
9.536000 2.353300
9.555500 2.369000
9.574900 2.336600
9.594400 2.305800
9.613900 2.309700
9.633400 2.297700
9.652900 2.290900
9.672300 2.273300
9.691800 2.257000
9.711300 2.246300
9.730800 2.251000
9.750200 2.250500
9.769700 2.284200
9.789200 2.206300
9.808700 2.213500
9.828200 2.249200
9.847600 2.278500
9.867100 2.299200
9.886600 2.321700
9.906100 2.355200
9.925600 2.400500
9.945000 2.471100
9.964500 2.591900
9.984000 2.806800
10.003500 2.897000
10.022900 2.927700
10.042400 2.972500
10.061900 3.020400
10.081400 3.056100
10.100900 3.110800
10.120300 3.265800
10.139800 3.367300
10.159300 3.459200
10.178800 3.586400
10.198200 3.712000
10.217700 3.806700
10.237200 4.253000
10.256700 4.308300
10.276200 4.097400
10.295600 4.237900
10.315100 3.605900
10.334600 3.517800
10.354100 3.506600
10.373500 3.395700
10.393000 3.595300
10.412500 3.467800
10.432000 3.421200
10.451500 3.445500
10.470900 3.452100
10.490400 3.431700
10.509900 3.425700
10.529400 2.982000
10.548800 3.051300
10.568300 3.494700
10.587800 3.269800
10.607300 3.215800
10.626800 3.265700
10.646200 2.815700
10.665700 3.056700
10.685200 3.217300
10.704700 3.239300
10.724100 3.401400
10.743600 3.508900
10.763100 3.788700
10.782600 3.776000
10.802100 3.786100
10.821500 3.865900
10.841000 3.914500
10.860500 4.137200
10.880000 4.240600
10.899500 4.187900
10.918900 4.187400
10.938400 4.185600
10.957900 4.196500
10.977400 3.855900
10.996800 3.384800
11.016300 2.990000
11.035800 2.777600
11.055300 2.486200
11.074800 2.375300
11.094200 2.120000
11.113700 2.081300
11.133200 2.043700
11.152700 2.021200
11.172100 1.999200
11.191600 1.977800
11.211100 1.963600
11.230600 1.951200
11.250100 1.941100
11.269500 1.926600
11.289000 1.915300
11.308500 1.908500
11.328000 1.900200
11.347400 1.894800
11.366900 1.893700
11.386400 1.891500
11.405900 1.889600
11.425400 1.890000
11.444800 1.893600
11.464300 1.902600
11.483800 1.919900
11.503300 1.934500
11.522700 1.951200
11.542200 1.968900
11.561700 1.985400
11.581200 2.010600
11.600700 2.044300
11.620100 2.079800
11.639600 2.120600
11.659100 2.176400
11.678600 2.252800
11.698000 2.329600
11.717500 2.425200
11.737000 2.550700
11.756500 2.725700
11.776000 3.085500
11.795400 3.209700
11.814900 2.883700
11.834400 2.672700
11.853900 2.597800
11.873400 2.606500
11.892800 2.546900
11.912300 2.448500
11.931800 2.441700
11.951300 2.382200
11.970700 2.382900
11.990200 2.363500
12.009700 2.260800
12.029200 2.291000
12.048700 2.513400
12.068100 2.200200
12.087600 1.481400
12.107100 0.520400
12.126600 0.000000
12.146000 0.000000
12.165500 0.000000
12.185000 0.000000
12.204500 0.000000
12.224000 0.000000
12.243400 0.000000
12.262900 0.000000
12.282400 0.000000
12.301900 0.000000
12.321300 0.000000
12.340800 0.000000
12.360300 0.000000
12.379800 0.000000
12.399300 0.000000
12.418700 0.000000
12.438200 0.000000
12.457700 0.000000
12.477200 0.000000
12.496600 0.000000
12.516100 0.000000
12.535600 0.000000
12.555100 0.000000
12.574600 0.000000
12.594000 0.000000
12.613500 0.000000
12.633000 0.000000
12.652500 0.000000
12.671900 0.000000
12.691400 0.000000
12.710900 0.000000
12.730400 0.000000
12.749900 0.000000
12.769300 0.030600
12.788800 0.037700
12.808300 0.045300
12.827800 0.053400
12.847300 0.062000
12.866700 0.071200
12.886200 0.080900
12.905700 0.086300
12.925200 0.095800
12.944600 0.099000
12.964100 0.104700
12.983600 0.110200
13.003100 0.115400
13.022600 0.120500
13.042000 0.125300
13.061500 0.130000
13.081000 0.135100
13.100500 0.141100
13.119900 0.147400
13.139400 0.154400
13.158900 0.160300
13.178400 0.166800
13.197900 0.173600
13.217300 0.180500
13.236800 0.187600
13.256300 0.194800
13.275800 0.199200
13.295200 0.204700
13.314700 0.210700
13.334200 0.217100
13.353700 0.223500
13.373200 0.230000
13.392600 0.236500
13.412100 0.244400
13.431600 0.251900
13.451100 0.259600
13.470500 0.267000
13.490000 0.274500
13.509500 0.282100
13.529000 0.289500
13.548500 0.296900
13.567900 0.304400
13.587400 0.313900
13.606900 0.322900
13.626400 0.331900
13.645800 0.341100
13.665300 0.351200
13.684800 0.361800
13.704300 0.372800
13.723800 0.384000
13.743200 0.395500
13.762700 0.407200
13.782200 0.418800
13.801700 0.430500
13.821200 0.442100
13.840600 0.454900
13.860100 0.468200
13.879600 0.482000
13.899100 0.496200
13.918500 0.510500
13.938000 0.528800
13.957500 0.545900
13.977000 0.563400
13.996500 0.581300
14.015900 0.599700
14.035400 0.618000
14.054900 0.642500
14.074400 0.905800
14.093800 1.143800
14.113300 1.252300
14.132800 1.355600
14.152300 1.510700
14.171800 1.652400
14.191200 1.770400
14.210700 1.863000
14.230200 1.964300
14.249700 2.090500
14.269100 2.225900
14.288600 2.367300
14.308100 2.508500
14.327600 2.845600
14.347100 3.054400
14.366500 3.155000
14.386000 3.391500
14.405500 3.616900
14.425000 3.882900
14.444400 4.218200
14.463900 4.167100
14.483400 4.410900
14.502900 4.899100
14.522400 5.869700
14.541800 9.136400
14.561300 8.840900
14.580800 8.837100
14.600300 8.080600
14.619700 7.168500
14.639200 7.368000
14.658700 6.379700
14.678200 5.599100
14.697700 5.193100
14.717100 5.056500
14.736600 4.877100
14.756100 4.682300
14.775600 4.309700
14.795100 4.002500
14.814500 3.518800
14.834000 3.292400
14.853500 3.024100
14.873000 2.695600
14.892400 2.233400
14.911900 1.893200
14.931400 1.602900
14.950900 1.463700
14.970400 1.362800
14.989800 1.274600
15.009300 2.705700
15.028800 3.401700
15.048300 4.409700
15.067700 5.793300
15.087200 6.918200
15.106700 7.070300
15.126200 7.302600
15.145700 6.882300
15.165100 6.860600
15.184600 6.939700
15.204100 6.889500
15.223600 8.218300
15.243000 6.602500
15.262500 6.943100
15.282000 8.026100
15.301500 8.359500
15.321000 6.454800
15.340400 4.014200
15.359900 3.635800
15.379400 3.310800
15.398900 3.144200
15.418300 3.007800
15.437800 2.892500
15.457300 2.789900
15.476800 2.734200
15.496300 2.728800
15.515700 2.663600
15.535200 2.682500
15.554700 2.633400
15.574200 2.574700
15.593700 2.497500
15.613100 2.439400
15.632600 2.373600
15.652100 2.376000
15.671600 2.625700
15.691000 2.478400
15.710500 2.365000
15.730000 2.268500
15.749500 2.202200
15.769000 1.990600
15.788400 2.010700
15.807900 2.054300
15.827400 2.096100
15.846900 2.852900
15.866300 2.429600
15.885800 2.239200
15.905300 2.205700
15.924800 2.191800
15.944300 2.166700
15.963700 2.156900
15.983200 2.097100
16.002700 1.902500
16.022200 1.826400
16.041600 1.802400
16.061100 1.768100
16.080600 1.739000
16.100100 1.712100
16.119600 1.687200
16.139000 1.704400
16.158500 1.818800
16.178000 1.535800
16.197500 1.552100
16.216900 1.582500
16.236400 1.471600
16.255900 1.470700
16.275400 1.463700
16.294900 1.441700
16.314300 1.429500
16.333800 1.423700
16.353300 1.418700
16.372800 1.413800
16.392200 1.426800
16.411700 1.414400
16.431200 1.408500
16.450700 1.419700
16.470200 1.442100
16.489600 1.474300
16.509100 1.512000
16.528600 1.577500
16.548100 1.631500
16.567600 1.679800
16.587000 1.702000
16.606500 1.725400
16.626000 1.778200
16.645500 1.825400
16.664900 2.080200
16.684400 2.010300
16.703900 2.031400
16.723400 2.036800
16.742900 2.052300
16.762300 2.114100
16.781800 2.110800
16.801300 2.063600
16.820800 1.980700
16.840200 1.974900
16.859700 1.955100
16.879200 1.954300
16.898700 1.929500
16.918200 1.916000
16.937600 2.038900
16.957100 1.971900
16.976600 1.983700
16.996100 1.988400
17.015500 1.856500
17.035000 1.863000
17.054500 1.868100
17.074000 1.881500
17.093500 1.906400
17.112900 1.939000
17.132400 2.020800
17.151900 2.070600
17.171400 2.115400
17.190800 2.128400
17.210300 2.129700
17.229800 2.177100
17.249300 2.181200
17.268800 2.267400
17.288200 2.297500
17.307700 2.327600
17.327200 2.354500
17.346700 2.387000
17.366100 2.618100
17.385600 2.502800
17.405100 2.495200
17.424600 2.397800
17.444100 2.402700
17.463500 2.411600
17.483000 2.424600
17.502500 2.439200
17.522000 2.455300
17.541500 2.481300
17.560900 2.536500
17.580400 2.567400
17.599900 2.591000
17.619400 2.613000
17.638800 2.647300
17.658300 2.662800
17.677800 2.676900
17.697300 2.690100
17.716800 2.701300
17.736200 2.693200
17.755700 2.710500
17.775200 2.829000
17.794700 2.889400
17.814100 2.887600
17.833600 2.824600
17.853100 2.766800
17.872600 2.691200
17.892100 2.655100
17.911500 2.595800
17.931000 2.585700
17.950500 2.592000
17.970000 2.575900
17.989400 2.557400
18.008900 2.535300
18.028400 2.603500
18.047900 2.454800
18.067400 2.278900
18.086800 2.195200
18.106300 2.127800
18.125800 2.156400
18.145300 2.088200
18.164700 2.017400
18.184200 1.899200
18.203700 1.885600
18.223200 1.902100
18.242700 1.960800
18.262100 1.641800
18.281600 1.668400
18.301100 1.698100
18.320600 1.730100
18.340000 1.867400
18.359500 1.889400
18.379000 1.989800
18.398500 2.134100
18.418000 2.064900
18.437400 2.087400
18.456900 2.076100
18.476400 2.124800
18.495900 2.159500
18.515400 2.220100
18.534800 2.246300
18.554300 2.361400
18.573800 2.510300
18.593300 2.626600
18.612700 2.865700
18.632200 3.030500
18.651700 2.999700
18.671200 2.395900
18.690700 2.418700
18.710100 2.437700
18.729600 2.385000
18.749100 2.126400
18.768600 2.157500
18.788000 2.134800
18.807500 2.139500
18.827000 2.215200
18.846500 3.173700
18.866000 2.191100
18.885400 2.029900
18.904900 1.900500
18.924400 2.209700
18.943900 1.476800
18.963300 1.372700
18.982800 1.362700
19.002300 1.354600
19.021800 1.347200
19.041300 1.339600
19.060700 1.329300
19.080200 1.335000
19.099700 1.329100
19.119200 1.329700
19.138600 1.327700
19.158100 1.320300
19.177600 1.311100
19.197100 1.301800
19.216600 1.296400
19.236000 1.289700
19.255500 1.280800
19.275000 1.272400
19.294500 1.264200
19.313900 1.256700
19.333400 1.250600
19.352900 1.244100
19.372400 1.239300
19.391900 1.235000
19.411300 1.229400
19.430800 1.222900
19.450300 1.214200
19.469800 1.204500
19.489300 1.193400
19.508700 1.178200
19.528200 1.166800
19.547700 1.157000
19.567200 1.147700
19.586600 1.139000
19.606100 1.137500
19.625600 1.138900
19.645100 1.136200
19.664600 1.135300
19.684000 1.130300
19.703500 1.124100
19.723000 1.116000
19.742500 1.106900
19.761900 1.095100
19.781400 1.083000
19.800900 1.072000
19.820400 1.062500
19.839900 1.059600
19.859300 1.064400
19.878800 1.056000
19.898300 1.047500
19.917800 1.125800
19.937200 1.098900
19.956700 1.014500
19.976200 1.001400
19.995700 1.117100
20.015200 1.108600
20.034600 1.100000
20.054100 0.946200
20.073600 0.940400
20.093100 0.935500
20.112500 0.934000
20.132000 0.932100
20.151500 0.931200
20.171000 0.945600
20.190500 0.935600
20.209900 0.903100
20.229400 0.896700
20.248900 0.889000
20.268400 0.884100
20.287800 0.878300
20.307300 0.873300
20.326800 0.891900
20.346300 0.877700
20.365800 0.868000
20.385200 0.860400
20.404700 0.854900
20.424200 0.850800
20.443700 0.847900
20.463200 0.854800
20.482600 0.897400
20.502100 0.897100
20.521600 0.878000
20.541100 0.868500
20.560500 0.858000
20.580000 0.846800
20.599500 0.834900
20.619000 0.814200
20.638500 0.778700
20.657900 0.742400
20.677400 0.717400
20.696900 0.612100
20.716400 0.521400
20.735800 0.483200
20.755300 0.436600
20.774800 0.406600
20.794300 0.378000
20.813800 0.350800
20.833200 0.323000
20.852700 0.298400
20.872200 0.279700
20.891700 0.262400
20.911100 0.258800
20.930600 0.244000
20.950100 0.230000
20.969600 0.209700
20.989100 0.206500
21.008500 0.205900
21.028000 0.199500
21.047500 0.192800
21.067000 0.177600
21.086400 0.148800
21.105900 0.128700
21.125400 0.116900
21.144900 0.107900
21.164400 0.099200
21.183800 0.090800
21.203300 0.082600
21.222800 0.083300
21.242300 0.073400
21.261700 0.069500
21.281200 0.057900
21.300700 0.047400
21.320200 0.037800
21.339700 0.029300
21.359100 0.000000
21.378600 0.000000
21.398100 0.000000
21.417600 0.000000
21.437100 0.000000
21.456500 0.000000
21.476000 0.000000
21.495500 0.000000
21.515000 0.000000
21.534400 0.000000
21.553900 0.000000
21.573400 0.000000
21.592900 0.000000
21.612400 0.000000
21.631800 0.000000
21.651300 0.000000
21.670800 0.000000
21.690300 0.000000
21.709700 0.000000
21.729200 0.000000
21.748700 0.000000
21.768200 0.000000
21.787700 0.000000
21.807100 0.000000
21.826600 0.000000
21.846100 0.000000
21.865600 0.000000
21.885000 0.000000
21.904500 0.000000
21.924000 0.000000
21.943500 0.000000
21.963000 0.000000
21.982400 0.000000
22.001900 0.000000
22.021400 0.000000
22.040900 0.000000
22.060300 0.000000
22.079800 0.000000
22.099300 0.000000
22.118800 0.000000
22.138300 0.000000
22.157700 0.000000
22.177200 0.000000
22.196700 0.000000
22.216200 0.000000
22.235600 0.000000
22.255100 0.000000
22.274600 0.000000
22.294100 0.000000
22.313600 0.000000
22.333000 0.000000
22.352500 0.000000
22.372000 0.000000
22.391500 0.000000
22.411000 0.000000
22.430400 0.000000
22.449900 0.000000
22.469400 0.000000
22.488900 0.000000
22.508300 0.000000
22.527800 0.000000
22.547300 0.000000
22.566800 0.000000
22.586300 0.000000
22.605700 0.000000
22.625200 0.000000
22.644700 0.000000
22.664200 0.000000
22.683600 0.000000
22.703100 0.000000
22.722600 0.000000
22.742100 0.000000
22.761600 0.000000
22.781000 0.000000
22.800500 0.000000
22.820000 0.000000
22.839500 0.000000
22.858900 0.000000
22.878400 0.000000
22.897900 0.000000
22.917400 0.000000
22.936900 0.000000
22.956300 0.000000
22.975800 0.000000
22.995300 0.000000
23.014800 0.000000
23.034200 0.000000
23.053700 0.000000
23.073200 0.000000
23.092700 0.000000
23.112200 0.000000
e
