set title 'mp-974332 - Density of States'
set xlabel 'Energy (eV)'
set ylabel 'DOS (states/eV)'
set grid
set xrange [-10:10]
set yrange [0:7.376]
set xzeroaxis lt -1
set terminal png size 800,600
set output 'mp-974332_dos_gnuplot.png'
plot '-' using 1:2 with lines title 'DOS'
-17.503200 0.000000
-17.479900 0.000000
-17.456600 0.000000
-17.433300 0.000000
-17.410000 0.000000
-17.386700 0.000000
-17.363400 0.000000
-17.340100 0.000000
-17.316800 0.000000
-17.293600 0.000000
-17.270300 0.000000
-17.247000 0.000000
-17.223700 0.000000
-17.200400 0.000000
-17.177100 0.000000
-17.153800 0.000000
-17.130500 0.000000
-17.107200 0.000000
-17.083900 0.000000
-17.060600 0.000000
-17.037300 0.000000
-17.014000 0.000000
-16.990700 0.000000
-16.967500 0.000000
-16.944200 0.000000
-16.920900 0.000000
-16.897600 0.000000
-16.874300 0.000000
-16.851000 0.000000
-16.827700 0.000000
-16.804400 0.000000
-16.781100 0.000000
-16.757800 0.000000
-16.734500 0.000000
-16.711200 0.000000
-16.687900 0.000000
-16.664700 0.000000
-16.641400 0.000000
-16.618100 0.000000
-16.594800 0.000000
-16.571500 0.000000
-16.548200 0.000000
-16.524900 0.000000
-16.501600 0.000000
-16.478300 0.000000
-16.455000 0.000000
-16.431700 0.000000
-16.408400 0.000000
-16.385100 0.000000
-16.361800 0.000000
-16.338600 0.000000
-16.315300 0.000000
-16.292000 0.000000
-16.268700 0.000000
-16.245400 0.000000
-16.222100 0.000000
-16.198800 0.000000
-16.175500 0.000000
-16.152200 0.000000
-16.128900 0.000000
-16.105600 0.000000
-16.082300 0.000000
-16.059000 0.000000
-16.035800 0.000000
-16.012500 0.000000
-15.989200 0.000000
-15.965900 0.000000
-15.942600 0.000000
-15.919300 0.000000
-15.896000 0.000000
-15.872700 0.000000
-15.849400 0.000000
-15.826100 0.000000
-15.802800 0.000000
-15.779500 0.000000
-15.756200 0.000000
-15.732900 0.000000
-15.709700 0.000000
-15.686400 0.000000
-15.663100 0.000000
-15.639800 0.000000
-15.616500 0.000000
-15.593200 0.000000
-15.569900 0.000000
-15.546600 0.000000
-15.523300 0.000000
-15.500000 0.000500
-15.476700 0.003700
-15.453400 0.019300
-15.430100 0.065900
-15.406900 0.150600
-15.383600 0.245300
-15.360300 0.342400
-15.337000 0.518800
-15.313700 0.788600
-15.290400 0.968400
-15.267100 0.955600
-15.243800 0.930300
-15.220500 0.972300
-15.197200 0.874800
-15.173900 0.565500
-15.150600 0.261000
-15.127300 0.156200
-15.104000 0.298500
-15.080800 0.630600
-15.057500 0.970900
-15.034200 1.204000
-15.010900 1.480900
-14.987600 1.811700
-14.964300 1.787900
-14.941000 1.238100
-14.917700 0.573600
-14.894400 0.175700
-14.871100 0.038000
-14.847800 0.024600
-14.824500 0.097100
-14.801200 0.310900
-14.778000 0.672800
-14.754700 1.025100
-14.731400 1.212300
-14.708100 1.284800
-14.684800 1.367700
-14.661500 1.562700
-14.638200 1.852700
-14.614900 1.892500
-14.591600 1.413700
-14.568300 0.718700
-14.545000 0.246300
-14.521700 0.084200
-14.498400 0.163900
-14.475100 0.528000
-14.451900 1.171800
-14.428600 1.714200
-14.405300 1.658900
-14.382000 1.105800
-14.358700 0.667400
-14.335400 0.708600
-14.312100 1.104200
-14.288800 1.589100
-14.265500 1.983100
-14.242200 2.038700
-14.218900 1.609200
-14.195600 1.071600
-14.172300 0.983500
-14.149100 1.455700
-14.125800 2.212800
-14.102500 2.904200
-14.079200 3.103000
-14.055900 2.524900
-14.032600 1.490200
-14.009300 0.655200
-13.986000 0.352700
-13.962700 0.518200
-13.939400 0.930200
-13.916100 1.378300
-13.892800 1.785200
-13.869500 2.013600
-13.846200 1.777000
-13.823000 1.148500
-13.799700 0.650500
-13.776400 0.609700
-13.753100 0.843600
-13.729800 0.986700
-13.706500 0.968300
-13.683200 0.979700
-13.659900 1.021100
-13.636600 0.958600
-13.613300 0.897500
-13.590000 0.958800
-13.566700 0.967800
-13.543400 0.778100
-13.520200 0.516700
-13.496900 0.315200
-13.473600 0.171100
-13.450300 0.071800
-13.427000 0.021000
-13.403700 0.004100
-13.380400 0.000500
-13.357100 0.000000
-13.333800 0.000000
-13.310500 0.000000
-13.287200 0.000000
-13.263900 0.000000
-13.240600 0.000100
-13.217300 0.000800
-13.194100 0.005800
-13.170800 0.027100
-13.147500 0.082900
-13.124200 0.168500
-13.100900 0.236200
-13.077600 0.272500
-13.054300 0.380000
-13.031000 0.636700
-13.007700 0.881300
-12.984400 0.882400
-12.961100 0.737000
-12.937800 0.742600
-12.914500 0.886700
-12.891300 0.862300
-12.868000 0.577300
-12.844700 0.256800
-12.821400 0.080100
-12.798100 0.047800
-12.774800 0.144000
-12.751500 0.398800
-12.728200 0.740800
-12.704900 0.945200
-12.681600 0.964800
-12.658300 1.117300
-12.635000 1.546600
-12.611700 1.801700
-12.588400 1.461700
-12.565200 0.788600
-12.541900 0.280400
-12.518600 0.065500
-12.495300 0.010100
-12.472000 0.001300
-12.448700 0.003500
-12.425400 0.023900
-12.402100 0.110400
-12.378800 0.335800
-12.355500 0.672000
-12.332200 0.891400
-12.308900 0.816100
-12.285600 0.634000
-12.262400 0.660100
-12.239100 0.870800
-12.215800 1.001800
-12.192500 1.072800
-12.169200 1.364600
-12.145900 1.755500
-12.122600 1.713600
-12.099300 1.136800
-12.076000 0.499400
-12.052700 0.144400
-12.029400 0.027500
-12.006100 0.004400
-11.982800 0.010000
-11.959500 0.063700
-11.936300 0.274400
-11.913000 0.777000
-11.889700 1.447100
-11.866400 1.773200
-11.843100 1.429600
-11.819800 0.758300
-11.796500 0.264500
-11.773200 0.060600
-11.749900 0.009100
-11.726600 0.000900
-11.703300 0.000400
-11.680000 0.003800
-11.656700 0.026000
-11.633500 0.117900
-11.610200 0.353000
-11.586900 0.707300
-11.563600 1.001800
-11.540300 1.188900
-11.517000 1.519900
-11.493700 2.041900
-11.470400 2.321000
-11.447100 2.037700
-11.423800 1.372600
-11.400500 0.701500
-11.377200 0.263500
-11.353900 0.081700
-11.330600 0.092300
-11.307400 0.326900
-11.284100 0.869400
-11.260800 1.526800
-11.237500 1.764500
-11.214200 1.341700
-11.190900 0.671800
-11.167600 0.226400
-11.144300 0.078700
-11.121000 0.119100
-11.097700 0.270200
-11.074400 0.441900
-11.051100 0.547700
-11.027800 0.646500
-11.004600 0.824000
-10.981300 0.936300
-10.958000 0.832300
-10.934700 0.743200
-10.911400 1.030000
-10.888100 1.572200
-10.864800 1.773400
-10.841500 1.372900
-10.818200 0.876500
-10.794900 0.954800
-10.771600 1.759800
-10.748300 2.802400
-10.725000 3.533100
-10.701700 3.981300
-10.678500 4.148600
-10.655200 3.524400
-10.631900 2.156900
-10.608600 0.920200
-10.585300 0.401700
-10.562000 0.642000
-10.538700 1.559000
-10.515400 2.772900
-10.492100 3.464100
-10.468800 3.213500
-10.445500 2.594300
-10.422200 2.221400
-10.398900 1.900700
-10.375700 1.355900
-10.352400 0.935900
-10.329100 1.083300
-10.305800 1.647800
-10.282500 2.069500
-10.259200 2.158700
-10.235900 2.154600
-10.212600 2.002300
-10.189300 1.517000
-10.166000 1.041700
-10.142700 1.070000
-10.119400 1.557300
-10.096100 2.021900
-10.072800 2.110800
-10.049600 1.937700
-10.026300 2.090600
-10.003000 3.247800
-9.979700 5.117000
-9.956400 6.080200
-9.933100 5.068200
-9.909800 3.053800
-9.886500 1.561200
-9.863200 0.922100
-9.839900 0.727000
-9.816600 0.819400
-9.793300 1.277800
-9.770000 1.950400
-9.746800 2.400900
-9.723500 2.361100
-9.700200 2.176200
-9.676900 2.385400
-9.653600 2.821200
-9.630300 2.904400
-9.607000 2.644100
-9.583700 2.339500
-9.560400 1.864100
-9.537100 1.147500
-9.513800 0.562700
-9.490500 0.420600
-9.467200 0.640600
-9.443900 0.870900
-9.420700 0.804900
-9.397400 0.490900
-9.374100 0.196900
-9.350800 0.051900
-9.327500 0.009000
-9.304200 0.001000
-9.280900 0.000100
-9.257600 0.000400
-9.234300 0.004800
-9.211000 0.036900
-9.187700 0.186000
-9.164400 0.625500
-9.141100 1.419300
-9.117900 2.213900
-9.094600 2.451800
-9.071300 2.065800
-9.048000 1.547200
-9.024700 1.231500
-9.001400 0.973700
-8.978100 0.613300
-8.954800 0.271600
-8.931500 0.090600
-8.908200 0.084500
-8.884900 0.293400
-8.861600 0.811800
-8.838300 1.505100
-8.815000 1.937700
-8.791800 2.008300
-8.768500 2.206400
-8.745200 2.637400
-8.721900 2.623300
-8.698600 1.846300
-8.675300 0.877600
-8.652000 0.278800
-8.628700 0.059000
-8.605400 0.008400
-8.582100 0.001300
-8.558800 0.005600
-8.535500 0.035500
-8.512200 0.148800
-8.489000 0.409900
-8.465700 0.742700
-8.442400 0.885400
-8.419100 0.694600
-8.395800 0.358400
-8.372500 0.121600
-8.349200 0.027200
-8.325900 0.004600
-8.302600 0.006600
-8.279300 0.040800
-8.256000 0.179100
-8.232700 0.533700
-8.209400 1.094200
-8.186100 1.563300
-8.162900 1.568800
-8.139600 1.105900
-8.116300 0.543300
-8.093000 0.183700
-8.069700 0.042200
-8.046400 0.006500
-8.023100 0.000700
-7.999800 0.000100
-7.976500 0.000100
-7.953200 0.001200
-7.929900 0.008400
-7.906600 0.039100
-7.883300 0.133000
-7.860100 0.358600
-7.836800 0.799500
-7.813500 1.414200
-7.790200 1.835200
-7.766900 1.664300
-7.743600 1.097000
-7.720300 0.729900
-7.697000 0.775600
-7.673700 0.900300
-7.650400 0.764100
-7.627100 0.433100
-7.603800 0.161800
-7.580500 0.039700
-7.557200 0.006400
-7.534000 0.000700
-7.510700 0.000000
-7.487400 0.000000
-7.464100 0.000000
-7.440800 0.000000
-7.417500 0.000000
-7.394200 0.000000
-7.370900 0.000000
-7.347600 0.000000
-7.324300 0.000000
-7.301000 0.000000
-7.277700 0.000000
-7.254400 0.000000
-7.231200 0.000000
-7.207900 0.000400
-7.184600 0.004600
-7.161300 0.030300
-7.138000 0.132100
-7.114700 0.379000
-7.091400 0.714600
-7.068100 0.886600
-7.044800 0.723700
-7.021500 0.388700
-6.998200 0.137300
-6.974900 0.031900
-6.951600 0.005000
-6.928300 0.001900
-6.905100 0.011900
-6.881800 0.064400
-6.858500 0.230000
-6.835200 0.540200
-6.811900 0.834400
-6.788600 0.848000
-6.765300 0.567000
-6.742000 0.249400
-6.718700 0.072100
-6.695400 0.013700
-6.672100 0.001700
-6.648800 0.000100
-6.625500 0.000000
-6.602300 0.000000
-6.579000 0.000100
-6.555700 0.000600
-6.532400 0.004500
-6.509100 0.022200
-6.485800 0.072100
-6.462500 0.154300
-6.439200 0.217100
-6.415900 0.201000
-6.392600 0.122400
-6.369300 0.049100
-6.346000 0.012900
-6.322700 0.002200
-6.299400 0.000300
-6.276200 0.000000
-6.252900 0.000000
-6.229600 0.000000
-6.206300 0.000000
-6.183000 0.000000
-6.159700 0.000000
-6.136400 0.000000
-6.113100 0.000000
-6.089800 0.000000
-6.066500 0.000000
-6.043200 0.000000
-6.019900 0.000000
-5.996600 0.000000
-5.973400 0.000000
-5.950100 0.000000
-5.926800 0.000000
-5.903500 0.000000
-5.880200 0.000000
-5.856900 0.000000
-5.833600 0.000000
-5.810300 0.000100
-5.787000 0.001100
-5.763700 0.008600
-5.740400 0.042800
-5.717100 0.140800
-5.693800 0.304300
-5.670500 0.432700
-5.647300 0.404800
-5.624000 0.250100
-5.600700 0.109300
-5.577400 0.076300
-5.554100 0.194700
-5.530800 0.481500
-5.507500 0.807300
-5.484200 0.928400
-5.460900 0.837400
-5.437600 0.809100
-5.414300 0.918100
-5.391000 0.925700
-5.367700 0.779600
-5.344500 0.737700
-5.321200 0.868800
-5.297900 0.891200
-5.274600 0.642000
-5.251300 0.308000
-5.228000 0.097300
-5.204700 0.020200
-5.181400 0.002900
-5.158100 0.002200
-5.134800 0.018000
-5.111500 0.107300
-5.088200 0.426800
-5.064900 1.137600
-5.041600 2.049200
-5.018400 2.517300
-4.995100 2.127000
-4.971800 1.243500
-4.948500 0.503600
-4.925200 0.140700
-4.901900 0.026900
-4.878600 0.003500
-4.855300 0.000300
-4.832000 0.000100
-4.808700 0.000900
-4.785400 0.008900
-4.762100 0.056100
-4.738800 0.236900
-4.715600 0.673200
-4.692300 1.294700
-4.669000 1.691300
-4.645700 1.503100
-4.622400 0.909700
-4.599100 0.384100
-4.575800 0.159100
-4.552500 0.189600
-4.529200 0.343600
-4.505900 0.468300
-4.482600 0.523400
-4.459300 0.734000
-4.436000 1.349500
-4.412700 2.181800
-4.389500 2.699300
-4.366200 2.652400
-4.342900 2.250200
-4.319600 1.811500
-4.296300 1.522400
-4.273000 1.419000
-4.249700 1.539300
-4.226400 1.821900
-4.203100 1.860200
-4.179800 1.377400
-4.156500 0.715100
-4.133200 0.377500
-4.109900 0.563400
-4.086700 1.161300
-4.063400 1.705900
-4.040100 1.657700
-4.016800 1.061200
-3.993500 0.456400
-3.970200 0.193700
-3.946900 0.336500
-3.923600 0.938600
-3.900300 1.871600
-3.877000 2.524700
-3.853700 2.309800
-3.830400 1.438600
-3.807100 0.610900
-3.783800 0.177200
-3.760600 0.040100
-3.737300 0.045600
-3.714000 0.207000
-3.690700 0.703800
-3.667400 1.658000
-3.644100 2.795300
-3.620800 3.563100
-3.597500 3.739400
-3.574200 3.553400
-3.550900 3.134100
-3.527600 2.379600
-3.504300 1.429100
-3.481000 0.720500
-3.457800 0.592000
-3.434500 1.069800
-3.411200 1.828900
-3.387900 2.395100
-3.364600 2.601400
-3.341300 2.564100
-3.318000 2.415700
-3.294700 2.329000
-3.271400 2.256500
-3.248100 1.926600
-3.224800 1.405300
-3.201500 1.072500
-3.178200 1.137000
-3.154900 1.452700
-3.131700 1.689600
-3.108400 1.679100
-3.085100 1.510000
-3.061800 1.259800
-3.038500 0.912600
-3.015200 0.624900
-2.991900 0.739900
-2.968600 1.413200
-2.945300 2.261200
-2.922000 2.534800
-2.898700 1.956200
-2.875400 1.107300
-2.852100 0.700700
-2.828900 0.894800
-2.805600 1.419000
-2.782300 1.968500
-2.759000 2.287100
-2.735700 2.132100
-2.712400 1.569500
-2.689100 1.007700
-2.665800 0.720900
-2.642500 0.700000
-2.619200 0.901400
-2.595900 1.427400
-2.572600 2.413600
-2.549300 3.551800
-2.526000 4.017200
-2.502800 3.474500
-2.479500 2.688200
-2.456200 2.439700
-2.432900 2.465700
-2.409600 2.159000
-2.386300 1.660300
-2.363000 1.565100
-2.339700 2.126700
-2.316400 3.158500
-2.293100 4.333900
-2.269800 5.489400
-2.246500 6.474300
-2.223200 6.705900
-2.200000 5.685000
-2.176700 3.893400
-2.153400 2.312300
-2.130100 1.422100
-2.106800 1.101900
-2.083500 1.013000
-2.060200 1.000900
-2.036900 1.188000
-2.013600 1.581000
-1.990300 1.869100
-1.967000 1.839900
-1.943700 1.665300
-1.920400 1.557800
-1.897100 1.539600
-1.873900 1.623100
-1.850600 1.790100
-1.827300 1.795600
-1.804000 1.417500
-1.780700 0.872200
-1.757400 0.632900
-1.734100 0.967100
-1.710800 1.793500
-1.687500 2.837000
-1.664200 3.813200
-1.640900 4.303100
-1.617600 3.859900
-1.594300 2.718500
-1.571100 1.763600
-1.547800 1.598400
-1.524500 2.110500
-1.501200 2.727400
-1.477900 2.990900
-1.454600 3.041900
-1.431300 3.204700
-1.408000 3.325500
-1.384700 3.149100
-1.361400 2.841400
-1.338100 2.775900
-1.314800 3.306800
-1.291500 4.449900
-1.268200 5.485600
-1.245000 5.675600
-1.221700 5.260800
-1.198400 4.848400
-1.175100 4.520000
-1.151800 4.200900
-1.128500 4.074400
-1.105200 4.219500
-1.081900 4.236700
-1.058600 3.640100
-1.035300 2.619600
-1.012000 1.962800
-0.988700 2.122600
-0.965400 2.697900
-0.942200 2.908400
-0.918900 2.455800
-0.895600 1.797400
-0.872300 1.563700
-0.849000 2.007000
-0.825700 3.041400
-0.802400 4.303200
-0.779100 5.121900
-0.755800 4.950400
-0.732500 3.947900
-0.709200 2.783200
-0.685900 1.912700
-0.662600 1.485700
-0.639300 1.606400
-0.616100 2.126900
-0.592800 2.509900
-0.569500 2.373600
-0.546200 1.957800
-0.522900 1.787800
-0.499600 2.087200
-0.476300 2.656100
-0.453000 3.142900
-0.429700 3.207500
-0.406400 2.644400
-0.383100 1.697900
-0.359800 0.936500
-0.336500 0.651500
-0.313300 0.766100
-0.290000 1.216200
-0.266700 2.039300
-0.243400 3.139500
-0.220100 4.085900
-0.196800 4.272000
-0.173500 3.506100
-0.150200 2.315400
-0.126900 1.465400
-0.103600 1.410100
-0.080300 2.086100
-0.057000 2.839800
-0.033700 2.920500
-0.010400 2.282800
0.012800 1.436800
0.036100 0.752400
0.059400 0.335800
0.082700 0.194100
0.106000 0.284300
0.129300 0.557700
0.152600 1.066600
0.175900 1.988300
0.199200 3.294900
0.222500 4.380100
0.245800 4.433300
0.269100 3.351200
0.292400 1.923200
0.315600 1.033100
0.338900 1.024000
0.362200 1.727500
0.385500 2.659700
0.408800 3.192900
0.432100 2.926400
0.455400 2.052100
0.478700 1.137700
0.502000 0.609900
0.525300 0.636500
0.548600 1.200900
0.571900 2.001200
0.595200 2.517900
0.618500 2.494800
0.641700 2.244500
0.665000 2.345600
0.688300 3.130200
0.711600 4.357900
0.734900 5.351100
0.758200 5.775600
0.781500 6.013600
0.804800 6.370500
0.828100 6.489600
0.851400 5.936300
0.874700 5.047300
0.898000 4.674800
0.921300 4.928200
0.944500 5.028400
0.967800 4.619900
0.991100 4.055700
1.014400 3.581800
1.037700 3.175100
1.061000 2.735600
1.084300 2.180500
1.107600 1.660300
1.130900 1.498400
1.154200 1.773600
1.177500 2.287500
1.200800 2.907100
1.224100 3.605200
1.247400 4.294400
1.270600 4.807900
1.293900 4.995900
1.317200 4.835200
1.340500 4.551400
1.363800 4.525600
1.387100 4.938900
1.410400 5.710700
1.433700 6.455100
1.457000 6.306400
1.480300 4.781400
1.503600 2.665800
1.526900 1.128100
1.550200 0.601700
1.573400 0.896300
1.596700 1.553800
1.620000 2.015000
1.643300 2.108400
1.666600 2.112800
1.689900 2.019000
1.713200 1.565400
1.736500 0.980800
1.759800 0.811400
1.783100 1.272800
1.806400 2.150500
1.829700 2.937400
1.853000 3.038800
1.876300 2.379400
1.899500 1.668000
1.922800 1.562400
1.946100 1.996300
1.969400 2.593800
1.992700 3.239500
2.016000 4.021400
2.039300 4.787500
2.062600 4.988000
2.085900 4.254300
2.109200 2.986100
2.132500 1.917100
2.155800 1.418200
2.179100 1.495400
2.202300 1.849500
2.225600 1.963500
2.248900 1.694400
2.272200 1.351800
2.295500 1.048600
2.318800 0.682500
2.342100 0.339100
2.365400 0.206200
2.388700 0.375600
2.412000 0.822300
2.435300 1.337700
2.458600 1.594000
2.481900 1.494900
2.505200 1.420100
2.528400 1.917100
2.551700 2.977100
2.575000 3.852600
2.598300 3.928100
2.621600 3.484100
2.644900 3.249900
2.668200 3.423800
2.691500 3.467800
2.714800 3.063800
2.738100 2.773500
2.761400 2.973100
2.784700 2.976300
2.808000 2.215100
2.831200 1.230100
2.854500 0.767700
2.877800 0.848000
2.901100 1.032800
2.924400 1.097200
2.947700 1.170200
2.971000 1.363900
2.994300 1.667600
3.017600 1.974400
3.040900 1.993800
3.064200 1.647800
3.087500 1.288600
3.110800 1.080100
3.134100 0.818700
3.157300 0.458000
3.180600 0.178300
3.203900 0.073300
3.227200 0.137400
3.250500 0.420200
3.273800 0.989600
3.297100 1.680600
3.320400 2.053900
3.343700 1.907400
3.367000 1.532900
3.390300 1.179000
3.413600 0.858100
3.436900 0.700600
3.460100 0.845500
3.483400 1.138100
3.506700 1.340800
3.530000 1.431100
3.553300 1.539000
3.576600 1.769400
3.599900 1.957000
3.623200 1.731400
3.646500 1.140600
3.669800 0.744700
3.693100 0.946500
3.716400 1.550000
3.739700 1.959100
3.763000 1.867700
3.786200 1.516200
3.809500 1.130500
3.832800 0.745900
3.856100 0.518700
3.879400 0.604600
3.902700 0.852700
3.926000 0.956400
3.949300 0.895600
3.972600 0.899800
3.995900 0.956100
4.019200 0.837300
4.042500 0.613700
4.065800 0.697700
4.089000 1.366900
4.112300 2.296500
4.135600 2.709500
4.158900 2.378100
4.182200 1.980800
4.205500 1.942600
4.228800 1.821000
4.252100 1.271500
4.275400 0.655100
4.298700 0.458300
4.322000 0.815700
4.345300 1.453400
4.368600 1.773600
4.391900 1.428300
4.415100 0.756900
4.438400 0.263800
4.461700 0.060700
4.485000 0.013000
4.508300 0.030200
4.531600 0.147000
4.554900 0.491400
4.578200 1.099100
4.601500 1.647100
4.624800 1.662600
4.648100 1.179900
4.671400 0.811900
4.694700 1.117600
4.717900 2.100900
4.741200 3.120600
4.764500 3.433200
4.787800 3.088300
4.811100 2.811900
4.834400 2.818700
4.857700 2.538100
4.881000 1.705500
4.904300 0.799300
4.927600 0.289500
4.950900 0.244300
4.974200 0.616600
4.997500 1.273200
5.020800 1.748600
5.044000 1.580900
5.067300 0.941200
5.090600 0.376300
5.113900 0.148100
5.137200 0.239000
5.160500 0.617400
5.183800 1.136000
5.207100 1.451600
5.230400 1.439600
5.253700 1.424900
5.277000 1.737900
5.300300 2.374500
5.323600 2.948400
5.346800 2.921300
5.370100 2.354000
5.393400 1.886900
5.416700 1.740900
5.440000 1.595200
5.463300 1.341100
5.486600 1.301500
5.509900 1.647800
5.533200 2.024800
5.556500 2.190300
5.579800 2.453800
5.603100 2.807400
5.626400 2.610200
5.649700 1.758200
5.672900 0.993400
5.696200 0.816200
5.719500 0.990000
5.742800 1.070900
5.766100 0.925700
5.789400 0.676200
5.812700 0.503200
5.836000 0.669700
5.859300 1.372700
5.882600 2.290700
5.905900 2.610800
5.929200 1.986300
5.952500 1.008900
5.975700 0.361700
5.999000 0.200400
6.022300 0.472000
6.045600 1.163600
6.068900 2.092300
6.092200 2.902600
6.115500 3.332000
6.138800 3.146700
6.162100 2.290700
6.185400 1.295500
6.208700 0.857100
6.232000 1.136500
6.255300 1.695700
6.278600 1.885300
6.301800 1.458100
6.325100 0.785100
6.348400 0.307700
6.371700 0.108800
6.395000 0.071100
6.418300 0.095500
6.441600 0.142000
6.464900 0.241200
6.488200 0.481600
6.511500 0.912600
6.534800 1.453300
6.558100 1.980500
6.581400 2.506200
6.604600 3.033100
6.627900 3.214100
6.651200 2.669300
6.674500 1.711300
6.697800 1.077000
6.721100 1.051000
6.744400 1.399500
6.767700 1.791700
6.791000 1.930300
6.814300 1.637600
6.837600 1.059100
6.860900 0.562300
6.884200 0.349900
6.907500 0.369300
6.930700 0.559700
6.954000 0.998800
6.977300 1.813100
7.000600 2.841100
7.023900 3.392900
7.047200 2.950400
7.070500 2.012600
7.093800 1.409900
7.117100 1.221000
7.140400 1.066000
7.163700 0.867200
7.187000 0.812200
7.210300 0.985400
7.233500 1.252700
7.256800 1.310400
7.280100 0.996900
7.303400 0.541500
7.326700 0.257600
7.350000 0.212700
7.373300 0.330400
7.396600 0.564700
7.419900 0.908300
7.443200 1.337400
7.466500 1.725400
7.489800 1.830400
7.513100 1.550700
7.536300 1.098900
7.559600 0.749300
7.582900 0.618100
7.606200 0.690500
7.629500 0.822900
7.652800 0.812500
7.676100 0.619500
7.699400 0.418600
7.722700 0.415200
7.746000 0.655500
7.769300 0.942600
7.792600 0.999900
7.815900 0.811300
7.839200 0.639200
7.862400 0.666100
7.885700 0.787500
7.909000 0.822400
7.932300 0.793300
7.955600 0.814400
7.978900 0.854600
8.002200 0.854500
8.025500 0.974300
8.048800 1.452500
8.072100 2.136600
8.095400 2.461100
8.118700 2.168100
8.142000 1.704000
8.165200 1.589100
8.188500 1.842500
8.211800 2.190700
8.235100 2.393300
8.258400 2.334900
8.281700 2.080300
8.305000 1.838100
8.328300 1.752300
8.351600 1.796100
8.374900 1.916300
8.398200 2.056000
8.421500 2.084600
8.444800 1.959700
8.468100 1.881700
8.491300 2.154300
8.514600 2.781400
8.537900 3.244200
8.561200 3.091400
8.584500 2.622100
8.607800 2.382800
8.631100 2.374000
8.654400 2.328900
8.677700 2.215100
8.701000 2.126300
8.724300 2.110500
8.747600 2.150600
8.770900 2.200100
8.794100 2.316700
8.817400 2.578400
8.840700 2.843600
8.864000 2.892500
8.887300 2.735800
8.910600 2.511400
8.933900 2.229600
8.957200 1.903700
8.980500 1.773800
9.003800 2.054600
9.027100 2.522700
9.050400 2.729100
9.073700 2.635500
9.097000 2.648700
9.120200 3.016500
9.143500 3.544900
9.166800 3.845800
9.190100 3.648500
9.213400 3.008600
9.236700 2.303800
9.260000 1.903100
9.283300 1.835000
9.306600 1.861700
9.329900 1.802700
9.353200 1.659600
9.376500 1.512100
9.399800 1.533700
9.423000 2.034500
9.446300 3.036700
9.469600 3.902500
9.492900 3.999100
9.516200 3.518900
9.539500 3.123700
9.562800 3.119700
9.586100 3.267200
9.609400 3.239400
9.632700 3.052000
9.656000 2.946500
9.679300 3.107900
9.702600 3.593700
9.725900 4.200400
9.749100 4.441000
9.772400 4.090500
9.795700 3.505800
9.819000 3.122300
9.842300 3.083800
9.865600 3.304800
9.888900 3.470100
9.912200 3.229300
9.935500 2.628700
9.958800 2.080600
9.982100 1.789400
10.005400 1.587200
10.028700 1.388200
10.051900 1.367200
10.075200 1.734100
10.098500 2.529200
10.121800 3.411100
10.145100 3.758700
10.168400 3.365600
10.191700 2.722700
10.215000 2.314500
10.238300 2.123900
10.261600 1.965100
10.284900 1.891900
10.308200 2.064400
10.331500 2.359100
10.354800 2.458600
10.378000 2.282500
10.401300 2.007100
10.424600 1.810500
10.447900 1.861800
10.471200 2.302300
10.494500 3.060200
10.517800 3.851400
10.541100 4.319300
10.564400 4.265400
10.587700 3.935900
10.611000 3.769900
10.634300 3.811700
10.657600 3.765500
10.680800 3.454800
10.704100 2.966600
10.727400 2.530100
10.750700 2.296500
10.774000 2.299600
10.797300 2.631800
10.820600 3.259800
10.843900 3.805600
10.867200 4.028300
10.890500 4.082200
10.913800 3.960300
10.937100 3.402100
10.960400 2.504700
10.983700 1.800800
11.006900 1.690200
11.030200 2.096100
11.053500 2.594100
11.076800 2.749500
11.100100 2.491900
11.123400 2.184800
11.146700 2.191000
11.170000 2.503700
11.193300 2.874400
11.216600 3.080000
11.239900 3.049500
11.263200 2.931000
11.286500 3.012100
11.309700 3.387900
11.333000 3.771300
11.356300 3.810000
11.379600 3.485100
11.402900 3.068200
11.426200 2.796600
11.449500 2.654700
11.472800 2.448200
11.496100 2.093700
11.519400 1.730900
11.542700 1.497000
11.566000 1.386600
11.589300 1.327600
11.612600 1.258600
11.635800 1.240600
11.659100 1.378900
11.682400 1.583100
11.705700 1.664600
11.729000 1.606000
11.752300 1.511000
11.775600 1.479400
11.798900 1.686800
11.822200 2.258200
11.845500 2.930400
11.868800 3.181900
11.892100 2.846100
11.915400 2.344000
11.938600 2.127600
11.961900 2.210300
11.985200 2.388700
12.008500 2.524700
12.031800 2.615900
12.055100 2.873400
12.078400 3.409600
12.101700 3.855100
12.125000 3.844700
12.148300 3.553100
12.171600 3.255400
12.194900 2.837900
12.218200 2.173200
12.241500 1.564200
12.264700 1.402700
12.288000 1.653900
12.311300 1.989300
12.334600 2.261700
12.357900 2.542100
12.381200 2.782000
12.404500 2.788300
12.427800 2.445100
12.451100 1.837100
12.474400 1.293900
12.497700 1.152600
12.521000 1.415500
12.544300 1.807300
12.567500 2.124900
12.590800 2.438400
12.614100 2.912900
12.637400 3.502800
12.660700 3.958400
12.684000 4.020600
12.707300 3.596500
12.730600 2.935800
12.753900 2.427000
12.777200 2.189600
12.800500 2.110400
12.823800 2.068900
12.847100 1.975600
12.870400 1.812200
12.893600 1.705800
12.916900 1.785800
12.940200 1.992000
12.963500 2.169200
12.986800 2.242200
13.010100 2.273700
13.033400 2.358700
13.056700 2.426700
13.080000 2.384500
13.103300 2.421300
13.126600 2.843400
13.149900 3.623200
13.173200 4.336100
13.196400 4.570100
13.219700 4.205100
13.243000 3.446600
13.266300 2.829900
13.289600 2.813700
13.312900 3.310800
13.336200 3.883800
13.359500 4.175900
13.382800 4.138600
13.406100 4.007800
13.429400 4.047800
13.452700 4.383700
13.476000 4.919400
13.499300 5.233000
13.522500 4.841500
13.545800 3.828900
13.569100 2.873000
13.592400 2.399800
13.615700 2.224500
13.639000 2.171500
13.662300 2.402000
13.685600 3.036600
13.708900 3.830300
13.732200 4.325300
13.755500 4.271100
13.778800 3.743300
13.802100 3.017500
13.825300 2.534500
13.848600 2.596700
13.871900 2.923100
13.895200 2.950000
13.918500 2.597200
13.941800 2.231700
13.965100 2.011700
13.988400 1.813900
14.011700 1.598700
14.035000 1.479300
14.058300 1.617600
14.081600 2.095600
14.104900 2.829300
14.128200 3.670300
14.151400 4.411100
14.174700 4.727900
14.198000 4.498700
14.221300 4.163500
14.244600 4.322300
14.267900 4.957800
14.291200 5.528200
14.314500 5.667300
14.337800 5.349800
14.361100 4.825300
14.384400 4.529000
14.407700 4.621400
14.431000 4.853600
14.454200 4.992800
14.477500 5.004300
14.500800 4.836000
14.524100 4.386300
14.547400 3.733100
14.570700 3.160300
14.594000 2.905900
14.617300 2.985700
14.640600 3.193200
14.663900 3.355300
14.687200 3.640400
14.710500 4.252600
14.733800 4.880900
14.757100 4.982400
14.780300 4.469600
14.803600 3.709900
14.826900 3.154200
14.850200 3.056500
14.873500 3.268300
14.896800 3.483900
14.920100 3.666300
14.943400 3.973200
14.966700 4.374600
14.990000 4.553700
15.013300 4.260500
15.036600 3.693800
15.059900 3.331200
15.083100 3.371300
15.106400 3.592200
15.129700 3.682800
15.153000 3.511600
15.176300 3.215600
15.199600 3.115000
15.222900 3.461800
15.246200 4.220700
15.269500 5.068500
15.292800 5.598600
15.316100 5.603600
15.339400 5.270200
15.362700 4.954500
15.386000 4.845800
15.409200 4.995100
15.432500 5.233600
15.455800 5.092600
15.479100 4.386000
15.502400 3.606000
15.525700 3.269200
15.549000 3.287400
15.572300 3.293700
15.595600 3.240600
15.618900 3.379700
15.642200 3.791800
15.665500 4.213100
15.688800 4.378700
15.712000 4.397200
15.735300 4.610100
15.758600 5.108700
15.781900 5.592000
15.805200 5.708800
15.828500 5.428500
15.851800 5.075600
15.875100 4.934400
15.898400 4.870400
15.921700 4.568800
15.945000 4.029100
15.968300 3.574100
15.991600 3.509600
16.014900 3.978600
16.038100 4.864300
16.061400 5.629800
16.084700 5.695700
16.108000 5.067600
16.131300 4.188300
16.154600 3.420500
16.177900 2.956200
16.201200 2.825900
16.224500 2.920900
16.247800 3.166800
16.271100 3.550800
16.294400 4.037000
16.317700 4.471500
16.340900 4.568300
16.364200 4.214900
16.387500 3.689600
16.410800 3.257400
16.434100 2.827100
16.457400 2.331700
16.480700 1.955800
16.504000 1.743400
16.527300 1.531300
16.550600 1.357800
16.573900 1.464700
16.597200 1.914800
16.620500 2.529600
16.643800 3.119200
16.667000 3.590900
16.690300 3.874500
16.713600 3.960400
16.736900 4.117800
16.760200 4.577500
16.783500 4.927100
16.806800 4.614800
16.830100 3.854500
16.853400 3.291300
16.876700 3.179800
16.900000 3.334400
16.923300 3.526900
16.946600 3.723300
16.969800 4.021600
16.993100 4.438600
17.016400 4.825800
17.039700 4.973900
17.063000 4.753400
17.086300 4.228400
17.109600 3.723800
17.132900 3.589200
17.156200 3.798900
17.179500 4.041700
17.202800 4.076200
17.226100 3.794800
17.249400 3.248900
17.272700 2.674900
17.295900 2.317900
17.319200 2.356700
17.342500 2.890300
17.365800 3.720800
17.389100 4.346700
17.412400 4.341000
17.435700 3.658100
17.459000 2.738800
17.482300 2.284400
17.505600 2.640200
17.528900 3.507300
17.552200 4.235200
17.575500 4.279500
17.598700 3.671600
17.622000 2.966100
17.645300 2.527700
17.668600 2.266800
17.691900 2.059600
17.715200 1.940000
17.738500 1.921000
17.761800 1.921900
17.785100 1.897600
17.808400 1.901200
17.831700 2.047500
17.855000 2.467000
17.878300 3.046700
17.901600 3.369500
17.924800 3.293200
17.948100 3.201200
17.971400 3.478000
17.994700 4.134500
18.018000 4.931900
18.041300 5.592000
18.064600 5.932800
18.087900 6.008300
18.111200 6.048600
18.134500 6.140900
18.157800 6.099600
18.181100 5.740800
18.204400 5.216900
18.227600 4.987500
18.250900 5.331200
18.274200 5.855000
18.297500 5.937700
18.320800 5.767900
18.344100 6.038900
18.367400 6.555200
18.390700 6.384800
18.414000 5.406800
18.437300 4.482400
18.460600 4.185900
18.483900 4.300200
18.507200 4.405300
18.530500 4.363000
18.553700 4.270100
18.577000 4.300000
18.600300 4.592800
18.623600 5.096500
18.646900 5.589700
18.670200 5.882500
18.693500 5.879700
18.716800 5.750800
18.740100 5.914800
18.763400 6.328600
18.786700 6.355200
18.810000 5.702700
18.833300 4.763400
18.856500 3.988700
18.879800 3.520400
18.903100 3.347900
18.926400 3.367500
18.949700 3.390300
18.973000 3.398800
18.996300 3.496900
19.019600 3.580300
19.042900 3.593700
19.066200 3.829900
19.089500 4.360700
19.112800 4.697400
19.136100 4.536200
19.159400 4.269000
19.182600 4.333300
19.205900 4.531200
19.229200 4.418000
19.252500 3.968600
19.275800 3.489600
19.299100 3.191900
19.322400 3.095900
19.345700 3.189800
19.369000 3.478700
19.392300 3.867700
19.415600 4.107600
19.438900 3.971400
19.462200 3.529100
19.485400 3.136800
19.508700 3.077500
19.532000 3.234000
19.555300 3.246800
19.578600 2.978900
19.601900 2.579900
19.625200 2.225900
19.648500 2.027800
19.671800 2.100300
19.695100 2.469400
19.718400 2.895400
19.741700 3.137800
19.765000 3.336400
19.788300 3.773900
19.811500 4.420600
19.834800 5.049600
19.858100 5.504600
19.881400 5.578900
19.904700 5.113500
19.928000 4.268300
19.951300 3.386000
19.974600 2.794100
19.997900 2.735700
20.021200 3.178400
20.044500 3.734400
20.067800 4.096500
20.091100 4.323200
20.114300 4.439800
20.137600 4.275800
20.160900 3.844800
20.184200 3.470200
20.207500 3.444700
20.230800 3.728200
20.254100 4.046900
20.277400 4.179700
20.300700 4.151500
20.324000 4.146200
20.347300 4.163100
20.370600 4.037400
20.393900 3.810600
20.417200 3.672400
20.440400 3.652200
20.463700 3.686000
20.487000 3.874700
20.510300 4.303100
20.533600 4.636100
20.556900 4.445100
20.580200 3.798800
20.603500 3.100700
20.626800 2.687900
20.650100 2.735700
20.673400 3.228400
20.696700 3.968400
20.720000 4.666900
20.743200 5.095500
20.766500 5.224900
20.789800 5.169000
20.813100 5.106600
20.836400 5.177800
20.859700 5.246900
20.883000 4.986300
20.906300 4.307800
20.929600 3.477600
20.952900 2.804900
20.976200 2.413300
20.999500 2.311400
21.022800 2.599800
21.046100 3.437700
21.069300 4.662200
21.092600 5.631600
21.115900 5.747900
21.139200 5.155800
21.162500 4.635500
21.185800 4.670900
21.209100 4.929300
21.232400 4.878000
21.255700 4.514200
21.279000 4.149100
21.302300 4.009800
21.325600 4.219000
21.348900 4.611100
21.372100 4.803800
21.395400 4.678600
21.418700 4.373000
21.442000 4.065600
21.465300 4.037700
21.488600 4.502000
21.511900 5.243400
21.535200 5.603200
21.558500 5.059600
21.581800 3.864500
21.605100 2.820300
21.628400 2.480900
21.651700 2.760200
21.675000 3.189900
21.698200 3.380100
21.721500 3.277400
21.744800 3.072600
21.768100 2.893300
21.791400 2.717900
21.814700 2.591300
21.838000 2.711100
21.861300 3.253600
21.884600 4.147200
21.907900 4.981700
21.931200 5.260500
21.954500 4.921100
21.977800 4.449100
22.001000 4.242500
22.024300 4.169000
22.047600 3.974400
22.070900 3.727300
22.094200 3.710700
22.117500 4.006200
22.140800 4.235200
22.164100 4.022800
22.187400 3.609100
22.210700 3.516300
22.234000 3.837100
22.257300 4.230400
22.280600 4.331600
22.303900 3.954800
22.327100 3.273100
22.350400 2.791300
22.373700 2.807700
22.397000 3.196000
22.420300 3.700600
22.443600 4.037200
22.466900 4.094500
22.490200 4.174000
22.513500 4.503700
22.536800 4.843700
22.560100 4.921100
22.583400 4.718400
22.606700 4.304700
22.629900 3.770800
22.653200 3.217600
22.676500 2.766800
22.699800 2.576700
22.723100 2.660400
22.746400 2.788600
22.769700 2.756000
22.793000 2.660700
22.816300 2.759400
22.839600 3.159400
22.862900 3.752300
22.886200 4.228900
22.909500 4.238200
22.932800 3.757100
22.956000 3.198400
22.979300 2.987700
23.002600 3.091800
23.025900 3.211700
23.049200 3.247600
23.072500 3.340000
23.095800 3.589300
23.119100 3.803900
23.142400 3.699200
23.165700 3.399700
23.189000 3.351200
23.212300 3.652900
23.235600 3.881200
23.258800 3.665900
23.282100 3.176200
23.305400 2.995900
23.328700 3.534000
23.352000 4.612700
23.375300 5.702400
23.398600 6.300200
23.421900 6.155700
23.445200 5.507500
23.468500 4.890700
23.491800 4.520600
23.515100 4.211300
23.538400 3.821800
23.561700 3.350200
23.584900 2.847700
23.608200 2.561600
23.631500 2.809400
23.654800 3.427200
23.678100 3.741200
23.701400 3.435100
23.724700 2.988600
23.748000 2.932100
23.771300 3.142700
23.794600 3.169000
23.817900 2.862500
23.841200 2.462500
23.864500 2.273900
23.887700 2.348700
23.911000 2.527700
23.934300 2.818900
23.957600 3.402300
23.980900 4.172500
24.004200 4.756100
24.027500 5.033200
24.050800 5.082500
24.074100 4.773600
24.097400 4.114400
24.120700 3.641400
24.144000 3.739200
24.167300 4.068700
24.190600 4.185500
24.213800 4.089000
24.237100 3.944900
24.260400 3.888200
24.283700 4.068400
24.307000 4.444700
24.330300 4.682500
24.353600 4.572800
24.376900 4.309200
24.400200 4.093000
24.423500 3.859800
24.446800 3.574100
24.470100 3.368900
24.493400 3.302100
24.516600 3.312200
24.539900 3.404000
24.563200 3.633800
24.586500 3.993000
24.609800 4.293600
24.633100 4.173500
24.656400 3.541500
24.679700 2.844600
24.703000 2.561700
24.726300 2.616400
24.749600 2.646100
24.772900 2.669100
24.796200 2.885300
24.819500 3.110700
24.842700 3.113100
24.866000 3.107100
24.889300 3.405700
24.912600 3.917500
24.935900 4.177400
24.959200 3.787600
24.982500 2.905700
25.005800 2.162400
25.029100 1.972200
25.052400 2.235300
25.075700 2.673200
25.099000 3.063700
25.122300 3.306200
25.145500 3.390500
25.168800 3.210400
25.192100 2.733600
25.215400 2.336900
25.238700 2.467100
25.262000 3.003600
25.285300 3.394300
25.308600 3.358200
25.331900 3.034700
25.355200 2.676500
25.378500 2.519500
25.401800 2.641300
25.425100 2.906200
25.448400 3.189600
25.471600 3.513900
25.494900 3.948300
25.518200 4.320000
25.541500 4.181800
25.564800 3.380100
25.588100 2.375800
25.611400 1.784100
25.634700 1.838200
25.658000 2.257900
25.681300 2.526400
25.704600 2.454100
25.727900 2.342300
25.751200 2.424200
25.774400 2.527900
25.797700 2.456500
25.821000 2.327600
25.844300 2.417300
25.867600 2.861400
25.890900 3.530500
25.914200 4.086300
25.937500 4.250500
25.960800 4.030900
25.984100 3.603400
26.007400 3.233800
26.030700 3.204000
26.054000 3.408600
26.077300 3.382400
26.100500 2.946700
26.123800 2.386700
26.147100 1.980300
26.170400 1.735600
26.193700 1.587000
26.217000 1.559400
26.240300 1.656300
26.263600 1.759500
26.286900 1.739700
26.310200 1.615100
26.333500 1.503600
26.356800 1.404500
26.380100 1.188500
26.403300 0.846100
26.426600 0.546800
26.449900 0.448400
26.473200 0.569900
26.496500 0.789900
26.519800 0.918800
26.543100 0.836700
26.566400 0.626800
26.589700 0.476800
26.613000 0.415300
26.636300 0.332700
26.659600 0.217600
26.682900 0.164300
26.706200 0.216300
26.729400 0.344300
26.752700 0.511700
26.776000 0.659600
26.799300 0.706100
26.822600 0.632300
26.845900 0.477100
26.869200 0.289500
26.892500 0.139700
26.915800 0.083000
26.939100 0.112700
26.962400 0.166000
26.985700 0.171300
27.009000 0.117000
27.032200 0.052600
27.055500 0.015600
27.078800 0.003000
27.102100 0.000400
27.125400 0.000000
27.148700 0.000000
27.172000 0.000000
27.195300 0.000000
27.218600 0.000000
27.241900 0.000000
27.265200 0.000000
27.288500 0.000000
27.311800 0.000000
27.335100 0.000000
27.358300 0.000000
27.381600 0.000000
27.404900 0.000000
27.428200 0.000000
27.451500 0.000000
27.474800 0.000000
27.498100 0.000000
27.521400 0.000000
27.544700 0.000000
27.568000 0.000000
27.591300 0.000000
27.614600 0.000000
27.637900 0.000000
27.661100 0.000000
27.684400 0.000000
27.707700 0.000000
27.731000 0.000000
27.754300 0.000000
27.777600 0.000000
27.800900 0.000000
27.824200 0.000000
27.847500 0.000000
27.870800 0.000000
27.894100 0.000000
27.917400 0.000000
27.940700 0.000000
27.964000 0.000000
27.987200 0.000000
28.010500 0.000000
28.033800 0.000000
28.057100 0.000000
28.080400 0.000000
28.103700 0.000000
28.127000 0.000000
28.150300 0.000000
28.173600 0.000000
28.196900 0.000000
28.220200 0.000000
28.243500 0.000000
28.266800 0.000000
28.290000 0.000000
28.313300 0.000000
28.336600 0.000000
28.359900 0.000000
28.383200 0.000000
28.406500 0.000000
28.429800 0.000000
28.453100 0.000000
28.476400 0.000000
28.499700 0.000000
28.523000 0.000000
28.546300 0.000000
28.569600 0.000000
28.592900 0.000000
28.616100 0.000000
28.639400 0.000000
28.662700 0.000000
28.686000 0.000000
28.709300 0.000000
28.732600 0.000000
28.755900 0.000000
28.779200 0.000000
28.802500 0.000000
28.825800 0.000000
28.849100 0.000000
28.872400 0.000000
28.895700 0.000000
28.918900 0.000000
28.942200 0.000000
28.965500 0.000000
28.988800 0.000000
29.012100 0.000000
29.035400 0.000000
29.058700 0.000000
29.082000 0.000000
e
