set title 'mp-11713 - Density of States'
set xlabel 'Energy (eV)'
set ylabel 'DOS (states/eV)'
set grid
set xrange [-10:10]
set yrange [0:8.944]
set xzeroaxis lt -1
set terminal png size 800,600
set output 'mp-11713_dos_gnuplot.png'
plot '-' using 1:2 with lines title 'DOS'
-8.965200 0.000000
-8.947300 0.000000
-8.929400 0.000000
-8.911500 0.000000
-8.893600 0.000000
-8.875700 0.000000
-8.857800 0.000000
-8.839900 0.000000
-8.822000 0.000000
-8.804100 0.000000
-8.786200 0.000000
-8.768300 0.000000
-8.750400 0.000000
-8.732500 0.000000
-8.714600 0.000000
-8.696700 0.000000
-8.678800 0.000000
-8.660900 0.000000
-8.643000 0.000000
-8.625100 0.000000
-8.607300 0.000000
-8.589400 0.000000
-8.571500 0.000000
-8.553600 0.000000
-8.535700 0.000000
-8.517800 0.000000
-8.499900 0.000000
-8.482000 0.000000
-8.464100 0.000000
-8.446200 0.000000
-8.428300 0.000000
-8.410400 0.000000
-8.392500 0.000000
-8.374600 0.000000
-8.356700 0.000000
-8.338800 0.000000
-8.320900 0.000000
-8.303000 0.000000
-8.285100 0.000000
-8.267200 0.000000
-8.249300 0.000000
-8.231400 0.000000
-8.213500 0.000000
-8.195600 0.000000
-8.177700 0.000000
-8.159800 0.000000
-8.141900 0.000000
-8.124100 0.000000
-8.106200 0.000000
-8.088300 0.000000
-8.070400 0.000000
-8.052500 0.000000
-8.034600 0.000000
-8.016700 0.000000
-7.998800 0.000000
-7.980900 0.000000
-7.963000 0.000000
-7.945100 0.000000
-7.927200 0.000000
-7.909300 0.000000
-7.891400 0.000000
-7.873500 0.000000
-7.855600 0.000000
-7.837700 0.000000
-7.819800 0.000000
-7.801900 0.000000
-7.784000 0.000000
-7.766100 0.000000
-7.748200 0.000000
-7.730300 0.000000
-7.712400 0.000000
-7.694500 0.000000
-7.676600 0.000000
-7.658700 0.000000
-7.640800 0.000000
-7.623000 0.000000
-7.605100 0.000000
-7.587200 0.000000
-7.569300 0.000000
-7.551400 0.000000
-7.533500 0.000000
-7.515600 0.000000
-7.497700 0.000000
-7.479800 0.000000
-7.461900 0.000000
-7.444000 0.000000
-7.426100 0.000000
-7.408200 0.000000
-7.390300 0.000000
-7.372400 0.000000
-7.354500 0.000000
-7.336600 0.000400
-7.318700 0.007200
-7.300800 0.017700
-7.282900 0.031500
-7.265000 0.047200
-7.247100 0.064800
-7.229200 0.084300
-7.211300 0.105700
-7.193400 0.131800
-7.175500 0.158000
-7.157600 0.184300
-7.139700 0.210600
-7.121900 0.236800
-7.104000 0.263100
-7.086100 0.289300
-7.068200 0.319300
-7.050300 0.352000
-7.032400 0.385600
-7.014500 0.420100
-6.996600 0.455500
-6.978700 0.491700
-6.960800 0.528900
-6.942900 0.566900
-6.925000 0.605800
-6.907100 0.645600
-6.889200 0.686200
-6.871300 0.727400
-6.853400 0.676300
-6.835500 0.664400
-6.817600 0.663900
-6.799700 0.664900
-6.781800 0.668500
-6.763900 0.675300
-6.746000 0.680100
-6.728100 0.681500
-6.710200 0.679400
-6.692300 0.693200
-6.674400 0.721100
-6.656500 0.748900
-6.638700 0.759900
-6.620800 0.767500
-6.602900 0.775500
-6.585000 0.783800
-6.567100 0.792400
-6.549200 0.801200
-6.531300 0.810000
-6.513400 0.818600
-6.495500 0.827100
-6.477600 0.835100
-6.459700 0.842500
-6.441800 0.851800
-6.423900 0.865300
-6.406000 0.878500
-6.388100 0.891600
-6.370200 0.904500
-6.352300 0.917400
-6.334400 0.930300
-6.316500 0.943300
-6.298600 0.956300
-6.280700 0.968400
-6.262800 0.979700
-6.244900 0.989900
-6.227000 0.999300
-6.209100 1.007700
-6.191200 1.015200
-6.173300 1.021800
-6.155400 1.029900
-6.137600 1.048700
-6.119700 1.067900
-6.101800 1.087400
-6.083900 1.107300
-6.066000 1.125000
-6.048100 1.134900
-6.030200 1.145200
-6.012300 1.155700
-5.994400 1.166500
-5.976500 1.177600
-5.958600 1.189000
-5.940700 1.200500
-5.922800 1.211400
-5.904900 1.222000
-5.887000 1.232400
-5.869100 1.242700
-5.851200 1.252800
-5.833300 1.263800
-5.815400 1.276200
-5.797500 1.287800
-5.779600 1.299000
-5.761700 1.309900
-5.743800 1.320300
-5.725900 1.330300
-5.708000 1.340000
-5.690100 1.349000
-5.672200 1.357000
-5.654300 1.364600
-5.636500 1.371600
-5.618600 1.378100
-5.600700 1.384100
-5.582800 1.389600
-5.564900 1.394600
-5.547000 1.399200
-5.529100 1.403300
-5.511200 1.407000
-5.493300 1.410900
-5.475400 1.420600
-5.457500 1.433400
-5.439600 1.445700
-5.421700 1.457600
-5.403800 1.469000
-5.385900 1.479900
-5.368000 1.490400
-5.350100 1.500500
-5.332200 1.509700
-5.314300 1.517900
-5.296400 1.525400
-5.278500 1.532500
-5.260600 1.547300
-5.242700 1.563300
-5.224800 1.579700
-5.206900 1.596300
-5.189000 1.613100
-5.171100 1.630200
-5.153300 1.646200
-5.135400 1.657300
-5.117500 1.668700
-5.099600 1.680400
-5.081700 1.692000
-5.063800 1.703800
-5.045900 1.715900
-5.028000 1.728300
-5.010100 1.740900
-4.992200 1.753900
-4.974300 1.767100
-4.956400 1.780700
-4.938500 1.794600
-4.920600 1.808900
-4.902700 1.823400
-4.884800 1.838100
-4.866900 1.853000
-4.849000 1.868000
-4.831100 1.883300
-4.813200 1.898600
-4.795300 1.913900
-4.777400 1.929200
-4.759500 1.944600
-4.741600 1.960000
-4.723700 1.976600
-4.705800 1.995300
-4.687900 2.013800
-4.670000 2.032100
-4.652200 2.050100
-4.634300 2.067900
-4.616400 2.085400
-4.598500 2.102800
-4.580600 2.119800
-4.562700 2.136700
-4.544800 2.153300
-4.526900 2.169600
-4.509000 2.185600
-4.491100 2.201200
-4.473200 2.216700
-4.455300 2.231800
-4.437400 2.246700
-4.419500 2.261400
-4.401600 2.275500
-4.383700 2.288900
-4.365800 2.301700
-4.347900 2.320600
-4.330000 2.343200
-4.312100 2.365300
-4.294200 2.389800
-4.276300 2.647900
-4.258400 2.924300
-4.240500 3.121100
-4.222600 3.306900
-4.204700 3.474100
-4.186800 3.508600
-4.168900 3.476900
-4.151100 3.413300
-4.133200 3.350000
-4.115300 3.287000
-4.097400 3.231200
-4.079500 3.193000
-4.061600 3.171100
-4.043700 3.205200
-4.025800 3.251700
-4.007900 3.280600
-3.990000 3.291700
-3.972100 3.286700
-3.954200 3.269100
-3.936300 3.252700
-3.918400 3.248900
-3.900500 3.256100
-3.882600 3.286600
-3.864700 3.322700
-3.846800 3.362200
-3.828900 3.393200
-3.811000 3.362400
-3.793100 3.301300
-3.775200 3.233300
-3.757300 3.147200
-3.739400 3.041200
-3.721500 2.929600
-3.703600 2.829500
-3.685700 2.750300
-3.667900 2.692000
-3.650000 2.654500
-3.632100 2.670300
-3.614200 2.701700
-3.596300 2.742800
-3.578400 2.793500
-3.560500 2.853700
-3.542600 3.057800
-3.524700 3.209200
-3.506800 3.301800
-3.488900 3.334800
-3.471000 3.304900
-3.453100 3.211900
-3.435200 3.114600
-3.417300 3.085100
-3.399400 3.058400
-3.381500 3.034600
-3.363600 3.013800
-3.345700 3.009500
-3.327800 3.041600
-3.309900 3.074400
-3.292000 3.107000
-3.274100 3.139700
-3.256200 3.172500
-3.238300 3.205400
-3.220400 2.877300
-3.202500 2.746000
-3.184600 2.657300
-3.166800 2.613500
-3.148900 2.611300
-3.131000 2.597800
-3.113100 2.581800
-3.095200 2.566600
-3.077300 2.552300
-3.059400 2.538800
-3.041500 2.525900
-3.023600 2.513700
-3.005700 2.596500
-2.987800 2.750400
-2.969900 2.890800
-2.952000 2.964500
-2.934100 2.971600
-2.916200 2.996100
-2.898300 3.027000
-2.880400 3.052800
-2.862500 3.073400
-2.844600 3.089300
-2.826700 3.100300
-2.808800 3.106500
-2.790900 3.107900
-2.773000 3.115600
-2.755100 3.134800
-2.737200 3.190700
-2.719300 3.415400
-2.701400 3.423700
-2.683500 3.394100
-2.665700 3.395700
-2.647800 3.393300
-2.629900 3.352600
-2.612000 3.239800
-2.594100 3.065500
-2.576200 2.973600
-2.558300 2.899900
-2.540400 2.942000
-2.522500 3.206300
-2.504600 3.477200
-2.486700 3.689400
-2.468800 3.826100
-2.450900 3.872300
-2.433000 3.915700
-2.415100 3.765500
-2.397200 3.487300
-2.379300 3.163100
-2.361400 2.848800
-2.343500 2.544500
-2.325600 2.250200
-2.307700 1.965900
-2.289800 1.601000
-2.271900 1.123400
-2.254000 0.551100
-2.236100 0.000000
-2.218200 0.000000
-2.200300 0.000000
-2.182500 0.000000
-2.164600 0.000000
-2.146700 0.000000
-2.128800 0.000000
-2.110900 0.000000
-2.093000 0.000000
-2.075100 0.000000
-2.057200 0.000000
-2.039300 0.000000
-2.021400 0.000000
-2.003500 0.000000
-1.985600 0.000000
-1.967700 0.000000
-1.949800 0.000000
-1.931900 0.000000
-1.914000 0.000000
-1.896100 0.000000
-1.878200 0.000000
-1.860300 0.000000
-1.842400 0.000000
-1.824500 0.000000
-1.806600 0.000000
-1.788700 0.000000
-1.770800 0.000000
-1.752900 0.000000
-1.735000 0.000000
-1.717100 0.000000
-1.699200 0.000000
-1.681400 0.000000
-1.663500 0.000000
-1.645600 0.000000
-1.627700 0.000000
-1.609800 0.000000
-1.591900 0.000000
-1.574000 0.000000
-1.556100 0.000000
-1.538200 0.000000
-1.520300 0.000000
-1.502400 0.000000
-1.484500 0.000000
-1.466600 0.000000
-1.448700 0.000000
-1.430800 0.000000
-1.412900 0.000000
-1.395000 0.000000
-1.377100 0.000000
-1.359200 0.000000
-1.341300 0.000000
-1.323400 0.000000
-1.305500 0.000000
-1.287600 0.000000
-1.269700 0.000000
-1.251800 0.000000
-1.233900 0.000000
-1.216000 0.000000
-1.198100 0.000000
-1.180300 0.000000
-1.162400 0.000000
-1.144500 0.000000
-1.126600 0.000000
-1.108700 0.000000
-1.090800 0.000000
-1.072900 0.000000
-1.055000 0.000000
-1.037100 0.000000
-1.019200 0.000000
-1.001300 0.000000
-0.983400 0.000000
-0.965500 0.000000
-0.947600 0.000000
-0.929700 0.000000
-0.911800 0.000000
-0.893900 0.000000
-0.876000 0.000000
-0.858100 0.000000
-0.840200 0.000000
-0.822300 0.000000
-0.804400 0.000000
-0.786500 0.000000
-0.768600 0.000000
-0.750700 0.000000
-0.732800 0.000000
-0.714900 0.000000
-0.697100 0.000000
-0.679200 0.000000
-0.661300 0.000000
-0.643400 0.000000
-0.625500 0.000000
-0.607600 0.000000
-0.589700 0.000000
-0.571800 0.000000
-0.553900 0.000000
-0.536000 0.000000
-0.518100 0.000000
-0.500200 0.000000
-0.482300 0.000000
-0.464400 0.001700
-0.446500 0.008700
-0.428600 0.016400
-0.410700 0.029200
-0.392800 0.045900
-0.374900 0.065800
-0.357000 0.088900
-0.339100 0.115100
-0.321200 0.144500
-0.303300 0.177000
-0.285400 0.212600
-0.267500 0.254200
-0.249600 0.300200
-0.231700 0.347000
-0.213800 0.394500
-0.196000 0.442700
-0.178100 0.491500
-0.160200 0.546100
-0.142300 0.603500
-0.124400 0.663500
-0.106500 0.726300
-0.088600 0.791500
-0.070700 0.853400
-0.052800 0.904200
-0.034900 0.958400
-0.017000 1.016100
0.000900 1.077100
0.018800 1.143000
0.036700 1.215900
0.054600 1.289900
0.072500 1.365200
0.090400 1.441600
0.108300 1.518900
0.126200 1.596600
0.144100 1.674500
0.162000 1.752800
0.179900 1.831400
0.197800 1.910400
0.215700 1.989600
0.233600 2.069200
0.251500 2.170900
0.269400 2.934200
0.287300 3.631300
0.305100 4.142700
0.323000 4.599700
0.340900 4.980800
0.358800 5.096300
0.376700 4.866400
0.394600 4.635600
0.412500 4.403900
0.430400 4.171500
0.448300 3.938100
0.466200 4.051000
0.484100 4.544000
0.502000 4.900500
0.519900 5.381900
0.537800 5.742300
0.555700 5.653500
0.573600 5.356000
0.591500 5.077800
0.609400 4.802900
0.627300 4.524300
0.645200 4.242000
0.663100 3.942700
0.681000 3.462000
0.698900 3.314800
0.716800 3.211900
0.734700 3.190400
0.752600 3.193900
0.770500 3.183600
0.788300 3.159300
0.806200 3.133200
0.824100 5.598900
0.842000 8.131200
0.859900 7.486200
0.877800 6.573300
0.895700 4.288900
0.913600 3.420000
0.931500 2.842500
0.949400 2.766800
0.967300 2.793300
0.985200 2.838500
1.003100 2.963700
1.021000 3.063100
1.038900 3.122900
1.056800 3.197000
1.074700 3.278400
1.092600 3.352400
1.110500 3.387500
1.128400 3.389100
1.146300 3.406400
1.164200 3.420300
1.182100 3.419600
1.200000 3.405000
1.217900 3.380100
1.235800 3.341600
1.253700 3.291700
1.271600 3.233700
1.289400 3.162400
1.307300 3.056400
1.325200 2.936400
1.343100 2.823000
1.361000 2.754300
1.378900 2.687700
1.396800 2.624500
1.414700 2.564700
1.432600 2.508400
1.450500 2.486800
1.468400 2.485900
1.486300 2.490800
1.504200 2.510900
1.522100 2.530100
1.540000 2.548200
1.557900 2.570300
1.575800 2.603500
1.593700 2.643100
1.611600 2.683500
1.629500 2.724700
1.647400 2.766800
1.665300 2.809600
1.683200 2.853300
1.701100 2.897800
1.719000 2.943000
1.736900 2.989100
1.754800 3.036100
1.772700 3.083800
1.790500 3.123500
1.808400 3.105100
1.826300 3.077200
1.844200 3.042800
1.862100 3.001800
1.880000 2.953900
1.897900 2.899400
1.915800 2.838200
1.933700 2.770200
1.951600 2.695500
1.969500 2.614000
1.987400 2.525700
2.005300 2.414600
2.023200 2.315700
2.041100 2.222600
2.059000 2.135600
2.076900 2.054500
2.094800 1.986400
2.112700 1.930800
2.130600 1.905200
2.148500 1.890200
2.166400 1.878400
2.184300 1.879700
2.202200 1.894000
2.220100 1.910600
2.238000 1.925800
2.255900 1.939700
2.273700 1.952200
2.291600 1.963400
2.309500 1.972800
2.327400 1.980500
2.345300 1.986600
2.363200 1.991200
2.381100 1.994300
2.399000 1.996000
2.416900 1.996100
2.434800 1.994700
2.452700 1.991900
2.470600 1.989900
2.488500 1.987100
2.506400 1.982800
2.524300 1.977000
2.542200 1.969700
2.560100 1.960800
2.578000 1.950300
2.595900 1.938100
2.613800 1.924400
2.631700 1.909100
2.649600 1.917400
2.667500 1.929600
2.685400 1.941400
2.703300 1.953000
2.721200 1.964200
2.739100 1.975100
2.757000 1.985700
2.774800 1.996000
2.792700 2.012000
2.810600 2.035400
2.828500 2.058400
2.846400 2.082600
2.864300 2.240700
2.882200 2.395700
2.900100 2.462300
2.918000 2.440400
2.935900 2.407100
2.953800 2.472000
2.971700 2.544700
2.989600 2.617900
3.007500 2.691600
3.025400 2.765700
3.043300 2.840300
3.061200 2.915300
3.079100 2.989300
3.097000 3.058600
3.114900 3.122600
3.132800 3.181400
3.150700 3.235100
3.168600 3.282500
3.186500 3.336300
3.204400 3.404500
3.222300 3.490300
3.240200 3.617600
3.258100 3.791400
3.275900 4.011900
3.293800 4.275600
3.311700 4.552500
3.329600 4.835300
3.347500 5.138200
3.365400 5.075900
3.383300 4.838200
3.401200 4.574500
3.419100 4.484000
3.437000 4.251300
3.454900 4.007300
3.472800 3.792300
3.490700 3.720300
3.508600 3.685400
3.526500 3.680800
3.544400 3.790200
3.562300 3.954700
3.580200 4.093200
3.598100 4.190400
3.616000 4.270200
3.633900 4.331900
3.651800 4.366000
3.669700 4.383400
3.687600 4.413800
3.705500 4.435900
3.723400 4.449600
3.741300 4.454900
3.759100 4.454800
3.777000 4.452300
3.794900 4.445000
3.812800 4.433500
3.830700 4.423700
3.848600 4.408800
3.866500 4.361400
3.884400 4.254100
3.902300 4.236300
3.920200 4.217300
3.938100 4.197300
3.956000 4.161700
3.973900 4.112100
3.991800 4.068900
4.009700 4.024300
4.027600 3.976000
4.045500 3.922000
4.063400 3.875300
4.081300 3.834000
4.099200 3.789800
4.117100 3.766900
4.135000 3.751600
4.152900 3.742100
4.170800 3.730100
4.188700 3.712700
4.206600 3.686600
4.224500 3.658600
4.242400 3.629100
4.260200 3.600300
4.278100 3.579300
4.296000 3.566900
4.313900 3.562900
4.331800 3.571300
4.349700 3.585400
4.367600 3.603100
4.385500 3.624100
4.403400 3.646300
4.421300 3.700800
4.439200 3.721200
4.457100 4.720000
4.475000 3.617000
4.492900 3.638800
4.510800 3.661000
4.528700 3.683800
4.546600 3.761600
4.564500 4.376900
4.582400 4.523900
4.600300 4.645800
4.618200 4.801900
4.636100 4.933300
4.654000 5.039900
4.671900 5.121800
4.689800 5.179000
4.707700 5.211300
4.725600 5.218500
4.743500 5.176700
4.761300 5.110700
4.779200 5.035500
4.797100 4.992700
4.815000 4.970300
4.832900 4.942600
4.850800 4.910100
4.868700 4.870600
4.886600 4.815000
4.904500 4.712700
4.922400 4.666200
4.940300 4.621600
4.958200 4.578600
4.976100 4.536400
4.994000 4.495000
5.011900 4.443600
5.029800 4.551000
5.047700 4.676200
5.065600 4.812000
5.083500 4.956200
5.101400 5.108800
5.119300 5.269700
5.137200 5.439200
5.155100 5.521400
5.173000 5.297100
5.190900 5.152200
5.208800 5.077000
5.226700 5.064500
5.244500 5.062700
5.262400 5.058200
5.280300 5.050400
5.298200 5.035400
5.316100 5.016700
5.334000 4.995000
5.351900 4.970600
5.369800 5.090700
5.387700 5.467700
5.405600 5.840300
5.423500 6.208200
5.441400 6.571600
5.459300 6.949400
5.477200 7.189800
5.495100 6.956200
5.513000 6.666300
5.530900 6.349800
5.548800 6.137600
5.566700 6.033500
5.584600 5.936400
5.602500 5.845800
5.620400 5.762000
5.638300 5.705400
5.656200 5.668000
5.674100 5.637300
5.692000 5.585900
5.709900 5.581400
5.727800 5.585700
5.745600 5.593300
5.763500 5.603500
5.781400 5.611900
5.799300 5.618800
5.817200 5.629400
5.835100 5.637500
5.853000 5.643400
5.870900 5.646800
5.888800 5.646100
5.906700 5.640800
5.924600 5.635500
5.942500 5.628300
5.960400 5.618100
5.978300 5.604900
5.996200 5.587500
6.014100 5.565900
6.032000 5.541400
6.049900 5.516300
6.067800 5.506300
6.085700 5.599300
6.103600 5.695400
6.121500 5.788700
6.139400 5.886800
6.157300 6.030300
6.175200 6.216600
6.193100 6.406600
6.211000 6.585700
6.228900 6.780800
6.246700 7.031300
6.264600 7.270800
6.282500 7.442000
6.300400 7.366100
6.318300 7.143100
6.336200 7.043700
6.354100 6.936300
6.372000 6.824600
6.389900 6.704300
6.407800 6.563500
6.425700 6.417900
6.443600 6.312400
6.461500 6.222100
6.479400 6.149700
6.497300 6.082400
6.515200 6.177500
6.533100 6.067700
6.551000 5.934000
6.568900 5.817500
6.586800 5.703300
6.604700 5.593200
6.622600 5.487100
6.640500 5.384400
6.658400 5.285100
6.676300 5.188600
6.694200 5.094800
6.712100 4.995100
6.729900 4.885300
6.747800 4.772500
6.765700 4.646300
6.783600 4.517400
6.801500 4.387500
6.819400 4.263100
6.837300 4.155500
6.855200 4.054800
6.873100 3.957900
6.891000 3.861700
6.908900 3.757300
6.926800 3.654000
6.944700 3.556500
6.962600 3.458000
6.980500 3.358500
6.998400 3.263900
7.016300 3.172300
7.034200 3.083700
7.052100 2.998400
7.070000 2.916200
7.087900 2.837600
7.105800 2.764100
7.123700 2.694700
7.141600 2.634700
7.159500 2.589800
7.177400 2.571200
7.195300 2.579800
7.213200 2.581200
7.231000 2.544300
7.248900 2.488800
7.266800 2.453900
7.284700 2.431600
7.302600 2.407500
7.320500 2.380600
7.338400 2.350900
7.356300 2.318400
7.374200 2.282600
7.392100 2.237400
7.410000 2.181100
7.427900 2.115500
7.445800 2.056000
7.463700 1.998000
7.481600 1.940800
7.499500 1.884400
7.517400 1.832900
7.535300 1.794700
7.553200 1.768900
7.571100 1.712600
7.589000 1.662300
7.606900 1.623500
7.624800 1.597400
7.642700 1.610400
7.660600 1.642100
7.678500 1.592800
7.696400 1.535300
7.714300 1.486300
7.732100 1.445500
7.750000 1.441600
7.767900 1.435800
7.785800 1.296700
7.803700 1.159900
7.821600 1.025400
7.839500 0.896400
7.857400 0.769000
7.875300 0.641900
7.893200 0.515000
7.911100 0.388300
7.929000 0.280500
7.946900 0.190600
7.964800 0.113900
7.982700 0.050000
8.000600 0.008100
8.018500 0.000000
8.036400 0.000000
8.054300 0.000000
8.072200 0.000000
8.090100 0.000000
8.108000 0.000000
8.125900 0.000000
8.143800 0.000000
8.161700 0.000000
8.179600 0.000000
8.197500 0.000000
8.215300 0.000000
8.233200 0.000000
8.251100 0.000000
8.269000 0.000000
8.286900 0.000000
8.304800 0.000000
8.322700 0.000000
8.340600 0.000000
8.358500 0.000000
8.376400 0.000000
8.394300 0.000000
8.412200 0.000000
8.430100 0.000000
8.448000 0.000000
8.465900 0.000000
8.483800 0.000000
8.501700 0.000000
8.519600 0.000000
8.537500 0.000000
8.555400 0.000000
8.573300 0.000000
8.591200 0.000000
8.609100 0.000000
8.627000 0.000000
8.644900 0.000000
8.662800 0.000000
8.680700 0.000000
8.698600 0.000000
8.716400 0.000000
8.734300 0.000000
8.752200 0.000000
8.770100 0.000000
8.788000 0.000000
8.805900 0.000000
8.823800 0.000000
8.841700 0.000000
8.859600 0.000000
8.877500 0.000000
8.895400 0.000000
8.913300 0.000000
8.931200 0.000000
8.949100 0.000000
8.967000 0.000000
8.984900 0.000000
9.002800 0.000000
9.020700 0.000000
9.038600 0.000000
9.056500 0.000000
9.074400 0.000000
9.092300 0.000000
9.110200 0.000000
9.128100 0.000000
9.146000 0.000000
9.163900 0.000000
9.181800 0.000000
9.199700 0.000000
9.217500 0.000000
9.235400 0.000000
9.253300 0.000000
9.271200 0.000000
9.289100 0.000000
9.307000 0.000000
9.324900 0.000000
9.342800 0.000000
9.360700 0.000000
9.378600 0.000000
9.396500 0.000000
9.414400 0.000000
9.432300 0.000000
9.450200 0.000000
9.468100 0.000000
9.486000 0.000000
9.503900 0.000000
9.521800 0.000000
9.539700 0.000000
9.557600 0.000000
9.575500 0.000000
9.593400 0.000000
9.611300 0.000000
9.629200 0.000000
9.647100 0.000000
9.665000 0.000000
9.682900 0.000000
9.700700 0.000000
9.718600 0.000000
9.736500 0.000000
9.754400 0.000000
9.772300 0.000000
9.790200 0.000000
9.808100 0.000000
9.826000 0.000000
9.843900 0.000000
9.861800 0.000000
9.879700 0.000000
9.897600 0.000000
9.915500 0.000000
9.933400 0.000000
9.951300 0.000000
9.969200 0.000000
9.987100 0.001300
10.005000 0.004800
10.022900 0.009300
10.040800 0.014700
10.058700 0.021100
10.076600 0.028500
10.094500 0.036800
10.112400 0.046100
10.130300 0.056300
10.148200 0.067500
10.166100 0.079600
10.184000 0.092700
10.201800 0.108500
10.219700 0.125400
10.237600 0.142200
10.255500 0.159100
10.273400 0.176000
10.291300 0.192800
10.309200 0.209700
10.327100 0.226600
10.345000 0.243500
10.362900 0.260400
10.380800 0.277300
10.398700 0.294100
10.416600 0.311000
10.434500 0.327900
10.452400 0.345700
10.470300 0.367600
10.488200 0.392300
10.506100 0.420100
10.524000 0.452200
10.541900 0.485600
10.559800 0.518900
10.577700 0.552200
10.595600 0.585500
10.613500 0.618900
10.631400 0.652200
10.649300 0.685600
10.667200 0.718900
10.685100 0.752300
10.702900 0.785600
10.720800 0.819000
10.738700 0.852300
10.756600 0.885700
10.774500 0.919000
10.792400 0.952400
10.810300 0.985700
10.828200 1.016400
10.846100 1.043700
10.864000 1.068900
10.881900 1.092000
10.899800 1.112100
10.917700 1.128200
10.935600 1.143700
10.953500 1.159100
10.971400 1.174600
10.989300 1.190100
11.007200 1.205500
11.025100 1.221000
11.043000 1.236500
11.060900 1.252100
11.078800 1.267600
11.096700 1.283100
11.114600 1.297400
11.132500 1.309000
11.150400 1.318800
11.168300 1.327200
11.186100 1.334400
11.204000 1.495200
11.221900 1.798400
11.239800 2.110300
11.257700 2.263100
11.275600 2.399900
11.293500 2.520900
11.311400 2.626000
11.329300 2.829900
11.347200 3.066000
11.365100 3.237200
11.383000 3.293200
11.400900 3.232900
11.418800 3.056400
11.436700 2.661500
11.454600 2.042700
11.472500 1.376100
11.490400 1.392200
11.508300 1.413700
11.526200 1.436200
11.544100 1.458700
11.562000 1.481200
11.579900 1.503800
11.597800 1.640900
11.615700 1.891500
11.633600 2.140900
11.651500 2.388800
11.669400 2.635500
11.687200 2.880800
11.705100 3.124800
11.723000 3.367400
11.740900 3.582200
11.758800 3.423500
11.776700 3.400300
11.794600 3.352400
11.812500 3.255100
11.830400 3.108300
11.848300 2.843700
11.866200 2.513000
11.884100 2.200400
11.902000 1.954000
11.919900 1.945800
11.937800 1.956000
11.955700 1.966300
11.973600 1.973300
11.991500 1.976200
12.009400 1.977900
12.027300 1.979000
12.045200 1.979900
12.063100 1.980800
12.081000 1.981700
12.098900 1.982500
12.116800 1.983400
12.134700 1.984300
12.152600 1.985800
12.170500 1.992300
12.188300 2.000000
12.206200 2.008700
12.224100 2.018600
12.242000 2.029600
12.259900 2.041700
12.277800 2.055000
12.295700 2.069300
12.313600 2.084500
12.331500 2.100400
12.349400 2.116800
12.367300 2.133900
12.385200 2.151600
12.403100 2.169900
12.421000 2.377200
12.438900 2.701400
12.456800 3.026500
12.474700 3.352400
12.492600 3.679200
12.510500 4.006900
12.528400 4.335400
12.546300 3.997600
12.564200 3.961800
12.582100 3.890400
12.600000 3.777200
12.617900 3.622300
12.635800 3.497700
12.653700 3.417400
12.671500 3.343700
12.689400 3.274900
12.707300 4.185800
12.725200 6.612400
12.743100 6.562800
12.761000 4.678800
12.778900 3.785300
12.796800 3.454900
12.814700 3.304800
12.832600 3.227200
12.850500 3.154000
12.868400 3.112500
12.886300 3.452800
12.904200 4.084600
12.922100 4.325300
12.940000 4.167200
12.957900 3.806900
12.975800 3.759900
12.993700 3.714500
13.011600 3.671800
13.029500 3.685900
13.047400 3.781300
13.065300 3.954800
13.083200 4.144900
13.101100 4.190000
13.119000 4.207900
13.136900 4.192000
13.154800 4.141200
13.172600 4.055600
13.190500 3.937500
13.208400 3.878900
13.226300 3.849600
13.244200 3.818700
13.262100 3.780500
13.280000 3.741100
13.297900 3.701800
13.315800 3.701000
13.333700 3.721900
13.351600 3.737300
13.369500 3.758300
13.387400 3.773000
13.405300 3.812100
13.423200 3.849800
13.441100 3.886000
13.459000 3.921300
13.476900 3.955900
13.494800 6.079500
13.512700 4.181100
13.530600 3.717600
13.548500 2.660300
13.566400 2.699500
13.584300 2.736100
13.602200 2.782000
13.620100 2.835800
13.638000 2.869400
13.655800 2.882800
13.673700 2.884800
13.691600 2.886700
13.709500 2.888400
13.727400 3.145800
13.745300 3.368900
13.763200 3.529200
13.781100 3.628100
13.799000 3.711300
13.816900 3.750500
13.834800 3.727900
13.852700 3.721100
13.870600 3.832300
13.888500 4.044800
13.906400 4.292000
13.924300 4.573600
13.942200 4.891200
13.960100 5.424300
13.978000 6.004000
13.995900 4.640800
14.013800 3.123200
14.031700 3.167800
14.049600 3.225900
14.067500 3.297500
14.085400 3.390800
14.103300 3.522200
14.121200 3.765400
14.139100 4.079500
14.156900 4.306300
14.174800 4.170300
14.192700 4.215700
14.210600 4.340900
14.228500 4.457900
14.246400 4.627000
14.264300 4.756000
14.282200 4.797200
14.300100 4.762300
14.318000 4.801900
14.335900 4.824600
14.353800 4.797400
14.371700 4.744800
14.389600 4.654600
14.407500 4.464800
14.425400 4.247600
14.443300 4.023800
14.461200 3.797500
14.479100 3.556300
14.497000 3.536100
14.514900 3.616500
14.532800 3.862700
14.550700 4.084100
14.568600 4.204300
14.586500 4.333400
14.604400 4.469200
14.622300 4.873700
14.640200 4.338000
14.658000 3.855400
14.675900 3.584100
14.693800 3.327800
14.711700 3.102400
14.729600 2.912500
14.747500 2.762600
14.765400 2.656000
14.783300 2.611200
14.801200 2.592700
14.819100 2.595000
14.837000 2.623500
14.854900 2.672300
14.872800 2.786500
14.890700 3.156100
14.908600 3.925300
14.926500 4.735500
14.944400 5.932900
14.962300 6.264500
14.980200 6.294200
14.998100 6.546400
15.016000 4.883300
15.033900 3.811200
15.051800 3.602600
15.069700 3.789800
15.087600 4.698800
15.105500 5.381800
15.123400 5.626200
15.141200 5.527200
15.159100 4.964500
15.177000 4.067900
15.194900 4.015400
15.212800 4.138600
15.230700 4.119900
15.248600 3.980100
15.266500 3.892300
15.284400 3.861600
15.302300 4.098500
15.320200 4.439000
15.338100 4.864100
15.356000 5.344000
15.373900 5.679000
15.391800 6.462000
15.409700 7.944800
15.427600 11.768200
15.445500 12.129700
15.463400 9.024600
15.481300 6.946300
15.499200 5.762900
15.517100 5.333200
15.535000 6.069100
15.552900 6.556100
15.570800 7.188700
15.588700 7.680800
15.606600 8.103500
15.624500 8.489100
15.642300 8.762200
15.660200 7.879500
15.678100 7.734000
15.696000 7.183600
15.713900 6.448700
15.731800 8.305100
15.749700 6.660300
15.767600 6.147400
15.785500 5.911000
15.803400 6.010800
15.821300 6.390500
15.839200 6.748100
15.857100 6.855000
15.875000 6.922800
15.892900 6.825300
15.910800 6.393700
15.928700 6.154000
15.946600 5.972700
15.964500 6.029800
15.982400 5.825500
16.000300 5.709300
16.018200 5.857400
16.036100 6.036000
16.054000 5.938200
16.071900 5.668900
16.089800 5.536700
16.107700 5.506800
16.125600 5.401900
16.143400 5.234400
16.161300 5.283600
16.179200 5.465600
16.197100 5.662100
16.215000 6.007600
16.232900 6.753800
16.250800 7.747900
16.268700 8.530600
16.286600 9.863000
16.304500 8.888300
16.322400 8.115300
16.340300 7.323800
16.358200 6.756800
16.376100 6.325600
16.394000 5.935700
16.411900 5.612400
16.429800 5.357900
16.447700 5.181100
16.465600 5.082500
16.483500 5.063100
16.501400 5.123000
16.519300 5.325600
16.537200 5.595700
16.555100 5.879000
16.573000 6.130400
16.590900 6.350300
16.608800 6.494300
16.626600 6.257900
16.644500 6.003400
16.662400 5.747700
16.680300 5.491700
16.698200 5.237700
16.716100 4.996200
16.734000 4.763100
16.751900 4.577900
16.769800 4.435500
16.787700 4.339000
16.805600 4.316800
16.823500 4.404900
16.841400 4.395800
16.859300 4.354400
16.877200 4.336700
16.895100 4.346000
16.913000 4.345300
16.930900 4.339600
16.948800 4.322400
16.966700 4.290200
16.984600 4.243000
17.002500 4.181000
17.020400 4.104200
17.038300 4.016800
17.056200 3.910900
17.074100 3.807100
17.092000 3.744500
17.109900 3.720700
17.127700 3.718300
17.145600 3.729600
17.163500 3.753700
17.181400 3.783000
17.199300 3.807000
17.217200 3.856000
17.235100 3.913600
17.253000 3.972800
17.270900 4.024600
17.288800 4.037900
17.306700 4.052200
17.324600 4.135600
17.342500 4.171200
17.360400 4.209600
17.378300 4.256000
17.396200 4.309900
17.414100 4.358100
17.432000 4.399000
17.449900 4.433000
17.467800 4.465600
17.485700 4.491800
17.503600 4.513000
17.521500 4.533600
17.539400 4.525400
17.557300 4.507200
17.575200 4.503200
17.593100 4.523300
17.611000 4.556400
17.628800 4.597500
17.646700 4.642500
17.664600 4.701700
17.682500 5.265100
17.700400 5.007500
17.718300 4.969900
17.736200 4.927800
17.754100 4.881300
17.772000 4.833900
17.789900 4.797300
17.807800 4.772400
17.825700 4.760600
17.843600 4.748000
17.861500 4.735600
17.879400 4.731300
17.897300 4.756500
17.915200 4.812300
17.933100 4.889900
17.951000 4.935600
17.968900 5.231300
17.986800 5.717400
18.004700 5.934800
18.022600 5.800200
18.040500 5.642600
18.058400 5.416100
18.076300 5.201500
18.094200 5.013000
18.112000 4.852800
18.129900 4.729100
18.147800 4.590700
18.165700 4.438800
18.183600 4.272300
18.201500 4.103300
18.219400 3.939700
18.237300 3.802700
18.255200 3.682000
18.273100 3.569100
18.291000 3.481400
18.308900 3.524700
18.326800 3.734500
18.344700 4.125300
18.362600 5.093700
18.380500 5.383800
18.398400 5.496800
18.416300 5.646700
18.434200 5.673000
18.452100 5.647900
18.470000 5.588800
18.487900 5.615500
18.505800 5.867500
18.523700 6.057800
18.541600 5.897200
18.559500 5.633900
18.577400 5.388100
18.595300 5.460800
18.613100 5.295700
18.631000 5.209700
18.648900 5.195800
18.666800 5.519300
18.684700 5.234500
18.702600 5.429100
18.720500 6.030100
18.738400 5.447500
18.756300 6.142300
18.774200 5.758600
18.792100 5.628900
18.810000 5.377400
18.827900 4.706600
18.845800 4.242400
18.863700 3.928600
18.881600 3.606900
18.899500 3.340500
18.917400 3.126200
18.935300 2.936000
18.953200 2.769900
18.971100 2.643100
18.989000 2.537300
19.006900 2.451600
19.024800 4.760800
19.042700 3.727900
19.060600 3.692800
19.078500 3.686700
19.096400 3.693300
19.114200 3.713000
19.132100 3.747800
19.150000 3.794800
19.167900 3.854000
19.185800 3.920000
19.203700 3.979600
19.221600 4.025600
19.239500 4.042300
19.257400 4.046800
19.275300 4.039300
19.293200 4.023800
19.311100 4.010600
19.329000 4.025300
19.346900 4.411900
19.364800 4.764400
19.382700 5.038800
19.400600 5.214700
19.418500 5.210600
19.436400 5.246000
19.454300 5.315100
19.472200 5.382600
19.490100 5.430600
19.508000 5.451900
19.525900 5.431600
19.543800 5.376100
19.561700 5.306500
19.579600 5.222400
19.597400 5.130200
19.615300 5.054300
19.633200 5.012700
19.651100 5.006800
19.669000 5.027900
19.686900 5.111700
19.704800 5.154500
19.722700 5.086000
19.740600 4.929500
19.758500 4.775600
19.776400 4.631900
19.794300 4.498400
19.812200 5.228600
19.830100 5.978300
19.848000 6.268600
19.865900 6.356000
19.883800 6.383600
19.901700 7.033800
19.919600 7.718700
19.937500 5.301300
19.955400 5.052700
19.973300 4.817100
19.991200 4.560100
20.009100 4.280400
20.027000 4.233100
20.044900 4.272400
20.062800 4.311700
20.080700 4.351300
20.098500 4.391000
20.116400 4.430700
20.134300 4.468900
20.152200 4.506000
20.170100 4.540300
20.188000 4.566600
20.205900 4.527400
20.223800 4.505000
20.241700 4.478000
20.259600 4.447300
20.277500 4.412000
20.295400 4.371900
20.313300 4.327200
20.331200 4.277900
20.349100 4.224100
20.367000 4.167900
20.384900 4.147100
20.402800 4.135500
20.420700 4.125100
20.438600 4.116400
20.456500 4.109600
20.474400 4.098900
20.492300 4.089800
20.510200 4.071900
20.528100 4.054500
20.546000 4.043900
20.563900 4.056000
20.581800 4.096400
20.599600 4.197000
20.617500 4.279900
20.635400 4.350500
20.653300 4.408300
20.671200 4.449200
20.689100 4.473100
20.707000 4.485200
20.724900 4.493100
20.742800 4.538600
20.760700 4.608700
20.778600 4.680100
20.796500 4.750700
20.814400 4.820400
20.832300 4.890400
20.850200 4.938300
20.868100 4.951200
20.886000 4.966600
20.903900 4.965200
20.921800 4.945100
20.939700 4.896300
20.957600 4.832200
20.975500 4.805200
20.993400 4.796900
21.011300 4.824400
21.029200 4.889400
21.047100 4.955200
21.065000 5.018200
21.082800 5.054600
21.100700 5.102900
21.118600 5.173400
21.136500 5.228000
21.154400 5.270500
21.172300 5.289600
21.190200 5.281600
21.208100 5.218000
21.226000 5.121800
21.243900 5.044700
21.261800 4.988800
21.279700 4.943700
21.297600 4.941800
21.315500 4.975700
21.333400 5.021500
21.351300 5.072300
21.369200 5.112900
21.387100 5.159400
21.405000 5.258400
21.422900 5.353700
21.440800 5.425900
21.458700 5.436700
21.476600 5.443800
21.494500 5.448300
21.512400 5.449700
21.530300 5.399300
21.548200 5.265600
21.566100 5.215000
21.583900 5.212800
21.601800 5.204200
21.619700 5.190000
21.637600 5.171300
21.655500 5.147900
21.673400 5.107300
21.691300 5.043500
21.709200 4.987300
21.727100 4.953400
21.745000 5.006900
21.762900 4.968600
21.780800 4.834500
21.798700 4.596800
21.816600 4.430500
21.834500 4.394700
21.852400 4.335600
21.870300 4.256200
21.888200 4.157700
21.906100 4.039500
21.924000 3.825800
21.941900 3.586200
21.959800 3.429100
21.977700 3.372000
21.995600 3.346300
22.013500 3.325700
22.031400 3.307200
22.049300 3.289800
22.067200 3.273800
22.085000 3.265900
22.102900 3.264900
22.120800 3.271800
22.138700 3.288600
22.156600 3.287100
22.174500 3.254100
22.192400 3.199000
22.210300 2.942200
22.228200 2.795100
22.246100 2.648000
22.264000 2.560300
22.281900 2.485200
22.299800 2.480500
22.317700 2.480200
22.335600 2.483400
22.353500 2.491000
22.371400 2.504300
22.389300 2.521400
22.407200 2.543400
22.425100 2.572700
22.443000 2.603000
22.460900 2.630700
22.478800 2.646400
22.496700 2.649600
22.514600 2.640100
22.532500 2.618100
22.550400 2.635600
22.568200 2.675200
22.586100 2.709200
22.604000 2.855900
22.621900 3.025900
22.639800 3.098800
22.657700 3.076200
22.675600 3.000700
22.693500 2.951200
22.711400 2.929700
22.729300 2.936200
22.747200 2.962400
22.765100 2.980200
22.783000 2.979800
22.800900 2.971000
22.818800 2.960800
22.836700 2.952500
22.854600 2.950200
22.872500 2.949100
22.890400 2.895600
22.908300 2.777100
22.926200 2.720600
22.944100 2.674300
22.962000 2.634000
22.979900 2.610000
22.997800 2.605700
23.015700 2.594800
23.033600 2.577200
23.051500 2.555300
23.069300 2.531500
23.087200 2.506700
23.105100 2.481100
23.123000 2.454800
23.140900 2.427700
23.158800 2.408000
23.176700 2.406900
23.194600 2.407200
23.212500 2.408600
23.230400 2.411200
23.248300 2.414900
23.266200 2.419800
23.284100 2.428900
23.302000 2.439500
23.319900 2.450000
23.337800 2.465200
23.355700 2.481600
23.373600 2.497900
23.391500 2.514000
23.409400 2.530100
23.427300 2.546000
23.445200 2.561800
23.463100 2.577900
23.481000 2.594400
23.498900 2.610700
23.516800 2.626700
23.534700 2.642600
23.552600 2.658400
23.570400 2.674000
23.588300 2.689500
23.606200 2.666900
23.624100 2.602400
23.642000 2.595700
23.659900 2.588100
23.677800 2.579700
23.695700 2.570700
23.713600 2.561000
23.731500 2.550600
23.749400 2.540000
23.767300 2.532900
23.785200 2.528100
23.803100 2.523000
23.821000 2.517500
23.838900 2.511700
23.856800 2.506400
23.874700 2.500800
23.892600 2.495000
23.910500 2.488800
23.928400 2.482300
23.946300 2.475600
23.964200 2.468500
23.982100 2.461200
24.000000 2.437700
24.017900 2.363800
24.035800 2.361400
24.053600 2.359100
24.071500 2.356900
24.089400 2.354900
24.107300 2.354700
24.125200 2.355300
24.143100 2.356100
24.161000 2.357300
24.178900 2.358800
24.196800 2.363100
24.214700 2.369200
24.232600 2.375400
24.250500 2.381600
24.268400 2.388000
24.286300 2.384200
24.304200 2.328600
24.322100 2.304800
24.340000 2.277400
24.357900 2.273500
24.375800 2.264900
24.393700 2.246600
24.411600 2.218600
24.429500 2.180800
24.447400 2.141900
24.465300 2.118100
24.483200 2.093900
24.501100 2.069300
24.519000 2.044600
24.536900 2.019800
24.554700 1.995100
24.572600 1.951800
24.590500 1.855400
24.608400 1.791500
24.626300 1.798900
24.644200 1.810900
24.662100 1.795200
24.680000 1.752900
24.697900 1.694700
24.715800 1.623600
24.733700 1.537100
24.751600 1.434500
24.769500 1.332100
24.787400 1.231200
24.805300 1.136200
24.823200 1.047400
24.841100 0.964700
24.859000 0.888200
24.876900 0.817900
24.894800 0.756100
24.912700 0.751200
24.930600 0.751900
24.948500 0.688900
24.966400 0.617700
24.984300 0.550700
25.002200 0.486700
25.020100 0.422100
25.038000 0.357000
25.055800 0.291200
25.073700 0.231500
25.091600 0.178500
25.109500 0.130100
25.127400 0.087000
25.145300 0.049800
25.163200 0.022600
25.181100 0.006800
25.199000 0.000500
25.216900 0.000000
25.234800 0.000000
25.252700 0.000000
25.270600 0.000000
25.288500 0.000000
25.306400 0.000000
25.324300 0.000000
25.342200 0.000000
25.360100 0.000000
25.378000 0.000000
25.395900 0.000000
25.413800 0.000000
25.431700 0.000000
25.449600 0.000000
25.467500 0.000000
25.485400 0.000000
25.503300 0.000000
25.521200 0.000000
25.539000 0.000000
25.556900 0.000000
25.574800 0.000000
25.592700 0.000000
25.610600 0.000000
25.628500 0.000000
25.646400 0.000000
25.664300 0.000000
25.682200 0.000000
25.700100 0.000000
25.718000 0.000000
25.735900 0.000000
25.753800 0.000000
25.771700 0.000000
25.789600 0.000000
25.807500 0.000000
25.825400 0.000000
25.843300 0.000000
25.861200 0.000000
25.879100 0.000000
25.897000 0.000000
25.914900 0.000000
25.932800 0.000000
25.950700 0.000000
25.968600 0.000000
25.986500 0.000000
26.004400 0.000000
26.022300 0.000000
26.040100 0.000000
26.058000 0.000000
26.075900 0.000000
26.093800 0.000000
26.111700 0.000000
26.129600 0.000000
26.147500 0.000000
26.165400 0.000000
26.183300 0.000000
26.201200 0.000000
26.219100 0.000000
26.237000 0.000000
26.254900 0.000000
26.272800 0.000000
26.290700 0.000000
26.308600 0.000000
26.326500 0.000000
26.344400 0.000000
26.362300 0.000000
26.380200 0.000000
26.398100 0.000000
26.416000 0.000000
26.433900 0.000000
26.451800 0.000000
26.469700 0.000000
26.487600 0.000000
26.505500 0.000000
26.523400 0.000000
26.541200 0.000000
26.559100 0.000000
26.577000 0.000000
26.594900 0.000000
26.612800 0.000000
26.630700 0.000000
26.648600 0.000000
26.666500 0.000000
26.684400 0.000000
26.702300 0.000000
26.720200 0.000000
26.738100 0.000000
26.756000 0.000000
26.773900 0.000000
26.791800 0.000000
26.809700 0.000000
26.827600 0.000000
e
