set title 'mp-140 - Density of States'
set xlabel 'Energy (eV)'
set ylabel 'DOS (states/eV)'
set grid
set xrange [-10:10]
set yrange [0:0.655]
set xzeroaxis lt -1
set terminal png size 800,600
set output 'mp-140_dos_gnuplot.png'
plot '-' using 1:2 with lines title 'DOS'
-14.352500 0.000000
-14.323300 0.000000
-14.294000 0.000000
-14.264800 0.000000
-14.235500 0.000000
-14.206300 0.000000
-14.177000 0.000000
-14.147800 0.000000
-14.118600 0.000000
-14.089300 0.000000
-14.060100 0.000000
-14.030800 0.000000
-14.001600 0.000000
-13.972300 0.000000
-13.943100 0.000000
-13.913800 0.000000
-13.884600 0.000000
-13.855300 0.000000
-13.826100 0.000000
-13.796800 0.000000
-13.767600 0.000000
-13.738300 0.000000
-13.709100 0.000000
-13.679800 0.000000
-13.650600 0.000000
-13.621300 0.000000
-13.592100 0.000000
-13.562800 0.000000
-13.533600 0.000000
-13.504400 0.000000
-13.475100 0.000000
-13.445900 0.000000
-13.416600 0.000000
-13.387400 0.000000
-13.358100 0.000000
-13.328900 0.000000
-13.299600 0.000000
-13.270400 0.000000
-13.241100 0.000000
-13.211900 0.000000
-13.182600 0.000000
-13.153400 0.000000
-13.124100 0.000000
-13.094900 0.000000
-13.065600 0.000000
-13.036400 0.000000
-13.007100 0.000000
-12.977900 0.000000
-12.948600 0.000000
-12.919400 0.000000
-12.890200 0.000000
-12.860900 0.000000
-12.831700 0.000000
-12.802400 0.000000
-12.773200 0.000000
-12.743900 0.000000
-12.714700 0.000000
-12.685400 0.000000
-12.656200 0.000000
-12.626900 0.000000
-12.597700 0.000000
-12.568400 0.000000
-12.539200 0.000000
-12.509900 0.000000
-12.480700 0.000000
-12.451400 0.000000
-12.422200 0.000000
-12.392900 0.000000
-12.363700 0.000000
-12.334400 0.000000
-12.305200 0.000000
-12.276000 0.000000
-12.246700 0.000000
-12.217500 0.000000
-12.188200 0.000000
-12.159000 0.000000
-12.129700 0.000000
-12.100500 0.000000
-12.071200 0.000000
-12.042000 0.000000
-12.012700 0.000000
-11.983500 0.000000
-11.954200 0.000000
-11.925000 0.000000
-11.895700 0.000000
-11.866500 0.000000
-11.837200 0.000000
-11.808000 0.000000
-11.778700 0.000000
-11.749500 0.000000
-11.720200 0.000000
-11.691000 0.200100
-11.661800 1.350600
-11.632500 2.540800
-11.603300 5.041300
-11.574000 13.221600
-11.544800 29.842700
-11.515500 32.965900
-11.486300 34.144300
-11.457000 17.762000
-11.427800 10.195100
-11.398500 29.701000
-11.369300 36.002400
-11.340000 31.655700
-11.310800 36.457800
-11.281500 30.946600
-11.252300 16.115800
-11.223000 5.022900
-11.193800 3.075800
-11.164500 2.499000
-11.135300 2.722100
-11.106000 0.000000
-11.076800 0.000000
-11.047600 0.000000
-11.018300 0.000000
-10.989100 0.000000
-10.959800 0.000000
-10.930600 0.000000
-10.901300 0.000000
-10.872100 0.000000
-10.842800 0.000000
-10.813600 0.000000
-10.784300 0.000000
-10.755100 0.000000
-10.725800 0.000000
-10.696600 0.000000
-10.667300 0.000000
-10.638100 0.000000
-10.608800 0.000000
-10.579600 0.000000
-10.550300 0.000000
-10.521100 0.000000
-10.491900 0.000000
-10.462600 0.000000
-10.433400 0.000000
-10.404100 0.000000
-10.374900 0.000000
-10.345600 0.000000
-10.316400 0.000000
-10.287100 0.000000
-10.257900 0.000000
-10.228600 0.000000
-10.199400 0.000000
-10.170100 0.000000
-10.140900 0.000000
-10.111600 0.000000
-10.082400 0.000000
-10.053100 0.000000
-10.023900 0.000000
-9.994600 0.000000
-9.965400 0.000000
-9.936100 0.000000
-9.906900 0.000000
-9.877700 0.000000
-9.848400 0.000000
-9.819200 0.000000
-9.789900 0.000000
-9.760700 0.000000
-9.731400 0.000000
-9.702200 0.000000
-9.672900 0.000000
-9.643700 0.000000
-9.614400 0.000000
-9.585200 0.000000
-9.555900 0.000000
-9.526700 0.000000
-9.497400 0.000000
-9.468200 0.000000
-9.438900 0.000000
-9.409700 0.000000
-9.380400 0.000000
-9.351200 0.000000
-9.321900 0.000000
-9.292700 0.000000
-9.263500 0.000000
-9.234200 0.000000
-9.205000 0.000000
-9.175700 0.000000
-9.146500 0.000000
-9.117200 0.000000
-9.088000 0.000000
-9.058700 0.000000
-9.029500 0.000000
-9.000200 0.000000
-8.971000 0.000000
-8.941700 0.000000
-8.912500 0.000000
-8.883200 0.000000
-8.854000 0.000000
-8.824700 0.000000
-8.795500 0.000000
-8.766200 0.000000
-8.737000 0.000000
-8.707700 0.000000
-8.678500 0.000000
-8.649300 0.000000
-8.620000 0.000000
-8.590800 0.000000
-8.561500 0.000000
-8.532300 0.000000
-8.503000 0.000000
-8.473800 0.000000
-8.444500 0.000000
-8.415300 0.000000
-8.386000 0.000000
-8.356800 0.000000
-8.327500 0.000000
-8.298300 0.000000
-8.269000 0.000000
-8.239800 0.000000
-8.210500 0.000000
-8.181300 0.000000
-8.152000 0.000000
-8.122800 0.000000
-8.093500 0.000000
-8.064300 0.000000
-8.035100 0.000000
-8.005800 0.000000
-7.976600 0.000000
-7.947300 0.000000
-7.918100 0.000000
-7.888800 0.000000
-7.859600 0.000000
-7.830300 0.000000
-7.801100 0.000000
-7.771800 0.000000
-7.742600 0.000000
-7.713300 0.000000
-7.684100 0.000000
-7.654800 0.000000
-7.625600 0.000000
-7.596300 0.000000
-7.567100 0.000000
-7.537800 0.000000
-7.508600 0.000000
-7.479300 0.008600
-7.450100 0.028200
-7.420900 0.031000
-7.391600 0.039000
-7.362400 0.047600
-7.333100 0.050200
-7.303900 0.053200
-7.274600 0.057500
-7.245400 0.062100
-7.216100 0.067000
-7.186900 0.070700
-7.157600 0.073000
-7.128400 0.075400
-7.099100 0.077800
-7.069900 0.080500
-7.040600 0.083800
-7.011400 0.087300
-6.982100 0.090500
-6.952900 0.093200
-6.923600 0.094900
-6.894400 0.096600
-6.865100 0.098500
-6.835900 0.100700
-6.806700 0.103000
-6.777400 0.105300
-6.748200 0.107800
-6.718900 0.110300
-6.689700 0.112500
-6.660400 0.114500
-6.631200 0.116500
-6.601900 0.118000
-6.572700 0.119600
-6.543400 0.121200
-6.514200 0.122900
-6.484900 0.124700
-6.455700 0.126500
-6.426400 0.128400
-6.397200 0.130300
-6.367900 0.132400
-6.338700 0.134200
-6.309400 0.135900
-6.280200 0.137600
-6.250900 0.139200
-6.221700 0.140600
-6.192500 0.141900
-6.163200 0.143200
-6.134000 0.144600
-6.104700 0.146000
-6.075500 0.147600
-6.046200 0.149200
-6.017000 0.150800
-5.987700 0.152500
-5.958500 0.154200
-5.929200 0.155700
-5.900000 0.157100
-5.870700 0.158500
-5.841500 0.160000
-5.812200 0.161400
-5.783000 0.162600
-5.753700 0.163800
-5.724500 0.165100
-5.695200 0.166300
-5.666000 0.167600
-5.636700 0.168900
-5.607500 0.170200
-5.578300 0.171600
-5.549000 0.173000
-5.519800 0.174400
-5.490500 0.175800
-5.461300 0.177100
-5.432000 0.178200
-5.402800 0.179500
-5.373500 0.180800
-5.344300 0.182100
-5.315000 0.183500
-5.285800 0.184700
-5.256500 0.185900
-5.227300 0.187000
-5.198000 0.188100
-5.168800 0.189200
-5.139500 0.190300
-5.110300 0.191500
-5.081000 0.192600
-5.051800 0.193800
-5.022500 0.195000
-4.993300 0.196200
-4.964100 0.197500
-4.934800 0.198800
-4.905600 0.199900
-4.876300 0.201000
-4.847100 0.202200
-4.817800 0.203300
-4.788600 0.204500
-4.759300 0.205600
-4.730100 0.206800
-4.700800 0.208000
-4.671600 0.208900
-4.642300 0.209900
-4.613100 0.211000
-4.583800 0.212000
-4.554600 0.213100
-4.525300 0.214200
-4.496100 0.215300
-4.466800 0.216400
-4.437600 0.217500
-4.408300 0.218600
-4.379100 0.219800
-4.349900 0.220900
-4.320600 0.221900
-4.291400 0.222900
-4.262100 0.224000
-4.232900 0.225000
-4.203600 0.226000
-4.174400 0.227100
-4.145100 0.228100
-4.115900 0.229200
-4.086600 0.230400
-4.057400 0.231500
-4.028100 0.232500
-3.998900 0.233500
-3.969600 0.234500
-3.940400 0.235500
-3.911100 0.236500
-3.881900 0.237500
-3.852600 0.238500
-3.823400 0.239500
-3.794100 0.240500
-3.764900 0.241600
-3.735700 0.242600
-3.706400 0.243700
-3.677200 0.244700
-3.647900 0.245600
-3.618700 0.246600
-3.589400 0.247600
-3.560200 0.248600
-3.530900 0.249700
-3.501700 0.250700
-3.472400 0.251700
-3.443200 0.252800
-3.413900 0.253800
-3.384700 0.254900
-3.355400 0.256000
-3.326200 0.257000
-3.296900 0.258000
-3.267700 0.259000
-3.238400 0.259900
-3.209200 0.260900
-3.179900 0.261900
-3.150700 0.262900
-3.121500 0.263900
-3.092200 0.264900
-3.063000 0.266000
-3.033700 0.267000
-3.004500 0.268100
-2.975200 0.269200
-2.946000 0.270200
-2.916700 0.271200
-2.887500 0.272200
-2.858200 0.273200
-2.829000 0.274300
-2.799700 0.275300
-2.770500 0.276400
-2.741200 0.277400
-2.712000 0.278500
-2.682700 0.279600
-2.653500 0.280700
-2.624200 0.281800
-2.595000 0.282900
-2.565700 0.284100
-2.536500 0.285200
-2.507300 0.286300
-2.478000 0.287500
-2.448800 0.288600
-2.419500 0.289800
-2.390300 0.291000
-2.361000 0.292200
-2.331800 0.293400
-2.302500 0.294600
-2.273300 0.295900
-2.244000 0.297200
-2.214800 0.298500
-2.185500 0.299800
-2.156300 0.301200
-2.127000 0.302600
-2.097800 0.304000
-2.068500 0.305500
-2.039300 0.307100
-2.010000 0.308700
-1.980800 0.310400
-1.951500 0.312100
-1.922300 0.314000
-1.893100 0.315900
-1.863800 0.318000
-1.834600 0.320100
-1.805300 0.322400
-1.776100 0.325000
-1.746800 0.328000
-1.717600 0.331700
-1.688300 0.336000
-1.659100 0.341200
-1.629800 0.346200
-1.600600 0.351000
-1.571300 0.355600
-1.542100 0.359900
-1.512800 0.365100
-1.483600 0.371200
-1.454300 0.375900
-1.425100 0.379500
-1.395800 0.382000
-1.366600 0.379300
-1.337300 0.376800
-1.308100 0.375700
-1.278900 0.375200
-1.249600 0.377200
-1.220400 0.370100
-1.191100 0.366300
-1.161900 0.368200
-1.132600 0.355300
-1.103400 0.351200
-1.074100 0.349700
-1.044900 0.347500
-1.015600 0.347200
-0.986400 0.340200
-0.957100 0.335600
-0.927900 0.333400
-0.898600 0.331000
-0.869400 0.329000
-0.840100 0.326900
-0.810900 0.326400
-0.781600 0.343300
-0.752400 0.326800
-0.723100 0.322200
-0.693900 0.315800
-0.664700 0.310100
-0.635400 0.305300
-0.606200 0.301500
-0.576900 0.298600
-0.547700 0.295200
-0.518400 0.292400
-0.489200 0.290800
-0.459900 0.290500
-0.430700 0.287500
-0.401400 0.283000
-0.372200 0.279200
-0.342900 0.278000
-0.313700 0.276500
-0.284400 0.278000
-0.255200 0.281300
-0.225900 0.284400
-0.196700 0.288500
-0.167400 0.295100
-0.138200 0.304100
-0.109000 0.313000
-0.079700 0.316200
-0.050500 0.316600
-0.021200 0.310900
0.008000 0.303800
0.037300 0.298600
0.066500 0.294400
0.095800 0.291900
0.125000 0.291400
0.154300 0.293600
0.183500 0.299000
0.212800 0.300400
0.242000 0.300700
0.271300 0.305000
0.300500 0.309100
0.329800 0.306400
0.359000 0.301400
0.388300 0.299400
0.417500 0.298100
0.446800 0.297500
0.476000 0.297400
0.505200 0.297200
0.534500 0.299200
0.563700 0.303200
0.593000 0.311300
0.622200 0.304400
0.651500 0.304400
0.680700 0.305800
0.710000 0.308400
0.739200 0.308900
0.768500 0.310500
0.797700 0.309000
0.827000 0.314200
0.856200 0.312900
0.885500 0.316000
0.914700 0.319600
0.944000 0.322300
0.973200 0.323800
1.002500 0.326400
1.031700 0.326400
1.061000 0.326400
1.090200 0.329500
1.119400 0.330600
1.148700 0.333200
1.177900 0.335300
1.207200 0.336300
1.236400 0.338900
1.265700 0.341100
1.294900 0.343400
1.324200 0.345900
1.353400 0.349200
1.382700 0.351100
1.411900 0.353600
1.441200 0.357600
1.470400 0.361600
1.499700 0.366300
1.528900 0.370600
1.558200 0.376600
1.587400 0.383000
1.616700 0.390500
1.645900 0.399000
1.675200 0.405500
1.704400 0.411300
1.733600 0.414500
1.762900 0.415900
1.792100 0.417500
1.821400 0.418400
1.850600 0.415900
1.879900 0.411400
1.909100 0.406100
1.938400 0.402000
1.967600 0.394700
1.996900 0.390000
2.026100 0.384500
2.055400 0.380600
2.084600 0.376900
2.113900 0.373900
2.143100 0.371900
2.172400 0.370100
2.201600 0.366200
2.230900 0.363400
2.260100 0.361500
2.289400 0.360100
2.318600 0.359700
2.347800 0.360200
2.377100 0.360900
2.406300 0.362600
2.435600 0.363400
2.464800 0.364300
2.494100 0.366100
2.523300 0.367800
2.552600 0.371000
2.581800 0.376800
2.611100 0.387400
2.640300 0.399400
2.669600 0.414100
2.698800 0.426900
2.728100 0.445800
2.757300 0.464700
2.786600 0.472300
2.815800 0.472200
2.845100 0.472000
2.874300 0.471800
2.903600 0.475100
2.932800 0.475800
2.962000 0.468400
2.991300 0.462200
3.020500 0.458800
3.049800 0.455100
3.079000 0.452400
3.108300 0.450000
3.137500 0.454600
3.166800 0.443900
3.196000 0.437300
3.225300 0.430200
3.254500 0.423900
3.283800 0.419900
3.313000 0.416700
3.342300 0.414000
3.371500 0.417600
3.400800 0.418400
3.430000 0.399400
3.459300 0.392800
3.488500 0.389700
3.517800 0.386900
3.547000 0.385200
3.576200 0.383900
3.605500 0.383200
3.634700 0.382800
3.664000 0.382800
3.693200 0.382400
3.722500 0.381400
3.751700 0.381800
3.781000 0.383500
3.810200 0.385200
3.839500 0.382800
3.868700 0.381400
3.898000 0.380400
3.927200 0.379800
3.956500 0.379100
3.985700 0.378400
4.015000 0.377100
4.044200 0.376900
4.073500 0.376800
4.102700 0.376800
4.132000 0.376900
4.161200 0.377400
4.190400 0.381900
4.219700 0.394200
4.248900 0.395900
4.278200 0.401100
4.307400 0.407300
4.336700 0.413600
4.365900 0.419600
4.395200 0.425100
4.424400 0.430500
4.453700 0.436700
4.482900 0.443200
4.512200 0.446400
4.541400 0.443400
4.570700 0.442100
4.599900 0.439300
4.629200 0.443200
4.658400 0.443600
4.687700 0.443500
4.716900 0.443400
4.746200 0.442300
4.775400 0.443800
4.804600 0.443600
4.833900 0.442200
4.863100 0.442300
4.892400 0.442100
4.921600 0.442000
4.950900 0.441900
4.980100 0.440800
5.009400 0.440400
5.038600 0.440300
5.067900 0.441700
5.097100 0.444700
5.126400 0.445000
5.155600 0.445900
5.184900 0.446700
5.214100 0.447400
5.243400 0.448400
5.272600 0.449100
5.301900 0.449300
5.331100 0.449300
5.360400 0.450200
5.389600 0.450700
5.418800 0.450700
5.448100 0.451200
5.477300 0.450900
5.506600 0.450600
5.535800 0.450500
5.565100 0.453400
5.594300 0.455500
5.623600 0.454900
5.652800 0.454400
5.682100 0.453800
5.711300 0.454200
5.740600 0.455000
5.769800 0.457000
5.799100 0.459000
5.828300 0.460300
5.857600 0.460200
5.886800 0.460000
5.916100 0.459900
5.945300 0.459900
5.974600 0.460200
6.003800 0.460400
6.033000 0.460500
6.062300 0.461000
6.091500 0.461800
6.120800 0.462900
6.150000 0.464000
6.179300 0.465300
6.208500 0.466900
6.237800 0.468700
6.267000 0.470800
6.296300 0.473300
6.325500 0.475500
6.354800 0.477100
6.384000 0.478600
6.413300 0.479900
6.442500 0.481100
6.471800 0.482400
6.501000 0.487300
6.530300 0.488700
6.559500 0.488700
6.588800 0.489200
6.618000 0.493300
6.647200 0.494600
6.676500 0.493200
6.705700 0.495000
6.735000 0.492300
6.764200 0.491100
6.793500 0.492600
6.822700 0.490600
6.852000 0.488800
6.881200 0.488900
6.910500 0.489000
6.939700 0.489100
6.969000 0.489500
6.998200 0.490200
7.027500 0.491000
7.056700 0.491800
7.086000 0.492800
7.115200 0.493900
7.144500 0.495100
7.173700 0.496300
7.203000 0.497900
7.232200 0.498200
7.261400 0.499500
7.290700 0.502200
7.319900 0.499500
7.349200 0.506100
7.378400 0.507200
7.407700 0.507400
7.436900 0.507900
7.466200 0.509300
7.495400 0.511200
7.524700 0.513200
7.553900 0.515200
7.583200 0.517200
7.612400 0.519300
7.641700 0.521700
7.670900 0.524900
7.700200 0.528200
7.729400 0.531700
7.758700 0.535400
7.787900 0.541800
7.817200 0.547700
7.846400 0.550900
7.875600 0.554700
7.904900 0.564400
7.934100 0.575900
7.963400 0.581500
7.992600 0.589100
8.021900 0.592800
8.051100 0.595400
8.080400 0.591900
8.109600 0.589300
8.138900 0.588100
8.168100 0.587100
8.197400 0.586600
8.226600 0.588200
8.255900 0.586400
8.285100 0.583900
8.314400 0.581300
8.343600 0.583700
8.372900 0.580100
8.402100 0.573400
8.431400 0.569600
8.460600 0.567600
8.489800 0.566500
8.519100 0.564900
8.548300 0.563100
8.577600 0.561200
8.606800 0.559500
8.636100 0.558200
8.665300 0.560500
8.694600 0.556300
8.723800 0.556200
8.753100 0.556000
8.782300 0.552200
8.811600 0.550900
8.840800 0.549500
8.870100 0.548100
8.899300 0.547200
8.928600 0.545800
8.957800 0.544900
8.987100 0.544400
9.016300 0.545900
9.045600 0.546500
9.074800 0.545300
9.104000 0.543500
9.133300 0.540000
9.162500 0.539300
9.191800 0.538800
9.221000 0.538500
9.250300 0.538500
9.279500 0.538700
9.308800 0.539100
9.338000 0.539400
9.367300 0.539500
9.396500 0.544900
9.425800 0.542900
9.455000 0.541300
9.484300 0.540000
9.513500 0.538400
9.542800 0.537300
9.572000 0.536600
9.601300 0.536100
9.630500 0.533800
9.659700 0.532000
9.689000 0.531300
9.718200 0.530700
9.747500 0.530300
9.776700 0.529900
9.806000 0.529700
9.835200 0.529500
9.864500 0.529500
9.893700 0.529600
9.923000 0.530000
9.952200 0.531400
9.981500 0.533500
10.010700 0.535700
10.040000 0.537600
10.069200 0.539700
10.098500 0.543100
10.127700 0.547500
10.157000 0.552400
10.186200 0.556500
10.215500 0.566300
10.244700 0.572000
10.273900 0.576200
10.303200 0.576400
10.332400 0.573800
10.361700 0.575600
10.390900 0.568000
10.420200 0.560700
10.449400 0.543100
10.478700 0.523800
10.507900 0.510400
10.537200 0.498300
10.566400 0.491800
10.595700 0.485800
10.624900 0.479400
10.654200 0.474900
10.683400 0.471200
10.712700 0.468400
10.741900 0.466200
10.771200 0.462400
10.800400 0.457200
10.829700 0.456400
10.858900 0.454100
10.888100 0.449300
10.917400 0.446000
10.946600 0.443200
10.975900 0.440100
11.005100 0.447300
11.034400 0.443500
11.063600 0.439100
11.092900 0.437400
11.122100 0.437100
11.151400 0.436300
11.180600 0.435900
11.209900 0.437000
11.239100 0.439200
11.268400 0.441100
11.297600 0.441500
11.326900 0.441500
11.356100 0.441900
11.385400 0.442900
11.414600 0.444100
11.443900 0.447400
11.473100 0.449000
11.502300 0.447100
11.531600 0.449100
11.560800 0.451200
11.590100 0.454100
11.619300 0.456000
11.648600 0.456800
11.677800 0.456900
11.707100 0.456600
11.736300 0.456600
11.765600 0.457600
11.794800 0.459900
11.824100 0.461400
11.853300 0.463100
11.882600 0.464900
11.911800 0.466700
11.941100 0.468600
11.970300 0.468600
11.999600 0.466800
12.028800 0.467600
12.058100 0.467900
12.087300 0.469600
12.116500 0.468600
12.145800 0.466700
12.175000 0.466100
12.204300 0.465900
12.233500 0.465800
12.262800 0.465700
12.292000 0.466000
12.321300 0.467300
12.350500 0.468500
12.379800 0.469300
12.409000 0.470100
12.438300 0.470600
12.467500 0.471700
12.496800 0.475300
12.526000 0.474400
12.555300 0.471400
12.584500 0.470600
12.613800 0.470000
12.643000 0.469700
12.672300 0.470000
12.701500 0.470700
12.730700 0.470800
12.760000 0.472200
12.789200 0.480100
12.818500 0.474400
12.847700 0.474100
12.877000 0.473000
12.906200 0.473200
12.935500 0.473500
12.964700 0.473500
12.994000 0.474300
13.023200 0.475100
13.052500 0.475000
13.081700 0.475100
13.111000 0.474100
13.140200 0.474000
13.169500 0.474300
13.198700 0.474800
13.228000 0.475700
13.257200 0.476500
13.286500 0.477500
13.315700 0.478700
13.344900 0.479900
13.374200 0.480900
13.403400 0.481700
13.432700 0.485400
13.461900 0.486200
13.491200 0.489600
13.520400 0.493300
13.549700 0.496300
13.578900 0.498700
13.608200 0.501800
13.637400 0.503600
13.666700 0.504100
13.695900 0.503100
13.725200 0.501100
13.754400 0.501500
13.783700 0.512400
13.812900 0.503300
13.842200 0.500700
13.871400 0.499400
13.900700 0.500200
13.929900 0.497500
13.959100 0.496100
13.988400 0.494900
14.017600 0.491900
14.046900 0.491700
14.076100 0.492900
14.105400 0.495500
14.134600 0.498700
14.163900 0.501300
14.193100 0.501300
14.222400 0.501100
14.251600 0.504500
14.280900 0.507600
14.310100 0.511500
14.339400 0.517400
14.368600 0.519100
14.397900 0.515800
14.427100 0.511600
14.456400 0.509100
14.485600 0.507700
14.514900 0.505700
14.544100 0.506800
14.573300 0.526700
14.602600 0.537500
14.631800 0.549500
14.661100 0.553700
14.690300 0.552900
14.719600 0.550800
14.748800 0.550200
14.778100 0.543400
14.807300 0.536000
14.836600 0.528900
14.865800 0.524300
14.895100 0.523300
14.924300 0.523200
14.953600 0.521900
14.982800 0.524900
15.012100 0.528800
15.041300 0.532800
15.070600 0.538600
15.099800 0.545600
15.129100 0.553200
15.158300 0.561600
15.187500 0.571000
15.216800 0.580800
15.246000 0.588200
15.275300 0.596500
15.304500 0.606200
15.333800 0.616100
15.363000 0.623300
15.392300 0.629400
15.421500 0.634300
15.450800 0.640900
15.480000 0.641500
15.509300 0.643900
15.538500 0.645500
15.567800 0.649100
15.597000 0.652800
15.626300 0.654300
15.655500 0.654900
15.684800 0.656200
15.714000 0.659100
15.743300 0.660400
15.772500 0.662200
15.801700 0.671200
15.831000 0.674700
15.860200 0.670500
15.889500 0.665000
15.918700 0.654400
15.948000 0.650900
15.977200 0.647800
16.006500 0.646100
16.035700 0.645400
16.065000 0.645500
16.094200 0.645300
16.123500 0.645200
16.152700 0.645100
16.182000 0.645100
16.211200 0.644000
16.240500 0.643600
16.269700 0.646500
16.299000 0.648500
16.328200 0.648100
16.357500 0.644700
16.386700 0.641100
16.415900 0.641400
16.445200 0.642700
16.474400 0.642400
16.503700 0.642000
16.532900 0.641600
16.562200 0.640500
16.591400 0.638400
16.620700 0.636800
16.649900 0.634500
16.679200 0.632000
16.708400 0.629600
16.737700 0.622600
16.766900 0.618300
16.796200 0.614900
16.825400 0.611700
16.854700 0.608200
16.883900 0.604200
16.913200 0.599900
16.942400 0.595300
16.971700 0.593800
17.000900 0.595000
17.030100 0.593100
17.059400 0.591700
17.088600 0.589400
17.117900 0.586400
17.147100 0.582800
17.176400 0.580500
17.205600 0.578800
17.234900 0.578200
17.264100 0.578400
17.293400 0.580100
17.322600 0.581900
17.351900 0.583500
17.381100 0.589300
17.410400 0.593800
17.439600 0.595700
17.468900 0.592400
17.498100 0.587200
17.527400 0.585400
17.556600 0.585500
17.585900 0.586900
17.615100 0.588300
17.644300 0.588500
17.673600 0.588000
17.702800 0.588200
17.732100 0.589000
17.761300 0.589300
17.790600 0.589400
17.819800 0.590500
17.849100 0.593300
17.878300 0.600400
17.907600 0.605400
17.936800 0.610600
17.966100 0.617100
17.995300 0.621500
18.024600 0.622400
18.053800 0.625200
18.083100 0.626000
18.112300 0.625000
18.141600 0.627000
18.170800 0.631800
18.200100 0.640700
18.229300 0.649200
18.258500 0.656700
18.287800 0.663500
18.317000 0.670400
18.346300 0.677800
18.375500 0.683000
18.404800 0.693600
18.434000 0.707100
18.463300 0.718900
18.492500 0.729700
18.521800 0.740900
18.551000 0.752400
18.580300 0.765200
18.609500 0.784200
18.638800 0.796500
18.668000 0.803800
18.697300 0.810500
18.726500 0.808500
18.755800 0.792700
18.785000 0.788700
18.814300 0.787700
18.843500 0.782200
18.872700 0.778900
18.902000 0.771800
18.931200 0.764100
18.960500 0.752200
18.989700 0.742600
19.019000 0.736100
19.048200 0.729700
19.077500 0.723400
19.106700 0.715800
19.136000 0.706200
19.165200 0.699000
19.194500 0.682600
19.223700 0.675700
19.253000 0.673500
19.282200 0.641700
19.311500 0.612300
19.340700 0.596300
19.370000 0.585500
19.399200 0.576400
19.428500 0.568900
19.457700 0.561500
19.486900 0.551700
19.516200 0.540500
19.545400 0.532600
19.574700 0.525600
19.603900 0.518300
19.633200 0.511700
19.662400 0.505100
19.691700 0.498500
19.720900 0.492500
19.750200 0.487300
19.779400 0.483300
19.808700 0.480400
19.837900 0.479100
19.867200 0.479100
19.896400 0.479900
19.925700 0.478100
19.954900 0.475500
19.984200 0.473800
20.013400 0.472900
20.042600 0.472500
20.071900 0.471800
20.101100 0.471700
20.130400 0.472500
20.159600 0.476400
20.188900 0.476900
20.218100 0.477100
20.247400 0.473200
20.276600 0.471300
20.305900 0.470800
20.335100 0.477300
20.364400 0.475800
20.393600 0.475400
20.422900 0.475100
20.452100 0.471000
20.481400 0.470700
20.510600 0.470000
20.539900 0.469500
20.569100 0.470100
20.598400 0.472000
20.627600 0.475300
20.656800 0.476900
20.686100 0.480200
20.715300 0.486800
20.744600 0.496700
20.773800 0.509200
20.803100 0.524700
20.832300 0.535500
20.861600 0.550500
20.890800 0.574600
20.920100 0.576700
20.949300 0.587700
20.978600 0.597500
21.007800 0.607400
21.037100 0.620400
21.066300 0.641900
21.095600 0.670400
21.124800 0.691600
21.154100 0.705600
21.183300 0.743700
21.212600 0.784000
21.241800 0.769100
21.271000 0.778700
21.300300 0.780400
21.329500 0.760400
21.358800 0.751900
21.388000 0.750600
21.417300 0.748900
21.446500 0.745900
21.475800 0.750300
21.505000 0.753300
21.534300 0.753600
21.563500 0.749700
21.592800 0.750600
21.622000 0.744600
21.651300 0.740600
21.680500 0.730700
21.709800 0.728800
21.739000 0.728300
21.768300 0.732300
21.797500 0.733600
21.826800 0.731700
21.856000 0.727100
21.885200 0.723900
21.914500 0.738800
21.943700 0.730900
21.973000 0.720100
22.002200 0.714100
22.031500 0.709500
22.060700 0.705800
22.090000 0.701800
22.119200 0.695700
22.148500 0.688800
22.177700 0.688300
22.207000 0.690500
22.236200 0.691100
22.265500 0.693300
22.294700 0.694300
22.324000 0.696700
22.353200 0.698400
22.382500 0.700900
22.411700 0.703900
22.441000 0.708100
22.470200 0.718400
22.499400 0.723800
22.528700 0.725900
22.557900 0.727600
22.587200 0.742100
22.616400 0.727700
22.645700 0.717600
22.674900 0.710000
22.704200 0.704400
22.733400 0.699300
22.762700 0.693600
22.791900 0.687500
22.821200 0.681400
22.850400 0.676900
22.879700 0.673900
22.908900 0.672300
22.938200 0.668500
22.967400 0.664100
22.996700 0.661500
23.025900 0.661700
23.055200 0.658700
23.084400 0.656000
23.113600 0.654000
23.142900 0.651800
23.172100 0.651000
23.201400 0.654500
23.230600 0.656400
23.259900 0.656200
23.289100 0.655900
23.318400 0.658800
23.347600 0.660000
23.376900 0.661300
23.406100 0.663100
23.435400 0.662800
23.464600 0.660800
23.493900 0.660000
23.523100 0.659700
23.552400 0.661200
23.581600 0.662000
23.610900 0.663000
23.640100 0.666300
23.669400 0.669200
23.698600 0.671300
23.727800 0.673100
23.757100 0.677100
23.786300 0.670800
23.815600 0.668500
23.844800 0.668300
23.874100 0.668800
23.903300 0.671100
23.932600 0.672300
23.961800 0.677000
23.991100 0.684300
24.020300 0.690400
24.049600 0.695900
24.078800 0.701200
24.108100 0.707500
24.137300 0.714500
24.166600 0.722400
24.195800 0.725600
24.225100 0.728100
24.254300 0.730000
24.283600 0.730100
24.312800 0.731600
24.342000 0.734000
24.371300 0.732200
24.400500 0.728400
24.429800 0.728400
24.459000 0.727800
24.488300 0.727800
24.517500 0.729100
24.546800 0.732000
24.576000 0.735400
24.605300 0.739100
24.634500 0.744000
24.663800 0.749800
24.693000 0.754900
24.722300 0.760300
24.751500 0.766200
24.780800 0.772400
24.810000 0.778100
24.839300 0.783100
24.868500 0.789100
24.897800 0.790300
24.927000 0.795500
24.956200 0.804400
24.985500 0.796200
25.014700 0.796600
25.044000 0.804100
25.073200 0.817900
25.102500 0.822900
25.131700 0.824000
25.161000 0.824800
25.190200 0.824800
25.219500 0.826000
25.248700 0.825800
25.278000 0.825900
25.307200 0.829000
25.336500 0.829200
25.365700 0.830100
25.395000 0.820500
25.424200 0.814000
25.453500 0.807800
25.482700 0.802500
25.512000 0.797000
25.541200 0.791700
25.570400 0.786800
25.599700 0.781900
25.628900 0.778400
25.658200 0.775700
25.687400 0.773500
25.716700 0.771200
25.745900 0.769400
25.775200 0.767300
25.804400 0.766600
25.833700 0.766200
25.862900 0.765900
25.892200 0.765900
25.921400 0.766800
25.950700 0.768800
25.979900 0.771500
26.009200 0.773000
26.038400 0.774900
26.067700 0.778400
26.096900 0.778800
26.126200 0.774200
26.155400 0.769000
26.184600 0.764300
26.213900 0.769800
26.243100 0.759400
26.272400 0.757600
26.301600 0.755500
26.330900 0.753600
26.360100 0.750900
26.389400 0.748400
26.418600 0.747200
26.447900 0.746600
26.477100 0.747300
26.506400 0.749100
26.535600 0.750600
26.564900 0.750900
26.594100 0.750700
26.623400 0.752900
26.652600 0.755000
26.681900 0.756300
26.711100 0.754200
26.740400 0.753200
26.769600 0.752600
26.798800 0.753400
26.828100 0.751800
26.857300 0.752200
26.886600 0.753100
26.915800 0.752100
26.945100 0.750200
26.974300 0.752200
27.003600 0.751500
27.032800 0.753000
27.062100 0.754200
27.091300 0.754900
27.120600 0.754500
27.149800 0.760900
27.179100 0.762500
27.208300 0.764900
27.237600 0.764500
27.266800 0.761100
27.296100 0.760600
27.325300 0.761400
27.354600 0.762700
27.383800 0.763900
27.413000 0.761400
27.442300 0.759500
27.471500 0.759800
27.500800 0.759600
27.530000 0.759400
27.559300 0.759600
27.588500 0.760500
27.617800 0.762300
27.647000 0.764300
27.676300 0.766500
27.705500 0.768500
27.734800 0.769600
27.764000 0.772000
27.793300 0.774300
27.822500 0.776500
27.851800 0.779700
27.881000 0.780900
27.910300 0.779500
27.939500 0.776500
27.968800 0.773200
27.998000 0.773100
28.027200 0.768500
28.056500 0.765400
28.085700 0.759900
28.115000 0.749400
28.144200 0.743700
28.173500 0.735900
28.202700 0.726000
28.232000 0.718000
28.261200 0.711300
28.290500 0.705400
28.319700 0.700100
28.349000 0.695600
28.378200 0.691800
28.407500 0.688400
28.436700 0.686600
28.466000 0.686400
28.495200 0.690200
28.524500 0.693500
28.553700 0.696000
28.583000 0.698900
28.612200 0.704000
28.641400 0.707800
28.670700 0.717300
28.699900 0.713500
28.729200 0.711700
28.758400 0.710400
28.787700 0.711500
28.816900 0.710300
28.846200 0.711100
28.875400 0.713400
28.904700 0.715200
28.933900 0.715400
28.963200 0.713800
28.992400 0.712500
29.021700 0.711000
29.050900 0.709000
29.080200 0.719400
29.109400 0.713000
29.138700 0.714200
29.167900 0.718500
29.197200 0.719500
29.226400 0.723900
29.255600 0.727400
29.284900 0.731100
29.314100 0.733700
29.343400 0.734400
29.372600 0.734300
29.401900 0.733300
29.431100 0.736000
29.460400 0.735700
29.489600 0.734900
29.518900 0.734400
29.548100 0.732900
29.577400 0.731300
29.606600 0.730600
29.635900 0.730700
29.665100 0.731300
29.694400 0.732300
29.723600 0.733900
29.752900 0.736200
29.782100 0.739300
29.811300 0.742800
29.840600 0.745400
29.869800 0.747900
29.899100 0.750600
29.928300 0.753100
29.957600 0.755500
29.986800 0.757800
30.016100 0.764400
30.045300 0.765000
30.074600 0.769000
30.103800 0.769800
30.133100 0.768500
30.162300 0.767300
30.191600 0.765800
30.220800 0.765600
30.250100 0.767900
30.279300 0.772400
30.308600 0.787100
30.337800 0.788200
30.367100 0.785200
30.396300 0.781300
30.425500 0.778000
30.454800 0.769100
30.484000 0.757900
30.513300 0.742900
30.542500 0.726000
30.571800 0.709400
30.601000 0.693900
30.630300 0.679600
30.659500 0.666300
30.688800 0.655700
30.718000 0.647300
30.747300 0.641800
30.776500 0.641900
30.805800 0.641600
30.835000 0.642100
30.864300 0.644200
30.893500 0.647300
30.922800 0.653100
30.952000 0.658700
30.981300 0.665100
31.010500 0.673700
31.039700 0.682000
31.069000 0.693300
31.098200 0.702000
31.127500 0.706800
31.156700 0.706800
31.186000 0.703100
31.215200 0.699500
31.244500 0.696400
31.273700 0.693800
31.303000 0.692300
31.332200 0.689900
31.361500 0.684300
31.390700 0.677700
31.420000 0.670900
31.449200 0.663400
31.478500 0.652000
31.507700 0.647400
31.537000 0.638600
31.566200 0.632600
31.595500 0.628500
31.624700 0.625500
31.653900 0.623500
31.683200 0.622600
31.712400 0.621500
31.741700 0.620800
31.770900 0.619900
31.800200 0.618700
31.829400 0.618500
31.858700 0.619100
31.887900 0.621300
31.917200 0.625300
31.946400 0.627400
31.975700 0.631000
32.004900 0.635500
32.034200 0.640500
32.063400 0.644900
32.092700 0.644600
32.121900 0.647100
32.151200 0.665500
32.180400 0.653900
32.209700 0.648100
32.238900 0.638300
32.268100 0.628100
32.297400 0.617500
32.326600 0.609600
32.355900 0.602500
32.385100 0.596200
32.414400 0.590500
32.443600 0.587800
32.472900 0.586400
32.502100 0.583800
32.531400 0.580500
32.560600 0.576700
32.589900 0.573900
32.619100 0.571200
32.648400 0.565700
32.677600 0.559100
32.706900 0.553900
32.736100 0.549600
32.765400 0.545800
32.794600 0.542200
32.823900 0.539800
32.853100 0.540500
32.882300 0.534700
32.911600 0.525800
32.940800 0.518000
32.970100 0.511800
32.999300 0.505500
33.028600 0.498700
33.057800 0.491500
33.087100 0.484500
33.116300 0.477100
33.145600 0.469200
33.174800 0.461100
33.204100 0.453000
33.233300 0.445900
33.262600 0.442500
33.291800 0.434200
33.321100 0.430100
33.350300 0.426000
33.379600 0.421500
33.408800 0.417300
33.438100 0.413600
33.467300 0.409600
33.496500 0.404600
33.525800 0.399600
33.555000 0.394900
33.584300 0.389900
33.613500 0.384300
33.642800 0.379000
33.672000 0.374300
33.701300 0.370300
33.730500 0.366800
33.759800 0.363800
33.789000 0.360800
33.818300 0.357600
33.847500 0.354200
33.876800 0.350500
33.906000 0.346400
33.935300 0.342500
33.964500 0.338800
33.993800 0.335800
34.023000 0.332700
34.052300 0.329400
34.081500 0.325900
34.110700 0.322900
34.140000 0.320000
34.169200 0.317300
34.198500 0.314800
34.227700 0.312900
34.257000 0.311800
34.286200 0.309400
34.315500 0.306300
34.344700 0.303300
34.374000 0.300500
34.403200 0.297600
34.432500 0.294400
34.461700 0.291300
34.491000 0.289100
34.520200 0.287600
34.549500 0.285300
34.578700 0.281300
34.608000 0.275800
34.637200 0.271900
34.666500 0.268600
34.695700 0.265300
34.724900 0.262100
34.754200 0.259100
34.783400 0.256300
34.812700 0.253500
34.841900 0.250800
34.871200 0.248200
34.900400 0.245700
34.929700 0.243000
34.958900 0.240400
34.988200 0.237800
35.017400 0.235400
35.046700 0.233000
35.075900 0.230800
35.105200 0.228600
35.134400 0.226600
35.163700 0.224700
35.192900 0.222900
35.222200 0.221200
35.251400 0.219600
35.280700 0.217900
35.309900 0.215800
35.339100 0.213400
35.368400 0.211200
35.397600 0.208800
35.426900 0.206200
35.456100 0.203400
35.485400 0.200400
35.514600 0.197600
35.543900 0.194500
35.573100 0.191200
35.602400 0.187800
35.631600 0.185100
35.660900 0.182000
35.690100 0.179200
35.719400 0.176500
35.748600 0.173800
35.777900 0.171100
35.807100 0.168700
35.836400 0.166500
35.865600 0.164500
35.894900 0.162400
35.924100 0.159400
35.953300 0.156500
35.982600 0.153500
36.011800 0.150700
36.041100 0.148200
36.070300 0.146500
36.099600 0.145100
36.128800 0.144000
36.158100 0.138600
36.187300 0.137600
36.216600 0.133900
36.245800 0.131300
36.275100 0.129400
36.304300 0.127700
36.333600 0.125900
36.362800 0.124100
36.392100 0.122300
36.421300 0.120600
36.450600 0.118900
36.479800 0.117200
36.509100 0.115600
36.538300 0.114200
36.567500 0.113000
36.596800 0.111900
36.626000 0.110900
36.655300 0.110000
36.684500 0.109100
36.713800 0.108300
36.743000 0.107600
36.772300 0.106900
36.801500 0.106500
36.830800 0.106400
36.860000 0.104800
36.889300 0.103100
36.918500 0.101600
36.947800 0.100200
36.977000 0.099000
37.006300 0.097900
37.035500 0.097000
37.064800 0.096100
37.094000 0.095200
37.123300 0.094400
37.152500 0.093300
37.181700 0.092000
37.211000 0.090600
37.240200 0.089200
37.269500 0.087800
37.298700 0.086600
37.328000 0.085400
37.357200 0.084200
37.386500 0.084700
37.415700 0.083900
37.445000 0.083100
37.474200 0.082200
37.503500 0.081300
37.532700 0.080200
37.562000 0.078800
37.591200 0.077100
37.620500 0.075100
37.649700 0.072900
37.679000 0.070800
37.708200 0.068800
37.737500 0.067300
37.766700 0.065700
37.795900 0.064100
37.825200 0.062600
37.854400 0.061600
37.883700 0.060700
37.912900 0.059900
37.942200 0.059200
37.971400 0.058500
38.000700 0.057900
38.029900 0.057200
38.059200 0.056500
38.088400 0.055800
38.117700 0.054800
38.146900 0.053600
38.176200 0.052900
38.205400 0.052200
38.234700 0.051600
38.263900 0.051000
38.293200 0.050400
38.322400 0.049900
38.351700 0.049300
38.380900 0.048800
38.410100 0.048400
38.439400 0.048300
38.468600 0.049100
38.497900 0.049100
38.527100 0.049400
38.556400 0.050700
38.585600 0.050500
38.614900 0.049500
38.644100 0.048600
38.673400 0.047800
38.702600 0.047000
38.731900 0.046200
38.761100 0.045300
38.790400 0.044500
38.819600 0.043600
38.848900 0.042800
38.878100 0.041800
38.907400 0.040800
38.936600 0.039800
38.965900 0.038700
38.995100 0.037600
39.024300 0.036600
39.053600 0.035700
39.082800 0.034900
39.112100 0.034100
39.141300 0.033200
39.170600 0.032100
39.199800 0.031000
39.229100 0.029900
39.258300 0.028700
39.287600 0.027500
39.316800 0.026300
39.346100 0.025100
39.375300 0.023900
39.404600 0.022600
39.433800 0.021400
39.463100 0.020300
39.492300 0.019300
39.521600 0.018400
39.550800 0.017600
39.580000 0.016900
39.609300 0.016200
39.638500 0.015600
39.667800 0.015000
39.697000 0.014400
39.726300 0.013900
39.755500 0.013300
39.784800 0.012900
39.814000 0.012800
39.843300 0.012500
39.872500 0.011900
39.901800 0.011300
39.931000 0.010700
39.960300 0.010200
39.989500 0.009700
40.018800 0.009200
40.048000 0.008700
40.077300 0.008200
40.106500 0.007800
40.135800 0.007400
40.165000 0.007100
40.194200 0.006800
40.223500 0.006600
40.252700 0.006300
40.282000 0.005900
40.311200 0.005700
40.340500 0.005500
40.369700 0.005300
40.399000 0.005100
40.428200 0.005000
40.457500 0.004800
40.486700 0.004600
40.516000 0.004500
40.545200 0.004300
40.574500 0.004300
40.603700 0.004700
40.633000 0.005300
40.662200 0.005100
40.691500 0.004000
40.720700 0.003300
40.750000 0.002900
40.779200 0.002500
40.808400 0.002300
40.837700 0.002100
40.866900 0.001900
40.896200 0.001800
40.925400 0.001600
40.954700 0.001400
40.983900 0.001300
41.013200 0.001100
41.042400 0.001000
41.071700 0.000900
41.100900 0.000700
41.130200 0.000600
41.159400 0.000500
41.188700 0.000400
41.217900 0.000400
41.247200 0.000300
41.276400 0.000200
41.305700 0.000200
41.334900 0.000100
41.364200 0.000100
41.393400 0.000000
41.422600 0.000000
41.451900 0.000000
41.481100 0.000000
41.510400 0.000000
41.539600 0.000000
41.568900 0.000000
41.598100 0.000000
41.627400 0.000000
41.656600 0.000000
41.685900 0.000000
41.715100 0.000000
41.744400 0.000000
41.773600 0.000000
41.802900 0.000000
41.832100 0.000000
41.861400 0.000000
41.890600 0.000000
41.919900 0.000000
41.949100 0.000000
41.978400 0.000000
42.007600 0.000000
42.036800 0.000000
42.066100 0.000000
42.095300 0.000000
42.124600 0.000000
42.153800 0.000000
42.183100 0.000000
42.212300 0.000000
42.241600 0.000000
42.270800 0.000000
42.300100 0.000000
42.329300 0.000000
42.358600 0.000000
42.387800 0.000000
42.417100 0.000000
42.446300 0.000000
42.475600 0.000000
42.504800 0.000000
42.534100 0.000000
42.563300 0.000000
42.592600 0.000000
42.621800 0.000000
42.651000 0.000000
42.680300 0.000000
42.709500 0.000000
42.738800 0.000000
42.768000 0.000000
42.797300 0.000000
42.826500 0.000000
42.855800 0.000000
42.885000 0.000000
42.914300 0.000000
42.943500 0.000000
42.972800 0.000000
43.002000 0.000000
43.031300 0.000000
43.060500 0.000000
43.089800 0.000000
43.119000 0.000000
43.148300 0.000000
43.177500 0.000000
43.206800 0.000000
43.236000 0.000000
43.265200 0.000000
43.294500 0.000000
43.323700 0.000000
43.353000 0.000000
43.382200 0.000000
43.411500 0.000000
43.440700 0.000000
43.470000 0.000000
43.499200 0.000000
43.528500 0.000000
43.557700 0.000000
43.587000 0.000000
43.616200 0.000000
43.645500 0.000000
43.674700 0.000000
43.704000 0.000000
43.733200 0.000000
43.762500 0.000000
43.791700 0.000000
43.821000 0.000000
43.850200 0.000000
43.879400 0.000000
43.908700 0.000000
43.937900 0.000000
43.967200 0.000000
43.996400 0.000000
44.025700 0.000000
44.054900 0.000000
44.084200 0.000000
44.113400 0.000000
44.142700 0.000000
e
