set title 'mp-1096992 - Density of States'
set xlabel 'Energy (eV)'
set ylabel 'DOS (states/eV)'
set grid
set xrange [-10:10]
set yrange [0:84.219]
set xzeroaxis lt -1
set terminal png size 800,600
set output 'mp-1096992_dos_gnuplot.png'
plot '-' using 1:2 with lines title 'DOS'
-7.623600 0.000000
-7.610100 0.000000
-7.596600 0.000000
-7.583200 0.000000
-7.569700 0.000000
-7.556200 0.000000
-7.542700 0.000000
-7.529300 0.000000
-7.515800 0.000000
-7.502300 0.000000
-7.488800 0.000000
-7.475400 0.000000
-7.461900 0.000000
-7.448400 0.000000
-7.434900 0.000000
-7.421400 0.000000
-7.408000 0.000000
-7.394500 0.000000
-7.381000 0.000000
-7.367500 0.000000
-7.354100 0.000000
-7.340600 0.000000
-7.327100 0.000000
-7.313600 0.000000
-7.300200 0.000000
-7.286700 0.000000
-7.273200 0.000000
-7.259700 0.000000
-7.246300 0.000000
-7.232800 0.000000
-7.219300 0.000000
-7.205800 0.000000
-7.192400 0.000000
-7.178900 0.000000
-7.165400 0.000000
-7.151900 0.000000
-7.138500 0.000000
-7.125000 0.000000
-7.111500 0.000000
-7.098000 0.000000
-7.084600 0.000000
-7.071100 0.000000
-7.057600 0.000000
-7.044100 0.000000
-7.030700 0.000000
-7.017200 0.000000
-7.003700 0.000000
-6.990200 0.000000
-6.976800 0.000000
-6.963300 0.000000
-6.949800 0.000000
-6.936300 0.000000
-6.922900 0.000000
-6.909400 0.000000
-6.895900 0.000000
-6.882400 0.000000
-6.869000 0.000000
-6.855500 0.000000
-6.842000 0.000000
-6.828500 0.000000
-6.815100 0.000000
-6.801600 0.000000
-6.788100 0.000000
-6.774600 0.000000
-6.761100 0.000000
-6.747700 0.000000
-6.734200 0.000000
-6.720700 0.000000
-6.707200 0.000000
-6.693800 0.000000
-6.680300 0.000000
-6.666800 0.000000
-6.653300 0.000000
-6.639900 0.000000
-6.626400 0.000000
-6.612900 0.000000
-6.599400 0.000000
-6.586000 0.000000
-6.572500 0.000000
-6.559000 0.000000
-6.545500 0.000000
-6.532100 0.000000
-6.518600 0.000000
-6.505100 0.000000
-6.491600 0.000000
-6.478200 0.000000
-6.464700 0.000000
-6.451200 0.000000
-6.437700 0.000000
-6.424300 0.000000
-6.410800 0.000000
-6.397300 0.000900
-6.383800 0.135300
-6.370400 1.169800
-6.356900 2.660300
-6.343400 8.255700
-6.329900 14.727500
-6.316500 16.944900
-6.303000 21.064900
-6.289500 25.371300
-6.276000 30.366700
-6.262600 24.784800
-6.249100 21.291900
-6.235600 21.374100
-6.222100 31.354000
-6.208700 32.705200
-6.195200 26.007900
-6.181700 31.075900
-6.168200 35.934300
-6.154800 43.543200
-6.141300 48.006100
-6.127800 46.131800
-6.114300 30.569400
-6.100900 31.872200
-6.087400 27.877700
-6.073900 30.325800
-6.060400 44.103100
-6.046900 44.841800
-6.033500 34.512400
-6.020000 36.905800
-6.006500 23.369300
-5.993000 34.692000
-5.979600 41.838000
-5.966100 29.920200
-5.952600 24.204200
-5.939100 35.359000
-5.925700 48.760000
-5.912200 42.286600
-5.898700 27.811700
-5.885200 31.797500
-5.871800 26.408700
-5.858300 21.433200
-5.844800 23.418000
-5.831300 18.694300
-5.817900 28.520300
-5.804400 44.764200
-5.790900 30.682200
-5.777400 30.629800
-5.764000 21.317800
-5.750500 31.448100
-5.737000 53.267500
-5.723500 44.912300
-5.710100 32.786400
-5.696600 39.398000
-5.683100 65.844300
-5.669600 27.698000
-5.656200 42.834200
-5.642700 36.729800
-5.629200 39.567100
-5.615700 43.011100
-5.602300 62.233700
-5.588800 67.413800
-5.575300 65.744300
-5.561800 76.562300
-5.548400 69.830600
-5.534900 54.868200
-5.521400 49.717600
-5.507900 38.075900
-5.494500 46.147000
-5.481000 40.399600
-5.467500 42.727300
-5.454000 36.758000
-5.440600 38.628100
-5.427100 38.497700
-5.413600 32.786500
-5.400100 28.614800
-5.386700 25.927500
-5.373200 27.390400
-5.359700 28.970900
-5.346200 28.334200
-5.332700 29.218200
-5.319300 35.784400
-5.305800 35.711000
-5.292300 26.944300
-5.278800 41.155900
-5.265400 52.179900
-5.251900 34.722500
-5.238400 32.812500
-5.224900 1.803900
-5.211500 1.450000
-5.198000 1.370100
-5.184500 1.315400
-5.171000 1.264100
-5.157600 1.215500
-5.144100 1.169800
-5.130600 1.127700
-5.117100 1.093600
-5.103700 1.061300
-5.090200 1.040700
-5.076700 1.023900
-5.063200 1.011000
-5.049800 1.002000
-5.036300 0.996900
-5.022800 0.995200
-5.009300 0.995800
-4.995900 0.998200
-4.982400 1.000000
-4.968900 0.987700
-4.955400 0.979800
-4.942000 0.976700
-4.928500 0.975400
-4.915000 0.974400
-4.901500 0.973600
-4.888100 0.973000
-4.874600 0.972700
-4.861100 0.972600
-4.847600 0.972800
-4.834200 0.974100
-4.820700 0.976400
-4.807200 0.979900
-4.793700 0.984400
-4.780300 0.990000
-4.766800 1.002100
-4.753300 1.011000
-4.739800 1.020600
-4.726400 1.025600
-4.712900 1.033700
-4.699400 1.043400
-4.685900 1.053500
-4.672500 1.064200
-4.659000 1.075800
-4.645500 1.087800
-4.632000 1.100300
-4.618500 1.113300
-4.605100 1.126700
-4.591600 1.140600
-4.578100 1.155000
-4.564600 1.169900
-4.551200 1.185500
-4.537700 1.204800
-4.524200 1.230000
-4.510700 1.256900
-4.497300 1.286800
-4.483800 1.317200
-4.470300 1.343200
-4.456800 1.365100
-4.443400 1.383100
-4.429900 1.397500
-4.416400 1.412100
-4.402900 1.428200
-4.389500 1.450400
-4.376000 1.482500
-4.362500 1.514700
-4.349000 1.542200
-4.335600 1.565200
-4.322100 1.580800
-4.308600 1.577800
-4.295100 1.555600
-4.281700 1.514300
-4.268200 1.442300
-4.254700 1.375300
-4.241200 1.360900
-4.227800 1.347500
-4.214300 1.328100
-4.200800 1.310100
-4.187300 1.295100
-4.173900 1.283100
-4.160400 1.274000
-4.146900 1.263000
-4.133400 1.245000
-4.120000 1.220100
-4.106500 1.188300
-4.093000 1.160000
-4.079500 1.149700
-4.066100 1.134200
-4.052600 1.115800
-4.039100 1.100800
-4.025600 1.086400
-4.012200 1.072100
-3.998700 1.058000
-3.985200 1.044000
-3.971700 1.030100
-3.958200 1.016400
-3.944800 1.001100
-3.931300 0.977700
-3.917800 0.953800
-3.904300 0.929400
-3.890900 0.904400
-3.877400 0.878900
-3.863900 0.918700
-3.850400 0.818700
-3.837000 0.731100
-3.823500 0.658300
-3.810000 0.599500
-3.796500 0.553700
-3.783100 0.519700
-3.769600 0.498200
-3.756100 0.500000
-3.742600 0.502500
-3.729200 0.506800
-3.715700 0.515900
-3.702200 0.532900
-3.688700 0.560600
-3.675300 0.589100
-3.661800 0.617400
-3.648300 0.646100
-3.634800 0.675200
-3.621400 0.705600
-3.607900 0.742700
-3.594400 0.783800
-3.580900 0.822200
-3.567500 0.859500
-3.554000 0.897900
-3.540500 0.938600
-3.527000 0.981600
-3.513600 1.026800
-3.500100 1.060100
-3.486600 1.096900
-3.473100 1.134300
-3.459700 1.172500
-3.446200 1.325900
-3.432700 1.496400
-3.419200 1.403800
-3.405800 1.528100
-3.392300 1.657700
-3.378800 1.788400
-3.365300 1.920100
-3.351900 1.923700
-3.338400 1.895900
-3.324900 1.896800
-3.311400 1.914500
-3.298000 1.915300
-3.284500 1.897400
-3.271000 1.721000
-3.257500 1.669500
-3.244000 1.642300
-3.230600 1.618800
-3.217100 1.594900
-3.203600 1.570600
-3.190100 1.545900
-3.176700 1.530100
-3.163200 1.518100
-3.149700 1.511600
-3.136200 1.500100
-3.122800 1.485700
-3.109300 1.469200
-3.095800 1.449500
-3.082300 1.423700
-3.068900 1.397900
-3.055400 1.371800
-3.041900 1.345000
-3.028400 1.317500
-3.015000 1.299000
-3.001500 1.289400
-2.988000 1.280000
-2.974500 1.270300
-2.961100 1.261200
-2.947600 1.254200
-2.934100 1.249300
-2.920600 1.246500
-2.907200 1.245800
-2.893700 1.307200
-2.880200 1.318600
-2.866700 1.282400
-2.853300 1.291700
-2.839800 1.305600
-2.826300 1.324000
-2.812800 1.346800
-2.799400 1.374100
-2.785900 1.405800
-2.772400 1.442000
-2.758900 1.482600
-2.745500 1.469100
-2.732000 1.456700
-2.718500 1.469700
-2.705000 1.538900
-2.691600 1.609300
-2.678100 1.678100
-2.664600 1.745200
-2.651100 1.876300
-2.637700 1.851700
-2.624200 1.827800
-2.610700 1.805900
-2.597200 1.811000
-2.583800 1.910500
-2.570300 1.957600
-2.556800 2.299700
-2.543300 2.019000
-2.529800 2.059100
-2.516400 2.091700
-2.502900 2.123000
-2.489400 2.151800
-2.475900 2.175200
-2.462500 2.194400
-2.449000 2.204600
-2.435500 2.165100
-2.422000 2.116200
-2.408600 2.092800
-2.395100 2.061400
-2.381600 2.034300
-2.368100 2.012900
-2.354700 2.006800
-2.341200 2.012300
-2.327700 2.018600
-2.314200 2.025200
-2.300800 2.030700
-2.287300 2.040800
-2.273800 2.062200
-2.260300 2.075500
-2.246900 2.074100
-2.233400 2.058000
-2.219900 2.029700
-2.206400 2.001800
-2.193000 1.980700
-2.179500 1.966700
-2.166000 1.959000
-2.152500 1.956400
-2.139100 1.951300
-2.125600 1.943800
-2.112100 1.934000
-2.098600 1.922000
-2.085200 1.908400
-2.071700 1.891800
-2.058200 1.873700
-2.044700 1.858500
-2.031300 1.841300
-2.017800 1.825300
-2.004300 1.811600
-1.990800 1.799800
-1.977400 1.792100
-1.963900 1.794000
-1.950400 1.798800
-1.936900 1.803300
-1.923500 1.807500
-1.910000 1.811400
-1.896500 1.815000
-1.883000 1.818000
-1.869500 1.817000
-1.856100 1.817100
-1.842600 1.818400
-1.829100 1.820600
-1.815600 1.827700
-1.802200 1.957900
-1.788700 1.970500
-1.775200 1.969400
-1.761700 1.962000
-1.748300 1.948300
-1.734800 1.933500
-1.721300 1.930300
-1.707800 1.892100
-1.694400 1.895200
-1.680900 1.895200
-1.667400 1.892100
-1.653900 1.886000
-1.640500 1.875900
-1.627000 1.862000
-1.613500 1.846600
-1.600000 1.830600
-1.586600 1.814200
-1.573100 1.797300
-1.559600 1.780100
-1.546100 1.762700
-1.532700 1.745200
-1.519200 1.728300
-1.505700 1.713400
-1.492200 1.699100
-1.478800 1.685400
-1.465300 1.672800
-1.451800 1.657700
-1.438300 1.642000
-1.424900 1.628900
-1.411400 1.615900
-1.397900 1.602600
-1.384400 1.588900
-1.371000 1.574700
-1.357500 1.562600
-1.344000 1.572300
-1.330500 1.575300
-1.317100 1.578200
-1.303600 1.580900
-1.290100 1.585100
-1.276600 1.606900
-1.263200 1.612200
-1.249700 1.617600
-1.236200 1.624700
-1.222700 1.636000
-1.209300 1.643300
-1.195800 1.650900
-1.182300 1.658800
-1.168800 1.667000
-1.155300 1.675500
-1.141900 1.684300
-1.128400 1.693600
-1.114900 1.703400
-1.101400 1.734700
-1.088000 1.744000
-1.074500 1.753600
-1.061000 1.763400
-1.047500 1.773300
-1.034100 1.777600
-1.020600 1.772500
-1.007100 1.766900
-0.993600 1.771300
-0.980200 1.779300
-0.966700 1.791300
-0.953200 1.832800
-0.939700 1.915200
-0.926300 2.240000
-0.912800 2.484000
-0.899300 2.445300
-0.885800 2.458500
-0.872400 2.506000
-0.858900 2.604800
-0.845400 2.686800
-0.831900 2.770800
-0.818500 2.839900
-0.805000 2.895400
-0.791500 2.939600
-0.778000 2.945300
-0.764600 2.959300
-0.751100 2.962800
-0.737600 2.957500
-0.724100 2.995500
-0.710700 2.974000
-0.697200 3.065700
-0.683700 2.936900
-0.670200 2.823200
-0.656800 2.725800
-0.643300 2.630100
-0.629800 2.550800
-0.616300 2.625200
-0.602900 2.578600
-0.589400 2.415200
-0.575900 2.262000
-0.562400 2.118600
-0.549000 2.035300
-0.535500 1.950400
-0.522000 1.857700
-0.508500 1.754100
-0.495100 1.634700
-0.481600 1.528000
-0.468100 1.487100
-0.454600 1.484500
-0.441100 1.296500
-0.427700 1.157300
-0.414200 1.065800
-0.400700 0.998300
-0.387200 0.945300
-0.373800 0.905200
-0.360300 0.876400
-0.346800 0.853900
-0.333300 0.823900
-0.319900 0.784600
-0.306400 0.736200
-0.292900 0.679400
-0.279400 0.636300
-0.266000 0.604100
-0.252500 0.574100
-0.239000 0.546200
-0.225500 0.520300
-0.212100 0.496600
-0.198600 0.475100
-0.185100 0.456800
-0.171600 0.441600
-0.158200 0.429500
-0.144700 0.420700
-0.131200 0.371500
-0.117700 0.399300
-0.104300 0.378300
-0.090800 0.352400
-0.077300 0.321800
-0.063800 0.286400
-0.050400 0.246300
-0.036900 0.215300
-0.023400 0.189900
-0.009900 0.164700
0.003500 0.139700
0.017000 0.114800
0.030500 0.090000
0.044000 0.065400
0.057400 0.042400
0.070900 0.030600
0.084400 0.022300
0.097900 0.027300
0.111300 0.034400
0.124800 0.040200
0.138300 0.044600
0.151800 0.047700
0.165200 0.051900
0.178700 0.057900
0.192200 0.064200
0.205700 0.070700
0.219100 0.077600
0.232600 0.084800
0.246100 0.092300
0.259600 0.100100
0.273100 0.108300
0.286500 0.116700
0.300000 0.125400
0.313500 0.134500
0.327000 0.149200
0.340400 0.168400
0.353900 0.186200
0.367400 0.202800
0.380900 0.215100
0.394300 0.222900
0.407800 0.227600
0.421300 0.232300
0.434800 0.243500
0.448200 0.256500
0.461700 0.270400
0.475200 0.280600
0.488700 0.290300
0.502100 0.299700
0.515600 0.308700
0.529100 0.317400
0.542600 0.325800
0.556000 0.333900
0.569500 0.341600
0.583000 0.349000
0.596500 0.356100
0.609900 0.362900
0.623400 0.369900
0.636900 0.377400
0.650400 0.385100
0.663800 0.394000
0.677300 0.403600
0.690800 0.413300
0.704300 0.423100
0.717700 0.433100
0.731200 0.443100
0.744700 0.453300
0.758200 0.463500
0.771600 0.473800
0.785100 0.484300
0.798600 0.497100
0.812100 0.513800
0.825500 0.532300
0.839000 0.553400
0.852500 0.576600
0.866000 0.601600
0.879400 0.629400
0.892900 0.658800
0.906400 0.688700
0.919900 0.719100
0.933400 0.749900
0.946800 0.781300
0.960300 0.813200
0.973800 0.813000
0.987300 0.848000
1.000700 0.887300
1.014200 0.924700
1.027700 0.962600
1.041200 1.001200
1.054600 1.048400
1.068100 1.121900
1.081600 1.222300
1.095100 1.160300
1.108500 1.203000
1.122000 1.233500
1.135500 1.249500
1.149000 1.263600
1.162400 1.278900
1.175900 1.296400
1.189400 1.321300
1.202900 1.366300
1.216300 1.437900
1.229800 1.517100
1.243300 1.602000
1.256800 1.690300
1.270200 1.804700
1.283700 1.847500
1.297200 1.868100
1.310700 1.895400
1.324100 1.919400
1.337600 1.939800
1.351100 1.956800
1.364600 1.970100
1.378000 1.981500
1.391500 2.030900
1.405000 2.099200
1.418500 2.152600
1.431900 2.103300
1.445400 2.018900
1.458900 1.976000
1.472400 1.939700
1.485800 1.909500
1.499300 1.888200
1.512800 1.872500
1.526300 1.863000
1.539700 1.857100
1.553200 1.854300
1.566700 1.854500
1.580200 1.857100
1.593600 1.862300
1.607100 1.862600
1.620600 1.865300
1.634100 1.869700
1.647600 1.874700
1.661000 1.880300
1.674500 1.886400
1.688000 1.893800
1.701500 2.145100
1.714900 2.181700
1.728400 1.943000
1.741900 1.942500
1.755400 1.943200
1.768800 1.945100
1.782300 1.948000
1.795800 1.944900
1.809300 1.936000
1.822700 1.924600
1.836200 1.911800
1.849700 1.913800
1.863200 1.947200
1.876600 1.965900
1.890100 1.970400
1.903600 1.974200
1.917100 1.978200
1.930500 1.978400
1.944000 2.014600
1.957500 2.051600
1.971000 2.096300
1.984400 2.160100
1.997900 2.236200
2.011400 2.307900
2.024900 2.375000
2.038300 2.437300
2.051800 2.495200
2.065300 2.549200
2.078800 2.604900
2.092200 2.700600
2.105700 2.778300
2.119200 2.787500
2.132700 2.713500
2.146100 2.641700
2.159600 2.577500
2.173100 2.511900
2.186600 2.450700
2.200000 2.391200
2.213500 2.333000
2.227000 2.296500
2.240500 2.214700
2.253900 2.140400
2.267400 2.136900
2.280900 2.145200
2.294400 2.191900
2.307800 2.244500
2.321300 2.291000
2.334800 2.331200
2.348300 2.365000
2.361800 2.394200
2.375200 2.420900
2.388700 2.452000
2.402200 2.483700
2.415700 2.515800
2.429100 2.548400
2.442600 2.585000
2.456100 2.565100
2.469600 2.597300
2.483000 2.632000
2.496500 2.669300
2.510000 2.710100
2.523500 2.733900
2.536900 2.737900
2.550400 2.725600
2.563900 2.705800
2.577400 2.674300
2.590800 2.631500
2.604300 2.607300
2.617800 2.575900
2.631300 2.535000
2.644700 2.483800
2.658200 2.439100
2.671700 2.401100
2.685200 2.496100
2.698600 2.369500
2.712100 2.228000
2.725600 2.172700
2.739100 2.138400
2.752500 2.175700
2.766000 2.202300
2.779500 2.237700
2.793000 2.281900
2.806400 2.335200
2.819900 2.396200
2.833400 2.464000
2.846900 2.701500
2.860300 2.716800
2.873800 2.712000
2.887300 2.688700
2.900800 2.647800
2.914200 2.586000
2.927700 2.550300
2.941200 2.526700
2.954700 2.528600
2.968100 2.502000
2.981600 2.476900
2.995100 2.455700
3.008600 2.435800
3.022100 2.419200
3.035500 2.654600
3.049000 2.254400
3.062500 2.255900
3.076000 2.260200
3.089400 2.269500
3.102900 2.296100
3.116400 2.354400
3.129900 2.397800
3.143300 2.245800
3.156800 2.238100
3.170300 2.228300
3.183800 2.212000
3.197200 2.191700
3.210700 2.169500
3.224200 2.146000
3.237700 2.121200
3.251100 2.094800
3.264600 2.067300
3.278100 2.038800
3.291600 2.016700
3.305000 1.989900
3.318500 1.968900
3.332000 1.947800
3.345500 1.928500
3.358900 1.912600
3.372400 1.903200
3.385900 1.901000
3.399400 1.908500
3.412800 1.906000
3.426300 1.885600
3.439800 1.855200
3.453300 1.836800
3.466700 1.799200
3.480200 1.765000
3.493700 1.739600
3.507200 1.780800
3.520600 1.805100
3.534100 1.834500
3.547600 1.872900
3.561100 1.940100
3.574500 2.012700
3.588000 2.049300
3.601500 2.085100
3.615000 2.120200
3.628400 2.156500
3.641900 2.137900
3.655400 2.149300
3.668900 2.148700
3.682300 2.142300
3.695800 2.130200
3.709300 2.118800
3.722800 2.111600
3.736300 2.114800
3.749700 2.117700
3.763200 2.118800
3.776700 2.122800
3.790200 2.129700
3.803600 2.140400
3.817100 2.165800
3.830600 2.198000
3.844100 2.260700
3.857500 2.292800
3.871000 2.319500
3.884500 2.343200
3.898000 2.367700
3.911400 2.367500
3.924900 2.377500
3.938400 2.419300
3.951900 2.461500
3.965300 2.446500
3.978800 2.427000
3.992300 2.414900
4.005800 2.388500
4.019200 2.393500
4.032700 2.401700
4.046200 2.455900
4.059700 2.461400
4.073100 2.464800
4.086600 2.467100
4.100100 2.470700
4.113600 2.473600
4.127000 2.475600
4.140500 2.478300
4.154000 2.480300
4.167500 2.481300
4.180900 2.805500
4.194400 2.490800
4.207900 2.501500
4.221400 2.507100
4.234800 2.508300
4.248300 2.524500
4.261800 2.497000
4.275300 2.478200
4.288700 2.471800
4.302200 2.547600
4.315700 2.513900
4.329200 2.513100
4.342600 2.505400
4.356100 2.480000
4.369600 2.427100
4.383100 2.369700
4.396500 2.308000
4.410000 2.189800
4.423500 2.098200
4.437000 2.065800
4.450500 2.035700
4.463900 2.011600
4.477400 1.997500
4.490900 1.991300
4.504400 1.993200
4.517800 2.001800
4.531300 2.008300
4.544800 2.009300
4.558300 2.006600
4.571700 2.024300
4.585200 2.048900
4.598700 2.035000
4.612200 2.053000
4.625600 2.074100
4.639100 2.097500
4.652600 2.123200
4.666100 2.128400
4.679500 2.136000
4.693000 2.139300
4.706500 2.143700
4.720000 2.165700
4.733400 2.238900
4.746900 2.346500
4.760400 2.508400
4.773900 2.715500
4.787300 2.911500
4.800800 3.054300
4.814300 2.886800
4.827800 2.838900
4.841200 2.784300
4.854700 2.728900
4.868200 2.666200
4.881700 2.611800
4.895100 2.558000
4.908600 2.504800
4.922100 2.513400
4.935600 2.437100
4.949000 2.338900
4.962500 2.263300
4.976000 2.177000
4.989500 2.072600
5.002900 2.001900
5.016400 1.963300
5.029900 1.957800
5.043400 1.957500
5.056800 1.960300
5.070300 1.964600
5.083800 1.970000
5.097300 1.975500
5.110800 1.980800
5.124200 1.986200
5.137700 1.991800
5.151200 2.009000
5.164700 2.016000
5.178100 2.044400
5.191600 2.073800
5.205100 2.107400
5.218600 2.148300
5.232000 2.224100
5.245500 2.334300
5.259000 2.433900
5.272500 2.395300
5.285900 2.455500
5.299400 2.497600
5.312900 2.533200
5.326400 2.579400
5.339800 2.610600
5.353300 2.625400
5.366800 2.630400
5.380300 2.650700
5.393700 2.670100
5.407200 2.692100
5.420700 2.721900
5.434200 2.753600
5.447600 2.784500
5.461100 2.776700
5.474600 2.767200
5.488100 2.839300
5.501500 2.856700
5.515000 2.880300
5.528500 2.936300
5.542000 2.695900
5.555400 2.683800
5.568900 2.662400
5.582400 2.644100
5.595900 2.674700
5.609300 2.640300
5.622800 2.601800
5.636300 2.559400
5.649800 2.513000
5.663200 2.462600
5.676700 2.415500
5.690200 2.360200
5.703700 2.288800
5.717100 2.212800
5.730600 2.141700
5.744100 2.078000
5.757600 2.021600
5.771000 1.972700
5.784500 1.897500
5.798000 1.872600
5.811500 1.849800
5.825000 1.829300
5.838400 1.812000
5.851900 1.798000
5.865400 1.787200
5.878900 1.779200
5.892300 1.766100
5.905800 1.797300
5.919300 1.812000
5.932800 1.852500
5.946200 1.893200
5.959700 1.896000
5.973200 1.893000
5.986700 1.882700
6.000100 1.869100
6.013600 1.881800
6.027100 1.887100
6.040600 1.900500
6.054000 1.895500
6.067500 1.914800
6.081000 1.936300
6.094500 1.960600
6.107900 1.987800
6.121400 2.019700
6.134900 2.056200
6.148400 2.097300
6.161800 2.188300
6.175300 2.672000
6.188800 2.774000
6.202300 2.639600
6.215700 2.584500
6.229200 2.559800
6.242700 2.586600
6.256200 2.642300
6.269600 2.684700
6.283100 2.827600
6.296600 2.841200
6.310100 2.881700
6.323500 2.946200
6.337000 3.013900
6.350500 3.079900
6.364000 3.151300
6.377400 3.240200
6.390900 3.250400
6.404400 3.229600
6.417900 3.241400
6.431300 3.223600
6.444800 3.202500
6.458300 3.185600
6.471800 3.170500
6.485200 3.160600
6.498700 3.153000
6.512200 3.146200
6.525700 3.124400
6.539200 3.090700
6.552600 3.051500
6.566100 3.006900
6.579600 2.988000
6.593100 2.977500
6.606500 2.971900
6.620000 3.116700
6.633500 3.080200
6.647000 3.090600
6.660400 3.134200
6.673900 3.187700
6.687400 3.161400
6.700900 3.091400
6.714300 2.977900
6.727800 2.852300
6.741300 2.755700
6.754800 2.677700
6.768200 2.635100
6.781700 2.611900
6.795200 2.620100
6.808700 2.609700
6.822100 2.609200
6.835600 2.649300
6.849100 2.744700
6.862600 2.702600
6.876000 2.657000
6.889500 2.625900
6.903000 2.604600
6.916500 2.583000
6.929900 2.571500
6.943400 2.564900
6.956900 2.559000
6.970400 2.554400
6.983800 2.557600
6.997300 2.580100
7.010800 2.634100
7.024300 2.633200
7.037700 2.609400
7.051200 2.586400
7.064700 2.562500
7.078200 2.595500
7.091600 2.620400
7.105100 2.637500
7.118600 2.657700
7.132100 2.692300
7.145500 2.715000
7.159000 2.771200
7.172500 2.679500
7.186000 2.611600
7.199400 2.627700
7.212900 2.657900
7.226400 2.668400
7.239900 2.679900
7.253400 2.692200
7.266800 2.919700
7.280300 2.958200
7.293800 3.033400
7.307300 2.913800
7.320700 2.898300
7.334200 2.919800
7.347700 2.931600
7.361200 2.937400
7.374600 2.938000
7.388100 2.932300
7.401600 2.927300
7.415100 2.923100
7.428500 2.919900
7.442000 2.899700
7.455500 2.903700
7.469000 2.895000
7.482400 2.876700
7.495900 2.854700
7.509400 2.864600
7.522900 2.878800
7.536300 2.896900
7.549800 2.933500
7.563300 3.009800
7.576800 3.115200
7.590200 3.247000
7.603700 3.402700
7.617200 3.560300
7.630700 3.427200
7.644100 3.350300
7.657600 3.307100
7.671100 3.296200
7.684600 3.293500
7.698000 3.298300
7.711500 3.346100
7.725000 3.396200
7.738500 3.450100
7.751900 3.505200
7.765400 3.576400
7.778900 3.666600
7.792400 3.723000
7.805800 3.770000
7.819300 3.692600
7.832800 3.703000
7.846300 3.706700
7.859700 3.702200
7.873200 3.687700
7.886700 3.671100
7.900200 3.680400
7.913700 3.753600
7.927100 3.892100
7.940600 3.851600
7.954100 3.906600
7.967600 3.952700
7.981000 4.006400
7.994500 4.056500
8.008000 4.072900
8.021500 4.077000
8.034900 4.117800
8.048400 4.031000
8.061900 3.972400
8.075400 3.889000
8.088800 3.816800
8.102300 3.745400
8.115800 3.659800
8.129300 3.599900
8.142700 3.538800
8.156200 3.476500
8.169700 3.411600
8.183200 3.358500
8.196600 3.315900
8.210100 3.293300
8.223600 3.272500
8.237100 3.261400
8.250500 3.244500
8.264000 3.230400
8.277500 3.240900
8.291000 3.229700
8.304400 3.210700
8.317900 3.134300
8.331400 3.086100
8.344900 3.054700
8.358300 3.020300
8.371800 2.977500
8.385300 2.891400
8.398800 2.833000
8.412200 2.790300
8.425700 2.761200
8.439200 2.738000
8.452700 2.724100
8.466100 2.714400
8.479600 2.708100
8.493100 2.700900
8.506600 2.691900
8.520000 2.686800
8.533500 2.689700
8.547000 2.697100
8.560500 2.876500
8.573900 2.754400
8.587400 2.752100
8.600900 2.761200
8.614400 2.775000
8.627900 2.776400
8.641300 2.775600
8.654800 2.775100
8.668300 2.775100
8.681800 2.775200
8.695200 2.775500
8.708700 2.774700
8.722200 2.772300
8.735700 2.771600
8.749100 2.774400
8.762600 2.781200
8.776100 2.769300
8.789600 2.783100
8.803000 2.790600
8.816500 2.780000
8.830000 2.750600
8.843500 2.626100
8.856900 2.559100
8.870400 2.545000
8.883900 2.531800
8.897400 2.515600
8.910800 2.501600
8.924300 2.487200
8.937800 2.472100
8.951300 2.456100
8.964700 2.441200
8.978200 2.433800
8.991700 2.433100
9.005200 2.441800
9.018600 2.455000
9.032100 2.460800
9.045600 2.481600
9.059100 2.500400
9.072500 2.515000
9.086000 2.538800
9.099500 2.571700
9.113000 2.613900
9.126400 2.656900
9.139900 2.708000
9.153400 2.773600
9.166900 2.845800
9.180300 2.901200
9.193800 2.932100
9.207300 2.844200
9.220800 2.814500
9.234200 2.727700
9.247700 2.669100
9.261200 2.628000
9.274700 2.597600
9.288100 2.575400
9.301600 2.556500
9.315100 2.537900
9.328600 2.526400
9.342100 2.554400
9.355500 2.554800
9.369000 2.562000
9.382500 2.574300
9.396000 2.498000
9.409400 2.485700
9.422900 2.477900
9.436400 2.472800
9.449900 2.469900
9.463300 2.467900
9.476800 2.466600
9.490300 2.464800
9.503800 2.463500
9.517200 2.460300
9.530700 2.461700
9.544200 2.462200
9.557700 2.462800
9.571100 2.476300
9.584600 2.516400
9.598100 2.611600
9.611600 2.660600
9.625000 2.711000
9.638500 2.763100
9.652000 2.816800
9.665500 2.866100
9.678900 2.902000
9.692400 2.924900
9.705900 2.932600
9.719400 2.930500
9.732800 2.921600
9.746300 2.914700
9.759800 2.901000
9.773300 2.880600
9.786700 2.852600
9.800200 2.814200
9.813700 2.775900
9.827200 2.739100
9.840600 2.703700
9.854100 2.724000
9.867600 2.691500
9.881100 2.660500
9.894500 2.629000
9.908000 2.595200
9.921500 2.563200
9.935000 2.534700
9.948400 2.512000
9.961900 2.521900
9.975400 2.540500
9.988900 2.473900
10.002400 2.449100
10.015800 2.415600
10.029300 2.410300
10.042800 2.338400
10.056300 2.311500
10.069700 2.295100
10.083200 2.279600
10.096700 2.264200
10.110200 2.248500
10.123600 2.230700
10.137100 2.210200
10.150600 2.171200
10.164100 2.108900
10.177500 2.094700
10.191000 2.082300
10.204500 2.069400
10.218000 2.062200
10.231400 2.072400
10.244900 2.077000
10.258400 2.068600
10.271900 2.071600
10.285300 2.072200
10.298800 2.062500
10.312300 2.042600
10.325800 2.020400
10.339200 2.023100
10.352700 2.021000
10.366200 2.013700
10.379700 2.003000
10.393100 1.990900
10.406600 1.977700
10.420100 1.967900
10.433600 1.961400
10.447000 1.944900
10.460500 1.918700
10.474000 1.882700
10.487500 1.853300
10.500900 1.838700
10.514400 1.825300
10.527900 1.811000
10.541400 1.796900
10.554800 1.783900
10.568300 1.772100
10.581800 1.756100
10.595300 1.701500
10.608700 1.698700
10.622200 1.695200
10.635700 1.690700
10.649200 1.685600
10.662600 1.680200
10.676100 1.674500
10.689600 1.668300
10.703100 1.661700
10.716600 1.870900
10.730000 1.946200
10.743500 2.072600
10.757000 2.294400
10.770500 2.136200
10.783900 2.133200
10.797400 2.127300
10.810900 2.117500
10.824400 2.106900
10.837800 2.096100
10.851300 2.092400
10.864800 2.097400
10.878300 2.105500
10.891700 2.112100
10.905200 2.115100
10.918700 2.117200
10.932200 2.105400
10.945600 2.098600
10.959100 2.095000
10.972600 2.093200
10.986100 2.092200
10.999500 2.091900
11.013000 2.093800
11.026500 2.099000
11.040000 2.098500
11.053400 2.148600
11.066900 2.124400
11.080400 2.077200
11.093900 2.043000
11.107300 2.018300
11.120800 1.985900
11.134300 1.945600
11.147800 1.897700
11.161200 1.860400
11.174700 1.822900
11.188200 1.791000
11.201700 1.762900
11.215100 1.720500
11.228600 1.664600
11.242100 1.654000
11.255600 1.517300
11.269000 1.528500
11.282500 1.524500
11.296000 1.484400
11.309500 1.444200
11.322900 1.414100
11.336400 1.423600
11.349900 1.429400
11.363400 1.428400
11.376800 1.434400
11.390300 1.442800
11.403800 1.463500
11.417300 1.484900
11.430800 1.512900
11.444200 1.549500
11.457700 1.594400
11.471200 1.667800
11.484700 1.786500
11.498100 1.881600
11.511600 1.985300
11.525100 2.090300
11.538600 2.196800
11.552000 2.326600
11.565500 2.544300
11.579000 3.267300
11.592500 3.873600
11.605900 4.273800
11.619400 4.446200
11.632900 4.201900
11.646400 3.867200
11.659800 3.661200
11.673300 3.503000
11.686800 3.400900
11.700300 3.747700
11.713700 3.795500
11.727200 2.814400
11.740700 2.688100
11.754200 2.660600
11.767600 2.629700
11.781100 2.596900
11.794600 2.559500
11.808100 2.504600
11.821500 2.430300
11.835000 2.391500
11.848500 2.357700
11.862000 2.340700
11.875400 2.325300
11.888900 2.314700
11.902400 2.286800
11.915900 2.291900
11.929300 2.359700
11.942800 2.336500
11.956300 2.333000
11.969800 2.353800
11.983200 2.413000
11.996700 2.555200
12.010200 2.707700
12.023700 2.882900
12.037100 3.070900
12.050600 3.299900
12.064100 3.519200
12.077600 3.750700
12.091000 3.999100
12.104500 4.278800
12.118000 4.366700
12.131500 4.201700
12.145000 4.137800
12.158400 4.119900
12.171900 4.100900
12.185400 4.072900
12.198900 4.036200
12.212300 3.993000
12.225800 3.939500
12.239300 3.885600
12.252800 3.830000
12.266200 3.766200
12.279700 3.703300
12.293200 3.624500
12.306700 3.571100
12.320100 3.650600
12.333600 3.716300
12.347100 3.788200
12.360600 3.831700
12.374000 4.022300
12.387500 3.319600
12.401000 3.340800
12.414500 3.390900
12.427900 3.467000
12.441400 3.552400
12.454900 3.654700
12.468400 3.738200
12.481800 3.844300
12.495300 3.956500
12.508800 4.077700
12.522300 4.200400
12.535700 4.329600
12.549200 4.574700
12.562700 4.692700
12.576200 4.691600
12.589600 4.726100
12.603100 4.762800
12.616600 4.725100
12.630100 4.600100
12.643500 4.369500
12.657000 4.130800
12.670500 4.077300
12.684000 4.041600
12.697400 3.976800
12.710900 4.045400
12.724400 4.138100
12.737900 4.206400
12.751300 4.183100
12.764800 4.100100
12.778300 4.075700
12.791800 4.186800
12.805300 4.293800
12.818700 4.369200
12.832200 4.409300
12.845700 4.422600
12.859200 4.478800
12.872600 4.558000
12.886100 4.732900
12.899600 4.819900
12.913100 4.905900
12.926500 4.992900
12.940000 5.081600
12.953500 5.162500
12.967000 5.229500
12.980400 5.272200
12.993900 5.316300
13.007400 5.346700
13.020900 5.333500
13.034300 5.246300
13.047800 5.206800
13.061300 5.162000
13.074800 5.127400
13.088200 5.141300
13.101700 5.154700
13.115200 4.764200
13.128700 4.654900
13.142100 4.631100
13.155600 4.635500
13.169100 4.629100
13.182600 4.645900
13.196000 4.655900
13.209500 4.646800
13.223000 4.756100
13.236500 4.647700
13.249900 4.509800
13.263400 4.371700
13.276900 4.261000
13.290400 4.168600
13.303800 4.095800
13.317300 4.043300
13.330800 4.025700
13.344300 4.021000
13.357700 4.020000
13.371200 4.015900
13.384700 4.013700
13.398200 4.000900
13.411600 3.969100
13.425100 3.939400
13.438600 3.897500
13.452100 3.925200
13.465500 3.853200
13.479000 3.788300
13.492500 3.850400
13.506000 3.768900
13.519500 3.569100
13.532900 3.579300
13.546400 3.604600
13.559900 3.671600
13.573400 3.733600
13.586800 4.018800
13.600300 4.115400
13.613800 4.088700
13.627300 4.050900
13.640700 4.007700
13.654200 3.931200
13.667700 3.870000
13.681200 3.782500
13.694600 3.696300
13.708100 3.664600
13.721600 3.635600
13.735100 3.497100
13.748500 3.456100
13.762000 3.443300
13.775500 3.437200
13.789000 3.427600
13.802400 3.383100
13.815900 3.367000
13.829400 3.391500
13.842900 3.401000
13.856300 3.386000
13.869800 3.197000
13.883300 3.206600
13.896800 3.224800
13.910200 3.243900
13.923700 3.264200
13.937200 3.375200
13.950700 3.363300
13.964100 3.476600
13.977600 3.348600
13.991100 3.298500
14.004600 3.284400
14.018000 3.291000
14.031500 3.303500
14.045000 3.321200
14.058500 3.355500
14.071900 3.402400
14.085400 3.455900
14.098900 3.518000
14.112400 3.584000
14.125800 3.598500
14.139300 3.652700
14.152800 3.694400
14.166300 3.776600
14.179700 3.790100
14.193200 3.798100
14.206700 3.818600
14.220200 3.837300
14.233700 3.849800
14.247100 3.863900
14.260600 4.931000
14.274100 3.911800
14.287600 3.944700
14.301000 3.975200
14.314500 4.016900
14.328000 4.052300
14.341500 4.090200
14.354900 4.126900
14.368400 4.162200
14.381900 4.197000
14.395400 4.232200
14.408800 4.268800
14.422300 4.292300
14.435800 4.273300
14.449300 4.316600
14.462700 4.358100
14.476200 4.378400
14.489700 4.401800
14.503200 4.426700
14.516600 4.449600
14.530100 4.457700
14.543600 4.477600
14.557100 4.498500
14.570500 4.520500
14.584000 4.543000
14.597500 4.624300
14.611000 4.683500
14.624400 4.789000
14.637900 4.841700
14.651400 4.839000
14.664900 4.907700
14.678300 5.000300
14.691800 4.813300
14.705300 4.794000
14.718800 4.770600
14.732200 4.778700
14.745700 4.685400
14.759200 4.673100
14.772700 4.652700
14.786100 4.757500
14.799600 4.721800
14.813100 4.670900
14.826600 4.610600
14.840000 4.546800
14.853500 4.490800
14.867000 4.442800
14.880500 4.396900
14.894000 4.328700
14.907400 4.272600
14.920900 4.216700
14.934400 4.186400
14.947900 4.166200
14.961300 4.153600
14.974800 4.145800
14.988300 4.146500
15.001800 4.151600
15.015200 4.155500
15.028700 4.149300
15.042200 4.098800
15.055700 4.097600
15.069100 4.098700
15.082600 4.085500
15.096100 4.101400
15.109600 4.119300
15.123000 4.141100
15.136500 4.166900
15.150000 4.190100
15.163500 4.201700
15.176900 4.231700
15.190400 4.287800
15.203900 4.337700
15.217400 4.353100
15.230800 4.352900
15.244300 4.347900
15.257800 4.347000
15.271300 4.347800
15.284700 4.324100
15.298200 4.330600
15.311700 4.313500
15.325200 4.294600
15.338600 4.211900
15.352100 4.104900
15.365600 4.036700
15.379100 3.928600
15.392500 3.856800
15.406000 3.820400
15.419500 3.786500
15.433000 3.755200
15.446400 3.747500
15.459900 3.748200
15.473400 3.753000
15.486900 3.768900
15.500300 3.788100
15.513800 3.807300
15.527300 3.817400
15.540800 3.828900
15.554200 3.894100
15.567700 4.078000
15.581200 4.151900
15.594700 4.170900
15.608200 4.143200
15.621600 4.116800
15.635100 4.104300
15.648600 3.977600
15.662100 3.884200
15.675500 3.893100
15.689000 3.888500
15.702500 3.873000
15.716000 3.830900
15.729400 3.806100
15.742900 3.887100
15.756400 3.822500
15.769900 3.852900
15.783300 4.065600
15.796800 4.751600
15.810300 4.544300
15.823800 4.589100
15.837200 4.540500
15.850700 4.496400
15.864200 4.427600
15.877700 4.270700
15.891100 4.052500
15.904600 3.849800
15.918100 3.648400
15.931600 3.375500
15.945000 3.235900
15.958500 3.186900
15.972000 3.089600
15.985500 3.036400
15.998900 3.027100
16.012400 3.051900
16.025900 3.097200
16.039400 3.102500
16.052800 3.117100
16.066300 3.301400
16.079800 3.254500
16.093300 2.953900
16.106700 2.875700
16.120200 2.752900
16.133700 2.504000
16.147200 2.458700
16.160600 2.415400
16.174100 2.383000
16.187600 2.365400
16.201100 2.487500
16.214500 2.446000
16.228000 2.438400
16.241500 3.008300
16.255000 2.494800
16.268400 2.532000
16.281900 2.569400
16.295400 2.614400
16.308900 2.675100
16.322400 2.747700
16.335800 2.833400
16.349300 2.931800
16.362800 3.141500
16.376300 3.004200
16.389700 3.042000
16.403200 3.080300
16.416700 3.116600
16.430200 3.137800
16.443600 3.152000
16.457100 3.157900
16.470600 3.156600
16.484100 3.138900
16.497500 3.113700
16.511000 3.116200
16.524500 3.126000
16.538000 3.146700
16.551400 3.155600
16.564900 3.187900
16.578400 3.221100
16.591900 3.236600
16.605300 3.245500
16.618800 3.251100
16.632300 3.253300
16.645800 3.254900
16.659200 3.255100
16.672700 3.257600
16.686200 3.281700
16.699700 3.312100
16.713100 3.339600
16.726600 3.476100
16.740100 3.445600
16.753600 3.420400
16.767000 3.381300
16.780500 3.323200
16.794000 3.242200
16.807500 3.150900
16.820900 3.087000
16.834400 3.054800
16.847900 3.047600
16.861400 3.040200
16.874800 3.031000
16.888300 3.007800
16.901800 3.016300
16.915300 3.040700
16.928700 3.072800
16.942200 3.111100
16.955700 3.155600
16.969200 3.206200
16.982600 3.260700
16.996100 3.318400
17.009600 3.335800
17.023100 3.389200
17.036600 3.441300
17.050000 3.491200
17.063500 3.544500
17.077000 3.617000
17.090500 3.675900
17.103900 3.731300
17.117400 3.824200
17.130900 3.964000
17.144400 4.013900
17.157800 3.930800
17.171300 3.715100
17.184800 3.395800
17.198300 3.068200
17.211700 2.800300
17.225200 2.589800
17.238700 2.482200
17.252200 2.435300
17.265600 2.381400
17.279100 2.324900
17.292600 2.259900
17.306100 2.185600
17.319500 2.098300
17.333000 2.023000
17.346500 1.954400
17.360000 1.884200
17.373400 1.812000
17.386900 1.737800
17.400400 1.661700
17.413900 1.583600
17.427300 1.504100
17.440800 1.429200
17.454300 1.359400
17.467800 1.309600
17.481200 1.312900
17.494700 1.210500
17.508200 1.122100
17.521700 1.021500
17.535100 0.935600
17.548600 0.867100
17.562100 0.808600
17.575600 1.016800
17.589000 0.866500
17.602500 0.757300
17.616000 0.679000
17.629500 0.608200
17.642900 0.542900
17.656400 0.483200
17.669900 0.428700
17.683400 0.379000
17.696900 0.334100
17.710300 0.294100
17.723800 0.258800
17.737300 0.228400
17.750800 0.202100
17.764200 0.179400
17.777700 0.159800
17.791200 0.142800
17.804700 0.128100
17.818100 0.114600
17.831600 0.102000
17.845100 0.090200
17.858600 0.079200
17.872000 0.069000
17.885500 0.059500
17.899000 0.050700
17.912500 0.042800
17.925900 0.035600
17.939400 0.029100
17.952900 0.023400
17.966400 0.018400
17.979800 0.014300
17.993300 0.011100
18.006800 0.008400
18.020300 0.006100
18.033700 0.004200
18.047200 0.002700
18.060700 0.001500
18.074200 0.000700
18.087600 0.000200
18.101100 0.000000
18.114600 0.000000
18.128100 0.000000
18.141500 0.000000
18.155000 0.000000
18.168500 0.000000
18.182000 0.000000
18.195400 0.000000
18.208900 0.000000
18.222400 0.000000
18.235900 0.000000
18.249300 0.000000
18.262800 0.000000
18.276300 0.000000
18.289800 0.000000
18.303200 0.000000
18.316700 0.000000
18.330200 0.000000
18.343700 0.000000
18.357100 0.000000
18.370600 0.000000
18.384100 0.000000
18.397600 0.000000
18.411100 0.000000
18.424500 0.000000
18.438000 0.000000
18.451500 0.000000
18.465000 0.000000
18.478400 0.000000
18.491900 0.000000
18.505400 0.000000
18.518900 0.000000
18.532300 0.000000
18.545800 0.000000
18.559300 0.000000
18.572800 0.000000
18.586200 0.000000
18.599700 0.000000
18.613200 0.000000
18.626700 0.000000
18.640100 0.000000
18.653600 0.000000
18.667100 0.000000
18.680600 0.000000
18.694000 0.000000
18.707500 0.000000
18.721000 0.000000
18.734500 0.000000
18.747900 0.000000
18.761400 0.000000
18.774900 0.000000
18.788400 0.000000
18.801800 0.000000
18.815300 0.000000
18.828800 0.000000
18.842300 0.000000
18.855700 0.000000
18.869200 0.000000
18.882700 0.000000
18.896200 0.000000
18.909600 0.000000
18.923100 0.000000
18.936600 0.000000
18.950100 0.000000
18.963500 0.000000
18.977000 0.000000
18.990500 0.000000
19.004000 0.000000
19.017400 0.000000
19.030900 0.000000
19.044400 0.000000
19.057900 0.000000
19.071300 0.000000
19.084800 0.000000
19.098300 0.000000
19.111800 0.000000
19.125300 0.000000
19.138700 0.000000
19.152200 0.000000
19.165700 0.000000
19.179200 0.000000
19.192600 0.000000
19.206100 0.000000
19.219600 0.000000
19.233100 0.000000
19.246500 0.000000
19.260000 0.000000
19.273500 0.000000
19.287000 0.000000
19.300400 0.000000
19.313900 0.000000
19.327400 0.000000
e
