set title 'mp-2753 - Density of States'
set xlabel 'Energy (eV)'
set ylabel 'DOS (states/eV)'
set grid
set xrange [-10:10]
set yrange [0:1381.857]
set xzeroaxis lt -1
set terminal png size 800,600
set output 'mp-2753_dos_gnuplot.png'
plot '-' using 1:2 with lines title 'DOS'
-10.312200 0.000000
-10.299300 0.000000
-10.286400 0.000000
-10.273500 0.000000
-10.260600 0.000000
-10.247800 0.000000
-10.234900 0.000000
-10.222000 0.000000
-10.209100 0.000000
-10.196200 0.000000
-10.183300 0.000000
-10.170400 0.000000
-10.157500 0.000000
-10.144700 0.000000
-10.131800 0.000000
-10.118900 0.000000
-10.106000 0.000000
-10.093100 0.000000
-10.080200 0.000000
-10.067300 0.000000
-10.054400 0.000000
-10.041600 0.000000
-10.028700 0.000000
-10.015800 0.000000
-10.002900 0.000000
-9.990000 0.000000
-9.977100 0.000000
-9.964200 0.000000
-9.951300 0.000000
-9.938500 0.000000
-9.925600 0.000000
-9.912700 0.000000
-9.899800 0.000000
-9.886900 0.000000
-9.874000 0.000000
-9.861100 0.000000
-9.848200 0.000000
-9.835400 0.000000
-9.822500 0.000000
-9.809600 0.000000
-9.796700 0.000000
-9.783800 0.000000
-9.770900 0.000000
-9.758000 0.000000
-9.745100 0.000000
-9.732300 0.000000
-9.719400 0.000000
-9.706500 0.000000
-9.693600 0.000000
-9.680700 0.000000
-9.667800 0.000000
-9.654900 0.000000
-9.642000 0.000000
-9.629200 0.000000
-9.616300 0.000000
-9.603400 0.000000
-9.590500 0.000000
-9.577600 0.000000
-9.564700 0.000000
-9.551800 0.000000
-9.538900 0.000000
-9.526100 0.000000
-9.513200 0.000000
-9.500300 0.000000
-9.487400 0.000000
-9.474500 0.000000
-9.461600 0.000000
-9.448700 0.000000
-9.435800 0.000000
-9.423000 0.000000
-9.410100 0.000000
-9.397200 0.000000
-9.384300 0.000000
-9.371400 0.000000
-9.358500 0.000000
-9.345600 0.000000
-9.332700 0.000000
-9.319900 0.000000
-9.307000 0.000000
-9.294100 0.000000
-9.281200 0.000000
-9.268300 0.000000
-9.255400 0.000000
-9.242500 0.000000
-9.229600 0.000000
-9.216800 0.000000
-9.203900 0.000000
-9.191000 0.000000
-9.178100 0.000000
-9.165200 0.000000
-9.152300 0.000000
-9.139400 0.078600
-9.126500 11.323800
-9.113700 101.959900
-9.100800 212.751500
-9.087900 269.994900
-9.075000 20.935500
-9.062100 0.000000
-9.049200 0.000000
-9.036300 0.000000
-9.023400 0.000000
-9.010600 0.000000
-8.997700 0.000000
-8.984800 0.000000
-8.971900 0.000000
-8.959000 0.000000
-8.946100 30.034900
-8.933200 107.116200
-8.920300 93.809800
-8.907500 93.959200
-8.894600 419.762600
-8.881700 4.462700
-8.868800 95.875200
-8.855900 62.785600
-8.843000 304.487400
-8.830100 62.294200
-8.817200 0.000000
-8.804400 0.000000
-8.791500 0.000000
-8.778600 0.000000
-8.765700 0.000000
-8.752800 0.000000
-8.739900 0.000000
-8.727000 0.000000
-8.714100 0.000000
-8.701300 0.000000
-8.688400 0.000000
-8.675500 0.000000
-8.662600 0.000000
-8.649700 0.000000
-8.636800 0.000000
-8.623900 0.000000
-8.611000 0.000000
-8.598200 0.000000
-8.585300 0.000000
-8.572400 0.000000
-8.559500 0.000000
-8.546600 0.000000
-8.533700 0.000000
-8.520800 0.000000
-8.507900 0.000000
-8.495100 0.000000
-8.482200 0.000000
-8.469300 0.000000
-8.456400 0.000000
-8.443500 0.000000
-8.430600 0.000000
-8.417700 0.000000
-8.404800 0.000000
-8.392000 0.000000
-8.379100 0.000000
-8.366200 0.000000
-8.353300 0.000000
-8.340400 0.000000
-8.327500 0.000000
-8.314600 0.000000
-8.301700 0.000000
-8.288900 0.000000
-8.276000 0.000000
-8.263100 0.000000
-8.250200 0.000000
-8.237300 0.000000
-8.224400 0.000000
-8.211500 0.000000
-8.198600 0.000000
-8.185800 0.000000
-8.172900 0.000000
-8.160000 0.000000
-8.147100 0.000000
-8.134200 0.000000
-8.121300 0.000000
-8.108400 0.000000
-8.095500 0.000000
-8.082700 0.000000
-8.069800 0.000000
-8.056900 0.000000
-8.044000 0.000000
-8.031100 0.000000
-8.018200 0.000000
-8.005300 0.000000
-7.992400 0.000000
-7.979600 0.000000
-7.966700 0.000000
-7.953800 0.000000
-7.940900 0.000000
-7.928000 0.000000
-7.915100 0.000000
-7.902200 0.000000
-7.889300 0.000000
-7.876500 0.000000
-7.863600 0.000000
-7.850700 0.000000
-7.837800 0.000000
-7.824900 0.000000
-7.812000 0.000000
-7.799100 37.451800
-7.786200 41.305300
-7.773400 41.271300
-7.760500 41.240200
-7.747600 41.212100
-7.734700 207.885100
-7.721800 0.000000
-7.708900 0.000000
-7.696000 0.000000
-7.683100 484.143100
-7.670300 144.330100
-7.657400 219.096100
-7.644500 190.135500
-7.631600 153.868300
-7.618700 0.000000
-7.605800 0.000000
-7.592900 0.000000
-7.580000 186.820800
-7.567200 78.011500
-7.554300 69.332100
-7.541400 18.688300
-7.528500 0.000000
-7.515600 1.029400
-7.502700 293.789600
-7.489800 47.529900
-7.476900 133.708500
-7.464100 74.105100
-7.451200 39.015300
-7.438300 8.782900
-7.425400 21.844800
-7.412500 44.677000
-7.399600 67.349400
-7.386700 73.340300
-7.373800 67.454400
-7.361000 23.112200
-7.348100 58.205200
-7.335200 338.420800
-7.322300 234.291400
-7.309400 444.015400
-7.296500 226.658900
-7.283600 674.205500
-7.270700 538.275300
-7.257900 204.505300
-7.245000 445.183100
-7.232100 359.239600
-7.219200 739.934100
-7.206300 1223.399600
-7.193400 698.918500
-7.180500 711.536700
-7.167600 845.462500
-7.154800 323.034400
-7.141900 704.017900
-7.129000 1256.233900
-7.116100 8.224400
-7.103200 20.121000
-7.090300 30.142900
-7.077400 41.438300
-7.064500 50.220400
-7.051700 51.799400
-7.038800 41.509100
-7.025900 33.611700
-7.013000 12.901900
-7.000100 10.412100
-6.987200 12.604200
-6.974300 19.431900
-6.961400 26.719600
-6.948600 36.500800
-6.935700 45.487000
-6.922800 60.841900
-6.909900 83.906800
-6.897000 55.322700
-6.884100 26.718300
-6.871200 35.756700
-6.858300 40.537000
-6.845500 39.696100
-6.832600 36.376100
-6.819700 39.626100
-6.806800 34.634000
-6.793900 20.436600
-6.781000 13.190100
-6.768100 9.019200
-6.755200 4.487100
-6.742400 3.725300
-6.729500 115.837700
-6.716600 128.269900
-6.703700 47.703500
-6.690800 38.239700
-6.677900 40.196000
-6.665000 68.329100
-6.652100 119.733600
-6.639300 61.185500
-6.626400 0.000000
-6.613500 0.000000
-6.600600 0.000000
-6.587700 0.000000
-6.574800 0.000000
-6.561900 0.000000
-6.549000 0.000000
-6.536200 0.000000
-6.523300 0.000000
-6.510400 0.000000
-6.497500 0.000000
-6.484600 0.000000
-6.471700 0.000000
-6.458800 0.000000
-6.445900 0.000000
-6.433100 0.000000
-6.420200 0.000000
-6.407300 0.000000
-6.394400 0.000000
-6.381500 0.000000
-6.368600 0.000000
-6.355700 0.000000
-6.342800 0.000000
-6.330000 0.000000
-6.317100 0.000000
-6.304200 0.000000
-6.291300 0.000000
-6.278400 0.000000
-6.265500 0.000000
-6.252600 0.000000
-6.239700 0.000000
-6.226900 0.000000
-6.214000 0.000000
-6.201100 0.000000
-6.188200 0.000000
-6.175300 0.000000
-6.162400 0.000000
-6.149500 0.000000
-6.136600 0.000000
-6.123800 0.000000
-6.110900 0.000000
-6.098000 0.000000
-6.085100 0.000000
-6.072200 0.000000
-6.059300 0.000000
-6.046400 0.000000
-6.033500 0.000000
-6.020700 0.000000
-6.007800 0.000000
-5.994900 0.000000
-5.982000 0.000000
-5.969100 0.000000
-5.956200 0.000000
-5.943300 0.000000
-5.930400 0.000000
-5.917600 0.000000
-5.904700 0.000000
-5.891800 0.000000
-5.878900 0.000000
-5.866000 0.000000
-5.853100 0.000000
-5.840200 0.000000
-5.827300 0.000000
-5.814500 0.000000
-5.801600 0.000000
-5.788700 0.000000
-5.775800 0.000000
-5.762900 0.000000
-5.750000 0.000000
-5.737100 0.000000
-5.724200 0.000000
-5.711400 0.000000
-5.698500 0.000000
-5.685600 0.000000
-5.672700 0.000000
-5.659800 0.000000
-5.646900 0.000000
-5.634000 0.000000
-5.621100 0.000000
-5.608300 0.000000
-5.595400 0.000000
-5.582500 0.000000
-5.569600 0.000000
-5.556700 0.000000
-5.543800 0.000000
-5.530900 0.000000
-5.518000 0.000000
-5.505200 0.000000
-5.492300 0.000000
-5.479400 0.000000
-5.466500 0.000000
-5.453600 0.000000
-5.440700 0.000000
-5.427800 0.000000
-5.414900 0.000000
-5.402100 0.000000
-5.389200 0.000000
-5.376300 0.000000
-5.363400 0.000000
-5.350500 0.000000
-5.337600 0.000000
-5.324700 0.000000
-5.311800 0.000000
-5.299000 0.000000
-5.286100 0.000000
-5.273200 0.000000
-5.260300 0.000000
-5.247400 0.000000
-5.234500 0.000000
-5.221600 0.000000
-5.208700 0.000000
-5.195900 0.000000
-5.183000 0.000000
-5.170100 0.000000
-5.157200 0.000000
-5.144300 0.000000
-5.131400 0.000000
-5.118500 0.000000
-5.105600 0.000000
-5.092800 0.000000
-5.079900 0.000000
-5.067000 0.000000
-5.054100 0.000000
-5.041200 0.000000
-5.028300 0.000000
-5.015400 0.000000
-5.002500 0.000000
-4.989700 0.000000
-4.976800 0.000000
-4.963900 0.000000
-4.951000 0.000000
-4.938100 0.000000
-4.925200 0.000000
-4.912300 0.000000
-4.899400 0.000000
-4.886600 0.000000
-4.873700 0.000000
-4.860800 0.000000
-4.847900 0.000000
-4.835000 0.000000
-4.822100 0.000000
-4.809200 0.000000
-4.796300 0.000000
-4.783500 0.000000
-4.770600 0.000000
-4.757700 0.000000
-4.744800 0.000000
-4.731900 0.000000
-4.719000 0.000000
-4.706100 0.000000
-4.693200 0.000000
-4.680400 0.000000
-4.667500 0.000000
-4.654600 0.000000
-4.641700 0.000000
-4.628800 0.000000
-4.615900 0.000000
-4.603000 0.000000
-4.590100 0.000000
-4.577300 0.000000
-4.564400 0.000000
-4.551500 0.000000
-4.538600 0.000000
-4.525700 0.000000
-4.512800 0.000000
-4.499900 0.000000
-4.487000 0.000000
-4.474200 0.000000
-4.461300 0.000000
-4.448400 0.000000
-4.435500 0.000000
-4.422600 0.000000
-4.409700 0.000000
-4.396800 0.000000
-4.383900 0.000000
-4.371100 0.000000
-4.358200 0.000000
-4.345300 0.000000
-4.332400 0.000000
-4.319500 0.000000
-4.306600 0.000000
-4.293700 0.000000
-4.280800 0.000000
-4.268000 0.000000
-4.255100 0.000000
-4.242200 0.000000
-4.229300 0.000000
-4.216400 0.000000
-4.203500 0.000000
-4.190600 0.000000
-4.177700 0.000000
-4.164900 0.000000
-4.152000 0.000000
-4.139100 0.000000
-4.126200 0.000000
-4.113300 0.000000
-4.100400 0.000000
-4.087500 0.000000
-4.074600 0.000000
-4.061800 0.000000
-4.048900 0.000000
-4.036000 0.000000
-4.023100 0.000000
-4.010200 0.000000
-3.997300 0.000000
-3.984400 0.000000
-3.971500 0.000000
-3.958700 0.000000
-3.945800 0.000000
-3.932900 0.000000
-3.920000 0.000000
-3.907100 0.000000
-3.894200 0.000000
-3.881300 0.000000
-3.868400 0.000000
-3.855600 0.000000
-3.842700 0.000000
-3.829800 0.000000
-3.816900 0.000000
-3.804000 0.000000
-3.791100 0.000000
-3.778200 0.000000
-3.765300 0.000000
-3.752500 0.000000
-3.739600 0.000000
-3.726700 0.000000
-3.713800 0.000000
-3.700900 0.000000
-3.688000 0.000000
-3.675100 0.000000
-3.662200 0.000000
-3.649400 0.000000
-3.636500 0.000000
-3.623600 0.000000
-3.610700 0.000000
-3.597800 0.000000
-3.584900 0.000000
-3.572000 0.000000
-3.559100 0.000000
-3.546300 0.000000
-3.533400 0.000000
-3.520500 0.000000
-3.507600 0.000000
-3.494700 0.000000
-3.481800 0.000000
-3.468900 0.000000
-3.456000 0.000000
-3.443200 0.000000
-3.430300 0.000000
-3.417400 0.000000
-3.404500 0.000000
-3.391600 0.000000
-3.378700 0.000000
-3.365800 0.000000
-3.352900 0.000000
-3.340100 0.000000
-3.327200 0.000000
-3.314300 0.000000
-3.301400 0.000000
-3.288500 0.000000
-3.275600 0.000000
-3.262700 0.000000
-3.249800 0.000000
-3.237000 0.000000
-3.224100 0.000000
-3.211200 0.000000
-3.198300 0.000000
-3.185400 0.000000
-3.172500 0.000000
-3.159600 0.000000
-3.146700 0.000000
-3.133900 0.000000
-3.121000 0.000000
-3.108100 0.000000
-3.095200 0.000000
-3.082300 0.000000
-3.069400 0.000000
-3.056500 0.000000
-3.043600 0.000000
-3.030800 0.013200
-3.017900 0.133400
-3.005000 0.379200
-2.992100 0.750600
-2.979200 1.247600
-2.966300 2.077900
-2.953400 2.983100
-2.940500 3.922300
-2.927700 5.290700
-2.914800 7.114300
-2.901900 8.604000
-2.889000 9.652300
-2.876100 10.551900
-2.863200 11.373800
-2.850300 12.118000
-2.837400 13.112000
-2.824600 14.174900
-2.811700 15.133200
-2.798800 16.006700
-2.785900 17.445800
-2.773000 18.587100
-2.760100 20.479000
-2.747200 22.739000
-2.734300 26.997800
-2.721500 30.359300
-2.708600 28.233200
-2.695700 19.511800
-2.682800 11.707600
-2.669900 8.590100
-2.657000 8.199200
-2.644100 10.227100
-2.631200 12.120500
-2.618400 13.789100
-2.605500 15.232700
-2.592600 16.451500
-2.579700 17.181400
-2.566800 18.055100
-2.553900 22.676000
-2.541000 23.499800
-2.528100 21.815700
-2.515300 17.623600
-2.502400 12.010300
-2.489500 11.770000
-2.476600 12.069700
-2.463700 11.309900
-2.450800 8.446500
-2.437900 7.401600
-2.425000 6.296300
-2.412200 5.130500
-2.399300 3.904300
-2.386400 2.617700
-2.373500 1.441000
-2.360600 3.777200
-2.347700 11.172900
-2.334800 16.640100
-2.321900 20.650300
-2.309100 28.718300
-2.296200 29.154500
-2.283300 21.965000
-2.270400 22.425200
-2.257500 23.294400
-2.244600 24.004300
-2.231700 24.585000
-2.218800 24.911500
-2.206000 22.267000
-2.193100 16.578900
-2.180200 11.471500
-2.167300 7.436300
-2.154400 4.233000
-2.141500 3.107700
-2.128600 3.232500
-2.115700 4.210100
-2.102900 5.315100
-2.090000 6.433500
-2.077100 16.511600
-2.064200 14.349500
-2.051300 16.202300
-2.038400 18.228100
-2.025500 19.722200
-2.012600 21.024200
-1.999800 22.362500
-1.986900 27.186500
-1.974000 24.381000
-1.961100 20.905200
-1.948200 17.736800
-1.935300 14.938900
-1.922400 12.726800
-1.909500 11.196500
-1.896700 10.216900
-1.883800 9.485800
-1.870900 8.446500
-1.858000 8.049900
-1.845100 10.747200
-1.832200 13.663700
-1.819300 16.652400
-1.806400 22.354400
-1.793600 37.240900
-1.780700 45.928800
-1.767800 36.013100
-1.754900 26.599100
-1.742000 17.362900
-1.729100 16.218100
-1.716200 15.778400
-1.703300 14.748400
-1.690500 13.050000
-1.677600 12.121800
-1.664700 9.843100
-1.651800 11.127500
-1.638900 13.896600
-1.626000 16.468500
-1.613100 18.567500
-1.600200 20.193500
-1.587400 21.422400
-1.574500 25.247400
-1.561600 35.163700
-1.548700 34.425200
-1.535800 26.844400
-1.522900 18.519200
-1.510000 14.547900
-1.497100 12.328400
-1.484300 10.228200
-1.471400 8.247400
-1.458500 6.386000
-1.445600 4.700300
-1.432700 3.562700
-1.419800 3.549600
-1.406900 4.348000
-1.394100 5.760300
-1.381200 7.786500
-1.368300 10.677800
-1.355400 15.004100
-1.342500 20.439300
-1.329600 13.918800
-1.316700 14.839900
-1.303800 15.373000
-1.291000 16.195000
-1.278100 16.794400
-1.265200 17.014200
-1.252300 16.980400
-1.239400 16.955300
-1.226500 16.946800
-1.213600 16.955100
-1.200700 16.980100
-1.187900 16.321800
-1.175000 10.771400
-1.162100 9.434000
-1.149200 8.174900
-1.136300 6.996900
-1.123400 5.900000
-1.110500 4.884200
-1.097600 3.798200
-1.084800 2.545500
-1.071900 3.000200
-1.059000 3.754700
-1.046100 4.809000
-1.033200 6.651900
-1.020300 10.170300
-1.007400 15.125700
-0.994500 24.199300
-0.981700 32.898100
-0.968800 40.873000
-0.955900 52.576200
-0.943000 33.849700
-0.930100 27.616900
-0.917200 19.921700
-0.904300 13.534500
-0.891400 8.825300
-0.878600 5.794000
-0.865700 4.419100
-0.852800 3.657400
-0.839900 2.932700
-0.827000 2.245100
-0.814100 1.594500
-0.801200 0.981200
-0.788300 0.481400
-0.775500 0.157700
-0.762600 0.010100
-0.749700 0.000000
-0.736800 0.000000
-0.723900 0.000000
-0.711000 0.000000
-0.698100 0.000000
-0.685200 0.000000
-0.672400 0.000000
-0.659500 0.000000
-0.646600 0.000000
-0.633700 0.000000
-0.620800 0.000000
-0.607900 0.000000
-0.595000 0.000000
-0.582100 0.000000
-0.569300 0.000000
-0.556400 0.000000
-0.543500 0.000000
-0.530600 0.000000
-0.517700 0.000000
-0.504800 0.000000
-0.491900 0.000000
-0.479000 0.000000
-0.466200 0.000000
-0.453300 0.000000
-0.440400 0.000000
-0.427500 0.000000
-0.414600 0.000000
-0.401700 0.000000
-0.388800 0.000000
-0.375900 0.000000
-0.363100 0.000000
-0.350200 0.000000
-0.337300 0.000000
-0.324400 0.000000
-0.311500 0.000000
-0.298600 0.000000
-0.285700 0.000000
-0.272800 0.000000
-0.260000 0.000000
-0.247100 0.000000
-0.234200 0.000000
-0.221300 0.000000
-0.208400 0.000000
-0.195500 0.000000
-0.182600 0.000000
-0.169700 0.000000
-0.156900 0.000000
-0.144000 0.000000
-0.131100 0.000000
-0.118200 0.000000
-0.105300 0.000000
-0.092400 0.000000
-0.079500 0.000000
-0.066600 0.000000
-0.053800 0.000000
-0.040900 0.000000
-0.028000 0.000000
-0.015100 0.000000
-0.002200 0.000000
0.010700 0.000000
0.023600 0.000000
0.036500 0.000000
0.049300 0.000000
0.062200 0.000000
0.075100 0.000000
0.088000 0.000000
0.100900 0.000000
0.113800 0.000000
0.126700 0.000000
0.139600 0.000000
0.152400 0.000000
0.165300 0.000000
0.178200 0.000000
0.191100 0.711100
0.204000 1.981300
0.216900 3.567000
0.229800 4.844600
0.242700 6.536200
0.255500 7.936300
0.268400 8.743300
0.281300 9.218700
0.294200 9.700600
0.307100 10.745400
0.320000 12.052900
0.332900 13.443900
0.345800 14.865100
0.358600 16.234600
0.371500 17.203300
0.384400 17.154700
0.397300 18.449700
0.410200 19.158900
0.423100 17.833900
0.436000 13.887100
0.448900 11.140400
0.461700 9.361200
0.474600 8.477500
0.487500 7.835300
0.500400 7.226700
0.513300 6.651800
0.526200 6.110400
0.539100 5.602600
0.552000 13.282300
0.564800 20.570700
0.577700 23.243100
0.590600 27.438300
0.603500 28.609100
0.616400 28.006000
0.629300 26.337500
0.642200 24.891800
0.655100 23.740700
0.667900 34.238500
0.680800 28.674200
0.693700 16.714200
0.706600 14.253100
0.719500 12.132900
0.732400 9.530800
0.745300 7.810200
0.758200 7.861100
0.771000 10.161300
0.783900 17.584200
0.796800 33.231300
0.809700 31.184000
0.822600 31.852300
0.835500 27.696300
0.848400 24.150900
0.861300 21.968700
0.874100 19.800100
0.887000 17.692100
0.899900 15.901000
0.912800 13.905100
0.925700 11.704500
0.938600 9.100900
0.951500 9.099000
0.964400 9.742700
0.977200 11.686400
0.990100 14.793000
1.003000 18.851000
1.015900 23.510600
1.028800 27.746600
1.041700 30.665700
1.054600 32.327800
1.067500 37.860400
1.080300 34.853500
1.093200 31.011600
1.106100 18.778400
1.119000 11.934800
1.131900 7.923800
1.144800 7.670000
1.157700 10.536200
1.170600 18.714700
1.183400 26.734100
1.196300 29.977600
1.209200 38.879700
1.222100 38.219800
1.235000 33.565700
1.247900 29.332300
1.260800 25.519600
1.273700 21.579200
1.286500 15.141500
1.299400 9.484200
1.312300 4.988600
1.325200 1.676100
1.338100 0.850800
1.351000 12.358700
1.363900 28.040400
1.376800 38.054600
1.389600 36.709300
1.402500 33.742200
1.415400 32.862500
1.428300 30.909800
1.441200 27.408900
1.454100 23.882500
1.467000 19.335300
1.479900 13.729200
1.492700 13.166500
1.505600 13.735300
1.518500 16.825600
1.531400 19.838400
1.544300 25.323500
1.557200 37.053900
1.570100 52.993400
1.583000 42.524600
1.595800 31.014100
1.608700 22.741000
1.621600 22.046300
1.634500 29.248700
1.647400 36.707500
1.660300 56.313100
1.673200 54.716100
1.686100 42.427300
1.698900 39.706900
1.711800 27.936300
1.724700 23.197600
1.737600 17.287900
1.750500 13.827300
1.763400 37.337200
1.776300 45.083200
1.789200 45.662400
1.802000 45.849300
1.814900 46.693300
1.827800 31.131600
1.840700 29.533600
1.853600 34.375900
1.866500 23.863700
1.879400 21.284700
1.892300 24.746900
1.905100 28.399500
1.918000 36.838900
1.930900 46.977500
1.943800 33.094300
1.956700 30.303200
1.969600 24.573300
1.982500 15.776000
1.995400 7.104600
2.008200 5.703300
2.021100 8.650300
2.034000 12.473200
2.046900 17.064500
2.059800 31.171500
2.072700 35.048700
2.085600 38.977600
2.098500 44.531200
2.111300 39.185500
2.124200 33.038100
2.137100 29.803900
2.150000 28.283200
2.162900 30.082900
2.175800 23.750700
2.188700 24.229300
2.201600 26.315400
2.214400 28.317900
2.227300 30.340400
2.240200 31.828000
2.253100 30.860500
2.266000 26.704900
2.278900 17.019100
2.291800 17.194000
2.304700 16.480600
2.317500 14.765800
2.330400 12.633200
2.343300 13.300400
2.356200 15.493500
2.369100 20.516300
2.382000 24.693600
2.394900 27.660000
2.407800 30.585100
2.420600 32.071500
2.433500 30.497600
2.446400 24.657900
2.459300 19.354900
2.472200 15.583000
2.485100 12.259000
2.498000 8.925400
2.510900 7.189800
2.523700 7.251500
2.536600 7.655900
2.549500 8.231400
2.562400 9.087800
2.575300 10.461500
2.588200 12.352400
2.601100 14.760500
2.614000 25.738400
2.626800 30.529900
2.639700 32.982400
2.652600 31.660700
2.665500 27.140600
2.678400 22.679900
2.691300 18.824800
2.704200 16.054000
2.717100 16.672000
2.729900 12.164200
2.742800 30.792000
2.755700 30.185700
2.768600 34.394800
2.781500 35.642000
2.794400 28.125300
2.807300 25.677900
2.820200 24.600700
2.833000 23.697200
2.845900 21.878200
2.858800 20.014700
2.871700 18.106800
2.884600 16.192800
2.897500 15.510800
2.910400 16.687000
2.923300 18.148700
2.936100 21.027400
2.949000 20.677900
2.961900 20.280800
2.974800 19.836300
2.987700 19.344300
3.000600 18.787600
3.013500 17.603200
3.026400 16.034000
3.039200 14.662800
3.052100 13.489900
3.065000 12.405900
3.077900 10.614100
3.090800 8.412800
3.103700 7.269600
3.116600 6.972300
3.129500 6.704100
3.142300 6.309700
3.155200 5.709900
3.168100 4.860100
3.181000 4.020300
3.193900 3.190300
3.206800 2.370300
3.219700 1.505100
3.232600 0.426200
3.245400 0.187700
3.258300 0.045700
3.271200 0.000000
3.284100 0.000000
3.297000 0.000000
3.309900 0.000000
3.322800 0.000000
3.335700 0.000000
3.348500 0.000000
3.361400 0.000000
3.374300 0.000000
3.387200 0.000000
3.400100 0.000000
3.413000 0.000000
3.425900 0.000000
3.438800 0.000000
3.451600 0.000000
3.464500 0.000000
3.477400 0.000000
3.490300 0.000000
3.503200 0.000000
3.516100 0.000000
3.529000 0.000000
3.541900 0.000000
3.554700 0.000000
3.567600 0.000000
3.580500 0.000000
3.593400 0.000000
3.606300 0.000000
3.619200 0.000000
3.632100 0.000000
3.645000 0.000000
3.657800 0.000000
3.670700 0.000000
3.683600 0.000000
3.696500 0.000000
3.709400 0.000000
3.722300 0.000000
3.735200 0.000000
3.748100 0.000000
3.760900 0.000000
3.773800 0.000000
3.786700 0.000000
3.799600 0.000000
3.812500 0.000000
3.825400 0.000000
3.838300 0.000000
3.851200 0.000000
3.864000 0.000000
3.876900 0.000000
3.889800 0.000000
3.902700 0.000000
3.915600 0.000000
3.928500 0.000000
3.941400 0.000000
3.954300 0.000000
3.967100 0.000000
3.980000 0.000000
3.992900 0.000000
4.005800 0.000000
4.018700 0.000000
4.031600 0.000000
4.044500 0.000000
4.057400 0.000000
4.070200 0.000000
4.083100 0.000000
4.096000 0.000000
4.108900 0.000000
4.121800 0.000000
4.134700 0.000000
4.147600 0.000000
4.160500 0.000000
4.173300 0.000000
4.186200 0.000000
4.199100 0.000000
4.212000 0.002700
4.224900 0.055800
4.237800 0.177100
4.250700 0.366600
4.263600 0.794200
4.276400 1.270900
4.289300 1.744700
4.302200 2.215600
4.315100 2.688600
4.328000 3.197800
4.340900 3.750000
4.353800 4.345000
4.366700 5.147900
4.379500 6.414100
4.392400 8.151800
4.405300 9.928000
4.418200 11.647000
4.431100 13.108900
4.444000 14.814600
4.456900 16.172300
4.469800 17.436100
4.482600 18.380100
4.495500 18.638100
4.508400 18.055900
4.521300 17.047600
4.534200 16.139400
4.547100 15.331200
4.560000 14.623000
4.572900 14.140900
4.585700 13.734500
4.598600 13.201700
4.611500 12.939300
4.624400 12.633700
4.637300 12.176300
4.650200 11.870900
4.663100 11.950800
4.676000 12.036900
4.688800 12.225200
4.701700 12.516300
4.714600 12.910000
4.727500 13.406600
4.740400 14.775400
4.753300 16.444900
4.766200 17.637400
4.779100 18.353000
4.791900 17.967300
4.804800 16.712000
4.817700 15.726100
4.830600 20.662200
4.843500 14.453900
4.856400 11.779000
4.869300 9.907900
4.882200 8.461600
4.895000 7.144000
4.907900 5.955100
4.920800 4.894900
4.933700 3.963400
4.946600 3.153700
4.959500 2.371700
4.972400 1.587900
4.985300 0.802300
4.998100 0.015000
5.011000 0.000000
5.023900 0.000000
5.036800 0.001100
5.049700 0.015900
5.062600 0.048000
5.075500 0.097600
5.088400 0.164500
5.101200 0.248700
5.114100 0.350400
5.127000 0.469400
5.139900 0.605700
5.152800 0.759500
5.165700 0.930600
5.178600 1.125100
5.191500 1.366000
5.204300 1.655400
5.217200 1.993400
5.230100 2.379900
5.243000 2.814900
5.255900 3.298500
5.268800 3.830600
5.281700 4.411300
5.294600 5.041700
5.307400 5.728900
5.320300 6.588400
5.333200 7.848600
5.346100 9.588300
5.359000 11.476100
5.371900 13.890000
5.384800 16.130600
5.397700 17.484600
5.410500 18.119400
5.423400 19.808100
5.436300 20.342200
5.449200 20.704900
5.462100 20.880900
5.475000 20.870100
5.487900 20.687900
5.500800 20.462500
5.513600 20.164500
5.526500 19.589400
5.539400 18.524000
5.552300 17.262000
5.565200 15.803400
5.578100 14.148400
5.591000 12.875200
5.603900 12.673200
5.616700 13.142400
5.629600 13.373400
5.642500 13.962500
5.655400 14.016200
5.668300 13.523300
5.681200 12.818700
5.694100 12.278200
5.707000 11.884100
5.719800 11.621300
5.732700 11.430600
5.745600 11.312100
5.758500 11.045600
5.771400 10.855000
5.784300 10.745800
5.797200 10.686100
5.810100 10.676000
5.822900 11.190000
5.835800 12.522200
5.848700 13.786000
5.861600 14.681500
5.874500 15.698700
5.887400 16.939300
5.900300 18.498400
5.913200 21.306400
5.926000 23.449600
5.938900 25.827500
5.951800 23.515600
5.964700 21.487200
5.977600 19.700700
5.990500 18.257700
6.003400 16.885600
6.016300 15.563200
6.029100 20.523100
6.042000 15.890100
6.054900 12.380000
6.067800 5.564500
6.080700 5.484400
6.093600 6.400400
6.106500 7.440300
6.119400 8.604300
6.132200 10.615300
6.145100 14.362400
6.158000 19.885500
6.170900 22.549100
6.183800 23.815800
6.196700 23.922200
6.209600 23.024000
6.222500 21.634700
6.235300 19.507400
6.248200 17.526300
6.261100 15.827900
6.274000 14.407000
6.286900 13.190100
6.299800 12.168700
6.312700 11.786000
6.325600 10.692000
6.338400 10.097200
6.351300 12.575400
6.364200 12.751800
6.377100 12.958700
6.390000 13.814200
6.402900 14.475700
6.415800 14.940100
6.428700 15.601800
6.441500 16.227600
6.454400 16.818900
6.467300 17.488500
6.480200 18.344400
6.493100 19.391600
6.506000 17.778000
6.518900 16.043000
6.531800 15.283000
6.544600 14.587300
6.557500 14.118600
6.570400 14.302300
6.583300 13.924400
6.596200 13.326400
6.609100 13.416100
6.622000 11.920000
6.634900 13.459400
6.647700 15.038300
6.660600 16.018900
6.673500 16.401300
6.686400 16.185400
6.699300 15.425400
6.712200 15.423400
6.725100 15.900000
6.738000 16.517700
6.750800 16.794300
6.763700 16.343400
6.776600 15.728400
6.789500 14.863500
6.802400 14.198800
6.815300 14.319900
6.828200 16.170700
6.841100 13.301500
6.853900 11.944600
6.866800 10.735400
6.879700 9.721300
6.892600 9.397000
6.905500 9.844800
6.918400 10.674900
6.931300 11.691800
6.944200 12.683200
6.957000 13.644200
6.969900 14.574700
6.982800 15.494600
6.995700 17.370200
7.008600 16.085800
7.021500 14.681600
7.034400 13.295600
7.047300 12.019300
7.060100 10.785000
7.073000 9.639200
7.085900 9.383700
7.098800 9.051400
7.111700 8.672600
7.124600 8.555000
7.137500 8.771200
7.150400 9.592800
7.163200 11.405200
7.176100 14.214300
7.189000 18.225100
7.201900 23.191400
7.214800 27.246100
7.227700 36.716300
7.240600 36.342700
7.253500 28.205900
7.266300 23.498900
7.279200 20.302000
7.292100 17.913800
7.305000 15.776000
7.317900 14.202500
7.330800 13.315400
7.343700 13.270900
7.356600 14.169500
7.369400 16.287800
7.382300 26.652800
7.395200 29.816800
7.408100 32.505100
7.421000 33.153900
7.433900 32.209400
7.446800 30.794600
7.459700 28.539600
7.472500 24.116100
7.485400 21.247000
7.498300 19.684700
7.511200 18.662800
7.524100 18.826800
7.537000 19.415100
7.549900 20.053400
7.562800 21.036300
7.575600 23.068900
7.588500 22.638800
7.601400 16.925500
7.614300 18.365900
7.627200 19.184800
7.640100 19.910500
7.653000 20.481200
7.665900 21.133000
7.678700 21.865900
7.691600 22.679900
7.704500 26.151700
7.717400 26.751000
7.730300 27.152000
7.743200 25.640200
7.756100 23.548600
7.769000 22.929500
7.781800 22.141900
7.794700 21.185900
7.807600 20.713600
7.820500 21.221100
7.833400 22.357300
7.846300 23.499200
7.859200 24.706300
7.872100 22.691100
7.884900 22.521700
7.897800 22.692900
7.910700 23.295100
7.923600 24.485200
7.936500 25.316400
7.949400 23.909100
7.962300 22.763400
7.975200 22.724400
7.988000 22.772100
8.000900 22.576600
8.013800 22.026800
8.026700 19.410200
8.039600 16.543000
8.052500 14.366400
8.065400 13.333700
8.078300 13.389700
8.091100 14.733600
8.104000 16.899900
8.116900 19.688300
8.129800 23.060700
8.142700 26.657400
8.155600 26.486300
8.168500 27.961200
8.181400 28.138500
8.194200 24.397300
8.207100 21.514500
8.220000 19.154200
8.232900 16.723300
8.245800 14.183800
8.258700 9.381800
8.271600 14.030600
8.284500 15.960700
8.297300 18.890300
8.310200 24.154100
8.323100 31.086300
8.336000 37.143500
8.348900 50.344100
8.361800 41.482000
8.374700 40.275400
8.387600 37.375000
8.400400 34.073800
8.413300 32.228900
8.426200 34.169100
8.439100 23.977200
8.452000 27.907400
8.464900 31.629500
8.477800 33.498200
8.490700 34.483700
8.503500 31.947100
8.516400 14.647000
8.529300 14.297200
8.542200 14.251000
8.555100 14.508500
8.568000 10.281200
8.580900 9.102000
8.593800 8.239500
8.606600 9.913100
8.619500 15.537900
8.632400 28.076200
8.645300 66.512900
8.658200 42.206900
8.671100 33.249600
8.684000 25.779200
8.696900 19.601600
8.709700 10.977700
8.722600 8.216300
8.735500 6.525800
8.748400 7.927700
8.761300 15.807700
8.774200 17.939900
8.787100 19.289900
8.800000 20.098100
8.812800 21.892100
8.825700 24.156300
8.838600 25.102500
8.851500 27.757000
8.864400 30.704800
8.877300 28.859500
8.890200 22.963800
8.903100 17.214500
8.915900 13.637400
8.928800 11.019000
8.941700 8.906600
8.954600 7.062900
8.967500 6.742800
8.980400 7.076400
8.993300 7.914900
9.006200 9.583900
9.019000 12.954100
9.031900 16.863400
9.044800 20.175000
9.057700 19.695100
9.070600 23.986000
9.083500 20.294400
9.096400 20.854700
9.109300 20.927500
9.122100 20.446200
9.135000 19.907600
9.147900 20.643800
9.160800 21.475300
9.173700 23.067500
9.186600 25.244800
9.199500 22.716100
9.212400 23.111200
9.225200 25.507900
9.238100 29.906400
9.251000 34.835500
9.263900 39.116600
9.276800 29.212200
9.289700 23.315400
9.302600 22.224200
9.315500 19.784200
9.328300 16.589700
9.341200 12.182200
9.354100 8.408500
9.367000 7.921000
9.379900 10.304400
9.392800 13.672000
9.405700 17.317800
9.418600 21.052000
9.431400 24.585400
9.444300 27.331700
9.457200 28.580100
9.470100 29.463500
9.483000 30.180700
9.495900 35.944700
9.508800 28.548200
9.521700 12.431600
9.534500 10.586300
9.547400 12.826200
9.560300 15.936900
9.573200 18.879300
9.586100 21.879600
9.599000 22.428200
9.611900 22.258100
9.624800 22.152500
9.637600 23.665700
9.650500 23.114800
9.663400 22.277500
9.676300 21.681500
9.689200 21.574700
9.702100 20.397600
9.715000 17.016000
9.727900 15.533800
9.740700 14.252400
9.753600 13.175100
9.766500 12.399900
9.779400 11.972200
9.792300 14.460600
9.805200 20.596500
9.818100 24.135100
9.831000 23.724100
9.843800 22.541600
9.856700 21.133900
9.869600 18.822900
9.882500 15.952500
9.895400 14.384000
9.908300 12.212900
9.921200 10.528800
9.934100 9.331800
9.946900 8.565300
9.959800 7.963800
9.972700 7.484000
9.985600 6.988700
9.998500 9.931700
10.011400 17.092100
10.024300 23.625100
10.037200 28.833000
10.050000 27.041500
10.062900 22.190100
10.075800 19.894000
10.088700 20.101800
10.101600 20.026300
10.114500 19.550100
10.127400 18.852800
10.140300 17.676700
10.153100 16.072400
10.166000 14.153300
10.178900 12.180300
10.191800 11.083700
10.204700 9.805900
10.217600 9.369900
10.230500 12.675700
10.243400 12.749300
10.256200 11.866700
10.269100 11.589600
10.282000 11.537300
10.294900 11.644500
10.307800 11.833800
10.320700 12.531200
10.333600 13.817100
10.346500 15.592400
10.359300 18.953800
10.372200 19.299900
10.385100 14.616300
10.398000 15.072500
10.410900 15.146000
10.423800 14.563100
10.436700 13.869800
10.449600 13.169200
10.462400 12.449700
10.475300 11.605200
10.488200 10.609800
10.501100 9.463400
10.514000 8.166100
10.526900 6.962900
10.539800 6.144000
10.552700 5.264100
10.565500 4.251300
10.578400 3.324100
10.591300 2.867800
10.604200 2.411300
10.617100 1.950900
10.630000 1.486500
10.642900 1.018100
10.655800 0.551700
10.668600 0.200500
10.681500 0.007600
10.694400 0.000000
10.707300 0.000000
10.720200 0.075600
10.733100 0.302300
10.746000 0.680100
10.758900 1.209100
10.771700 1.889100
10.784600 2.720300
10.797500 4.023000
10.810400 5.908800
10.823300 7.921600
10.836200 10.061300
10.849100 12.328000
10.862000 15.007300
10.874800 18.211800
10.887700 16.801900
10.900600 16.617100
10.913500 16.984700
10.926400 16.601200
10.939300 16.129400
10.952200 15.569400
10.965100 14.923200
10.977900 14.106200
10.990800 13.090700
11.003700 11.876700
11.016600 10.464200
11.029500 8.871300
11.042400 8.232900
11.055300 7.853600
11.068200 7.537300
11.081000 7.283900
11.093900 7.128400
11.106800 7.075300
11.119700 7.124500
11.132600 7.272200
11.145500 5.847400
11.158400 6.029100
11.171300 6.459500
11.184100 7.025500
11.197000 7.585800
11.209900 8.140400
11.222800 8.689400
11.235700 9.232800
11.248600 9.770500
11.261500 10.302500
11.274400 10.824400
11.287200 11.358800
11.300100 11.915000
11.313000 12.672600
11.325900 13.448700
11.338800 14.112600
11.351700 14.664200
11.364600 15.103600
11.377500 15.430700
11.390300 18.113600
11.403200 16.046900
11.416100 14.228700
11.429000 13.465100
11.441900 13.338000
11.454800 11.980300
11.467700 11.172000
11.480600 10.891500
11.493400 10.624000
11.506300 10.669600
11.519200 10.737100
11.532100 10.834000
11.545000 11.188700
11.557900 11.743600
11.570800 12.618100
11.583700 12.952200
11.596500 13.093200
11.609400 13.247500
11.622300 13.490700
11.635200 13.869800
11.648100 14.268300
11.661000 14.686300
11.673900 15.123800
11.686800 15.360000
11.699600 15.469500
11.712500 15.451000
11.725400 15.392400
11.738300 15.325800
11.751200 15.322300
11.764100 15.358700
11.777000 15.330700
11.789900 15.005000
11.802700 13.598400
11.815600 13.033800
11.828500 12.901000
11.841400 10.269900
11.854300 14.845200
11.867200 14.419800
11.880100 14.061000
11.893000 15.356200
11.905800 16.652000
11.918700 17.534700
11.931600 17.655400
11.944500 17.787500
11.957400 17.931200
11.970300 18.086400
11.983200 18.297200
11.996100 21.641100
12.008900 27.925000
12.021800 26.112200
12.034700 22.627200
12.047600 19.834000
12.060500 17.963500
12.073400 19.534800
12.086300 22.974300
12.099200 27.826700
12.112000 25.075100
12.124900 26.015500
12.137800 23.099400
12.150700 20.495900
12.163600 19.085100
12.176500 18.839000
12.189400 17.313800
12.202300 12.953800
12.215100 10.468600
12.228000 8.705000
12.240900 7.656600
12.253800 7.043800
12.266700 6.725900
12.279600 13.486700
12.292500 15.939900
12.305400 16.261300
12.318200 16.958700
12.331100 19.426900
12.344000 19.238200
12.356900 19.352700
12.369800 19.770400
12.382700 20.576600
12.395600 21.683100
12.408500 22.434900
12.421300 22.515600
12.434200 22.403300
12.447100 18.726800
12.460000 16.965800
12.472900 16.190200
12.485800 15.502400
12.498700 15.004600
12.511600 14.726700
12.524400 14.714200
12.537300 14.808300
12.550200 14.975500
12.563100 15.722600
12.576000 23.203700
12.588900 29.557600
12.601800 31.949600
12.614700 28.795000
12.627500 26.025300
12.640400 24.722100
12.653300 23.838700
12.666200 22.885300
12.679100 21.886000
12.692000 20.878900
12.704900 19.408900
12.717800 18.269600
12.730600 17.941600
12.743500 17.846500
12.756400 18.410200
12.769300 19.902700
12.782200 22.069300
12.795100 23.860500
12.808000 24.052200
12.820900 22.554100
12.833700 20.676900
12.846600 20.147900
12.859500 21.219000
12.872400 22.591100
12.885300 28.396700
12.898200 25.874100
12.911100 23.818600
12.924000 24.239300
12.936800 24.890100
12.949700 24.490700
12.962600 23.272600
12.975500 22.740400
12.988400 22.894300
13.001300 25.336400
13.014200 26.880400
13.027100 25.401400
13.039900 21.600400
13.052800 23.121700
13.065700 28.551100
13.078600 43.998800
13.091500 27.135200
13.104400 23.717700
13.117300 20.545600
13.130200 17.743700
13.143000 15.824000
13.155900 14.378000
13.168800 14.127400
13.181700 15.019000
13.194600 16.281600
13.207500 20.753900
13.220400 31.508300
13.233300 30.116400
13.246100 30.333100
13.259000 28.393800
13.271900 26.973500
13.284800 25.490900
13.297700 22.484300
13.310600 20.129600
13.323500 20.060700
13.336400 25.038400
13.349200 29.829500
13.362100 28.786800
13.375000 32.396800
13.387900 32.961600
13.400800 31.355600
13.413700 29.555300
13.426600 27.124800
13.439500 23.811800
13.452300 21.744900
13.465200 20.742100
13.478100 25.833000
13.491000 23.550500
13.503900 24.687600
13.516800 23.954000
13.529700 23.096200
13.542600 26.166100
13.555400 30.222200
13.568300 33.564300
13.581200 32.585200
13.594100 31.330900
13.607000 29.646100
13.619900 23.562100
13.632800 15.520600
13.645700 11.649800
13.658500 11.375500
13.671400 12.913200
13.684300 16.038900
13.697200 19.412700
13.710100 23.698700
13.723000 28.949500
13.735900 32.936300
13.748800 29.624700
13.761600 28.168200
13.774500 26.574000
13.787400 24.929200
13.800300 24.042500
13.813200 22.982400
13.826100 21.322200
13.839000 19.702600
13.851900 18.994800
13.864700 18.736600
13.877600 18.478200
13.890500 18.498900
13.903400 18.296500
13.916300 18.644500
13.929200 19.560700
13.942100 21.271000
13.955000 20.733100
13.967800 20.892100
13.980700 21.515900
13.993600 21.416200
14.006500 20.797500
14.019400 20.091300
14.032300 19.795900
14.045200 19.935500
14.058100 20.033300
14.070900 20.226800
14.083800 20.668100
14.096700 20.053000
14.109600 19.992300
14.122500 20.165500
14.135400 24.976600
14.148300 23.972500
14.161200 21.222600
14.174000 18.332000
14.186900 15.296800
14.199800 12.208800
14.212700 8.207600
14.225600 5.189200
14.238500 3.877800
14.251400 2.709800
14.264300 1.684200
14.277100 0.801000
14.290000 0.060300
14.302900 0.000000
14.315800 0.000000
14.328700 0.000000
14.341600 0.000000
14.354500 0.000000
14.367400 0.000000
14.380200 0.000000
14.393100 0.000000
14.406000 0.000000
14.418900 0.000000
14.431800 0.000000
14.444700 0.000000
14.457600 0.000000
14.470500 0.000000
14.483300 0.000000
14.496200 0.000000
14.509100 0.000000
14.522000 0.000000
14.534900 0.000000
14.547800 0.000000
14.560700 0.000000
14.573600 0.000000
14.586400 0.000000
14.599300 0.000000
14.612200 0.000000
14.625100 0.000000
14.638000 0.000000
14.650900 0.000000
14.663800 0.000000
14.676700 0.000000
14.689500 0.000000
14.702400 0.000000
14.715300 0.000000
14.728200 0.000000
14.741100 0.000000
14.754000 0.000000
14.766900 0.000000
14.779800 0.000000
14.792600 0.000000
14.805500 0.000000
14.818400 0.000000
14.831300 0.000000
14.844200 0.000000
14.857100 0.000000
14.870000 0.000000
14.882900 0.000000
14.895700 0.000000
14.908600 0.000000
14.921500 0.000000
14.934400 0.000000
14.947300 0.000000
14.960200 0.000000
14.973100 0.000000
14.986000 0.000000
14.998800 0.000000
15.011700 0.000000
15.024600 0.000000
15.037500 0.000000
15.050400 0.000000
15.063300 0.000000
15.076200 0.000000
15.089100 0.000000
15.101900 0.000000
15.114800 0.000000
15.127700 0.000000
15.140600 0.000000
15.153500 0.000000
15.166400 0.000000
15.179300 0.000000
15.192200 0.000000
15.205000 0.000000
15.217900 0.000000
15.230800 0.000000
15.243700 0.000000
15.256600 0.000000
15.269500 0.000000
15.282400 0.000000
15.295300 0.000000
15.308100 0.000000
15.321000 0.000000
15.333900 0.000000
15.346800 0.000000
15.359700 0.000000
15.372600 0.000000
15.385500 0.000000
15.398400 0.000000
15.411200 0.000000
15.424100 0.000000
15.437000 0.000000
15.449900 0.000000
15.462800 0.000000
e
