set title 'mp-8637 - Density of States'
set xlabel 'Energy (eV)'
set ylabel 'DOS (states/eV)'
set grid
set xrange [-10:10]
set yrange [0:2.403]
set xzeroaxis lt -1
set terminal png size 800,600
set output 'mp-8637_dos_gnuplot.png'
plot '-' using 1:2 with lines title 'DOS'
-34.470200 0.000000
-34.393800 0.000000
-34.317300 0.000000
-34.240900 0.000000
-34.164500 0.000000
-34.088000 0.000000
-34.011600 0.000000
-33.935200 0.000000
-33.858700 0.000000
-33.782300 0.000000
-33.705900 0.000000
-33.629400 0.000000
-33.553000 0.000000
-33.476500 0.000000
-33.400100 0.000000
-33.323700 0.000000
-33.247200 0.000000
-33.170800 0.000000
-33.094400 0.000000
-33.017900 0.000000
-32.941500 0.000000
-32.865100 0.000000
-32.788600 0.000000
-32.712200 0.000000
-32.635800 0.000000
-32.559300 0.000000
-32.482900 0.000000
-32.406400 0.000000
-32.330000 0.000000
-32.253600 0.000000
-32.177100 0.000000
-32.100700 0.000000
-32.024300 0.000000
-31.947800 0.000000
-31.871400 0.000000
-31.795000 0.000000
-31.718500 0.000000
-31.642100 0.000000
-31.565700 0.000000
-31.489200 0.000000
-31.412800 0.000000
-31.336400 0.000000
-31.259900 0.000000
-31.183500 0.000000
-31.107000 0.000000
-31.030600 0.000000
-30.954200 0.000000
-30.877700 0.000000
-30.801300 0.000000
-30.724900 0.000000
-30.648400 0.000000
-30.572000 0.000000
-30.495600 0.000000
-30.419100 0.000000
-30.342700 0.000000
-30.266300 0.000000
-30.189800 0.000000
-30.113400 0.000000
-30.037000 0.000000
-29.960500 0.000000
-29.884100 0.000000
-29.807600 0.000000
-29.731200 0.000000
-29.654800 0.000000
-29.578300 0.000000
-29.501900 0.000000
-29.425500 0.000000
-29.349000 0.000000
-29.272600 0.000000
-29.196200 0.000000
-29.119700 0.000000
-29.043300 0.000000
-28.966900 0.000000
-28.890400 0.000000
-28.814000 0.000000
-28.737600 0.000000
-28.661100 0.000000
-28.584700 0.000000
-28.508200 0.000000
-28.431800 0.000000
-28.355400 0.000000
-28.278900 0.000000
-28.202500 0.000000
-28.126100 0.000000
-28.049600 0.000000
-27.973200 0.000000
-27.896800 0.000000
-27.820300 0.000000
-27.743900 0.000000
-27.667500 0.000000
-27.591000 0.000000
-27.514600 0.364400
-27.438100 1.773100
-27.361700 3.699800
-27.285300 7.494600
-27.208800 6.527400
-27.132400 2.139100
-27.056000 2.196100
-26.979500 2.993900
-26.903100 3.455500
-26.826700 3.796300
-26.750200 4.030200
-26.673800 7.888200
-26.597400 8.323400
-26.520900 8.842100
-26.444500 9.698300
-26.368100 4.796200
-26.291600 2.125800
-26.215200 0.000000
-26.138700 0.000000
-26.062300 0.000000
-25.985900 0.000000
-25.909400 0.000000
-25.833000 0.000000
-25.756600 0.000000
-25.680100 0.000000
-25.603700 0.000000
-25.527300 0.000000
-25.450800 0.000000
-25.374400 0.000000
-25.298000 0.000000
-25.221500 0.000000
-25.145100 0.000000
-25.068700 0.000000
-24.992200 0.000000
-24.915800 0.000000
-24.839300 0.000000
-24.762900 0.000000
-24.686500 0.000000
-24.610000 0.000000
-24.533600 0.000000
-24.457200 0.000000
-24.380700 0.000000
-24.304300 0.000000
-24.227900 0.000000
-24.151400 0.000000
-24.075000 0.000000
-23.998600 0.000000
-23.922100 0.000000
-23.845700 0.000000
-23.769300 0.000000
-23.692800 0.000000
-23.616400 0.000000
-23.539900 0.000000
-23.463500 0.000000
-23.387100 0.000000
-23.310600 0.000000
-23.234200 0.000000
-23.157800 0.000000
-23.081300 0.000000
-23.004900 0.000000
-22.928500 0.000000
-22.852000 0.000000
-22.775600 0.000000
-22.699200 0.000000
-22.622700 0.000000
-22.546300 0.000000
-22.469800 0.000000
-22.393400 0.000000
-22.317000 0.000000
-22.240500 0.000000
-22.164100 0.000000
-22.087700 0.000000
-22.011200 0.000000
-21.934800 0.000000
-21.858400 0.000000
-21.781900 0.000000
-21.705500 0.000000
-21.629100 0.000000
-21.552600 0.000000
-21.476200 0.000000
-21.399800 0.000000
-21.323300 0.000000
-21.246900 0.000000
-21.170400 0.000000
-21.094000 0.000000
-21.017600 0.000000
-20.941100 0.000000
-20.864700 0.000000
-20.788300 0.000000
-20.711800 0.000000
-20.635400 0.000000
-20.559000 0.000000
-20.482500 0.000000
-20.406100 0.000000
-20.329700 0.000000
-20.253200 0.000000
-20.176800 0.000000
-20.100400 0.000000
-20.023900 0.000000
-19.947500 0.000000
-19.871000 0.000000
-19.794600 0.000000
-19.718200 0.000000
-19.641700 0.000000
-19.565300 0.000000
-19.488900 0.000000
-19.412400 0.000000
-19.336000 0.000000
-19.259600 0.000000
-19.183100 0.000000
-19.106700 0.000000
-19.030300 0.000000
-18.953800 0.000000
-18.877400 0.000000
-18.801000 0.000000
-18.724500 0.000000
-18.648100 0.000000
-18.571600 0.000000
-18.495200 0.000000
-18.418800 0.000000
-18.342300 0.000000
-18.265900 0.000000
-18.189500 0.000000
-18.113000 0.000000
-18.036600 0.000000
-17.960200 0.000000
-17.883700 0.000000
-17.807300 0.000000
-17.730900 0.000000
-17.654400 0.000000
-17.578000 0.000000
-17.501500 0.000000
-17.425100 0.000000
-17.348700 0.000000
-17.272200 0.000000
-17.195800 0.000000
-17.119400 0.000000
-17.042900 0.000000
-16.966500 0.000000
-16.890100 0.000000
-16.813600 0.000000
-16.737200 0.000000
-16.660800 0.000000
-16.584300 0.000000
-16.507900 0.000000
-16.431500 0.000000
-16.355000 0.000000
-16.278600 0.000000
-16.202100 0.000000
-16.125700 0.000000
-16.049300 0.000000
-15.972800 0.000000
-15.896400 0.000000
-15.820000 0.000000
-15.743500 0.000000
-15.667100 0.000000
-15.590700 0.000000
-15.514200 0.000000
-15.437800 0.000000
-15.361400 0.000000
-15.284900 0.000000
-15.208500 0.000000
-15.132100 0.000000
-15.055600 0.000000
-14.979200 0.000000
-14.902700 0.000000
-14.826300 0.000000
-14.749900 0.000000
-14.673400 0.000000
-14.597000 0.000000
-14.520600 0.000000
-14.444100 0.000000
-14.367700 0.000000
-14.291300 0.000000
-14.214800 0.000000
-14.138400 0.000000
-14.062000 0.000000
-13.985500 0.000000
-13.909100 0.000000
-13.832700 0.000000
-13.756200 0.000000
-13.679800 0.000000
-13.603300 0.000000
-13.526900 0.000000
-13.450500 0.000000
-13.374000 0.000000
-13.297600 0.000000
-13.221200 0.000000
-13.144700 0.000000
-13.068300 0.000000
-12.991900 0.000000
-12.915400 0.000000
-12.839000 0.000000
-12.762600 0.000000
-12.686100 0.000000
-12.609700 0.000000
-12.533300 0.000000
-12.456800 0.000000
-12.380400 0.000000
-12.303900 0.000000
-12.227500 0.000000
-12.151100 0.000000
-12.074600 0.000000
-11.998200 0.000000
-11.921800 0.000000
-11.845300 0.000000
-11.768900 0.000000
-11.692500 0.000000
-11.616000 0.000000
-11.539600 0.000000
-11.463200 0.000000
-11.386700 0.000000
-11.310300 0.000000
-11.233800 0.000000
-11.157400 0.000000
-11.081000 0.000000
-11.004500 0.000000
-10.928100 0.000000
-10.851700 0.000000
-10.775200 0.000000
-10.698800 0.000000
-10.622400 0.000000
-10.545900 0.000000
-10.469500 0.000000
-10.393100 0.000000
-10.316600 0.000000
-10.240200 0.000000
-10.163800 0.000000
-10.087300 0.000000
-10.010900 0.000000
-9.934400 0.000000
-9.858000 0.000000
-9.781600 0.000000
-9.705100 0.000000
-9.628700 0.000000
-9.552300 0.000000
-9.475800 0.000000
-9.399400 0.000000
-9.323000 0.000000
-9.246500 0.000000
-9.170100 0.000000
-9.093700 0.000000
-9.017200 0.000000
-8.940800 0.000000
-8.864400 0.000000
-8.787900 0.000000
-8.711500 0.000000
-8.635000 0.000000
-8.558600 0.000000
-8.482200 0.000000
-8.405700 0.000000
-8.329300 0.000000
-8.252900 0.000000
-8.176400 0.000000
-8.100000 0.000000
-8.023600 0.000000
-7.947100 0.000000
-7.870700 0.000000
-7.794300 0.000000
-7.717800 0.000000
-7.641400 0.000000
-7.565000 0.000000
-7.488500 0.000000
-7.412100 0.000000
-7.335600 0.000000
-7.259200 0.000000
-7.182800 0.000000
-7.106300 0.000000
-7.029900 0.000000
-6.953500 0.000000
-6.877000 0.000000
-6.800600 0.000000
-6.724200 0.000000
-6.647700 0.000000
-6.571300 0.000000
-6.494900 0.000000
-6.418400 0.000000
-6.342000 0.000000
-6.265500 0.000000
-6.189100 0.000000
-6.112700 0.000000
-6.036200 0.000000
-5.959800 0.000000
-5.883400 0.000000
-5.806900 0.000000
-5.730500 0.000000
-5.654100 0.000000
-5.577600 0.000000
-5.501200 0.000000
-5.424800 0.000000
-5.348300 0.000000
-5.271900 0.000000
-5.195500 0.000000
-5.119000 0.000000
-5.042600 0.000000
-4.966100 0.000000
-4.889700 0.000000
-4.813300 0.000000
-4.736800 0.000000
-4.660400 0.000000
-4.584000 0.000000
-4.507500 0.000000
-4.431100 0.000000
-4.354700 0.000000
-4.278200 0.000000
-4.201800 0.000000
-4.125400 0.000000
-4.048900 0.000000
-3.972500 0.000000
-3.896100 0.000000
-3.819600 0.000000
-3.743200 0.000000
-3.666700 0.000000
-3.590300 0.000000
-3.513900 0.000000
-3.437400 0.000000
-3.361000 0.000000
-3.284600 0.000000
-3.208100 0.000000
-3.131700 0.000000
-3.055300 0.000000
-2.978800 0.000000
-2.902400 0.000000
-2.826000 0.000000
-2.749500 0.000000
-2.673100 0.000000
-2.596700 0.000000
-2.520200 0.000000
-2.443800 0.000000
-2.367300 0.000000
-2.290900 0.000000
-2.214500 0.000000
-2.138000 0.000000
-2.061600 0.000000
-1.985200 0.000000
-1.908700 0.000000
-1.832300 0.000000
-1.755900 0.000000
-1.679400 0.000000
-1.603000 0.000000
-1.526600 0.000000
-1.450100 0.000000
-1.373700 0.000000
-1.297200 0.000000
-1.220800 0.000000
-1.144400 0.000000
-1.067900 0.000000
-0.991500 0.000000
-0.915100 0.000000
-0.838600 0.000000
-0.762200 0.000000
-0.685800 0.000000
-0.609300 0.000000
-0.532900 0.000000
-0.456500 0.000000
-0.380000 0.000000
-0.303600 0.000000
-0.227200 0.000000
-0.150700 0.000000
-0.074300 0.000000
0.002200 0.000000
0.078600 0.000000
0.155000 0.000000
0.231500 0.000000
0.307900 0.000000
0.384300 0.000000
0.460800 0.000000
0.537200 0.000000
0.613600 0.000000
0.690100 0.000000
0.766500 0.000000
0.842900 0.000000
0.919400 0.000000
0.995800 0.000000
1.072200 0.000000
1.148700 0.000800
1.225100 0.017300
1.301600 0.022600
1.378000 0.029600
1.454400 0.037000
1.530900 0.040700
1.607300 0.045000
1.683700 0.050100
1.760200 0.055400
1.836600 0.059900
1.913000 0.064100
1.989500 0.068400
2.065900 0.073100
2.142300 0.078300
2.218800 0.083700
2.295200 0.088900
2.371600 0.093800
2.448100 0.099600
2.524500 0.105700
2.601000 0.112300
2.677400 0.119600
2.753800 0.127400
2.830300 0.135400
2.906700 0.144600
2.983100 0.181200
3.059600 0.263300
3.136000 0.313500
3.212400 0.368800
3.288900 0.426200
3.365300 0.695200
3.441700 0.871300
3.518200 0.884800
3.594600 0.965800
3.671000 1.077400
3.747500 1.241700
3.823900 1.312400
3.900400 1.397700
3.976800 1.454600
4.053200 1.577600
4.129700 1.642700
4.206100 1.616500
4.282500 1.537400
4.359000 1.504000
4.435400 1.485100
4.511800 1.439100
4.588300 1.366500
4.664700 1.309800
4.741100 1.230500
4.817600 1.159400
4.894000 1.086200
4.970500 0.959700
5.046900 0.863800
5.123300 0.861600
5.199800 0.823800
5.276200 1.041700
5.352600 1.157000
5.429100 1.428500
5.505500 1.294200
5.581900 1.205400
5.658400 1.104800
5.734800 1.001900
5.811200 0.843000
5.887700 0.901800
5.964100 0.926400
6.040500 0.911100
6.117000 0.931100
6.193400 1.041400
6.269900 1.211300
6.346300 1.234100
6.422700 1.274400
6.499200 1.240200
6.575600 1.198300
6.652000 1.212600
6.728500 1.242900
6.804900 1.262400
6.881300 1.391200
6.957800 1.477900
7.034200 1.518500
7.110600 1.543200
7.187100 1.699400
7.263500 1.852000
7.339900 1.785200
7.416400 1.726200
7.492800 1.745300
7.569300 2.184100
7.645700 1.374300
7.722100 1.154800
7.798600 1.173300
7.875000 1.209600
7.951400 1.289200
8.027900 1.387100
8.104300 1.055400
8.180700 0.994000
8.257200 0.969700
8.333600 0.963600
8.410000 0.976000
8.486500 0.907000
8.562900 0.932300
8.639300 0.905500
8.715800 0.918400
8.792200 0.962700
8.868700 1.109800
8.945100 1.127900
9.021500 1.166900
9.098000 1.152100
9.174400 1.227600
9.250800 1.437800
9.327300 1.240200
9.403700 1.060400
9.480100 0.961500
9.556600 0.899700
9.633000 0.844300
9.709400 0.838400
9.785900 0.939400
9.862300 0.953800
9.938800 0.926700
10.015200 0.911100
10.091600 0.892300
10.168100 0.878600
10.244500 0.846600
10.320900 0.837300
10.397400 0.828600
10.473800 0.827100
10.550200 0.835200
10.626700 0.853000
10.703100 0.886500
10.779500 0.906800
10.856000 0.928700
10.932400 0.953600
11.008800 0.998500
11.085300 0.950600
11.161700 0.984800
11.238200 1.088000
11.314600 1.179800
11.391000 1.278300
11.467500 1.539000
11.543900 1.578400
11.620300 1.567500
11.696800 1.602100
11.773200 1.718600
11.849600 1.263400
11.926100 1.107400
12.002500 0.971200
12.078900 0.904300
12.155400 0.796800
12.231800 0.695200
12.308200 0.620600
12.384700 0.292900
12.461100 0.292000
12.537600 0.292400
12.614000 0.294600
12.690400 0.296600
12.766900 0.298100
12.843300 0.298900
12.919700 0.301200
12.996200 0.301700
13.072600 0.302800
13.149000 0.303500
13.225500 0.303500
13.301900 0.302600
13.378300 0.301800
13.454800 0.302000
13.531200 0.301100
13.607600 0.300600
13.684100 0.300200
13.760500 0.299800
13.837000 0.299600
13.913400 0.299300
13.989800 0.299000
14.066300 0.298800
14.142700 0.299100
14.219100 0.299300
14.295600 0.297800
14.372000 0.296600
14.448400 0.295400
14.524900 0.293500
14.601300 0.291800
14.677700 0.290400
14.754200 0.288700
14.830600 0.286800
14.907100 0.284800
14.983500 0.283000
15.059900 0.281100
15.136400 0.279000
15.212800 0.276700
15.289200 0.274200
15.365700 0.271600
15.442100 0.268900
15.518500 0.264400
15.595000 0.259700
15.671400 0.255600
15.747800 0.251700
15.824300 0.247800
15.900700 0.243900
15.977100 0.239700
16.053600 0.235300
16.130000 0.230800
16.206500 0.225800
16.282900 0.219200
16.359300 0.212300
16.435800 0.206600
16.512200 0.201700
16.588600 0.199400
16.665100 0.197100
16.741500 0.190800
16.817900 0.181800
16.894400 0.170200
16.970800 0.156600
17.047200 0.137000
17.123700 0.116000
17.200100 0.102500
17.276500 0.091700
17.353000 0.082200
17.429400 0.074900
17.505900 0.068000
17.582300 0.060800
17.658700 0.054400
17.735200 0.048600
17.811600 0.058800
17.888000 0.126100
17.964500 0.241600
18.040900 0.303400
18.117300 0.387800
18.193800 0.498500
18.270200 0.513100
18.346600 0.515500
18.423100 0.512600
18.499500 0.517700
18.575900 0.522900
18.652400 0.533200
18.728800 0.540300
18.805300 0.533000
18.881700 0.499200
18.958100 0.454800
19.034600 0.432700
19.111000 0.419000
19.187400 0.408800
19.263900 0.401000
19.340300 0.394600
19.416700 0.394400
19.493200 0.392900
19.569600 0.387700
19.646000 0.383800
19.722500 0.377900
19.798900 0.378000
19.875400 0.378300
19.951800 0.376400
20.028200 0.371100
20.104700 0.371900
20.181100 0.387400
20.257500 0.411400
20.334000 0.389900
20.410400 0.385700
20.486800 0.401600
20.563300 0.415000
20.639700 0.409300
20.716100 0.414800
20.792600 0.431600
20.869000 0.476500
20.945400 0.470600
21.021900 0.472000
21.098300 0.492000
21.174800 0.496900
21.251200 0.513800
21.327600 0.542700
21.404100 0.558100
21.480500 0.580800
21.556900 0.577600
21.633400 0.600100
21.709800 0.582700
21.786200 0.584900
21.862700 0.603900
21.939100 0.600100
22.015500 0.578500
22.092000 0.581800
22.168400 0.630900
22.244800 0.717800
22.321300 0.907800
22.397700 0.828700
22.474200 0.825800
22.550600 0.833000
22.627000 0.838500
22.703500 0.842000
22.779900 0.828400
22.856300 0.840800
22.932800 0.858600
23.009200 0.877200
23.085600 0.906000
23.162100 0.946300
23.238500 0.987000
23.314900 1.046200
23.391400 1.122700
23.467800 1.160600
23.544200 1.159600
23.620700 1.106200
23.697100 1.038900
23.773600 0.946700
23.850000 0.892800
23.926400 0.842700
24.002900 0.776800
24.079300 0.754000
24.155700 0.720000
24.232200 0.685200
24.308600 0.661000
24.385000 0.682100
24.461500 0.749400
24.537900 0.784700
24.614300 0.808100
24.690800 0.826500
24.767200 0.861200
24.843600 0.941000
24.920100 1.086200
24.996500 1.220800
25.073000 1.447000
25.149400 1.851200
25.225800 3.007900
25.302300 1.750300
25.378700 1.291400
25.455100 1.100300
25.531600 1.107200
25.608000 0.979600
25.684400 0.844700
25.760900 0.704100
25.837300 0.634600
25.913700 0.578500
25.990200 0.525100
26.066600 0.487800
26.143100 0.445200
26.219500 0.387000
26.295900 0.347300
26.372400 0.315700
26.448800 0.288800
26.525200 0.268800
26.601700 0.258800
26.678100 0.253000
26.754500 0.251700
26.831000 0.250500
26.907400 0.250100
26.983800 0.247700
27.060300 0.248900
27.136700 0.267300
27.213100 0.293400
27.289600 0.320300
27.366000 0.366100
27.442500 0.432800
27.518900 0.459400
27.595300 0.520300
27.671800 0.596100
27.748200 0.727500
27.824600 0.833500
27.901100 0.909800
27.977500 0.867100
28.053900 0.882100
28.130400 0.781400
28.206800 0.748600
28.283200 0.733600
28.359700 0.730000
28.436100 0.728600
28.512500 0.727900
28.589000 0.735400
28.665400 0.755100
28.741900 0.793300
28.818300 0.816800
28.894700 0.820600
28.971200 0.802000
29.047600 0.778500
29.124000 0.759300
29.200500 0.751800
29.276900 0.743700
29.353300 0.733200
29.429800 0.721000
29.506200 0.709700
29.582600 0.701700
29.659100 0.683400
29.735500 0.672900
29.811900 0.674800
29.888400 0.682900
29.964800 0.683100
30.041300 0.677700
30.117700 0.643100
30.194100 0.589800
30.270600 0.539200
30.347000 0.498000
30.423400 0.465300
30.499900 0.416900
30.576300 0.416200
30.652700 0.388100
30.729200 0.323900
30.805600 0.288500
30.882000 0.271800
30.958500 0.270500
31.034900 0.270300
31.111400 0.265800
31.187800 0.259500
31.264200 0.258400
31.340700 0.253100
31.417100 0.277800
31.493500 0.294200
31.570000 0.292200
31.646400 0.330300
31.722800 0.324700
31.799300 0.342000
31.875700 0.357100
31.952100 0.373500
32.028600 0.402900
32.105000 0.440100
32.181400 0.478800
32.257900 0.529600
32.334300 0.567500
32.410800 0.620400
32.487200 0.601200
32.563600 0.601300
32.640100 0.647200
32.716500 0.763400
32.792900 0.762400
32.869400 0.775800
32.945800 0.760400
33.022200 0.752000
33.098700 0.731600
33.175100 0.715600
33.251500 0.704400
33.328000 0.712300
33.404400 0.711500
33.480800 0.701400
33.557300 0.695900
33.633700 0.695900
33.710200 0.697300
33.786600 0.734300
33.863000 0.665500
33.939500 0.586300
34.015900 0.537700
34.092300 0.530400
34.168800 0.527500
34.245200 0.522300
34.321600 0.518000
34.398100 0.519300
34.474500 0.525700
34.550900 0.537100
34.627400 0.559400
34.703800 0.608000
34.780200 0.637300
34.856700 0.707000
34.933100 0.609100
35.009600 0.600000
35.086000 0.591800
35.162400 0.594700
35.238900 0.608100
35.315300 0.604800
35.391700 0.590200
35.468200 0.590000
35.544600 0.594000
35.621000 0.613000
35.697500 0.697300
35.773900 0.784600
35.850300 0.902000
35.926800 1.020800
36.003200 1.122100
36.079700 1.263200
36.156100 1.355300
36.232500 1.464200
36.309000 1.437900
36.385400 1.634900
36.461800 1.720400
36.538300 1.774100
36.614700 1.247700
36.691100 1.200500
36.767600 1.138700
36.844000 0.974300
36.920400 0.868700
36.996900 0.818700
37.073300 0.794800
37.149700 0.761900
37.226200 0.731400
37.302600 0.727500
37.379100 0.727600
37.455500 0.723900
37.531900 0.719200
37.608400 0.742500
37.684800 0.762700
37.761200 0.741900
37.837700 0.689600
37.914100 0.630000
37.990500 0.586100
38.067000 0.548900
38.143400 0.511400
38.219800 0.469000
38.296300 0.436800
38.372700 0.427700
38.449100 0.430400
38.525600 0.434300
38.602000 0.441900
38.678500 0.447900
38.754900 0.474800
38.831300 0.484700
38.907800 0.490100
38.984200 0.499700
39.060600 0.509600
39.137100 0.522100
39.213500 0.537900
39.289900 0.623500
39.366400 0.619800
39.442800 0.548200
39.519200 0.547800
39.595700 0.546100
39.672100 0.544600
39.748500 0.540600
39.825000 0.538700
39.901400 0.541500
39.977900 0.547100
40.054300 0.554300
40.130700 0.575100
40.207200 0.584100
40.283600 0.672900
40.360000 0.686100
40.436500 0.700200
40.512900 0.739900
40.589300 0.724600
40.665800 0.694300
40.742200 0.674900
40.818600 0.685300
40.895100 0.744300
40.971500 0.738900
41.048000 0.686400
41.124400 0.674500
41.200800 0.656500
41.277300 0.649200
41.353700 0.640600
41.430100 0.638400
41.506600 0.654000
41.583000 0.634800
41.659400 0.640000
41.735900 0.666600
41.812300 0.686600
41.888700 0.741400
41.965200 0.836400
42.041600 0.848800
42.118000 0.849900
42.194500 0.848300
42.270900 0.814500
42.347400 0.764300
42.423800 0.746300
42.500200 0.685700
42.576700 0.636300
42.653100 0.627000
42.729500 0.622700
42.806000 0.613500
42.882400 0.615200
42.958800 0.659400
43.035300 0.694300
43.111700 0.700000
43.188100 0.701200
43.264600 0.683200
43.341000 0.676100
43.417400 0.700300
43.493900 0.722800
43.570300 0.727100
43.646800 0.729400
43.723200 0.737800
43.799600 0.741900
43.876100 0.746700
43.952500 0.788800
44.028900 0.808800
44.105400 0.829400
44.181800 0.839600
44.258200 0.824000
44.334700 0.827100
44.411100 0.841100
44.487500 0.865400
44.564000 0.893200
44.640400 0.947600
44.716800 1.035600
44.793300 1.013800
44.869700 0.933700
44.946200 0.917600
45.022600 0.892600
45.099000 0.902200
45.175500 0.915800
45.251900 0.914800
45.328300 0.873700
45.404800 0.874800
45.481200 0.845400
45.557600 0.854300
45.634100 0.819900
45.710500 0.813800
45.786900 0.800100
45.863400 0.815400
45.939800 0.816900
46.016200 0.836400
46.092700 0.859500
46.169100 0.894100
46.245600 0.871400
46.322000 0.849700
46.398400 0.834400
46.474900 0.820300
46.551300 0.793800
46.627700 0.771000
46.704200 0.775100
46.780600 0.861900
46.857000 0.939600
46.933500 0.990000
47.009900 1.038600
47.086300 1.041900
47.162800 1.057000
47.239200 1.022000
47.315700 0.968800
47.392100 0.858800
47.468500 0.812000
47.545000 0.810200
47.621400 0.750700
47.697800 0.719300
47.774300 0.661000
47.850700 0.536800
47.927100 0.476100
48.003600 0.530300
48.080000 0.558700
48.156400 0.426400
48.232900 0.348600
48.309300 0.343400
48.385700 0.373300
48.462200 0.415900
48.538600 0.474600
48.615100 0.535900
48.691500 0.605100
48.767900 0.691900
48.844400 0.784800
48.920800 0.905900
48.997200 1.047900
49.073700 1.023000
49.150100 0.945900
49.226500 0.948800
49.303000 0.910800
49.379400 0.895700
49.455800 0.875400
49.532300 0.845600
49.608700 0.821000
49.685100 0.796200
49.761600 0.767300
49.838000 0.747700
49.914500 0.719800
49.990900 0.701400
50.067300 0.691400
50.143800 0.692700
50.220200 0.703500
50.296600 0.725000
50.373100 0.745000
50.449500 0.736100
50.525900 0.712400
50.602400 0.696900
50.678800 0.708100
50.755200 0.704500
50.831700 0.713800
50.908100 0.707600
50.984500 0.753000
51.061000 0.806900
51.137400 0.873800
51.213900 0.939500
51.290300 1.035100
51.366700 1.112200
51.443200 1.065400
51.519600 1.030400
51.596000 1.043800
51.672500 1.027400
51.748900 1.007700
51.825300 0.989300
51.901800 0.971500
51.978200 0.966700
52.054600 0.993700
52.131100 1.028900
52.207500 0.907500
52.284000 0.893400
52.360400 0.880300
52.436800 0.817200
52.513300 0.765500
52.589700 0.724200
52.666100 0.702800
52.742600 0.691300
52.819000 0.681200
52.895400 0.680300
52.971900 0.652500
53.048300 0.636500
53.124700 0.602200
53.201200 0.571200
53.277600 0.568600
53.354000 0.596200
53.430500 0.630800
53.506900 0.664500
53.583400 0.698400
53.659800 0.755700
53.736200 0.809000
53.812700 0.828800
53.889100 0.835600
53.965500 0.849200
54.042000 0.865600
54.118400 0.971100
54.194800 0.885100
54.271300 0.868900
54.347700 0.853600
54.424100 0.837700
54.500600 0.848100
54.577000 0.845700
54.653400 0.850400
54.729900 0.857600
54.806300 0.873100
54.882800 0.900500
54.959200 0.924900
55.035600 0.901400
55.112100 0.903200
55.188500 0.974900
55.264900 0.980400
55.341400 0.994400
55.417800 0.914600
55.494200 0.951100
55.570700 0.889300
55.647100 0.874500
55.723500 0.927000
55.800000 0.936500
55.876400 0.950200
55.952800 0.985900
56.029300 1.022000
56.105700 1.020000
56.182200 0.993100
56.258600 0.962700
56.335000 0.946000
56.411500 0.939600
56.487900 0.949600
56.564300 0.919800
56.640800 0.892100
56.717200 0.887400
56.793600 0.871300
56.870100 0.846200
56.946500 0.828900
57.022900 0.784800
57.099400 0.769000
57.175800 0.766200
57.252300 0.728500
57.328700 0.671700
57.405100 0.634100
57.481600 0.594600
57.558000 0.573200
57.634400 0.557700
57.710900 0.562100
57.787300 0.587200
57.863700 0.644200
57.940200 0.728100
58.016600 0.826900
58.093000 0.915400
58.169500 0.996900
58.245900 1.072600
58.322300 1.189200
58.398800 1.221100
58.475200 1.233400
58.551700 1.196100
58.628100 1.086700
58.704500 0.992100
58.781000 0.896300
58.857400 0.819400
58.933800 0.784400
59.010300 0.749300
59.086700 0.739400
59.163100 0.760000
59.239600 0.795100
59.316000 0.828900
59.392400 0.832100
59.468900 0.841200
59.545300 0.829400
59.621700 0.823800
59.698200 0.830700
59.774600 0.830900
59.851100 0.851700
59.927500 0.887800
60.003900 0.906100
60.080400 0.876500
60.156800 0.834900
60.233200 0.800600
60.309700 0.764000
60.386100 0.750900
60.462500 0.741900
60.539000 0.786700
60.615400 0.757400
60.691800 0.770000
60.768300 0.789400
60.844700 0.818800
60.921100 0.873000
60.997600 0.929300
61.074000 0.959000
61.150500 1.000500
61.226900 1.081900
61.303300 1.072200
61.379800 1.022100
61.456200 0.916200
61.532600 0.856300
61.609100 0.846000
61.685500 0.844100
61.761900 0.851600
61.838400 0.860400
61.914800 0.870100
61.991200 0.874100
62.067700 0.908100
62.144100 0.951600
62.220600 0.888300
62.297000 0.874700
62.373400 0.895300
62.449900 0.926400
62.526300 0.926700
62.602700 0.898600
62.679200 0.863800
62.755600 0.839400
62.832000 0.820300
62.908500 0.835200
62.984900 0.859700
63.061300 0.828500
63.137800 0.816500
63.214200 0.808400
63.290600 0.805800
63.367100 0.805100
63.443500 0.803900
63.520000 0.809100
63.596400 0.835900
63.672800 0.860700
63.749300 0.897900
63.825700 0.945500
63.902100 1.043200
63.978600 1.075100
64.055000 1.084900
64.131400 1.051600
64.207900 1.002600
64.284300 0.967500
64.360700 0.960900
64.437200 0.994000
64.513600 0.993700
64.590000 0.983400
64.666500 0.967200
64.742900 0.912300
64.819400 0.890200
64.895800 0.887500
64.972200 0.871700
65.048700 0.851800
65.125100 0.852200
65.201500 0.913500
65.278000 0.919100
65.354400 0.882800
65.430800 0.820500
65.507300 0.810300
65.583700 0.814900
65.660100 0.837700
65.736600 0.872800
65.813000 0.926500
65.889400 0.952500
65.965900 0.969200
66.042300 0.932600
66.118800 0.904500
66.195200 0.918800
66.271600 0.928500
66.348100 0.887600
66.424500 0.873700
66.500900 0.843800
66.577400 0.820700
66.653800 0.801100
66.730200 0.779200
66.806700 0.777700
66.883100 0.785700
66.959500 0.805500
67.036000 0.831400
67.112400 0.858000
67.188800 0.888200
67.265300 0.919700
67.341700 0.908800
67.418200 0.933600
67.494600 0.990600
67.571000 1.021000
67.647500 1.001800
67.723900 0.985000
67.800300 0.990900
67.876800 1.007800
67.953200 0.999100
68.029600 0.978400
68.106100 0.913800
68.182500 0.897500
68.258900 0.908500
68.335400 0.920400
68.411800 0.929200
68.488300 0.954500
68.564700 1.001100
68.641100 1.021700
68.717600 1.027600
68.794000 1.062700
68.870400 1.079200
68.946900 1.070700
69.023300 1.094700
69.099700 1.101100
69.176200 1.093400
69.252600 1.079700
69.329000 1.082300
69.405500 1.108300
69.481900 1.101800
69.558300 1.071300
69.634800 1.042700
69.711200 1.016700
69.787700 1.011500
69.864100 0.986700
69.940500 0.947200
70.017000 0.925300
70.093400 0.934000
70.169800 0.979100
70.246300 1.013400
70.322700 1.026200
70.399100 1.022900
70.475600 1.020700
70.552000 1.036300
70.628400 1.067200
70.704900 1.078400
70.781300 1.059500
70.857700 1.020200
70.934200 0.947300
71.010600 0.898700
71.087100 0.872800
71.163500 0.859500
71.239900 0.857900
71.316400 0.841800
71.392800 0.803500
71.469200 0.762800
71.545700 0.743000
71.622100 0.687400
71.698500 0.651500
71.775000 0.681300
71.851400 0.706200
71.927800 0.742000
72.004300 0.825500
72.080700 0.865600
72.157100 0.826400
72.233600 0.808400
72.310000 0.798300
72.386500 0.782500
72.462900 0.792300
72.539300 0.806000
72.615800 0.837100
72.692200 0.844600
72.768600 0.874600
72.845100 0.897600
72.921500 0.927900
72.997900 0.951900
73.074400 0.970600
73.150800 0.979800
73.227200 0.990300
73.303700 1.009900
73.380100 0.992600
73.456600 1.008700
73.533000 1.016200
73.609400 0.912900
73.685900 0.910900
73.762300 0.918700
73.838700 0.924600
73.915200 0.922200
73.991600 0.928800
74.068000 0.889900
74.144500 0.852200
74.220900 0.824600
74.297300 0.800000
74.373800 0.785600
74.450200 0.791400
74.526600 0.775500
74.603100 0.760000
74.679500 0.759400
74.756000 0.755000
74.832400 0.759600
74.908800 0.767800
74.985300 0.778100
75.061700 0.787900
75.138100 0.815600
75.214600 0.862100
75.291000 0.873100
75.367400 0.881000
75.443900 0.904600
75.520300 0.930900
75.596700 0.956300
75.673200 0.983100
75.749600 1.044800
75.826000 1.153600
75.902500 1.118900
75.978900 1.158500
76.055400 1.175000
76.131800 1.044000
76.208200 1.006000
76.284700 1.035800
76.361100 1.083600
76.437500 1.086400
76.514000 1.056900
76.590400 1.022100
76.666800 1.041800
76.743300 1.087100
76.819700 1.161500
76.896100 1.104200
76.972600 1.059800
77.049000 1.041700
77.125400 1.055100
77.201900 1.102200
77.278300 1.097300
77.354800 1.081900
77.431200 1.090800
77.507600 1.088400
77.584100 1.058000
77.660500 1.019400
77.736900 0.994600
77.813400 0.998900
77.889800 1.052600
77.966200 1.114600
78.042700 1.152300
78.119100 1.129200
78.195500 1.093500
78.272000 1.064300
78.348400 1.083100
78.424900 1.090300
78.501300 1.089900
78.577700 1.055900
78.654200 1.030800
78.730600 0.975400
78.807000 0.917200
78.883500 0.858800
78.959900 0.845700
79.036300 0.862300
79.112800 0.895400
79.189200 0.948500
79.265600 0.944200
79.342100 0.927000
79.418500 0.910400
79.494900 0.909700
79.571400 0.922600
79.647800 0.966400
79.724300 0.980300
79.800700 0.988700
79.877100 0.985600
79.953600 0.991900
80.030000 1.027700
80.106400 1.018000
80.182900 1.052200
80.259300 1.071300
80.335700 1.099800
80.412200 1.154900
80.488600 1.194200
80.565000 1.202800
80.641500 1.134800
80.717900 1.096500
80.794300 1.090600
80.870800 1.093600
80.947200 1.069900
81.023700 1.000300
81.100100 0.928100
81.176500 0.892200
81.253000 0.876000
81.329400 0.867600
81.405800 0.883300
81.482300 0.906500
81.558700 0.924200
81.635100 0.930700
81.711600 0.927800
81.788000 0.896500
81.864400 0.859300
81.940900 0.838500
82.017300 0.825900
82.093700 0.813600
82.170200 0.805300
82.246600 0.795200
82.323100 0.784800
82.399500 0.789100
82.475900 0.806600
82.552400 0.858900
82.628800 0.946100
82.705200 1.044400
82.781700 1.124200
82.858100 1.187800
82.934500 1.180200
83.011000 1.207100
83.087400 1.269800
83.163800 1.193200
83.240300 1.132900
83.316700 1.084800
83.393100 1.040800
83.469600 1.004300
83.546000 0.972600
83.622500 0.940400
83.698900 0.925700
83.775300 0.911300
83.851800 0.890100
83.928200 0.871500
84.004600 0.854400
84.081100 0.845000
84.157500 0.840100
84.233900 0.857200
84.310400 0.893100
84.386800 0.953000
84.463200 1.005500
84.539700 1.019500
84.616100 1.004900
84.692600 0.995700
84.769000 1.002200
84.845400 1.029100
84.921900 1.088800
84.998300 1.158800
85.074700 1.200400
85.151200 1.193300
85.227600 1.150000
85.304000 1.161200
85.380500 1.141900
85.456900 1.131400
85.533300 1.100800
85.609800 1.053300
85.686200 1.035900
85.762600 1.063700
85.839100 1.064000
85.915500 1.052100
85.992000 1.034400
86.068400 1.010900
86.144800 0.991900
86.221300 0.974100
86.297700 0.953400
86.374100 0.949200
86.450600 0.950700
86.527000 0.943900
86.603400 0.937600
86.679900 0.891200
86.756300 0.857000
86.832700 0.873100
86.909200 0.926100
86.985600 0.947000
87.062000 0.978500
87.138500 1.009100
87.214900 1.032600
87.291400 1.058900
87.367800 1.094200
87.444200 1.139900
87.520700 1.145000
87.597100 1.175900
87.673500 1.190200
87.750000 1.201300
87.826400 1.133600
87.902800 1.123800
87.979300 1.101200
88.055700 1.066300
88.132100 1.049600
88.208600 1.064100
88.285000 1.025700
88.361400 1.007000
88.437900 0.988800
88.514300 0.963300
88.590800 0.935700
88.667200 0.911900
88.743600 0.891000
88.820100 0.847100
88.896500 0.766200
88.972900 0.727200
89.049400 0.778100
89.125800 0.814300
89.202200 0.883900
89.278700 0.956900
89.355100 1.024000
89.431500 1.205200
89.508000 1.153800
89.584400 1.157200
89.660900 1.166800
89.737300 1.199700
89.813700 1.202600
89.890200 1.139700
89.966600 1.111700
90.043000 1.073300
90.119500 1.061400
90.195900 1.075300
90.272300 1.090700
90.348800 1.095200
90.425200 1.073900
90.501600 1.053100
90.578100 1.043900
90.654500 1.054300
90.730900 1.073700
90.807400 1.085100
90.883800 1.081400
90.960300 1.077500
91.036700 1.061000
91.113100 1.047800
91.189600 1.042000
91.266000 1.030500
91.342400 1.012000
91.418900 1.011600
91.495300 1.024900
91.571700 1.021600
91.648200 1.092100
91.724600 1.045500
91.801000 1.012600
91.877500 0.980600
91.953900 0.959000
92.030300 0.947700
92.106800 0.936000
92.183200 0.934700
92.259700 0.941800
92.336100 0.946700
92.412500 0.947500
92.489000 0.952600
92.565400 0.958000
92.641800 0.982000
92.718300 1.016800
92.794700 1.050500
92.871100 1.089800
92.947600 1.182900
93.024000 1.252400
93.100400 1.207000
93.176900 1.183500
93.253300 1.158700
93.329700 1.133100
93.406200 1.151500
93.482600 1.167900
93.559100 1.170700
93.635500 1.166800
93.711900 1.140900
93.788400 1.122400
93.864800 1.101500
93.941200 1.097200
94.017700 1.142700
94.094100 1.178700
94.170500 1.183500
94.247000 1.208700
94.323400 1.233000
94.399800 1.234400
94.476300 1.215800
94.552700 1.201200
94.629200 1.164200
94.705600 1.112100
94.782000 1.055900
94.858500 1.006600
94.934900 0.963700
95.011300 0.929900
95.087800 0.911500
95.164200 0.915100
95.240600 0.979000
95.317100 1.014100
95.393500 1.033600
95.469900 1.027600
95.546400 1.007400
95.622800 0.982800
95.699200 0.980700
95.775700 0.987200
95.852100 1.008600
95.928600 0.975800
96.005000 0.981400
96.081400 0.990000
96.157900 0.994300
96.234300 0.994900
96.310700 0.985600
96.387200 0.981200
96.463600 0.983900
96.540000 0.992800
96.616500 1.001100
96.692900 1.011500
96.769300 1.008800
96.845800 1.014100
96.922200 0.992100
96.998600 0.984300
97.075100 0.983200
97.151500 0.973100
97.228000 0.967500
97.304400 0.980200
97.380800 1.026300
97.457300 1.070200
97.533700 1.094300
97.610100 1.118600
97.686600 1.149200
97.763000 1.172600
97.839400 1.206100
97.915900 1.239400
97.992300 1.255600
98.068700 1.264800
98.145200 1.252800
98.221600 1.238300
98.298000 1.240000
98.374500 1.272900
98.450900 1.247200
98.527400 1.186100
98.603800 1.138700
98.680200 1.146700
98.756700 1.079800
98.833100 1.015300
98.909500 0.957500
98.986000 0.941900
99.062400 0.955600
99.138800 0.972100
99.215300 0.987900
99.291700 1.000100
99.368100 1.002900
99.444600 1.015400
99.521000 1.033800
99.597500 1.029400
99.673900 1.010200
99.750300 0.992100
99.826800 0.977200
99.903200 0.963900
99.979600 0.939700
100.056100 0.930400
100.132500 0.906000
100.208900 0.872200
100.285400 0.872500
100.361800 0.851800
100.438200 0.917500
100.514700 0.913900
100.591100 0.920000
100.667500 0.940700
100.744000 0.961700
100.820400 0.978100
100.896900 0.985000
100.973300 0.995400
101.049700 1.021100
101.126200 1.012700
101.202600 0.990600
101.279000 0.976400
101.355500 0.947400
101.431900 0.992300
101.508300 0.968600
101.584800 0.990800
101.661200 0.989600
101.737600 0.969400
101.814100 0.956100
101.890500 0.946600
101.966900 0.932100
102.043400 0.900800
102.119800 0.877500
102.196300 0.880100
102.272700 0.888600
102.349100 0.904900
102.425600 1.030800
102.502000 1.094200
102.578400 1.099000
102.654900 1.079100
102.731300 1.024000
102.807700 1.025400
102.884200 1.035000
102.960600 1.060000
103.037000 1.072700
103.113500 1.098900
103.189900 1.099800
103.266300 1.130200
103.342800 1.147500
103.419200 1.136700
103.495700 1.109400
103.572100 1.083700
103.648500 1.060300
103.725000 1.047200
103.801400 1.035300
103.877800 1.033800
103.954300 1.063400
104.030700 1.002000
104.107100 0.982500
104.183600 0.950600
104.260000 0.927100
104.336400 0.898000
104.412900 0.874300
104.489300 0.867500
104.565700 0.856200
104.642200 0.863500
104.718600 0.865500
104.795100 0.866800
104.871500 0.875300
104.947900 0.882100
105.024400 0.881300
105.100800 0.879600
105.177200 0.873600
105.253700 0.861000
105.330100 0.846500
105.406500 0.835500
105.483000 0.828600
105.559400 0.817800
105.635800 0.794000
105.712300 0.778600
105.788700 0.773300
105.865200 0.781500
105.941600 0.798500
106.018000 0.806000
106.094500 0.739700
106.170900 0.670100
106.247300 0.622800
106.323800 0.605800
106.400200 0.589900
106.476600 0.575100
106.553100 0.559700
106.629500 0.569700
106.705900 0.557300
106.782400 0.512300
106.858800 0.482600
106.935200 0.458200
107.011700 0.433100
107.088100 0.409800
107.164600 0.395500
107.241000 0.376000
107.317400 0.356900
107.393900 0.340600
107.470300 0.330800
107.546700 0.328100
107.623200 0.314800
107.699600 0.294000
107.776000 0.274600
107.852500 0.259000
107.928900 0.246100
108.005300 0.233000
108.081800 0.214300
108.158200 0.188300
108.234600 0.154600
108.311100 0.136000
108.387500 0.124300
108.464000 0.111900
108.540400 0.100400
108.616800 0.092000
108.693300 0.085000
108.769700 0.078100
108.846100 0.071100
108.922600 0.061800
108.999000 0.052600
109.075400 0.048700
109.151900 0.045800
109.228300 0.043400
109.304700 0.041400
109.381200 0.039800
109.457600 0.037800
109.534000 0.035600
109.610500 0.033000
109.686900 0.030000
109.763400 0.026700
109.839800 0.023600
109.916200 0.021900
109.992700 0.020200
110.069100 0.017600
110.145500 0.015800
110.222000 0.014200
110.298400 0.012800
110.374800 0.011300
110.451300 0.009800
110.527700 0.008100
110.604100 0.006400
110.680600 0.005300
110.757000 0.004300
110.833500 0.003400
110.909900 0.002600
110.986300 0.001900
111.062800 0.001300
111.139200 0.000900
111.215600 0.000500
111.292100 0.000200
111.368500 0.000100
111.444900 0.000000
111.521400 0.000000
111.597800 0.000000
111.674200 0.000000
111.750700 0.000000
111.827100 0.000000
111.903500 0.000000
111.980000 0.000000
112.056400 0.000000
112.132900 0.000000
112.209300 0.000000
112.285700 0.000000
112.362200 0.000000
112.438600 0.000000
112.515000 0.000000
112.591500 0.000000
112.667900 0.000000
112.744300 0.000000
112.820800 0.000000
112.897200 0.000000
112.973600 0.000000
113.050100 0.000000
113.126500 0.000000
113.202900 0.000000
113.279400 0.000000
113.355800 0.000000
113.432300 0.000000
113.508700 0.000000
113.585100 0.000000
113.661600 0.000000
113.738000 0.000000
113.814400 0.000000
113.890900 0.000000
113.967300 0.000000
114.043700 0.000000
114.120200 0.000000
114.196600 0.000000
114.273000 0.000000
114.349500 0.000000
114.425900 0.000000
114.502300 0.000000
114.578800 0.000000
114.655200 0.000000
114.731700 0.000000
114.808100 0.000000
114.884500 0.000000
114.961000 0.000000
115.037400 0.000000
115.113800 0.000000
115.190300 0.000000
115.266700 0.000000
115.343100 0.000000
115.419600 0.000000
115.496000 0.000000
115.572400 0.000000
115.648900 0.000000
115.725300 0.000000
115.801800 0.000000
115.878200 0.000000
115.954600 0.000000
116.031100 0.000000
116.107500 0.000000
116.183900 0.000000
116.260400 0.000000
116.336800 0.000000
116.413200 0.000000
116.489700 0.000000
116.566100 0.000000
116.642500 0.000000
116.719000 0.000000
116.795400 0.000000
116.871800 0.000000
116.948300 0.000000
117.024700 0.000000
117.101200 0.000000
117.177600 0.000000
117.254000 0.000000
117.330500 0.000000
117.406900 0.000000
117.483300 0.000000
117.559800 0.000000
117.636200 0.000000
117.712600 0.000000
117.789100 0.000000
117.865500 0.000000
117.941900 0.000000
118.018400 0.000000
118.094800 0.000000
118.171200 0.000000
118.247700 0.000000
118.324100 0.000000
118.400600 0.000000
e
