set title 'mp-29803 - Density of States'
set xlabel 'Energy (eV)'
set ylabel 'DOS (states/eV)'
set grid
set xrange [-10:10]
set yrange [0:9.257]
set xzeroaxis lt -1
set terminal png size 800,600
set output 'mp-29803_dos_gnuplot.png'
plot '-' using 1:2 with lines title 'DOS'
-12.814500 0.000000
-12.778800 0.000000
-12.743000 0.000000
-12.707300 0.000000
-12.671600 0.000000
-12.635800 0.000000
-12.600100 0.000000
-12.564300 0.000000
-12.528600 0.000000
-12.492900 0.000000
-12.457100 0.000000
-12.421400 0.000000
-12.385600 0.000000
-12.349900 0.000000
-12.314100 0.000000
-12.278400 0.000000
-12.242700 0.000000
-12.206900 0.000000
-12.171200 0.000000
-12.135400 0.000000
-12.099700 0.000000
-12.063900 0.000000
-12.028200 0.000000
-11.992500 0.000000
-11.956700 0.000000
-11.921000 0.000000
-11.885200 0.000000
-11.849500 0.000000
-11.813700 0.000000
-11.778000 0.000000
-11.742300 0.000000
-11.706500 0.000000
-11.670800 0.000000
-11.635000 0.000000
-11.599300 0.000000
-11.563500 0.000000
-11.527800 0.000000
-11.492100 0.000000
-11.456300 0.000000
-11.420600 0.000000
-11.384800 0.000000
-11.349100 0.000000
-11.313400 0.000000
-11.277600 0.000000
-11.241900 0.000000
-11.206100 0.000000
-11.170400 0.000000
-11.134600 0.000000
-11.098900 0.000000
-11.063200 0.000000
-11.027400 0.000000
-10.991700 0.000000
-10.955900 0.000000
-10.920200 0.000000
-10.884400 0.000000
-10.848700 0.000000
-10.813000 0.000000
-10.777200 0.000000
-10.741500 0.000000
-10.705700 0.000000
-10.670000 0.000000
-10.634200 0.000000
-10.598500 0.000000
-10.562800 0.000000
-10.527000 0.000000
-10.491300 0.000000
-10.455500 0.000000
-10.419800 0.000000
-10.384000 0.000000
-10.348300 0.000000
-10.312600 0.000000
-10.276800 0.000000
-10.241100 0.000000
-10.205300 0.000000
-10.169600 0.000000
-10.133800 0.000000
-10.098100 0.000000
-10.062400 0.000000
-10.026600 0.000000
-9.990900 0.000000
-9.955100 0.000000
-9.919400 0.000000
-9.883700 0.000000
-9.847900 0.000000
-9.812200 0.000000
-9.776400 0.000000
-9.740700 0.000000
-9.704900 0.000000
-9.669200 0.000000
-9.633500 0.000000
-9.597700 0.000000
-9.562000 0.000500
-9.526200 0.064900
-9.490500 0.215400
-9.454700 0.393300
-9.419000 0.571200
-9.383300 0.749200
-9.347500 0.927100
-9.311800 0.787600
-9.276000 0.582200
-9.240300 0.598600
-9.204500 0.615000
-9.168800 0.631500
-9.133100 0.647900
-9.097300 0.664300
-9.061600 0.680800
-9.025800 0.697200
-8.990100 0.713600
-8.954300 0.730100
-8.918600 0.746500
-8.882900 0.757200
-8.847100 0.752900
-8.811400 0.739700
-8.775600 0.726500
-8.739900 0.713300
-8.704200 0.700000
-8.668400 0.693500
-8.632700 0.698600
-8.596900 0.708400
-8.561200 0.718200
-8.525400 0.728000
-8.489700 0.737800
-8.454000 0.747600
-8.418200 0.757400
-8.382500 0.767200
-8.346700 0.777000
-8.311000 0.786800
-8.275200 0.796600
-8.239500 0.806500
-8.203800 0.816300
-8.168000 0.826100
-8.132300 0.835900
-8.096500 0.842100
-8.060800 0.851100
-8.025000 0.876200
-7.989300 0.910400
-7.953600 0.944600
-7.917800 0.978800
-7.882100 1.013000
-7.846300 1.047300
-7.810600 1.081500
-7.774800 1.397500
-7.739100 1.616000
-7.703400 1.519800
-7.667600 1.423600
-7.631900 1.327300
-7.596100 1.231100
-7.560400 1.134900
-7.524700 1.038600
-7.488900 0.942400
-7.453200 0.846100
-7.417400 0.749900
-7.381700 0.669500
-7.345900 0.734600
-7.310200 0.928000
-7.274500 1.123500
-7.238700 1.319200
-7.203000 1.203700
-7.167200 0.000000
-7.131500 0.000000
-7.095700 0.000000
-7.060000 0.000000
-7.024300 0.000000
-6.988500 0.000000
-6.952800 0.000000
-6.917000 0.000000
-6.881300 0.000000
-6.845500 0.000000
-6.809800 0.000000
-6.774100 0.000000
-6.738300 0.000000
-6.702600 0.000000
-6.666800 0.000000
-6.631100 0.000000
-6.595300 0.000000
-6.559600 0.000000
-6.523900 0.000000
-6.488100 0.000000
-6.452400 0.000000
-6.416600 0.000000
-6.380900 0.000000
-6.345100 0.000000
-6.309400 0.000000
-6.273700 0.000000
-6.237900 0.000000
-6.202200 0.000000
-6.166400 0.000000
-6.130700 6.195700
-6.095000 0.735800
-6.059200 0.887100
-6.023500 1.038300
-5.987700 1.189600
-5.952000 1.340900
-5.916200 1.492300
-5.880500 1.643600
-5.844800 1.794900
-5.809000 1.946200
-5.773300 1.218800
-5.737500 1.195900
-5.701800 1.173000
-5.666000 1.150100
-5.630300 1.127100
-5.594600 1.104200
-5.558800 1.081200
-5.523100 1.058200
-5.487300 1.035200
-5.451600 1.012200
-5.415800 1.109800
-5.380100 1.167700
-5.344400 1.191500
-5.308600 1.189200
-5.272900 1.186800
-5.237100 1.184200
-5.201400 1.181500
-5.165600 1.429200
-5.129900 1.935500
-5.094200 3.038600
-5.058400 1.655100
-5.022700 1.529700
-4.986900 1.421600
-4.951200 1.357200
-4.915500 1.360400
-4.879700 1.353000
-4.844000 1.268200
-4.808200 1.061900
-4.772500 0.846600
-4.736700 0.621500
-4.701000 0.385000
-4.665300 0.000000
-4.629500 0.000000
-4.593800 0.000000
-4.558000 0.000000
-4.522300 0.000000
-4.486500 0.000000
-4.450800 0.000000
-4.415100 0.000000
-4.379300 0.000000
-4.343600 0.000000
-4.307800 0.000000
-4.272100 0.000000
-4.236300 0.000000
-4.200600 0.000000
-4.164900 0.000000
-4.129100 0.000000
-4.093400 0.000000
-4.057600 0.000000
-4.021900 0.000000
-3.986100 0.000000
-3.950400 0.000000
-3.914700 0.000000
-3.878900 0.000000
-3.843200 0.000000
-3.807400 0.000000
-3.771700 0.000000
-3.736000 0.000000
-3.700200 0.000000
-3.664500 0.000000
-3.628700 0.000000
-3.593000 0.000000
-3.557200 0.000000
-3.521500 0.000000
-3.485800 0.000000
-3.450000 0.000000
-3.414300 0.000000
-3.378500 0.000000
-3.342800 0.000000
-3.307000 0.000000
-3.271300 0.000000
-3.235600 0.000000
-3.199800 0.000000
-3.164100 0.000000
-3.128300 0.000000
-3.092600 0.000000
-3.056800 0.000000
-3.021100 0.000000
-2.985400 0.000000
-2.949600 0.000000
-2.913900 0.202400
-2.878100 0.698900
-2.842400 0.906100
-2.806600 1.133000
-2.770900 1.378700
-2.735200 1.654900
-2.699400 1.979500
-2.663700 2.586600
-2.627900 3.074500
-2.592200 3.336300
-2.556400 3.299000
-2.520700 3.377700
-2.485000 3.450000
-2.449200 3.383300
-2.413500 2.927000
-2.377700 1.464300
-2.342000 1.533200
-2.306300 1.619400
-2.270500 1.721400
-2.234800 1.866300
-2.199000 2.053300
-2.163300 2.135300
-2.127500 2.279700
-2.091800 2.500300
-2.056100 2.847900
-2.020300 2.967100
-1.984600 3.056700
-1.948800 6.815400
-1.913100 8.415100
-1.877300 5.606300
-1.841600 4.033400
-1.805900 3.322100
-1.770100 3.101300
-1.734400 2.901700
-1.698600 2.706800
-1.662900 2.516600
-1.627100 2.293200
-1.591400 2.076400
-1.555700 1.857000
-1.519900 1.598100
-1.484200 1.531400
-1.448400 1.527000
-1.412700 1.519900
-1.376900 1.866700
-1.341200 1.440300
-1.305500 1.321300
-1.269700 1.332400
-1.234000 1.343500
-1.198200 1.354700
-1.162500 1.365800
-1.126800 1.386500
-1.091000 1.396200
-1.055300 1.405900
-1.019500 1.415600
-0.983800 1.425300
-0.948000 1.435000
-0.912300 1.444600
-0.876600 1.454300
-0.840800 1.463900
-0.805100 1.473600
-0.769300 1.483200
-0.733600 1.492800
-0.697800 1.502400
-0.662100 1.512000
-0.626400 1.513000
-0.590600 1.398000
-0.554900 1.128800
-0.519100 1.082900
-0.483400 1.037100
-0.447600 0.991700
-0.411900 0.955200
-0.376200 0.926000
-0.340400 0.896900
-0.304700 0.867800
-0.268900 0.838700
-0.233200 0.809500
-0.197400 0.782100
-0.161700 0.755700
-0.126000 0.729300
-0.090200 0.702900
-0.054500 0.676500
-0.018700 0.650100
0.017000 0.623700
0.052700 0.597300
0.088500 0.570800
0.124200 0.544400
0.160000 0.518000
0.195700 0.491600
0.231500 0.465200
0.267200 0.438800
0.302900 0.412400
0.338700 0.386000
0.374400 0.359600
0.410200 0.656000
0.445900 0.592200
0.481700 0.528400
0.517400 0.464600
0.553100 0.400800
0.588900 0.337000
0.624600 0.273200
0.660400 0.209400
0.696100 0.145600
0.731900 0.081800
0.767600 0.017900
0.803300 0.000000
0.839100 0.000000
0.874800 0.000000
0.910600 0.000000
0.946300 0.000000
0.982100 0.000000
1.017800 0.000000
1.053500 0.000000
1.089300 0.000000
1.125000 0.000000
1.160800 0.000000
1.196500 0.000000
1.232300 0.000000
1.268000 0.000000
1.303700 0.000000
1.339500 0.000000
1.375200 0.000000
1.411000 0.000000
1.446700 0.000000
1.482400 0.000000
1.518200 0.000000
1.553900 0.000000
1.589700 0.000000
1.625400 0.000000
1.661200 0.000000
1.696900 0.000000
1.732600 0.000000
1.768400 0.000000
1.804100 0.000000
1.839900 0.000000
1.875600 0.000000
1.911400 0.000000
1.947100 0.000000
1.982800 0.000000
2.018600 0.000000
2.054300 0.000000
2.090100 0.000000
2.125800 0.000000
2.161600 0.000000
2.197300 0.000000
2.233000 0.000000
2.268800 0.000000
2.304500 0.000000
2.340300 0.000000
2.376000 0.000000
2.411800 0.000000
2.447500 0.000000
2.483200 0.000000
2.519000 0.000000
2.554700 0.000000
2.590500 0.000000
2.626200 0.000000
2.661900 0.000000
2.697700 0.000000
2.733400 0.000000
2.769200 0.000000
2.804900 0.000000
2.840700 0.000000
2.876400 0.000000
2.912100 0.000000
2.947900 0.034600
2.983600 0.128600
3.019400 0.252400
3.055100 0.321900
3.090900 0.387100
3.126600 0.461300
3.162300 0.544200
3.198100 0.619700
3.233800 0.690800
3.269600 0.758000
3.305300 0.822300
3.341100 0.884300
3.376800 0.945600
3.412500 1.007000
3.448300 1.068400
3.484000 1.129900
3.519800 1.191300
3.555500 1.252800
3.591300 1.314300
3.627000 1.375900
3.662700 1.400500
3.698500 1.395400
3.734200 1.378900
3.770000 1.333000
3.805700 1.307000
3.841400 1.281100
3.877200 1.255100
3.912900 1.229100
3.948700 1.203100
3.984400 1.177200
4.020200 1.151200
4.055900 1.125200
4.091600 1.099300
4.127400 1.128700
4.163100 1.312900
4.198900 1.429100
4.234600 1.552800
4.270400 1.710600
4.306100 2.102700
4.341800 2.660700
4.377600 2.783300
4.413300 2.468200
4.449100 2.126300
4.484800 1.876200
4.520600 1.742800
4.556300 1.704200
4.592000 1.780100
4.627800 1.914000
4.663500 2.030400
4.699300 2.300900
4.735000 3.068800
4.770800 4.006000
4.806500 4.376700
4.842200 4.684000
4.878000 4.339000
4.913700 4.227200
4.949500 3.731700
4.985200 3.257500
5.021000 2.810400
5.056700 2.496400
5.092400 2.248400
5.128200 2.139300
5.163900 2.125400
5.199700 2.114000
5.235400 2.079600
5.271100 2.035400
5.306900 1.977700
5.342600 1.906500
5.378400 1.830900
5.414100 1.916600
5.449900 2.061700
5.485600 3.079800
5.521300 3.177200
5.557100 3.223100
5.592800 3.202500
5.628600 3.114700
5.664300 3.503900
5.700100 2.852000
5.735800 2.662900
5.771500 2.467500
5.807300 2.265900
5.843000 2.056600
5.878800 1.827900
5.914500 1.643100
5.950300 1.534600
5.986000 1.431100
6.021700 1.434200
6.057500 1.463800
6.093200 1.490800
6.129000 1.494000
6.164700 1.474800
6.200500 1.405500
6.236200 1.325600
6.271900 1.284000
6.307700 0.826200
6.343400 0.873700
6.379200 0.971100
6.414900 1.184100
6.450600 1.512800
6.486400 1.977400
6.522100 2.444100
6.557900 2.844300
6.593600 3.259600
6.629400 3.690100
6.665100 4.490700
6.700800 4.108800
6.736600 4.038400
6.772300 3.773000
6.808100 3.554800
6.843800 2.606200
6.879600 1.786500
6.915300 1.197300
6.951000 1.049300
6.986800 0.905400
7.022500 0.763100
7.058300 0.607700
7.094000 0.676700
7.129800 0.693500
7.165500 1.458300
7.201200 1.118800
7.237000 1.307400
7.272700 1.364500
7.308500 1.594300
7.344200 1.836900
7.380000 2.071100
7.415700 2.285300
7.451400 2.472300
7.487200 2.659000
7.522900 2.649000
7.558700 2.053300
7.594400 1.925200
7.630100 1.798500
7.665900 1.673100
7.701600 1.596100
7.737400 1.523800
7.773100 1.445900
7.808900 1.371200
7.844600 1.309100
7.880300 1.253000
7.916100 1.207800
7.951800 1.175000
7.987600 1.147200
8.023300 1.123500
8.059100 1.104800
8.094800 1.091100
8.130500 1.082100
8.166300 1.078000
8.202000 1.074800
8.237800 1.073200
8.273500 1.075500
8.309300 1.082000
8.345000 1.092800
8.380700 1.105600
8.416500 1.119800
8.452200 1.164100
8.488000 1.186900
8.523700 1.212300
8.559500 1.240300
8.595200 1.281900
8.630900 1.300100
8.666700 1.258500
8.702400 1.340600
8.738200 1.494800
8.773900 1.555700
8.809700 1.555600
8.845400 1.562400
8.881100 1.614800
8.916900 1.670300
8.952600 1.710900
8.988400 2.089900
9.024100 2.263300
9.059800 2.190300
9.095600 2.278600
9.131300 2.340200
9.167100 2.380500
9.202800 2.488700
9.238600 2.530800
9.274300 2.524700
9.310000 2.522900
9.345800 2.482400
9.381500 2.461800
9.417300 2.454500
9.453000 2.358200
9.488800 2.196700
9.524500 2.031000
9.560200 1.889500
9.596000 1.746700
9.631700 1.604600
9.667500 1.483900
9.703200 1.382100
9.739000 1.298700
9.774700 1.233800
9.810400 1.400700
9.846200 1.448200
9.881900 1.499500
9.917700 1.549500
9.953400 1.745700
9.989200 1.795400
10.024900 1.869000
10.060600 1.961600
10.096400 2.057400
10.132100 3.224500
10.167900 2.498300
10.203600 2.322500
10.239300 2.169600
10.275100 2.044800
10.310800 1.948300
10.346600 1.897700
10.382300 1.890000
10.418100 1.886400
10.453800 1.882500
10.489500 1.878100
10.525300 1.873000
10.561000 1.867100
10.596800 1.860300
10.632500 1.926300
10.668300 1.976500
10.704000 2.014300
10.739700 2.039800
10.775500 2.037000
10.811200 2.017200
10.847000 1.926000
10.882700 1.805100
10.918500 1.741500
10.954200 1.735600
10.989900 1.764500
11.025700 1.819000
11.061400 2.009900
11.097200 2.101900
11.132900 2.167000
11.168700 2.205600
11.204400 2.228500
11.240100 2.360600
11.275900 2.396100
11.311600 2.394300
11.347400 2.455400
11.383100 2.399600
11.418800 2.277900
11.454600 2.191700
11.490300 2.092400
11.526100 1.979000
11.561800 1.841600
11.597600 1.656600
11.633300 1.606500
11.669000 1.562100
11.704800 1.540100
11.740500 1.589600
11.776300 1.710300
11.812000 1.834800
11.847800 1.990800
11.883500 2.388400
11.919200 3.065100
11.955000 3.418400
11.990700 3.471200
12.026500 3.466600
12.062200 3.408800
12.098000 3.297300
12.133700 3.128800
12.169400 2.851400
12.205200 2.499600
12.240900 2.341700
12.276700 2.233000
12.312400 2.082500
12.348200 1.886900
12.383900 1.600500
12.419600 1.181500
12.455400 1.138800
12.491100 1.144500
12.526900 1.194800
12.562600 1.352700
12.598400 1.553300
12.634100 1.786700
12.669800 2.031900
12.705600 2.290300
12.741300 2.585900
12.777100 2.628800
12.812800 2.689400
12.848500 2.882200
12.884300 3.053600
12.920000 2.780100
12.955800 2.638600
12.991500 2.461300
13.027300 2.279600
13.063000 2.096100
13.098700 2.015300
13.134500 1.935700
13.170200 1.856300
13.206000 1.788500
13.241700 1.725800
13.277500 1.677600
13.313200 1.646000
13.348900 1.638900
13.384700 1.669500
13.420400 1.696400
13.456200 1.733200
13.491900 1.791500
13.527700 1.871200
13.563400 1.970200
13.599100 2.363700
13.634900 2.432300
13.670600 2.533900
13.706400 2.657500
13.742100 2.818400
13.777900 2.983200
13.813600 3.123100
13.849300 3.110700
13.885100 3.046000
13.920800 2.879700
13.956600 2.532700
13.992300 2.318900
14.028000 2.180200
14.063800 2.113000
14.099500 2.080400
14.135300 2.083000
14.171000 2.119500
14.206800 2.171700
14.242500 2.233600
14.278200 2.304600
14.314000 2.597800
14.349700 2.813800
14.385500 2.918600
14.421200 2.961600
14.457000 2.967500
14.492700 2.925200
14.528400 2.891500
14.564200 2.859000
14.599900 2.948200
14.635700 2.940900
14.671400 2.848200
14.707200 2.743000
14.742900 2.547300
14.778600 2.319500
14.814400 2.140900
14.850100 1.986900
14.885900 1.934200
14.921600 1.896900
14.957400 1.869900
14.993100 1.851500
15.028800 1.845300
15.064600 1.982700
15.100300 2.112200
15.136100 2.231400
15.171800 2.353100
15.207500 2.478800
15.243300 2.536600
15.279000 2.675100
15.314800 2.812000
15.350500 2.938500
15.386300 3.006900
15.422000 3.185100
15.457700 3.052700
15.493500 2.586700
15.529200 2.608200
15.565000 2.608400
15.600700 2.678200
15.636500 2.750700
15.672200 2.596500
15.707900 2.436600
15.743700 2.309300
15.779400 2.164000
15.815200 2.207200
15.850900 2.324900
15.886700 2.516600
15.922400 2.790500
15.958100 3.003300
15.993900 3.372600
16.029600 3.074700
16.065400 3.282900
16.101100 3.148900
16.136900 2.960700
16.172600 2.735300
16.208300 2.369200
16.244100 2.037700
16.279800 1.889900
16.315600 1.800200
16.351300 1.767900
16.387000 1.759400
16.422800 1.766700
16.458500 1.791200
16.494300 1.836900
16.530000 1.857200
16.565800 1.885000
16.601500 1.933900
16.637200 2.000700
16.673000 2.096600
16.708700 2.216200
16.744500 2.428200
16.780200 2.283600
16.816000 2.187400
16.851700 2.145700
16.887400 2.123400
16.923200 2.109100
16.958900 2.103000
16.994700 2.393900
17.030400 2.785100
17.066200 2.903000
17.101900 3.147200
17.137600 3.041400
17.173400 2.634200
17.209100 2.338300
17.244900 2.084000
17.280600 1.871600
17.316400 1.700800
17.352100 1.584600
17.387800 1.610100
17.423600 1.778100
17.459300 2.066000
17.495100 2.443300
17.530800 2.525800
17.566600 2.538700
17.602300 2.550000
17.638000 2.569300
17.673800 2.557600
17.709500 2.394400
17.745300 2.305500
17.781000 2.189100
17.816700 2.130400
17.852500 2.070500
17.888200 2.008000
17.924000 1.969900
17.959700 1.992700
17.995500 2.042300
18.031200 2.007400
18.066900 1.999100
18.102700 1.913000
18.138400 2.074200
18.174200 2.221700
18.209900 2.351200
18.245700 2.476700
18.281400 2.637400
18.317100 2.844900
18.352900 3.844000
18.388600 4.207600
18.424400 3.999200
18.460100 3.871500
18.495900 3.734500
18.531600 3.682500
18.567300 3.047800
18.603100 3.188100
18.638800 2.882900
18.674600 2.639900
18.710300 2.889500
18.746100 2.957800
18.781800 5.381200
18.817500 3.026300
18.853300 2.471900
18.889000 2.314900
18.924800 2.219600
18.960500 2.284700
18.996200 2.487900
19.032000 2.748000
19.067700 3.033100
19.103500 3.412100
19.139200 3.580200
19.175000 3.676600
19.210700 3.761900
19.246400 3.739700
19.282200 3.618300
19.317900 3.275400
19.353700 2.885700
19.389400 2.509900
19.425200 2.164500
19.460900 1.761000
19.496600 1.540900
19.532400 1.463700
19.568100 1.458800
19.603900 1.485400
19.639600 1.541800
19.675400 1.604200
19.711100 1.660900
19.746800 1.720100
19.782600 1.781400
19.818300 1.845100
19.854100 1.911000
19.889800 1.981900
19.925600 2.070400
19.961300 2.200500
19.997000 2.253200
20.032800 2.356900
20.068500 2.469500
20.104300 2.619100
20.140000 3.051600
20.175700 5.216600
20.211500 3.687300
20.247200 3.299300
20.283000 2.941800
20.318700 2.665800
20.354500 2.422600
20.390200 2.311200
20.425900 2.273900
20.461700 2.267100
20.497400 2.258100
20.533200 2.246800
20.568900 2.225900
20.604700 2.223100
20.640400 2.269700
20.676100 2.334000
20.711900 2.398100
20.747600 2.462100
20.783400 2.541000
20.819100 2.624100
20.854900 2.694800
20.890600 2.757800
20.926300 2.883600
20.962100 2.973900
20.997800 2.846700
21.033600 2.619200
21.069300 2.384900
21.105100 2.169400
21.140800 2.094500
21.176500 2.354000
21.212300 2.820300
21.248000 2.511700
21.283800 2.619600
21.319500 3.489100
21.355300 3.472600
21.391000 3.373300
21.426700 3.090200
21.462500 2.775300
21.498200 2.242200
21.534000 2.040200
21.569700 2.018700
21.605400 2.225200
21.641200 2.423600
21.676900 2.630600
21.712700 2.809200
21.748400 2.953600
21.784200 3.046100
21.819900 3.083600
21.855600 3.176600
21.891400 3.185500
21.927100 3.181100
21.962900 3.148100
21.998600 2.984300
22.034400 2.837400
22.070100 2.842400
22.105800 2.851200
22.141600 2.851900
22.177300 2.887200
22.213100 3.037500
22.248800 3.265600
22.284600 3.539400
22.320300 3.923500
22.356000 4.431400
22.391800 4.836500
22.427500 4.181600
22.463300 3.899700
22.499000 3.646400
22.534800 3.322900
22.570500 3.050300
22.606200 2.862800
22.642000 2.668800
22.677700 2.518100
22.713500 2.512000
22.749200 2.468100
22.784900 2.356000
22.820700 2.243200
22.856400 2.159400
22.892200 2.111400
22.927900 2.122300
22.963700 2.192000
22.999400 2.355500
23.035100 2.613400
23.070900 3.038600
23.106600 3.901800
23.142400 4.302000
23.178100 4.361100
23.213900 4.130800
23.249600 3.568700
23.285300 3.180300
23.321100 2.817200
23.356800 2.512900
23.392600 2.376300
23.428300 2.121500
23.464100 2.053500
23.499800 2.022800
23.535500 2.062000
23.571300 2.170200
23.607000 2.375200
23.642800 2.561500
23.678500 2.735100
23.714300 2.825200
23.750000 2.821100
23.785700 2.749000
23.821500 2.755400
23.857200 2.979800
23.893000 3.028100
23.928700 3.020200
23.964400 2.973400
24.000200 2.909400
24.035900 2.853900
24.071700 2.816000
24.107400 2.797200
24.143200 2.797600
24.178900 2.819800
24.214600 2.999500
24.250400 2.836000
24.286100 2.565300
24.321900 2.775600
24.357600 2.681700
24.393400 2.752400
24.429100 2.919500
24.464800 3.100700
24.500600 3.203500
24.536300 3.150000
24.572100 3.015600
24.607800 2.889800
24.643600 2.753300
24.679300 2.585800
24.715000 2.369300
24.750800 2.207800
24.786500 2.103600
24.822300 2.022400
24.858000 2.020000
24.893800 1.974400
24.929500 1.818700
24.965200 1.892800
25.001000 1.993500
25.036700 2.121000
25.072500 2.409500
25.108200 2.573700
25.144000 2.788100
25.179700 3.157500
25.215400 3.815100
25.251200 4.294000
25.286900 4.285400
25.322700 3.981100
25.358400 3.578200
25.394100 3.197100
25.429900 3.028900
25.465600 2.828500
25.501400 2.613200
25.537100 1.958500
25.572900 1.981800
25.608600 2.008100
25.644300 2.052600
25.680100 2.501200
25.715800 2.812900
25.751600 2.818000
25.787300 2.888100
25.823100 2.962800
25.858800 3.039100
25.894500 3.114700
25.930300 3.268500
25.966000 3.396600
26.001800 3.506900
26.037500 3.601100
26.073300 3.697700
26.109000 3.801800
26.144700 3.568000
26.180500 3.188500
26.216200 2.832700
26.252000 2.059300
26.287700 1.760600
26.323500 1.189700
26.359200 1.233300
26.394900 1.342100
26.430700 1.529700
26.466400 1.682900
26.502200 1.899000
26.537900 2.292800
26.573600 3.088300
26.609400 3.505500
26.645100 2.880800
26.680900 2.934100
26.716600 2.965300
26.752400 2.968900
26.788100 2.940900
26.823800 2.893900
26.859600 2.810700
26.895300 2.695300
26.931100 2.569600
26.966800 2.500600
27.002600 2.098700
27.038300 2.224700
27.074000 2.773500
27.109800 3.321300
27.145500 3.467100
27.181300 3.509700
27.217000 3.433100
27.252800 3.303100
27.288500 3.164100
27.324200 3.064900
27.360000 2.993600
27.395700 2.975000
27.431500 2.963400
27.467200 2.944100
27.503000 2.955900
27.538700 3.150100
27.574400 3.332000
27.610200 3.351400
27.645900 2.933100
27.681700 2.678500
27.717400 2.718400
27.753100 2.850300
27.788900 3.083200
27.824600 3.379600
27.860400 3.748600
27.896100 4.388700
27.931900 4.804400
27.967600 6.250500
28.003300 4.301000
28.039100 3.845000
28.074800 3.427900
28.110600 3.263800
28.146300 3.405500
28.182100 3.706100
28.217800 3.668600
28.253500 3.531200
28.289300 3.253800
28.325000 2.933500
28.360800 2.696400
28.396500 2.489200
28.432300 2.383900
28.468000 2.318500
28.503700 2.296300
28.539500 2.288800
28.575200 2.318300
28.611000 2.368300
28.646700 2.431400
28.682500 2.507500
28.718200 2.614600
28.753900 2.668200
28.789700 2.633600
28.825400 2.736000
28.861200 3.157600
28.896900 3.154900
28.932700 3.116700
28.968400 3.150700
29.004100 3.025700
29.039900 3.010700
29.075600 3.037600
29.111400 3.084100
29.147100 3.130200
29.182800 3.218600
29.218600 3.399900
29.254300 3.412000
29.290100 3.462400
29.325800 4.165900
29.361600 2.823500
29.397300 2.831000
29.433000 2.910700
29.468800 3.064600
29.504500 3.413700
29.540300 3.811600
29.576000 3.887100
29.611800 3.931200
29.647500 3.924000
29.683200 3.862100
29.719000 3.614600
29.754700 3.273100
29.790500 2.990800
29.826200 2.839000
29.862000 2.675700
29.897700 2.617100
29.933400 2.583700
29.969200 2.671100
30.004900 2.626800
30.040700 2.530100
30.076400 2.489300
30.112200 2.485500
30.147900 2.514100
30.183600 2.583000
30.219400 2.867700
30.255100 3.007100
30.290900 3.029300
30.326600 3.161100
30.362300 3.407800
30.398100 3.576600
30.433800 3.803800
30.469600 3.592500
30.505300 3.459100
30.541100 3.287200
30.576800 3.139400
30.612500 2.993900
30.648300 2.848900
30.684000 2.737400
30.719800 2.616600
30.755500 2.327600
30.791300 2.236300
30.827000 2.238500
30.862700 2.381200
30.898500 2.619700
30.934200 2.901500
30.970000 3.997000
31.005700 3.607600
31.041500 3.180600
31.077200 2.945600
31.112900 2.880700
31.148700 2.874700
31.184400 2.831400
31.220200 2.770200
31.255900 2.896000
31.291700 3.029700
31.327400 3.181000
31.363100 3.456900
31.398900 3.899800
31.434600 4.396100
31.470400 5.087200
31.506100 4.922700
31.541800 4.509500
31.577600 3.714100
31.613300 3.577900
31.649100 3.521200
31.684800 3.690700
31.720600 3.387500
31.756300 3.378800
31.792000 3.335800
31.827800 3.128100
31.863500 3.027500
31.899300 3.113100
31.935000 3.159100
31.970800 3.247800
32.006500 3.323400
32.042200 3.414800
32.078000 3.491200
32.113700 3.557800
32.149500 3.224100
32.185200 4.042600
32.221000 3.240600
32.256700 3.274300
32.292400 3.234500
32.328200 3.146900
32.363900 3.061600
32.399700 2.980800
32.435400 2.908800
32.471200 2.859700
32.506900 2.830500
32.542600 2.803000
32.578400 2.548600
32.614100 2.478800
32.649900 2.457800
32.685600 2.450300
32.721400 2.476500
32.757100 2.512300
32.792800 2.545700
32.828600 2.768000
32.864300 3.640500
32.900100 3.981400
32.935800 4.182500
32.971500 4.240700
33.007300 4.241500
33.043000 4.197800
33.078800 3.967800
33.114500 3.793800
33.150300 3.591300
33.186000 3.458400
33.221700 3.316600
33.257500 3.213500
33.293200 3.108500
33.329000 2.997200
33.364700 2.920400
33.400500 2.908600
33.436200 2.919900
33.471900 3.027600
33.507700 3.057200
33.543400 3.218900
33.579200 3.428300
33.614900 3.635200
33.650700 3.874900
33.686400 4.125200
33.722100 4.161700
33.757900 4.003800
33.793600 3.681300
33.829400 3.892600
33.865100 2.896800
33.900900 2.867700
33.936600 2.716600
33.972300 2.807200
34.008100 2.919100
34.043800 2.952100
34.079600 2.981100
34.115300 3.007100
34.151000 3.026900
34.186800 3.134400
34.222500 3.412300
34.258300 3.901000
34.294000 4.980500
34.329800 4.315600
34.365500 4.278800
34.401200 4.147500
34.437000 3.944800
34.472700 3.742000
34.508500 3.478200
34.544200 3.199100
34.580000 2.969800
34.615700 2.869600
34.651400 2.784800
34.687200 2.687200
34.722900 2.631400
34.758700 2.596200
34.794400 2.494600
34.830200 2.458100
34.865900 2.407200
34.901600 2.367600
34.937400 2.338100
34.973100 2.318600
35.008900 2.308800
35.044600 2.323800
35.080400 2.349100
35.116100 2.375000
35.151800 2.402800
35.187600 2.432600
35.223300 2.459500
35.259100 2.501700
35.294800 2.544900
35.330500 2.585900
35.366300 2.628500
35.402000 2.604900
35.437800 2.655500
35.473500 2.748000
35.509300 2.789800
35.545000 2.843100
35.580700 2.938700
35.616500 3.872400
35.652200 3.488500
35.688000 3.667700
35.723700 3.053700
35.759500 2.915400
35.795200 2.813800
35.830900 2.770800
35.866700 2.868500
35.902400 2.959400
35.938200 2.991100
35.973900 3.053300
36.009700 3.166000
36.045400 3.269100
36.081100 3.378600
36.116900 3.609100
36.152600 3.830600
36.188400 3.797600
36.224100 3.512700
36.259900 3.399100
36.295600 3.406900
36.331300 3.458700
36.367100 3.380600
36.402800 3.291700
36.438600 3.320100
36.474300 3.262800
36.510100 3.257400
36.545800 3.263400
36.581500 3.286200
36.617300 3.328800
36.653000 3.269100
36.688800 3.244600
36.724500 3.203800
36.760200 3.150900
36.796000 3.104600
36.831700 3.126000
36.867500 3.148000
36.903200 3.172000
36.939000 3.183200
36.974700 3.240500
37.010400 3.328800
37.046200 3.530300
37.081900 3.572300
37.117700 3.510600
37.153400 3.534000
37.189200 3.491700
37.224900 3.516300
37.260600 3.607300
37.296400 4.469800
37.332100 3.446600
37.367900 3.401000
37.403600 3.366800
37.439400 3.467900
37.475100 3.226400
37.510800 3.015000
37.546600 3.004100
37.582300 3.064700
37.618100 3.319300
37.653800 3.853000
37.689600 3.444000
37.725300 3.369400
37.761000 3.309200
37.796800 3.411400
37.832500 3.566800
37.868300 3.745600
37.904000 3.333500
37.939700 3.401000
37.975500 3.489800
38.011200 3.891100
38.047000 4.033100
38.082700 3.812400
38.118500 3.818100
38.154200 3.819600
38.189900 3.728600
38.225700 3.698200
38.261400 3.695700
38.297200 3.801600
38.332900 3.858700
38.368700 3.711300
38.404400 3.573800
38.440100 3.455300
38.475900 3.333100
38.511600 3.166800
38.547400 3.062100
38.583100 2.934700
38.618900 2.826400
38.654600 2.714000
38.690300 2.662300
38.726100 2.671500
38.761800 2.787000
38.797600 2.743800
38.833300 3.007000
38.869100 3.323300
38.904800 3.673900
38.940500 3.943800
38.976300 4.106300
39.012000 4.110800
39.047800 4.067000
39.083500 4.034600
39.119200 3.953500
39.155000 3.711000
39.190700 3.687900
39.226500 3.498900
39.262200 3.338800
39.298000 3.250600
39.333700 3.260600
39.369400 3.316500
39.405200 3.349900
39.440900 3.388100
39.476700 3.468600
39.512400 3.581600
39.548200 3.682600
39.583900 3.854300
39.619600 3.971100
39.655400 3.972200
39.691100 3.879000
39.726900 3.838400
39.762600 3.845900
39.798400 3.891000
39.834100 3.921300
39.869800 3.978500
39.905600 4.071600
39.941300 4.157900
39.977100 4.251000
40.012800 4.421100
40.048600 4.501400
40.084300 4.461700
40.120000 4.048100
40.155800 3.681800
40.191500 3.535000
40.227300 3.452100
40.263000 3.375700
40.298800 3.293000
40.334500 3.240900
40.370200 3.243100
40.406000 3.299500
40.441700 3.341400
40.477500 3.290500
40.513200 3.229200
40.548900 3.228000
40.584700 3.497000
40.620400 3.420200
40.656200 3.206200
40.691900 3.500900
40.727700 3.904900
40.763400 4.358700
40.799100 4.482300
40.834900 4.331700
40.870600 3.708300
40.906400 3.528200
40.942100 3.351100
40.977900 2.911900
41.013600 2.712000
41.049300 2.530900
41.085100 2.401400
41.120800 2.309800
41.156600 2.242700
41.192300 2.194700
41.228100 2.134500
41.263800 2.228300
41.299500 2.363600
41.335300 2.528200
41.371000 2.676000
41.406800 2.809500
41.442500 2.953400
41.478300 3.120200
41.514000 3.588300
41.549700 4.153700
41.585500 4.246400
41.621200 4.224100
41.657000 4.162600
41.692700 4.072900
41.728400 3.872900
41.764200 3.818000
41.799900 3.552900
41.835700 3.509200
41.871400 3.521700
41.907200 3.627300
41.942900 3.903300
41.978600 4.107100
42.014400 4.176800
42.050100 4.266400
42.085900 4.245100
42.121600 4.146600
42.157400 4.056900
42.193100 3.905500
42.228800 3.717900
42.264600 3.522000
42.300300 3.387700
42.336100 3.188100
42.371800 3.127200
42.407600 2.929500
42.443300 2.864200
42.479000 2.905500
42.514800 4.029500
42.550500 4.333900
42.586300 4.325900
42.622000 4.347400
42.657800 4.242100
42.693500 3.997800
42.729200 4.016900
42.765000 3.793800
42.800700 3.732100
42.836500 3.716900
42.872200 3.695700
42.907900 3.667900
42.943700 3.680200
42.979400 3.676000
43.015200 3.920000
43.050900 4.220200
43.086700 4.143800
43.122400 3.800700
43.158100 3.914100
43.193900 4.100300
43.229600 4.112600
43.265400 3.802900
43.301100 3.662100
43.336900 3.530100
43.372600 3.401100
43.408300 3.265700
43.444100 3.131500
43.479800 2.954000
43.515600 2.892800
43.551300 2.868600
43.587100 2.885600
43.622800 2.921200
43.658500 2.899400
43.694300 3.144100
43.730000 3.217400
43.765800 3.235300
43.801500 3.378600
43.837300 3.398500
43.873000 3.234900
43.908700 3.300600
43.944500 3.386500
43.980200 3.852500
44.016000 3.961200
44.051700 3.873100
44.087500 4.090700
44.123200 4.307900
44.158900 4.406800
44.194700 4.391600
44.230400 4.393200
44.266200 4.356100
44.301900 4.221300
44.337600 4.064100
44.373400 3.894600
44.409100 4.153900
44.444900 3.939300
44.480600 3.801600
44.516400 4.091900
44.552100 3.680300
44.587800 3.440400
44.623600 3.331300
44.659300 3.264300
44.695100 3.089200
44.730800 3.029000
44.766600 3.031500
44.802300 3.056000
44.838000 3.027800
44.873800 3.024600
44.909500 3.119700
44.945300 3.250700
44.981000 3.386500
45.016800 3.581200
45.052500 3.855700
45.088200 3.839500
45.124000 3.912300
45.159700 4.017800
45.195500 4.218500
45.231200 4.380300
45.267000 4.315000
45.302700 4.452200
45.338400 4.496500
45.374200 4.438300
45.409900 4.527500
45.445700 4.529800
45.481400 4.530200
45.517100 4.274100
45.552900 4.043300
45.588600 3.758600
45.624400 3.752000
45.660100 3.612100
45.695900 3.595500
45.731600 3.631200
45.767300 3.739300
45.803100 3.864400
45.838800 4.230800
45.874600 4.616600
45.910300 4.945700
45.946100 4.399100
45.981800 4.065700
46.017500 3.690600
46.053300 3.419700
46.089000 3.190800
46.124800 2.896800
46.160500 2.800800
46.196300 2.729800
46.232000 2.687900
46.267700 2.649300
46.303500 2.664600
46.339200 3.173800
46.375000 3.162600
46.410700 3.301300
46.446500 3.421300
46.482200 3.503200
46.517900 3.098700
46.553700 2.797000
46.589400 2.287500
46.625200 2.786500
46.660900 2.911500
46.696600 3.184300
46.732400 3.564300
46.768100 3.899500
46.803900 4.187800
46.839600 4.423600
46.875400 4.440400
46.911100 4.073100
46.946800 3.883200
46.982600 3.581100
47.018300 3.147600
47.054100 2.703900
47.089800 2.249700
47.125600 2.375800
47.161300 2.930800
47.197000 4.539200
47.232800 3.782300
47.268500 4.007500
47.304300 3.960200
47.340000 3.949900
47.375800 3.968000
47.411500 3.956500
47.447200 3.912600
47.483000 3.840400
47.518700 3.595100
47.554500 3.377000
47.590200 3.135900
47.626000 2.915400
47.661700 2.706400
47.697400 2.587800
47.733200 2.522800
47.768900 2.582200
47.804700 2.783400
47.840400 2.998700
47.876200 3.242700
47.911900 3.520200
47.947600 3.817400
47.983400 4.139800
48.019100 4.476700
48.054900 4.816400
48.090600 5.241200
48.126300 5.480000
48.162100 5.385000
48.197800 4.769800
48.233600 4.300700
48.269300 3.896200
48.305100 3.618800
48.340800 3.688300
48.376500 4.100900
48.412300 4.660800
48.448000 4.810300
48.483800 5.274800
48.519500 4.850000
48.555300 4.171800
48.591000 3.889500
48.626700 4.073900
48.662500 4.233200
48.698200 3.883600
48.734000 3.782400
48.769700 3.755600
48.805500 3.806900
48.841200 3.851600
48.876900 3.799600
48.912700 3.585200
48.948400 3.236500
48.984200 3.143400
49.019900 3.128000
49.055700 3.111800
49.091400 3.028300
49.127100 2.990500
49.162900 3.064000
49.198600 3.172600
49.234400 3.244800
49.270100 3.254500
49.305800 3.324000
49.341600 3.402200
49.377300 3.542900
49.413100 3.759200
49.448800 3.919900
49.484600 4.003100
49.520300 4.225500
49.556000 4.422700
49.591800 4.502900
49.627500 4.502200
49.663300 4.440800
49.699000 4.369000
49.734800 3.927500
49.770500 4.029400
49.806200 3.743100
49.842000 3.636400
49.877700 3.610300
49.913500 3.544200
49.949200 3.463300
49.985000 3.397700
50.020700 3.338400
50.056400 3.342000
50.092200 3.369500
50.127900 3.396200
50.163700 3.298200
50.199400 3.102600
50.235200 2.938300
50.270900 2.801300
50.306600 2.695200
50.342400 2.608600
50.378100 2.576400
50.413900 2.560300
50.449600 2.783600
50.485300 3.193400
50.521100 3.253200
50.556800 2.942200
50.592600 2.906800
50.628300 3.086700
50.664100 3.272300
50.699800 3.422700
50.735500 3.505400
50.771300 3.571600
50.807000 3.619500
50.842800 3.686400
50.878500 3.751000
50.914300 3.773600
50.950000 3.796000
50.985700 3.947400
51.021500 4.281900
51.057200 3.961400
51.093000 3.953500
51.128700 3.986200
51.164500 4.153500
51.200200 4.193600
51.235900 4.069800
51.271700 4.144500
51.307400 4.284700
51.343200 3.845100
51.378900 3.869800
51.414700 3.986400
51.450400 4.279500
51.486100 4.452900
51.521900 4.585800
51.557600 4.595500
51.593400 4.468200
51.629100 4.291800
51.664900 4.332700
51.700600 4.473700
51.736300 4.571000
51.772100 4.680200
51.807800 4.645800
51.843600 4.520200
51.879300 4.369100
51.915000 4.319500
51.950800 4.308300
51.986500 4.248300
52.022300 4.129400
52.058000 4.008600
52.093800 3.792100
52.129500 3.775800
52.165200 3.757100
52.201000 3.677000
52.236700 3.590400
52.272500 3.511700
52.308200 3.438700
52.344000 3.289200
52.379700 3.281400
52.415400 3.364000
52.451200 3.491900
52.486900 3.614900
52.522700 3.796300
52.558400 3.795800
52.594200 3.922600
52.629900 3.859800
52.665600 3.801000
52.701400 3.757300
52.737100 3.585500
52.772900 3.624300
52.808600 3.652800
52.844400 3.669200
52.880100 3.673000
52.915800 3.654900
52.951600 3.679500
52.987300 3.557900
53.023100 3.446700
53.058800 3.211400
53.094500 3.146600
53.130300 3.108100
53.166000 3.090500
53.201800 3.088300
53.237500 3.117900
53.273300 3.197600
53.309000 3.258000
53.344700 3.259200
53.380500 3.234200
53.416200 3.003500
53.452000 2.797900
53.487700 2.607100
53.523500 2.413100
53.559200 2.193500
53.594900 2.132700
53.630700 2.116100
53.666400 2.147400
53.702200 2.238800
53.737900 2.126700
53.773700 2.225800
53.809400 2.234800
53.845100 2.197300
53.880900 2.169600
53.916600 2.148500
53.952400 2.134000
53.988100 2.345600
54.023900 2.062700
54.059600 2.003700
54.095300 1.891300
54.131100 1.789700
54.166800 1.701400
54.202600 1.625400
54.238300 1.530400
54.274000 1.765900
54.309800 1.746200
54.345500 1.730600
54.381300 1.676300
54.417000 1.589000
54.452800 1.495400
54.488500 1.376200
54.524200 1.200400
54.560000 0.909900
54.595700 0.613400
54.631500 0.361200
54.667200 0.275000
54.703000 0.237000
54.738700 0.215200
54.774400 0.196600
54.810200 0.178300
54.845900 0.160300
54.881700 0.142600
54.917400 0.125200
54.953200 0.108000
54.988900 0.091500
55.024600 0.081200
55.060400 0.071900
55.096100 0.062800
55.131900 0.053900
55.167600 0.045100
55.203400 0.036500
55.239100 0.028100
55.274800 0.019900
55.310600 0.011900
55.346300 0.004300
55.382100 0.001400
55.417800 0.000100
55.453600 0.000000
55.489300 0.000000
55.525000 0.000000
55.560800 0.000000
55.596500 0.000000
55.632300 0.000000
55.668000 0.000000
55.703700 0.000000
55.739500 0.000000
55.775200 0.000000
55.811000 0.000000
55.846700 0.000000
55.882500 0.000000
55.918200 0.000000
55.953900 0.000000
55.989700 0.000000
56.025400 0.000000
56.061200 0.000000
56.096900 0.000000
56.132700 0.000000
56.168400 0.000000
56.204100 0.000000
56.239900 0.000000
56.275600 0.000000
56.311400 0.000000
56.347100 0.000000
56.382900 0.000000
56.418600 0.000000
56.454300 0.000000
56.490100 0.000000
56.525800 0.000000
56.561600 0.000000
56.597300 0.000000
56.633100 0.000000
56.668800 0.000000
56.704500 0.000000
56.740300 0.000000
56.776000 0.000000
56.811800 0.000000
56.847500 0.000000
56.883200 0.000000
56.919000 0.000000
56.954700 0.000000
56.990500 0.000000
57.026200 0.000000
57.062000 0.000000
57.097700 0.000000
57.133400 0.000000
57.169200 0.000000
57.204900 0.000000
57.240700 0.000000
57.276400 0.000000
57.312200 0.000000
57.347900 0.000000
57.383600 0.000000
57.419400 0.000000
57.455100 0.000000
57.490900 0.000000
57.526600 0.000000
57.562400 0.000000
57.598100 0.000000
57.633800 0.000000
57.669600 0.000000
57.705300 0.000000
57.741100 0.000000
57.776800 0.000000
57.812600 0.000000
57.848300 0.000000
57.884000 0.000000
57.919800 0.000000
57.955500 0.000000
57.991300 0.000000
58.027000 0.000000
58.062700 0.000000
58.098500 0.000000
58.134200 0.000000
58.170000 0.000000
58.205700 0.000000
58.241500 0.000000
58.277200 0.000000
58.312900 0.000000
58.348700 0.000000
58.384400 0.000000
58.420200 0.000000
58.455900 0.000000
58.491700 0.000000
58.527400 0.000000
58.563100 0.000000
58.598900 0.000000
58.634600 0.000000
58.670400 0.000000
e
