set title 'mp-981200 - Density of States'
set xlabel 'Energy (eV)'
set ylabel 'DOS (states/eV)'
set grid
set xrange [-10:10]
set yrange [0:51.636]
set xzeroaxis lt -1
set terminal png size 800,600
set output 'mp-981200_dos_gnuplot.png'
plot '-' using 1:2 with lines title 'DOS'
-8.751800 0.000000
-8.730500 0.000000
-8.709300 0.000000
-8.688000 0.000000
-8.666700 0.000000
-8.645400 0.000000
-8.624100 0.000000
-8.602800 0.000000
-8.581500 0.000000
-8.560200 0.000000
-8.538900 0.000000
-8.517600 0.000000
-8.496400 0.000000
-8.475100 0.000000
-8.453800 0.000000
-8.432500 0.000000
-8.411200 0.000000
-8.389900 0.000000
-8.368600 0.000000
-8.347300 0.000000
-8.326000 0.000000
-8.304700 0.000000
-8.283500 0.000000
-8.262200 0.000000
-8.240900 0.000000
-8.219600 0.000000
-8.198300 0.000000
-8.177000 0.000000
-8.155700 0.000000
-8.134400 0.000000
-8.113100 0.000000
-8.091800 0.000000
-8.070500 0.000000
-8.049300 0.000000
-8.028000 0.000000
-8.006700 0.000000
-7.985400 0.000000
-7.964100 0.000000
-7.942800 0.000000
-7.921500 0.000000
-7.900200 0.000000
-7.878900 0.000000
-7.857600 0.000000
-7.836400 0.000000
-7.815100 0.000000
-7.793800 0.000000
-7.772500 0.000000
-7.751200 0.000000
-7.729900 0.000000
-7.708600 0.000000
-7.687300 0.000000
-7.666000 0.000000
-7.644700 0.000000
-7.623500 0.000000
-7.602200 0.000000
-7.580900 0.000000
-7.559600 0.000000
-7.538300 0.000000
-7.517000 0.000000
-7.495700 0.000000
-7.474400 0.000000
-7.453100 0.000000
-7.431800 0.000000
-7.410600 0.000000
-7.389300 0.000000
-7.368000 0.000000
-7.346700 0.000000
-7.325400 0.000000
-7.304100 0.000000
-7.282800 0.000000
-7.261500 0.000000
-7.240200 0.000000
-7.218900 0.000000
-7.197600 0.000000
-7.176400 0.000000
-7.155100 0.000000
-7.133800 0.000000
-7.112500 0.000000
-7.091200 0.000000
-7.069900 0.000000
-7.048600 0.000000
-7.027300 0.000000
-7.006000 0.000000
-6.984700 0.000000
-6.963500 0.000000
-6.942200 0.000000
-6.920900 0.000200
-6.899600 0.000900
-6.878300 0.003500
-6.857000 0.010200
-6.835700 0.022200
-6.814400 0.038400
-6.793100 0.056400
-6.771800 0.076800
-6.750600 0.106100
-6.729300 0.153000
-6.708000 0.208300
-6.686700 0.234300
-6.665400 0.208200
-6.644100 0.181400
-6.622800 0.289700
-6.601500 0.722000
-6.580200 1.649000
-6.558900 3.131700
-6.537600 5.145400
-6.516400 7.753500
-6.495100 11.261700
-6.473800 16.031600
-6.452500 21.710700
-6.431200 26.841500
-6.409900 30.202400
-6.388600 32.271800
-6.367300 34.345100
-6.346000 36.777000
-6.324700 38.662600
-6.303500 38.494600
-6.282200 35.232100
-6.260900 29.541400
-6.239600 23.591500
-6.218300 19.054200
-6.197000 15.879200
-6.175700 13.221700
-6.154400 10.663500
-6.133100 8.283800
-6.111800 6.233300
-6.090600 4.511300
-6.069300 3.016900
-6.048000 1.756300
-6.026700 0.873400
-6.005400 0.438800
-5.984100 0.335000
-5.962800 0.367400
-5.941500 0.410500
-5.920200 0.450500
-5.898900 0.519800
-5.877700 0.600100
-5.856400 0.609900
-5.835100 0.506300
-5.813800 0.359300
-5.792500 0.289000
-5.771200 0.346000
-5.749900 0.470500
-5.728600 0.565400
-5.707300 0.602600
-5.686000 0.626000
-5.664700 0.659800
-5.643500 0.673400
-5.622200 0.623600
-5.600900 0.501500
-5.579600 0.369900
-5.558300 0.337400
-5.537000 0.460600
-5.515700 0.682800
-5.494400 0.881300
-5.473100 0.979500
-5.451800 0.988900
-5.430600 0.937000
-5.409300 0.822000
-5.388000 0.662000
-5.366700 0.519500
-5.345400 0.455300
-5.324100 0.482700
-5.302800 0.575400
-5.281500 0.715400
-5.260200 0.901200
-5.238900 1.113900
-5.217700 1.328100
-5.196400 1.537800
-5.175100 1.742200
-5.153800 2.007600
-5.132500 2.590200
-5.111200 3.813100
-5.089900 5.625700
-5.068600 7.405400
-5.047300 8.458300
-5.026000 8.644700
-5.004700 8.360900
-4.983500 8.133000
-4.962200 8.371900
-4.940900 9.310700
-4.919600 11.037000
-4.898300 13.545300
-4.877000 16.712000
-4.855700 20.325000
-4.834400 24.243300
-4.813100 28.463200
-4.791800 32.973900
-4.770600 37.444900
-4.749300 41.063500
-4.728000 43.007300
-4.706700 43.059700
-4.685400 41.550500
-4.664100 39.128500
-4.642800 36.824400
-4.621500 35.606100
-4.600200 35.448300
-4.578900 35.372100
-4.557700 34.687900
-4.536400 33.608600
-4.515100 32.525200
-4.493800 31.606300
-4.472500 31.210100
-4.451200 31.849900
-4.429900 33.794200
-4.408600 37.003000
-4.387300 41.047400
-4.366000 44.851300
-4.344700 46.942000
-4.323500 46.537700
-4.302200 44.338900
-4.280900 41.882100
-4.259600 40.222800
-4.238300 39.416900
-4.217000 38.888400
-4.195700 37.713400
-4.174400 34.716200
-4.153100 29.158900
-4.131800 21.709800
-4.110600 14.299600
-4.089300 8.664900
-4.068000 5.188500
-4.046700 3.208400
-4.025400 2.018400
-4.004100 1.300700
-3.982800 0.933500
-3.961500 0.806500
-3.940200 0.810400
-3.918900 0.850700
-3.897700 0.864500
-3.876400 0.840400
-3.855100 0.825700
-3.833800 0.897700
-3.812500 1.061200
-3.791200 1.185500
-3.769900 1.127600
-3.748600 0.909600
-3.727300 0.715200
-3.706000 0.711800
-3.684800 0.903100
-3.663500 1.145300
-3.642200 1.266500
-3.620900 1.172900
-3.599600 0.910800
-3.578300 0.637000
-3.557000 0.502100
-3.535700 0.556400
-3.514400 0.723300
-3.493100 0.844600
-3.471800 0.812800
-3.450600 0.664500
-3.429300 0.510800
-3.408000 0.427000
-3.386700 0.438300
-3.365400 0.537100
-3.344100 0.683400
-3.322800 0.816400
-3.301500 0.891600
-3.280200 0.926300
-3.258900 0.981400
-3.237700 1.051700
-3.216400 1.033900
-3.195100 0.873000
-3.173800 0.675400
-3.152500 0.604500
-3.131200 0.715900
-3.109900 0.929300
-3.088600 1.101700
-3.067300 1.115300
-3.046000 0.946600
-3.024800 0.685800
-3.003500 0.479500
-2.982200 0.426300
-2.960900 0.519600
-2.939600 0.683200
-2.918300 0.840200
-2.897000 0.960700
-2.875700 1.067100
-2.854400 1.185900
-2.833100 1.291700
-2.811800 1.309900
-2.790600 1.180800
-2.769300 0.944000
-2.748000 0.733300
-2.726700 0.641000
-2.705400 0.632300
-2.684100 0.635800
-2.662800 0.649600
-2.641500 0.713600
-2.620200 0.822000
-2.598900 0.906400
-2.577700 0.898100
-2.556400 0.793200
-2.535100 0.658600
-2.513800 0.575200
-2.492500 0.573000
-2.471200 0.609200
-2.449900 0.606300
-2.428600 0.536600
-2.407300 0.469300
-2.386000 0.506200
-2.364800 0.687500
-2.343500 0.956500
-2.322200 1.178300
-2.300900 1.227900
-2.279600 1.112700
-2.258300 0.975100
-2.237000 0.944900
-2.215700 1.007600
-2.194400 1.042200
-2.173100 0.993200
-2.151800 0.930600
-2.130600 0.939200
-2.109300 1.049600
-2.088000 1.230100
-2.066700 1.357300
-2.045400 1.311300
-2.024100 1.145700
-2.002800 1.010500
-1.981500 0.930200
-1.960200 0.820200
-1.938900 0.664100
-1.917700 0.540000
-1.896400 0.506100
-1.875100 0.550500
-1.853800 0.624300
-1.832500 0.669300
-1.811200 0.661200
-1.789900 0.657500
-1.768600 0.757300
-1.747300 0.990200
-1.726000 1.268100
-1.704800 1.452100
-1.683500 1.456900
-1.662200 1.290000
-1.640900 1.025700
-1.619600 0.757600
-1.598300 0.554300
-1.577000 0.455000
-1.555700 0.492600
-1.534400 0.655100
-1.513100 0.841500
-1.491900 0.950200
-1.470600 0.996000
-1.449300 1.066200
-1.428000 1.184800
-1.406700 1.283600
-1.385400 1.297400
-1.364100 1.222000
-1.342800 1.077700
-1.321500 0.898600
-1.300200 0.748400
-1.278900 0.679000
-1.257700 0.701400
-1.236400 0.801300
-1.215100 0.922600
-1.193800 0.988700
-1.172500 0.974500
-1.151200 0.900300
-1.129900 0.808000
-1.108600 0.778600
-1.087300 0.860200
-1.066000 0.991800
-1.044800 1.107600
-1.023500 1.242200
-1.002200 1.424100
-0.980900 1.567700
-0.959600 1.567700
-0.938300 1.420100
-0.917000 1.203000
-0.895700 0.996300
-0.874400 0.842900
-0.853100 0.748600
-0.831900 0.686100
-0.810600 0.622200
-0.789300 0.571200
-0.768000 0.584800
-0.746700 0.674600
-0.725400 0.796000
-0.704100 0.897900
-0.682800 0.937500
-0.661500 0.878700
-0.640200 0.737400
-0.618900 0.602100
-0.597700 0.568100
-0.576400 0.666400
-0.555100 0.871000
-0.533800 1.139100
-0.512500 1.411900
-0.491200 1.622600
-0.469900 1.741700
-0.448600 1.769900
-0.427300 1.692600
-0.406000 1.506700
-0.384800 1.280000
-0.363500 1.121200
-0.342200 1.071700
-0.320900 1.079600
-0.299600 1.106500
-0.278300 1.172800
-0.257000 1.267000
-0.235700 1.297200
-0.214400 1.182800
-0.193100 0.949100
-0.171900 0.706300
-0.150600 0.587500
-0.129300 0.703400
-0.108000 1.045000
-0.086700 1.402400
-0.065400 1.519000
-0.044100 1.362200
-0.022800 1.111300
-0.001500 0.896000
0.019800 0.723600
0.041100 0.614200
0.062300 0.598500
0.083600 0.623500
0.104900 0.624700
0.126200 0.637600
0.147500 0.730100
0.168800 0.887400
0.190100 1.041400
0.211400 1.182400
0.232700 1.356500
0.254000 1.552800
0.275200 1.668900
0.296500 1.600600
0.317800 1.349400
0.339100 1.072700
0.360400 0.972900
0.381700 1.095800
0.403000 1.315800
0.424300 1.502000
0.445600 1.583000
0.466900 1.516000
0.488100 1.340200
0.509400 1.196200
0.530700 1.185700
0.552000 1.257500
0.573300 1.288500
0.594600 1.247700
0.615900 1.204200
0.637200 1.191500
0.658500 1.158600
0.679800 1.055000
0.701000 0.894600
0.722300 0.744300
0.743600 0.704100
0.764900 0.865700
0.786200 1.201100
0.807500 1.515500
0.828800 1.610200
0.850100 1.492800
0.871400 1.342300
0.892700 1.274500
0.914000 1.255300
0.935200 1.235700
0.956500 1.212500
0.977800 1.156300
0.999100 1.024400
1.020400 0.848700
1.041700 0.728200
1.063000 0.720900
1.084300 0.802100
1.105600 0.942000
1.126900 1.129200
1.148100 1.309100
1.169400 1.395500
1.190700 1.334500
1.212000 1.126900
1.233300 0.844400
1.254600 0.621800
1.275900 0.554700
1.297200 0.611900
1.318500 0.690600
1.339800 0.719700
1.361000 0.706200
1.382300 0.717700
1.403600 0.792600
1.424900 0.880100
1.446200 0.939000
1.467500 1.038500
1.488800 1.266700
1.510100 1.579100
1.531400 1.801900
1.552700 1.782300
1.574000 1.540100
1.595200 1.247400
1.616500 1.036600
1.637800 0.916600
1.659100 0.878000
1.680400 0.937000
1.701700 1.077900
1.723000 1.261100
1.744300 1.457500
1.765600 1.634500
1.786900 1.737200
1.808100 1.712700
1.829400 1.578500
1.850700 1.439100
1.872000 1.365800
1.893300 1.301900
1.914600 1.159500
1.935900 0.977700
1.957200 0.922100
1.978500 1.110700
1.999800 1.465400
2.021000 1.759600
2.042300 1.819000
2.063600 1.676900
2.084900 1.503700
2.106200 1.388200
2.127500 1.289100
2.148800 1.195400
2.170100 1.163100
2.191400 1.182700
2.212700 1.190100
2.233900 1.198700
2.255200 1.263100
2.276500 1.358600
2.297800 1.403700
2.319100 1.347600
2.340400 1.223000
2.361700 1.145900
2.383000 1.208000
2.404300 1.369700
2.425600 1.538700
2.446900 1.683400
2.468100 1.763400
2.489400 1.678600
2.510700 1.412900
2.532000 1.114800
2.553300 0.961300
2.574600 1.013300
2.595900 1.210400
2.617200 1.442400
2.638500 1.606700
2.659800 1.637000
2.681000 1.513800
2.702300 1.289100
2.723600 1.098700
2.744900 1.064400
2.766200 1.164700
2.787500 1.263000
2.808800 1.249900
2.830100 1.131600
2.851400 1.004100
2.872700 0.974100
2.893900 1.091900
2.915200 1.309600
2.936500 1.490700
2.957800 1.516700
2.979100 1.413700
3.000400 1.349000
3.021700 1.456400
3.043000 1.635500
3.064300 1.628800
3.085600 1.373400
3.106900 1.099200
3.128100 1.030500
3.149400 1.188500
3.170700 1.452100
3.192000 1.645900
3.213300 1.645100
3.234600 1.482100
3.255900 1.300800
3.277200 1.220000
3.298500 1.260200
3.319800 1.352000
3.341000 1.398200
3.362300 1.343000
3.383600 1.220100
3.404900 1.139800
3.426200 1.180700
3.447500 1.281700
3.468800 1.287000
3.490100 1.117800
3.511400 0.880100
3.532700 0.773200
3.553900 0.905100
3.575200 1.223000
3.596500 1.588300
3.617800 1.851600
3.639100 1.896900
3.660400 1.716600
3.681700 1.449500
3.703000 1.275400
3.724300 1.248600
3.745600 1.290300
3.766900 1.332600
3.788100 1.366100
3.809400 1.367200
3.830700 1.295500
3.852000 1.148000
3.873300 0.949000
3.894600 0.728700
3.915900 0.530400
3.937200 0.399600
3.958500 0.368700
3.979800 0.436700
4.001000 0.561100
4.022300 0.706800
4.043600 0.872400
4.064900 1.039700
4.086200 1.161500
4.107500 1.219600
4.128800 1.236000
4.150100 1.230500
4.171400 1.239500
4.192700 1.341700
4.213900 1.561200
4.235200 1.788700
4.256500 1.871000
4.277800 1.747100
4.299100 1.501400
4.320400 1.313700
4.341700 1.332800
4.363000 1.556100
4.384300 1.833900
4.405600 2.001000
4.426800 1.989300
4.448100 1.842700
4.469400 1.662100
4.490700 1.502000
4.512000 1.340900
4.533300 1.177500
4.554600 1.077600
4.575900 1.093400
4.597200 1.226100
4.618500 1.456900
4.639800 1.722100
4.661000 1.892200
4.682300 1.870900
4.703600 1.698700
4.724900 1.490700
4.746200 1.306400
4.767500 1.155800
4.788800 1.066300
4.810100 1.055000
4.831400 1.087900
4.852700 1.116000
4.873900 1.114200
4.895200 1.087500
4.916500 1.088000
4.937800 1.197700
4.959100 1.432100
4.980400 1.685300
5.001700 1.793500
5.023000 1.655100
5.044300 1.339600
5.065600 1.062300
5.086800 0.986600
5.108100 1.086500
5.129400 1.222300
5.150700 1.288400
5.172000 1.277200
5.193300 1.231500
5.214600 1.178200
5.235900 1.140700
5.257200 1.162800
5.278500 1.260200
5.299800 1.390500
5.321000 1.503200
5.342300 1.584600
5.363600 1.639000
5.384900 1.657100
5.406200 1.635500
5.427500 1.624900
5.448800 1.687400
5.470100 1.778700
5.491400 1.776600
5.512700 1.656500
5.533900 1.539000
5.555200 1.546200
5.576500 1.684500
5.597800 1.869100
5.619100 1.989300
5.640400 1.958100
5.661700 1.788700
5.683000 1.598900
5.704300 1.477600
5.725600 1.427700
5.746800 1.459700
5.768100 1.592900
5.789400 1.749700
5.810700 1.792300
5.832000 1.668500
5.853300 1.438100
5.874600 1.217900
5.895900 1.136700
5.917200 1.231700
5.938500 1.392300
5.959800 1.480400
5.981000 1.450200
6.002300 1.354700
6.023600 1.337900
6.044900 1.565300
6.066200 2.013000
6.087500 2.371800
6.108800 2.332800
6.130100 1.942800
6.151400 1.518200
6.172700 1.285900
6.193900 1.247800
6.215200 1.303500
6.236500 1.373900
6.257800 1.423400
6.279100 1.442700
6.300400 1.440700
6.321700 1.423100
6.343000 1.371500
6.364300 1.289800
6.385600 1.280200
6.406800 1.472900
6.428100 1.813300
6.449400 2.051800
6.470700 2.022900
6.492000 1.809700
6.513300 1.604600
6.534600 1.508800
6.555900 1.480400
6.577200 1.406600
6.598500 1.227600
6.619700 1.010900
6.641000 0.897100
6.662300 0.969100
6.683600 1.175000
6.704900 1.391000
6.726200 1.558900
6.747500 1.695700
6.768800 1.792700
6.790100 1.828300
6.811400 1.858800
6.832700 1.957300
6.853900 2.084300
6.875200 2.101000
6.896500 1.903100
6.917800 1.538400
6.939100 1.198500
6.960400 1.060300
6.981700 1.134700
7.003000 1.287300
7.024300 1.395000
7.045600 1.438000
7.066800 1.440000
7.088100 1.413100
7.109400 1.412800
7.130700 1.525400
7.152000 1.740300
7.173300 1.939800
7.194600 2.025600
7.215900 1.983100
7.237200 1.866600
7.258500 1.783600
7.279700 1.811200
7.301000 1.886500
7.322300 1.879400
7.343600 1.764100
7.364900 1.627200
7.386200 1.586300
7.407500 1.744100
7.428800 2.089600
7.450100 2.438300
7.471400 2.572500
7.492700 2.420400
7.513900 2.081200
7.535200 1.722300
7.556500 1.457800
7.577800 1.313000
7.599100 1.256800
7.620400 1.233700
7.641700 1.218200
7.663000 1.228900
7.684300 1.277700
7.705600 1.365700
7.726800 1.505700
7.748100 1.687500
7.769400 1.850000
7.790700 1.924400
7.812000 1.882900
7.833300 1.758900
7.854600 1.662300
7.875900 1.719100
7.897200 1.940900
7.918500 2.195600
7.939700 2.300400
7.961000 2.123700
7.982300 1.698600
8.003600 1.274200
8.024900 1.134900
8.046200 1.313100
8.067500 1.562900
8.088800 1.655800
8.110100 1.604900
8.131400 1.528600
8.152700 1.449000
8.173900 1.360700
8.195200 1.349400
8.216500 1.494800
8.237800 1.717200
8.259100 1.834900
8.280400 1.777500
8.301700 1.643600
8.323000 1.552900
8.344300 1.552300
8.365600 1.630400
8.386800 1.733400
8.408100 1.791300
8.429400 1.771000
8.450700 1.703100
8.472000 1.645600
8.493300 1.637800
8.514600 1.695200
8.535900 1.798700
8.557200 1.883200
8.578500 1.880300
8.599700 1.771900
8.621000 1.615400
8.642300 1.504900
8.663600 1.469100
8.684900 1.456400
8.706200 1.449100
8.727500 1.510000
8.748800 1.689400
8.770100 1.938300
8.791400 2.127800
8.812600 2.155900
8.833900 2.071400
8.855200 2.045000
8.876500 2.162900
8.897800 2.344900
8.919100 2.489100
8.940400 2.550900
8.961700 2.523100
8.983000 2.451800
9.004300 2.346600
9.025600 2.116700
9.046800 1.782900
9.068100 1.565700
9.089400 1.591800
9.110700 1.723400
9.132000 1.757100
9.153300 1.660400
9.174600 1.583700
9.195900 1.666500
9.217200 1.886600
9.238500 2.145400
9.259700 2.383300
9.281000 2.520500
9.302300 2.448400
9.323600 2.203400
9.344900 1.983200
9.366200 1.920300
9.387500 1.991000
9.408800 2.104600
9.430100 2.130900
9.451400 1.936500
9.472600 1.533000
9.493900 1.109600
9.515200 0.873100
9.536500 0.920900
9.557800 1.217100
9.579100 1.581200
9.600400 1.773900
9.621700 1.707000
9.643000 1.505900
9.664300 1.338900
9.685600 1.279800
9.706800 1.331900
9.728100 1.487000
9.749400 1.706700
9.770700 1.902100
9.792000 2.006200
9.813300 2.045400
9.834600 2.084000
9.855900 2.147100
9.877200 2.242300
9.898500 2.355800
9.919700 2.409200
9.941000 2.334700
9.962300 2.172000
9.983600 2.028200
10.004900 1.969200
10.026200 1.971900
10.047500 1.997400
10.068800 2.062700
10.090100 2.160700
10.111400 2.206100
10.132600 2.138600
10.153900 1.990400
10.175200 1.845300
10.196500 1.804600
10.217800 1.962100
10.239100 2.304400
10.260400 2.635200
10.281700 2.749500
10.303000 2.675900
10.324300 2.588600
10.345500 2.536500
10.366800 2.432100
10.388100 2.242200
10.409400 2.009000
10.430700 1.747600
10.452000 1.483300
10.473300 1.313900
10.494600 1.321500
10.515900 1.481400
10.537200 1.698700
10.558500 1.895500
10.579700 2.033700
10.601000 2.080000
10.622300 2.049000
10.643600 2.061400
10.664900 2.217200
10.686200 2.453300
10.707500 2.630300
10.728800 2.682000
10.750100 2.633400
10.771400 2.513700
10.792600 2.317400
10.813900 2.084100
10.835200 1.914700
10.856500 1.865100
10.877800 1.921700
10.899100 2.029400
10.920400 2.081600
10.941700 2.009400
10.963000 1.921700
10.984300 2.014200
11.005500 2.299200
11.026800 2.584000
11.048100 2.743100
11.069400 2.785400
11.090700 2.673200
11.112000 2.379600
11.133300 2.081600
11.154600 1.993700
11.175900 2.039000
11.197200 1.932900
11.218500 1.582900
11.239700 1.212700
11.261000 1.097100
11.282300 1.302100
11.303600 1.673400
11.324900 1.993700
11.346200 2.132600
11.367500 2.103300
11.388800 2.005600
11.410100 1.896800
11.431400 1.767800
11.452600 1.640600
11.473900 1.583900
11.495200 1.645900
11.516500 1.846500
11.537800 2.201100
11.559100 2.646200
11.580400 2.935400
11.601700 2.797200
11.623000 2.280200
11.644300 1.761800
11.665500 1.543300
11.686800 1.579300
11.708100 1.624500
11.729400 1.534400
11.750700 1.401500
11.772000 1.445800
11.793300 1.785700
11.814600 2.298100
11.835900 2.717900
11.857200 2.895900
11.878500 2.912000
11.899700 2.908800
11.921000 2.894600
11.942300 2.791300
11.963600 2.614000
11.984900 2.461200
12.006200 2.361000
12.027500 2.260500
12.048800 2.119600
12.070100 1.936200
12.091400 1.743000
12.112600 1.597600
12.133900 1.549200
12.155200 1.626400
12.176500 1.826700
12.197800 2.080700
12.219100 2.265700
12.240400 2.308900
12.261700 2.246500
12.283000 2.125400
12.304300 1.946400
12.325500 1.768100
12.346800 1.713600
12.368100 1.812900
12.389400 1.966000
12.410700 2.062500
12.432000 2.049900
12.453300 1.943700
12.474600 1.824900
12.495900 1.754600
12.517200 1.698900
12.538400 1.613900
12.559700 1.539500
12.581000 1.517600
12.602300 1.498900
12.623600 1.421000
12.644900 1.320200
12.666200 1.291600
12.687500 1.369400
12.708800 1.498500
12.730100 1.629500
12.751400 1.776300
12.772600 1.923500
12.793900 1.972700
12.815200 1.870500
12.836500 1.689100
12.857800 1.499700
12.879100 1.293100
12.900400 1.102300
12.921700 1.044300
12.943000 1.136800
12.964300 1.202700
12.985500 1.079900
13.006800 0.856800
13.028100 0.809300
13.049400 1.124600
13.070700 1.698300
13.092000 2.199100
13.113300 2.379100
13.134600 2.304800
13.155900 2.226000
13.177200 2.274100
13.198400 2.364700
13.219700 2.340700
13.241000 2.163300
13.262300 1.963900
13.283600 1.908400
13.304900 2.085600
13.326200 2.483500
13.347500 2.897300
13.368800 2.984300
13.390100 2.624400
13.411400 2.083700
13.432600 1.703600
13.453900 1.567200
13.475200 1.502400
13.496500 1.347000
13.517800 1.176000
13.539100 1.194100
13.560400 1.421700
13.581700 1.639600
13.603000 1.683100
13.624300 1.618300
13.645500 1.559800
13.666800 1.509400
13.688100 1.451800
13.709400 1.428700
13.730700 1.475600
13.752000 1.601500
13.773300 1.801200
13.794600 2.021000
13.815900 2.163700
13.837200 2.150700
13.858400 1.969500
13.879700 1.677700
13.901000 1.367500
13.922300 1.126900
13.943600 1.011900
13.964900 1.012700
13.986200 1.051400
14.007500 1.063200
14.028800 1.094800
14.050100 1.248200
14.071400 1.494400
14.092600 1.664900
14.113900 1.664000
14.135200 1.548000
14.156500 1.395400
14.177800 1.254900
14.199100 1.210800
14.220400 1.342500
14.241700 1.581300
14.263000 1.728300
14.284300 1.666800
14.305500 1.489000
14.326800 1.376500
14.348100 1.395400
14.369400 1.446800
14.390700 1.405400
14.412000 1.261200
14.433300 1.118900
14.454600 1.074000
14.475900 1.095300
14.497200 1.081700
14.518400 1.032000
14.539700 1.064500
14.561000 1.264500
14.582300 1.575000
14.603600 1.841200
14.624900 1.954100
14.646200 1.933300
14.667500 1.860600
14.688800 1.792100
14.710100 1.749000
14.731300 1.745100
14.752600 1.800500
14.773900 1.871000
14.795200 1.814300
14.816500 1.583100
14.837800 1.366300
14.859100 1.349900
14.880400 1.435800
14.901700 1.376900
14.923000 1.134500
14.944300 0.917800
14.965500 0.896900
14.986800 1.074200
15.008100 1.407700
15.029400 1.835000
15.050700 2.201400
15.072000 2.383900
15.093300 2.436100
15.114600 2.440600
15.135900 2.357400
15.157200 2.197700
15.178400 2.141100
15.199700 2.280800
15.221000 2.434500
15.242300 2.376700
15.263600 2.111700
15.284900 1.785300
15.306200 1.486400
15.327500 1.284700
15.348800 1.293700
15.370100 1.539000
15.391300 1.875100
15.412600 2.128100
15.433900 2.266200
15.455200 2.383300
15.476500 2.519700
15.497800 2.561300
15.519100 2.393700
15.540400 2.099300
15.561700 1.874700
15.583000 1.779400
15.604300 1.702000
15.625500 1.579800
15.646800 1.522500
15.668100 1.667100
15.689400 1.995500
15.710700 2.354900
15.732000 2.599600
15.753300 2.670100
15.774600 2.585700
15.795900 2.411800
15.817200 2.236600
15.838400 2.157700
15.859700 2.237000
15.881000 2.426800
15.902300 2.578000
15.923600 2.596900
15.944900 2.543800
15.966200 2.487200
15.987500 2.378800
16.008800 2.181900
16.030100 1.985400
16.051300 1.887000
16.072600 1.871600
16.093900 1.858800
16.115200 1.791000
16.136500 1.667100
16.157800 1.569700
16.179100 1.647400
16.200400 1.982600
16.221700 2.453000
16.243000 2.805200
16.264300 2.884600
16.285500 2.750900
16.306800 2.612500
16.328100 2.663400
16.349400 2.906300
16.370700 3.128700
16.392000 3.102600
16.413300 2.802200
16.434600 2.362700
16.455900 1.898100
16.477200 1.506800
16.498400 1.358000
16.519700 1.572000
16.541000 2.012700
16.562300 2.329400
16.583600 2.277600
16.604900 1.955300
16.626200 1.683100
16.647500 1.713300
16.668800 2.063200
16.690100 2.529600
16.711300 2.877600
16.732600 3.067900
16.753900 3.201100
16.775200 3.263400
16.796500 3.134900
16.817800 2.808500
16.839100 2.429100
16.860400 2.177500
16.881700 2.156600
16.903000 2.320400
16.924200 2.517700
16.945500 2.587800
16.966800 2.423300
16.988100 2.048400
17.009400 1.653200
17.030700 1.449600
17.052000 1.486800
17.073300 1.679600
17.094600 1.970400
17.115900 2.327600
17.137200 2.621500
17.158400 2.699700
17.179700 2.593000
17.201000 2.477000
17.222300 2.432900
17.243600 2.373200
17.264900 2.218300
17.286200 2.066800
17.307500 2.124700
17.328800 2.443100
17.350100 2.819900
17.371300 3.054100
17.392600 3.164400
17.413900 3.231000
17.435200 3.208400
17.456500 3.041600
17.477800 2.812500
17.499100 2.639000
17.520400 2.542100
17.541700 2.514600
17.563000 2.585600
17.584200 2.734800
17.605500 2.878700
17.626800 2.930400
17.648100 2.795000
17.669400 2.468400
17.690700 2.167600
17.712000 2.121600
17.733300 2.240000
17.754600 2.234000
17.775900 2.058700
17.797200 2.006500
17.818400 2.302000
17.839700 2.799300
17.861000 3.193600
17.882300 3.345900
17.903600 3.275000
17.924900 3.030800
17.946200 2.719700
17.967500 2.510800
17.988800 2.492800
18.010100 2.588600
18.031300 2.667500
18.052600 2.687500
18.073900 2.692800
18.095200 2.720800
18.116500 2.764400
18.137800 2.799000
18.159100 2.825100
18.180400 2.896600
18.201700 3.036200
18.223000 3.141400
18.244200 3.134100
18.265500 3.144400
18.286800 3.346000
18.308100 3.650500
18.329400 3.768100
18.350700 3.570300
18.372000 3.218000
18.393300 2.906600
18.414600 2.641300
18.435900 2.322400
18.457100 1.953900
18.478400 1.698800
18.499700 1.721000
18.521000 2.010500
18.542300 2.426000
18.563600 2.852600
18.584900 3.211000
18.606200 3.387300
18.627500 3.286000
18.648800 2.953200
18.670100 2.587500
18.691300 2.388100
18.712600 2.436000
18.733900 2.693200
18.755200 2.984400
18.776500 3.065000
18.797800 2.863700
18.819100 2.556200
18.840400 2.330300
18.861700 2.205300
18.883000 2.111600
18.904200 2.060000
18.925500 2.175100
18.946800 2.490000
18.968100 2.773700
18.989400 2.759700
19.010700 2.472500
19.032000 2.143100
19.053300 1.953900
19.074600 2.001200
19.095900 2.317800
19.117100 2.770700
19.138400 3.047700
19.159700 2.891400
19.181000 2.324600
19.202300 1.621900
19.223600 1.085400
19.244900 0.851400
19.266200 0.905500
19.287500 1.196000
19.308800 1.649200
19.330100 2.138900
19.351300 2.530500
19.372600 2.751400
19.393900 2.804300
19.415200 2.753500
19.436500 2.697300
19.457800 2.694300
19.479100 2.713700
19.500400 2.691700
19.521700 2.594300
19.543000 2.413700
19.564200 2.197900
19.585500 2.093700
19.606800 2.237300
19.628100 2.552200
19.649400 2.764300
19.670700 2.684200
19.692000 2.398600
19.713300 2.144300
19.734600 2.044400
19.755900 2.028700
19.777100 2.006400
19.798400 2.001700
19.819700 2.076200
19.841000 2.238700
19.862300 2.461100
19.883600 2.727000
19.904900 2.998600
19.926200 3.108500
19.947500 2.872200
19.968800 2.363500
19.990100 1.848300
20.011300 1.487600
20.032600 1.301000
20.053900 1.288100
20.075200 1.426400
20.096500 1.620600
20.117800 1.779600
20.139100 1.928000
20.160400 2.118800
20.181700 2.277000
20.203000 2.266300
20.224200 2.057000
20.245500 1.740700
20.266800 1.437800
20.288100 1.222600
20.309400 1.123000
20.330700 1.193700
20.352000 1.511200
20.373300 2.029500
20.394600 2.531300
20.415900 2.795900
20.437100 2.785400
20.458400 2.647800
20.479700 2.535100
20.501000 2.441800
20.522300 2.244900
20.543600 1.865000
20.564900 1.376300
20.586200 0.972600
20.607500 0.799900
20.628800 0.832400
20.650000 0.941000
20.671300 1.040400
20.692600 1.127300
20.713900 1.225300
20.735200 1.340800
20.756500 1.460500
20.777800 1.611200
20.799100 1.883600
20.820400 2.268900
20.841700 2.514700
20.863000 2.351100
20.884200 1.848900
20.905500 1.356100
20.926800 1.122500
20.948100 1.149700
20.969400 1.318400
20.990700 1.491600
21.012000 1.556100
21.033300 1.494600
21.054600 1.387900
21.075900 1.309200
21.097100 1.261700
21.118400 1.204400
21.139700 1.110000
21.161000 1.021400
21.182300 1.033400
21.203600 1.177600
21.224900 1.357900
21.246200 1.439900
21.267500 1.373500
21.288800 1.212600
21.310000 1.082200
21.331300 1.118100
21.352600 1.334900
21.373900 1.571100
21.395200 1.670900
21.416500 1.662500
21.437800 1.663100
21.459100 1.704500
21.480400 1.727700
21.501700 1.691600
21.523000 1.645800
21.544200 1.695200
21.565500 1.887200
21.586800 2.144800
21.608100 2.339900
21.629400 2.427600
21.650700 2.456700
21.672000 2.468000
21.693300 2.469800
21.714600 2.489700
21.735900 2.540500
21.757100 2.536300
21.778400 2.361800
21.799700 2.074600
21.821000 1.903900
21.842300 1.989700
21.863600 2.251100
21.884900 2.496300
21.906200 2.577500
21.927500 2.502400
21.948800 2.409300
21.970000 2.395300
21.991300 2.431700
22.012600 2.443800
22.033900 2.389800
22.055200 2.279800
22.076500 2.205000
22.097800 2.317100
22.119100 2.628300
22.140400 2.868800
22.161700 2.765300
22.183000 2.414900
22.204200 2.166300
22.225500 2.213300
22.246800 2.469300
22.268100 2.756500
22.289400 2.987200
22.310700 3.157000
22.332000 3.237600
22.353300 3.164700
22.374600 2.934000
22.395900 2.645400
22.417100 2.453800
22.438400 2.483700
22.459700 2.710300
22.481000 2.927000
22.502300 2.942200
22.523600 2.774900
22.544900 2.560900
22.566200 2.344900
22.587500 2.091800
22.608800 1.872000
22.630000 1.866100
22.651300 2.136000
22.672600 2.508700
22.693900 2.754400
22.715200 2.795600
22.736500 2.696800
22.757800 2.553800
22.779100 2.455900
22.800400 2.464500
22.821700 2.553100
22.842900 2.594000
22.864200 2.445800
22.885500 2.090800
22.906800 1.663200
22.928100 1.309600
22.949400 1.108500
22.970700 1.109500
22.992000 1.277800
23.013300 1.428100
23.034600 1.403400
23.055900 1.288100
23.077100 1.298400
23.098400 1.505700
23.119700 1.773300
23.141000 1.966100
23.162300 2.132400
23.183600 2.368500
23.204900 2.606400
23.226200 2.702200
23.247500 2.644500
23.268800 2.553400
23.290000 2.541700
23.311300 2.628500
23.332600 2.729500
23.353900 2.726500
23.375200 2.608600
23.396500 2.532700
23.417800 2.681100
23.439100 3.043300
23.460400 3.397400
23.481700 3.549100
23.502900 3.521000
23.524200 3.453300
23.545500 3.393800
23.566800 3.275400
23.588100 3.068600
23.609400 2.828500
23.630700 2.579400
23.652000 2.292700
23.673300 2.006100
23.694600 1.848200
23.715900 1.901600
23.737100 2.090000
23.758400 2.263600
23.779700 2.397800
23.801000 2.567900
23.822300 2.733100
23.843600 2.757600
23.864900 2.627300
23.886200 2.477100
23.907500 2.446300
23.928800 2.566800
23.950000 2.728600
23.971300 2.752000
23.992600 2.569500
24.013900 2.322600
24.035200 2.205400
24.056500 2.264000
24.077800 2.411100
24.099100 2.567100
24.120400 2.710300
24.141700 2.820100
24.162900 2.852400
24.184200 2.786900
24.205500 2.629500
24.226800 2.389800
24.248100 2.129100
24.269400 1.944800
24.290700 1.886300
24.312000 1.958300
24.333300 2.146600
24.354600 2.411300
24.375900 2.711400
24.397100 2.989300
24.418400 3.156100
24.439700 3.192000
24.461000 3.150200
24.482300 3.008800
24.503600 2.704300
24.524900 2.300700
24.546200 1.955900
24.567500 1.781400
24.588800 1.815500
24.610000 2.022400
24.631300 2.292700
24.652600 2.520800
24.673900 2.649400
24.695200 2.652400
24.716500 2.563500
24.737800 2.462000
24.759100 2.379200
24.780400 2.268700
24.801700 2.104700
24.822900 1.969000
24.844200 1.972500
24.865500 2.103300
24.886800 2.219700
24.908100 2.228200
24.929400 2.201200
24.950700 2.239100
24.972000 2.330100
24.993300 2.469000
25.014600 2.723500
25.035800 3.044800
25.057100 3.220800
25.078400 3.113100
25.099700 2.782500
25.121000 2.398000
25.142300 2.146000
25.163600 2.144500
25.184900 2.351600
25.206200 2.612400
25.227500 2.817300
25.248800 2.962300
25.270000 3.071500
25.291300 3.121500
25.312600 3.034800
25.333900 2.777700
25.355200 2.470100
25.376500 2.291600
25.397800 2.292500
25.419100 2.392400
25.440400 2.493500
25.461700 2.517800
25.482900 2.398600
25.504200 2.143000
25.525500 1.925200
25.546800 2.012800
25.568100 2.484500
25.589400 3.047600
25.610700 3.289100
25.632000 3.116000
25.653300 2.763000
25.674600 2.414400
25.695800 2.064700
25.717100 1.705600
25.738400 1.431800
25.759700 1.330100
25.781000 1.345500
25.802300 1.355100
25.823600 1.349500
25.844900 1.401000
25.866200 1.500100
25.887500 1.597600
25.908800 1.731900
25.930000 1.941100
25.951300 2.147000
25.972600 2.271200
25.993900 2.362200
26.015200 2.487100
26.036500 2.606700
26.057800 2.636100
26.079100 2.526400
26.100400 2.254300
26.121700 1.834700
26.142900 1.374200
26.164200 1.040100
26.185500 0.953100
26.206800 1.125000
26.228100 1.498000
26.249400 2.016800
26.270700 2.605100
26.292000 3.093000
26.313300 3.295000
26.334600 3.172300
26.355800 2.843000
26.377100 2.476600
26.398400 2.201500
26.419700 2.042700
26.441000 1.941900
26.462300 1.872100
26.483600 1.859100
26.504900 1.880200
26.526200 1.834500
26.547500 1.665500
26.568700 1.474400
26.590000 1.410000
26.611300 1.458100
26.632600 1.474100
26.653900 1.385600
26.675200 1.226100
26.696500 1.039300
26.717800 0.864700
26.739100 0.753300
26.760400 0.731100
26.781700 0.788700
26.802900 0.896400
26.824200 1.007700
26.845500 1.085600
26.866800 1.131700
26.888100 1.163000
26.909400 1.163900
26.930700 1.083500
26.952000 0.905500
26.973300 0.702800
26.994600 0.596600
27.015800 0.653200
27.037100 0.814800
27.058400 0.949700
27.079700 0.974200
27.101000 0.899300
27.122300 0.781700
27.143600 0.664800
27.164900 0.550400
27.186200 0.426300
27.207500 0.316400
27.228700 0.265400
27.250000 0.280400
27.271300 0.332700
27.292600 0.415600
27.313900 0.547200
27.335200 0.717700
27.356500 0.879700
27.377800 0.995900
27.399100 1.069100
27.420400 1.116300
27.441700 1.123100
27.462900 1.049200
27.484200 0.889800
27.505500 0.699300
27.526800 0.553000
27.548100 0.496300
27.569400 0.510800
27.590700 0.536700
27.612000 0.529000
27.633300 0.478400
27.654600 0.417100
27.675800 0.401700
27.697100 0.433000
27.718400 0.431600
27.739700 0.352900
27.761000 0.259600
27.782300 0.234600
27.803600 0.288500
27.824900 0.367300
27.846200 0.405000
27.867500 0.374400
27.888700 0.300700
27.910000 0.223200
27.931300 0.167600
27.952600 0.142000
27.973900 0.135300
27.995200 0.140300
28.016500 0.178200
28.037800 0.268700
28.059100 0.385500
28.080400 0.469100
28.101700 0.478400
28.122900 0.422200
28.144200 0.352700
28.165500 0.324300
28.186800 0.337400
28.208100 0.348200
28.229400 0.339500
28.250700 0.326200
28.272000 0.301500
28.293300 0.239900
28.314600 0.148900
28.335800 0.068300
28.357100 0.022600
28.378400 0.005300
28.399700 0.000900
28.421000 0.000100
28.442300 0.000100
28.463600 0.001000
28.484900 0.005800
28.506200 0.023300
28.527500 0.066500
28.548700 0.136100
28.570000 0.203800
28.591300 0.233800
28.612600 0.227100
28.633900 0.214100
28.655200 0.207300
28.676500 0.195000
28.697800 0.175600
28.719100 0.165200
28.740400 0.176100
28.761600 0.205600
28.782900 0.237600
28.804200 0.245000
28.825500 0.218800
28.846800 0.189000
28.868100 0.179600
28.889400 0.172100
28.910700 0.147800
28.932000 0.124200
28.953300 0.117400
28.974600 0.110500
28.995800 0.085800
29.017100 0.056800
29.038400 0.050000
29.059700 0.071400
29.081000 0.098200
29.102300 0.101400
29.123600 0.080300
29.144900 0.068900
29.166200 0.103800
29.187500 0.187200
29.208700 0.274200
29.230000 0.308600
29.251300 0.279400
29.272600 0.220800
29.293900 0.160000
29.315200 0.101900
29.336500 0.052100
29.357800 0.019900
29.379100 0.005500
29.400400 0.001100
29.421600 0.000200
29.442900 0.000200
29.464200 0.001100
29.485500 0.005100
29.506800 0.016700
29.528100 0.039000
29.549400 0.064500
29.570700 0.076000
29.592000 0.063800
29.613300 0.038800
29.634600 0.020900
29.655800 0.024900
29.677100 0.061200
29.698400 0.131500
29.719700 0.209700
29.741000 0.244400
29.762300 0.207500
29.783600 0.128100
29.804900 0.058000
29.826200 0.023400
29.847500 0.022800
29.868700 0.049100
29.890000 0.092900
29.911300 0.139000
29.932600 0.178400
29.953900 0.211600
29.975200 0.228500
29.996500 0.208500
30.017800 0.150800
30.039100 0.083300
30.060400 0.034300
30.081600 0.010400
30.102900 0.002300
30.124200 0.000400
30.145500 0.000000
30.166800 0.000000
30.188100 0.000000
30.209400 0.000000
30.230700 0.000000
30.252000 0.000000
30.273300 0.000000
30.294600 0.000100
30.315800 0.000800
30.337100 0.003700
30.358400 0.012100
30.379700 0.027900
30.401000 0.045700
30.422300 0.054700
30.443600 0.054500
30.464900 0.060300
30.486200 0.081900
30.507500 0.102500
30.528700 0.097200
30.550000 0.065900
30.571300 0.031500
30.592600 0.010600
30.613900 0.002500
30.635200 0.000400
30.656500 0.000000
30.677800 0.000000
30.699100 0.000000
30.720400 0.000000
30.741600 0.000100
30.762900 0.000600
30.784200 0.002400
30.805500 0.007400
30.826800 0.015900
30.848100 0.023800
30.869400 0.025200
30.890700 0.018800
30.912000 0.009800
30.933300 0.003600
30.954500 0.000900
30.975800 0.000200
30.997100 0.000000
31.018400 0.000000
31.039700 0.000000
31.061000 0.000000
31.082300 0.000000
31.103600 0.000000
31.124900 0.000000
31.146200 0.000000
31.167500 0.000000
31.188700 0.000000
31.210000 0.000000
31.231300 0.000000
31.252600 0.000000
31.273900 0.000000
31.295200 0.000000
31.316500 0.000000
31.337800 0.000000
31.359100 0.000000
31.380400 0.000000
31.401600 0.000000
31.422900 0.000000
31.444200 0.000000
31.465500 0.000000
31.486800 0.000000
31.508100 0.000000
31.529400 0.000000
31.550700 0.000000
31.572000 0.000000
31.593300 0.000000
31.614500 0.000000
31.635800 0.000000
31.657100 0.000000
31.678400 0.000000
31.699700 0.000000
31.721000 0.000000
31.742300 0.000000
31.763600 0.000000
31.784900 0.000100
31.806200 0.000600
31.827500 0.002700
31.848700 0.007900
31.870000 0.016500
31.891300 0.024200
31.912600 0.025000
31.933900 0.018100
31.955200 0.009300
31.976500 0.003300
31.997800 0.000800
32.019100 0.000100
32.040400 0.000000
32.061600 0.000000
32.082900 0.000000
32.104200 0.000000
32.125500 0.000000
32.146800 0.000000
32.168100 0.000000
32.189400 0.000000
32.210700 0.000000
32.232000 0.000000
32.253300 0.000000
32.274500 0.000000
32.295800 0.000000
32.317100 0.000000
32.338400 0.000000
32.359700 0.000000
32.381000 0.000000
32.402300 0.000000
32.423600 0.000000
32.444900 0.000000
32.466200 0.000000
32.487500 0.000000
32.508700 0.000000
32.530000 0.000000
32.551300 0.000000
32.572600 0.000000
32.593900 0.000000
32.615200 0.000000
32.636500 0.000000
32.657800 0.000000
32.679100 0.000000
32.700400 0.000000
32.721600 0.000000
32.742900 0.000000
32.764200 0.000000
32.785500 0.000000
32.806800 0.000000
32.828100 0.000000
32.849400 0.000000
32.870700 0.000000
32.892000 0.000000
32.913300 0.000000
32.934500 0.000000
32.955800 0.000000
32.977100 0.000000
32.998400 0.000000
33.019700 0.000000
33.041000 0.000000
33.062300 0.000000
33.083600 0.000000
33.104900 0.000000
33.126200 0.000000
33.147400 0.000000
33.168700 0.000000
33.190000 0.000000
33.211300 0.000000
33.232600 0.000000
33.253900 0.000000
33.275200 0.000000
33.296500 0.000000
33.317800 0.000000
33.339100 0.000000
33.360400 0.000000
33.381600 0.000000
33.402900 0.000000
33.424200 0.000000
33.445500 0.000000
33.466800 0.000000
33.488100 0.000000
33.509400 0.000000
33.530700 0.000000
33.552000 0.000000
33.573300 0.000000
33.594500 0.000000
33.615800 0.000000
33.637100 0.000000
33.658400 0.000000
33.679700 0.000000
33.701000 0.000000
33.722300 0.000000
33.743600 0.000000
33.764900 0.000000
33.786200 0.000000
33.807400 0.000000
33.828700 0.000000
e
