set title 'mp-1183587 - Density of States'
set xlabel 'Energy (eV)'
set ylabel 'DOS (states/eV)'
set grid
set xrange [-10:10]
set yrange [0:53.370]
set xzeroaxis lt -1
set terminal png size 800,600
set output 'mp-1183587_dos_gnuplot.png'
plot '-' using 1:2 with lines title 'DOS'
-10.071500 0.000000
-10.052000 0.000000
-10.032500 0.000000
-10.013000 0.000000
-9.993500 0.000000
-9.974000 0.000000
-9.954500 0.000000
-9.935000 0.000000
-9.915500 0.000000
-9.896000 0.000000
-9.876500 0.000000
-9.857000 0.000000
-9.837500 0.000000
-9.818000 0.000000
-9.798500 0.000000
-9.779100 0.000000
-9.759600 0.000000
-9.740100 0.000000
-9.720600 0.000000
-9.701100 0.000000
-9.681600 0.000000
-9.662100 0.000000
-9.642600 0.000000
-9.623100 0.000000
-9.603600 0.000000
-9.584100 0.000000
-9.564600 0.000000
-9.545100 0.000000
-9.525600 0.000000
-9.506100 0.000000
-9.486600 0.000000
-9.467200 0.000000
-9.447700 0.000000
-9.428200 0.000000
-9.408700 0.000000
-9.389200 0.000000
-9.369700 0.000000
-9.350200 0.000000
-9.330700 0.000000
-9.311200 0.000000
-9.291700 0.000000
-9.272200 0.000000
-9.252700 0.000000
-9.233200 0.000000
-9.213700 0.000000
-9.194200 0.000000
-9.174700 0.000000
-9.155300 0.000000
-9.135800 0.000000
-9.116300 0.000000
-9.096800 0.000000
-9.077300 0.000000
-9.057800 0.000000
-9.038300 0.000000
-9.018800 0.000000
-8.999300 0.000000
-8.979800 0.000000
-8.960300 0.000000
-8.940800 0.000000
-8.921300 0.000000
-8.901800 0.000000
-8.882300 0.000000
-8.862800 0.000000
-8.843400 0.000000
-8.823900 0.000000
-8.804400 0.000000
-8.784900 0.000000
-8.765400 0.000000
-8.745900 0.000000
-8.726400 0.000000
-8.706900 0.000000
-8.687400 0.000000
-8.667900 0.000000
-8.648400 0.000000
-8.628900 0.000000
-8.609400 0.000000
-8.589900 0.000000
-8.570400 0.000000
-8.550900 0.000000
-8.531500 0.000000
-8.512000 0.000000
-8.492500 0.000000
-8.473000 0.000000
-8.453500 0.000000
-8.434000 0.000000
-8.414500 0.000000
-8.395000 0.000000
-8.375500 0.000000
-8.356000 0.000000
-8.336500 0.000000
-8.317000 0.000000
-8.297500 0.000600
-8.278000 0.091000
-8.258500 0.278100
-8.239000 0.374200
-8.219500 0.445500
-8.200100 0.526000
-8.180600 0.624700
-8.161100 0.725500
-8.141600 0.789600
-8.122100 0.882000
-8.102600 0.979200
-8.083100 1.083800
-8.063600 1.189100
-8.044100 1.314000
-8.024600 1.459200
-8.005100 1.637500
-7.985600 1.835600
-7.966100 2.039100
-7.946600 2.305600
-7.927100 2.653900
-7.907600 3.285000
-7.888200 3.536700
-7.868700 4.016100
-7.849200 4.652700
-7.829700 5.431400
-7.810200 7.146200
-7.790700 14.921100
-7.771200 17.937700
-7.751700 13.271400
-7.732200 5.483100
-7.712700 0.000000
-7.693200 0.000000
-7.673700 0.000000
-7.654200 0.000000
-7.634700 0.000000
-7.615200 0.000000
-7.595700 0.000000
-7.576300 0.000000
-7.556800 0.000000
-7.537300 0.000000
-7.517800 0.000000
-7.498300 0.000000
-7.478800 0.000000
-7.459300 0.000000
-7.439800 0.000000
-7.420300 0.000000
-7.400800 0.000000
-7.381300 0.000000
-7.361800 0.000000
-7.342300 0.000000
-7.322800 0.000000
-7.303300 0.000000
-7.283800 0.000000
-7.264400 0.000000
-7.244900 0.000000
-7.225400 0.000000
-7.205900 0.000000
-7.186400 0.000000
-7.166900 0.000000
-7.147400 0.000000
-7.127900 0.000000
-7.108400 0.000000
-7.088900 0.000000
-7.069400 0.000000
-7.049900 0.000000
-7.030400 0.000000
-7.010900 0.000000
-6.991400 0.000000
-6.971900 0.000000
-6.952500 0.000000
-6.933000 0.000000
-6.913500 0.000000
-6.894000 0.000000
-6.874500 0.000000
-6.855000 0.000000
-6.835500 0.000000
-6.816000 0.000000
-6.796500 0.000000
-6.777000 0.000000
-6.757500 0.000000
-6.738000 0.000000
-6.718500 0.000000
-6.699000 0.000000
-6.679500 0.000000
-6.660000 0.000000
-6.640600 0.000000
-6.621100 0.000000
-6.601600 0.000000
-6.582100 0.000000
-6.562600 0.000000
-6.543100 0.000000
-6.523600 0.000000
-6.504100 0.000000
-6.484600 0.000000
-6.465100 0.000000
-6.445600 0.000000
-6.426100 0.000000
-6.406600 0.000000
-6.387100 0.000000
-6.367600 0.000000
-6.348100 0.000000
-6.328700 0.000000
-6.309200 0.000000
-6.289700 0.000000
-6.270200 0.000000
-6.250700 0.000000
-6.231200 0.000000
-6.211700 5.557500
-6.192200 6.470200
-6.172700 8.514800
-6.153200 11.210100
-6.133700 12.310400
-6.114200 15.743800
-6.094700 19.622600
-6.075200 23.736700
-6.055700 27.354200
-6.036200 48.518600
-6.016800 30.077000
-5.997300 30.707300
-5.977800 33.979500
-5.958300 29.087400
-5.938800 33.174700
-5.919300 36.637800
-5.899800 26.491900
-5.880300 28.857000
-5.860800 30.657400
-5.841300 17.760700
-5.821800 31.903100
-5.802300 25.532600
-5.782800 21.512600
-5.763300 21.412500
-5.743800 22.638000
-5.724300 24.059600
-5.704900 19.214900
-5.685400 25.317900
-5.665900 31.618800
-5.646400 16.984100
-5.626900 22.607500
-5.607400 23.513300
-5.587900 23.096900
-5.568400 24.846400
-5.548900 23.489300
-5.529400 30.082100
-5.509900 43.415800
-5.490400 35.819200
-5.470900 36.421400
-5.451400 46.539500
-5.431900 37.981900
-5.412400 27.713100
-5.392900 30.127600
-5.373500 39.374800
-5.354000 28.299300
-5.334500 31.970100
-5.315000 33.194300
-5.295500 26.745700
-5.276000 26.724900
-5.256500 26.019600
-5.237000 23.458900
-5.217500 20.165500
-5.198000 17.854800
-5.178500 20.552900
-5.159000 20.008100
-5.139500 24.515000
-5.120000 45.005100
-5.100500 19.266000
-5.081000 5.716200
-5.061600 3.661200
-5.042100 3.259600
-5.022600 1.486300
-5.003100 0.000000
-4.983600 0.000000
-4.964100 0.000000
-4.944600 0.000000
-4.925100 0.000000
-4.905600 0.000000
-4.886100 0.000000
-4.866600 0.000000
-4.847100 0.000000
-4.827600 0.000000
-4.808100 0.000000
-4.788600 0.000000
-4.769100 0.000000
-4.749700 0.000000
-4.730200 0.000000
-4.710700 0.000000
-4.691200 0.000000
-4.671700 0.000000
-4.652200 0.000000
-4.632700 0.000000
-4.613200 0.000000
-4.593700 0.000000
-4.574200 0.000000
-4.554700 0.000000
-4.535200 0.000000
-4.515700 0.000000
-4.496200 0.000000
-4.476700 0.000000
-4.457200 0.000000
-4.437800 0.000000
-4.418300 0.000000
-4.398800 0.000000
-4.379300 0.000000
-4.359800 0.000000
-4.340300 0.000000
-4.320800 0.000000
-4.301300 0.000000
-4.281800 0.000000
-4.262300 0.000000
-4.242800 0.000000
-4.223300 0.000000
-4.203800 0.000000
-4.184300 0.000000
-4.164800 0.000000
-4.145300 0.000000
-4.125900 0.000000
-4.106400 0.000000
-4.086900 0.000000
-4.067400 0.000000
-4.047900 0.000000
-4.028400 0.000000
-4.008900 0.000000
-3.989400 0.000000
-3.969900 0.000000
-3.950400 0.000000
-3.930900 0.000000
-3.911400 0.000000
-3.891900 0.000000
-3.872400 0.000000
-3.852900 0.000000
-3.833400 0.000000
-3.814000 0.000000
-3.794500 0.000000
-3.775000 0.000000
-3.755500 0.000000
-3.736000 0.000000
-3.716500 0.000000
-3.697000 0.000000
-3.677500 0.000000
-3.658000 0.000000
-3.638500 0.000000
-3.619000 0.000000
-3.599500 0.000000
-3.580000 0.000000
-3.560500 0.000000
-3.541000 0.000000
-3.521500 0.000000
-3.502100 0.000000
-3.482600 0.000000
-3.463100 0.000000
-3.443600 0.000000
-3.424100 0.000000
-3.404600 0.000000
-3.385100 0.054700
-3.365600 0.056800
-3.346100 0.076000
-3.326600 0.092500
-3.307100 0.106500
-3.287600 0.117900
-3.268100 0.126700
-3.248600 0.139200
-3.229100 0.149100
-3.209600 0.156800
-3.190200 0.169200
-3.170700 0.182000
-3.151200 0.195200
-3.131700 0.208700
-3.112200 0.209000
-3.092700 0.216000
-3.073200 0.225700
-3.053700 0.235900
-3.034200 0.246700
-3.014700 0.257900
-2.995200 0.269700
-2.975700 0.281700
-2.956200 0.597200
-2.936700 0.678400
-2.917200 0.759000
-2.897700 0.839500
-2.878300 0.932600
-2.858800 1.038900
-2.839300 1.143400
-2.819800 1.243500
-2.800300 1.365500
-2.780800 1.582200
-2.761300 1.734700
-2.741800 1.849500
-2.722300 1.915800
-2.702800 1.988700
-2.683300 2.036100
-2.663800 2.051800
-2.644300 2.420100
-2.624800 2.187400
-2.605300 2.120700
-2.585800 2.073500
-2.566400 2.054900
-2.546900 2.017700
-2.527400 1.981900
-2.507900 1.971700
-2.488400 1.974300
-2.468900 1.980500
-2.449400 1.981300
-2.429900 1.973400
-2.410400 1.949700
-2.390900 1.930800
-2.371400 1.912500
-2.351900 2.101900
-2.332400 1.806700
-2.312900 1.782800
-2.293400 1.758700
-2.273900 1.736400
-2.254400 1.719800
-2.235000 1.706100
-2.215500 1.693400
-2.196000 1.680800
-2.176500 1.673100
-2.157000 1.660900
-2.137500 1.651500
-2.118000 1.637900
-2.098500 1.631600
-2.079000 1.679700
-2.059500 1.663700
-2.040000 1.607400
-2.020500 1.587400
-2.001000 1.353400
-1.981500 1.266400
-1.962000 1.201800
-1.942500 1.155700
-1.923100 1.124300
-1.903600 1.047500
-1.884100 1.024900
-1.864600 1.017500
-1.845100 1.020500
-1.825600 1.032500
-1.806100 1.046500
-1.786600 1.005100
-1.767100 0.994000
-1.747600 0.963000
-1.728100 0.933200
-1.708600 0.959500
-1.689100 0.924100
-1.669600 0.891600
-1.650100 0.859500
-1.630600 0.799100
-1.611200 0.738500
-1.591700 0.723700
-1.572200 0.716400
-1.552700 0.610100
-1.533200 0.557200
-1.513700 0.535100
-1.494200 0.529100
-1.474700 0.527400
-1.455200 0.530100
-1.435700 0.530400
-1.416200 0.522200
-1.396700 0.538800
-1.377200 0.560200
-1.357700 0.586500
-1.338200 0.617600
-1.318700 0.700800
-1.299300 0.748200
-1.279800 0.796700
-1.260300 0.844600
-1.240800 0.891300
-1.221300 0.936600
-1.201800 0.980500
-1.182300 1.022900
-1.162800 1.062700
-1.143300 1.052600
-1.123800 1.051500
-1.104300 1.062300
-1.084800 1.072300
-1.065300 1.084100
-1.045800 1.104900
-1.026300 1.123400
-1.006800 1.135100
-0.987400 1.132700
-0.967900 1.160600
-0.948400 1.177800
-0.928900 1.181000
-0.909400 1.182300
-0.889900 1.198100
-0.870400 1.221100
-0.850900 1.234000
-0.831400 1.241400
-0.811900 1.247200
-0.792400 1.252100
-0.772900 1.255500
-0.753400 1.261900
-0.733900 1.267000
-0.714400 1.269600
-0.694900 1.271600
-0.675500 1.274700
-0.656000 1.296000
-0.636500 1.322100
-0.617000 1.350600
-0.597500 1.383000
-0.578000 1.423800
-0.558500 1.333300
-0.539000 1.347700
-0.519500 1.369200
-0.500000 1.395700
-0.480500 1.413600
-0.461000 1.420600
-0.441500 1.433400
-0.422000 1.449600
-0.402500 1.524100
-0.383000 1.526300
-0.363600 1.554200
-0.344100 1.591400
-0.324600 1.641000
-0.305100 1.679200
-0.285600 1.654000
-0.266100 1.635900
-0.246600 1.606200
-0.227100 1.524100
-0.207600 1.474500
-0.188100 1.441300
-0.168600 1.409500
-0.149100 1.379000
-0.129600 1.352900
-0.110100 1.382700
-0.090600 1.328900
-0.071100 1.303800
-0.051700 1.303800
-0.032200 1.302700
-0.012700 1.308700
0.006800 1.335000
0.026300 1.335500
0.045800 1.343000
0.065300 1.353100
0.084800 1.357600
0.104300 1.356300
0.123800 1.343600
0.143300 1.325200
0.162800 1.309800
0.182300 1.297200
0.201800 1.287600
0.221300 1.280900
0.240800 1.372000
0.260200 1.329800
0.279700 1.343800
0.299200 1.349100
0.318700 1.334300
0.338200 1.305400
0.357700 1.314900
0.377200 1.325500
0.396700 1.338400
0.416200 1.354900
0.435700 1.373500
0.455200 1.400200
0.474700 1.448400
0.494200 1.513600
0.513700 1.585100
0.533200 1.626100
0.552700 1.668200
0.572100 1.714800
0.591600 1.779400
0.611100 1.857800
0.630600 1.887700
0.650100 1.946400
0.669600 1.999200
0.689100 2.076900
0.708600 2.153000
0.728100 2.217200
0.747600 2.216800
0.767100 2.153700
0.786600 2.139100
0.806100 2.105300
0.825600 2.183000
0.845100 2.200800
0.864600 2.174300
0.884100 2.112100
0.903500 2.023100
0.923000 1.924600
0.942500 1.813200
0.962000 1.719100
0.981500 1.548800
1.001000 1.404400
1.020500 1.365800
1.040000 1.333700
1.059500 1.307400
1.079000 1.284800
1.098500 1.265500
1.118000 1.248700
1.137500 1.234900
1.157000 1.231200
1.176500 1.226800
1.196000 1.214400
1.215400 1.198000
1.234900 1.206300
1.254400 1.226700
1.273900 1.250000
1.293400 1.270800
1.312900 1.290000
1.332400 1.311100
1.351900 1.329700
1.371400 1.345300
1.390900 1.371100
1.410400 1.375600
1.429900 1.370700
1.449400 1.361600
1.468900 1.353300
1.488400 1.347300
1.507900 1.342800
1.527300 1.344200
1.546800 1.347300
1.566300 1.349600
1.585800 1.354500
1.605300 1.360300
1.624800 1.373300
1.644300 1.394200
1.663800 1.422500
1.683300 1.456200
1.702800 1.449000
1.722300 1.401500
1.741800 1.407900
1.761300 1.470700
1.780800 1.546600
1.800300 1.618900
1.819800 1.679700
1.839200 1.733000
1.858700 1.773800
1.878200 1.842300
1.897700 1.883800
1.917200 1.918600
1.936700 1.949300
1.956200 1.973300
1.975700 2.007300
1.995200 2.047300
2.014700 2.104500
2.034200 2.172600
2.053700 2.250300
2.073200 2.295900
2.092700 2.334800
2.112200 2.344200
2.131700 2.319700
2.151100 2.275900
2.170600 2.225200
2.190100 2.191100
2.209600 2.177900
2.229100 2.147500
2.248600 2.113600
2.268100 1.992600
2.287600 1.896800
2.307100 1.831100
2.326600 1.717100
2.346100 1.515000
2.365600 1.407200
2.385100 1.353000
2.404600 1.321200
2.424100 1.287900
2.443600 1.256800
2.463000 1.252300
2.482500 1.252800
2.502000 1.256000
2.521500 1.247400
2.541000 1.279900
2.560500 1.148200
2.580000 1.130900
2.599500 1.113800
2.619000 1.096200
2.638500 1.081100
2.658000 1.070200
2.677500 1.062900
2.697000 1.056800
2.716500 1.051900
2.736000 1.051200
2.755500 1.059300
2.774900 1.076300
2.794400 1.129800
2.813900 1.141200
2.833400 1.164000
2.852900 1.200200
2.872400 1.304400
2.891900 1.355500
2.911400 1.409600
2.930900 1.433700
2.950400 1.445100
2.969900 1.418400
2.989400 1.432200
3.008900 1.446900
3.028400 1.429800
3.047900 1.390800
3.067400 1.322800
3.086800 1.299300
3.106300 1.295800
3.125800 1.278300
3.145300 1.273600
3.164800 1.275000
3.184300 1.275800
3.203800 1.280200
3.223300 1.288100
3.242800 1.320100
3.262300 1.332100
3.281800 1.344500
3.301300 1.357300
3.320800 1.370600
3.340300 1.385000
3.359800 1.389600
3.379300 1.414300
3.398700 1.447300
3.418200 1.458200
3.437700 1.445100
3.457200 1.467400
3.476700 1.487000
3.496200 1.510400
3.515700 1.537300
3.535200 1.567100
3.554700 1.600000
3.574200 1.636100
3.593700 1.675300
3.613200 1.717000
3.632700 1.798200
3.652200 1.916800
3.671700 2.044300
3.691200 2.212000
3.710700 2.266500
3.730100 2.271200
3.749600 2.266300
3.769100 2.271000
3.788600 2.285000
3.808100 2.444900
3.827600 2.540600
3.847100 2.470100
3.866600 2.294400
3.886100 2.067800
3.905600 1.833400
3.925100 1.753600
3.944600 1.754600
3.964100 1.777600
3.983600 1.796800
4.003100 1.792300
4.022600 1.803900
4.042000 1.822600
4.061500 1.846600
4.081000 1.853900
4.100500 1.916000
4.120000 1.957100
4.139500 1.966800
4.159000 1.839200
4.178500 1.810400
4.198000 1.781900
4.217500 1.756200
4.237000 1.734700
4.256500 1.713800
4.276000 1.700400
4.295500 1.706200
4.315000 1.729800
4.334500 1.756900
4.353900 1.780800
4.373400 1.810400
4.392900 1.829700
4.412400 1.847700
4.431900 1.927100
4.451400 1.976500
4.470900 1.998800
4.490400 2.018200
4.509900 1.937400
4.529400 1.945600
4.548900 1.954700
4.568400 1.959500
4.587900 1.963300
4.607400 1.966000
4.626900 1.967700
4.646400 1.968900
4.665800 1.974700
4.685300 1.959100
4.704800 1.950900
4.724300 1.955200
4.743800 1.973700
4.763300 2.010800
4.782800 2.042800
4.802300 2.061300
4.821800 2.090300
4.841300 2.161600
4.860800 2.284700
4.880300 2.445300
4.899800 2.437900
4.919300 2.341200
4.938800 2.013800
4.958300 1.890700
4.977700 1.748300
4.997200 1.639100
5.016700 1.531200
5.036200 1.475200
5.055700 1.403800
5.075200 1.358900
5.094700 1.320500
5.114200 1.290200
5.133700 1.265900
5.153200 1.248700
5.172700 1.254900
5.192200 1.296400
5.211700 1.346000
5.231200 1.434100
5.250700 1.477800
5.270200 1.558600
5.289600 1.671400
5.309100 1.978800
5.328600 2.321800
5.348100 2.535500
5.367600 2.640700
5.387100 2.691500
5.406600 2.720600
5.426100 2.821900
5.445600 3.096400
5.465100 3.229600
5.484600 3.081300
5.504100 3.026200
5.523600 2.925300
5.543100 2.744300
5.562600 2.396900
5.582100 2.160100
5.601500 1.996900
5.621000 1.872400
5.640500 1.765200
5.660000 1.678100
5.679500 1.603100
5.699000 1.562300
5.718500 1.534100
5.738000 1.513800
5.757500 1.499500
5.777000 1.480300
5.796500 1.453300
5.816000 1.419500
5.835500 1.389900
5.855000 1.358500
5.874500 1.332600
5.894000 1.311500
5.913400 1.298300
5.932900 1.296000
5.952400 1.285000
5.971900 1.253600
5.991400 1.230700
6.010900 1.210600
6.030400 1.190000
6.049900 1.166800
6.069400 1.152300
6.088900 1.142600
6.108400 1.100400
6.127900 1.058600
6.147400 0.998400
6.166900 1.145200
6.186400 1.016600
6.205900 1.027100
6.225300 1.036800
6.244800 1.043700
6.264300 1.052100
6.283800 1.061800
6.303300 1.072900
6.322800 1.087600
6.342300 1.109000
6.361800 1.220400
6.381300 1.347200
6.400800 1.455500
6.420300 1.562600
6.439800 1.669900
6.459300 1.739500
6.478800 1.922700
6.498300 2.082100
6.517800 1.907100
6.537200 1.918700
6.556700 1.935300
6.576200 1.949700
6.595700 1.965300
6.615200 1.992000
6.634700 2.020400
6.654200 2.042900
6.673700 2.122500
6.693200 2.134700
6.712700 2.143900
6.732200 2.191300
6.751700 2.291900
6.771200 2.423600
6.790700 2.437900
6.810200 2.422000
6.829700 2.368400
6.849200 2.361100
6.868600 2.346100
6.888100 2.334600
6.907600 2.323800
6.927100 2.316800
6.946600 2.322000
6.966100 2.287300
6.985600 2.247200
7.005100 2.184600
7.024600 2.114000
7.044100 2.083500
7.063600 2.067400
7.083100 2.044400
7.102600 2.015500
7.122100 1.981100
7.141600 1.946300
7.161100 1.916200
7.180500 1.892500
7.200000 1.863500
7.219500 1.829000
7.239000 1.792900
7.258500 1.762400
7.278000 1.733400
7.297500 1.706200
7.317000 1.681600
7.336500 1.653300
7.356000 1.663200
7.375500 1.646100
7.395000 1.630800
7.414500 1.556300
7.434000 1.560300
7.453500 1.636800
7.473000 1.677900
7.492400 1.727700
7.511900 1.772500
7.531400 1.830900
7.550900 1.871400
7.570400 1.880600
7.589900 1.882900
7.609400 1.933700
7.628900 2.012200
7.648400 2.166200
7.667900 2.348200
7.687400 2.437100
7.706900 2.434600
7.726400 2.405500
7.745900 2.426000
7.765400 2.406300
7.784900 2.383600
7.804300 2.360300
7.823800 2.348900
7.843300 2.355500
7.862800 2.372300
7.882300 2.411100
7.901800 2.607400
7.921300 2.300700
7.940800 2.281600
7.960300 2.236800
7.979800 2.182700
7.999300 2.129800
8.018800 2.081500
8.038300 2.030400
8.057800 1.950900
8.077300 1.869500
8.096800 1.809100
8.116200 1.770700
8.135700 1.765400
8.155200 1.670500
8.174700 1.689200
8.194200 1.734000
8.213700 1.786600
8.233200 1.848000
8.252700 1.918000
8.272200 1.997400
8.291700 2.087300
8.311200 2.210500
8.330700 2.351900
8.350200 2.531200
8.369700 2.700200
8.389200 2.857600
8.408700 3.004900
8.428100 3.152800
8.447600 3.311700
8.467100 3.428600
8.486600 3.413100
8.506100 3.431400
8.525600 3.428900
8.545100 3.426500
8.564600 3.426300
8.584100 3.414400
8.603600 3.394400
8.623100 3.454800
8.642600 3.366100
8.662100 3.271400
8.681600 3.144600
8.701100 2.991300
8.720600 2.839400
8.740000 2.683100
8.759500 2.527900
8.779000 2.356800
8.798500 2.274700
8.818000 2.066400
8.837500 1.926100
8.857000 1.801500
8.876500 1.751100
8.896000 1.654600
8.915500 1.585200
8.935000 1.561900
8.954500 1.557000
8.974000 1.551000
8.993500 1.518400
9.013000 1.649100
9.032500 1.682800
9.051900 1.594100
9.071400 1.477200
9.090900 1.396000
9.110400 1.326700
9.129900 1.331700
9.149400 1.346100
9.168900 1.364300
9.188400 1.374700
9.207900 1.376100
9.227400 1.417500
9.246900 1.506200
9.266400 1.630900
9.285900 1.672900
9.305400 1.709600
9.324900 1.730400
9.344400 1.667900
9.363800 1.530800
9.383300 1.476000
9.402800 1.469900
9.422300 1.471700
9.441800 1.474300
9.461300 1.473500
9.480800 1.471200
9.500300 1.470400
9.519800 1.470400
9.539300 1.471100
9.558800 1.478000
9.578300 1.505800
9.597800 1.570300
9.617300 1.653400
9.636800 1.659000
9.656300 1.567000
9.675700 1.539700
9.695200 1.570500
9.714700 1.603800
9.734200 1.632400
9.753700 1.655500
9.773200 1.680000
9.792700 1.736300
9.812200 1.776200
9.831700 1.790600
9.851200 1.788600
9.870700 1.773100
9.890200 1.770900
9.909700 1.821000
9.929200 1.832200
9.948700 1.847100
9.968200 1.860900
9.987700 1.874500
10.007100 1.887400
10.026600 1.900200
10.046100 1.907000
10.065600 1.926300
10.085100 1.951900
10.104600 1.983600
10.124100 2.019300
10.143600 2.058200
10.163100 2.075600
10.182600 2.089400
10.202100 2.108200
10.221600 2.115400
10.241100 2.196900
10.260600 2.238000
10.280100 2.302200
10.299600 2.359800
10.319000 2.402600
10.338500 2.438700
10.358000 2.452700
10.377500 2.409000
10.397000 2.359500
10.416500 2.301600
10.436000 2.292300
10.455500 2.313200
10.475000 2.319400
10.494500 2.337700
10.514000 2.346200
10.533500 2.347700
10.553000 2.349500
10.572500 2.351800
10.592000 2.354300
10.611500 2.358600
10.630900 2.361000
10.650400 2.347800
10.669900 2.259600
10.689400 2.177700
10.708900 2.103400
10.728400 2.052200
10.747900 2.014200
10.767400 1.984000
10.786900 1.980200
10.806400 2.021400
10.825900 2.083900
10.845400 2.148000
10.864900 2.130600
10.884400 2.075600
10.903900 2.067000
10.923400 2.055100
10.942800 2.020600
10.962300 2.000600
10.981800 1.980600
11.001300 1.967300
11.020800 1.972300
11.040300 1.993100
11.059800 2.012400
11.079300 2.052100
11.098800 2.048300
11.118300 2.053200
11.137800 2.064000
11.157300 2.069100
11.176800 2.086500
11.196300 2.177900
11.215800 2.319900
11.235300 2.291800
11.254700 2.073600
11.274200 2.019900
11.293700 2.014400
11.313200 1.964500
11.332700 1.936000
11.352200 1.907100
11.371700 1.906900
11.391200 1.834800
11.410700 1.844400
11.430200 1.829200
11.449700 1.806800
11.469200 1.791000
11.488700 1.777000
11.508200 1.764100
11.527700 1.752000
11.547200 1.740200
11.566600 1.728900
11.586100 1.725000
11.605600 1.705500
11.625100 1.667400
11.644600 1.635600
11.664100 1.614600
11.683600 1.600700
11.703100 1.585100
11.722600 1.568300
11.742100 1.549400
11.761600 1.534200
11.781100 1.517600
11.800600 1.507200
11.820100 1.500600
11.839600 1.495700
11.859100 1.488500
11.878500 1.486800
11.898000 1.493300
11.917500 1.508100
11.937000 1.529400
11.956500 1.558300
11.976000 1.635700
11.995500 1.569600
12.015000 1.576000
12.034500 1.594400
12.054000 1.613000
12.073500 1.638500
12.093000 1.671300
12.112500 1.735400
12.132000 1.755900
12.151500 1.779400
12.171000 1.827900
12.190400 1.923600
12.209900 1.966900
12.229400 1.983700
12.248900 1.962400
12.268400 1.999600
12.287900 2.067000
12.307400 2.144700
12.326900 2.354600
12.346400 2.536800
12.365900 2.543400
12.385400 2.537200
12.404900 2.530200
12.424400 2.532600
12.443900 2.565600
12.463400 2.549000
12.482900 2.547500
12.502300 2.498400
12.521800 2.443000
12.541300 2.399600
12.560800 2.400500
12.580300 2.420900
12.599800 2.455700
12.619300 2.500000
12.638800 2.542300
12.658300 2.574500
12.677800 2.517100
12.697300 2.461800
12.716800 2.418600
12.736300 2.422500
12.755800 2.416700
12.775300 2.410500
12.794800 2.430000
12.814200 2.419900
12.833700 2.382000
12.853200 2.359600
12.872700 2.369600
12.892200 2.290500
12.911700 2.254800
12.931200 2.224600
12.950700 2.210900
12.970200 2.122000
12.989700 2.120300
13.009200 2.126000
13.028700 2.142400
13.048200 2.171200
13.067700 2.184900
13.087200 2.202300
13.106700 2.221400
13.126200 2.245500
13.145600 2.273200
13.165100 2.312700
13.184600 2.352800
13.204100 2.424700
13.223600 2.476600
13.243100 2.574200
13.262600 2.657500
13.282100 2.710400
13.301600 2.704100
13.321100 2.744000
13.340600 2.805500
13.360100 2.856600
13.379600 2.952200
13.399100 3.008700
13.418600 3.027000
13.438100 3.007200
13.457500 2.940200
13.477000 2.930400
13.496500 2.921900
13.516000 2.916400
13.535500 2.906900
13.555000 2.946800
13.574500 3.064900
13.594000 3.104500
13.613500 3.056300
13.633000 3.060100
13.652500 3.095100
13.672000 2.991500
13.691500 2.843200
13.711000 2.807000
13.730500 2.641500
13.750000 2.605600
13.769400 2.626600
13.788900 2.387600
13.808400 2.284300
13.827900 2.190700
13.847400 2.121500
13.866900 2.030400
13.886400 1.947700
13.905900 1.929100
13.925400 1.898200
13.944900 1.873500
13.964400 1.844100
13.983900 1.872700
14.003400 1.788300
14.022900 1.739700
14.042400 1.690500
14.061900 1.659700
14.081300 1.633700
14.100800 1.614000
14.120300 1.586200
14.139800 1.600100
14.159300 1.623200
14.178800 1.630500
14.198300 1.644600
14.217800 1.669100
14.237300 1.704500
14.256800 1.746900
14.276300 1.811700
14.295800 1.909100
14.315300 2.017400
14.334800 2.110200
14.354300 2.187300
14.373800 2.256200
14.393200 2.322800
14.412700 2.372800
14.432200 2.365400
14.451700 2.338000
14.471200 2.310400
14.490700 2.301900
14.510200 2.426400
14.529700 2.587900
14.549200 2.871200
14.568700 3.014700
14.588200 2.845500
14.607700 2.886300
14.627200 2.945600
14.646700 2.989400
14.666200 3.046900
14.685700 3.088400
14.705100 3.118000
14.724600 3.221100
14.744100 3.228400
14.763600 3.227900
14.783100 3.230300
14.802600 3.258400
14.822100 3.283900
14.841600 3.302600
14.861100 3.312000
14.880600 3.315500
14.900100 3.240000
14.919600 3.160000
14.939100 3.146000
14.958600 3.069100
14.978100 3.001900
14.997600 2.968900
15.017000 2.984000
15.036500 2.981200
15.056000 2.976300
15.075500 2.976900
15.095000 2.971100
15.114500 2.924200
15.134000 2.867100
15.153500 2.777000
15.173000 2.787100
15.192500 2.792300
15.212000 2.758000
15.231500 2.740200
15.251000 2.764200
15.270500 2.744500
15.290000 2.759700
15.309500 2.783000
15.328900 2.802400
15.348400 2.844900
15.367900 2.825700
15.387400 2.804500
15.406900 2.784400
15.426400 2.760900
15.445900 2.737900
15.465400 2.716200
15.484900 2.685200
15.504400 2.667100
15.523900 2.646000
15.543400 2.630400
15.562900 2.583600
15.582400 2.551900
15.601900 2.527100
15.621400 2.511800
15.640800 2.489300
15.660300 2.489200
15.679800 2.495400
15.699300 2.466600
15.718800 2.448800
15.738300 2.442400
15.757800 2.452100
15.777300 2.472500
15.796800 2.494300
15.816300 2.507900
15.835800 2.651900
15.855300 2.563800
15.874800 2.595900
15.894300 2.673400
15.913800 2.804900
15.933300 2.786200
15.952800 2.763400
15.972200 2.860500
15.991700 2.950900
16.011200 3.206000
16.030700 2.948500
16.050200 2.990500
16.069700 3.035500
16.089200 3.070700
16.108700 3.095300
16.128200 3.154200
16.147700 3.088200
16.167200 3.097100
16.186700 3.089700
16.206200 3.058600
16.225700 3.007500
16.245200 2.948900
16.264700 2.883700
16.284100 2.845600
16.303600 2.757600
16.323100 2.694800
16.342600 2.640000
16.362100 2.596500
16.381600 2.574400
16.401100 2.584900
16.420600 2.651400
16.440100 2.794400
16.459600 2.851500
16.479100 2.682100
16.498600 2.575700
16.518100 2.649200
16.537600 2.742800
16.557100 2.831200
16.576600 2.901700
16.596000 2.962400
16.615500 3.007000
16.635000 3.037400
16.654500 3.061500
16.674000 3.278500
16.693500 3.108200
16.713000 3.093600
16.732500 3.055300
16.752000 2.996500
16.771500 2.906300
16.791000 2.830600
16.810500 2.684000
16.830000 2.525500
16.849500 2.363400
16.869000 2.207300
16.888500 2.073900
16.907900 1.994900
16.927400 1.940400
16.946900 1.892500
16.966400 1.854800
16.985900 1.820600
17.005400 1.821400
17.024900 1.828100
17.044400 1.932600
17.063900 2.100000
17.083400 2.256000
17.102900 2.394800
17.122400 2.526400
17.141900 2.702700
17.161400 2.890400
17.180900 3.122800
17.200400 3.412900
17.219800 3.326300
17.239300 3.326200
17.258800 3.370000
17.278300 3.414600
17.297800 3.451700
17.317300 3.491800
17.336800 3.538900
17.356300 3.493000
17.375800 3.424400
17.395300 3.367600
17.414800 3.305100
17.434300 3.266500
17.453800 3.222400
17.473300 3.098700
17.492800 3.048900
17.512300 2.999100
17.531700 2.961000
17.551200 2.909700
17.570700 2.913500
17.590200 2.915200
17.609700 2.908300
17.629200 2.934100
17.648700 3.111900
17.668200 3.095700
17.687700 3.052300
17.707200 2.975600
17.726700 2.906800
17.746200 2.785100
17.765700 2.650900
17.785200 2.567500
17.804700 2.553100
17.824200 2.551100
17.843600 2.513100
17.863100 2.599100
17.882600 2.520300
17.902100 2.525800
17.921600 2.547100
17.941100 2.628900
17.960600 2.603800
17.980100 2.616100
17.999600 2.582500
18.019100 2.552300
18.038600 2.492500
18.058100 2.479700
18.077600 2.505500
18.097100 2.547600
18.116600 2.579700
18.136100 2.596700
18.155500 2.619500
18.175000 2.664300
18.194500 2.716100
18.214000 2.688400
18.233500 2.700200
18.253000 2.717800
18.272500 2.684700
18.292000 2.632800
18.311500 2.585600
18.331000 2.541500
18.350500 2.508100
18.370000 2.483100
18.389500 2.471700
18.409000 2.496700
18.428500 2.518300
18.448000 2.499000
18.467400 2.460500
18.486900 2.427700
18.506400 2.405100
18.525900 2.398200
18.545400 2.409800
18.564900 2.438100
18.584400 2.471500
18.603900 2.506600
18.623400 2.681000
18.642900 2.514200
18.662400 2.499700
18.681900 2.454800
18.701400 2.424600
18.720900 2.398200
18.740400 2.391900
18.759900 2.389000
18.779300 2.390900
18.798800 2.387800
18.818300 2.401800
18.837800 2.425600
18.857300 2.450700
18.876800 2.481700
18.896300 2.524200
18.915800 2.586100
18.935300 2.640300
18.954800 2.674800
18.974300 2.688300
18.993800 2.712000
19.013300 2.731000
19.032800 2.761300
19.052300 2.776200
19.071800 3.048300
19.091300 3.050400
19.110700 2.848400
19.130200 2.763300
19.149700 2.769300
19.169200 2.704900
19.188700 2.688700
19.208200 2.671900
19.227700 2.649900
19.247200 2.670900
19.266700 2.710200
19.286200 2.752900
19.305700 2.801800
19.325200 2.875900
19.344700 2.940900
19.364200 2.892000
19.383700 2.922800
19.403200 2.902400
19.422600 2.785900
19.442100 2.691600
19.461600 2.770400
19.481100 2.857500
19.500600 2.894700
19.520100 3.065400
19.539600 2.972600
19.559100 2.992000
19.578600 3.042900
19.598100 3.116400
19.617600 3.204200
19.637100 3.292000
19.656600 3.379600
19.676100 3.456700
19.695600 3.506800
19.715100 3.729700
19.734500 3.849900
19.754000 3.864200
19.773500 3.806900
19.793000 3.703100
19.812500 3.481700
19.832000 3.306100
19.851500 3.161800
19.871000 2.971500
19.890500 2.931400
19.910000 2.834200
19.929500 2.678800
19.949000 2.553200
19.968500 2.432500
19.988000 2.303400
20.007500 2.202700
20.027000 2.139000
20.046400 2.105000
20.065900 2.078800
20.085400 2.081200
20.104900 2.249400
20.124400 2.180300
20.143900 2.222600
20.163400 2.354300
20.182900 2.318000
20.202400 2.295800
20.221900 2.301600
20.241400 2.327000
20.260900 2.362700
20.280400 2.418900
20.299900 2.475600
20.319400 2.526700
20.338900 2.590300
20.358300 2.658100
20.377800 2.707500
20.397300 2.768100
20.416800 2.786600
20.436300 2.800900
20.455800 2.777400
20.475300 2.679200
20.494800 2.634400
20.514300 2.616400
20.533800 2.736100
20.553300 2.608300
20.572800 2.600100
20.592300 2.622200
20.611800 2.655200
20.631300 2.696300
20.650800 2.727700
20.670200 2.752200
20.689700 2.788900
20.709200 2.832500
20.728700 2.931000
20.748200 2.999200
20.767700 3.131500
20.787200 3.188400
20.806700 3.241400
20.826200 3.308200
20.845700 3.371800
20.865200 3.450400
20.884700 3.536300
20.904200 3.561900
20.923700 3.590800
20.943200 3.585700
20.962700 3.601100
20.982100 3.601700
21.001600 3.586600
21.021100 3.561600
21.040600 3.527400
21.060100 3.424700
21.079600 3.320900
21.099100 3.252200
21.118600 3.207400
21.138100 3.159400
21.157600 3.108600
21.177100 3.067800
21.196600 3.001900
21.216100 2.982900
21.235600 2.954700
21.255100 2.919500
21.274600 2.919200
21.294000 2.930500
21.313500 2.950500
21.333000 3.002600
21.352500 3.048700
21.372000 3.068400
21.391500 3.028800
21.411000 3.023200
21.430500 3.033700
21.450000 3.022300
21.469500 2.985200
21.489000 3.041700
21.508500 3.042000
21.528000 3.018000
21.547500 2.949400
21.567000 2.940000
21.586500 2.952300
21.605900 2.975700
21.625400 2.999500
21.644900 2.993500
21.664400 3.025600
21.683900 3.079000
21.703400 3.118400
21.722900 3.176100
21.742400 3.221400
21.761900 3.291500
21.781400 3.390500
21.800900 3.462800
21.820400 3.480900
21.839900 3.529300
21.859400 3.563800
21.878900 3.621400
21.898400 3.598100
21.917800 3.527600
21.937300 3.468500
21.956800 3.448600
21.976300 3.435200
21.995800 3.421100
22.015300 3.352300
22.034800 3.295800
22.054300 3.270900
22.073800 3.227700
22.093300 3.178800
22.112800 3.141300
22.132300 3.287300
22.151800 3.176000
22.171300 3.158700
22.190800 3.093300
22.210300 3.074400
22.229800 3.044900
22.249200 3.014300
22.268700 2.992000
22.288200 2.987300
22.307700 2.977500
22.327200 2.980200
22.346700 2.928500
22.366200 2.948900
22.385700 2.957500
22.405200 2.991300
22.424700 3.031000
22.444200 3.121300
22.463700 3.259000
22.483200 3.338900
22.502700 3.416900
22.522200 3.516600
22.541700 3.567400
22.561100 3.612700
22.580600 3.623300
22.600100 3.630500
22.619600 3.833100
22.639100 3.746200
22.658600 3.821800
22.678100 3.890300
22.697600 4.007200
22.717100 3.950200
22.736600 3.736100
22.756100 3.496200
22.775600 3.306200
22.795100 3.114500
22.814600 3.000800
22.834100 2.770000
22.853600 2.716300
22.873000 2.730100
22.892500 2.769800
22.912000 2.869800
22.931500 2.929100
22.951000 2.951400
22.970500 3.061400
22.990000 3.190600
23.009500 3.375200
23.029000 3.530200
23.048500 3.616800
23.068000 3.644600
23.087500 3.744000
23.107000 3.810800
23.126500 3.886100
23.146000 3.947400
23.165500 3.915700
23.184900 3.822400
23.204400 3.648100
23.223900 3.333600
23.243400 3.227800
23.262900 3.147800
23.282400 3.077400
23.301900 3.012600
23.321400 2.958100
23.340900 2.932100
23.360400 2.937500
23.379900 2.822900
23.399400 2.817600
23.418900 2.835500
23.438400 2.930600
23.457900 2.920500
23.477400 2.954700
23.496800 3.006900
23.516300 3.209800
23.535800 3.308200
23.555300 3.370600
23.574800 3.468500
23.594300 3.504000
23.613800 3.523200
23.633300 3.568300
23.652800 3.604600
23.672300 3.436600
23.691800 3.332600
23.711300 3.300900
23.730800 3.285200
23.750300 3.257100
23.769800 3.182400
23.789300 3.179400
23.808700 3.186700
23.828200 3.206300
23.847700 3.241800
23.867200 3.293100
23.886700 3.337600
23.906200 3.392600
23.925700 3.448300
23.945200 3.505600
23.964700 3.482400
23.984200 3.428200
24.003700 3.407300
24.023200 3.400500
24.042700 3.400600
24.062200 3.398000
24.081700 3.385500
24.101200 3.374400
24.120600 3.357700
24.140100 3.325700
24.159600 3.293400
24.179100 3.265000
24.198600 3.240600
24.218100 3.231700
24.237600 3.202100
24.257100 3.173900
24.276600 3.129900
24.296100 3.088300
24.315600 3.060900
24.335100 3.040200
24.354600 2.986400
24.374100 3.032300
24.393600 3.120300
24.413100 3.219500
24.432500 3.478200
24.452000 3.641400
24.471500 3.620800
24.491000 3.507000
24.510500 3.334100
24.530000 3.234500
24.549500 3.135300
24.569000 3.078400
24.588500 3.048600
24.608000 3.033800
24.627500 2.995100
24.647000 3.014900
24.666500 3.030000
24.686000 3.030100
24.705500 2.985500
24.725000 2.864600
24.744400 2.777900
24.763900 2.607600
24.783400 2.554000
24.802900 2.490700
24.822400 2.423200
24.841900 2.382200
24.861400 2.357100
24.880900 2.344300
24.900400 2.339900
24.919900 2.337600
24.939400 2.334900
24.958900 2.338200
24.978400 2.335700
24.997900 2.320300
25.017400 2.308900
25.036900 2.289100
25.056400 2.244900
25.075800 2.216300
25.095300 2.176500
25.114800 2.363600
25.134300 2.298700
25.153800 2.003800
25.173300 1.893300
25.192800 1.839000
25.212300 1.814200
25.231800 1.793400
25.251300 1.774000
25.270800 1.755400
25.290300 1.681900
25.309800 1.614500
25.329300 1.489100
25.348800 1.444700
25.368300 1.410000
25.387700 1.381800
25.407200 1.359900
25.426700 1.341100
25.446200 1.323400
25.465700 1.306700
25.485200 1.291800
25.504700 1.313000
25.524200 1.461300
25.543700 1.364300
25.563200 1.244800
25.582700 1.184800
25.602200 1.152500
25.621700 1.122500
25.641200 1.088500
25.660700 1.045600
25.680200 1.003800
25.699600 0.966900
25.719100 0.929200
25.738600 0.891700
25.758100 0.854600
25.777600 0.821600
25.797100 0.811100
25.816600 0.795600
25.836100 0.722100
25.855600 0.639200
25.875100 0.599300
25.894600 0.601900
25.914100 0.560600
25.933600 0.545900
25.953100 0.531200
25.972600 0.528100
25.992100 0.561600
26.011500 0.518900
26.031000 0.506200
26.050500 0.489700
26.070000 0.475600
26.089500 0.467700
26.109000 0.460300
26.128500 0.453400
26.148000 0.446800
26.167500 0.440700
26.187000 0.434500
26.206500 0.428200
26.226000 0.423700
26.245500 0.417600
26.265000 0.409500
26.284500 0.399400
26.304000 0.387200
26.323400 0.380000
26.342900 0.375400
26.362400 0.372800
26.381900 0.372400
26.401400 0.373200
26.420900 0.375200
26.440400 0.410700
26.459900 0.465200
26.479400 0.504000
26.498900 0.491700
26.518400 0.505800
26.537900 0.484900
26.557400 0.451600
26.576900 0.408000
26.596400 0.370300
26.615900 0.340700
26.635300 0.311400
26.654800 0.282600
26.674300 0.254900
26.693800 0.229900
26.713300 0.202000
26.732800 0.159200
26.752300 0.126100
26.771800 0.105700
26.791300 0.097200
26.810800 0.090500
26.830300 0.084100
26.849800 0.077900
26.869300 0.072100
26.888800 0.066600
26.908300 0.061300
26.927800 0.056400
26.947200 0.051700
26.966700 0.047400
26.986200 0.043700
27.005700 0.040200
27.025200 0.036800
27.044700 0.034500
27.064200 0.034400
27.083700 0.032400
27.103200 0.026200
27.122700 0.015900
27.142200 0.001500
27.161700 0.000000
27.181200 0.000000
27.200700 0.000000
27.220200 0.000000
27.239700 0.000000
27.259100 0.000000
27.278600 0.000000
27.298100 0.000000
27.317600 0.000000
27.337100 0.000000
27.356600 0.000000
27.376100 0.000000
27.395600 0.000000
27.415100 0.000000
27.434600 0.000000
27.454100 0.000000
27.473600 0.000000
27.493100 0.000000
27.512600 0.000000
27.532100 0.000000
27.551600 0.000000
27.571000 0.000000
27.590500 0.000000
27.610000 0.000000
27.629500 0.000000
27.649000 0.000000
27.668500 0.000000
27.688000 0.000000
27.707500 0.000000
27.727000 0.000000
27.746500 0.000000
27.766000 0.000000
27.785500 0.000000
27.805000 0.000000
27.824500 0.000000
27.844000 0.000000
27.863500 0.000000
27.882900 0.000000
27.902400 0.000000
27.921900 0.000000
27.941400 0.000000
27.960900 0.000000
27.980400 0.000000
27.999900 0.000000
28.019400 0.000000
28.038900 0.000000
28.058400 0.000000
28.077900 0.000000
28.097400 0.000000
28.116900 0.000000
28.136400 0.000000
28.155900 0.000000
28.175400 0.000000
28.194900 0.000000
28.214300 0.000000
28.233800 0.000000
28.253300 0.000000
28.272800 0.000000
28.292300 0.000000
28.311800 0.000000
28.331300 0.000000
28.350800 0.000000
28.370300 0.000000
28.389800 0.000000
28.409300 0.000000
28.428800 0.000000
28.448300 0.000000
28.467800 0.000000
28.487300 0.000000
28.506800 0.000000
28.526200 0.000000
28.545700 0.000000
28.565200 0.000000
28.584700 0.000000
28.604200 0.000000
28.623700 0.000000
28.643200 0.000000
28.662700 0.000000
28.682200 0.000000
28.701700 0.000000
28.721200 0.000000
28.740700 0.000000
28.760200 0.000000
28.779700 0.000000
28.799200 0.000000
28.818700 0.000000
28.838100 0.000000
28.857600 0.000000
28.877100 0.000000
28.896600 0.000000
28.916100 0.000000
e
