set title 'mp-1094073 - Density of States'
set xlabel 'Energy (eV)'
set ylabel 'DOS (states/eV)'
set grid
set xrange [-10:10]
set yrange [0:4.655]
set xzeroaxis lt -1
set terminal png size 800,600
set output 'mp-1094073_dos_gnuplot.png'
plot '-' using 1:2 with lines title 'DOS'
-15.796100 0.000000
-15.773600 0.000000
-15.751000 0.000000
-15.728400 0.000000
-15.705800 0.000000
-15.683200 0.000000
-15.660600 0.000000
-15.638000 0.000000
-15.615500 0.000000
-15.592900 0.000000
-15.570300 0.000000
-15.547700 0.000000
-15.525100 0.000000
-15.502500 0.000000
-15.479900 0.000000
-15.457400 0.000000
-15.434800 0.000000
-15.412200 0.000000
-15.389600 0.000000
-15.367000 0.000000
-15.344400 0.000000
-15.321900 0.000000
-15.299300 0.000000
-15.276700 0.000000
-15.254100 0.000000
-15.231500 0.000000
-15.208900 0.000000
-15.186300 0.000000
-15.163800 0.000000
-15.141200 0.000000
-15.118600 0.000000
-15.096000 0.000000
-15.073400 0.000000
-15.050800 0.000000
-15.028200 0.000000
-15.005700 0.000000
-14.983100 0.000000
-14.960500 0.000000
-14.937900 0.000000
-14.915300 0.000000
-14.892700 0.000000
-14.870200 0.000000
-14.847600 0.000000
-14.825000 0.000000
-14.802400 0.000000
-14.779800 0.000000
-14.757200 0.000000
-14.734600 0.000000
-14.712100 0.000000
-14.689500 0.000000
-14.666900 0.000000
-14.644300 0.000000
-14.621700 0.000000
-14.599100 0.000000
-14.576500 0.000000
-14.554000 0.000000
-14.531400 0.000000
-14.508800 0.000000
-14.486200 0.000000
-14.463600 0.000000
-14.441000 0.000000
-14.418500 0.000000
-14.395900 0.000000
-14.373300 0.000000
-14.350700 0.000000
-14.328100 0.000000
-14.305500 0.000000
-14.282900 0.000000
-14.260400 0.000000
-14.237800 0.000000
-14.215200 0.000000
-14.192600 0.000000
-14.170000 0.000000
-14.147400 0.000000
-14.124800 0.000000
-14.102300 0.000000
-14.079700 0.000000
-14.057100 0.000000
-14.034500 0.000000
-14.011900 0.000000
-13.989300 0.000000
-13.966800 0.000000
-13.944200 0.000000
-13.921600 0.000000
-13.899000 0.000000
-13.876400 0.000000
-13.853800 0.000000
-13.831200 0.000000
-13.808700 0.000000
-13.786100 0.000000
-13.763500 0.000000
-13.740900 0.002600
-13.718300 0.297700
-13.695700 0.618500
-13.673100 0.932900
-13.650600 1.077300
-13.628000 1.246300
-13.605400 1.465800
-13.582800 1.736300
-13.560200 2.002200
-13.537600 2.137200
-13.515100 2.215600
-13.492500 2.307800
-13.469900 2.789900
-13.447300 3.197000
-13.424700 3.966200
-13.402100 4.441500
-13.379500 4.618100
-13.357000 4.325100
-13.334400 4.342500
-13.311800 4.503700
-13.289200 4.097600
-13.266600 3.612400
-13.244000 3.148500
-13.221400 3.037200
-13.198900 2.891000
-13.176300 2.703700
-13.153700 2.579300
-13.131100 2.460200
-13.108500 2.348100
-13.085900 2.228200
-13.063300 2.163900
-13.040800 2.132200
-13.018200 2.105400
-12.995600 2.079200
-12.973000 2.052900
-12.950400 2.004000
-12.927800 1.963200
-12.905300 1.890700
-12.882700 1.828600
-12.860100 1.786300
-12.837500 1.744500
-12.814900 1.707300
-12.792300 1.658500
-12.769700 1.644800
-12.747200 1.632900
-12.724600 1.620800
-12.702000 1.607500
-12.679400 1.592200
-12.656800 1.574500
-12.634200 1.557500
-12.611600 1.542600
-12.589100 1.528000
-12.566500 1.512900
-12.543900 1.482900
-12.521300 1.458500
-12.498700 1.412600
-12.476100 1.386000
-12.453600 1.363100
-12.431000 1.340600
-12.408400 1.320300
-12.385800 1.303900
-12.363200 1.303900
-12.340600 1.303900
-12.318000 1.303900
-12.295500 1.303200
-12.272900 1.296300
-12.250300 1.289300
-12.227700 1.281900
-12.205100 1.274200
-12.182500 1.265600
-12.159900 1.255700
-12.137400 1.244300
-12.114800 1.234500
-12.092200 1.225200
-12.069600 1.216200
-12.047000 1.203500
-12.024400 1.194200
-12.001900 1.187400
-11.979300 1.189200
-11.956700 1.198900
-11.934100 1.224300
-11.911500 1.263200
-11.888900 1.331500
-11.866300 1.356100
-11.843800 1.355800
-11.821200 1.355600
-11.798600 1.355400
-11.776000 1.355200
-11.753400 1.355000
-11.730800 1.354800
-11.708200 1.354600
-11.685700 1.354500
-11.663100 1.305700
-11.640500 1.192300
-11.617900 1.076100
-11.595300 0.969700
-11.572700 0.860200
-11.550200 0.743200
-11.527600 0.614500
-11.505000 0.481400
-11.482400 0.371300
-11.459800 0.266200
-11.437200 0.129700
-11.414600 0.052900
-11.392100 0.155500
-11.369500 0.379000
-11.346900 0.556100
-11.324300 0.701800
-11.301700 0.849200
-11.279100 0.997200
-11.256500 1.099600
-11.234000 1.099500
-11.211400 1.099500
-11.188800 1.099400
-11.166200 1.099400
-11.143600 1.099300
-11.121000 1.099200
-11.098500 1.099200
-11.075900 1.099100
-11.053300 1.099100
-11.030700 1.099000
-11.008100 1.099000
-10.985500 1.098900
-10.962900 1.098900
-10.940400 1.096300
-10.917800 1.061800
-10.895200 1.031000
-10.872600 1.004800
-10.850000 0.981200
-10.827400 0.958600
-10.804800 0.938500
-10.782300 0.918600
-10.759700 0.904200
-10.737100 0.892800
-10.714500 0.882500
-10.691900 0.868700
-10.669300 0.859600
-10.646800 0.845700
-10.624200 0.837300
-10.601600 0.829800
-10.579000 0.822900
-10.556400 0.816400
-10.533800 0.812900
-10.511200 0.812900
-10.488700 0.812900
-10.466100 0.812900
-10.443500 0.812900
-10.420900 0.812900
-10.398300 0.812900
-10.375700 0.812900
-10.353100 0.812900
-10.330600 0.812900
-10.308000 0.812900
-10.285400 0.812900
-10.262800 0.812900
-10.240200 0.812900
-10.217600 0.812900
-10.195100 0.812900
-10.172500 0.812900
-10.149900 0.812900
-10.127300 0.812900
-10.104700 0.812400
-10.082100 0.809700
-10.059500 0.806800
-10.037000 0.803800
-10.014400 0.800600
-9.991800 0.796900
-9.969200 0.792400
-9.946600 0.788000
-9.924000 0.784100
-9.901400 0.780400
-9.878900 0.774600
-9.856300 0.768800
-9.833700 0.758900
-9.811100 0.753100
-9.788500 0.748100
-9.765900 0.743500
-9.743400 0.739200
-9.720800 0.736000
-9.698200 0.736000
-9.675600 0.736000
-9.653000 0.736100
-9.630400 0.736100
-9.607800 0.736100
-9.585300 0.736100
-9.562700 0.736100
-9.540100 0.736100
-9.517500 0.736100
-9.494900 0.736100
-9.472300 0.736100
-9.449700 0.736100
-9.427200 0.736100
-9.404600 0.736100
-9.382000 0.736100
-9.359400 0.736100
-9.336800 0.736100
-9.314200 0.736100
-9.291700 0.736100
-9.269100 0.736100
-9.246500 0.736100
-9.223900 0.736100
-9.201300 0.736100
-9.178700 0.735600
-9.156100 0.733600
-9.133600 0.731400
-9.111000 0.729200
-9.088400 0.726700
-9.065800 0.723900
-9.043200 0.720400
-9.020600 0.717500
-8.998000 0.714800
-8.975500 0.711400
-8.952900 0.707400
-8.930300 0.701900
-8.907700 0.698500
-8.885100 0.695500
-8.862500 0.692700
-8.839900 0.690200
-8.817400 0.688500
-8.794800 0.688500
-8.772200 0.688500
-8.749600 0.688500
-8.727000 0.688500
-8.704400 0.688500
-8.681900 0.688500
-8.659300 0.688500
-8.636700 0.688500
-8.614100 0.688500
-8.591500 0.688500
-8.568900 0.688500
-8.546300 0.688500
-8.523800 0.688500
-8.501200 0.688500
-8.478600 0.688500
-8.456000 0.688500
-8.433400 0.688500
-8.410800 0.688500
-8.388200 0.688500
-8.365700 0.688500
-8.343100 0.688500
-8.320500 0.688500
-8.297900 0.688500
-8.275300 0.688500
-8.252700 0.688500
-8.230200 0.688500
-8.207600 0.688500
-8.185000 0.688500
-8.162400 0.687800
-8.139800 0.687200
-8.117200 0.686600
-8.094600 0.686200
-8.072100 0.685900
-8.049500 0.686000
-8.026900 0.687100
-8.004300 0.687800
-7.981700 0.689200
-7.959100 0.689800
-7.936500 0.690300
-7.914000 0.690600
-7.891400 0.690800
-7.868800 0.690900
-7.846200 0.690900
-7.823600 0.690900
-7.801000 0.690900
-7.778500 0.690900
-7.755900 0.690900
-7.733300 0.690900
-7.710700 0.690900
-7.688100 0.690900
-7.665500 0.690900
-7.642900 0.690900
-7.620400 0.690900
-7.597800 0.690900
-7.575200 0.690900
-7.552600 0.690900
-7.530000 0.690900
-7.507400 0.690900
-7.484800 0.690900
-7.462300 0.690900
-7.439700 0.690900
-7.417100 0.690900
-7.394500 0.690900
-7.371900 0.690900
-7.349300 0.690900
-7.326800 0.690900
-7.304200 0.690900
-7.281600 0.690900
-7.259000 0.690900
-7.236400 0.690900
-7.213800 0.690900
-7.191200 0.690900
-7.168700 0.690900
-7.146100 0.705900
-7.123500 0.741700
-7.100900 0.801000
-7.078300 0.893300
-7.055700 0.950400
-7.033100 0.980800
-7.010600 1.009500
-6.988000 1.041800
-6.965400 1.069700
-6.942800 1.092900
-6.920200 1.114200
-6.897600 1.133600
-6.875100 1.137600
-6.852500 1.137600
-6.829900 1.137600
-6.807300 1.137500
-6.784700 1.137500
-6.762100 1.137500
-6.739500 1.137400
-6.717000 1.137400
-6.694400 1.137300
-6.671800 1.137300
-6.649200 1.137300
-6.626600 1.137200
-6.604000 1.137200
-6.581400 1.137200
-6.558900 1.119600
-6.536300 0.945900
-6.513700 0.769400
-6.491100 0.640400
-6.468500 0.519200
-6.445900 0.380700
-6.423400 0.288900
-6.400800 0.219600
-6.378200 0.172100
-6.355600 0.106100
-6.333000 0.045300
-6.310400 0.000000
-6.287800 0.000000
-6.265300 0.000000
-6.242700 0.000000
-6.220100 0.000000
-6.197500 0.000000
-6.174900 0.000000
-6.152300 0.000000
-6.129700 0.000000
-6.107200 0.000000
-6.084600 0.000000
-6.062000 0.000000
-6.039400 0.000000
-6.016800 0.000000
-5.994200 0.000000
-5.971700 0.000000
-5.949100 0.000000
-5.926500 0.000000
-5.903900 0.000000
-5.881300 0.000000
-5.858700 0.000000
-5.836100 0.000000
-5.813600 0.000000
-5.791000 0.000000
-5.768400 0.000000
-5.745800 0.000000
-5.723200 0.000000
-5.700600 0.000000
-5.678000 0.000000
-5.655500 0.000000
-5.632900 0.000000
-5.610300 0.000000
-5.587700 0.000000
-5.565100 0.000000
-5.542500 0.000000
-5.520000 0.000000
-5.497400 0.000000
-5.474800 0.000000
-5.452200 0.000000
-5.429600 0.000000
-5.407000 0.000000
-5.384400 0.000000
-5.361900 0.000000
-5.339300 0.000000
-5.316700 0.000000
-5.294100 0.000000
-5.271500 0.000000
-5.248900 0.000000
-5.226300 0.000000
-5.203800 0.000900
-5.181200 0.050800
-5.158600 0.110400
-5.136000 0.178900
-5.113400 0.269700
-5.090800 0.352400
-5.068300 0.437400
-5.045700 0.577300
-5.023100 0.767500
-5.000500 0.989800
-4.977900 1.133900
-4.955300 1.256800
-4.932700 1.259100
-4.910200 1.259000
-4.887600 1.259000
-4.865000 1.259000
-4.842400 1.258900
-4.819800 1.258900
-4.797200 1.258800
-4.774600 1.258800
-4.752100 1.258800
-4.729500 1.258700
-4.706900 1.258700
-4.684300 1.258700
-4.661700 1.258600
-4.639100 1.258600
-4.616600 1.258500
-4.594000 1.241000
-4.571400 1.170600
-4.548800 1.093100
-4.526200 1.029300
-4.503600 0.987900
-4.481000 0.954600
-4.458500 0.932000
-4.435900 0.905700
-4.413300 0.882200
-4.390700 0.860900
-4.368100 0.853800
-4.345500 0.853600
-4.322900 0.853500
-4.300400 0.853400
-4.277800 0.853300
-4.255200 0.853200
-4.232600 0.853000
-4.210000 0.852900
-4.187400 0.852800
-4.164800 0.852700
-4.142300 0.852500
-4.119700 0.852400
-4.097100 0.852300
-4.074500 0.852200
-4.051900 0.852100
-4.029300 0.851900
-4.006800 0.851800
-3.984200 0.851700
-3.961600 0.854500
-3.939000 0.860800
-3.916400 0.868200
-3.893800 0.876700
-3.871200 0.886600
-3.848700 0.897800
-3.826100 0.907200
-3.803500 0.915200
-3.780900 0.922600
-3.758300 0.929200
-3.735700 0.935500
-3.713100 0.941800
-3.690600 0.948000
-3.668000 0.954500
-3.645400 0.960800
-3.622800 0.967300
-3.600200 0.977600
-3.577600 0.984200
-3.555100 0.988100
-3.532500 0.990000
-3.509900 0.991200
-3.487300 0.991600
-3.464700 0.991300
-3.442100 0.990800
-3.419500 0.991300
-3.397000 0.992800
-3.374400 0.994600
-3.351800 0.996800
-3.329200 0.999500
-3.306600 1.002400
-3.284000 1.005900
-3.261400 1.010400
-3.238900 1.014900
-3.216300 1.019200
-3.193700 1.023400
-3.171100 1.027200
-3.148500 1.030900
-3.125900 1.034600
-3.103400 1.038300
-3.080800 1.041900
-3.058200 1.045500
-3.035600 1.049100
-3.013000 1.053000
-2.990400 1.057100
-2.967800 1.061700
-2.945300 1.101300
-2.922700 1.193700
-2.900100 1.302000
-2.877500 1.367000
-2.854900 1.392100
-2.832300 1.417700
-2.809700 1.461600
-2.787200 1.506200
-2.764600 1.543000
-2.742000 1.578700
-2.719400 1.616000
-2.696800 1.651100
-2.674200 1.677900
-2.651700 1.703300
-2.629100 1.731900
-2.606500 1.762300
-2.583900 1.798100
-2.561300 1.832300
-2.538700 1.862800
-2.516100 1.892300
-2.493600 1.924000
-2.471000 1.960900
-2.448400 2.000000
-2.425800 2.039700
-2.403200 2.079800
-2.380600 2.118200
-2.358000 2.183000
-2.335500 2.246500
-2.312900 2.329500
-2.290300 2.494200
-2.267700 2.576000
-2.245100 2.633100
-2.222500 2.677600
-2.200000 2.702600
-2.177400 2.713900
-2.154800 2.706800
-2.132200 2.650000
-2.109600 2.645800
-2.087000 2.619000
-2.064400 2.577100
-2.041900 2.522900
-2.019300 2.508400
-1.996700 2.520000
-1.974100 2.532600
-1.951500 2.545900
-1.928900 2.568400
-1.906300 2.601100
-1.883800 2.633200
-1.861200 2.655800
-1.838600 2.665000
-1.816000 2.683100
-1.793400 2.707000
-1.770800 2.740600
-1.748300 2.731700
-1.725700 2.711900
-1.703100 2.709500
-1.680500 2.709200
-1.657900 2.701500
-1.635300 2.693900
-1.612700 2.688700
-1.590200 2.681000
-1.567600 2.666600
-1.545000 2.635900
-1.522400 2.608500
-1.499800 2.587100
-1.477200 2.597300
-1.454600 2.613100
-1.432100 2.627500
-1.409500 2.631200
-1.386900 2.633200
-1.364300 2.635700
-1.341700 2.638700
-1.319100 2.646200
-1.296600 2.658500
-1.274000 2.676500
-1.251400 2.704600
-1.228800 2.745800
-1.206200 2.804500
-1.183600 2.879300
-1.161000 2.965400
-1.138500 3.036800
-1.115900 3.094600
-1.093300 3.141100
-1.070700 3.189300
-1.048100 3.276300
-1.025500 3.361800
-1.002900 3.438300
-0.980400 3.420200
-0.957800 3.440300
-0.935200 3.373700
-0.912600 3.248900
-0.890000 3.225800
-0.867400 3.287200
-0.844900 3.336200
-0.822300 3.355600
-0.799700 3.307900
-0.777100 3.202200
-0.754500 3.197500
-0.731900 3.236400
-0.709300 3.330400
-0.686800 3.422900
-0.664200 3.468900
-0.641600 3.494600
-0.619000 3.540500
-0.596400 3.669300
-0.573800 3.664600
-0.551200 3.693600
-0.528700 3.710700
-0.506100 3.732300
-0.483500 3.737000
-0.460900 3.721400
-0.438300 3.711000
-0.415700 3.733100
-0.393200 3.798300
-0.370600 3.866800
-0.348000 3.883800
-0.325400 3.873300
-0.302800 4.104500
-0.280200 4.173500
-0.257600 4.231400
-0.235100 4.138600
-0.212500 4.110100
-0.189900 4.124100
-0.167300 4.028700
-0.144700 3.861700
-0.122100 3.770100
-0.099500 3.702700
-0.077000 3.597000
-0.054400 3.446200
-0.031800 3.298400
-0.009200 3.146900
0.013400 3.005400
0.036000 2.880800
0.058500 2.776200
0.081100 2.691400
0.103700 2.619700
0.126300 2.566100
0.148900 2.543900
0.171500 2.563400
0.194100 2.633600
0.216600 2.727800
0.239200 2.862300
0.261800 2.974300
0.284400 3.004400
0.307000 3.076000
0.329600 3.157500
0.352200 3.245600
0.374700 3.348600
0.397300 3.495400
0.419900 3.594000
0.442500 3.693300
0.465100 3.675700
0.487700 3.610200
0.510300 3.502600
0.532800 3.320800
0.555400 3.125500
0.578000 2.934600
0.600600 2.773200
0.623200 2.615200
0.645800 2.459600
0.668300 2.328000
0.690900 2.229600
0.713500 2.144300
0.736100 2.062200
0.758700 2.025200
0.781300 2.132700
0.803900 2.296900
0.826400 2.325200
0.849000 2.337500
0.871600 2.378900
0.894200 2.470300
0.916800 2.557500
0.939400 2.610400
0.962000 2.627400
0.984500 2.596600
1.007100 2.676900
1.029700 2.793500
1.052300 2.742000
1.074900 2.670700
1.097500 2.654300
1.120000 2.699600
1.142600 2.782200
1.165200 2.867000
1.187800 2.941800
1.210400 3.005500
1.233000 3.018300
1.255600 3.029200
1.278100 3.022000
1.300700 2.974300
1.323300 2.941900
1.345900 2.915200
1.368500 2.870600
1.391100 2.831500
1.413700 2.797300
1.436200 2.763200
1.458800 2.727600
1.481400 2.689700
1.504000 2.647600
1.526600 2.612700
1.549200 2.616400
1.571700 2.608500
1.594300 2.623200
1.616900 2.635000
1.639500 2.657600
1.662100 2.662000
1.684700 2.652200
1.707300 2.634800
1.729800 2.643200
1.752400 2.685300
1.775000 2.755800
1.797600 2.826300
1.820200 2.892700
1.842800 2.963400
1.865400 3.160900
1.887900 3.209500
1.910500 3.213800
1.933100 3.224300
1.955700 3.184900
1.978300 3.100400
2.000900 3.041400
2.023400 3.146300
2.046000 3.266000
2.068600 3.407600
2.091200 3.502200
2.113800 3.542200
2.136400 3.841200
2.159000 4.198600
2.181500 3.441300
2.204100 3.017000
2.226700 2.750100
2.249300 2.563500
2.271900 2.404800
2.294500 2.216900
2.317100 2.121100
2.339600 2.192200
2.362200 2.061200
2.384800 1.994800
2.407400 1.945400
2.430000 1.907500
2.452600 1.886200
2.475100 1.866900
2.497700 1.850100
2.520300 1.837200
2.542900 1.842400
2.565500 1.860100
2.588100 1.880200
2.610700 1.924500
2.633200 1.990700
2.655800 2.059500
2.678400 2.111400
2.701000 2.161200
2.723600 2.211000
2.746200 2.262800
2.768800 2.316400
2.791300 2.358300
2.813900 2.368700
2.836500 2.386500
2.859100 2.414600
2.881700 2.462300
2.904300 2.526900
2.926800 2.679100
2.949400 2.837100
2.972000 2.957100
2.994600 3.023300
3.017200 3.086600
3.039800 3.034800
3.062400 2.457700
3.084900 2.165800
3.107500 1.960600
3.130100 1.874000
3.152700 1.789200
3.175300 1.664700
3.197900 1.583900
3.220500 1.507700
3.243000 1.409200
3.265600 1.333300
3.288200 1.269200
3.310800 1.180200
3.333400 0.990900
3.356000 0.773600
3.378500 0.512400
3.401100 0.458700
3.423700 0.458700
3.446300 0.458700
3.468900 0.458700
3.491500 0.458700
3.514100 0.458700
3.536600 0.458700
3.559200 0.458700
3.581800 0.457200
3.604400 0.454800
3.627000 0.451600
3.649600 0.446400
3.672200 0.443600
3.694700 0.442500
3.717300 0.442300
3.739900 0.442600
3.762500 0.443300
3.785100 0.443800
3.807700 0.443800
3.830200 0.443800
3.852800 0.443800
3.875400 0.443800
3.898000 0.443800
3.920600 0.443800
3.943200 0.443800
3.965800 0.443800
3.988300 0.443800
4.010900 0.443800
4.033500 0.443800
4.056100 0.443800
4.078700 0.443800
4.101300 0.443800
4.123900 0.443800
4.146400 0.443800
4.169000 0.443800
4.191600 0.443800
4.214200 0.443800
4.236800 0.443800
4.259400 0.443800
4.281900 0.443800
4.304500 0.443800
4.327100 0.443800
4.349700 0.443800
4.372300 0.443800
4.394900 0.443800
4.417500 0.443800
4.440000 0.443800
4.462600 0.443800
4.485200 0.443800
4.507800 0.443800
4.530400 0.443800
4.553000 0.443800
4.575600 0.443800
4.598100 0.443800
4.620700 0.443800
4.643300 0.443800
4.665900 0.443800
4.688500 0.443800
4.711100 0.443800
4.733700 0.443800
4.756200 0.443800
4.778800 0.443800
4.801400 0.443800
4.824000 0.443800
4.846600 0.443800
4.869200 0.443800
4.891700 0.443800
4.914300 0.443800
4.936900 0.443800
4.959500 0.443800
4.982100 0.443800
5.004700 0.443800
5.027300 0.443800
5.049800 0.443800
5.072400 0.443800
5.095000 0.443800
5.117600 0.414100
5.140200 0.308300
5.162800 0.206400
5.185400 0.063900
5.207900 0.067400
5.230500 0.306300
5.253100 0.442900
5.275700 0.496500
5.298300 0.496500
5.320900 0.496500
5.343400 0.496500
5.366000 0.496500
5.388600 0.496400
5.411200 0.496400
5.433800 0.496400
5.456400 0.496400
5.479000 0.496400
5.501500 0.496400
5.524100 0.496300
5.546700 0.496300
5.569300 0.496300
5.591900 0.496300
5.614500 0.496300
5.637100 0.496200
5.659600 0.496200
5.682200 0.496200
5.704800 0.496200
5.727400 0.496200
5.750000 0.496200
5.772600 0.496100
5.795100 0.496100
5.817700 0.496100
5.840300 0.496100
5.862900 0.496100
5.885500 0.496100
5.908100 0.496000
5.930700 0.496000
5.953200 0.496000
5.975800 0.496000
5.998400 0.496000
6.021000 0.496000
6.043600 0.495900
6.066200 0.495900
6.088800 0.495900
6.111300 0.495900
6.133900 0.495900
6.156500 0.495800
6.179100 0.495900
6.201700 0.505200
6.224300 0.524900
6.246800 0.549900
6.269400 0.575500
6.292000 0.596100
6.314600 0.615300
6.337200 0.677300
6.359800 0.832000
6.382400 1.049100
6.404900 1.307100
6.427500 1.524800
6.450100 1.729000
6.472700 1.897000
6.495300 1.989500
6.517900 2.088900
6.540500 2.226800
6.563000 2.386000
6.585600 2.628800
6.608200 2.908100
6.630800 2.983800
6.653400 3.110800
6.676000 3.476900
6.698500 3.804600
6.721100 3.828200
6.743700 3.744600
6.766300 3.708700
6.788900 3.700700
6.811500 3.728500
6.834100 3.768000
6.856600 3.763900
6.879200 3.720600
6.901800 3.644000
6.924400 3.577100
6.947000 3.681600
6.969600 3.823400
6.992200 3.920400
7.014700 4.051300
7.037300 4.014600
7.059900 3.809000
7.082500 3.551200
7.105100 3.245400
7.127700 2.904700
7.150200 2.686400
7.172800 2.558500
7.195400 2.401400
7.218000 2.235700
7.240600 2.088800
7.263200 1.957400
7.285800 1.853900
7.308300 1.767700
7.330900 1.693400
7.353500 1.627900
7.376100 1.567800
7.398700 1.511200
7.421300 1.462600
7.443900 1.418700
7.466400 1.381700
7.489000 1.365700
7.511600 1.393700
7.534200 1.424100
7.556800 1.445900
7.579400 1.493400
7.601900 1.503000
7.624500 1.499600
7.647100 1.776400
7.669700 1.966200
7.692300 2.171200
7.714900 1.050300
7.737500 1.165200
7.760000 1.120000
7.782600 0.853300
7.805200 0.214900
7.827800 0.233000
7.850400 0.253300
7.873000 0.275900
7.895600 0.299400
7.918100 0.323100
7.940700 0.347700
7.963300 0.373900
7.985900 0.435300
8.008500 0.543100
8.031100 0.700200
8.053600 0.883100
8.076200 1.134600
8.098800 1.272800
8.121400 1.335300
8.144000 1.447900
8.166600 1.610700
8.189200 1.783500
8.211700 1.947800
8.234300 2.106200
8.256900 2.338300
8.279500 2.567000
8.302100 2.754100
8.324700 3.008200
8.347300 3.158500
8.369800 3.096500
8.392400 3.000900
8.415000 2.912900
8.437600 2.860200
8.460200 2.850900
8.482800 2.860300
8.505300 2.915500
8.527900 2.945100
8.550500 2.947600
8.573100 2.965800
8.595700 3.008700
8.618300 3.058800
8.640900 3.322900
8.663400 3.319300
8.686000 2.668400
8.708600 2.559000
8.731200 2.481800
8.753800 2.413700
8.776400 2.373400
8.799000 2.364000
8.821500 2.362900
8.844100 2.367500
8.866700 2.370900
8.889300 2.373900
8.911900 2.381900
8.934500 2.397300
8.957000 2.418300
8.979600 2.443100
9.002200 2.473600
9.024800 2.502900
9.047400 2.532700
9.070000 2.562900
9.092600 2.601600
9.115100 2.647700
9.137700 2.683000
9.160300 2.716900
9.182900 2.751100
9.205500 2.783900
9.228100 2.812100
9.250700 2.803600
9.273200 2.777600
9.295800 2.761800
9.318400 2.763500
9.341000 2.774400
9.363600 2.788300
9.386200 2.816300
9.408800 2.852200
9.431300 2.884300
9.453900 2.862900
9.476500 2.812300
9.499100 2.774400
9.521700 2.748400
9.544300 2.748500
9.566800 2.775400
9.589400 2.808600
9.612000 2.862600
9.634600 2.945600
9.657200 3.151700
9.679800 3.226500
9.702400 3.213700
9.724900 3.094500
9.747500 3.042400
9.770100 2.984800
9.792700 2.876900
9.815300 2.968400
9.837900 2.840100
9.860500 2.791300
9.883000 2.786900
9.905600 2.849600
9.928200 3.070800
9.950800 3.222000
9.973400 3.378400
9.996000 3.527300
10.018500 3.678100
10.041100 3.819200
10.063700 3.939800
10.086300 4.077000
10.108900 4.156800
10.131500 4.222100
10.154100 4.301500
10.176600 4.373100
10.199200 4.328200
10.221800 4.323500
10.244400 4.265800
10.267000 4.168600
10.289600 4.119100
10.312200 4.125400
10.334700 4.158100
10.357300 4.260800
10.379900 4.300600
10.402500 4.258900
10.425100 4.190800
10.447700 4.121600
10.470200 4.070900
10.492800 4.022700
10.515400 3.927600
10.538000 3.866900
10.560600 3.786900
10.583200 3.773800
10.605800 3.753700
10.628300 3.628600
10.650900 3.532000
10.673500 3.421200
10.696100 3.328300
10.718700 3.275700
10.741300 3.228300
10.763900 3.212800
10.786400 3.239400
10.809000 3.268900
10.831600 3.187100
10.854200 3.040900
10.876800 2.975400
10.899400 2.967600
10.921900 3.001300
10.944500 3.050600
10.967100 3.117500
10.989700 3.181300
11.012300 3.230400
11.034900 3.264100
11.057500 3.287600
11.080000 3.288400
11.102600 3.288900
11.125200 3.325600
11.147800 3.414400
11.170400 3.564000
11.193000 3.803700
11.215600 3.985100
11.238100 4.276300
11.260700 3.979100
11.283300 3.893200
11.305900 3.811400
11.328500 3.732500
11.351100 3.681500
11.373600 3.625900
11.396200 3.581700
11.418800 3.505500
11.441400 3.478200
11.464000 3.436700
11.486600 3.384500
11.509200 3.337000
11.531700 3.301000
11.554300 3.274200
11.576900 3.277000
11.599500 3.179700
11.622100 3.117000
11.644700 3.124100
11.667300 3.103700
11.689800 3.123100
11.712400 3.145300
11.735000 3.166400
11.757600 3.167100
11.780200 3.167700
11.802800 3.166300
11.825300 3.148600
11.847900 3.144100
11.870500 3.169500
11.893100 3.167300
11.915700 3.233300
11.938300 3.266000
11.960900 3.235300
11.983400 3.224500
12.006000 3.237600
12.028600 3.229500
12.051200 3.329800
12.073800 3.365800
12.096400 3.452800
12.119000 3.425600
12.141500 3.423100
12.164100 3.344500
12.186700 3.265900
12.209300 3.141600
12.231900 3.023500
12.254500 2.894400
12.277000 2.690900
12.299600 2.533700
12.322200 2.405300
12.344800 2.316000
12.367400 2.272400
12.390000 2.216000
12.412600 2.229300
12.435100 2.237000
12.457700 2.262000
12.480300 2.311200
12.502900 2.400600
12.525500 2.509300
12.548100 2.582400
12.570700 2.670700
12.593200 2.755300
12.615800 2.800300
12.638400 2.825200
12.661000 2.854600
12.683600 2.853400
12.706200 2.806200
12.728700 2.850100
12.751300 2.902800
12.773900 2.972100
12.796500 3.035800
12.819100 3.069100
12.841700 3.072200
12.864300 3.028300
12.886800 2.878700
12.909400 2.685300
12.932000 2.527600
12.954600 2.419400
12.977200 2.378000
12.999800 2.384900
13.022400 2.462300
13.044900 2.570500
13.067500 2.698400
13.090100 2.848300
13.112700 2.941900
13.135300 2.948900
13.157900 2.999500
13.180400 3.138400
13.203000 3.148800
13.225600 3.008000
13.248200 2.905500
13.270800 2.822800
13.293400 2.743900
13.316000 2.681700
13.338500 2.662500
13.361100 2.718200
13.383700 2.759300
13.406300 2.799600
13.428900 2.882900
13.451500 2.969600
13.474100 3.054400
13.496600 3.121400
13.519200 3.213700
13.541800 3.318000
13.564400 3.403400
13.587000 3.479600
13.609600 3.562900
13.632100 3.627800
13.654700 3.662900
13.677300 3.681400
13.699900 3.665900
13.722500 3.669300
13.745100 3.635200
13.767700 3.641800
13.790200 3.651200
13.812800 3.665500
13.835400 3.682600
13.858000 3.719000
13.880600 3.773600
13.903200 3.791200
13.925800 3.794400
13.948300 3.746900
13.970900 3.621400
13.993500 3.517000
14.016100 3.255100
14.038700 3.161500
14.061300 3.091400
14.083900 3.081000
14.106400 2.997200
14.129000 2.877900
14.151600 2.841700
14.174200 2.865900
14.196800 3.005900
14.219400 3.300900
14.241900 3.551200
14.264500 3.864200
14.287100 4.320800
14.309700 4.817600
14.332300 4.875900
14.354900 4.775400
14.377500 4.709000
14.400000 4.612000
14.422600 4.441600
14.445200 4.323000
14.467800 4.244700
14.490400 4.246000
14.513000 4.277000
14.535600 4.305300
14.558100 4.375500
14.580700 4.775800
14.603300 4.662800
14.625900 4.372700
14.648500 4.085900
14.671100 3.777500
14.693600 3.650000
14.716200 3.528600
14.738800 3.436900
14.761400 3.359000
14.784000 3.296300
14.806600 3.250500
14.829200 3.220300
14.851700 3.187400
14.874300 3.160200
14.896900 3.131900
14.919500 3.074800
14.942100 3.021600
14.964700 3.011400
14.987300 2.996100
15.009800 2.996200
15.032400 2.986400
15.055000 2.991800
15.077600 2.996100
15.100200 3.006500
15.122800 3.023200
15.145300 3.046500
15.167900 3.075600
15.190500 3.106600
15.213100 3.137100
15.235700 3.155100
15.258300 3.163800
15.280900 3.171200
15.303400 3.169500
15.326000 3.174400
15.348600 3.178000
15.371200 3.153300
15.393800 3.113500
15.416400 3.103400
15.439000 3.123000
15.461500 3.150300
15.484100 3.225700
15.506700 3.287900
15.529300 3.307600
15.551900 3.359600
15.574500 3.414500
15.597000 3.466300
15.619600 3.485900
15.642200 3.512600
15.664800 3.514500
15.687400 3.513800
15.710000 3.539000
15.732600 3.572500
15.755100 3.563100
15.777700 3.664300
15.800300 3.694800
15.822900 3.771500
15.845500 3.842200
15.868100 3.896400
15.890700 3.925500
15.913200 3.943500
15.935800 3.950800
15.958400 3.938100
15.981000 3.929500
16.003600 3.977100
16.026200 3.979300
16.048700 3.974400
16.071300 3.922300
16.093900 3.914800
16.116500 3.870800
16.139100 3.950500
16.161700 3.972600
16.184300 3.988800
16.206800 3.922300
16.229400 3.869800
16.252000 3.766500
16.274600 3.759000
16.297200 3.781400
16.319800 3.848700
16.342400 3.820000
16.364900 3.800200
16.387500 3.791700
16.410100 3.746500
16.432700 3.715200
16.455300 3.653500
16.477900 3.589400
16.500400 3.586100
16.523000 3.602000
16.545600 3.632500
16.568200 3.613700
16.590800 3.639700
16.613400 3.667500
16.636000 3.708100
16.658500 3.817500
16.681100 3.699700
16.703700 3.616600
16.726300 3.511100
16.748900 3.465100
16.771500 3.441300
16.794100 3.425200
16.816600 3.415400
16.839200 3.369600
16.861800 3.318800
16.884400 3.245300
16.907000 3.154300
16.929600 3.080700
16.952100 3.045500
16.974700 3.033600
16.997300 3.058400
17.019900 3.093500
17.042500 3.144800
17.065100 3.231800
17.087700 3.307400
17.110200 3.383300
17.132800 3.478000
17.155400 3.575900
17.178000 3.689200
17.200600 3.810300
17.223200 3.924500
17.245800 4.076200
17.268300 4.216800
17.290900 4.422100
17.313500 4.553800
17.336100 4.625900
17.358700 4.674300
17.381300 4.637000
17.403800 4.567400
17.426400 4.493100
17.449000 4.372800
17.471600 4.298700
17.494200 4.322700
17.516800 4.258100
17.539400 4.086600
17.561900 4.034800
17.584500 3.910400
17.607100 3.800800
17.629700 4.046900
17.652300 3.893900
17.674900 3.839600
17.697500 3.789100
17.720000 3.703200
17.742600 3.595500
17.765200 3.460400
17.787800 3.318200
17.810400 3.344300
17.833000 3.240700
17.855500 3.229400
17.878100 3.228200
17.900700 3.234800
17.923300 3.316500
17.945900 3.281600
17.968500 3.257600
17.991100 3.249700
18.013600 3.231600
18.036200 3.217700
18.058800 3.182700
18.081400 3.175200
18.104000 3.199000
18.126600 3.188900
18.149200 3.125500
18.171700 3.069100
18.194300 3.106800
18.216900 3.009900
18.239500 2.970100
18.262100 2.967700
18.284700 2.945500
18.307300 3.023400
18.329800 2.951000
18.352400 2.957100
18.375000 2.959300
18.397600 2.970400
18.420200 2.983600
18.442800 3.017500
18.465300 3.087400
18.487900 3.238100
18.510500 3.259200
18.533100 3.047100
18.555700 2.870300
18.578300 2.816100
18.600900 2.774100
18.623400 2.754400
18.646000 2.779600
18.668600 2.781400
18.691200 2.773900
18.713800 2.749900
18.736400 2.674800
18.759000 2.660300
18.781500 2.919800
18.804100 3.199800
18.826700 3.424900
18.849300 3.514200
18.871900 3.816900
18.894500 4.088700
18.917000 4.151600
18.939600 4.254000
18.962200 4.458800
18.984800 4.499400
19.007400 4.674800
19.030000 4.884100
19.052600 4.785900
19.075100 4.789000
19.097700 4.519500
19.120300 4.353000
19.142900 4.237000
19.165500 4.100200
19.188100 4.013700
19.210700 3.969600
19.233200 3.929900
19.255800 3.889700
19.278400 3.856100
19.301000 3.801800
19.323600 3.727800
19.346200 3.646000
19.368700 3.572900
19.391300 3.504100
19.413900 3.446200
19.436500 3.392800
19.459100 3.340800
19.481700 3.255100
19.504300 3.173800
19.526800 3.129500
19.549400 3.101600
19.572000 3.083900
19.594600 3.088400
19.617200 3.138500
19.639800 3.162100
19.662400 3.165500
19.684900 3.204900
19.707500 3.288200
19.730100 3.291300
19.752700 3.325600
19.775300 3.428500
19.797900 3.450900
19.820400 3.467000
19.843000 3.468200
19.865600 3.496600
19.888200 3.608100
19.910800 3.738300
19.933400 3.888100
19.956000 4.003300
19.978500 4.116900
20.001100 4.211800
20.023700 4.250400
20.046300 4.251700
20.068900 4.231700
20.091500 4.200000
20.114100 4.119200
20.136600 4.000800
20.159200 3.889100
20.181800 3.789600
20.204400 3.746800
20.227000 3.720700
20.249600 3.691100
20.272100 3.689100
20.294700 3.719100
20.317300 3.741700
20.339900 3.743800
20.362500 3.711600
20.385100 3.701900
20.407700 3.706300
20.430200 3.723900
20.452800 3.702800
20.475400 3.660900
20.498000 3.607500
20.520600 3.552100
20.543200 3.515700
20.565800 3.517200
20.588300 3.524600
20.610900 3.537100
20.633500 3.611800
20.656100 3.648500
20.678700 3.654100
20.701300 3.662400
20.723800 3.601500
20.746400 3.591600
20.769000 3.587400
20.791600 3.608500
20.814200 3.645800
20.836800 3.703800
20.859400 3.782200
20.881900 3.865700
20.904500 3.996700
20.927100 4.070200
20.949700 4.113700
20.972300 4.155300
20.994900 4.215200
21.017500 4.320400
21.040000 4.337200
21.062600 4.334900
21.085200 4.363600
21.107800 4.377000
21.130400 4.379000
21.153000 4.440000
21.175500 4.492100
21.198100 4.446700
21.220700 4.428600
21.243300 4.462000
21.265900 4.580100
21.288500 4.700600
21.311100 4.718800
21.333600 4.718900
21.356200 4.735900
21.378800 4.776600
21.401400 4.829400
21.424000 4.905900
21.446600 4.722200
21.469200 4.413700
21.491700 4.290900
21.514300 4.203700
21.536900 4.208200
21.559500 4.230400
21.582100 4.300100
21.604700 4.377900
21.627200 4.452000
21.649800 4.517700
21.672400 4.636300
21.695000 4.723300
21.717600 4.773900
21.740200 4.753800
21.762800 4.639300
21.785300 4.494000
21.807900 4.283300
21.830500 4.123900
21.853100 3.976700
21.875700 3.827100
21.898300 3.679400
21.920900 3.626400
21.943400 3.659200
21.966000 3.683900
21.988600 3.709600
22.011200 3.761300
22.033800 3.817100
22.056400 3.949000
22.078900 3.985600
22.101500 4.097300
22.124100 4.245300
22.146700 4.372900
22.169300 4.497800
22.191900 4.545400
22.214500 4.542000
22.237000 4.604800
22.259600 4.661200
22.282200 4.823100
22.304800 4.927100
22.327400 4.876400
22.350000 4.829100
22.372600 4.844700
22.395100 4.896600
22.417700 4.958700
22.440300 4.929100
22.462900 4.842500
22.485500 4.824900
22.508100 4.912200
22.530600 4.851000
22.553200 4.905400
22.575800 4.875500
22.598400 4.836300
22.621000 4.748500
22.643600 4.669600
22.666200 4.730200
22.688700 4.776000
22.711300 4.735800
22.733900 4.676900
22.756500 4.605500
22.779100 4.568200
22.801700 4.533900
22.824300 4.486800
22.846800 4.405700
22.869400 4.331200
22.892000 4.301500
22.914600 4.263100
22.937200 4.185100
22.959800 4.113400
22.982400 4.057800
23.004900 3.982400
23.027500 3.956500
23.050100 3.972200
23.072700 3.997000
23.095300 4.003800
23.117900 3.964000
23.140400 3.935400
23.163000 3.938100
23.185600 3.959300
23.208200 3.986500
23.230800 3.962800
23.253400 3.887000
23.276000 3.865500
23.298500 3.850100
23.321100 3.857100
23.343700 3.858200
23.366300 3.840300
23.388900 3.826400
23.411500 3.838100
23.434100 3.844200
23.456600 3.832000
23.479200 3.787600
23.501800 3.775100
23.524400 3.752600
23.547000 3.693100
23.569600 3.625400
23.592100 3.537000
23.614700 3.488300
23.637300 3.532800
23.659900 3.606700
23.682500 3.644500
23.705100 3.639100
23.727700 3.647700
23.750200 3.628400
23.772800 3.567500
23.795400 3.499800
23.818000 3.419300
23.840600 3.502300
23.863200 3.355600
23.885800 3.251000
23.908300 3.172600
23.930900 3.107000
23.953500 2.992100
23.976100 3.049000
23.998700 2.969400
24.021300 2.923900
24.043800 2.769300
24.066400 2.768300
24.089000 2.809000
24.111600 2.850900
24.134200 2.873200
24.156800 2.876600
24.179400 2.911500
24.201900 2.899400
24.224500 2.864200
24.247100 2.956400
24.269700 2.900200
24.292300 2.930100
24.314900 2.973300
24.337500 3.008400
24.360000 3.041700
24.382600 3.073900
24.405200 3.130900
24.427800 3.180100
24.450400 3.230300
24.473000 3.241000
24.495500 3.320500
24.518100 3.396200
24.540700 3.506600
24.563300 3.627700
24.585900 3.777900
24.608500 3.876000
24.631100 3.925000
24.653600 3.922800
24.676200 3.960100
24.698800 4.054500
24.721400 3.927400
24.744000 3.902500
24.766600 3.883900
24.789200 3.852800
24.811700 3.807300
24.834300 3.725600
24.856900 3.688200
24.879500 3.709100
24.902100 3.810600
24.924700 3.933100
24.947200 3.890700
24.969800 3.924000
24.992400 3.959300
25.015000 3.983100
25.037600 4.069000
25.060200 4.240000
25.082800 4.441000
25.105300 4.521300
25.127900 4.564100
25.150500 4.601200
25.173100 4.667300
25.195700 4.588400
25.218300 4.538800
25.240900 4.517000
25.263400 4.334600
25.286000 4.316600
25.308600 4.039200
25.331200 3.931700
25.353800 3.803500
25.376400 3.764300
25.398900 3.777600
25.421500 3.713800
25.444100 3.815300
25.466700 3.834600
25.489300 3.769200
25.511900 3.663500
25.534500 3.598700
25.557000 3.545000
25.579600 3.458400
25.602200 3.422600
25.624800 3.392500
25.647400 3.379900
25.670000 3.357600
25.692600 3.325300
25.715100 3.287200
25.737700 3.068800
25.760300 2.882800
25.782900 2.751400
25.805500 2.673400
25.828100 2.594700
25.850600 2.507200
25.873200 2.407300
25.895800 2.276100
25.918400 2.191700
25.941000 2.113600
25.963600 1.983000
25.986200 1.897300
26.008700 1.815800
26.031300 1.735000
26.053900 1.657700
26.076500 1.595100
26.099100 1.538600
26.121700 1.478200
26.144300 1.415600
26.166800 1.367300
26.189400 1.304800
26.212000 1.226200
26.234600 1.157600
26.257200 1.096200
26.279800 1.037600
26.302300 0.985400
26.324900 0.937000
26.347500 0.890000
26.370100 0.848400
26.392700 0.811500
26.415300 0.777300
26.437900 0.746700
26.460400 0.719600
26.483000 0.697900
26.505600 0.682900
26.528200 0.667300
26.550800 0.586500
26.573400 0.553300
26.596000 0.526200
26.618500 0.497000
26.641100 0.461100
26.663700 0.426600
26.686300 0.390400
26.708900 0.352600
26.731500 0.312800
26.754000 0.272500
26.776600 0.237300
26.799200 0.203200
26.821800 0.172300
26.844400 0.147000
26.867000 0.128500
26.889600 0.113300
26.912100 0.100000
26.934700 0.087700
26.957300 0.076200
26.979900 0.065600
27.002500 0.055800
27.025100 0.046900
27.047700 0.038900
27.070200 0.031700
27.092800 0.025400
27.115400 0.019900
27.138000 0.015300
27.160600 0.011500
27.183200 0.008500
27.205800 0.005900
27.228300 0.003800
27.250900 0.002200
27.273500 0.001000
27.296100 0.000300
27.318700 0.000000
27.341300 0.000000
27.363800 0.000000
27.386400 0.000000
27.409000 0.000000
27.431600 0.000000
27.454200 0.000000
27.476800 0.000000
27.499400 0.000000
27.521900 0.000000
27.544500 0.000000
27.567100 0.000000
27.589700 0.000000
27.612300 0.000000
27.634900 0.000000
27.657500 0.000000
27.680000 0.000000
27.702600 0.000000
27.725200 0.000000
27.747800 0.000000
27.770400 0.000000
27.793000 0.000000
27.815500 0.000000
27.838100 0.000000
27.860700 0.000000
27.883300 0.000000
27.905900 0.000000
27.928500 0.000000
27.951100 0.000000
27.973600 0.000000
27.996200 0.000000
28.018800 0.000000
28.041400 0.000000
28.064000 0.000000
28.086600 0.000000
28.109200 0.000000
28.131700 0.000000
28.154300 0.000000
28.176900 0.000000
28.199500 0.000000
28.222100 0.000000
28.244700 0.000000
28.267200 0.000000
28.289800 0.000000
28.312400 0.000000
28.335000 0.000000
28.357600 0.000000
28.380200 0.000000
28.402800 0.000000
28.425300 0.000000
28.447900 0.000000
28.470500 0.000000
28.493100 0.000000
28.515700 0.000000
28.538300 0.000000
28.560900 0.000000
28.583400 0.000000
28.606000 0.000000
28.628600 0.000000
28.651200 0.000000
28.673800 0.000000
28.696400 0.000000
28.718900 0.000000
28.741500 0.000000
28.764100 0.000000
28.786700 0.000000
28.809300 0.000000
28.831900 0.000000
28.854500 0.000000
28.877000 0.000000
28.899600 0.000000
28.922200 0.000000
28.944800 0.000000
28.967400 0.000000
28.990000 0.000000
29.012600 0.000000
29.035100 0.000000
29.057700 0.000000
29.080300 0.000000
29.102900 0.000000
29.125500 0.000000
29.148100 0.000000
29.170600 0.000000
29.193200 0.000000
29.215800 0.000000
29.238400 0.000000
29.261000 0.000000
29.283600 0.000000
29.306200 0.000000
29.328700 0.000000
29.351300 0.000000
29.373900 0.000000
e
