set title 'mp-1077098 - Density of States'
set xlabel 'Energy (eV)'
set ylabel 'DOS (states/eV)'
set grid
set xrange [-10:10]
set yrange [0:109.338]
set xzeroaxis lt -1
set terminal png size 800,600
set output 'mp-1077098_dos_gnuplot.png'
plot '-' using 1:2 with lines title 'DOS'
-8.251900 0.000000
-8.237500 0.000000
-8.223100 0.000000
-8.208700 0.000000
-8.194300 0.000000
-8.179900 0.000000
-8.165600 0.000000
-8.151200 0.000000
-8.136800 0.000000
-8.122400 0.000000
-8.108000 0.000000
-8.093600 0.000000
-8.079300 0.000000
-8.064900 0.000000
-8.050500 0.000000
-8.036100 0.000000
-8.021700 0.000000
-8.007300 0.000000
-7.993000 0.000000
-7.978600 0.000000
-7.964200 0.000000
-7.949800 0.000000
-7.935400 0.000000
-7.921000 0.000000
-7.906700 0.000000
-7.892300 0.000000
-7.877900 0.000000
-7.863500 0.000000
-7.849100 0.000000
-7.834700 0.000000
-7.820400 0.000000
-7.806000 0.000000
-7.791600 0.000000
-7.777200 0.000000
-7.762800 0.000000
-7.748400 0.000000
-7.734100 0.000000
-7.719700 0.000000
-7.705300 0.000000
-7.690900 0.000000
-7.676500 0.000000
-7.662100 0.000000
-7.647800 0.000000
-7.633400 0.000000
-7.619000 0.000000
-7.604600 0.000000
-7.590200 0.000000
-7.575800 0.000000
-7.561500 0.000000
-7.547100 0.000000
-7.532700 0.000000
-7.518300 0.000000
-7.503900 0.000000
-7.489500 0.000000
-7.475200 0.000000
-7.460800 0.000000
-7.446400 0.000000
-7.432000 0.000000
-7.417600 0.000000
-7.403200 0.000000
-7.388900 0.000000
-7.374500 0.000000
-7.360100 0.000000
-7.345700 0.000000
-7.331300 0.000000
-7.317000 0.000000
-7.302600 0.000000
-7.288200 0.000000
-7.273800 0.000000
-7.259400 0.000000
-7.245000 0.000000
-7.230700 0.000000
-7.216300 0.000000
-7.201900 0.000000
-7.187500 0.000000
-7.173100 0.000000
-7.158700 0.000000
-7.144400 0.000000
-7.130000 0.000000
-7.115600 0.000000
-7.101200 0.000000
-7.086800 0.000000
-7.072400 0.000000
-7.058100 0.000000
-7.043700 0.000000
-7.029300 0.000000
-7.014900 0.000000
-7.000500 0.000000
-6.986100 0.000000
-6.971800 0.000000
-6.957400 0.000000
-6.943000 1.035800
-6.928600 1.612300
-6.914200 2.302300
-6.899800 3.105900
-6.885500 4.090200
-6.871100 6.914800
-6.856700 13.726900
-6.842300 24.706800
-6.827900 22.904300
-6.813500 18.266000
-6.799200 14.207000
-6.784800 12.378100
-6.770400 9.585100
-6.756000 6.147000
-6.741600 1.593500
-6.727200 11.328600
-6.712900 48.148700
-6.698500 41.204000
-6.684100 26.340400
-6.669700 8.973400
-6.655300 3.855400
-6.640900 1.723800
-6.626600 2.576900
-6.612200 4.677700
-6.597800 21.659900
-6.583400 29.707800
-6.569000 28.083500
-6.554600 44.957500
-6.540300 58.094300
-6.525900 34.148900
-6.511500 28.355600
-6.497100 15.987100
-6.482700 74.207500
-6.468300 43.781600
-6.454000 38.832900
-6.439600 51.297200
-6.425200 45.484100
-6.410800 44.573300
-6.396400 68.078500
-6.382000 45.198700
-6.367700 59.540200
-6.353300 66.335400
-6.338900 45.643200
-6.324500 48.576600
-6.310100 52.565000
-6.295700 26.929700
-6.281400 32.491100
-6.267000 70.849500
-6.252600 43.416700
-6.238200 77.791200
-6.223800 36.324900
-6.209400 28.365400
-6.195100 53.714700
-6.180700 51.094700
-6.166300 23.401000
-6.151900 37.723900
-6.137500 58.182600
-6.123100 40.613500
-6.108800 53.329200
-6.094400 46.611800
-6.080000 65.658400
-6.065600 45.646700
-6.051200 67.280700
-6.036800 71.085500
-6.022500 53.627100
-6.008100 54.579100
-5.993700 71.270800
-5.979300 64.892800
-5.964900 73.455600
-5.950500 78.466400
-5.936200 99.398200
-5.921800 72.818500
-5.907400 96.191400
-5.893000 77.158900
-5.878600 79.420000
-5.864300 60.137800
-5.849900 47.352600
-5.835500 93.235300
-5.821100 59.771000
-5.806700 49.177300
-5.792300 68.588700
-5.778000 45.842200
-5.763600 79.649900
-5.749200 35.683400
-5.734800 28.541200
-5.720400 51.477200
-5.706000 29.639100
-5.691700 36.508500
-5.677300 55.081400
-5.662900 72.991000
-5.648500 70.456400
-5.634100 67.157700
-5.619700 47.869600
-5.605400 35.423100
-5.591000 36.418400
-5.576600 37.490200
-5.562200 29.642300
-5.547800 19.577900
-5.533400 3.873800
-5.519100 3.435000
-5.504700 2.736500
-5.490300 2.578000
-5.475900 2.887200
-5.461500 3.776100
-5.447100 3.364300
-5.432800 3.029400
-5.418400 2.774400
-5.404000 2.599100
-5.389600 2.507600
-5.375200 2.540200
-5.360800 2.575700
-5.346500 2.614300
-5.332100 2.655800
-5.317700 2.700300
-5.303300 2.747800
-5.288900 2.798300
-5.274500 2.489200
-5.260200 2.485700
-5.245800 2.482000
-5.231400 2.619000
-5.217000 2.632300
-5.202600 2.381200
-5.188200 2.368400
-5.173900 2.353900
-5.159500 2.337700
-5.145100 2.319800
-5.130700 2.300300
-5.116300 2.279100
-5.101900 2.256300
-5.087600 2.233100
-5.073200 2.219800
-5.058800 2.208000
-5.044400 2.200300
-5.030000 2.189700
-5.015600 2.176400
-5.001300 2.160300
-4.986900 2.141400
-4.972500 2.119700
-4.958100 2.095300
-4.943700 2.068100
-4.929300 2.038100
-4.915000 2.005300
-4.900600 1.969800
-4.886200 1.931500
-4.871800 1.890400
-4.857400 1.566900
-4.843000 1.522100
-4.828700 1.595700
-4.814300 1.532200
-4.799900 1.218500
-4.785500 1.150600
-4.771100 1.082900
-4.756700 1.015200
-4.742400 0.952500
-4.728000 0.903100
-4.713600 0.854800
-4.699200 0.807700
-4.684800 0.761700
-4.670400 0.716900
-4.656100 0.673300
-4.641700 0.630900
-4.627300 1.245600
-4.612900 1.179900
-4.598500 1.115600
-4.584100 1.052800
-4.569800 0.991400
-4.555400 0.931600
-4.541000 0.912800
-4.526600 0.932100
-4.512200 1.161900
-4.497800 1.278800
-4.483500 1.410800
-4.469100 1.558000
-4.454700 1.720200
-4.440300 1.897600
-4.425900 2.057300
-4.411600 2.198000
-4.397200 2.335200
-4.382800 2.469000
-4.368400 2.599300
-4.354000 2.726100
-4.339600 4.295400
-4.325300 2.512400
-4.310900 2.529300
-4.296500 2.546900
-4.282100 2.565100
-4.267700 2.584000
-4.253300 2.603500
-4.239000 2.623700
-4.224600 2.644600
-4.210200 2.749600
-4.195800 2.874400
-4.181400 2.999200
-4.167000 3.124000
-4.152700 3.248700
-4.138300 3.373300
-4.123900 3.501600
-4.109500 3.636400
-4.095100 3.775500
-4.080700 2.729000
-4.066400 2.714100
-4.052000 2.724200
-4.037600 2.759500
-4.023200 2.819800
-4.008800 2.115000
-3.994400 2.011900
-3.980100 1.928100
-3.965700 1.981300
-3.951300 1.869900
-3.936900 1.766200
-3.922500 1.670100
-3.908100 1.581700
-3.893800 1.500900
-3.879400 1.427800
-3.865000 1.262100
-3.850600 1.217900
-3.836200 1.174800
-3.821800 1.132900
-3.807500 1.092300
-3.793100 1.052800
-3.778700 1.014500
-3.764300 0.977400
-3.749900 0.941500
-3.735500 0.906700
-3.721200 0.873500
-3.706800 0.854600
-3.692400 0.843400
-3.678000 0.840100
-3.663600 0.844500
-3.649200 0.856700
-3.634900 0.876600
-3.620500 0.941800
-3.606100 1.023600
-3.591700 1.115500
-3.577300 1.235100
-3.562900 1.353700
-3.548600 1.471400
-3.534200 1.588200
-3.519800 1.701500
-3.505400 1.805600
-3.491000 1.910500
-3.476600 2.016200
-3.462300 2.122700
-3.447900 2.229900
-3.433500 1.315900
-3.419100 1.351300
-3.404700 1.386300
-3.390300 1.420800
-3.376000 1.454700
-3.361600 1.488100
-3.347200 1.521000
-3.332800 1.553400
-3.318400 1.585300
-3.304000 1.616600
-3.289700 1.647500
-3.275300 2.016700
-3.260900 2.179000
-3.246500 2.469200
-3.232100 2.415600
-3.217700 2.359300
-3.203400 2.300200
-3.189000 2.238400
-3.174600 2.173800
-3.160200 2.106600
-3.145800 2.036600
-3.131400 1.987700
-3.117100 1.966000
-3.102700 1.953600
-3.088300 1.975000
-3.073900 1.997700
-3.059500 1.927800
-3.045100 1.957100
-3.030800 1.988100
-3.016400 2.020900
-3.002000 2.055300
-2.987600 2.091500
-2.973200 2.129400
-2.958900 2.168900
-2.944500 2.210300
-2.930100 2.253300
-2.915700 2.298000
-2.901300 2.344500
-2.886900 2.392600
-2.872600 2.451000
-2.858200 2.512900
-2.843800 2.694100
-2.829400 2.698900
-2.815000 2.705200
-2.800600 3.144600
-2.786300 2.953400
-2.771900 2.900800
-2.757500 3.770200
-2.743100 3.516500
-2.728700 3.278600
-2.714300 3.056600
-2.700000 2.866000
-2.685600 2.683700
-2.671200 2.501700
-2.656800 2.329600
-2.642400 2.334800
-2.628000 2.344900
-2.613700 2.359800
-2.599300 2.508000
-2.584900 2.579300
-2.570500 2.608500
-2.556100 2.595700
-2.541700 2.582500
-2.527400 2.569000
-2.513000 2.555100
-2.498600 2.540800
-2.484200 2.526100
-2.469800 2.511100
-2.455400 2.495700
-2.441100 2.479900
-2.426700 2.468500
-2.412300 2.459700
-2.397900 2.450700
-2.383500 2.441600
-2.369100 2.432500
-2.354800 2.423200
-2.340400 2.413700
-2.326000 2.404200
-2.311600 2.394500
-2.297200 2.384700
-2.282800 2.374800
-2.268500 2.366900
-2.254100 2.358700
-2.239700 2.195700
-2.225300 2.183700
-2.210900 2.171400
-2.196500 2.158900
-2.182200 2.146200
-2.167800 2.133200
-2.153400 2.119900
-2.139000 2.106400
-2.124600 2.092600
-2.110200 2.078500
-2.095900 2.064300
-2.081500 2.074000
-2.067100 2.087500
-2.052700 2.102400
-2.038300 2.118800
-2.023900 2.167000
-2.009600 3.155800
-1.995200 3.220000
-1.980800 3.269600
-1.966400 3.304600
-1.952000 3.324900
-1.937600 3.330500
-1.923300 3.321600
-1.908900 3.298000
-1.894500 3.212300
-1.880100 2.952600
-1.865700 2.630100
-1.851300 2.013200
-1.837000 1.624200
-1.822600 1.396000
-1.808200 1.405100
-1.793800 1.483900
-1.779400 1.567600
-1.765000 1.656100
-1.750700 1.749500
-1.736300 1.847700
-1.721900 2.147800
-1.707500 2.243300
-1.693100 2.184600
-1.678700 2.252900
-1.664400 2.707700
-1.650000 2.813800
-1.635600 2.933100
-1.621200 3.065700
-1.606800 3.211600
-1.592400 3.370800
-1.578100 3.268200
-1.563700 3.408500
-1.549300 3.942100
-1.534900 3.998800
-1.520500 4.051000
-1.506200 4.098700
-1.491800 4.000600
-1.477400 4.079800
-1.463000 4.161100
-1.448600 4.244200
-1.434200 4.626100
-1.419900 4.895000
-1.405500 5.713100
-1.391100 5.701200
-1.376700 5.694900
-1.362300 5.693900
-1.347900 5.698500
-1.333600 5.708500
-1.319200 5.724000
-1.304800 5.745000
-1.290400 5.771400
-1.276000 6.657700
-1.261600 8.702000
-1.247300 12.439700
-1.232900 6.998500
-1.218500 7.783000
-1.204100 5.440800
-1.189700 3.096900
-1.175300 3.393200
-1.161000 5.791400
-1.146600 4.774000
-1.132200 4.258100
-1.117800 4.437900
-1.103400 4.606600
-1.089000 4.764200
-1.074700 4.910700
-1.060300 7.413400
-1.045900 4.491400
-1.031500 4.391800
-1.017100 4.272000
-1.002700 4.281300
-0.988400 4.280200
-0.974000 4.498000
-0.959600 7.281600
-0.945200 3.470700
-0.930800 2.921300
-0.916400 2.408600
-0.902100 1.932600
-0.887700 1.493300
-0.873300 1.090700
-0.858900 0.724900
-0.844500 0.395800
-0.830100 0.103400
-0.815800 0.000000
-0.801400 0.000000
-0.787000 0.000000
-0.772600 0.000000
-0.758200 0.000000
-0.743800 0.000000
-0.729500 0.000000
-0.715100 0.000000
-0.700700 0.000000
-0.686300 0.000000
-0.671900 0.000000
-0.657500 0.000000
-0.643200 0.000000
-0.628800 0.000000
-0.614400 0.000000
-0.600000 0.000000
-0.585600 0.000000
-0.571200 0.000000
-0.556900 0.000000
-0.542500 0.000000
-0.528100 0.000000
-0.513700 0.000000
-0.499300 0.000000
-0.484900 0.000000
-0.470600 0.000000
-0.456200 0.000000
-0.441800 0.000000
-0.427400 0.000000
-0.413000 0.000000
-0.398600 0.000000
-0.384300 0.000000
-0.369900 0.000000
-0.355500 0.000000
-0.341100 0.000000
-0.326700 0.000000
-0.312300 0.000000
-0.298000 0.000000
-0.283600 0.000000
-0.269200 0.000000
-0.254800 0.000000
-0.240400 0.000000
-0.226000 0.000000
-0.211700 0.000000
-0.197300 0.000000
-0.182900 0.000000
-0.168500 0.000000
-0.154100 0.000000
-0.139700 0.000000
-0.125400 0.000000
-0.111000 0.000000
-0.096600 0.000000
-0.082200 0.000000
-0.067800 0.000000
-0.053500 0.000000
-0.039100 0.000000
-0.024700 0.000000
-0.010300 0.000000
0.004100 0.000000
0.018500 0.000000
0.032800 0.000000
0.047200 0.000000
0.061600 0.000000
0.076000 0.000000
0.090400 0.000000
0.104800 0.000000
0.119100 0.000000
0.133500 0.000000
0.147900 0.000000
0.162300 0.000000
0.176700 0.000000
0.191100 0.000000
0.205400 0.000000
0.219800 0.000000
0.234200 0.000000
0.248600 0.000000
0.263000 0.000000
0.277400 0.000000
0.291700 0.000000
0.306100 0.000000
0.320500 0.000000
0.334900 0.000000
0.349300 0.000000
0.363700 0.000000
0.378000 0.000000
0.392400 0.000000
0.406800 0.000000
0.421200 0.000000
0.435600 0.000000
0.450000 0.000000
0.464300 0.000000
0.478700 0.000000
0.493100 0.000000
0.507500 0.000000
0.521900 0.000000
0.536300 0.000000
0.550600 0.000000
0.565000 0.000000
0.579400 0.000000
0.593800 0.000000
0.608200 0.000000
0.622600 0.000000
0.636900 0.000000
0.651300 0.004200
0.665700 0.039600
0.680100 0.078100
0.694500 0.119600
0.708900 0.164100
0.723200 0.211700
0.737600 0.262300
0.752000 0.315900
0.766400 0.372500
0.780800 0.432200
0.795200 0.494900
0.809500 0.560600
0.823900 3.343700
0.838300 1.964200
0.852700 2.196800
0.867100 2.432400
0.881500 2.671100
0.895800 2.912600
0.910200 3.157200
0.924600 3.404800
0.939000 3.618100
0.953400 3.891400
0.967800 6.139700
0.982100 5.946400
0.996500 6.177600
1.010900 6.425500
1.025300 6.398400
1.039700 6.482900
1.054100 6.555500
1.068400 5.940000
1.082800 5.809800
1.097200 5.607600
1.111600 5.409100
1.126000 5.176600
1.140400 4.910100
1.154700 4.609700
1.169100 4.075900
1.183500 3.816000
1.197900 3.562400
1.212300 3.315200
1.226700 3.987100
1.241000 1.701600
1.255400 1.901000
1.269800 2.473600
1.284200 4.627400
1.298600 3.221600
1.313000 3.209900
1.327300 3.406900
1.341700 3.346900
1.356100 3.273300
1.370500 3.186300
1.384900 3.085900
1.399200 3.104800
1.413600 3.181700
1.428000 3.252400
1.442400 3.330800
1.456800 3.515800
1.471200 3.480800
1.485500 3.445600
1.499900 3.410000
1.514300 3.374300
1.528700 3.338300
1.543100 3.302000
1.557500 3.265500
1.571800 3.228800
1.586200 3.191700
1.600600 3.152400
1.615000 3.081600
1.629400 3.002600
1.643800 2.915200
1.658100 2.819600
1.672500 2.715600
1.686900 2.607100
1.701300 2.531800
1.715700 2.458500
1.730100 2.387300
1.744400 2.318000
1.758800 2.536600
1.773200 2.796900
1.787600 3.074100
1.802000 3.613600
1.816400 4.380300
1.830700 5.528400
1.845100 4.760300
1.859500 4.180000
1.873900 3.889100
1.888300 4.072100
1.902700 4.358600
1.917000 4.540900
1.931400 4.850300
1.945800 5.158000
1.960200 5.464000
1.974600 5.652600
1.989000 5.959500
2.003300 6.565200
2.017700 5.929200
2.032100 5.181300
2.046500 4.337900
2.060900 3.977400
2.075300 3.643300
2.089600 3.335800
2.104000 2.819400
2.118400 2.635800
2.132800 2.594700
2.147200 2.442500
2.161600 2.308900
2.175900 2.209500
2.190300 2.117700
2.204700 2.033500
2.219100 1.956900
2.233500 1.887900
2.247900 1.826500
2.262200 1.789700
2.276600 1.785900
2.291000 1.785300
2.305400 1.787700
2.319800 1.793300
2.334200 1.801900
2.348500 3.746600
2.362900 4.381600
2.377300 5.136500
2.391700 3.596200
2.406100 3.765100
2.420500 3.907800
2.434800 4.024400
2.449200 4.114800
2.463600 4.179000
2.478000 4.294800
2.492400 4.548600
2.506800 4.637400
2.521100 4.695800
2.535500 4.723500
2.549900 4.720800
2.564300 4.687500
2.578700 3.175400
2.593100 3.162800
2.607400 3.012200
2.621800 2.954400
2.636200 2.926300
2.650600 2.899900
2.665000 2.875200
2.679400 2.759100
2.693700 2.744000
2.708100 2.730400
2.722500 2.718400
2.736900 2.707900
2.751300 2.699000
2.765700 2.691500
2.780000 2.685700
2.794400 2.691000
2.808800 2.699300
2.823200 2.709800
2.837600 2.722700
2.851900 2.737800
2.866300 2.755200
2.880700 2.774900
2.895100 2.802500
2.909500 2.719800
2.923900 2.681800
2.938200 2.761500
2.952600 2.907100
2.967000 3.114900
2.981400 3.389200
2.995800 3.353200
3.010200 3.481300
3.024500 3.531200
3.038900 3.582700
3.053300 3.635800
3.067700 3.690700
3.082100 3.747200
3.096500 3.805400
3.110800 3.865300
3.125200 3.926900
3.139600 3.990100
3.154000 3.769700
3.168400 3.839600
3.182800 3.912500
3.197100 3.988400
3.211500 4.119300
3.225900 4.281200
3.240300 4.210600
3.254700 4.784200
3.269100 6.074800
3.283400 5.757300
3.297800 4.967600
3.312200 4.118200
3.326600 4.178700
3.341000 4.251300
3.355400 3.910800
3.369700 3.954900
3.384100 3.993400
3.398500 3.592900
3.412900 3.715100
3.427300 3.760500
3.441700 3.425700
3.456000 3.487000
3.470400 3.550600
3.484800 3.616600
3.499200 3.788200
3.513600 3.824800
3.528000 3.859700
3.542300 3.892900
3.556700 3.940700
3.571100 4.643600
3.585500 4.659000
3.599900 5.802200
3.614300 5.631200
3.628600 5.460400
3.643000 7.500500
3.657400 6.665900
3.671800 5.787800
3.686200 4.866400
3.700600 3.960400
3.714900 3.883200
3.729300 3.806900
3.743700 3.731500
3.758100 3.657100
3.772500 3.583600
3.786900 3.509100
3.801200 3.434000
3.815600 3.360500
3.830000 3.288700
3.844400 3.218400
3.858800 2.829100
3.873200 2.812200
3.887500 2.798200
3.901900 2.787000
3.916300 2.778600
3.930700 2.773000
3.945100 2.770300
3.959500 2.770300
3.973800 2.773300
3.988200 2.779000
4.002600 2.918200
4.017000 3.103500
4.031400 3.322800
4.045800 3.699700
4.060100 3.894300
4.074500 4.083600
4.088900 4.267500
4.103300 4.446100
4.117700 4.733000
4.132100 5.429900
4.146400 4.868700
4.160800 4.747100
4.175200 4.624300
4.189600 4.500400
4.204000 4.375300
4.218400 4.249000
4.232700 4.121600
4.247100 3.993100
4.261500 3.863300
4.275900 3.716900
4.290300 3.524300
4.304600 3.323400
4.319000 4.403400
4.333400 5.529600
4.347800 6.315700
4.362200 4.198600
4.376600 4.021100
4.390900 3.872800
4.405300 3.753700
4.419700 3.663800
4.434100 3.603000
4.448500 3.580200
4.462900 3.582200
4.477200 3.782400
4.491600 3.778600
4.506000 3.772100
4.520400 3.607200
4.534800 3.587200
4.549200 3.741200
4.563500 3.911400
4.577900 4.063300
4.592300 3.984000
4.606700 3.775100
4.621100 3.575800
4.635500 3.543000
4.649800 3.402200
4.664200 3.285400
4.678600 3.198900
4.693000 2.770100
4.707400 2.813300
4.721800 2.856000
4.736100 2.898300
4.750500 2.940100
4.764900 2.981500
4.779300 3.022400
4.793700 3.049200
4.808100 3.070100
4.822400 3.091000
4.836800 3.115100
4.851200 3.151300
4.865600 3.195700
4.880000 3.248400
4.894400 3.321900
4.908700 3.441100
4.923100 3.558700
4.937500 3.675700
4.951900 8.209800
4.966300 4.697600
4.980700 4.841600
4.995000 5.059500
5.009400 5.258600
5.023800 5.416700
5.038200 5.533500
5.052600 5.609300
5.067000 5.643900
5.081300 4.867400
5.095700 5.462500
5.110100 5.181500
5.124500 4.767300
5.138900 4.497700
5.153300 4.235300
5.167600 3.981500
5.182000 3.730700
5.196400 3.477000
5.210800 3.220300
5.225200 3.017800
5.239600 2.995900
5.253900 3.751500
5.268300 4.155300
5.282700 4.095300
5.297100 3.795500
5.311500 3.607500
5.325900 3.430700
5.340200 3.265000
5.354600 3.110500
5.369000 2.967100
5.383400 2.834900
5.397800 2.713900
5.412200 2.604000
5.426500 2.746800
5.440900 2.616000
5.455300 3.063700
5.469700 2.949100
5.484100 2.850000
5.498500 2.773200
5.512800 2.719600
5.527200 2.678200
5.541600 2.659600
5.556000 2.639000
5.570400 2.621300
5.584800 2.620300
5.599100 2.619500
5.613500 3.263500
5.627900 3.221500
5.642300 3.178800
5.656700 3.132500
5.671100 3.082500
5.685400 3.028900
5.699800 3.021600
5.714200 3.077300
5.728600 3.084900
5.743000 3.093100
5.757300 3.555700
5.771700 3.613400
5.786100 3.601200
5.800500 3.519200
5.814900 3.367200
5.829300 2.860100
5.843600 2.723900
5.858000 2.615000
5.872400 2.533300
5.886800 2.479000
5.901200 2.451900
5.915600 2.498400
5.929900 2.555000
5.944300 2.612400
5.958700 2.799800
5.973100 3.054900
5.987500 3.327200
6.001900 3.459700
6.016200 3.682800
6.030600 3.943400
6.045000 4.206900
6.059400 4.723300
6.073800 4.910500
6.088200 5.112000
6.102500 5.310400
6.116900 5.602200
6.131300 5.800900
6.145700 5.996800
6.160100 6.189900
6.174500 6.380200
6.188800 6.567700
6.203200 6.102800
6.217600 6.767000
6.232000 6.010900
6.246400 5.228300
6.260800 4.407000
6.275100 3.855600
6.289500 3.700500
6.303900 3.384000
6.318300 3.342900
6.332700 3.300000
6.347100 3.256200
6.361400 3.211500
6.375800 3.166000
6.390200 3.119700
6.404600 3.072500
6.419000 3.024400
6.433400 2.999900
6.447700 3.034100
6.462100 3.174000
6.476500 5.072300
6.490900 6.386800
6.505300 4.392800
6.519700 4.132600
6.534000 4.090300
6.548400 3.319700
6.562800 3.193200
6.577200 3.123900
6.591600 3.154800
6.606000 3.215500
6.620300 3.284200
6.634700 3.356800
6.649100 3.437400
6.663500 3.526800
6.677900 3.624900
6.692300 3.731800
6.706600 3.847500
6.721000 3.972000
6.735400 4.114100
6.749800 4.261700
6.764200 4.409700
6.778600 4.624000
6.792900 4.884000
6.807300 5.149000
6.821700 4.719300
6.836100 5.154200
6.850500 5.549900
6.864900 5.514200
6.879200 5.541500
6.893600 6.437400
6.908000 4.798500
6.922400 4.626000
6.936800 4.458300
6.951200 4.295400
6.965500 4.137300
6.979900 3.984000
6.994300 3.835400
7.008700 3.630500
7.023100 3.581300
7.037500 3.630400
7.051800 4.454500
7.066200 4.623600
7.080600 4.757000
7.095000 5.228300
7.109400 5.254200
7.123800 5.080200
7.138100 4.910900
7.152500 4.800300
7.166900 4.709700
7.181300 4.636400
7.195700 4.541800
7.210000 4.395800
7.224400 4.211000
7.238800 4.044100
7.253200 3.877600
7.267600 3.718000
7.282000 3.565100
7.296300 3.419100
7.310700 3.280000
7.325100 3.147700
7.339500 2.627200
7.353900 2.447000
7.368300 2.474700
7.382600 2.423500
7.397000 2.379300
7.411400 2.342100
7.425800 2.312000
7.440200 2.308200
7.454600 2.310900
7.468900 2.315800
7.483300 2.322900
7.497700 2.332200
7.512100 2.343800
7.526500 3.092300
7.540900 3.048000
7.555200 3.015700
7.569600 2.989700
7.584000 2.969800
7.598400 2.956100
7.612800 2.995100
7.627200 3.110800
7.641500 3.238000
7.655900 3.376900
7.670300 3.527500
7.684700 3.689700
7.699100 4.321000
7.713500 5.125100
7.727800 5.262600
7.742200 6.752200
7.756600 7.144900
7.771000 6.347200
7.785400 5.248200
7.799800 4.343400
7.814100 3.418000
7.828500 5.285400
7.842900 5.063700
7.857300 4.774600
7.871700 4.696800
7.886100 4.285800
7.900400 4.084600
7.914800 3.999900
7.929200 3.905300
7.943600 3.801000
7.958000 3.686800
7.972400 3.576100
7.986700 3.465000
8.001100 3.496100
8.015500 3.345600
8.029900 3.208200
8.044300 3.519500
8.058700 3.534500
8.073000 3.969800
8.087400 4.023800
8.101800 3.948100
8.116200 3.886300
8.130600 3.838500
8.145000 3.804600
8.159300 3.784600
8.173700 3.778600
8.188100 3.786500
8.202500 3.808400
8.216900 3.755400
8.231300 3.811400
8.245600 3.880800
8.260000 3.963700
8.274400 4.060100
8.288800 4.165400
8.303200 4.277600
8.317600 5.271800
8.331900 7.102800
8.346300 4.952100
8.360700 5.333800
8.375100 5.564000
8.389500 5.192900
8.403900 4.917500
8.418200 4.714900
8.432600 4.578200
8.447000 6.687400
8.461400 4.611300
8.475800 4.420900
8.490200 4.272300
8.504500 4.626800
8.518900 4.485900
8.533300 4.380800
8.547700 4.497300
8.562100 4.419100
8.576500 5.008900
8.590800 5.995400
8.605200 3.950300
8.619600 3.895800
8.634000 3.887200
8.648400 3.678700
8.662700 3.733500
8.677100 3.790000
8.691500 3.848200
8.705900 4.290800
8.720300 4.293900
8.734700 4.297000
8.749000 4.300100
8.763400 4.303200
8.777800 4.306200
8.792200 4.309300
8.806600 4.312300
8.821000 4.315300
8.835300 4.318300
8.849700 4.321200
8.864100 5.107100
8.878500 5.653900
8.892900 7.105100
8.907300 8.185200
8.921600 9.574500
8.936000 6.992400
8.950400 5.895200
8.964800 5.075500
8.979200 4.567000
8.993600 3.800900
9.007900 3.783100
9.022300 3.775900
9.036700 3.779400
9.051100 4.368800
9.065500 4.354400
9.079900 4.330400
9.094200 4.537700
9.108600 4.797200
9.123000 5.064600
9.137400 5.326800
9.151800 5.586400
9.166200 5.929400
9.180500 5.505100
9.194900 5.783600
9.209300 5.725500
9.223700 5.633200
9.238100 5.746300
9.252500 5.877000
9.266800 6.010800
9.281200 7.551800
9.295600 5.028500
9.310000 4.942800
9.324400 4.862500
9.338800 5.793600
9.353100 5.271600
9.367500 4.784600
9.381900 4.332600
9.396300 4.200900
9.410700 4.112700
9.425100 4.264900
9.439400 4.285000
9.453800 4.289300
9.468200 4.169500
9.482600 3.995900
9.497000 3.966300
9.511400 3.942200
9.525700 3.923400
9.540100 3.910100
9.554500 3.902200
9.568900 3.899600
9.583300 3.902500
9.597700 4.010300
9.612000 4.522000
9.626400 5.100300
9.640800 4.108000
9.655200 4.027700
9.669600 3.961900
9.684000 3.910400
9.698300 3.890600
9.712700 4.142100
9.727100 4.465100
9.741500 4.917000
9.755900 5.536400
9.770300 5.392600
9.784600 5.353800
9.799000 5.319300
9.813400 5.061400
9.827800 5.111000
9.842200 5.042400
9.856600 5.007800
9.870900 5.086500
9.885300 5.212500
9.899700 5.327700
9.914100 5.428100
9.928500 5.522700
9.942900 5.611300
9.957200 5.547500
9.971600 6.055100
9.986000 6.161000
10.000400 6.260800
10.014800 6.354600
10.029200 6.169300
10.043500 6.352700
10.057900 6.200700
10.072300 6.400300
10.086700 6.615900
10.101100 6.847400
10.115400 6.181500
10.129800 5.277200
10.144200 4.581500
10.158600 4.486900
10.173000 4.399200
10.187400 4.318400
10.201700 4.244500
10.216100 4.177400
10.230500 3.911300
10.244900 3.832200
10.259300 3.761700
10.273700 3.559500
10.288000 3.550600
10.302400 3.545000
10.316800 3.542800
10.331200 3.887700
10.345600 4.097700
10.360000 4.339500
10.374300 4.611700
10.388700 4.913500
10.403100 5.194500
10.417500 5.488200
10.431900 5.794600
10.446300 5.256100
10.460600 5.283000
10.475000 5.265600
10.489400 5.319700
10.503800 5.088600
10.518200 4.707100
10.532600 3.907800
10.546900 3.950000
10.561300 3.593500
10.575700 3.382500
10.590100 3.526200
10.604500 4.054000
10.618900 4.522800
10.633200 5.084600
10.647600 6.371900
10.662000 6.654600
10.676400 6.336700
10.690800 6.035900
10.705200 5.752100
10.719500 5.521300
10.733900 5.392900
10.748300 5.276500
10.762700 5.172100
10.777100 5.079700
10.791500 5.438500
10.805800 5.516800
10.820200 5.599100
10.834600 5.685400
10.849000 4.892600
10.863400 4.851400
10.877800 4.815600
10.892100 4.772900
10.906500 4.733900
10.920900 4.700600
10.935300 4.679400
10.949700 4.673100
10.964100 4.665900
10.978400 4.671500
10.992800 4.770500
11.007200 4.951600
11.021600 5.168100
11.036000 5.420200
11.050400 5.535600
11.064700 5.769300
11.079100 5.989700
11.093500 6.196600
11.107900 6.397000
11.122300 6.526800
11.136700 6.363200
11.151000 6.647200
11.165400 5.409000
11.179800 5.506800
11.194200 5.844900
11.208600 5.910700
11.223000 5.980800
11.237300 5.933200
11.251700 7.451900
11.266100 7.153400
11.280500 6.854500
11.294900 6.555300
11.309300 6.177700
11.323600 5.900900
11.338000 5.629100
11.352400 5.362500
11.366800 6.048800
11.381200 5.547200
11.395600 5.213000
11.409900 4.865200
11.424300 4.801300
11.438700 4.760700
11.453100 4.771300
11.467500 4.793500
11.481900 4.847500
11.496200 4.807300
11.510600 5.075600
11.525000 5.301200
11.539400 5.164500
11.553800 5.062500
11.568100 4.877000
11.582500 4.499300
11.596900 4.406700
11.611300 3.435100
11.625700 3.489400
11.640100 3.551100
11.654400 3.618700
11.668800 3.690800
11.683200 4.651900
11.697600 4.284800
11.712000 4.278200
11.726400 4.179200
11.740700 4.265400
11.755100 4.357000
11.769500 4.714100
11.783900 4.684400
11.798300 4.668200
11.812700 4.665600
11.827000 4.676500
11.841400 4.701000
11.855800 4.739100
11.870200 4.829900
11.884600 8.884500
11.899000 5.422900
11.913300 6.125800
11.927700 6.682600
11.942100 8.341700
11.956500 7.297500
11.970900 6.330100
11.985300 6.267300
11.999600 6.009000
12.014000 5.786900
12.028400 5.358600
12.042800 5.308300
12.057200 5.245400
12.071600 5.169800
12.085900 5.264300
12.100300 5.185200
12.114700 5.520500
12.129100 6.127400
12.143500 6.828400
12.157900 7.040500
12.172200 7.286300
12.186600 7.565700
12.201000 7.056500
12.215400 6.961500
12.229800 6.869800
12.244200 7.329200
12.258500 8.349200
12.272900 6.978100
12.287300 5.945300
12.301700 5.641900
12.316100 5.514000
12.330500 5.384900
12.344800 5.254600
12.359200 5.123200
12.373600 4.990600
12.388000 4.436000
12.402400 4.333300
12.416800 4.257700
12.431100 4.232100
12.445500 4.470000
12.459900 4.554000
12.474300 4.937700
12.488700 5.523300
12.503100 5.765500
12.517400 5.983800
12.531800 6.178200
12.546200 6.348800
12.560600 6.508000
12.575000 6.707400
12.589400 6.933700
12.603700 7.109600
12.618100 6.796300
12.632500 7.121500
12.646900 6.677000
12.661300 6.609800
12.675700 6.494600
12.690000 6.715500
12.704400 6.623100
12.718800 7.369600
12.733200 6.486200
12.747600 5.847900
12.762000 5.680100
12.776300 5.481100
12.790700 5.106900
12.805100 4.988100
12.819500 4.890600
12.833900 4.942400
12.848300 5.212500
12.862600 5.528300
12.877000 5.636400
12.891400 5.678800
12.905800 6.498300
12.920200 7.385600
12.934600 6.999500
12.948900 9.538600
12.963300 7.168500
12.977700 6.625900
12.992100 6.279200
13.006500 5.907500
13.020800 5.705200
13.035200 5.643900
13.049600 5.659900
13.064000 5.444600
13.078400 5.238500
13.092800 5.457200
13.107100 5.886800
13.121500 5.656400
13.135900 5.501500
13.150300 5.361600
13.164700 5.231900
13.179100 5.128300
13.193400 5.030000
13.207800 4.995300
13.222200 4.965800
13.236600 4.952700
13.251000 4.975800
13.265400 5.174500
13.279700 5.208100
13.294100 5.238500
13.308500 5.265800
13.322900 5.289900
13.337300 5.465200
13.351700 5.813800
13.366000 6.173500
13.380400 6.533400
13.394800 5.724700
13.409200 5.715800
13.423600 5.700600
13.438000 5.679000
13.452300 5.651100
13.466700 5.623000
13.481100 7.173200
13.495500 10.513000
13.509900 15.346800
13.524300 10.722700
13.538600 6.766300
13.553000 6.360500
13.567400 6.084000
13.581800 11.978500
13.596200 5.567400
13.610600 5.457800
13.624900 5.363800
13.639300 4.938200
13.653700 5.094700
13.668100 4.698400
13.682500 5.089800
13.696900 4.503200
13.711200 4.467100
13.725600 4.435100
13.740000 4.407200
13.754400 4.383300
13.768800 4.363600
13.783200 4.347900
13.797500 4.336300
13.811900 4.328700
13.826300 4.423000
13.840700 4.459600
13.855100 4.505000
13.869500 4.711100
13.883800 4.782500
13.898200 4.646300
13.912600 4.911700
13.927000 4.926500
13.941400 4.942700
13.955800 4.955200
13.970100 4.962200
13.984500 4.951000
13.998900 4.357200
14.013300 4.391100
14.027700 4.348500
14.042100 4.307200
14.056400 4.267100
14.070800 4.228200
14.085200 4.195400
14.099600 4.165300
14.114000 4.136300
14.128400 4.108400
14.142700 4.081600
14.157100 4.055900
14.171500 4.031300
14.185900 4.007800
14.200300 4.015400
14.214700 4.051000
14.229000 4.097200
14.243400 4.154500
14.257800 4.280000
14.272200 4.699500
14.286600 5.829500
14.301000 6.355100
14.315300 6.523300
14.329700 6.405100
14.344100 5.255300
14.358500 5.435200
14.372900 5.346500
14.387300 5.888300
14.401600 5.764000
14.416000 5.678500
14.430400 5.646000
14.444800 5.624400
14.459200 5.614400
14.473500 5.616100
14.487900 6.262300
14.502300 6.156400
14.516700 5.900200
14.531100 5.733200
14.545500 5.598200
14.559800 5.529800
14.574200 5.575700
14.588600 5.752400
14.603000 5.900600
14.617400 6.305500
14.631800 6.459900
14.646100 6.018600
14.660500 6.009500
14.674900 6.000800
14.689300 6.008200
14.703700 6.020400
14.718100 6.030900
14.732400 6.334800
14.746800 6.469800
14.761200 7.096500
14.775600 8.353500
14.790000 9.627500
14.804400 9.976200
14.818700 8.567200
14.833100 7.260600
14.847500 6.666600
14.861900 6.514400
14.876300 6.662800
14.890700 6.752400
14.905000 6.824400
14.919400 6.878700
14.933800 7.009500
14.948200 7.276500
14.962600 7.582300
14.977000 7.850000
14.991300 7.601600
15.005700 7.261200
15.020100 7.268300
15.034500 6.761600
15.048900 6.952600
15.063300 6.951500
15.077600 6.431600
15.092000 6.256400
15.106400 7.276600
15.120800 6.746900
15.135200 6.252900
15.149600 5.886000
15.163900 5.816600
15.178300 5.761500
15.192700 5.897800
15.207100 5.857400
15.221500 5.829200
15.235900 20.339600
15.250200 5.533300
15.264600 5.435900
15.279000 5.437200
15.293400 5.453300
15.307800 5.535400
15.322200 5.618500
15.336500 5.702700
15.350900 5.787900
15.365300 5.874100
15.379700 5.961400
15.394100 6.049800
15.408500 6.139200
15.422800 6.229600
15.437200 5.843200
15.451600 6.357200
15.466000 6.388200
15.480400 6.107200
15.494800 6.020800
15.509100 5.939200
15.523500 5.862200
15.537900 7.336500
15.552300 7.345300
15.566700 7.415300
15.581100 7.407100
15.595400 7.320700
15.609800 7.167500
15.624200 7.191100
15.638600 7.215600
15.653000 7.224500
15.667400 7.666200
15.681700 7.682800
15.696100 7.265100
15.710500 6.825600
15.724900 6.379400
15.739300 6.659200
15.753700 6.131900
15.768000 5.759700
15.782400 5.419200
15.796800 5.116200
15.811200 4.685200
15.825600 4.607700
15.840000 4.543400
15.854300 4.492300
15.868700 4.470300
15.883100 4.477700
15.897500 4.491900
15.911900 4.200000
15.926200 4.225500
15.940600 4.309700
15.955000 4.694900
15.969400 4.774600
15.983800 4.870200
15.998200 4.977800
16.012500 5.108300
16.026900 5.260800
16.041300 4.771700
16.055700 4.793000
16.070100 4.805300
16.084500 4.808600
16.098800 4.802800
16.113200 5.086600
16.127600 5.029300
16.142000 4.959800
16.156400 4.907100
16.170800 4.881700
16.185100 4.927700
16.199500 4.934500
16.213900 4.950400
16.228300 4.975300
16.242700 5.009400
16.257100 5.056100
16.271400 5.346000
16.285800 5.357600
16.300200 5.396100
16.314600 5.467400
16.329000 5.538900
16.343400 5.612000
16.357700 5.428700
16.372100 5.501000
16.386500 5.235100
16.400900 4.956000
16.415300 5.028400
16.429700 5.012200
16.444000 4.976400
16.458400 4.832600
16.472800 4.786900
16.487200 4.776000
16.501600 4.673300
16.516000 4.707500
16.530300 4.738400
16.544700 4.757000
16.559100 4.775500
16.573500 4.793900
16.587900 4.812300
16.602300 4.830700
16.616600 4.850100
16.631000 4.875900
16.645400 4.902500
16.659800 4.929800
16.674200 4.957900
16.688600 4.774500
16.702900 4.772500
16.717300 4.788800
16.731700 5.459700
16.746100 5.424800
16.760500 5.455000
16.774900 5.438200
16.789200 5.278100
16.803600 5.376800
16.818000 5.303900
16.832400 5.559000
16.846800 5.790500
16.861200 5.968300
16.875500 6.197700
16.889900 6.346800
16.904300 6.591200
16.918700 7.238600
16.933100 7.401800
16.947500 7.554000
16.961800 7.695300
16.976200 7.825600
16.990600 7.322900
17.005000 7.368600
17.019400 7.334900
17.033800 7.292000
17.048100 6.910900
17.062500 6.977900
17.076900 7.054500
17.091300 7.150700
17.105700 7.265200
17.120100 7.406900
17.134400 7.577400
17.148800 7.770900
17.163200 8.003600
17.177600 8.211600
17.192000 8.519000
17.206400 8.351700
17.220700 8.367800
17.235100 8.366200
17.249500 8.351700
17.263900 8.332000
17.278300 8.317100
17.292700 8.481200
17.307000 8.754400
17.321400 8.889200
17.335800 9.256800
17.350200 9.052900
17.364600 8.885500
17.378900 8.998000
17.393300 9.222300
17.407700 9.595900
17.422100 10.060800
17.436500 10.567600
17.450900 9.883600
17.465200 8.371600
17.479600 8.312200
17.494000 8.323500
17.508400 8.421500
17.522800 8.594800
17.537200 8.187700
17.551500 8.571000
17.565900 9.146500
17.580300 9.208100
17.594700 9.337200
17.609100 9.396000
17.623500 9.297900
17.637800 8.999600
17.652200 10.958100
17.666600 7.344200
17.681000 7.082500
17.695400 7.564100
17.709800 7.552900
17.724100 7.559300
17.738500 7.570800
17.752900 7.679800
17.767300 7.707900
17.781700 7.891800
17.796100 8.111300
17.810400 8.597900
17.824800 8.794900
17.839200 10.185000
17.853600 10.145100
17.868000 9.487700
17.882400 8.770100
17.896700 7.806700
17.911100 7.878200
17.925500 6.553900
17.939900 5.807500
17.954300 5.740500
17.968700 5.697500
17.983000 5.660500
17.997400 5.645500
18.011800 5.932500
18.026200 5.845100
18.040600 5.768800
18.055000 5.703500
18.069300 5.672800
18.083700 5.628200
18.098100 5.602600
18.112500 5.606400
18.126900 5.687800
18.141300 5.704700
18.155600 5.566300
18.170000 5.552900
18.184400 5.685800
18.198800 5.820100
18.213200 5.955800
18.227600 6.092900
18.241900 6.164600
18.256300 6.346200
18.270700 16.352900
18.285100 6.289400
18.299500 6.143000
18.313900 5.979300
18.328200 5.648000
18.342600 5.298600
18.357000 4.646300
18.371400 4.462700
18.385800 5.054300
18.400200 4.892200
18.414500 4.723300
18.428900 4.547400
18.443300 4.364600
18.457700 4.174900
18.472100 4.886100
18.486500 4.802900
18.500800 4.693100
18.515200 4.556600
18.529600 4.277900
18.544000 4.128400
18.558400 4.048200
18.572800 3.941300
18.587100 3.807900
18.601500 3.647900
18.615900 3.565500
18.630300 3.501900
18.644700 3.326500
18.659100 3.233800
18.673400 3.045100
18.687800 2.939900
18.702200 2.092400
18.716600 1.947600
18.731000 1.806700
18.745400 1.669800
18.759700 1.536900
18.774100 1.408000
18.788500 1.283000
18.802900 1.162100
18.817300 1.045100
18.831600 0.932100
18.846000 0.823200
18.860400 0.718200
18.874800 0.627900
18.889200 0.450100
18.903600 0.399500
18.917900 0.372600
18.932300 0.347400
18.946700 0.323000
18.961100 0.299200
18.975500 0.276100
18.989900 0.253700
19.004200 0.232000
19.018600 0.211000
19.033000 0.190700
19.047400 0.171000
19.061800 0.152100
19.076200 0.133800
19.090500 0.116200
19.104900 0.099300
19.119300 0.083100
19.133700 0.067600
19.148100 0.052700
19.162500 0.038600
19.176800 0.025100
19.191200 0.012300
19.205600 0.000300
19.220000 0.000000
19.234400 0.000000
19.248800 0.000000
19.263100 0.000000
19.277500 0.000000
19.291900 0.000000
19.306300 0.000000
19.320700 0.000000
19.335100 0.000000
19.349400 0.000000
19.363800 0.000000
19.378200 0.000000
19.392600 0.000000
19.407000 0.000000
19.421400 0.000000
19.435700 0.000000
19.450100 0.000000
19.464500 0.000000
19.478900 0.000000
19.493300 0.000000
19.507700 0.000000
19.522000 0.000000
19.536400 0.000000
19.550800 0.000000
19.565200 0.000000
19.579600 0.000000
19.594000 0.000000
19.608300 0.000000
19.622700 0.000000
19.637100 0.000000
19.651500 0.000000
19.665900 0.000000
19.680300 0.000000
19.694600 0.000000
19.709000 0.000000
19.723400 0.000000
19.737800 0.000000
19.752200 0.000000
19.766600 0.000000
19.780900 0.000000
19.795300 0.000000
19.809700 0.000000
19.824100 0.000000
19.838500 0.000000
19.852900 0.000000
19.867200 0.000000
19.881600 0.000000
19.896000 0.000000
19.910400 0.000000
19.924800 0.000000
19.939200 0.000000
19.953500 0.000000
19.967900 0.000000
19.982300 0.000000
19.996700 0.000000
20.011100 0.000000
20.025500 0.000000
20.039800 0.000000
20.054200 0.000000
20.068600 0.000000
20.083000 0.000000
20.097400 0.000000
20.111800 0.000000
20.126100 0.000000
20.140500 0.000000
20.154900 0.000000
20.169300 0.000000
20.183700 0.000000
20.198100 0.000000
20.212400 0.000000
20.226800 0.000000
20.241200 0.000000
20.255600 0.000000
20.270000 0.000000
20.284300 0.000000
20.298700 0.000000
20.313100 0.000000
20.327500 0.000000
20.341900 0.000000
20.356300 0.000000
20.370600 0.000000
20.385000 0.000000
20.399400 0.000000
20.413800 0.000000
20.428200 0.000000
20.442600 0.000000
20.456900 0.000000
20.471300 0.000000
20.485700 0.000000
20.500100 0.000000
20.514500 0.000000
e
