set title 'mp-23157 - Density of States'
set xlabel 'Energy (eV)'
set ylabel 'DOS (states/eV)'
set grid
set xrange [-10:10]
set yrange [0:2.310]
set xzeroaxis lt -1
set terminal png size 800,600
set output 'mp-23157_dos_gnuplot.png'
plot '-' using 1:2 with lines title 'DOS'
-10.695900 0.000000
-10.660200 0.000000
-10.624400 0.000000
-10.588600 0.000000
-10.552900 0.000000
-10.517100 0.000000
-10.481300 0.000000
-10.445600 0.000000
-10.409800 0.000000
-10.374100 0.000000
-10.338300 0.000000
-10.302500 0.000000
-10.266800 0.000000
-10.231000 0.000000
-10.195200 0.000000
-10.159500 0.000000
-10.123700 0.000000
-10.088000 0.000000
-10.052200 0.000000
-10.016400 0.000000
-9.980700 0.000000
-9.944900 0.000000
-9.909100 0.000000
-9.873400 0.000000
-9.837600 0.000000
-9.801900 0.000000
-9.766100 0.000000
-9.730300 0.000000
-9.694600 0.000000
-9.658800 0.000000
-9.623000 0.000000
-9.587300 0.000000
-9.551500 0.000000
-9.515700 0.000000
-9.480000 0.000000
-9.444200 0.000000
-9.408500 0.000000
-9.372700 0.000000
-9.336900 0.000000
-9.301200 0.000000
-9.265400 0.000000
-9.229600 0.000000
-9.193900 0.000000
-9.158100 0.000000
-9.122400 0.000000
-9.086600 0.000000
-9.050800 0.000000
-9.015100 0.000000
-8.979300 0.000000
-8.943500 0.000000
-8.907800 0.000000
-8.872000 0.000000
-8.836300 0.000000
-8.800500 0.000000
-8.764700 0.000000
-8.729000 0.000000
-8.693200 0.000000
-8.657400 0.000000
-8.621700 0.000000
-8.585900 0.000000
-8.550200 0.000000
-8.514400 0.000000
-8.478600 0.000000
-8.442900 0.000000
-8.407100 0.000000
-8.371300 0.000000
-8.335600 0.000000
-8.299800 0.000000
-8.264000 0.000000
-8.228300 0.000000
-8.192500 0.000000
-8.156800 0.000000
-8.121000 0.000000
-8.085200 0.000000
-8.049500 0.000000
-8.013700 0.000000
-7.977900 0.000000
-7.942200 0.000000
-7.906400 0.000000
-7.870700 0.000000
-7.834900 0.000000
-7.799100 0.000000
-7.763400 0.000000
-7.727600 0.000000
-7.691800 0.000000
-7.656100 0.000000
-7.620300 0.000000
-7.584600 0.000000
-7.548800 0.000000
-7.513000 0.000000
-7.477300 0.000000
-7.441500 0.000300
-7.405700 0.043900
-7.370000 0.137600
-7.334200 0.161900
-7.298500 0.187700
-7.262700 0.219600
-7.226900 0.250400
-7.191200 0.278000
-7.155400 0.294600
-7.119600 0.313100
-7.083900 0.331500
-7.048100 0.348700
-7.012300 0.367300
-6.976600 0.387200
-6.940800 0.407800
-6.905100 0.427100
-6.869300 0.442600
-6.833500 0.457400
-6.797800 0.472500
-6.762000 0.487000
-6.726200 0.501900
-6.690500 0.517500
-6.654700 0.533800
-6.619000 0.550600
-6.583200 0.568500
-6.547400 0.586300
-6.511700 0.604500
-6.475900 0.621300
-6.440100 0.636200
-6.404400 0.652200
-6.368600 0.669100
-6.332900 0.686800
-6.297100 0.705400
-6.261300 0.726000
-6.225600 0.750400
-6.189800 0.778200
-6.154000 0.809200
-6.118300 0.843600
-6.082500 0.881200
-6.046700 0.924500
-6.011000 0.989800
-5.975200 0.968700
-5.939500 0.937300
-5.903700 0.926100
-5.867900 0.936200
-5.832200 0.931400
-5.796400 0.919800
-5.760600 0.925700
-5.724900 0.950700
-5.689100 0.994000
-5.653400 1.094000
-5.617600 1.106100
-5.581800 1.060500
-5.546100 1.102900
-5.510300 1.164400
-5.474500 1.310700
-5.438800 1.406900
-5.403000 1.454100
-5.367300 1.513300
-5.331500 1.533500
-5.295700 1.522000
-5.260000 1.530800
-5.224200 1.562800
-5.188400 1.602300
-5.152700 1.665200
-5.116900 1.688700
-5.081200 1.740200
-5.045400 1.732300
-5.009600 1.739700
-4.973900 1.756000
-4.938100 1.794500
-4.902300 1.877900
-4.866600 1.979800
-4.830800 1.720600
-4.795000 1.527200
-4.759300 1.400500
-4.723500 1.312100
-4.687800 1.280500
-4.652000 1.236400
-4.616200 1.212300
-4.580500 1.087600
-4.544700 0.982100
-4.508900 0.939400
-4.473200 0.930600
-4.437400 0.873200
-4.401700 0.855500
-4.365900 0.840300
-4.330100 0.829700
-4.294400 0.829200
-4.258600 0.833200
-4.222800 0.846000
-4.187100 0.878100
-4.151300 0.882500
-4.115600 0.913400
-4.079800 0.938900
-4.044000 0.954900
-4.008300 0.967300
-3.972500 0.978700
-3.936700 1.032600
-3.901000 0.990700
-3.865200 0.995200
-3.829500 1.009100
-3.793700 1.027200
-3.757900 1.043000
-3.722200 1.055900
-3.686400 1.076200
-3.650600 1.025400
-3.614900 1.009100
-3.579100 0.993200
-3.543300 0.965500
-3.507600 0.950500
-3.471800 0.894600
-3.436100 0.843100
-3.400300 0.774900
-3.364500 0.740700
-3.328800 0.683700
-3.293000 0.597000
-3.257200 0.539800
-3.221500 0.493900
-3.185700 0.455600
-3.150000 0.423000
-3.114200 0.391300
-3.078400 0.355800
-3.042700 0.318500
-3.006900 0.276000
-2.971100 0.244000
-2.935400 0.216600
-2.899600 0.181300
-2.863900 0.136100
-2.828100 0.079200
-2.792300 0.008400
-2.756600 0.000000
-2.720800 0.000000
-2.685000 0.000000
-2.649300 0.000000
-2.613500 0.000000
-2.577800 0.000000
-2.542000 0.000000
-2.506200 0.000000
-2.470500 0.000000
-2.434700 0.000000
-2.398900 0.000000
-2.363200 0.000000
-2.327400 0.000000
-2.291600 0.000000
-2.255900 0.000000
-2.220100 0.000000
-2.184400 0.000000
-2.148600 0.000000
-2.112800 0.000000
-2.077100 0.000000
-2.041300 0.000000
-2.005500 0.000000
-1.969800 0.000000
-1.934000 0.000000
-1.898300 0.000000
-1.862500 0.000000
-1.826700 0.000000
-1.791000 0.000000
-1.755200 0.000000
-1.719400 0.000000
-1.683700 0.000000
-1.647900 0.000000
-1.612200 0.000000
-1.576400 0.000000
-1.540600 0.000000
-1.504900 0.000000
-1.469100 0.000000
-1.433300 0.000000
-1.397600 0.000000
-1.361800 0.000000
-1.326000 0.000000
-1.290300 0.000000
-1.254500 0.000000
-1.218800 0.000000
-1.183000 0.000000
-1.147200 0.000000
-1.111500 0.000000
-1.075700 0.000000
-1.039900 0.000000
-1.004200 0.000000
-0.968400 0.000000
-0.932700 0.000000
-0.896900 0.000000
-0.861100 0.000000
-0.825400 0.000000
-0.789600 0.000000
-0.753800 0.000000
-0.718100 0.000000
-0.682300 0.000000
-0.646600 0.000000
-0.610800 0.000000
-0.575000 0.000000
-0.539300 0.000000
-0.503500 0.000000
-0.467700 0.000000
-0.432000 0.000000
-0.396200 0.000000
-0.360500 0.000000
-0.324700 0.000000
-0.288900 0.000000
-0.253200 0.000000
-0.217400 0.000000
-0.181600 0.000000
-0.145900 0.000000
-0.110100 0.000000
-0.074300 0.000000
-0.038600 0.000000
-0.002800 0.000000
0.032900 0.000000
0.068700 0.000000
0.104500 0.000000
0.140200 0.000000
0.176000 0.000000
0.211800 0.000000
0.247500 0.000000
0.283300 0.000000
0.319000 0.000000
0.354800 0.000000
0.390600 0.000000
0.426300 0.000000
0.462100 0.000000
0.497900 0.000000
0.533600 0.000000
0.569400 0.000000
0.605100 0.000000
0.640900 0.000000
0.676700 0.000000
0.712400 0.000000
0.748200 0.006600
0.784000 0.036000
0.819700 0.079900
0.855500 0.117800
0.891200 0.149900
0.927000 0.175100
0.962800 0.198400
0.998500 0.214400
1.034300 0.225600
1.070100 0.245800
1.105800 0.265300
1.141600 0.292100
1.177400 0.313900
1.213100 0.331300
1.248900 0.341200
1.284600 0.415900
1.320400 0.534500
1.356200 0.671500
1.391900 0.884900
1.427700 1.123100
1.463500 1.082800
1.499200 1.141600
1.535000 1.188900
1.570700 1.237200
1.606500 1.258500
1.642300 1.275000
1.678000 1.253800
1.713800 1.249200
1.749600 1.228300
1.785300 1.219900
1.821100 1.218100
1.856800 1.225300
1.892600 1.229800
1.928400 1.232400
1.964100 1.240100
1.999900 1.255200
2.035700 1.292400
2.071400 1.264200
2.107200 1.208600
2.143000 1.177500
2.178700 1.167000
2.214500 1.156400
2.250200 1.168200
2.286000 1.183900
2.321800 1.196900
2.357500 1.212600
2.393300 1.236000
2.429100 1.251400
2.464800 1.272000
2.500600 1.294400
2.536300 1.329300
2.572100 1.366500
2.607900 1.413000
2.643600 1.504900
2.679400 1.543000
2.715200 1.543800
2.750900 1.559000
2.786700 1.583000
2.822400 1.619800
2.858200 1.659000
2.894000 1.749700
2.929700 1.859400
2.965500 1.830700
3.001300 1.803400
3.037000 1.791300
3.072800 1.780200
3.108500 1.757900
3.144300 1.720100
3.180100 1.703500
3.215800 1.628500
3.251600 1.577600
3.287400 1.561300
3.323100 1.554500
3.358900 1.552900
3.394700 1.518600
3.430400 1.499200
3.466200 1.439700
3.501900 1.407900
3.537700 1.400700
3.573500 1.380900
3.609200 1.372300
3.645000 1.396500
3.680800 1.439000
3.716500 1.513100
3.752300 1.656100
3.788000 1.593800
3.823800 1.648500
3.859600 1.710600
3.895300 1.678400
3.931100 1.664500
3.966900 1.680300
4.002600 1.701400
4.038400 1.653700
4.074100 1.657000
4.109900 1.649700
4.145700 1.662800
4.181400 1.584000
4.217200 1.606300
4.253000 1.585100
4.288700 1.558900
4.324500 1.559800
4.360200 1.565900
4.396000 1.548000
4.431800 1.528700
4.467500 1.519500
4.503300 1.490800
4.539100 1.389000
4.574800 1.277500
4.610600 1.191100
4.646400 1.119000
4.682100 1.062200
4.717900 1.023700
4.753600 0.994500
4.789400 0.972800
4.825200 0.949000
4.860900 0.922200
4.896700 0.905200
4.932500 0.896700
4.968200 0.903400
5.004000 0.955900
5.039700 0.993800
5.075500 1.035100
5.111300 1.089800
5.147000 1.166000
5.182800 1.213400
5.218600 1.187100
5.254300 1.208400
5.290100 1.246900
5.325800 1.280100
5.361600 1.298000
5.397400 1.302000
5.433100 1.323400
5.468900 1.317100
5.504700 1.319100
5.540400 1.278300
5.576200 1.238500
5.611900 1.206300
5.647700 1.193000
5.683500 1.192900
5.719200 1.196200
5.755000 1.200500
5.790800 1.207500
5.826500 1.191400
5.862300 1.172000
5.898100 1.170200
5.933800 1.160500
5.969600 1.144500
6.005300 1.130700
6.041100 1.120600
6.076900 1.116000
6.112600 1.114300
6.148400 1.095000
6.184200 1.068900
6.219900 1.046400
6.255700 1.028200
6.291400 1.019700
6.327200 1.002600
6.363000 0.960900
6.398700 0.912400
6.434500 0.879100
6.470300 0.859100
6.506000 0.844700
6.541800 0.817100
6.577500 0.827900
6.613300 0.843000
6.649100 0.857800
6.684800 0.869400
6.720600 0.875300
6.756400 0.886400
6.792100 0.900400
6.827900 0.923100
6.863700 0.950400
6.899400 0.995300
6.935200 1.025100
6.970900 1.057600
7.006700 1.085500
7.042500 1.115700
7.078200 1.145800
7.114000 1.178000
7.149800 1.211600
7.185500 1.243300
7.221300 1.280100
7.257000 1.326100
7.292800 1.387000
7.328600 1.442400
7.364300 1.542400
7.400100 1.585200
7.435900 1.594500
7.471600 1.590400
7.507400 1.597000
7.543100 1.621900
7.578900 1.658700
7.614700 1.700200
7.650400 1.742300
7.686200 1.790600
7.722000 1.912400
7.757700 1.999800
7.793500 2.100300
7.829200 1.994200
7.865000 2.015400
7.900800 2.018900
7.936500 1.954400
7.972300 1.950900
8.008100 1.920300
8.043800 1.908300
8.079600 1.893100
8.115400 1.887900
8.151100 1.888000
8.186900 1.878700
8.222600 1.862000
8.258400 1.842400
8.294200 1.784400
8.329900 1.739300
8.365700 1.690300
8.401500 1.650700
8.437200 1.617700
8.473000 1.597800
8.508700 1.570400
8.544500 1.558400
8.580300 1.559500
8.616000 1.577200
8.651800 1.605600
8.687600 1.573900
8.723300 1.549300
8.759100 1.535300
8.794800 1.535300
8.830600 1.535100
8.866400 1.554900
8.902100 1.538800
8.937900 1.459700
8.973700 1.445200
9.009400 1.420700
9.045200 1.374500
9.080900 1.276000
9.116700 1.231300
9.152500 1.225600
9.188200 1.238700
9.224000 1.249500
9.259800 1.248800
9.295500 1.257800
9.331300 1.240400
9.367100 1.215900
9.402800 1.197200
9.438600 1.186300
9.474300 1.161100
9.510100 1.124400
9.545900 1.112100
9.581600 1.114300
9.617400 1.103900
9.653200 1.097400
9.688900 1.080900
9.724700 1.080500
9.760400 1.072300
9.796200 1.071400
9.832000 1.067600
9.867700 1.107800
9.903500 1.106000
9.939300 1.021300
9.975000 0.980100
10.010800 0.944400
10.046500 0.918900
10.082300 0.890600
10.118100 0.865200
10.153800 0.845800
10.189600 0.822700
10.225400 0.795700
10.261100 0.765100
10.296900 0.810200
10.332600 0.824000
10.368400 0.855000
10.404200 0.827800
10.439900 0.817200
10.475700 0.762600
10.511500 0.742000
10.547200 0.729100
10.583000 0.729600
10.618800 0.735400
10.654500 0.730800
10.690300 0.712300
10.726000 0.686000
10.761800 0.673700
10.797600 0.668400
10.833300 0.683000
10.869100 0.702700
10.904900 0.734200
10.940600 0.764500
10.976400 0.809200
11.012100 0.855900
11.047900 0.846000
11.083700 0.863900
11.119400 0.906300
11.155200 0.969200
11.191000 0.989900
11.226700 1.024100
11.262500 1.065200
11.298200 1.120100
11.334000 1.202600
11.369800 1.248000
11.405500 1.281900
11.441300 1.302800
11.477100 1.264000
11.512800 1.237000
11.548600 1.227500
11.584400 1.227700
11.620100 1.208900
11.655900 1.194000
11.691600 1.182900
11.727400 1.180500
11.763200 1.179800
11.798900 1.178100
11.834700 1.175600
11.870500 1.180700
11.906200 1.193600
11.942000 1.214200
11.977700 1.235800
12.013500 1.204000
12.049300 1.211700
12.085000 1.213700
12.120800 1.217300
12.156600 1.221400
12.192300 1.232300
12.228100 1.238100
12.263800 1.240300
12.299600 1.252300
12.335400 1.271300
12.371100 1.292000
12.406900 1.314200
12.442700 1.339100
12.478400 1.369000
12.514200 1.374300
12.549900 1.371300
12.585700 1.373900
12.621500 1.391700
12.657200 1.421500
12.693000 1.434900
12.728800 1.437900
12.764500 1.435300
12.800300 1.434900
12.836100 1.443800
12.871800 1.478700
12.907600 1.483500
12.943300 1.483200
12.979100 1.480700
13.014900 1.484700
13.050600 1.499500
13.086400 1.519900
13.122200 1.562000
13.157900 1.637300
13.193700 1.654300
13.229400 1.663000
13.265200 1.697600
13.301000 1.724900
13.336700 1.749700
13.372500 1.799600
13.408300 1.884300
13.444000 1.903400
13.479800 1.934700
13.515500 1.991800
13.551300 2.082000
13.587100 2.020000
13.622800 1.943300
13.658600 1.899600
13.694400 1.863600
13.730100 1.801400
13.765900 1.783000
13.801600 1.783600
13.837400 1.777100
13.873200 1.749900
13.908900 1.750200
13.944700 1.769000
13.980500 1.862600
14.016200 2.072400
14.052000 1.941400
14.087800 1.892300
14.123500 1.890000
14.159300 1.914600
14.195000 1.971300
14.230800 2.087500
14.266600 2.117600
14.302300 2.162900
14.338100 2.174000
14.373900 2.227100
14.409600 2.131000
14.445400 2.108800
14.481100 2.114800
14.516900 2.151700
14.552700 2.188800
14.588400 2.244500
14.624200 2.245100
14.660000 2.184800
14.695700 2.140900
14.731500 2.120500
14.767200 2.122800
14.803000 2.120700
14.838800 2.057500
14.874500 2.019400
14.910300 1.996900
14.946100 1.981100
14.981800 1.971900
15.017600 1.987300
15.053400 2.013600
15.089100 1.999200
15.124900 1.983200
15.160600 1.961800
15.196400 1.937100
15.232200 1.915900
15.267900 1.919600
15.303700 1.964800
15.339500 2.020000
15.375200 2.040300
15.411000 2.029900
15.446700 2.050600
15.482500 2.074900
15.518300 2.127000
15.554000 2.234700
15.589800 2.263500
15.625600 2.224700
15.661300 2.151400
15.697100 2.126600
15.732800 2.130000
15.768600 2.156000
15.804400 2.195100
15.840100 2.233200
15.875900 2.183200
15.911700 2.138200
15.947400 2.096100
15.983200 2.082100
16.018900 2.084500
16.054700 2.103600
16.090500 2.129800
16.126200 2.137600
16.162000 2.153800
16.197800 2.181600
16.233500 2.252700
16.269300 2.363000
16.305100 2.444100
16.340800 2.434300
16.376600 2.340300
16.412300 2.288300
16.448100 2.299800
16.483900 2.300300
16.519600 2.293800
16.555400 2.272200
16.591200 2.243300
16.626900 2.211400
16.662700 2.220900
16.698400 2.158100
16.734200 2.160300
16.770000 2.189500
16.805700 2.224700
16.841500 2.211900
16.877300 2.199000
16.913000 2.223900
16.948800 2.273400
16.984500 2.286900
17.020300 2.276900
17.056100 2.258500
17.091800 2.224400
17.127600 2.197300
17.163400 2.190300
17.199100 2.170800
17.234900 2.147800
17.270600 2.143500
17.306400 2.121300
17.342200 2.141100
17.377900 2.137700
17.413700 2.155700
17.449500 2.145900
17.485200 2.191800
17.521000 2.232100
17.556800 2.310700
17.592500 2.340700
17.628300 2.289800
17.664000 2.286200
17.699800 2.267100
17.735600 2.253700
17.771300 2.217900
17.807100 2.197900
17.842900 2.224400
17.878600 2.284800
17.914400 2.367600
17.950100 2.423400
17.985900 2.449800
18.021700 2.464500
18.057400 2.473700
18.093200 2.475700
18.129000 2.512700
18.164700 2.512400
18.200500 2.519600
18.236200 2.534700
18.272000 2.485800
18.307800 2.482000
18.343500 2.499000
18.379300 2.494400
18.415100 2.481400
18.450800 2.475600
18.486600 2.490300
18.522300 2.485400
18.558100 2.528500
18.593900 2.513300
18.629600 2.512500
18.665400 2.487500
18.701200 2.536400
18.736900 2.570400
18.772700 2.609100
18.808500 2.640400
18.844200 2.668100
18.880000 2.688300
18.915700 2.724600
18.951500 2.751800
18.987300 2.755700
19.023000 2.722000
19.058800 2.688300
19.094600 2.602900
19.130300 2.558700
19.166100 2.523400
19.201800 2.519700
19.237600 2.540400
19.273400 2.568900
19.309100 2.597300
19.344900 2.622500
19.380700 2.641900
19.416400 2.668100
19.452200 2.698000
19.487900 2.720200
19.523700 2.705100
19.559500 2.687600
19.595200 2.721000
19.631000 2.708800
19.666800 2.591600
19.702500 2.593900
19.738300 2.585700
19.774100 2.584900
19.809800 2.609800
19.845600 2.619300
19.881300 2.646600
19.917100 2.666600
19.952900 2.699600
19.988600 2.687300
20.024400 2.654200
20.060200 2.630600
20.095900 2.586100
20.131700 2.573900
20.167400 2.578400
20.203200 2.592000
20.239000 2.575300
20.274700 2.580700
20.310500 2.618400
20.346300 2.659200
20.382000 2.661300
20.417800 2.667200
20.453500 2.667600
20.489300 2.682700
20.525100 2.700800
20.560800 2.688800
20.596600 2.686200
20.632400 2.634700
20.668100 2.657300
20.703900 2.712100
20.739600 2.762800
20.775400 2.765100
20.811200 2.789400
20.846900 2.809300
20.882700 2.823000
20.918500 2.788500
20.954200 2.793700
20.990000 2.778200
21.025800 2.754600
21.061500 2.727800
21.097300 2.786900
21.133000 2.840900
21.168800 2.867300
21.204600 2.902000
21.240300 2.907300
21.276100 2.925900
21.311900 2.934600
21.347600 2.898200
21.383400 2.868700
21.419100 2.864300
21.454900 2.903600
21.490700 2.927000
21.526400 2.957100
21.562200 2.953100
21.598000 2.881300
21.633700 2.843100
21.669500 2.819100
21.705200 2.801900
21.741000 2.812400
21.776800 2.786200
21.812500 2.745600
21.848300 2.727100
21.884100 2.742800
21.919800 2.730600
21.955600 2.723400
21.991300 2.733400
22.027100 2.805400
22.062900 2.848300
22.098600 2.844100
22.134400 2.809400
22.170200 2.814100
22.205900 2.826400
22.241700 2.891800
22.277500 2.985800
22.313200 3.077500
22.349000 3.087400
22.384700 3.120900
22.420500 3.098500
22.456300 3.042800
22.492000 2.987400
22.527800 2.929700
22.563600 2.870600
22.599300 2.842800
22.635100 2.874300
22.670800 2.917700
22.706600 2.944400
22.742400 2.962200
22.778100 2.993100
22.813900 3.013300
22.849700 3.046200
22.885400 3.056400
22.921200 3.040000
22.956900 2.996200
22.992700 2.949800
23.028500 2.973700
23.064200 3.042300
23.100000 3.062400
23.135800 3.086700
23.171500 3.092400
23.207300 3.077600
23.243000 3.090000
23.278800 3.088500
23.314600 3.059000
23.350300 3.033400
23.386100 2.992800
23.421900 3.041900
23.457600 3.109200
23.493400 3.193900
23.529200 3.255400
23.564900 3.276400
23.600700 3.274000
23.636400 3.283500
23.672200 3.269900
23.708000 3.240200
23.743700 3.173600
23.779500 3.102400
23.815300 3.065900
23.851000 3.025200
23.886800 3.021400
23.922500 3.060400
23.958300 3.053400
23.994100 3.105300
24.029800 3.181800
24.065600 3.137500
24.101400 3.122100
24.137100 3.112400
24.172900 3.110300
24.208600 3.120100
24.244400 3.252200
24.280200 3.222000
24.315900 3.150300
24.351700 3.120800
24.387500 3.084600
24.423200 3.030600
24.459000 3.041400
24.494800 3.081600
24.530500 3.123800
24.566300 3.154300
24.602000 3.185800
24.637800 3.153300
24.673600 3.098100
24.709300 3.136400
24.745100 3.131200
24.780900 3.137700
24.816600 3.163100
24.852400 3.182400
24.888100 3.159700
24.923900 3.150600
24.959700 3.152800
24.995400 3.188800
25.031200 3.237900
25.067000 3.249500
25.102700 3.320200
25.138500 3.363900
25.174200 3.392100
25.210000 3.369700
25.245800 3.259500
25.281500 3.215900
25.317300 3.221900
25.353100 3.236800
25.388800 3.214200
25.424600 3.203700
25.460300 3.160900
25.496100 3.206300
25.531900 3.154100
25.567600 3.168300
25.603400 3.192600
25.639200 3.205500
25.674900 3.251300
25.710700 3.302900
25.746500 3.410800
25.782200 3.446400
25.818000 3.383600
25.853700 3.413700
25.889500 3.452900
25.925300 3.433200
25.961000 3.322100
25.996800 3.281100
26.032600 3.245800
26.068300 3.230600
26.104100 3.266700
26.139800 3.413400
26.175600 3.433000
26.211400 3.473000
26.247100 3.495600
26.282900 3.531800
26.318700 3.501900
26.354400 3.467200
26.390200 3.373700
26.425900 3.352900
26.461700 3.289400
26.497500 3.260500
26.533200 3.299000
26.569000 3.395400
26.604800 3.523100
26.640500 3.724300
26.676300 3.854100
26.712000 3.952700
26.747800 3.942000
26.783600 3.932300
26.819300 3.841200
26.855100 3.700900
26.890900 3.660000
26.926600 3.629400
26.962400 3.601300
26.998200 3.747700
27.033900 3.784400
27.069700 3.753600
27.105400 3.699000
27.141200 3.693200
27.177000 3.625100
27.212700 3.543500
27.248500 3.543500
27.284300 3.456700
27.320000 3.365300
27.355800 3.323000
27.391500 3.356800
27.427300 3.335300
27.463100 3.362100
27.498800 3.407200
27.534600 3.427600
27.570400 3.478700
27.606100 3.523600
27.641900 3.477800
27.677600 3.392800
27.713400 3.434900
27.749200 3.450100
27.784900 3.390100
27.820700 3.288900
27.856500 3.293300
27.892200 3.329100
27.928000 3.358400
27.963700 3.417200
27.999500 3.510500
28.035300 3.542800
28.071000 3.445800
28.106800 3.379000
28.142600 3.395100
28.178300 3.470900
28.214100 3.580800
28.249900 3.597000
28.285600 3.594800
28.321400 3.667200
28.357100 3.698800
28.392900 3.629400
28.428700 3.497500
28.464400 3.300300
28.500200 3.167500
28.536000 3.153500
28.571700 3.196000
28.607500 3.308900
28.643200 3.438600
28.679000 3.451300
28.714800 3.425200
28.750500 3.402300
28.786300 3.417100
28.822100 3.473900
28.857800 3.518000
28.893600 3.554300
28.929300 3.586800
28.965100 3.559100
29.000900 3.557400
29.036600 3.516000
29.072400 3.535600
29.108200 3.529400
29.143900 3.475700
29.179700 3.415200
29.215500 3.392900
29.251200 3.339000
29.287000 3.287500
29.322700 3.311300
29.358500 3.440300
29.394300 3.526500
29.430000 3.611000
29.465800 3.735500
29.501600 3.693300
29.537300 3.600100
29.573100 3.548600
29.608800 3.498400
29.644600 3.448700
29.680400 3.451600
29.716100 3.452900
29.751900 3.467300
29.787700 3.404100
29.823400 3.361800
29.859200 3.378100
29.894900 3.326700
29.930700 3.349300
29.966500 3.382600
30.002200 3.403100
30.038000 3.547400
30.073800 3.652700
30.109500 3.717700
30.145300 3.715600
30.181000 3.775500
30.216800 3.822100
30.252600 3.834900
30.288300 3.919200
30.324100 4.028700
30.359900 4.082300
30.395600 4.095600
30.431400 3.895300
30.467200 3.676800
30.502900 3.550500
30.538700 3.627800
30.574400 3.739300
30.610200 3.825900
30.646000 3.978100
30.681700 4.118000
30.717500 3.949300
30.753300 3.903900
30.789000 3.791900
30.824800 3.705800
30.860500 3.671700
30.896300 3.518700
30.932100 3.557800
30.967800 3.415400
31.003600 3.372800
31.039400 3.372100
31.075100 3.319200
31.110900 3.144300
31.146600 3.139700
31.182400 3.101500
31.218200 3.041100
31.253900 3.115600
31.289700 3.155200
31.325500 3.248900
31.361200 3.324200
31.397000 3.432500
31.432700 3.472400
31.468500 3.418800
31.504300 3.441200
31.540000 3.418800
31.575800 3.429200
31.611600 3.469100
31.647300 3.402900
31.683100 3.340600
31.718900 3.357200
31.754600 3.291100
31.790400 3.220200
31.826100 3.286700
31.861900 3.318800
31.897700 3.299300
31.933400 3.320600
31.969200 3.196300
32.005000 3.061000
32.040700 2.959600
32.076500 3.034500
32.112200 3.051800
32.148000 3.052600
32.183800 3.199300
32.219500 3.329200
32.255300 3.358300
32.291100 3.423100
32.326800 3.404600
32.362600 3.389800
32.398300 3.366300
32.434100 3.391600
32.469900 3.488000
32.505600 3.319500
32.541400 3.183400
32.577200 3.102900
32.612900 3.101400
32.648700 3.190300
32.684500 3.273400
32.720200 3.449300
32.756000 3.473500
32.791700 3.542000
32.827500 3.640600
32.863300 3.712300
32.899000 3.736500
32.934800 3.713900
32.970600 3.477500
33.006300 3.267900
33.042100 3.156000
33.077800 3.126600
33.113600 3.132700
33.149400 3.132800
33.185100 3.149700
33.220900 3.199100
33.256700 3.255000
33.292400 3.061800
33.328200 3.082500
33.363900 3.096300
33.399700 3.175200
33.435500 3.270800
33.471200 3.235300
33.507000 3.191900
33.542800 3.170100
33.578500 3.064400
33.614300 3.140200
33.650000 3.157000
33.685800 3.337100
33.721600 3.588000
33.757300 3.716900
33.793100 3.641900
33.828900 3.550200
33.864600 3.462000
33.900400 3.357200
33.936200 3.445100
33.971900 3.520200
34.007700 3.516000
34.043400 3.592000
34.079200 3.671400
34.115000 3.634000
34.150700 3.622300
34.186500 3.624600
34.222300 3.687800
34.258000 3.671900
34.293800 3.584200
34.329500 3.528500
34.365300 3.383800
34.401100 3.279600
34.436800 3.190100
34.472600 3.158100
34.508400 3.318800
34.544100 3.462200
34.579900 3.544600
34.615600 3.564000
34.651400 3.649800
34.687200 3.659100
34.722900 3.689200
34.758700 3.622900
34.794500 3.556300
34.830200 3.515300
34.866000 3.292600
34.901700 3.100100
34.937500 3.070300
34.973300 3.042400
35.009000 3.073100
35.044800 3.032700
35.080600 2.989500
35.116300 2.941600
35.152100 3.030100
35.187900 3.087800
35.223600 3.162500
35.259400 3.249600
35.295100 3.344000
35.330900 3.451000
35.366700 3.486000
35.402400 3.431200
35.438200 3.413500
35.474000 3.424100
35.509700 3.320600
35.545500 3.345900
35.581200 3.408500
35.617000 3.368900
35.652800 3.315300
35.688500 3.292600
35.724300 3.192600
35.760100 3.172100
35.795800 3.140700
35.831600 3.117100
35.867300 3.120300
35.903100 3.121200
35.938900 3.138300
35.974600 3.212100
36.010400 3.081700
36.046200 3.084600
36.081900 3.004500
36.117700 3.049100
36.153400 3.109600
36.189200 3.162700
36.225000 3.256200
36.260700 3.372600
36.296500 3.483800
36.332300 3.456700
36.368000 3.463000
36.403800 3.498900
36.439600 3.526100
36.475300 3.552900
36.511100 3.609300
36.546800 3.671600
36.582600 3.814200
36.618400 3.480100
36.654100 3.391300
36.689900 3.368300
36.725700 3.356200
36.761400 3.375600
36.797200 3.425400
36.832900 3.389100
36.868700 3.337600
36.904500 3.420600
36.940200 3.461200
36.976000 3.583300
37.011800 3.669500
37.047500 3.670800
37.083300 3.750500
37.119000 3.693500
37.154800 3.587100
37.190600 3.607700
37.226300 3.493200
37.262100 3.407000
37.297900 3.355200
37.333600 3.334700
37.369400 3.288700
37.405200 3.393000
37.440900 3.549400
37.476700 3.555200
37.512400 3.445700
37.548200 3.467700
37.584000 3.520100
37.619700 3.628100
37.655500 3.693600
37.691300 3.653600
37.727000 3.565000
37.762800 3.557800
37.798500 3.607500
37.834300 3.690300
37.870100 3.851400
37.905800 4.117700
37.941600 4.144900
37.977400 3.756100
38.013100 3.544800
38.048900 3.457900
38.084600 3.500400
38.120400 3.519600
38.156200 3.610200
38.191900 3.563600
38.227700 3.544900
38.263500 3.506400
38.299200 3.447100
38.335000 3.293400
38.370700 3.299000
38.406500 3.313300
38.442300 3.354000
38.478000 3.334500
38.513800 3.365100
38.549600 3.463400
38.585300 3.480700
38.621100 3.616800
38.656900 3.643700
38.692600 3.649000
38.728400 3.637100
38.764100 3.608300
38.799900 3.371600
38.835700 3.324400
38.871400 3.329500
38.907200 3.478400
38.943000 3.492300
38.978700 3.407400
39.014500 3.328200
39.050200 3.249900
39.086000 3.229900
39.121800 3.226000
39.157500 3.197800
39.193300 3.230500
39.229100 3.336600
39.264800 3.538300
39.300600 3.640400
39.336300 3.809000
39.372100 3.995500
39.407900 3.877400
39.443600 3.786000
39.479400 3.627800
39.515200 3.539900
39.550900 3.529600
39.586700 3.371000
39.622400 3.202300
39.658200 3.085800
39.694000 3.063700
39.729700 3.097000
39.765500 3.142300
39.801300 3.179900
39.837000 3.246000
39.872800 3.258100
39.908600 3.345500
39.944300 3.413300
39.980100 3.481200
40.015800 3.626000
40.051600 3.590900
40.087400 3.532600
40.123100 3.479300
40.158900 3.468400
40.194700 3.490000
40.230400 3.460700
40.266200 3.427100
40.301900 3.438200
40.337700 3.443000
40.373500 3.405600
40.409200 3.365600
40.445000 3.442100
40.480800 3.493600
40.516500 3.550200
40.552300 3.503900
40.588000 3.538900
40.623800 3.607700
40.659600 3.662800
40.695300 3.685800
40.731100 3.756000
40.766900 3.795500
40.802600 3.854600
40.838400 3.887200
40.874100 3.988900
40.909900 3.916400
40.945700 3.772800
40.981400 3.726700
41.017200 3.697800
41.053000 3.640200
41.088700 3.719800
41.124500 3.740700
41.160300 3.616400
41.196000 3.546300
41.231800 3.525400
41.267500 3.436600
41.303300 3.339500
41.339100 3.313200
41.374800 3.354000
41.410600 3.288500
41.446400 3.259800
41.482100 3.243100
41.517900 3.310300
41.553600 3.294100
41.589400 3.327100
41.625200 3.346700
41.660900 3.444300
41.696700 3.485900
41.732500 3.534700
41.768200 3.529500
41.804000 3.516700
41.839700 3.393000
41.875500 3.336100
41.911300 3.270300
41.947000 3.236200
41.982800 3.242000
42.018600 3.282200
42.054300 3.269800
42.090100 3.223400
42.125900 3.219200
42.161600 3.205100
42.197400 3.206200
42.233100 3.191700
42.268900 3.163500
42.304700 3.091200
42.340400 3.100800
42.376200 3.182000
42.412000 3.234200
42.447700 3.238200
42.483500 3.309800
42.519200 3.324600
42.555000 3.471400
42.590800 3.489000
42.626500 3.491000
42.662300 3.477500
42.698100 3.366000
42.733800 3.329400
42.769600 3.396500
42.805300 3.471200
42.841100 3.567500
42.876900 3.582200
42.912600 3.659700
42.948400 3.774200
42.984200 3.901600
43.019900 3.970400
43.055700 3.900200
43.091400 3.902300
43.127200 3.815200
43.163000 3.746600
43.198700 3.675000
43.234500 3.608200
43.270300 3.528300
43.306000 3.580100
43.341800 3.601000
43.377600 3.677100
43.413300 3.674300
43.449100 3.742100
43.484800 3.829900
43.520600 3.843600
43.556400 3.824100
43.592100 3.722200
43.627900 3.651700
43.663700 3.487100
43.699400 3.377200
43.735200 3.260500
43.770900 3.245000
43.806700 3.148700
43.842500 3.061900
43.878200 3.066600
43.914000 3.215600
43.949800 3.406500
43.985500 3.469200
44.021300 3.415800
44.057000 3.422400
44.092800 3.402900
44.128600 3.445800
44.164300 3.517200
44.200100 3.639200
44.235900 3.717900
44.271600 3.742000
44.307400 3.662100
44.343100 3.633700
44.378900 3.553400
44.414700 3.504200
44.450400 3.513000
44.486200 3.577900
44.522000 3.676600
44.557700 3.447600
44.593500 3.492000
44.629300 3.521000
44.665000 3.640000
44.700800 3.860200
44.736500 3.646400
44.772300 3.529300
44.808100 3.363200
44.843800 3.269500
44.879600 3.237300
44.915400 3.213700
44.951100 3.250800
44.986900 3.383400
45.022600 3.491700
45.058400 3.592700
45.094200 3.666400
45.129900 3.597700
45.165700 3.653100
45.201500 3.584200
45.237200 3.576600
45.273000 3.626500
45.308700 3.733300
45.344500 3.574100
45.380300 3.595200
45.416000 3.572400
45.451800 3.416000
45.487600 3.316900
45.523300 3.319800
45.559100 3.425600
45.594900 3.428600
45.630600 3.420700
45.666400 3.414600
45.702100 3.391400
45.737900 3.386900
45.773700 3.406000
45.809400 3.400000
45.845200 3.396500
45.881000 3.425900
45.916700 3.497500
45.952500 3.591700
45.988200 3.560200
46.024000 3.641800
46.059800 3.737000
46.095500 3.860300
46.131300 3.943200
46.167100 3.999000
46.202800 3.996600
46.238600 3.873700
46.274300 3.686400
46.310100 3.572900
46.345900 3.484100
46.381600 3.153200
46.417400 3.059100
46.453200 3.028400
46.488900 3.209000
46.524700 3.482600
46.560400 3.632600
46.596200 3.687200
46.632000 3.736000
46.667700 3.901900
46.703500 4.015100
46.739300 3.943700
46.775000 3.942500
46.810800 3.784800
46.846600 3.656400
46.882300 3.700600
46.918100 3.635300
46.953800 3.555200
46.989600 3.473900
47.025400 3.505500
47.061100 3.447300
47.096900 3.447400
47.132700 3.484800
47.168400 3.576600
47.204200 3.700600
47.239900 3.750200
47.275700 3.821900
47.311500 3.898400
47.347200 3.689100
47.383000 3.575200
47.418800 3.507200
47.454500 3.456000
47.490300 3.481800
47.526000 3.627100
47.561800 3.601200
47.597600 3.453700
47.633300 3.400600
47.669100 3.401000
47.704900 3.459000
47.740600 3.496300
47.776400 3.553900
47.812100 3.616400
47.847900 3.595200
47.883700 3.449200
47.919400 3.390500
47.955200 3.389000
47.991000 3.499600
48.026700 3.575100
48.062500 3.447300
48.098300 3.362600
48.134000 3.397600
48.169800 3.478600
48.205500 3.583500
48.241300 3.630700
48.277100 3.641700
48.312800 3.611700
48.348600 3.618300
48.384400 3.570000
48.420100 3.443500
48.455900 3.377800
48.491600 3.301300
48.527400 3.298800
48.563200 3.399800
48.598900 3.399800
48.634700 3.453700
48.670500 3.540700
48.706200 3.668300
48.742000 3.710000
48.777700 3.637800
48.813500 3.527300
48.849300 3.506800
48.885000 3.549300
48.920800 3.561900
48.956600 3.533700
48.992300 3.536600
49.028100 3.410800
49.063800 3.307200
49.099600 3.207000
49.135400 3.141800
49.171100 3.141000
49.206900 3.211600
49.242700 3.381200
49.278400 3.570400
49.314200 3.740300
49.350000 3.728900
49.385700 3.548300
49.421500 3.448400
49.457200 3.460800
49.493000 3.476600
49.528800 3.525900
49.564500 3.566700
49.600300 3.595900
49.636100 3.635400
49.671800 3.724400
49.707600 3.877300
49.743300 3.762100
49.779100 3.632900
49.814900 3.584400
49.850600 3.533300
49.886400 3.459400
49.922200 3.432700
49.957900 3.509900
49.993700 3.728400
50.029400 3.948100
50.065200 3.812400
50.101000 3.683100
50.136700 3.646400
50.172500 3.663000
50.208300 3.672000
50.244000 3.628600
50.279800 3.597300
50.315600 3.578000
50.351300 3.567100
50.387100 3.533500
50.422800 3.544100
50.458600 3.634100
50.494400 3.718000
50.530100 3.750100
50.565900 3.762000
50.601700 3.780100
50.637400 3.863400
50.673200 3.937300
50.708900 3.839400
50.744700 3.788600
50.780500 3.714300
50.816200 3.721200
50.852000 3.726400
50.887800 3.808300
50.923500 3.906100
50.959300 3.896100
50.995000 4.003300
51.030800 4.001000
51.066600 4.047400
51.102300 4.038200
51.138100 4.018700
51.173900 3.950900
51.209600 3.836700
51.245400 3.700500
51.281100 3.666600
51.316900 3.639100
51.352700 3.688600
51.388400 3.730000
51.424200 3.769600
51.460000 3.771300
51.495700 3.873300
51.531500 3.885600
51.567300 3.866500
51.603000 3.758500
51.638800 3.670700
51.674500 3.624000
51.710300 3.616200
51.746100 3.627700
51.781800 3.630800
51.817600 3.699700
51.853400 3.839500
51.889100 4.010200
51.924900 4.083500
51.960600 4.143200
51.996400 4.168100
52.032200 4.099600
52.067900 4.050600
52.103700 3.721300
52.139500 3.586800
52.175200 3.600000
52.211000 3.694700
52.246700 3.849100
52.282500 3.914600
52.318300 3.975100
52.354000 3.859500
52.389800 3.765200
52.425600 3.704900
52.461300 3.649900
52.497100 3.582500
52.532800 3.483000
52.568600 3.521600
52.604400 3.625200
52.640100 3.774700
52.675900 3.917700
52.711700 4.243000
52.747400 4.110800
52.783200 3.878100
52.819000 3.722200
52.854700 3.660900
52.890500 3.694300
52.926200 3.824700
52.962000 3.836500
52.997800 3.661900
53.033500 3.600700
53.069300 3.640400
53.105100 3.674500
53.140800 3.656500
53.176600 3.722500
53.212300 3.811700
53.248100 3.861500
53.283900 3.878300
53.319600 3.847000
53.355400 3.823000
53.391200 3.759500
53.426900 3.695600
53.462700 3.711600
53.498400 3.649400
53.534200 3.766200
53.570000 3.777400
53.605700 3.908500
53.641500 4.006100
53.677300 4.118500
53.713000 4.149100
53.748800 3.993200
53.784500 3.881400
53.820300 3.729400
53.856100 3.659100
53.891800 3.629400
53.927600 3.636700
53.963400 3.757300
53.999100 3.915000
54.034900 3.960900
54.070700 3.972500
54.106400 3.940500
54.142200 3.925800
54.177900 3.916000
54.213700 3.946100
54.249500 4.055600
54.285200 4.197200
54.321000 4.272900
54.356800 4.386300
54.392500 4.142400
54.428300 4.058800
54.464000 3.982400
54.499800 3.976700
54.535600 3.983600
54.571300 3.849500
54.607100 3.761800
54.642900 3.888800
54.678600 3.849200
54.714400 3.869500
54.750100 3.878300
54.785900 3.886900
54.821700 3.922600
54.857400 3.912900
54.893200 3.943600
54.929000 3.965000
54.964700 3.832200
55.000500 3.795200
55.036300 3.849700
55.072000 3.961200
55.107800 3.987700
55.143500 4.063600
55.179300 4.079300
55.215100 4.046600
55.250800 3.967300
55.286600 3.869000
55.322400 3.853800
55.358100 3.786100
55.393900 3.708000
55.429600 3.693100
55.465400 3.761600
55.501200 3.771100
55.536900 3.769500
55.572700 3.776200
55.608500 3.750200
55.644200 3.777800
55.680000 3.704900
55.715700 3.564700
55.751500 3.471000
55.787300 3.325500
55.823000 3.210900
55.858800 3.050900
55.894600 2.897600
55.930300 2.773400
55.966100 2.765800
56.001800 2.753500
56.037600 2.563100
56.073400 2.321200
56.109100 2.156700
56.144900 2.133300
56.180700 1.967200
56.216400 1.841200
56.252200 1.756000
56.288000 1.617900
56.323700 1.462100
56.359500 1.304400
56.395200 1.178900
56.431000 1.102800
56.466800 1.023300
56.502500 0.950100
56.538300 0.868500
56.574100 0.798200
56.609800 0.735400
56.645600 0.683200
56.681300 0.638100
56.717100 0.593200
56.752900 0.548900
56.788600 0.556600
56.824400 0.457900
56.860200 0.385000
56.895900 0.316800
56.931700 0.248100
56.967400 0.195600
57.003200 0.150800
57.039000 0.109900
57.074700 0.074500
57.110500 0.052800
57.146300 0.039500
57.182000 0.031500
57.217800 0.025600
57.253500 0.020400
57.289300 0.015800
57.325100 0.011900
57.360800 0.008600
57.396600 0.005800
57.432400 0.003500
57.468100 0.001800
57.503900 0.000700
57.539700 0.000100
57.575400 0.000000
57.611200 0.000000
57.646900 0.000000
57.682700 0.000000
57.718500 0.000000
57.754200 0.000000
57.790000 0.000000
57.825800 0.000000
57.861500 0.000000
57.897300 0.000000
57.933000 0.000000
57.968800 0.000000
58.004600 0.000000
58.040300 0.000000
58.076100 0.000000
58.111900 0.000000
58.147600 0.000000
58.183400 0.000000
58.219100 0.000000
58.254900 0.000000
58.290700 0.000000
58.326400 0.000000
58.362200 0.000000
58.398000 0.000000
58.433700 0.000000
58.469500 0.000000
58.505200 0.000000
58.541000 0.000000
58.576800 0.000000
58.612500 0.000000
58.648300 0.000000
58.684100 0.000000
58.719800 0.000000
58.755600 0.000000
58.791400 0.000000
58.827100 0.000000
58.862900 0.000000
58.898600 0.000000
58.934400 0.000000
58.970200 0.000000
59.005900 0.000000
59.041700 0.000000
59.077500 0.000000
59.113200 0.000000
59.149000 0.000000
59.184700 0.000000
59.220500 0.000000
59.256300 0.000000
59.292000 0.000000
59.327800 0.000000
59.363600 0.000000
59.399300 0.000000
59.435100 0.000000
59.470800 0.000000
59.506600 0.000000
59.542400 0.000000
59.578100 0.000000
59.613900 0.000000
59.649700 0.000000
59.685400 0.000000
59.721200 0.000000
59.757000 0.000000
59.792700 0.000000
59.828500 0.000000
59.864200 0.000000
59.900000 0.000000
59.935800 0.000000
59.971500 0.000000
60.007300 0.000000
60.043100 0.000000
60.078800 0.000000
60.114600 0.000000
60.150300 0.000000
60.186100 0.000000
60.221900 0.000000
60.257600 0.000000
60.293400 0.000000
60.329200 0.000000
60.364900 0.000000
60.400700 0.000000
60.436400 0.000000
60.472200 0.000000
60.508000 0.000000
60.543700 0.000000
60.579500 0.000000
60.615300 0.000000
60.651000 0.000000
60.686800 0.000000
60.722500 0.000000
60.758300 0.000000
60.794100 0.000000
60.829800 0.000000
e
