set title 'mp-1223699 - Density of States'
set xlabel 'Energy (eV)'
set ylabel 'DOS (states/eV)'
set grid
set xrange [-10:10]
set yrange [0:48.920]
set xzeroaxis lt -1
set terminal png size 800,600
set output 'mp-1223699_dos_gnuplot.png'
plot '-' using 1:2 with lines title 'DOS'
-10.293800 0.000000
-10.272800 0.000000
-10.251900 0.000000
-10.231000 0.000000
-10.210100 0.000000
-10.189200 0.000000
-10.168300 0.000000
-10.147400 0.000000
-10.126500 0.000000
-10.105600 0.000000
-10.084700 0.000000
-10.063700 0.000000
-10.042800 0.000000
-10.021900 0.000000
-10.001000 0.000000
-9.980100 0.000000
-9.959200 0.000000
-9.938300 0.000000
-9.917400 0.000000
-9.896500 0.000000
-9.875600 0.000000
-9.854700 0.000000
-9.833700 0.000000
-9.812800 0.000000
-9.791900 0.000000
-9.771000 0.000000
-9.750100 0.000000
-9.729200 0.000000
-9.708300 0.000000
-9.687400 0.000000
-9.666500 0.000000
-9.645600 0.000000
-9.624600 0.000000
-9.603700 0.000000
-9.582800 0.000000
-9.561900 0.000000
-9.541000 0.000000
-9.520100 0.000000
-9.499200 0.000000
-9.478300 0.000000
-9.457400 0.000000
-9.436500 0.000000
-9.415500 0.000000
-9.394600 0.000000
-9.373700 0.000000
-9.352800 0.000000
-9.331900 0.000000
-9.311000 0.000000
-9.290100 0.000000
-9.269200 0.000000
-9.248300 0.000000
-9.227400 0.000000
-9.206400 0.000000
-9.185500 0.000000
-9.164600 0.000000
-9.143700 0.000000
-9.122800 0.000000
-9.101900 0.000000
-9.081000 0.000000
-9.060100 0.000000
-9.039200 0.000000
-9.018300 0.000000
-8.997400 0.000000
-8.976400 0.000000
-8.955500 0.000000
-8.934600 0.000000
-8.913700 0.000000
-8.892800 0.000000
-8.871900 0.000000
-8.851000 0.000000
-8.830100 0.000000
-8.809200 0.000000
-8.788300 0.000000
-8.767300 0.000000
-8.746400 0.000000
-8.725500 0.000000
-8.704600 0.000000
-8.683700 0.000000
-8.662800 0.000000
-8.641900 0.000000
-8.621000 0.000000
-8.600100 0.000000
-8.579200 0.000000
-8.558200 0.000000
-8.537300 0.000000
-8.516400 0.000500
-8.495500 0.004100
-8.474600 0.024200
-8.453700 0.106800
-8.432800 0.358300
-8.411900 0.943500
-8.391000 2.033300
-8.370100 3.752200
-8.349200 6.154000
-8.328200 9.191600
-8.307300 12.786700
-8.286400 17.157300
-8.265500 22.981900
-8.244600 30.511400
-8.223700 38.168700
-8.202800 43.185800
-8.181900 44.472600
-8.161000 43.510000
-8.140100 41.613700
-8.119100 38.065500
-8.098200 31.953800
-8.077300 24.424200
-8.056400 17.881300
-8.035500 13.535700
-8.014600 10.715200
-7.993700 8.324700
-7.972800 6.063000
-7.951900 4.180200
-7.931000 2.787500
-7.910000 1.751700
-7.889100 0.966600
-7.868200 0.436600
-7.847300 0.153700
-7.826400 0.040900
-7.805500 0.008100
-7.784600 0.001200
-7.763700 0.000100
-7.742800 0.000000
-7.721900 0.000000
-7.700900 0.000000
-7.680000 0.000000
-7.659100 0.000000
-7.638200 0.000000
-7.617300 0.000000
-7.596400 0.000000
-7.575500 0.000000
-7.554600 0.000000
-7.533700 0.000000
-7.512800 0.000000
-7.491900 0.000000
-7.470900 0.000000
-7.450000 0.000000
-7.429100 0.000000
-7.408200 0.000000
-7.387300 0.000000
-7.366400 0.000000
-7.345500 0.000000
-7.324600 0.000000
-7.303700 0.000000
-7.282800 0.000000
-7.261800 0.000000
-7.240900 0.000000
-7.220000 0.000000
-7.199100 0.000000
-7.178200 0.000000
-7.157300 0.000000
-7.136400 0.000000
-7.115500 0.000000
-7.094600 0.000000
-7.073700 0.000000
-7.052700 0.000000
-7.031800 0.000000
-7.010900 0.000000
-6.990000 0.000000
-6.969100 0.000000
-6.948200 0.000000
-6.927300 0.000000
-6.906400 0.000000
-6.885500 0.000000
-6.864600 0.000000
-6.843700 0.000000
-6.822700 0.000000
-6.801800 0.000000
-6.780900 0.000000
-6.760000 0.000000
-6.739100 0.000000
-6.718200 0.000000
-6.697300 0.000000
-6.676400 0.000000
-6.655500 0.000000
-6.634600 0.000000
-6.613600 0.000000
-6.592700 0.000000
-6.571800 0.000000
-6.550900 0.000000
-6.530000 0.000000
-6.509100 0.000000
-6.488200 0.000000
-6.467300 0.000000
-6.446400 0.000000
-6.425500 0.000000
-6.404500 0.000000
-6.383600 0.000000
-6.362700 0.000000
-6.341800 0.000000
-6.320900 0.000000
-6.300000 0.000000
-6.279100 0.000000
-6.258200 0.000000
-6.237300 0.000000
-6.216400 0.000000
-6.195400 0.000000
-6.174500 0.000000
-6.153600 0.000000
-6.132700 0.000000
-6.111800 0.000000
-6.090900 0.000000
-6.070000 0.000000
-6.049100 0.000000
-6.028200 0.000000
-6.007300 0.000000
-5.986400 0.000000
-5.965400 0.000000
-5.944500 0.000000
-5.923600 0.000000
-5.902700 0.000000
-5.881800 0.000000
-5.860900 0.000000
-5.840000 0.000000
-5.819100 0.000000
-5.798200 0.000000
-5.777300 0.000000
-5.756300 0.000000
-5.735400 0.000000
-5.714500 0.000000
-5.693600 0.000000
-5.672700 0.000000
-5.651800 0.000000
-5.630900 0.000000
-5.610000 0.000000
-5.589100 0.000000
-5.568200 0.000000
-5.547200 0.000000
-5.526300 0.000000
-5.505400 0.000000
-5.484500 0.000000
-5.463600 0.000000
-5.442700 0.000000
-5.421800 0.000000
-5.400900 0.000000
-5.380000 0.000000
-5.359100 0.000000
-5.338200 0.000000
-5.317200 0.000000
-5.296300 0.000000
-5.275400 0.000000
-5.254500 0.000000
-5.233600 0.000000
-5.212700 0.000000
-5.191800 0.000000
-5.170900 0.000000
-5.150000 0.000000
-5.129100 0.000000
-5.108100 0.000000
-5.087200 0.000000
-5.066300 0.000000
-5.045400 0.000000
-5.024500 0.000000
-5.003600 0.000000
-4.982700 0.000000
-4.961800 0.000000
-4.940900 0.000000
-4.920000 0.000000
-4.899000 0.000000
-4.878100 0.000000
-4.857200 0.000000
-4.836300 0.000000
-4.815400 0.000000
-4.794500 0.000000
-4.773600 0.000000
-4.752700 0.000000
-4.731800 0.000000
-4.710900 0.000000
-4.689900 0.000000
-4.669000 0.000000
-4.648100 0.000000
-4.627200 0.000000
-4.606300 0.000000
-4.585400 0.000000
-4.564500 0.000000
-4.543600 0.000000
-4.522700 0.000000
-4.501800 0.000000
-4.480900 0.000000
-4.459900 0.000000
-4.439000 0.000000
-4.418100 0.000000
-4.397200 0.000000
-4.376300 0.000000
-4.355400 0.000000
-4.334500 0.000000
-4.313600 0.000000
-4.292700 0.000000
-4.271800 0.000000
-4.250800 0.000000
-4.229900 0.000000
-4.209000 0.000000
-4.188100 0.000000
-4.167200 0.000000
-4.146300 0.000000
-4.125400 0.000000
-4.104500 0.000000
-4.083600 0.000000
-4.062700 0.000000
-4.041700 0.000000
-4.020800 0.000000
-3.999900 0.000000
-3.979000 0.000000
-3.958100 0.000000
-3.937200 0.000000
-3.916300 0.000000
-3.895400 0.000000
-3.874500 0.000000
-3.853600 0.000000
-3.832700 0.000000
-3.811700 0.000000
-3.790800 0.000000
-3.769900 0.000000
-3.749000 0.000000
-3.728100 0.000000
-3.707200 0.000000
-3.686300 0.000000
-3.665400 0.000000
-3.644500 0.000000
-3.623600 0.000000
-3.602600 0.000000
-3.581700 0.000000
-3.560800 0.000000
-3.539900 0.000000
-3.519000 0.000000
-3.498100 0.000000
-3.477200 0.000000
-3.456300 0.000000
-3.435400 0.000000
-3.414500 0.000000
-3.393500 0.000000
-3.372600 0.000000
-3.351700 0.000000
-3.330800 0.000000
-3.309900 0.000000
-3.289000 0.000000
-3.268100 0.000000
-3.247200 0.000000
-3.226300 0.000000
-3.205400 0.000000
-3.184400 0.000000
-3.163500 0.000000
-3.142600 0.000000
-3.121700 0.000000
-3.100800 0.000000
-3.079900 0.000000
-3.059000 0.000000
-3.038100 0.000000
-3.017200 0.000000
-2.996300 0.000000
-2.975400 0.000000
-2.954400 0.000000
-2.933500 0.000000
-2.912600 0.000000
-2.891700 0.000000
-2.870800 0.000000
-2.849900 0.000000
-2.829000 0.000000
-2.808100 0.000000
-2.787200 0.000000
-2.766300 0.000000
-2.745300 0.000000
-2.724400 0.000000
-2.703500 0.000000
-2.682600 0.000000
-2.661700 0.000000
-2.640800 0.000000
-2.619900 0.000000
-2.599000 0.000000
-2.578100 0.000000
-2.557200 0.000000
-2.536200 0.000000
-2.515300 0.000000
-2.494400 0.000000
-2.473500 0.000000
-2.452600 0.000000
-2.431700 0.000000
-2.410800 0.000400
-2.389900 0.002200
-2.369000 0.009600
-2.348100 0.029600
-2.327200 0.065000
-2.306200 0.102100
-2.285300 0.116700
-2.264400 0.105400
-2.243500 0.099900
-2.222600 0.135200
-2.201700 0.211000
-2.180800 0.285600
-2.159900 0.307800
-2.139000 0.267600
-2.118100 0.219700
-2.097100 0.234100
-2.076200 0.317400
-2.055300 0.398900
-2.034400 0.401700
-2.013500 0.320300
-1.992600 0.227800
-1.971700 0.215800
-1.950800 0.324500
-1.929900 0.504000
-1.909000 0.630600
-1.888000 0.607900
-1.867100 0.481500
-1.846200 0.410200
-1.825300 0.495300
-1.804400 0.667600
-1.783500 0.754900
-1.762600 0.667100
-1.741700 0.499000
-1.720800 0.418100
-1.699900 0.472000
-1.678900 0.547000
-1.658000 0.514100
-1.637100 0.378900
-1.616200 0.270600
-1.595300 0.308800
-1.574400 0.493600
-1.553500 0.693300
-1.532600 0.756700
-1.511700 0.672800
-1.490800 0.585600
-1.469900 0.618900
-1.448900 0.725500
-1.428000 0.752800
-1.407100 0.640400
-1.386200 0.497000
-1.365300 0.461900
-1.344400 0.533000
-1.323500 0.575800
-1.302600 0.505900
-1.281700 0.411700
-1.260800 0.448600
-1.239800 0.634600
-1.218900 0.799900
-1.198000 0.780900
-1.177100 0.626800
-1.156200 0.514000
-1.135300 0.506300
-1.114400 0.523900
-1.093500 0.502900
-1.072600 0.469800
-1.051700 0.481900
-1.030700 0.565400
-1.009800 0.680300
-0.988900 0.740000
-0.968000 0.722300
-0.947100 0.715900
-0.926200 0.782500
-0.905300 0.847600
-0.884400 0.821000
-0.863500 0.750500
-0.842600 0.744500
-0.821700 0.794500
-0.800700 0.795000
-0.779800 0.718000
-0.758900 0.643300
-0.738000 0.609600
-0.717100 0.557700
-0.696200 0.454000
-0.675300 0.377400
-0.654400 0.433800
-0.633500 0.616400
-0.612600 0.797500
-0.591600 0.882200
-0.570700 0.924400
-0.549800 1.002500
-0.528900 1.052100
-0.508000 0.973600
-0.487100 0.824000
-0.466200 0.740000
-0.445300 0.758400
-0.424400 0.832400
-0.403500 0.937600
-0.382500 1.049200
-0.361600 1.083700
-0.340700 1.003500
-0.319800 0.935600
-0.298900 1.027900
-0.278000 1.225100
-0.257100 1.340100
-0.236200 1.302400
-0.215300 1.200300
-0.194400 1.131900
-0.173500 1.123200
-0.152500 1.145100
-0.131600 1.163100
-0.110700 1.191400
-0.089800 1.261300
-0.068900 1.339500
-0.048000 1.359800
-0.027100 1.322100
-0.006200 1.296200
0.014700 1.333400
0.035600 1.394700
0.056600 1.371200
0.077500 1.212000
0.098400 1.017200
0.119300 0.944600
0.140200 1.020800
0.161100 1.100700
0.182000 1.035300
0.202900 0.839800
0.223800 0.673600
0.244700 0.682500
0.265700 0.852600
0.286600 1.008200
0.307500 0.982900
0.328400 0.779400
0.349300 0.529100
0.370200 0.350200
0.391100 0.288500
0.412000 0.341600
0.432900 0.459200
0.453800 0.537500
0.474800 0.498400
0.495700 0.371900
0.516600 0.251300
0.537500 0.189500
0.558400 0.177800
0.579300 0.197100
0.600200 0.232900
0.621100 0.252800
0.642000 0.230600
0.662900 0.189300
0.683800 0.170200
0.704800 0.177300
0.725700 0.184300
0.746600 0.171000
0.767500 0.139100
0.788400 0.114600
0.809300 0.130600
0.830200 0.185500
0.851100 0.227300
0.872000 0.207100
0.892900 0.137500
0.913900 0.075200
0.934800 0.063100
0.955700 0.107900
0.976600 0.180400
0.997500 0.224500
1.018400 0.202600
1.039300 0.142300
1.060200 0.120100
1.081100 0.210700
1.102000 0.438900
1.123000 0.729100
1.143900 0.935600
1.164800 0.997200
1.185700 1.023000
1.206600 1.174600
1.227500 1.498800
1.248400 1.870200
1.269300 2.093200
1.290200 2.107800
1.311100 2.033900
1.332000 1.993200
1.353000 2.036100
1.373900 2.221600
1.394800 2.574100
1.415700 2.991400
1.436600 3.346500
1.457500 3.648700
1.478400 3.990400
1.499300 4.352300
1.520200 4.601500
1.541100 4.721400
1.562100 4.871600
1.583000 5.146700
1.603900 5.446000
1.624800 5.637600
1.645700 5.692700
1.666600 5.641900
1.687500 5.570300
1.708400 5.659600
1.729300 6.043200
1.750200 6.602300
1.771200 7.087400
1.792100 7.457200
1.813000 7.921400
1.833900 8.608800
1.854800 9.376700
1.875700 9.979400
1.896600 10.264400
1.917500 10.247600
1.938400 10.075700
1.959300 9.887800
1.980300 9.775000
2.001200 9.797600
2.022100 9.907800
2.043000 9.962900
2.063900 9.926100
2.084800 10.003600
2.105700 10.450800
2.126600 11.228400
2.147500 12.017600
2.168400 12.601700
2.189300 13.020600
2.210300 13.293200
2.231200 13.214200
2.252100 12.579500
2.273000 11.576300
2.293900 10.787900
2.314800 10.630200
2.335700 10.902000
2.356600 11.105500
2.377500 10.991800
2.398400 10.626200
2.419400 10.221900
2.440300 9.987600
2.461200 9.949400
2.482100 9.995200
2.503000 10.073400
2.523900 10.162800
2.544800 10.161900
2.565700 9.943300
2.586600 9.451700
2.607500 8.722900
2.628500 7.817200
2.649400 6.822100
2.670300 5.997200
2.691200 5.709600
2.712100 6.028700
2.733000 6.558100
2.753900 6.850200
2.774800 6.849600
2.795700 6.787700
2.816600 6.821800
2.837500 6.959400
2.858500 7.194500
2.879400 7.525900
2.900300 7.861200
2.921200 8.077900
2.942100 8.205200
2.963000 8.327600
2.983900 8.336700
3.004800 8.031300
3.025700 7.397900
3.046600 6.596800
3.067600 5.785400
3.088500 5.117600
3.109400 4.746300
3.130300 4.639600
3.151200 4.596600
3.172100 4.582300
3.193000 4.782800
3.213900 5.286700
3.234800 5.966300
3.255700 6.656300
3.276700 7.290400
3.297600 7.882800
3.318500 8.430800
3.339400 8.791500
3.360300 8.724600
3.381200 8.237000
3.402100 7.773400
3.423000 7.797600
3.443900 8.267400
3.464800 8.689000
3.485800 8.620900
3.506700 8.071900
3.527600 7.456700
3.548500 7.191600
3.569400 7.373300
3.590300 7.776000
3.611200 8.045200
3.632100 8.007100
3.653000 7.862500
3.673900 7.960500
3.694800 8.362200
3.715800 8.714000
3.736700 8.608700
3.757600 8.042500
3.778500 7.394100
3.799400 6.961900
3.820300 6.702600
3.841200 6.455600
3.862100 6.207800
3.883000 6.017600
3.903900 5.837600
3.924900 5.573000
3.945800 5.250300
3.966700 5.028200
3.987600 5.055600
4.008500 5.315700
4.029400 5.572400
4.050300 5.530000
4.071200 5.146900
4.092100 4.766400
4.113000 4.833300
4.134000 5.414700
4.154900 6.077800
4.175800 6.451200
4.196700 6.795200
4.217600 7.669200
4.238500 9.170300
4.259400 10.804800
4.280300 11.983500
4.301200 12.456200
4.322100 12.319800
4.343000 11.786300
4.364000 11.057800
4.384900 10.362000
4.405800 9.945400
4.426700 9.914700
4.447600 10.066800
4.468500 10.049800
4.489400 9.806900
4.510300 9.605700
4.531200 9.596400
4.552100 9.713700
4.573100 9.922900
4.594000 10.193100
4.614900 10.358000
4.635800 10.223600
4.656700 9.731500
4.677600 9.002400
4.698500 8.263600
4.719400 7.650600
4.740300 7.056100
4.761200 6.270100
4.782200 5.290200
4.803100 4.384500
4.824000 3.849900
4.844900 3.785600
4.865800 4.079000
4.886700 4.555000
4.907600 5.073600
4.928500 5.521700
4.949400 5.848500
4.970300 6.087800
4.991300 6.250800
5.012200 6.268000
5.033100 6.121100
5.054000 5.958800
5.074900 5.992900
5.095800 6.266100
5.116700 6.548200
5.137600 6.507600
5.158500 6.010700
5.179400 5.226600
5.200300 4.405600
5.221300 3.662100
5.242200 3.034000
5.263100 2.562300
5.284000 2.225600
5.304900 1.927500
5.325800 1.616500
5.346700 1.356700
5.367600 1.257400
5.388500 1.352500
5.409400 1.531600
5.430400 1.608600
5.451300 1.513000
5.472200 1.388700
5.493100 1.428700
5.514000 1.632800
5.534900 1.801800
5.555800 1.790000
5.576700 1.676200
5.597600 1.618800
5.618500 1.644300
5.639500 1.653000
5.660400 1.559400
5.681300 1.382600
5.702200 1.227800
5.723100 1.181900
5.744000 1.231500
5.764900 1.295100
5.785800 1.310300
5.806700 1.275400
5.827600 1.228200
5.848500 1.180100
5.869500 1.101200
5.890400 1.014000
5.911300 1.015700
5.932200 1.132700
5.953100 1.248000
5.974000 1.234300
5.994900 1.102800
6.015800 0.995200
6.036700 1.046800
6.057600 1.283700
6.078600 1.626800
6.099500 1.911200
6.120400 1.946000
6.141300 1.682900
6.162200 1.300700
6.183100 1.040500
6.204000 0.983300
6.224900 1.046400
6.245800 1.140400
6.266700 1.237900
6.287700 1.322600
6.308600 1.348000
6.329500 1.248500
6.350400 1.022500
6.371300 0.784300
6.392200 0.675900
6.413100 0.752200
6.434000 0.958200
6.454900 1.159300
6.475800 1.212800
6.496800 1.074300
6.517700 0.833600
6.538600 0.626600
6.559500 0.539200
6.580400 0.589700
6.601300 0.728000
6.622200 0.850800
6.643100 0.903400
6.664000 0.957400
6.684900 1.126800
6.705800 1.433300
6.726800 1.768000
6.747700 1.942700
6.768600 1.832500
6.789500 1.535200
6.810400 1.302700
6.831300 1.275100
6.852200 1.375200
6.873100 1.465400
6.894000 1.492400
6.914900 1.455000
6.935900 1.355900
6.956800 1.235400
6.977700 1.151300
6.998600 1.097100
7.019500 1.029000
7.040400 0.960900
7.061300 0.939200
7.082200 0.969900
7.103100 1.044000
7.124000 1.153800
7.145000 1.244000
7.165900 1.232200
7.186800 1.109400
7.207700 0.979500
7.228600 0.966400
7.249500 1.080800
7.270400 1.224600
7.291300 1.325800
7.312200 1.398100
7.333100 1.488700
7.354000 1.619000
7.375000 1.747600
7.395900 1.799700
7.416800 1.729800
7.437700 1.515700
7.458600 1.163200
7.479500 0.782700
7.500400 0.563500
7.521300 0.607500
7.542200 0.830100
7.563100 1.034800
7.584100 1.077000
7.605000 0.981500
7.625900 0.902900
7.646800 0.954500
7.667700 1.101900
7.688600 1.233700
7.709500 1.264900
7.730400 1.164100
7.751300 0.977100
7.772200 0.816600
7.793200 0.777000
7.814100 0.882200
7.835000 1.085800
7.855900 1.278700
7.876800 1.366100
7.897700 1.356000
7.918600 1.320800
7.939500 1.309100
7.960400 1.333900
7.981300 1.387300
8.002300 1.419600
8.023200 1.365900
8.044100 1.243400
8.065000 1.161100
8.085900 1.205100
8.106800 1.384100
8.127700 1.654200
8.148600 1.887700
8.169500 1.887600
8.190400 1.591600
8.211300 1.186400
8.232300 0.903700
8.253200 0.801200
8.274100 0.804300
8.295000 0.861600
8.315900 0.999700
8.336800 1.239000
8.357700 1.477300
8.378600 1.534100
8.399500 1.349100
8.420400 1.060500
8.441400 0.857400
8.462300 0.838800
8.483200 1.009800
8.504100 1.298400
8.525000 1.561900
8.545900 1.671600
8.566800 1.616000
8.587700 1.489200
8.608600 1.376700
8.629500 1.268200
8.650500 1.102600
8.671400 0.874800
8.692300 0.641200
8.713200 0.452900
8.734100 0.347600
8.755000 0.380100
8.775900 0.583600
8.796800 0.871000
8.817700 1.043500
8.838600 0.987500
8.859500 0.807000
8.880500 0.680600
8.901400 0.663700
8.922300 0.707600
8.943200 0.776200
8.964100 0.861200
8.985000 0.939600
9.005900 1.014400
9.026800 1.155800
9.047700 1.407900
9.068600 1.702800
9.089600 1.920700
9.110500 1.969100
9.131400 1.814800
9.152300 1.510300
9.173200 1.152700
9.194100 0.806500
9.215000 0.522700
9.235900 0.386400
9.256800 0.457200
9.277700 0.678700
9.298700 0.905100
9.319600 1.033400
9.340500 1.078000
9.361400 1.116500
9.382300 1.206400
9.403200 1.348100
9.424100 1.477400
9.445000 1.515600
9.465900 1.447500
9.486800 1.301100
9.507800 1.099100
9.528700 0.896600
9.549600 0.770500
9.570500 0.733700
9.591400 0.749500
9.612300 0.821100
9.633200 0.969000
9.654100 1.126200
9.675000 1.179500
9.695900 1.118900
9.716800 1.018000
9.737800 0.900200
9.758700 0.758000
9.779600 0.637900
9.800500 0.591600
9.821400 0.604500
9.842300 0.651700
9.863200 0.751300
9.884100 0.895500
9.905000 1.008800
9.925900 1.040200
9.946900 1.042000
9.967800 1.100700
9.988700 1.205300
10.009600 1.239500
10.030500 1.135800
10.051400 0.970300
10.072300 0.865400
10.093200 0.885900
10.114100 1.027000
10.135000 1.209200
10.156000 1.321700
10.176900 1.331600
10.197800 1.269000
10.218700 1.119900
10.239600 0.871600
10.260500 0.616000
10.281400 0.471200
10.302300 0.444700
10.323200 0.459700
10.344100 0.468600
10.365000 0.472700
10.386000 0.464800
10.406900 0.442600
10.427800 0.471300
10.448700 0.622200
10.469600 0.832200
10.490500 0.940700
10.511400 0.899400
10.532300 0.828900
10.553200 0.847200
10.574100 0.954400
10.595100 1.088100
10.616000 1.191700
10.636900 1.214700
10.657800 1.135600
10.678700 1.023900
10.699600 0.987500
10.720500 1.038300
10.741400 1.120300
10.762300 1.215700
10.783200 1.302700
10.804200 1.304000
10.825100 1.180700
10.846000 1.006200
10.866900 0.902900
10.887800 0.936700
10.908700 1.067200
10.929600 1.194900
10.950500 1.246600
10.971400 1.205700
10.992300 1.108000
11.013300 1.015600
11.034200 0.941800
11.055100 0.838600
11.076000 0.691900
11.096900 0.557100
11.117800 0.470700
11.138700 0.407600
11.159600 0.342400
11.180500 0.315600
11.201400 0.412300
11.222300 0.655000
11.243300 0.931300
11.264200 1.084800
11.285100 1.082600
11.306000 1.029600
11.326900 1.020800
11.347800 1.061900
11.368700 1.126100
11.389600 1.190400
11.410500 1.201100
11.431400 1.097500
11.452400 0.908500
11.473300 0.743400
11.494200 0.653700
11.515100 0.587900
11.536000 0.503000
11.556900 0.436800
11.577800 0.439900
11.598700 0.498000
11.619600 0.566400
11.640500 0.653100
11.661500 0.809400
11.682400 1.027400
11.703300 1.193600
11.724200 1.193900
11.745100 1.054100
11.766000 0.923400
11.786900 0.913700
11.807800 1.011500
11.828700 1.150100
11.849600 1.274300
11.870500 1.334200
11.891500 1.333200
11.912400 1.364300
11.933300 1.498400
11.954200 1.688200
11.975100 1.834100
11.996000 1.877700
12.016900 1.830000
12.037800 1.758400
12.058700 1.698800
12.079600 1.591800
12.100600 1.378200
12.121500 1.110600
12.142400 0.924100
12.163300 0.923600
12.184200 1.111000
12.205100 1.395100
12.226000 1.642000
12.246900 1.760700
12.267800 1.772700
12.288700 1.749500
12.309700 1.718300
12.330600 1.692100
12.351500 1.679400
12.372400 1.625100
12.393300 1.474800
12.414200 1.285300
12.435100 1.168000
12.456000 1.176000
12.476900 1.301700
12.497800 1.492400
12.518800 1.637600
12.539700 1.669300
12.560600 1.691400
12.581500 1.837900
12.602400 2.012800
12.623300 2.003500
12.644200 1.839200
12.665100 1.781400
12.686000 1.966300
12.706900 2.263100
12.727800 2.451700
12.748800 2.421200
12.769700 2.256500
12.790600 2.151500
12.811500 2.181900
12.832400 2.210300
12.853300 2.036600
12.874200 1.612200
12.895100 1.118300
12.916000 0.821400
12.936900 0.835400
12.957900 1.063700
12.978800 1.330600
12.999700 1.498900
13.020600 1.523900
13.041500 1.465600
13.062400 1.413500
13.083300 1.401900
13.104200 1.409200
13.125100 1.371200
13.146000 1.224500
13.167000 1.004000
13.187900 0.823500
13.208800 0.731700
13.229700 0.687700
13.250600 0.698200
13.271500 0.895200
13.292400 1.410500
13.313300 2.163400
13.334200 2.824500
13.355100 3.068900
13.376000 2.869900
13.397000 2.463300
13.417900 2.058400
13.438800 1.696700
13.459700 1.369600
13.480600 1.137300
13.501500 1.068400
13.522400 1.146400
13.543300 1.298600
13.564200 1.455700
13.585100 1.552800
13.606100 1.562900
13.627000 1.542100
13.647900 1.559900
13.668800 1.618200
13.689700 1.688000
13.710600 1.748600
13.731500 1.765400
13.752400 1.695100
13.773300 1.523800
13.794200 1.296700
13.815200 1.103700
13.836100 1.008300
13.857000 1.024700
13.877900 1.160700
13.898800 1.415400
13.919700 1.749400
13.940600 2.095900
13.961500 2.383200
13.982400 2.550000
14.003300 2.548800
14.024300 2.358000
14.045200 2.039500
14.066100 1.739500
14.087000 1.557100
14.107900 1.476700
14.128800 1.455900
14.149700 1.476300
14.170600 1.491600
14.191500 1.437800
14.212400 1.316400
14.233300 1.191400
14.254300 1.110500
14.275200 1.083900
14.296100 1.122700
14.317000 1.242800
14.337900 1.438600
14.358800 1.680200
14.379700 1.913200
14.400600 2.073700
14.421500 2.113400
14.442400 1.988000
14.463400 1.690900
14.484300 1.325500
14.505200 1.034400
14.526100 0.858000
14.547000 0.757500
14.567900 0.738600
14.588800 0.858600
14.609700 1.119100
14.630600 1.403100
14.651500 1.556100
14.672500 1.531100
14.693400 1.409900
14.714300 1.283300
14.735200 1.162100
14.756100 1.023300
14.777000 0.911400
14.797900 0.946500
14.818800 1.200100
14.839700 1.577900
14.860600 1.883000
14.881500 2.020200
14.902500 2.056800
14.923400 2.058400
14.944300 1.996500
14.965200 1.866500
14.986100 1.794400
15.007000 1.938700
15.027900 2.284700
15.048800 2.588300
15.069700 2.584600
15.090600 2.243800
15.111600 1.793500
15.132500 1.526300
15.153400 1.582600
15.174300 1.851400
15.195200 2.078500
15.216100 2.120400
15.237000 2.042800
15.257900 1.930600
15.278800 1.745600
15.299700 1.475400
15.320700 1.253400
15.341600 1.190700
15.362500 1.206700
15.383400 1.161600
15.404300 1.089900
15.425200 1.180300
15.446100 1.530700
15.467000 1.975200
15.487900 2.199600
15.508800 2.065700
15.529800 1.759300
15.550700 1.550500
15.571600 1.495800
15.592500 1.451800
15.613400 1.303800
15.634300 1.084900
15.655200 0.883400
15.676100 0.755800
15.697000 0.745400
15.717900 0.852000
15.738800 0.979000
15.759800 1.019500
15.780700 0.977500
15.801600 0.948800
15.822500 1.024500
15.843400 1.219900
15.864300 1.439100
15.885200 1.535800
15.906100 1.479900
15.927000 1.401800
15.947900 1.399900
15.968900 1.410900
15.989800 1.344800
16.010700 1.249100
16.031600 1.237100
16.052500 1.322700
16.073400 1.450500
16.094300 1.601300
16.115200 1.732800
16.136100 1.740200
16.157000 1.612400
16.178000 1.510400
16.198900 1.598800
16.219800 1.856700
16.240700 2.090200
16.261600 2.142800
16.282500 2.075400
16.303400 2.067300
16.324300 2.181900
16.345200 2.313400
16.366100 2.325600
16.387000 2.162500
16.408000 1.851500
16.428900 1.486500
16.449800 1.200800
16.470700 1.084900
16.491600 1.148700
16.512500 1.372300
16.533400 1.705200
16.554300 2.011900
16.575200 2.144300
16.596100 2.110300
16.617100 2.056600
16.638000 2.033900
16.658900 1.913400
16.679800 1.600200
16.700700 1.192200
16.721600 0.868200
16.742500 0.734700
16.763400 0.819700
16.784300 1.124100
16.805200 1.601300
16.826200 2.099000
16.847100 2.447500
16.868000 2.656400
16.888900 2.856500
16.909800 3.023200
16.930700 2.966000
16.951600 2.614800
16.972500 2.146400
16.993400 1.806700
17.014300 1.700300
17.035300 1.776500
17.056200 1.947300
17.077100 2.135000
17.098000 2.247800
17.118900 2.230700
17.139800 2.118700
17.160700 1.947000
17.181600 1.703200
17.202500 1.467500
17.223400 1.424100
17.244300 1.605400
17.265300 1.800000
17.286200 1.805600
17.307100 1.629900
17.328000 1.426200
17.348900 1.351200
17.369800 1.475800
17.390700 1.728300
17.411600 1.920700
17.432500 1.925400
17.453400 1.840400
17.474400 1.858700
17.495300 1.972500
17.516200 1.996700
17.537100 1.883800
17.558000 1.781800
17.578900 1.794500
17.599800 1.887300
17.620700 1.976300
17.641600 1.987200
17.662500 1.921300
17.683500 1.901400
17.704400 2.043600
17.725300 2.308700
17.746200 2.578500
17.767100 2.798200
17.788000 2.927100
17.808900 2.859000
17.829800 2.578100
17.850700 2.306500
17.871600 2.269300
17.892500 2.393000
17.913500 2.463100
17.934400 2.447500
17.955300 2.420600
17.976200 2.319600
17.997100 2.032700
18.018000 1.653000
18.038900 1.448200
18.059800 1.558300
18.080700 1.828900
18.101600 2.002000
18.122600 2.003500
18.143500 1.961000
18.164400 1.998000
18.185300 2.099400
18.206200 2.180000
18.227100 2.212800
18.248000 2.210300
18.268900 2.183500
18.289800 2.225700
18.310700 2.443100
18.331700 2.704600
18.352600 2.723000
18.373500 2.448300
18.394400 2.104400
18.415300 1.850400
18.436200 1.668900
18.457100 1.508000
18.478000 1.351400
18.498900 1.237400
18.519800 1.230600
18.540800 1.303300
18.561700 1.349100
18.582600 1.351200
18.603500 1.388000
18.624400 1.466800
18.645300 1.503800
18.666200 1.494200
18.687100 1.587900
18.708000 1.910400
18.728900 2.341000
18.749800 2.576500
18.770800 2.465200
18.791700 2.164200
18.812600 1.908600
18.833500 1.789100
18.854400 1.817500
18.875300 2.003300
18.896200 2.275300
18.917100 2.492100
18.938000 2.591100
18.958900 2.590600
18.979900 2.484600
19.000800 2.305400
19.021700 2.198000
19.042600 2.279200
19.063500 2.492500
19.084400 2.673300
19.105300 2.732600
19.126200 2.764600
19.147100 2.909600
19.168000 3.117300
19.189000 3.178100
19.209900 2.964400
19.230800 2.544300
19.251700 2.109600
19.272600 1.841500
19.293500 1.797300
19.314400 1.928600
19.335300 2.164500
19.356200 2.386300
19.377100 2.434800
19.398000 2.263800
19.419000 1.968100
19.439900 1.661300
19.460800 1.449200
19.481700 1.413600
19.502600 1.522200
19.523500 1.670100
19.544400 1.797100
19.565300 1.868700
19.586200 1.851700
19.607100 1.795400
19.628100 1.810400
19.649000 1.923000
19.669900 2.052400
19.690800 2.104300
19.711700 2.014900
19.732600 1.770600
19.753500 1.426700
19.774400 1.093000
19.795300 0.892600
19.816200 0.880700
19.837200 0.984400
19.858100 1.071800
19.879000 1.112500
19.899900 1.238500
19.920800 1.575400
19.941700 2.042900
19.962600 2.440000
19.983500 2.689500
20.004400 2.851300
20.025300 2.943100
20.046300 2.912700
20.067200 2.764000
20.088100 2.565800
20.109000 2.350400
20.129900 2.130000
20.150800 1.975100
20.171700 1.921300
20.192600 1.859700
20.213500 1.716000
20.234400 1.656000
20.255300 1.900200
20.276300 2.390500
20.297200 2.816600
20.318100 2.962200
20.339000 2.872100
20.359900 2.669500
20.380800 2.402700
20.401700 2.133500
20.422600 2.005300
20.443500 2.105700
20.464400 2.340800
20.485400 2.548600
20.506300 2.673300
20.527200 2.747900
20.548100 2.789100
20.569000 2.774000
20.589900 2.672600
20.610800 2.497600
20.631700 2.313500
20.652600 2.158700
20.673500 2.013500
20.694500 1.862500
20.715400 1.754600
20.736300 1.814800
20.757200 2.122800
20.778100 2.518000
20.799000 2.689500
20.819900 2.518500
20.840800 2.138000
20.861700 1.710800
20.882600 1.371100
20.903500 1.249300
20.924500 1.374400
20.945400 1.667100
20.966300 2.069400
20.987200 2.520100
21.008100 2.846100
21.029000 2.909000
21.049900 2.775600
21.070800 2.539200
21.091700 2.164700
21.112600 1.696800
21.133600 1.397100
21.154500 1.490500
21.175400 1.872400
21.196300 2.192900
21.217200 2.254900
21.238100 2.204200
21.259000 2.256000
21.279900 2.389000
21.300800 2.423400
21.321700 2.302100
21.342700 2.186300
21.363600 2.256000
21.384500 2.480800
21.405400 2.695800
21.426300 2.828500
21.447200 2.870400
21.468100 2.736700
21.489000 2.374000
21.509900 1.916500
21.530800 1.586700
21.551800 1.493700
21.572700 1.591100
21.593600 1.768500
21.614500 1.931600
21.635400 2.034800
21.656300 2.083700
21.677200 2.111900
21.698100 2.161200
21.719000 2.260000
21.739900 2.376100
21.760800 2.432300
21.781800 2.426000
21.802700 2.444800
21.823600 2.516100
21.844500 2.614800
21.865400 2.828300
21.886300 3.239900
21.907200 3.672400
21.928100 3.836500
21.949000 3.698200
21.969900 3.485500
21.990900 3.365000
22.011800 3.288500
22.032700 3.161300
22.053600 3.000700
22.074500 2.889500
22.095400 2.860700
22.116300 2.848200
22.137200 2.783000
22.158100 2.689500
22.179000 2.601400
22.200000 2.489200
22.220900 2.340200
22.241800 2.212400
22.262700 2.183000
22.283600 2.274600
22.304500 2.409100
22.325400 2.432700
22.346300 2.275100
22.367200 2.071100
22.388100 2.034400
22.409000 2.226100
22.430000 2.499600
22.450900 2.671300
22.471800 2.697300
22.492700 2.636700
22.513600 2.528000
22.534500 2.417500
22.555400 2.416900
22.576300 2.578800
22.597200 2.774000
22.618100 2.816600
22.639100 2.648600
22.660000 2.328500
22.680900 1.972100
22.701800 1.738300
22.722700 1.727200
22.743600 1.850300
22.764500 1.900400
22.785400 1.794300
22.806300 1.661700
22.827200 1.688400
22.848200 1.964900
22.869100 2.411100
22.890000 2.766400
22.910900 2.807400
22.931800 2.600000
22.952700 2.336300
22.973600 2.028900
22.994500 1.640400
23.015400 1.348000
23.036300 1.377300
23.057300 1.679900
23.078200 1.971800
23.099100 2.025100
23.120000 1.839200
23.140900 1.573900
23.161800 1.373800
23.182700 1.281400
23.203600 1.299500
23.224500 1.432800
23.245400 1.617300
23.266300 1.736400
23.287300 1.786300
23.308200 1.907400
23.329100 2.206800
23.350000 2.648600
23.370900 3.102900
23.391800 3.413200
23.412700 3.462400
23.433600 3.231500
23.454500 2.797800
23.475400 2.340200
23.496400 2.084200
23.517300 2.100100
23.538200 2.238500
23.559100 2.336300
23.580000 2.386100
23.600900 2.473300
23.621800 2.605300
23.642700 2.654000
23.663600 2.481900
23.684500 2.099500
23.705500 1.669100
23.726400 1.332600
23.747300 1.095400
23.768200 0.950100
23.789100 0.989200
23.810000 1.289100
23.830900 1.775200
23.851800 2.245000
23.872700 2.473800
23.893600 2.393300
23.914500 2.208000
23.935500 2.165800
23.956400 2.240100
23.977300 2.225900
23.998200 2.050600
24.019100 1.817900
24.040000 1.626500
24.060900 1.481200
24.081800 1.382000
24.102700 1.411000
24.123600 1.651100
24.144600 2.030500
24.165500 2.354100
24.186400 2.497700
24.207300 2.450700
24.228200 2.192900
24.249100 1.707000
24.270000 1.113600
24.290900 0.648500
24.311800 0.485700
24.332700 0.619600
24.353700 0.884800
24.374600 1.066200
24.395500 1.039300
24.416400 0.855800
24.437300 0.702800
24.458200 0.741400
24.479100 0.984200
24.500000 1.350900
24.520900 1.768600
24.541800 2.144600
24.562800 2.330300
24.583700 2.227400
24.604600 1.914200
24.625500 1.604300
24.646400 1.465600
24.667300 1.510900
24.688200 1.658700
24.709100 1.833600
24.730000 2.015600
24.750900 2.237800
24.771800 2.508800
24.792800 2.757900
24.813700 2.892100
24.834600 2.862600
24.855500 2.688400
24.876400 2.457800
24.897300 2.270400
24.918200 2.157900
24.939100 2.082000
24.960000 1.996800
24.980900 1.897100
25.001900 1.822700
25.022800 1.809300
25.043700 1.828400
25.064600 1.838000
25.085500 1.871800
25.106400 1.955700
25.127300 1.982900
25.148200 1.828200
25.169100 1.536900
25.190000 1.288200
25.211000 1.245700
25.231900 1.512700
25.252800 2.094600
25.273700 2.797300
25.294600 3.309800
25.315500 3.504500
25.336400 3.499800
25.357300 3.381300
25.378200 3.100200
25.399100 2.705300
25.420000 2.451600
25.441000 2.534700
25.461900 2.821700
25.482800 2.996800
25.503700 2.921100
25.524600 2.708900
25.545500 2.503000
25.566400 2.364500
25.587300 2.371300
25.608200 2.614700
25.629100 3.039300
25.650100 3.404700
25.671000 3.452000
25.691900 3.138500
25.712800 2.724100
25.733700 2.529300
25.754600 2.587600
25.775500 2.625800
25.796400 2.378900
25.817300 1.858600
25.838200 1.322500
25.859200 1.047000
25.880100 1.163700
25.901000 1.615300
25.921900 2.150200
25.942800 2.443000
25.963700 2.378400
25.984600 2.154800
26.005500 2.021600
26.026400 2.032300
26.047300 2.109500
26.068200 2.207200
26.089200 2.323300
26.110100 2.413700
26.131000 2.402200
26.151900 2.308400
26.172800 2.241200
26.193700 2.249200
26.214600 2.320100
26.235500 2.471100
26.256400 2.685900
26.277300 2.857100
26.298300 2.907600
26.319200 2.872300
26.340100 2.790800
26.361000 2.652600
26.381900 2.489500
26.402800 2.342400
26.423700 2.154500
26.444600 1.878000
26.465500 1.624100
26.486400 1.550300
26.507400 1.628400
26.528300 1.654500
26.549200 1.525100
26.570100 1.372900
26.591000 1.373600
26.611900 1.569800
26.632800 1.913000
26.653700 2.333400
26.674600 2.733600
26.695500 2.991800
26.716500 3.064400
26.737400 3.065400
26.758300 3.103500
26.779200 3.088500
26.800100 2.893000
26.821000 2.614100
26.841900 2.467200
26.862800 2.523000
26.883700 2.674500
26.904600 2.785000
26.925500 2.818500
26.946500 2.859800
26.967400 2.972800
26.988300 3.042800
27.009200 2.872800
27.030100 2.460300
27.051000 2.053700
27.071900 1.863500
27.092800 1.837400
27.113700 1.813600
27.134600 1.758200
27.155600 1.776800
27.176500 2.001400
27.197400 2.461100
27.218300 2.984000
27.239200 3.327400
27.260100 3.449100
27.281000 3.495600
27.301900 3.543900
27.322800 3.526500
27.343700 3.385800
27.364700 3.201900
27.385600 3.152300
27.406500 3.374500
27.427400 3.867800
27.448300 4.502400
27.469200 5.172500
27.490100 5.953900
27.511000 7.099400
27.531900 9.061100
27.552800 12.752800
27.573700 19.859200
27.594700 32.387900
27.615600 50.426800
27.636500 69.280500
27.657400 80.407200
27.678300 77.816700
27.699200 63.530500
27.720100 45.416200
27.741000 30.404800
27.761900 20.688100
27.782800 14.943600
27.803800 11.194300
27.824700 8.345000
27.845600 6.191400
27.866500 4.833600
27.887400 4.176100
27.908300 3.910200
27.929200 3.872100
27.950100 4.146900
27.971000 4.770000
27.991900 5.629600
28.012900 6.789100
28.033800 8.620700
28.054700 11.161200
28.075600 13.385000
28.096500 13.901000
28.117400 12.581300
28.138300 10.785000
28.159200 9.873900
28.180100 9.927300
28.201000 9.852800
28.222000 8.647200
28.242900 6.468300
28.263800 4.287100
28.284700 2.773400
28.305600 1.914600
28.326500 1.431000
28.347400 1.125200
28.368300 0.900200
28.389200 0.710400
28.410100 0.560800
28.431000 0.471600
28.452000 0.411600
28.472900 0.321800
28.493800 0.199400
28.514700 0.094600
28.535600 0.043400
28.556500 0.047000
28.577400 0.093100
28.598300 0.158400
28.619200 0.204200
28.640100 0.198400
28.661100 0.145000
28.682000 0.079200
28.702900 0.032000
28.723800 0.009500
28.744700 0.002000
28.765600 0.000400
28.786500 0.000500
28.807400 0.003000
28.828300 0.014100
28.849200 0.047300
28.870200 0.113800
28.891100 0.198900
28.912000 0.258500
28.932900 0.262300
28.953800 0.222100
28.974700 0.163800
28.995600 0.102700
29.016500 0.051300
29.037400 0.019300
29.058300 0.005300
29.079200 0.001000
29.100200 0.000100
29.121100 0.000000
29.142000 0.000000
29.162900 0.000000
29.183800 0.000000
29.204700 0.000000
29.225600 0.000000
29.246500 0.000000
29.267400 0.000000
29.288300 0.000000
29.309300 0.000000
29.330200 0.000000
29.351100 0.000000
29.372000 0.000000
29.392900 0.000000
29.413800 0.000000
29.434700 0.000000
29.455600 0.000000
29.476500 0.000000
29.497400 0.000100
29.518400 0.000600
29.539300 0.003200
29.560200 0.012700
29.581100 0.036300
29.602000 0.073800
29.622900 0.106900
29.643800 0.110300
29.664700 0.081000
29.685600 0.042300
29.706500 0.015800
29.727500 0.004200
29.748400 0.000800
29.769300 0.000100
29.790200 0.000000
29.811100 0.000000
29.832000 0.000000
29.852900 0.000000
29.873800 0.000000
29.894700 0.000000
29.915600 0.000000
29.936500 0.000000
29.957500 0.000000
29.978400 0.000000
29.999300 0.000000
30.020200 0.000000
30.041100 0.000000
30.062000 0.000000
30.082900 0.000000
30.103800 0.000000
30.124700 0.000000
30.145600 0.000000
30.166600 0.000000
30.187500 0.000000
30.208400 0.000000
30.229300 0.000000
30.250200 0.000000
30.271100 0.000000
30.292000 0.000000
30.312900 0.000000
30.333800 0.000000
30.354700 0.000000
30.375700 0.000000
30.396600 0.000000
30.417500 0.000000
30.438400 0.000000
30.459300 0.000000
30.480200 0.000000
30.501100 0.000000
30.522000 0.000000
30.542900 0.000000
30.563800 0.000000
30.584700 0.000000
30.605700 0.000000
30.626600 0.000000
30.647500 0.000000
30.668400 0.000000
30.689300 0.000000
30.710200 0.000000
30.731100 0.000000
30.752000 0.000000
30.772900 0.000000
30.793800 0.000000
30.814800 0.000000
30.835700 0.000000
30.856600 0.000000
30.877500 0.000000
30.898400 0.000000
30.919300 0.000000
30.940200 0.000000
30.961100 0.000000
30.982000 0.000000
31.002900 0.000000
31.023900 0.000000
31.044800 0.000000
31.065700 0.000000
31.086600 0.000000
31.107500 0.000000
31.128400 0.000000
31.149300 0.000000
31.170200 0.000000
31.191100 0.000000
31.212000 0.000000
31.233000 0.000000
31.253900 0.000000
31.274800 0.000000
31.295700 0.000000
31.316600 0.000000
31.337500 0.000000
31.358400 0.000000
31.379300 0.000000
31.400200 0.000000
31.421100 0.000000
31.442000 0.000000
31.463000 0.000000
31.483900 0.000000
31.504800 0.000000
31.525700 0.000000
e
