set title 'mp-14285 - Density of States'
set xlabel 'Energy (eV)'
set ylabel 'DOS (states/eV)'
set grid
set xrange [-10:10]
set yrange [0:32.285]
set xzeroaxis lt -1
set terminal png size 800,600
set output 'mp-14285_dos_gnuplot.png'
plot '-' using 1:2 with lines title 'DOS'
-7.816400 0.000000
-7.803000 0.000000
-7.789600 0.000000
-7.776100 0.000000
-7.762700 0.000000
-7.749300 0.000000
-7.735800 0.000000
-7.722400 0.000000
-7.709000 0.000000
-7.695500 0.000000
-7.682100 0.000000
-7.668700 0.000000
-7.655200 0.000000
-7.641800 0.000000
-7.628400 0.000000
-7.614900 0.000000
-7.601500 0.000000
-7.588100 0.000000
-7.574600 0.000000
-7.561200 0.000000
-7.547800 0.000000
-7.534300 0.000000
-7.520900 0.000000
-7.507500 0.000000
-7.494000 0.000000
-7.480600 0.000000
-7.467200 0.000000
-7.453700 0.000000
-7.440300 0.000000
-7.426900 0.000000
-7.413500 0.000000
-7.400000 0.000000
-7.386600 0.000000
-7.373200 0.000000
-7.359700 0.000000
-7.346300 0.000000
-7.332900 0.000000
-7.319400 0.000000
-7.306000 0.000000
-7.292600 0.000000
-7.279100 0.000000
-7.265700 0.000000
-7.252300 0.000000
-7.238800 0.000000
-7.225400 0.000000
-7.212000 0.000000
-7.198500 0.000000
-7.185100 0.000000
-7.171700 0.000000
-7.158200 0.000000
-7.144800 0.000000
-7.131400 0.000000
-7.117900 0.000000
-7.104500 0.000000
-7.091100 0.000000
-7.077600 0.000000
-7.064200 0.000000
-7.050800 0.000000
-7.037300 0.000000
-7.023900 0.000000
-7.010500 0.000000
-6.997100 0.000000
-6.983600 0.000000
-6.970200 0.000000
-6.956800 0.000000
-6.943300 0.000000
-6.929900 0.000000
-6.916500 0.000000
-6.903000 0.000000
-6.889600 0.000000
-6.876200 0.000000
-6.862700 0.000000
-6.849300 0.000000
-6.835900 0.000000
-6.822400 0.000000
-6.809000 0.000000
-6.795600 0.000000
-6.782100 0.000000
-6.768700 0.000000
-6.755300 0.000000
-6.741800 0.000000
-6.728400 0.000000
-6.715000 0.000000
-6.701500 0.000000
-6.688100 0.000000
-6.674700 0.000000
-6.661200 0.000000
-6.647800 0.000000
-6.634400 0.000000
-6.621000 0.000000
-6.607500 0.000000
-6.594100 0.000200
-6.580700 0.027500
-6.567200 0.101100
-6.553800 0.218000
-6.540400 0.283600
-6.526900 0.306000
-6.513500 0.310500
-6.500100 0.345400
-6.486600 0.383600
-6.473200 0.423000
-6.459800 0.462100
-6.446300 0.498500
-6.432900 0.522000
-6.419500 0.533100
-6.406000 0.541700
-6.392600 0.559500
-6.379200 0.579800
-6.365700 0.600900
-6.352300 0.622700
-6.338900 0.644500
-6.325400 0.666400
-6.312000 0.687100
-6.298600 0.707300
-6.285100 0.728700
-6.271700 0.750900
-6.258300 0.768200
-6.244800 0.780000
-6.231400 0.790100
-6.218000 0.803600
-6.204600 0.817700
-6.191100 0.832200
-6.177700 0.846900
-6.164300 0.861800
-6.150800 0.876500
-6.137400 0.891400
-6.124000 0.907300
-6.110500 0.923600
-6.097100 0.939600
-6.083700 0.955500
-6.070200 0.971500
-6.056800 0.988100
-6.043400 1.005000
-6.029900 1.021000
-6.016500 1.034200
-6.003100 1.044600
-5.989600 1.054800
-5.976200 1.066500
-5.962800 1.078200
-5.949300 1.090100
-5.935900 1.102400
-5.922500 1.114900
-5.909000 1.127800
-5.895600 1.140800
-5.882200 1.154300
-5.868700 1.168100
-5.855300 1.181700
-5.841900 1.194800
-5.828500 1.207900
-5.815000 1.221400
-5.801600 1.235000
-5.788200 1.248600
-5.774700 1.262300
-5.761300 1.276100
-5.747900 1.290000
-5.734400 1.304000
-5.721000 1.382400
-5.707600 1.456600
-5.694100 1.497800
-5.680700 1.435500
-5.667300 1.445700
-5.653800 1.456100
-5.640400 1.466400
-5.627000 1.476300
-5.613500 1.484100
-5.600100 1.488700
-5.586700 1.494300
-5.573200 1.503700
-5.559800 1.527900
-5.546400 1.544500
-5.532900 1.554700
-5.519500 1.558600
-5.506100 1.563500
-5.492600 1.570500
-5.479200 1.578600
-5.465800 1.583200
-5.452300 1.589500
-5.438900 1.593700
-5.425500 1.593500
-5.412100 1.596100
-5.398600 1.597500
-5.385200 1.571900
-5.371800 1.566000
-5.358300 1.631000
-5.344900 1.706700
-5.331500 1.661400
-5.318000 1.660200
-5.304600 1.664000
-5.291200 1.670200
-5.277700 1.685900
-5.264300 1.714100
-5.250900 1.733900
-5.237400 1.735300
-5.224000 1.735500
-5.210600 1.747200
-5.197100 1.767300
-5.183700 1.786900
-5.170300 1.792200
-5.156800 1.794500
-5.143400 1.806900
-5.130000 1.820400
-5.116500 1.818000
-5.103100 1.816400
-5.089700 1.819300
-5.076200 1.831800
-5.062800 1.848200
-5.049400 1.867800
-5.036000 1.889000
-5.022500 1.912300
-5.009100 1.936100
-4.995700 1.962200
-4.982200 1.991900
-4.968800 2.030700
-4.955400 2.081300
-4.941900 2.139700
-4.928500 2.191600
-4.915100 2.225300
-4.901600 2.256300
-4.888200 2.280600
-4.874800 2.310300
-4.861300 2.349800
-4.847900 2.389400
-4.834500 2.447600
-4.821000 2.485400
-4.807600 2.518700
-4.794200 2.522400
-4.780700 2.535100
-4.767300 2.545600
-4.753900 2.585300
-4.740400 2.607200
-4.727000 2.646200
-4.713600 2.701600
-4.700100 2.759400
-4.686700 2.819100
-4.673300 3.080800
-4.659800 3.271100
-4.646400 3.401600
-4.633000 2.940500
-4.619600 2.963400
-4.606100 2.989200
-4.592700 3.031500
-4.579300 3.089100
-4.565800 3.175300
-4.552400 3.205500
-4.539000 3.207700
-4.525500 3.124300
-4.512100 3.091300
-4.498700 2.970500
-4.485200 2.867200
-4.471800 2.692600
-4.458400 2.610000
-4.444900 2.535000
-4.431500 2.423100
-4.418100 2.306600
-4.404600 2.196200
-4.391200 2.100600
-4.377800 2.039000
-4.364300 2.884600
-4.350900 1.972600
-4.337500 1.982300
-4.324000 2.006800
-4.310600 2.048300
-4.297200 2.102800
-4.283700 2.147800
-4.270300 2.174400
-4.256900 2.147800
-4.243500 2.157600
-4.230000 2.242500
-4.216600 2.279000
-4.203200 2.311600
-4.189700 2.354000
-4.176300 2.512000
-4.162900 2.676800
-4.149400 2.638100
-4.136000 2.609600
-4.122600 2.644400
-4.109100 2.696800
-4.095700 2.766100
-4.082300 2.788800
-4.068800 2.826900
-4.055400 2.869000
-4.042000 2.985600
-4.028500 3.114100
-4.015100 2.993500
-4.001700 2.957600
-3.988200 2.949400
-3.974800 2.927300
-3.961400 2.881200
-3.947900 2.853100
-3.934500 2.853100
-3.921100 2.882900
-3.907600 2.884900
-3.894200 2.880700
-3.880800 2.878400
-3.867300 2.871700
-3.853900 2.872400
-3.840500 2.885200
-3.827100 2.908200
-3.813600 2.934000
-3.800200 2.961300
-3.786800 2.995700
-3.773300 3.036600
-3.759900 3.075100
-3.746500 3.071400
-3.733000 3.092000
-3.719600 3.136500
-3.706200 3.183300
-3.692700 3.164700
-3.679300 3.162300
-3.665900 3.157900
-3.652400 3.126300
-3.639000 3.099000
-3.625600 3.073600
-3.612100 3.056500
-3.598700 3.036300
-3.585300 2.976100
-3.571800 2.918800
-3.558400 2.874500
-3.545000 2.842000
-3.531500 2.849200
-3.518100 2.902100
-3.504700 2.979300
-3.491200 3.007900
-3.477800 3.042500
-3.464400 3.075900
-3.451000 3.116100
-3.437500 3.165500
-3.424100 3.215800
-3.410700 3.203600
-3.397200 3.328400
-3.383800 3.498200
-3.370400 3.579700
-3.356900 3.657800
-3.343500 3.738400
-3.330100 3.815300
-3.316600 3.883200
-3.303200 3.950300
-3.289800 4.064900
-3.276300 4.189400
-3.262900 4.355300
-3.249500 4.461800
-3.236000 4.524000
-3.222600 4.731200
-3.209200 4.891100
-3.195700 5.175300
-3.182300 5.238800
-3.168900 5.137500
-3.155400 5.148000
-3.142000 5.113500
-3.128600 5.081200
-3.115100 4.848600
-3.101700 4.355900
-3.088300 4.221200
-3.074800 4.029700
-3.061400 3.246800
-3.048000 2.757400
-3.034600 2.373600
-3.021100 2.063500
-3.007700 2.065100
-2.994300 1.897700
-2.980800 1.785500
-2.967400 1.717900
-2.954000 1.734300
-2.940500 1.593900
-2.927100 1.480500
-2.913700 1.411700
-2.900200 1.364000
-2.886800 1.336300
-2.873400 1.276800
-2.859900 1.141800
-2.846500 1.049000
-2.833100 0.948400
-2.819600 0.826200
-2.806200 0.839300
-2.792800 0.854300
-2.779300 0.871400
-2.765900 0.885600
-2.752500 0.877900
-2.739000 0.895700
-2.725600 0.912100
-2.712200 0.928200
-2.698700 0.945600
-2.685300 0.962500
-2.671900 0.979900
-2.658500 0.996100
-2.645000 1.017200
-2.631600 1.043100
-2.618200 1.070400
-2.604700 1.103300
-2.591300 1.125600
-2.577900 1.145400
-2.564400 1.163300
-2.551000 1.183000
-2.537600 1.202500
-2.524100 1.223600
-2.510700 1.244200
-2.497300 1.263400
-2.483800 1.281300
-2.470400 1.300200
-2.457000 1.319200
-2.443500 1.337600
-2.430100 1.356200
-2.416700 1.375200
-2.403200 1.395100
-2.389800 1.415600
-2.376400 1.437700
-2.362900 1.460800
-2.349500 1.484900
-2.336100 1.510600
-2.322600 1.538500
-2.309200 1.568900
-2.295800 1.602600
-2.282300 1.637400
-2.268900 1.670200
-2.255500 1.704100
-2.242100 1.739200
-2.228600 1.775600
-2.215200 1.813700
-2.201800 1.853600
-2.188300 1.894300
-2.174900 1.936200
-2.161500 1.980700
-2.148000 2.024700
-2.134600 2.069200
-2.121200 2.116200
-2.107700 2.163900
-2.094300 2.217500
-2.080900 2.274400
-2.067400 2.327200
-2.054000 2.360100
-2.040600 2.396200
-2.027100 2.442300
-2.013700 2.484400
-2.000300 2.528200
-1.986800 2.583100
-1.973400 2.696100
-1.960000 2.821000
-1.946500 2.927700
-1.933100 2.998100
-1.919700 3.046700
-1.906200 3.041400
-1.892800 3.063800
-1.879400 3.069700
-1.866000 3.074500
-1.852500 3.122400
-1.839100 3.264100
-1.825700 3.349000
-1.812200 3.317300
-1.798800 3.334600
-1.785400 3.358900
-1.771900 3.389500
-1.758500 3.415100
-1.745100 3.546500
-1.731600 3.545400
-1.718200 3.506000
-1.704800 3.477200
-1.691300 3.474600
-1.677900 3.493300
-1.664500 3.492000
-1.651000 3.476800
-1.637600 3.470100
-1.624200 3.478500
-1.610700 3.489600
-1.597300 3.498400
-1.583900 3.513500
-1.570400 3.545300
-1.557000 3.580500
-1.543600 3.592100
-1.530100 3.584300
-1.516700 3.563000
-1.503300 3.525500
-1.489800 3.507100
-1.476400 3.517800
-1.463000 3.300300
-1.449600 3.261600
-1.436100 3.253200
-1.422700 3.144600
-1.409300 3.023500
-1.395800 2.890700
-1.382400 2.746400
-1.369000 2.591900
-1.355500 2.531900
-1.342100 2.398200
-1.328700 2.240600
-1.315200 2.093400
-1.301800 1.936300
-1.288400 1.859900
-1.274900 1.798300
-1.261500 1.778700
-1.248100 1.707900
-1.234600 1.671700
-1.221200 1.664400
-1.207800 1.685200
-1.194300 1.735800
-1.180900 1.783200
-1.167500 1.843800
-1.154000 2.204500
-1.140600 2.566900
-1.127200 2.737300
-1.113700 2.906700
-1.100300 3.118500
-1.086900 3.185700
-1.073500 3.197700
-1.060000 3.251700
-1.046600 3.238200
-1.033200 3.208400
-1.019700 3.303400
-1.006300 3.617800
-0.992900 3.889200
-0.979400 3.944500
-0.966000 3.995400
-0.952600 4.104000
-0.939100 4.166600
-0.925700 4.248600
-0.912300 4.340000
-0.898800 4.414800
-0.885400 4.454000
-0.872000 4.819700
-0.858500 5.176200
-0.845100 5.990300
-0.831700 6.909000
-0.818200 8.174000
-0.804800 8.958700
-0.791400 9.862300
-0.777900 9.954400
-0.764500 8.582900
-0.751100 7.990800
-0.737600 8.636900
-0.724200 8.188100
-0.710800 8.089900
-0.697300 7.961500
-0.683900 8.196400
-0.670500 7.917700
-0.657100 6.720800
-0.643600 6.095800
-0.630200 5.689500
-0.616800 5.212200
-0.603300 4.883600
-0.589900 4.629000
-0.576500 4.429200
-0.563000 4.241700
-0.549600 4.066100
-0.536200 3.891000
-0.522700 3.679900
-0.509300 3.487000
-0.495900 3.411000
-0.482400 3.333300
-0.469000 3.228400
-0.455600 3.090500
-0.442100 2.973800
-0.428700 2.936000
-0.415300 2.590200
-0.401800 2.443600
-0.388400 2.316100
-0.375000 2.204400
-0.361500 2.100400
-0.348100 2.010900
-0.334700 1.904600
-0.321200 1.783300
-0.307800 1.713100
-0.294400 1.633300
-0.281000 1.533400
-0.267500 1.434400
-0.254100 1.339900
-0.240700 1.250200
-0.227200 1.141300
-0.213800 1.029200
-0.200400 0.920900
-0.186900 0.853800
-0.173500 0.816800
-0.160100 0.731900
-0.146600 0.659600
-0.133200 0.592700
-0.119800 0.542100
-0.106300 0.478600
-0.092900 0.224500
-0.079500 0.074900
-0.066000 0.005400
-0.052600 0.000000
-0.039200 0.000000
-0.025700 0.000000
-0.012300 0.000000
0.001100 0.000000
0.014600 0.000000
0.028000 0.000000
0.041400 0.000000
0.054900 0.000000
0.068300 0.000000
0.081700 0.000000
0.095200 0.000000
0.108600 0.000000
0.122000 0.000000
0.135400 0.000000
0.148900 0.000000
0.162300 0.000000
0.175700 0.000000
0.189200 0.000000
0.202600 0.000000
0.216000 0.000000
0.229500 0.000000
0.242900 0.000000
0.256300 0.000000
0.269800 0.000000
0.283200 0.000000
0.296600 0.000000
0.310100 0.000000
0.323500 0.000000
0.336900 0.000000
0.350400 0.000000
0.363800 0.000000
0.377200 0.000000
0.390700 0.000000
0.404100 0.000000
0.417500 0.000000
0.431000 0.000000
0.444400 0.000000
0.457800 0.000000
0.471300 0.000000
0.484700 0.000000
0.498100 0.000000
0.511500 0.000000
0.525000 0.000000
0.538400 0.000000
0.551800 0.000000
0.565300 0.000000
0.578700 0.000000
0.592100 0.000000
0.605600 0.000000
0.619000 0.000000
0.632400 0.000000
0.645900 0.000000
0.659300 0.000000
0.672700 0.000000
0.686200 0.000000
0.699600 0.000000
0.713000 0.000000
0.726500 0.000000
0.739900 0.000000
0.753300 0.000000
0.766800 0.000000
0.780200 0.000000
0.793600 0.000000
0.807100 0.000000
0.820500 0.000000
0.833900 0.000000
0.847400 0.000000
0.860800 0.000000
0.874200 0.000000
0.887700 0.000000
0.901100 0.000000
0.914500 0.000000
0.927900 0.000000
0.941400 0.000000
0.954800 0.000000
0.968200 0.000000
0.981700 0.000000
0.995100 0.000000
1.008500 0.000000
1.022000 0.000000
1.035400 0.000000
1.048800 0.000000
1.062300 0.000000
1.075700 0.000000
1.089100 0.000000
1.102600 0.000000
1.116000 0.000000
1.129400 0.000000
1.142900 0.000000
1.156300 0.000000
1.169700 0.000000
1.183200 0.000000
1.196600 0.069600
1.210000 0.117800
1.223500 0.162500
1.236900 0.213600
1.250300 0.269800
1.263800 0.345500
1.277200 0.415100
1.290600 0.458100
1.304000 0.500400
1.317500 0.646600
1.330900 0.793000
1.344300 0.914100
1.357800 1.114500
1.371200 1.292000
1.384600 1.441800
1.398100 1.514200
1.411500 1.614100
1.424900 1.729600
1.438400 1.882100
1.451800 1.998400
1.465200 2.078200
1.478700 2.198000
1.492100 2.304800
1.505500 2.469100
1.519000 2.637200
1.532400 2.818600
1.545800 2.947500
1.559300 3.506700
1.572700 3.548200
1.586100 3.400400
1.599600 3.487100
1.613000 3.516600
1.626400 3.614900
1.639900 3.711700
1.653300 3.819800
1.666700 3.979500
1.680200 4.140100
1.693600 4.250400
1.707000 4.387600
1.720400 4.674800
1.733900 4.999500
1.747300 5.264400
1.760700 5.379700
1.774200 5.478600
1.787600 5.445000
1.801000 5.533000
1.814500 5.584500
1.827900 5.566700
1.841300 5.493100
1.854800 5.368100
1.868200 5.315800
1.881600 5.188800
1.895100 5.110400
1.908500 5.085500
1.921900 5.113900
1.935400 5.208700
1.948800 5.264400
1.962200 5.297000
1.975700 5.321900
1.989100 5.322800
2.002500 5.345400
2.016000 5.437000
2.029400 5.569600
2.042800 5.711700
2.056300 5.812400
2.069700 5.901400
2.083100 5.854900
2.096500 5.709400
2.110000 5.600200
2.123400 5.582800
2.136800 5.627800
2.150300 5.696400
2.163700 5.795300
2.177100 5.918500
2.190600 6.015000
2.204000 6.199400
2.217400 6.192700
2.230900 6.132900
2.244300 6.274200
2.257700 6.210100
2.271200 6.271600
2.284600 6.322700
2.298000 6.410100
2.311500 6.440300
2.324900 6.193500
2.338300 5.905500
2.351800 5.625800
2.365200 5.667900
2.378600 5.601100
2.392100 5.518900
2.405500 5.454500
2.418900 5.536700
2.432400 5.627600
2.445800 5.595400
2.459200 5.458900
2.472700 5.219500
2.486100 5.179100
2.499500 5.161300
2.512900 5.130500
2.526400 5.135700
2.539800 5.117100
2.553200 5.207100
2.566700 4.891300
2.580100 4.749700
2.593500 4.718700
2.607000 4.688100
2.620400 4.629700
2.633800 4.666600
2.647300 4.811400
2.660700 5.002100
2.674100 5.131900
2.687600 5.370100
2.701000 5.516200
2.714400 5.662800
2.727900 5.660700
2.741300 5.607300
2.754700 5.624100
2.768200 5.684200
2.781600 5.664800
2.795000 5.687500
2.808500 5.597200
2.821900 5.570200
2.835300 5.595000
2.848800 5.660100
2.862200 5.825700
2.875600 5.887300
2.889000 5.935200
2.902500 5.836600
2.915900 5.739000
2.929300 5.727200
2.942800 5.872100
2.956200 5.994300
2.969600 5.976700
2.983100 6.144700
2.996500 6.463000
3.009900 6.335900
3.023400 6.139700
3.036800 6.309200
3.050200 6.453100
3.063700 6.559700
3.077100 6.330900
3.090500 5.968800
3.104000 5.656500
3.117400 5.485100
3.130800 5.450900
3.144300 5.402500
3.157700 5.293100
3.171100 5.317800
3.184600 5.284600
3.198000 5.091200
3.211400 4.960800
3.224900 4.847900
3.238300 4.755900
3.251700 4.765900
3.265200 4.857800
3.278600 5.102300
3.292000 5.287000
3.305400 5.385500
3.318900 5.506400
3.332300 5.649400
3.345700 5.742500
3.359200 5.787300
3.372600 5.899100
3.386000 5.980600
3.399500 6.004400
3.412900 6.071800
3.426300 6.204400
3.439800 5.870600
3.453200 5.962400
3.466600 6.171700
3.480100 6.514400
3.493500 6.311400
3.506900 6.312000
3.520400 5.988700
3.533800 5.822200
3.547200 5.731700
3.560700 5.783900
3.574100 5.610100
3.587500 5.602200
3.601000 5.708000
3.614400 5.790800
3.627800 5.577100
3.641300 5.682200
3.654700 5.684800
3.668100 5.736100
3.681500 5.708500
3.695000 5.785300
3.708400 5.985300
3.721800 6.062300
3.735300 6.166100
3.748700 6.279000
3.762100 6.498800
3.775600 5.968200
3.789000 5.691700
3.802400 5.500700
3.815900 5.351900
3.829300 5.267500
3.842700 5.278100
3.856200 5.283700
3.869600 5.493700
3.883000 5.827100
3.896500 5.897200
3.909900 6.137600
3.923300 6.286800
3.936800 6.477900
3.950200 6.887600
3.963600 7.046000
3.977100 7.324000
3.990500 7.777100
4.003900 7.913700
4.017400 7.854700
4.030800 7.919000
4.044200 7.168000
4.057700 6.693700
4.071100 6.349100
4.084500 6.139700
4.097900 6.002000
4.111400 5.843500
4.124800 5.712600
4.138200 5.618400
4.151700 5.652200
4.165100 5.780000
4.178500 5.422900
4.192000 5.416000
4.205400 5.558900
4.218800 5.769200
4.232300 5.925700
4.245700 6.114500
4.259100 6.319100
4.272600 6.546000
4.286000 6.681300
4.299400 7.173300
4.312900 7.278700
4.326300 7.029900
4.339700 7.100100
4.353200 7.124800
4.366600 7.228700
4.380000 7.657600
4.393500 7.914400
4.406900 8.301700
4.420300 8.768400
4.433800 8.869100
4.447200 8.149900
4.460600 8.110400
4.474000 8.196700
4.487500 8.630000
4.500900 9.164400
4.514300 9.389500
4.527800 9.803100
4.541200 10.449600
4.554600 10.851500
4.568100 10.772300
4.581500 10.966900
4.594900 10.993700
4.608400 11.220600
4.621800 11.268600
4.635200 11.145800
4.648700 11.068200
4.662100 10.743000
4.675500 10.386100
4.689000 10.006700
4.702400 10.025500
4.715800 9.496700
4.729300 9.551300
4.742700 9.135100
4.756100 9.015500
4.769600 9.011600
4.783000 9.208200
4.796400 10.113100
4.809900 9.928000
4.823300 9.105000
4.836700 9.231500
4.850200 9.244800
4.863600 10.082600
4.877000 11.664400
4.890400 12.315400
4.903900 12.237600
4.917300 13.016700
4.930700 13.087300
4.944200 12.318000
4.957600 13.266800
4.971000 14.543900
4.984500 14.353900
4.997900 14.405400
5.011300 14.219400
5.024800 14.173700
5.038200 13.978000
5.051600 13.544200
5.065100 13.075000
5.078500 12.863300
5.091900 12.186000
5.105400 11.897700
5.118800 12.172200
5.132200 11.911100
5.145700 11.218200
5.159100 11.476100
5.172500 12.044600
5.186000 11.557600
5.199400 12.289100
5.212800 11.022500
5.226300 10.956700
5.239700 11.458200
5.253100 12.069900
5.266500 12.782700
5.280000 13.170500
5.293400 13.118000
5.306800 12.981600
5.320300 11.865000
5.333700 11.540000
5.347100 10.826900
5.360600 10.482400
5.374000 10.071800
5.387400 9.853700
5.400900 10.206500
5.414300 10.695600
5.427700 10.978300
5.441200 10.538900
5.454600 10.790200
5.468000 10.744600
5.481500 10.439500
5.494900 11.018300
5.508300 10.948000
5.521800 11.292100
5.535200 11.887800
5.548600 12.343700
5.562100 12.650300
5.575500 12.692400
5.588900 12.803600
5.602400 12.688800
5.615800 12.923800
5.629200 13.421200
5.642700 14.418500
5.656100 14.714200
5.669500 13.471100
5.682900 13.174600
5.696400 13.194700
5.709800 13.432200
5.723200 14.743900
5.736700 14.982900
5.750100 15.527300
5.763500 14.822800
5.777000 12.768400
5.790400 12.768700
5.803800 11.441000
5.817300 10.974000
5.830700 11.358300
5.844100 10.346200
5.857600 11.320400
5.871000 11.608400
5.884400 11.922100
5.897900 12.154000
5.911300 13.251800
5.924700 14.835400
5.938200 14.880700
5.951600 14.778700
5.965000 13.671000
5.978500 12.584500
5.991900 13.380200
6.005300 12.875200
6.018800 13.414900
6.032200 12.812300
6.045600 11.531100
6.059000 11.632400
6.072500 14.385000
6.085900 16.648400
6.099300 17.012400
6.112800 18.506500
6.126200 14.936900
6.139600 15.927400
6.153100 14.672400
6.166500 14.588200
6.179900 14.265300
6.193400 15.167700
6.206800 16.021400
6.220200 16.927100
6.233700 20.154300
6.247100 20.770300
6.260500 21.342200
6.274000 22.754500
6.287400 21.285400
6.300800 21.073600
6.314300 20.949900
6.327700 21.738000
6.341100 21.889000
6.354600 22.028100
6.368000 23.913600
6.381400 25.075700
6.394900 23.912100
6.408300 23.075400
6.421700 20.307800
6.435200 20.757300
6.448600 21.732600
6.462000 20.662900
6.475400 19.994000
6.488900 19.810000
6.502300 21.196100
6.515700 23.201000
6.529200 24.873700
6.542600 27.345700
6.556000 29.350300
6.569500 25.881300
6.582900 21.190600
6.596300 19.298600
6.609800 19.476900
6.623200 19.638000
6.636600 18.869600
6.650100 18.391700
6.663500 18.397500
6.676900 14.754400
6.690400 12.311400
6.703800 11.199900
6.717200 10.649600
6.730700 10.690800
6.744100 10.810800
6.757500 10.729300
6.771000 10.510000
6.784400 10.689000
6.797800 11.322400
6.811300 12.523800
6.824700 13.126500
6.838100 13.868200
6.851500 14.919700
6.865000 15.589900
6.878400 16.078900
6.891800 15.090600
6.905300 15.656900
6.918700 16.346400
6.932100 15.781800
6.945600 15.796300
6.959000 17.572400
6.972400 15.517800
6.985900 15.161700
6.999300 14.961500
7.012700 13.510600
7.026200 12.854000
7.039600 12.445400
7.053000 11.988000
7.066500 12.649500
7.079900 12.423700
7.093300 12.142700
7.106800 10.107500
7.120200 10.692400
7.133600 11.100500
7.147100 11.722700
7.160500 12.402600
7.173900 12.153100
7.187400 12.287300
7.200800 12.759900
7.214200 12.769400
7.227700 11.762000
7.241100 10.837700
7.254500 10.495500
7.267900 10.766600
7.281400 9.489300
7.294800 8.231500
7.308200 7.591400
7.321700 7.819900
7.335100 9.316400
7.348500 9.537800
7.362000 9.376300
7.375400 9.388100
7.388800 9.549000
7.402300 9.813000
7.415700 9.686300
7.429100 9.922700
7.442600 9.386800
7.456000 8.396100
7.469400 8.024900
7.482900 7.462400
7.496300 6.759400
7.509700 6.418300
7.523200 6.113800
7.536600 5.866900
7.550000 5.704200
7.563500 5.450800
7.576900 5.279800
7.590300 5.141300
7.603800 5.076100
7.617200 5.024600
7.630600 5.185200
7.644000 5.147700
7.657500 5.017700
7.670900 4.952100
7.684300 4.862100
7.697800 4.888400
7.711200 4.884000
7.724600 5.123400
7.738100 4.913400
7.751500 4.506600
7.764900 4.083300
7.778400 3.782700
7.791800 3.623100
7.805200 3.307100
7.818700 3.005600
7.832100 2.608200
7.845500 2.090300
7.859000 1.803600
7.872400 1.629500
7.885800 1.508700
7.899300 1.324400
7.912700 1.170900
7.926100 1.038100
7.939600 0.897900
7.953000 0.782600
7.966400 0.618100
7.979900 0.485200
7.993300 0.376100
8.006700 0.292600
8.020200 0.251200
8.033600 0.216700
8.047000 0.184000
8.060400 0.184600
8.073900 0.164200
8.087300 0.105900
8.100700 0.014500
8.114200 0.000000
8.127600 0.000000
8.141000 0.000000
8.154500 0.000000
8.167900 0.000000
8.181300 0.000000
8.194800 0.000000
8.208200 0.000000
8.221600 0.000000
8.235100 0.000000
8.248500 0.000000
8.261900 0.000000
8.275400 0.000000
8.288800 0.000000
8.302200 0.000000
8.315700 0.000000
8.329100 0.000000
8.342500 0.000000
8.356000 0.000000
8.369400 0.000000
8.382800 0.000000
8.396300 0.000000
8.409700 0.000000
8.423100 0.000000
8.436500 0.000000
8.450000 0.000000
8.463400 0.000000
8.476800 0.000000
8.490300 0.000000
8.503700 0.000000
8.517100 0.000000
8.530600 0.000000
8.544000 0.000000
8.557400 0.000000
8.570900 0.004400
8.584300 0.831100
8.597700 2.492200
8.611200 3.869300
8.624600 4.964800
8.638000 5.303800
8.651500 4.876800
8.664900 4.587500
8.678300 4.582800
8.691800 4.568800
8.705200 4.517200
8.718600 4.865900
8.732100 4.932500
8.745500 4.444000
8.758900 4.408700
8.772400 4.136200
8.785800 4.015000
8.799200 4.022700
8.812700 3.936300
8.826100 3.614900
8.839500 3.468000
8.852900 3.501000
8.866400 3.399700
8.879800 3.416000
8.893200 3.465200
8.906700 3.433100
8.920100 3.498500
8.933500 3.527500
8.947000 3.552600
8.960400 3.601400
8.973800 3.640800
8.987300 3.680500
9.000700 3.739600
9.014100 3.824900
9.027600 3.934200
9.041000 4.130500
9.054400 4.223500
9.067900 4.278700
9.081300 4.112100
9.094700 4.111100
9.108200 4.180000
9.121600 4.209800
9.135000 4.053800
9.148500 4.027500
9.161900 3.989400
9.175300 3.945500
9.188800 3.908200
9.202200 4.022800
9.215600 4.111100
9.229000 4.133000
9.242500 4.156600
9.255900 4.330400
9.269300 5.448700
9.282800 6.422400
9.296200 7.145200
9.309600 6.701300
9.323100 6.826600
9.336500 6.858000
9.349900 6.629900
9.363400 6.606200
9.376800 6.707000
9.390200 6.648200
9.403700 6.556000
9.417100 6.706200
9.430500 7.011000
9.444000 6.838700
9.457400 6.358100
9.470800 6.246500
9.484300 6.212100
9.497700 6.314700
9.511100 6.193800
9.524600 6.181100
9.538000 6.263400
9.551400 7.047200
9.564900 7.567700
9.578300 7.220500
9.591700 6.939700
9.605200 7.023600
9.618600 7.302900
9.632000 7.480400
9.645400 7.485600
9.658900 7.342000
9.672300 7.199400
9.685700 7.412000
9.699200 7.514100
9.712600 7.379300
9.726000 7.207100
9.739500 7.414800
9.752900 7.745700
9.766300 7.650500
9.779800 7.596600
9.793200 7.382900
9.806600 7.192500
9.820100 7.011600
9.833500 7.149700
9.846900 7.204100
9.860400 7.213700
9.873800 7.342200
9.887200 7.434200
9.900700 7.476100
9.914100 7.542900
9.927500 7.777600
9.941000 8.151000
9.954400 8.182400
9.967800 8.175600
9.981300 8.165200
9.994700 8.063600
10.008100 8.010600
10.021500 7.899700
10.035000 7.898200
10.048400 7.930700
10.061800 7.927800
10.075300 7.898300
10.088700 7.868400
10.102100 7.910600
10.115600 7.825100
10.129000 7.433500
10.142400 7.343400
10.155900 6.926600
10.169300 6.710000
10.182700 6.794400
10.196200 6.709600
10.209600 6.569500
10.223000 6.201200
10.236500 6.115500
10.249900 6.052900
10.263300 6.026100
10.276800 5.700900
10.290200 5.574500
10.303600 5.657000
10.317100 6.056500
10.330500 6.529300
10.343900 6.736800
10.357400 6.940000
10.370800 7.162800
10.384200 7.181500
10.397700 7.343600
10.411100 7.142600
10.424500 6.912800
10.437900 6.925900
10.451400 7.140700
10.464800 7.507100
10.478200 7.672200
10.491700 7.756900
10.505100 7.650700
10.518500 7.784300
10.532000 7.673300
10.545400 7.564200
10.558800 7.462700
10.572300 7.374500
10.585700 7.055400
10.599100 7.124500
10.612600 7.041700
10.626000 6.780200
10.639400 6.384200
10.652900 6.118600
10.666300 6.110400
10.679700 5.927200
10.693200 5.753100
10.706600 5.669200
10.720000 5.573700
10.733500 5.516500
10.746900 5.439700
10.760300 5.385900
10.773800 5.295000
10.787200 5.347200
10.800600 5.122200
10.814000 5.078600
10.827500 5.007300
10.840900 4.949000
10.854300 4.910700
10.867800 4.882600
10.881200 4.870800
10.894600 4.868700
10.908100 5.015000
10.921500 5.257200
10.934900 5.155500
10.948400 5.425000
10.961800 5.695000
10.975200 5.644900
10.988700 5.688000
11.002100 5.602500
11.015500 5.578300
11.029000 5.602900
11.042400 5.417600
11.055800 5.349300
11.069300 5.140600
11.082700 4.941600
11.096100 4.832900
11.109600 4.739300
11.123000 4.684500
11.136400 4.630900
11.149900 4.581900
11.163300 4.543800
11.176700 4.524700
11.190200 4.500100
11.203600 4.487000
11.217000 4.458000
11.230400 4.396600
11.243900 4.366900
11.257300 4.270300
11.270700 4.182500
11.284200 4.201300
11.297600 4.334400
11.311000 4.499100
11.324500 4.436500
11.337900 4.379100
11.351300 4.302200
11.364800 4.265200
11.378200 4.167900
11.391600 4.118900
11.405100 4.123500
11.418500 4.193900
11.431900 4.219800
11.445400 4.244100
11.458800 4.243600
11.472200 4.271700
11.485700 4.255300
11.499100 4.210900
11.512500 4.195100
11.526000 4.149600
11.539400 4.121800
11.552800 4.114300
11.566300 4.102400
11.579700 4.091500
11.593100 4.063200
11.606500 4.013900
11.620000 3.984800
11.633400 3.959900
11.646800 3.936900
11.660300 3.961400
11.673700 4.004600
11.687100 4.057300
11.700600 4.124500
11.714000 4.327800
11.727400 4.456400
11.740900 4.516000
11.754300 4.427900
11.767700 4.308400
11.781200 4.245700
11.794600 4.182500
11.808000 4.187600
11.821500 4.204800
11.834900 4.222900
11.848300 4.234100
11.861800 4.241900
11.875200 4.223900
11.888600 4.188700
11.902100 4.160400
11.915500 4.103200
11.928900 4.019200
11.942400 3.909700
11.955800 3.735400
11.969200 3.592600
11.982700 3.452400
11.996100 3.440400
12.009500 3.333600
12.022900 3.401900
12.036400 3.412700
12.049800 3.427400
12.063200 3.585000
12.076700 3.632100
12.090100 3.585600
12.103500 3.688100
12.117000 3.821200
12.130400 3.941900
12.143800 3.965500
12.157300 4.015300
12.170700 4.091200
12.184100 4.231600
12.197600 4.323700
12.211000 4.386500
12.224400 4.388600
12.237900 4.529000
12.251300 4.761900
12.264700 4.787600
12.278200 4.790200
12.291600 4.810300
12.305000 4.819200
12.318500 4.923300
12.331900 4.999100
12.345300 5.035400
12.358800 5.093000
12.372200 5.204500
12.385600 5.419300
12.399000 5.592100
12.412500 5.731100
12.425900 5.822600
12.439300 5.938400
12.452800 6.109700
12.466200 6.313100
12.479600 6.381800
12.493100 6.484600
12.506500 6.670200
12.519900 6.777500
12.533400 6.392900
12.546800 6.467600
12.560200 6.473700
12.573700 6.291300
12.587100 6.029600
12.600500 5.929200
12.614000 5.952100
12.627400 6.057000
12.640800 6.441000
12.654300 6.393400
12.667700 6.588700
12.681100 6.864700
12.694600 6.868700
12.708000 6.921400
12.721400 6.885400
12.734900 6.863500
12.748300 6.947000
12.761700 6.906500
12.775200 6.926400
12.788600 7.032800
12.802000 7.089800
12.815400 7.222800
12.828900 6.927000
12.842300 6.816600
12.855700 6.750800
12.869200 6.760200
12.882600 6.568500
12.896000 5.997600
12.909500 5.508900
12.922900 5.338400
12.936300 5.200400
12.949800 5.337100
12.963200 5.773600
12.976600 5.988300
12.990100 6.492600
13.003500 6.900200
13.016900 7.279100
13.030400 7.419000
13.043800 7.249800
13.057200 7.085900
13.070700 7.068800
13.084100 7.062000
13.097500 7.005600
13.111000 6.843600
13.124400 6.740500
13.137800 6.802400
13.151300 6.700300
13.164700 6.588300
13.178100 6.603700
13.191500 6.310900
13.205000 6.268000
13.218400 6.301300
13.231800 6.410500
13.245300 6.475000
13.258700 6.588500
13.272100 6.584800
13.285600 6.176500
13.299000 5.718000
13.312400 5.355100
13.325900 5.169900
13.339300 5.085100
13.352700 4.994300
13.366200 4.879800
13.379600 4.786100
13.393000 4.772400
13.406500 4.741000
13.419900 4.647900
13.433300 4.515200
13.446800 4.286800
13.460200 4.120000
13.473600 3.965700
13.487100 3.816600
13.500500 3.685500
13.513900 3.577800
13.527400 3.509900
13.540800 3.514400
13.554200 3.506500
13.567700 3.433900
13.581100 3.383700
13.594500 3.334800
13.607900 3.287600
13.621400 3.339400
13.634800 3.210700
13.648200 2.858600
13.661700 2.683000
13.675100 2.479300
13.688500 2.290200
13.702000 2.138600
13.715400 2.049100
13.728800 1.965200
13.742300 1.888200
13.755700 1.815300
13.769100 1.750800
13.782600 1.697400
13.796000 1.671900
13.809400 1.623500
13.822900 1.558500
13.836300 1.485000
13.849700 1.438100
13.863200 1.398300
13.876600 1.369700
13.890000 1.348800
13.903500 1.335800
13.916900 1.331600
13.930300 1.336900
13.943800 1.457900
13.957200 1.537900
13.970600 1.564500
13.984000 1.602400
13.997500 1.665900
14.010900 1.721900
14.024300 1.758600
14.037800 1.794800
14.051200 1.962900
14.064600 2.049600
14.078100 1.913000
14.091500 1.907300
14.104900 2.076200
14.118400 2.047800
14.131800 2.115800
14.145200 2.129900
14.158700 2.181500
14.172100 2.248800
14.185500 2.330000
14.199000 2.361100
14.212400 2.410700
14.225800 2.506900
14.239300 2.581400
14.252700 2.649500
14.266100 2.711200
14.279600 2.777000
14.293000 2.852000
14.306400 2.949200
14.319900 3.063000
14.333300 3.158600
14.346700 3.221900
14.360200 3.249100
14.373600 3.321900
14.387000 3.458900
14.400400 3.501200
14.413900 3.490600
14.427300 3.587200
14.440700 3.643800
14.454200 3.706500
14.467600 3.804500
14.481000 3.944800
14.494500 4.001100
14.507900 4.066200
14.521300 4.155800
14.534800 4.239400
14.548200 4.321600
14.561600 4.404900
14.575100 4.835000
14.588500 4.548300
14.601900 4.369900
14.615400 4.312900
14.628800 4.302800
14.642200 4.317300
14.655700 4.311200
14.669100 4.515800
14.682500 4.391500
14.696000 4.377000
14.709400 4.380500
14.722800 4.379200
14.736300 4.413200
14.749700 4.452500
14.763100 4.514000
14.776500 4.617000
14.790000 4.740900
14.803400 4.834700
14.816800 4.934200
14.830300 5.055200
14.843700 4.993000
14.857100 4.977800
14.870600 5.019500
14.884000 5.098100
14.897400 5.003000
14.910900 4.855000
14.924300 4.691100
14.937700 4.576400
14.951200 4.509200
14.964600 4.580900
14.978000 4.492300
14.991500 4.595500
15.004900 4.659200
15.018300 4.810500
15.031800 5.026900
15.045200 5.208300
15.058600 5.249400
15.072100 5.544900
15.085500 5.855200
15.098900 5.953300
15.112400 6.153500
15.125800 6.352700
15.139200 6.519900
15.152700 6.505900
15.166100 6.549500
15.179500 6.654000
15.192900 6.872700
15.206400 6.883000
15.219800 7.143600
15.233200 7.038800
15.246700 6.768000
15.260100 6.415000
15.273500 6.141100
15.287000 5.990200
15.300400 5.653900
15.313800 5.503300
15.327300 5.359200
15.340700 5.297500
15.354100 5.180500
15.367600 5.155400
15.381000 5.102000
15.394400 5.154800
15.407900 5.168000
15.421300 5.279200
15.434700 5.439900
15.448200 5.615300
15.461600 5.709300
15.475000 5.814200
15.488500 5.918500
15.501900 6.021600
15.515300 5.964200
15.528800 5.858500
15.542200 5.895200
15.555600 5.903200
15.569000 5.872800
15.582500 5.858500
15.595900 5.885500
15.609300 5.982300
15.622800 6.134200
15.636200 6.179700
15.649600 6.209200
15.663100 6.243800
15.676500 6.048700
15.689900 5.853500
15.703400 5.722600
15.716800 5.622700
15.730200 5.474200
15.743700 5.388300
15.757100 5.346200
15.770500 5.357400
15.784000 5.715600
15.797400 5.371100
15.810800 5.482000
15.824300 5.414200
15.837700 5.421000
15.851100 5.393900
15.864600 5.374100
15.878000 5.324700
15.891400 5.333400
15.904900 5.309600
15.918300 5.318800
15.931700 5.433900
15.945200 5.395100
15.958600 5.481900
15.972000 5.895600
15.985400 5.936700
15.998900 5.782000
16.012300 5.773600
16.025700 5.796400
16.039200 5.841700
16.052600 5.971700
16.066000 5.997100
16.079500 6.051200
16.092900 6.165200
16.106300 6.445400
16.119800 6.460100
16.133200 6.513100
16.146600 6.315900
16.160100 6.175900
16.173500 6.197300
16.186900 6.111500
16.200400 6.121600
16.213800 6.055200
16.227200 6.113100
16.240700 6.289800
16.254100 6.377100
16.267500 6.383500
16.281000 6.441600
16.294400 6.510900
16.307800 6.427300
16.321300 6.405000
16.334700 6.401100
16.348100 6.331500
16.361500 6.302700
16.375000 6.227800
16.388400 6.090000
16.401800 6.005200
16.415300 5.904700
16.428700 5.736000
16.442100 5.556900
16.455600 5.404400
16.469000 5.295800
16.482400 5.216500
16.495900 5.120500
16.509300 5.071500
16.522700 5.029100
16.536200 4.932200
16.549600 4.873800
16.563000 4.860600
16.576500 4.809100
16.589900 4.816800
16.603300 4.856600
16.616800 4.906600
16.630200 5.009400
16.643600 5.133500
16.657100 5.225900
16.670500 5.300900
16.683900 5.385700
16.697400 5.595800
16.710800 5.763300
16.724200 5.843500
16.737700 5.747900
16.751100 5.562300
16.764500 5.534100
16.777900 5.444400
16.791400 5.375500
16.804800 5.225500
16.818200 5.025100
16.831700 4.808400
16.845100 4.512700
16.858500 4.183700
16.872000 3.953500
16.885400 3.646000
16.898800 3.358000
16.912300 3.192800
16.925700 3.131700
16.939100 3.124800
16.952600 3.222500
16.966000 3.357200
16.979400 3.593200
16.992900 3.768800
17.006300 3.747200
17.019700 3.605900
17.033200 3.550200
17.046600 3.453200
17.060000 3.233600
17.073500 3.059300
17.086900 2.930900
17.100300 2.660400
17.113800 2.362400
17.127200 2.085600
17.140600 1.857600
17.154000 1.768500
17.167500 1.697400
17.180900 1.624900
17.194300 1.542200
17.207800 1.463900
17.221200 1.396200
17.234600 1.347700
17.248100 1.320300
17.261500 1.302600
17.274900 1.229800
17.288400 1.151600
17.301800 1.075400
17.315200 0.996500
17.328700 0.919600
17.342100 0.840900
17.355500 0.768200
17.369000 0.709800
17.382400 0.664800
17.395800 0.628100
17.409300 0.593500
17.422700 0.557500
17.436100 0.523300
17.449600 0.491400
17.463000 0.462500
17.476400 0.436600
17.489900 0.413500
17.503300 0.392100
17.516700 0.370900
17.530200 0.345900
17.543600 0.316300
17.557000 0.286900
17.570400 0.259600
17.583900 0.224200
17.597300 0.196200
17.610700 0.171700
17.624200 0.150800
17.637600 0.132400
17.651000 0.113800
17.664500 0.095000
17.677900 0.077100
17.691300 0.060900
17.704800 0.046600
17.718200 0.034200
17.731600 0.023600
17.745100 0.015100
17.758500 0.008600
17.771900 0.004300
17.785400 0.002100
17.798800 0.000900
17.812200 0.000300
17.825700 0.000000
17.839100 0.000000
17.852500 0.000000
17.866000 0.000000
17.879400 0.000000
17.892800 0.000000
17.906300 0.000000
17.919700 0.000000
17.933100 0.000000
17.946500 0.000000
17.960000 0.000000
17.973400 0.000000
17.986800 0.000000
18.000300 0.000000
18.013700 0.000000
18.027100 0.000000
18.040600 0.000000
18.054000 0.000000
18.067400 0.000000
18.080900 0.000000
18.094300 0.000000
18.107700 0.000000
18.121200 0.000000
18.134600 0.000000
18.148000 0.000000
18.161500 0.000000
18.174900 0.000000
18.188300 0.000000
18.201800 0.000000
18.215200 0.000000
18.228600 0.000000
18.242100 0.000000
18.255500 0.000000
18.268900 0.000000
18.282400 0.000000
18.295800 0.000000
18.309200 0.000000
18.322700 0.000000
18.336100 0.000000
18.349500 0.000000
18.362900 0.000000
18.376400 0.000000
18.389800 0.000000
18.403200 0.000000
18.416700 0.000000
18.430100 0.000000
18.443500 0.000000
18.457000 0.000000
18.470400 0.000000
18.483800 0.000000
18.497300 0.000000
18.510700 0.000000
18.524100 0.000000
18.537600 0.000000
18.551000 0.000000
18.564400 0.000000
18.577900 0.000000
18.591300 0.000000
18.604700 0.000000
18.618200 0.000000
18.631600 0.000000
18.645000 0.000000
18.658500 0.000000
18.671900 0.000000
18.685300 0.000000
18.698800 0.000000
18.712200 0.000000
18.725600 0.000000
18.739000 0.000000
18.752500 0.000000
18.765900 0.000000
18.779300 0.000000
18.792800 0.000000
18.806200 0.000000
18.819600 0.000000
18.833100 0.000000
18.846500 0.000000
18.859900 0.000000
18.873400 0.000000
18.886800 0.000000
18.900200 0.000000
18.913700 0.000000
18.927100 0.000000
18.940500 0.000000
18.954000 0.000000
18.967400 0.000000
18.980800 0.000000
18.994300 0.000000
19.007700 0.000000
19.021100 0.000000
19.034600 0.000000
19.048000 0.000000
e
