set title 'mp-1008728 - Density of States'
set xlabel 'Energy (eV)'
set ylabel 'DOS (states/eV)'
set grid
set xrange [-10:10]
set yrange [0:2.603]
set xzeroaxis lt -1
set terminal png size 800,600
set output 'mp-1008728_dos_gnuplot.png'
plot '-' using 1:2 with lines title 'DOS'
-66.248000 0.000000
-66.135400 0.000000
-66.022800 0.000000
-65.910200 0.000000
-65.797600 0.000000
-65.685000 0.000000
-65.572300 0.000000
-65.459700 0.000000
-65.347100 0.000000
-65.234500 0.000000
-65.121900 0.000000
-65.009300 0.000000
-64.896600 0.000000
-64.784000 0.000000
-64.671400 0.000000
-64.558800 0.000000
-64.446200 0.000000
-64.333500 0.000000
-64.220900 0.000000
-64.108300 0.000000
-63.995700 0.000000
-63.883100 0.000000
-63.770500 0.000000
-63.657800 0.000000
-63.545200 0.000000
-63.432600 0.000000
-63.320000 0.000000
-63.207400 0.000000
-63.094700 0.000000
-62.982100 0.000000
-62.869500 0.000000
-62.756900 0.000000
-62.644300 0.000000
-62.531700 0.000000
-62.419000 0.000000
-62.306400 0.000000
-62.193800 0.000000
-62.081200 0.000000
-61.968600 0.000000
-61.855900 0.000000
-61.743300 0.000000
-61.630700 0.000000
-61.518100 0.000000
-61.405500 0.000000
-61.292900 0.000000
-61.180200 0.000000
-61.067600 0.000000
-60.955000 0.000000
-60.842400 0.000000
-60.729800 0.000000
-60.617100 0.000000
-60.504500 0.000000
-60.391900 0.000000
-60.279300 0.000000
-60.166700 0.000000
-60.054100 0.000000
-59.941400 0.000000
-59.828800 0.000000
-59.716200 0.000000
-59.603600 0.000000
-59.491000 0.000000
-59.378300 0.000000
-59.265700 0.000000
-59.153100 0.000000
-59.040500 0.000000
-58.927900 0.000000
-58.815300 0.000000
-58.702600 0.000000
-58.590000 0.000000
-58.477400 0.000000
-58.364800 0.000000
-58.252200 0.000000
-58.139600 0.000000
-58.026900 0.000000
-57.914300 0.000000
-57.801700 0.000000
-57.689100 0.000000
-57.576500 0.000000
-57.463800 0.000000
-57.351200 0.000000
-57.238600 0.000000
-57.126000 0.000000
-57.013400 0.000000
-56.900800 0.000000
-56.788100 0.000000
-56.675500 0.000000
-56.562900 0.000000
-56.450300 0.000000
-56.337700 0.000000
-56.225000 0.000000
-56.112400 0.000000
-55.999800 5.043000
-55.887200 13.421400
-55.774600 0.000000
-55.662000 0.000000
-55.549300 0.000000
-55.436700 0.000000
-55.324100 0.000000
-55.211500 0.000000
-55.098900 0.000000
-54.986200 0.000000
-54.873600 0.000000
-54.761000 0.000000
-54.648400 0.000000
-54.535800 0.000000
-54.423200 0.000000
-54.310500 0.000000
-54.197900 0.000000
-54.085300 0.000000
-53.972700 0.000000
-53.860100 0.000000
-53.747400 0.000000
-53.634800 0.000000
-53.522200 0.000000
-53.409600 0.000000
-53.297000 0.000000
-53.184400 0.000000
-53.071700 0.000000
-52.959100 0.000000
-52.846500 0.000000
-52.733900 0.000000
-52.621300 0.000000
-52.508700 0.000000
-52.396000 0.000000
-52.283400 0.000000
-52.170800 0.000000
-52.058200 0.000000
-51.945600 0.000000
-51.832900 0.000000
-51.720300 0.000000
-51.607700 0.000000
-51.495100 0.000000
-51.382500 0.000000
-51.269900 0.000000
-51.157200 0.000000
-51.044600 0.000000
-50.932000 0.000000
-50.819400 0.000000
-50.706800 0.000000
-50.594100 0.000000
-50.481500 0.000000
-50.368900 0.000000
-50.256300 0.000000
-50.143700 0.000000
-50.031100 0.000000
-49.918400 0.000000
-49.805800 0.000000
-49.693200 0.000000
-49.580600 0.000000
-49.468000 0.000000
-49.355300 0.000000
-49.242700 0.000000
-49.130100 0.000000
-49.017500 0.000000
-48.904900 0.000000
-48.792300 0.000000
-48.679600 0.000000
-48.567000 0.000000
-48.454400 0.000000
-48.341800 0.000000
-48.229200 0.000000
-48.116500 0.000000
-48.003900 0.000000
-47.891300 0.000000
-47.778700 0.000000
-47.666100 0.000000
-47.553500 0.000000
-47.440800 0.000000
-47.328200 0.000000
-47.215600 0.000000
-47.103000 0.000000
-46.990400 0.000000
-46.877700 0.000000
-46.765100 0.000000
-46.652500 0.000000
-46.539900 0.000000
-46.427300 0.000000
-46.314700 0.000000
-46.202000 0.000000
-46.089400 0.000000
-45.976800 0.000000
-45.864200 0.000000
-45.751600 0.000000
-45.639000 0.000000
-45.526300 0.000000
-45.413700 0.000000
-45.301100 0.000000
-45.188500 0.000000
-45.075900 0.000000
-44.963200 0.000000
-44.850600 0.000000
-44.738000 0.000000
-44.625400 0.000000
-44.512800 0.000000
-44.400200 0.000000
-44.287500 0.000000
-44.174900 0.000000
-44.062300 0.000000
-43.949700 0.000000
-43.837100 0.000000
-43.724400 0.000000
-43.611800 0.000000
-43.499200 0.000000
-43.386600 0.000000
-43.274000 0.000000
-43.161400 0.000000
-43.048700 0.000000
-42.936100 0.000000
-42.823500 0.000000
-42.710900 0.000000
-42.598300 0.000000
-42.485600 0.000000
-42.373000 0.000000
-42.260400 0.000000
-42.147800 0.000000
-42.035200 0.000000
-41.922600 0.000000
-41.809900 0.000000
-41.697300 0.000000
-41.584700 0.000000
-41.472100 0.000000
-41.359500 0.000000
-41.246800 0.000000
-41.134200 0.000000
-41.021600 0.000000
-40.909000 0.000000
-40.796400 0.000000
-40.683800 0.000000
-40.571100 0.000000
-40.458500 0.000000
-40.345900 0.000000
-40.233300 0.000000
-40.120700 0.000000
-40.008100 0.000000
-39.895400 0.000000
-39.782800 0.000000
-39.670200 0.000000
-39.557600 0.000000
-39.445000 0.000000
-39.332300 0.000000
-39.219700 0.000000
-39.107100 0.000000
-38.994500 0.000000
-38.881900 0.000000
-38.769300 0.000000
-38.656600 0.000000
-38.544000 0.000000
-38.431400 0.000000
-38.318800 0.000000
-38.206200 0.000000
-38.093500 0.000000
-37.980900 0.000000
-37.868300 0.000000
-37.755700 0.000000
-37.643100 0.000000
-37.530500 0.000000
-37.417800 0.000000
-37.305200 0.000000
-37.192600 0.000000
-37.080000 0.000000
-36.967400 0.000000
-36.854700 0.000000
-36.742100 0.000000
-36.629500 0.000000
-36.516900 0.000000
-36.404300 0.000000
-36.291700 0.000000
-36.179000 0.000000
-36.066400 0.000000
-35.953800 0.000000
-35.841200 0.000000
-35.728600 0.000000
-35.615900 0.000000
-35.503300 0.000000
-35.390700 0.000000
-35.278100 0.000000
-35.165500 0.000000
-35.052900 0.000000
-34.940200 0.000000
-34.827600 0.000000
-34.715000 0.000000
-34.602400 0.000000
-34.489800 0.000000
-34.377100 0.000000
-34.264500 0.000000
-34.151900 0.000000
-34.039300 0.000000
-33.926700 0.000000
-33.814100 0.000000
-33.701400 0.000000
-33.588800 0.000000
-33.476200 0.000000
-33.363600 0.000000
-33.251000 0.000000
-33.138400 0.000000
-33.025700 0.000000
-32.913100 0.000000
-32.800500 0.000000
-32.687900 0.000000
-32.575300 0.000000
-32.462600 0.000000
-32.350000 0.000000
-32.237400 0.000000
-32.124800 0.000000
-32.012200 0.000000
-31.899600 0.000000
-31.786900 0.000000
-31.674300 0.000000
-31.561700 0.000000
-31.449100 0.000000
-31.336500 0.000000
-31.223800 0.000000
-31.111200 0.000000
-30.998600 0.000000
-30.886000 0.000000
-30.773400 0.000000
-30.660800 0.000000
-30.548100 0.000000
-30.435500 0.000000
-30.322900 0.000000
-30.210300 0.000000
-30.097700 0.000000
-29.985000 0.000000
-29.872400 0.000000
-29.759800 0.000000
-29.647200 0.000000
-29.534600 0.000000
-29.422000 0.000000
-29.309300 0.000000
-29.196700 0.000000
-29.084100 0.000000
-28.971500 0.000000
-28.858900 0.000000
-28.746200 0.000000
-28.633600 0.000000
-28.521000 0.000000
-28.408400 0.000000
-28.295800 0.000000
-28.183200 0.000000
-28.070500 0.000000
-27.957900 0.000000
-27.845300 0.000000
-27.732700 0.000000
-27.620100 0.000000
-27.507500 0.000000
-27.394800 0.000000
-27.282200 0.000000
-27.169600 0.000000
-27.057000 0.000000
-26.944400 0.000000
-26.831700 0.000000
-26.719100 0.000000
-26.606500 0.000000
-26.493900 0.000000
-26.381300 0.000000
-26.268700 0.000000
-26.156000 0.000000
-26.043400 0.000000
-25.930800 0.000000
-25.818200 0.000000
-25.705600 0.000000
-25.592900 0.000000
-25.480300 0.000000
-25.367700 0.000000
-25.255100 0.000000
-25.142500 0.000000
-25.029900 0.000000
-24.917200 0.000000
-24.804600 0.000000
-24.692000 0.000000
-24.579400 0.000000
-24.466800 0.000000
-24.354100 0.000000
-24.241500 0.000000
-24.128900 0.000000
-24.016300 0.000000
-23.903700 0.000000
-23.791100 0.000000
-23.678400 0.000000
-23.565800 0.000000
-23.453200 0.000000
-23.340600 0.000000
-23.228000 0.000000
-23.115300 0.000000
-23.002700 0.000000
-22.890100 0.000000
-22.777500 0.000000
-22.664900 0.000000
-22.552300 0.000000
-22.439600 0.000000
-22.327000 0.000000
-22.214400 0.000000
-22.101800 0.000000
-21.989200 0.000000
-21.876500 0.000000
-21.763900 0.000000
-21.651300 0.000000
-21.538700 0.000000
-21.426100 0.000000
-21.313500 0.000000
-21.200800 0.000000
-21.088200 0.000000
-20.975600 0.000000
-20.863000 0.000000
-20.750400 0.000000
-20.637800 0.000000
-20.525100 0.000000
-20.412500 0.000000
-20.299900 0.000000
-20.187300 0.000000
-20.074700 0.000000
-19.962000 0.000000
-19.849400 0.000000
-19.736800 0.000000
-19.624200 0.000000
-19.511600 0.000000
-19.399000 0.000000
-19.286300 0.000000
-19.173700 0.000000
-19.061100 0.000000
-18.948500 0.000000
-18.835900 0.000000
-18.723200 0.000000
-18.610600 0.000000
-18.498000 0.000000
-18.385400 0.000000
-18.272800 0.000000
-18.160200 0.000000
-18.047500 0.000000
-17.934900 0.000000
-17.822300 0.000000
-17.709700 0.000000
-17.597100 0.000000
-17.484400 0.000000
-17.371800 0.000000
-17.259200 0.000000
-17.146600 0.000000
-17.034000 0.000000
-16.921400 0.000000
-16.808700 0.000000
-16.696100 0.000000
-16.583500 0.000000
-16.470900 0.000000
-16.358300 0.000000
-16.245600 0.000000
-16.133000 0.000000
-16.020400 0.000000
-15.907800 0.000000
-15.795200 0.000000
-15.682600 0.000000
-15.569900 0.000000
-15.457300 0.000000
-15.344700 0.000000
-15.232100 0.000000
-15.119500 0.000000
-15.006900 0.000000
-14.894200 0.000000
-14.781600 0.000000
-14.669000 0.000000
-14.556400 0.000000
-14.443800 0.000000
-14.331100 0.000000
-14.218500 0.000000
-14.105900 0.000000
-13.993300 0.000000
-13.880700 0.000000
-13.768100 0.000000
-13.655400 0.000000
-13.542800 0.000000
-13.430200 0.000000
-13.317600 0.000000
-13.205000 0.000000
-13.092300 0.000000
-12.979700 0.000000
-12.867100 0.000000
-12.754500 0.000000
-12.641900 0.000000
-12.529300 0.000000
-12.416600 0.000000
-12.304000 0.000000
-12.191400 0.000000
-12.078800 0.000000
-11.966200 0.000000
-11.853500 0.000000
-11.740900 0.000000
-11.628300 0.000000
-11.515700 0.000000
-11.403100 0.000000
-11.290500 0.000000
-11.177800 0.000000
-11.065200 0.000000
-10.952600 0.000000
-10.840000 0.000000
-10.727400 0.000000
-10.614700 0.000000
-10.502100 0.000000
-10.389500 0.000000
-10.276900 0.000000
-10.164300 0.000000
-10.051700 0.000000
-9.939000 0.000000
-9.826400 0.000000
-9.713800 0.000000
-9.601200 0.000000
-9.488600 0.000000
-9.375900 0.000000
-9.263300 0.000000
-9.150700 0.000000
-9.038100 0.000000
-8.925500 0.000000
-8.812900 0.000000
-8.700200 0.000000
-8.587600 0.000000
-8.475000 0.000000
-8.362400 0.000000
-8.249800 0.000000
-8.137200 0.000000
-8.024500 0.000000
-7.911900 0.000000
-7.799300 0.000000
-7.686700 0.000000
-7.574100 0.000000
-7.461400 0.000000
-7.348800 0.000000
-7.236200 0.000000
-7.123600 0.000000
-7.011000 0.000000
-6.898400 0.000000
-6.785700 0.000000
-6.673100 0.000000
-6.560500 0.000000
-6.447900 0.000000
-6.335300 0.000000
-6.222600 0.000000
-6.110000 0.000000
-5.997400 0.000000
-5.884800 0.000000
-5.772200 0.000000
-5.659600 0.000000
-5.546900 0.000000
-5.434300 0.000000
-5.321700 0.000000
-5.209100 0.000000
-5.096500 0.000000
-4.983800 0.000000
-4.871200 0.000000
-4.758600 0.000000
-4.646000 0.000000
-4.533400 0.000000
-4.420800 0.000000
-4.308100 0.000000
-4.195500 0.000000
-4.082900 0.000000
-3.970300 0.000000
-3.857700 0.000000
-3.745000 0.000000
-3.632400 0.000000
-3.519800 0.000000
-3.407200 0.000000
-3.294600 0.000000
-3.182000 0.000000
-3.069300 0.000000
-2.956700 0.000000
-2.844100 0.000000
-2.731500 0.000000
-2.618900 0.000000
-2.506300 0.000000
-2.393600 0.000000
-2.281000 0.000000
-2.168400 0.000000
-2.055800 0.000000
-1.943200 0.000000
-1.830500 0.000000
-1.717900 0.000000
-1.605300 0.000000
-1.492700 0.000000
-1.380100 0.000000
-1.267500 0.000000
-1.154800 0.000000
-1.042200 0.009200
-0.929600 0.014300
-0.817000 0.019100
-0.704400 0.022600
-0.591700 0.024700
-0.479100 0.028700
-0.366500 0.030600
-0.253900 0.032900
-0.141300 0.035600
-0.028700 0.038500
0.084000 0.040500
0.196600 0.042400
0.309200 0.045100
0.421800 0.047700
0.534400 0.050000
0.647100 0.052300
0.759700 0.054800
0.872300 0.057300
0.984900 0.060200
1.097500 0.063100
1.210100 0.065800
1.322800 0.068900
1.435400 0.072300
1.548000 0.075700
1.660600 0.079700
1.773200 0.083900
1.885900 0.088400
1.998500 0.093400
2.111100 0.099500
2.223700 0.105900
2.336300 0.113500
2.448900 0.122400
2.561600 0.133300
2.674200 0.148000
2.786800 0.165400
2.899400 0.190300
3.012000 0.225300
3.124700 0.323500
3.237300 0.425000
3.349900 0.436700
3.462500 0.442000
3.575100 0.508400
3.687700 0.612700
3.800400 0.721600
3.913000 0.947600
4.025600 0.926700
4.138200 0.679100
4.250800 0.527100
4.363400 0.367500
4.476100 0.319100
4.588700 1.622900
4.701300 1.924800
4.813900 1.371500
4.926500 1.346400
5.039200 1.321800
5.151800 1.274200
5.264400 1.567700
5.377000 1.942600
5.489600 1.465600
5.602200 0.588600
5.714900 0.495400
5.827500 0.435200
5.940100 0.449700
6.052700 0.477500
6.165300 0.561600
6.278000 0.708900
6.390600 1.220100
6.503200 1.445900
6.615800 1.884300
6.728400 2.366100
6.841000 2.217000
6.953700 2.340700
7.066300 2.084000
7.178900 1.329200
7.291500 1.123500
7.404100 1.057400
7.516800 1.041400
7.629400 0.542400
7.742000 0.201200
7.854600 0.177300
7.967200 0.172300
8.079800 0.173000
8.192500 0.169600
8.305100 0.166200
8.417700 0.163300
8.530300 0.162000
8.642900 0.160600
8.755600 0.159000
8.868200 0.155800
8.980800 0.151800
9.093400 0.149700
9.206000 0.147900
9.318600 0.146400
9.431300 0.144800
9.543900 0.143200
9.656500 0.141300
9.769100 0.137500
9.881700 0.134700
9.994400 0.132400
10.107000 0.130400
10.219600 0.128400
10.332200 0.126300
10.444800 0.124300
10.557400 0.122200
10.670100 0.120200
10.782700 0.116800
10.895300 0.113900
11.007900 0.110700
11.120500 0.108400
11.233100 0.106400
11.345800 0.104100
11.458400 0.101500
11.571000 0.099100
11.683600 0.097000
11.796200 0.094000
11.908900 0.090600
12.021500 0.087800
12.134100 0.085000
12.246700 0.082700
12.359300 0.079700
12.471900 0.077000
12.584600 0.074000
12.697200 0.070400
12.809800 0.068400
12.922400 0.065700
13.035000 0.063100
13.147700 0.060400
13.260300 0.058500
13.372900 0.054400
13.485500 0.046200
13.598100 0.042700
13.710700 0.037100
13.823400 0.034400
13.936000 0.032000
14.048600 0.029900
14.161200 0.027900
14.273800 0.028500
14.386500 0.079300
14.499100 0.128700
14.611700 0.172900
14.724300 0.180700
14.836900 0.200200
14.949500 0.240600
15.062200 0.208600
15.174800 0.199700
15.287400 0.197300
15.400000 0.197900
15.512600 0.187600
15.625300 0.179300
15.737900 0.176200
15.850500 0.166900
15.963100 0.162800
16.075700 0.157200
16.188300 0.152600
16.301000 0.150300
16.413600 0.145600
16.526200 0.142000
16.638800 0.142800
16.751400 0.155800
16.864000 0.165300
16.976700 0.171100
17.089300 0.173400
17.201900 0.177000
17.314500 0.175300
17.427100 0.177000
17.539800 0.183300
17.652400 0.181900
17.765000 0.184800
17.877600 0.188700
17.990200 0.183700
18.102800 0.182100
18.215500 0.181300
18.328100 0.180500
18.440700 0.181600
18.553300 0.182500
18.665900 0.180900
18.778600 0.180200
18.891200 0.178000
19.003800 0.176800
19.116400 0.175900
19.229000 0.174200
19.341600 0.174600
19.454300 0.173600
19.566900 0.172500
19.679500 0.171800
19.792100 0.170700
19.904700 0.170300
20.017400 0.170300
20.130000 0.170500
20.242600 0.171100
20.355200 0.171100
20.467800 0.170400
20.580400 0.169500
20.693100 0.168100
20.805700 0.166400
20.918300 0.165700
21.030900 0.165200
21.143500 0.164300
21.256200 0.163900
21.368800 0.164700
21.481400 0.162500
21.594000 0.161200
21.706600 0.160200
21.819200 0.159800
21.931900 0.159200
22.044500 0.158600
22.157100 0.158100
22.269700 0.157800
22.382300 0.157500
22.495000 0.156800
22.607600 0.156800
22.720200 0.156000
22.832800 0.155200
22.945400 0.154900
23.058000 0.154000
23.170700 0.153100
23.283300 0.152100
23.395900 0.152500
23.508500 0.154400
23.621100 0.159900
23.733700 0.166000
23.846400 0.169700
23.959000 0.171400
24.071600 0.173000
24.184200 0.174600
24.296800 0.178200
24.409500 0.179900
24.522100 0.183400
24.634700 0.186900
24.747300 0.187800
24.859900 0.193800
24.972500 0.198800
25.085200 0.197700
25.197800 0.200900
25.310400 0.204300
25.423000 0.207800
25.535600 0.209900
25.648300 0.226700
25.760900 0.214900
25.873500 0.218100
25.986100 0.221800
26.098700 0.224200
26.211300 0.227600
26.324000 0.231300
26.436600 0.234500
26.549200 0.239000
26.661800 0.243900
26.774400 0.244700
26.887100 0.245600
26.999700 0.244500
27.112300 0.246200
27.224900 0.250100
27.337500 0.254700
27.450100 0.260300
27.562800 0.272400
27.675400 0.288000
27.788000 0.267100
27.900600 0.263600
28.013200 0.263900
28.125900 0.254700
28.238500 0.248900
28.351100 0.245100
28.463700 0.240400
28.576300 0.235300
28.688900 0.229200
28.801600 0.224400
28.914200 0.219400
29.026800 0.216200
29.139400 0.213900
29.252000 0.209900
29.364600 0.205600
29.477300 0.201100
29.589900 0.195400
29.702500 0.191400
29.815100 0.187400
29.927700 0.187200
30.040400 0.183600
30.153000 0.174800
30.265600 0.167000
30.378200 0.158200
30.490800 0.148600
30.603400 0.139300
30.716100 0.134400
30.828700 0.130600
30.941300 0.129100
31.053900 0.126800
31.166500 0.125100
31.279200 0.123300
31.391800 0.120700
31.504400 0.119500
31.617000 0.119400
31.729600 0.132300
31.842200 0.141500
31.954900 0.146100
32.067500 0.151200
32.180100 0.157500
32.292700 0.162600
32.405300 0.171700
32.518000 0.181900
32.630600 0.195400
32.743200 0.211600
32.855800 0.233500
32.968400 0.271600
33.081000 0.327300
33.193700 0.329700
33.306300 0.304400
33.418900 0.289200
33.531500 0.276100
33.644100 0.266500
33.756800 0.253800
33.869400 0.238200
33.982000 0.221500
34.094600 0.208400
34.207200 0.195800
34.319800 0.181100
34.432500 0.166200
34.545100 0.163500
34.657700 0.167000
34.770300 0.152600
34.882900 0.143400
34.995600 0.138200
35.108200 0.130800
35.220800 0.147700
35.333400 0.158600
35.446000 0.179500
35.558600 0.200600
35.671300 0.219600
35.783900 0.248800
35.896500 0.305600
36.009100 0.331600
36.121700 0.328900
36.234300 0.320500
36.347000 0.310700
36.459600 0.308700
36.572200 0.312400
36.684800 0.291000
36.797400 0.261700
36.910100 0.242000
37.022700 0.227900
37.135300 0.216800
37.247900 0.207100
37.360500 0.201100
37.473100 0.202500
37.585800 0.208900
37.698400 0.216500
37.811000 0.220400
37.923600 0.224100
38.036200 0.225500
38.148900 0.227200
38.261500 0.224600
38.374100 0.242200
38.486700 0.234800
38.599300 0.238800
38.711900 0.240300
38.824600 0.241100
38.937200 0.247900
39.049800 0.255900
39.162400 0.266400
39.275000 0.281000
39.387700 0.283600
39.500300 0.270500
39.612900 0.268700
39.725500 0.267500
39.838100 0.260900
39.950700 0.254600
40.063400 0.250100
40.176000 0.250600
40.288600 0.249000
40.401200 0.246300
40.513800 0.243800
40.626500 0.242100
40.739100 0.241600
40.851700 0.241300
40.964300 0.250400
41.076900 0.240700
41.189500 0.241400
41.302200 0.240100
41.414800 0.235300
41.527400 0.234700
41.640000 0.232900
41.752600 0.234300
41.865200 0.231700
41.977900 0.232700
42.090500 0.228900
42.203100 0.251300
42.315700 0.243300
42.428300 0.245800
42.541000 0.247900
42.653600 0.250200
42.766200 0.252000
42.878800 0.254100
42.991400 0.259500
43.104000 0.266600
43.216700 0.276300
43.329300 0.290800
43.441900 0.312200
43.554500 0.329200
43.667100 0.338600
43.779800 0.351600
43.892400 0.368700
44.005000 0.390600
44.117600 0.413200
44.230200 0.449500
44.342800 0.500400
44.455500 0.593800
44.568100 0.768500
44.680700 1.273900
44.793300 2.105000
44.905900 1.236400
45.018600 0.591000
45.131200 1.175400
45.243800 0.621900
45.356400 0.504400
45.469000 0.447500
45.581600 0.410500
45.694300 0.387500
45.806900 0.369100
45.919500 0.355000
46.032100 0.338100
46.144700 0.327300
46.257400 0.320400
46.370000 0.319300
46.482600 0.320900
46.595200 0.325600
46.707800 0.329500
46.820400 0.335400
46.933100 0.334700
47.045700 0.335200
47.158300 0.334200
47.270900 0.326900
47.383500 0.320000
47.496200 0.308900
47.608800 0.295800
47.721400 0.289000
47.834000 0.270600
47.946600 0.264900
48.059200 0.266500
48.171900 0.263300
48.284500 0.259100
48.397100 0.258200
48.509700 0.261300
48.622300 0.264400
48.734900 0.269600
48.847600 0.251200
48.960200 0.234000
49.072800 0.220700
49.185400 0.215300
49.298000 0.210900
49.410700 0.208900
49.523300 0.208400
49.635900 0.211800
49.748500 0.213400
49.861100 0.220100
49.973700 0.228700
50.086400 0.233200
50.199000 0.239200
50.311600 0.247800
50.424200 0.261200
50.536800 0.268200
50.649500 0.289100
50.762100 0.297200
50.874700 0.309100
50.987300 0.326100
51.099900 0.342400
51.212500 0.353500
51.325200 0.357100
51.437800 0.351000
51.550400 0.333500
51.663000 0.312900
51.775600 0.301900
51.888300 0.297600
52.000900 0.290800
52.113500 0.282900
52.226100 0.273900
52.338700 0.266500
52.451300 0.257600
52.564000 0.252900
52.676600 0.250200
52.789200 0.247300
52.901800 0.240400
53.014400 0.238100
53.127100 0.239900
53.239700 0.236900
53.352300 0.231900
53.464900 0.228900
53.577500 0.230000
53.690100 0.235200
53.802800 0.244500
53.915400 0.260000
54.028000 0.266200
54.140600 0.272700
54.253200 0.271600
54.365800 0.266900
54.478500 0.270600
54.591100 0.274400
54.703700 0.269500
54.816300 0.276600
54.928900 0.286400
55.041600 0.302600
55.154200 0.323300
55.266800 0.338400
55.379400 0.340000
55.492000 0.345500
55.604600 0.342400
55.717300 0.333800
55.829900 0.323400
55.942500 0.310200
56.055100 0.302200
56.167700 0.296200
56.280400 0.293300
56.393000 0.295700
56.505600 0.296700
56.618200 0.296300
56.730800 0.291400
56.843400 0.291600
56.956100 0.292100
57.068700 0.294800
57.181300 0.293900
57.293900 0.294700
57.406500 0.294200
57.519200 0.293200
57.631800 0.292500
57.744400 0.295600
57.857000 0.298700
57.969600 0.302300
58.082200 0.305000
58.194900 0.309100
58.307500 0.307100
58.420100 0.307400
58.532700 0.308600
58.645300 0.313800
58.758000 0.322600
58.870600 0.334900
58.983200 0.338800
59.095800 0.340800
59.208400 0.341100
59.321000 0.339700
59.433700 0.357500
59.546300 0.339800
59.658900 0.332300
59.771500 0.325700
59.884100 0.323300
59.996800 0.321700
60.109400 0.321800
60.222000 0.325000
60.334600 0.326000
60.447200 0.329500
60.559800 0.329100
60.672500 0.317000
60.785100 0.316000
60.897700 0.318300
61.010300 0.321300
61.122900 0.337400
61.235500 0.343000
61.348200 0.346400
61.460800 0.335400
61.573400 0.309300
61.686000 0.296500
61.798600 0.290300
61.911300 0.287000
62.023900 0.285300
62.136500 0.290500
62.249100 0.310700
62.361700 0.319200
62.474300 0.320000
62.587000 0.318200
62.699600 0.312000
62.812200 0.306800
62.924800 0.303000
63.037400 0.297100
63.150100 0.286000
63.262700 0.275700
63.375300 0.265700
63.487900 0.263700
63.600500 0.265000
63.713100 0.262900
63.825800 0.260900
63.938400 0.259300
64.051000 0.265300
64.163600 0.275600
64.276200 0.267900
64.388900 0.260700
64.501500 0.254200
64.614100 0.249000
64.726700 0.246500
64.839300 0.251200
64.951900 0.274400
65.064600 0.306600
65.177200 0.319600
65.289800 0.328000
65.402400 0.319600
65.515000 0.318700
65.627700 0.322300
65.740300 0.326800
65.852900 0.321700
65.965500 0.346400
66.078100 0.342100
66.190700 0.325700
66.303400 0.321200
66.416000 0.309500
66.528600 0.295200
66.641200 0.288200
66.753800 0.288700
66.866500 0.273900
66.979100 0.248500
67.091700 0.249500
67.204300 0.251800
67.316900 0.255800
67.429500 0.254300
67.542200 0.252000
67.654800 0.252900
67.767400 0.258900
67.880000 0.276900
67.992600 0.313800
68.105200 0.328000
68.217900 0.333200
68.330500 0.341300
68.443100 0.360900
68.555700 0.372800
68.668300 0.373800
68.781000 0.371900
68.893600 0.367700
69.006200 0.354200
69.118800 0.337100
69.231400 0.331300
69.344000 0.333800
69.456700 0.336900
69.569300 0.345600
69.681900 0.353700
69.794500 0.368500
69.907100 0.379300
70.019800 0.383100
70.132400 0.388200
70.245000 0.382500
70.357600 0.375900
70.470200 0.357200
70.582800 0.339100
70.695500 0.321500
70.808100 0.306500
70.920700 0.292400
71.033300 0.283300
71.145900 0.281500
71.258600 0.284100
71.371200 0.290500
71.483800 0.296200
71.596400 0.305300
71.709000 0.308600
71.821600 0.312300
71.934300 0.323700
72.046900 0.332500
72.159500 0.344600
72.272100 0.372800
72.384700 0.395500
72.497400 0.423200
72.610000 0.418200
72.722600 0.408700
72.835200 0.401200
72.947800 0.403100
73.060400 0.408900
73.173100 0.405200
73.285700 0.408200
73.398300 0.407300
73.510900 0.408100
73.623500 0.399900
73.736100 0.395000
73.848800 0.375900
73.961400 0.357300
74.074000 0.343700
74.186600 0.318300
74.299200 0.301600
74.411900 0.288000
74.524500 0.276800
74.637100 0.271300
74.749700 0.270600
74.862300 0.272600
74.974900 0.279600
75.087600 0.299400
75.200200 0.318200
75.312800 0.337500
75.425400 0.362400
75.538000 0.377000
75.650700 0.395600
75.763300 0.408700
75.875900 0.434900
75.988500 0.445500
76.101100 0.432700
76.213700 0.417700
76.326400 0.412700
76.439000 0.398500
76.551600 0.378500
76.664200 0.366000
76.776800 0.362100
76.889500 0.348800
77.002100 0.340500
77.114700 0.340000
77.227300 0.336400
77.339900 0.333300
77.452500 0.341700
77.565200 0.349000
77.677800 0.351900
77.790400 0.350700
77.903000 0.349600
78.015600 0.350500
78.128300 0.340900
78.240900 0.336300
78.353500 0.307500
78.466100 0.290700
78.578700 0.291300
78.691300 0.293600
78.804000 0.290900
78.916600 0.289400
79.029200 0.292200
79.141800 0.287600
79.254400 0.291600
79.367100 0.293800
79.479700 0.289800
79.592300 0.318000
79.704900 0.330300
79.817500 0.347500
79.930100 0.346800
80.042800 0.346300
80.155400 0.355600
80.268000 0.358700
80.380600 0.356400
80.493200 0.352300
80.605800 0.347600
80.718500 0.339600
80.831100 0.332900
80.943700 0.329000
81.056300 0.328600
81.168900 0.334400
81.281600 0.422700
81.394200 0.383600
81.506800 0.374700
81.619400 0.365600
81.732000 0.361700
81.844600 0.363600
81.957300 0.375600
82.069900 0.401800
82.182500 0.430900
82.295100 0.445600
82.407700 0.455300
82.520400 0.429300
82.633000 0.414500
82.745600 0.394900
82.858200 0.376400
82.970800 0.361500
83.083400 0.342700
83.196100 0.329400
83.308700 0.311700
83.421300 0.294500
83.533900 0.286500
83.646500 0.279600
83.759200 0.270900
83.871800 0.267300
83.984400 0.270100
84.097000 0.273600
84.209600 0.273400
84.322200 0.277200
84.434900 0.284000
84.547500 0.303600
84.660100 0.319800
84.772700 0.341800
84.885300 0.363400
84.998000 0.396000
85.110600 0.401400
85.223200 0.391400
85.335800 0.347500
85.448400 0.316200
85.561000 0.304300
85.673700 0.290500
85.786300 0.274400
85.898900 0.274700
86.011500 0.278800
86.124100 0.287900
86.236700 0.299300
86.349400 0.327000
86.462000 0.335000
86.574600 0.346100
86.687200 0.354500
86.799800 0.357600
86.912500 0.355800
87.025100 0.358800
87.137700 0.365500
87.250300 0.371300
87.362900 0.377100
87.475500 0.363100
87.588200 0.361000
87.700800 0.363800
87.813400 0.367000
87.926000 0.372900
88.038600 0.372400
88.151300 0.359600
88.263900 0.347900
88.376500 0.346900
88.489100 0.342000
88.601700 0.339800
88.714300 0.341800
88.827000 0.345900
88.939600 0.346500
89.052200 0.348300
89.164800 0.356100
89.277400 0.365100
89.390100 0.366800
89.502700 0.367000
89.615300 0.364000
89.727900 0.360800
89.840500 0.362900
89.953100 0.373200
90.065800 0.387100
90.178400 0.397100
90.291000 0.389300
90.403600 0.352000
90.516200 0.325400
90.628900 0.298800
90.741500 0.266200
90.854100 0.255900
90.966700 0.245600
91.079300 0.236800
91.191900 0.240500
91.304600 0.241200
91.417200 0.244100
91.529800 0.258200
91.642400 0.270700
91.755000 0.287700
91.867700 0.301600
91.980300 0.320200
92.092900 0.337700
92.205500 0.354500
92.318100 0.378700
92.430700 0.397700
92.543400 0.410500
92.656000 0.419500
92.768600 0.418000
92.881200 0.421600
92.993800 0.427500
93.106400 0.429200
93.219100 0.438500
93.331700 0.441200
93.444300 0.420200
93.556900 0.390700
93.669500 0.361900
93.782200 0.344200
93.894800 0.341300
94.007400 0.336400
94.120000 0.331400
94.232600 0.350900
94.345200 0.374300
94.457900 0.388200
94.570500 0.406800
94.683100 0.409500
94.795700 0.407800
94.908300 0.392400
95.021000 0.389800
95.133600 0.393900
95.246200 0.402800
95.358800 0.408300
95.471400 0.407500
95.584000 0.392200
95.696700 0.377900
95.809300 0.372900
95.921900 0.382700
96.034500 0.367700
96.147100 0.354900
96.259800 0.344200
96.372400 0.342700
96.485000 0.344100
96.597600 0.342600
96.710200 0.345500
96.822800 0.336900
96.935500 0.334300
97.048100 0.333900
97.160700 0.352000
97.273300 0.352800
97.385900 0.361200
97.498600 0.368800
97.611200 0.376500
97.723800 0.396100
97.836400 0.396100
97.949000 0.394000
98.061600 0.392300
98.174300 0.392800
98.286900 0.395800
98.399500 0.395800
98.512100 0.392900
98.624700 0.392400
98.737300 0.386000
98.850000 0.378200
98.962600 0.365300
99.075200 0.357800
99.187800 0.359100
99.300400 0.364500
99.413100 0.373000
99.525700 0.392800
99.638300 0.414200
99.750900 0.422300
99.863500 0.423800
99.976100 0.424000
100.088800 0.428600
100.201400 0.427400
100.314000 0.428800
100.426600 0.423800
100.539200 0.420600
100.651900 0.410800
100.764500 0.402500
100.877100 0.400200
100.989700 0.397900
101.102300 0.399800
101.214900 0.393900
101.327600 0.375400
101.440200 0.368200
101.552800 0.367100
101.665400 0.366300
101.778000 0.373500
101.890700 0.381700
102.003300 0.387500
102.115900 0.389900
102.228500 0.392600
102.341100 0.407400
102.453700 0.427600
102.566400 0.440000
102.679000 0.463200
102.791600 0.476300
102.904200 0.489900
103.016800 0.480900
103.129500 0.475200
103.242100 0.476800
103.354700 0.451100
103.467300 0.423400
103.579900 0.406300
103.692500 0.397900
103.805200 0.384800
103.917800 0.381600
104.030400 0.391900
104.143000 0.413200
104.255600 0.452000
104.368300 0.478200
104.480900 0.496400
104.593500 0.498700
104.706100 0.472500
104.818700 0.459100
104.931300 0.447200
105.044000 0.434200
105.156600 0.425000
105.269200 0.418700
105.381800 0.434200
105.494400 0.406200
105.607000 0.402100
105.719700 0.404900
105.832300 0.408500
105.944900 0.406400
106.057500 0.408300
106.170100 0.410700
106.282800 0.414700
106.395400 0.421700
106.508000 0.431900
106.620600 0.434700
106.733200 0.427900
106.845800 0.425200
106.958500 0.401500
107.071100 0.397100
107.183700 0.400500
107.296300 0.400400
107.408900 0.404100
107.521600 0.405400
107.634200 0.392800
107.746800 0.389200
107.859400 0.383700
107.972000 0.374100
108.084600 0.367500
108.197300 0.366800
108.309900 0.369500
108.422500 0.372900
108.535100 0.381100
108.647700 0.375300
108.760400 0.379400
108.873000 0.386400
108.985600 0.381500
109.098200 0.373100
109.210800 0.376400
109.323400 0.377700
109.436100 0.356000
109.548700 0.354500
109.661300 0.366800
109.773900 0.372700
109.886500 0.393700
109.999200 0.412800
110.111800 0.378300
110.224400 0.364200
110.337000 0.361800
110.449600 0.371000
110.562200 0.382300
110.674900 0.369900
110.787500 0.365500
110.900100 0.361900
111.012700 0.358800
111.125300 0.354900
111.237900 0.349700
111.350600 0.357500
111.463200 0.357900
111.575800 0.342400
111.688400 0.322200
111.801000 0.308000
111.913700 0.306900
112.026300 0.300800
112.138900 0.303300
112.251500 0.307500
112.364100 0.311300
112.476700 0.316800
112.589400 0.327800
112.702000 0.342400
112.814600 0.343700
112.927200 0.339400
113.039800 0.333300
113.152500 0.330100
113.265100 0.328700
113.377700 0.362300
113.490300 0.375300
113.602900 0.387800
113.715500 0.399800
113.828200 0.406400
113.940800 0.396900
114.053400 0.393000
114.166000 0.397900
114.278600 0.405600
114.391300 0.398400
114.503900 0.387200
114.616500 0.376400
114.729100 0.368600
114.841700 0.385400
114.954300 0.376100
115.067000 0.371100
115.179600 0.368100
115.292200 0.358800
115.404800 0.354900
115.517400 0.337200
115.630100 0.323600
115.742700 0.315100
115.855300 0.312600
115.967900 0.318000
116.080500 0.330900
116.193100 0.330100
116.305800 0.333400
116.418400 0.328400
116.531000 0.332500
116.643600 0.337000
116.756200 0.332800
116.868900 0.343200
116.981500 0.326100
117.094100 0.331100
117.206700 0.332100
117.319300 0.334700
117.431900 0.340900
117.544600 0.351300
117.657200 0.380800
117.769800 0.411800
117.882400 0.417700
117.995000 0.416500
118.107600 0.418500
118.220300 0.417800
118.332900 0.407400
118.445500 0.410500
118.558100 0.415000
118.670700 0.413000
118.783400 0.415000
118.896000 0.407900
119.008600 0.407900
119.121200 0.426700
119.233800 0.424700
119.346400 0.418900
119.459100 0.425200
119.571700 0.435700
119.684300 0.418900
119.796900 0.416200
119.909500 0.419400
120.022200 0.430100
120.134800 0.431800
120.247400 0.433600
120.360000 0.448300
120.472600 0.453100
120.585200 0.467700
120.697900 0.519200
120.810500 0.477400
120.923100 0.457700
121.035700 0.434000
121.148300 0.426600
121.261000 0.438000
121.373600 0.446600
121.486200 0.466700
121.598800 0.484600
121.711400 0.488600
121.824000 0.493000
121.936700 0.502100
122.049300 0.498200
122.161900 0.478700
122.274500 0.464500
122.387100 0.450200
122.499800 0.431400
122.612400 0.416200
122.725000 0.398300
122.837600 0.383100
122.950200 0.379400
123.062800 0.390600
123.175500 0.410200
123.288100 0.427800
123.400700 0.432900
123.513300 0.427000
123.625900 0.439900
123.738500 0.446300
123.851200 0.451900
123.963800 0.441100
124.076400 0.438400
124.189000 0.438400
124.301600 0.443400
124.414300 0.414700
124.526900 0.394300
124.639500 0.392100
124.752100 0.402400
124.864700 0.411600
124.977300 0.449800
125.090000 0.465300
125.202600 0.489300
125.315200 0.477400
125.427800 0.472500
125.540400 0.469800
125.653100 0.453500
125.765700 0.453400
125.878300 0.457300
125.990900 0.463000
126.103500 0.450100
126.216100 0.428300
126.328800 0.413700
126.441400 0.397600
126.554000 0.378100
126.666600 0.357800
126.779200 0.342400
126.891900 0.333000
127.004500 0.333900
127.117100 0.344600
127.229700 0.370800
127.342300 0.408900
127.454900 0.466400
127.567600 0.440000
127.680200 0.428400
127.792800 0.416500
127.905400 0.411100
128.018000 0.418400
128.130700 0.429500
128.243300 0.418100
128.355900 0.430200
128.468500 0.407800
128.581100 0.389700
128.693700 0.386900
128.806400 0.393300
128.919000 0.411600
129.031600 0.422200
129.144200 0.423500
129.256800 0.420200
129.369500 0.391000
129.482100 0.388200
129.594700 0.385700
129.707300 0.389400
129.819900 0.394600
129.932500 0.389500
130.045200 0.396700
130.157800 0.411600
130.270400 0.407300
130.383000 0.391700
130.495600 0.381300
130.608200 0.378900
130.720900 0.378800
130.833500 0.392700
130.946100 0.402600
131.058700 0.403800
131.171300 0.417700
131.284000 0.453700
131.396600 0.448700
131.509200 0.439300
131.621800 0.428100
131.734400 0.417700
131.847000 0.406800
131.959700 0.395300
132.072300 0.382200
132.184900 0.370400
132.297500 0.364100
132.410100 0.363800
132.522800 0.346500
132.635400 0.333000
132.748000 0.323400
132.860600 0.311300
132.973200 0.306800
133.085800 0.305700
133.198500 0.305100
133.311100 0.298300
133.423700 0.289700
133.536300 0.268200
133.648900 0.239200
133.761600 0.213500
133.874200 0.193800
133.986800 0.176200
134.099400 0.158000
134.212000 0.142200
134.324600 0.129400
134.437300 0.120600
134.549900 0.112600
134.662500 0.103400
134.775100 0.096100
134.887700 0.089100
135.000400 0.083000
135.113000 0.078000
135.225600 0.073300
135.338200 0.070700
135.450800 0.064600
135.563400 0.055500
135.676100 0.050800
135.788700 0.047300
135.901300 0.043700
136.013900 0.039300
136.126500 0.034600
136.239200 0.030900
136.351800 0.028300
136.464400 0.021900
136.577000 0.018300
136.689600 0.016900
136.802200 0.015700
136.914900 0.014800
137.027500 0.014300
137.140100 0.014000
137.252700 0.013800
137.365300 0.013600
137.477900 0.013500
137.590600 0.013400
137.703200 0.013300
137.815800 0.013100
137.928400 0.012900
138.041000 0.012800
138.153700 0.012700
138.266300 0.012600
138.378900 0.012500
138.491500 0.012400
138.604100 0.012300
138.716700 0.012200
138.829400 0.012100
138.942000 0.012000
139.054600 0.011900
139.167200 0.011800
139.279800 0.011700
139.392500 0.011600
139.505100 0.011500
139.617700 0.011400
139.730300 0.011300
139.842900 0.011200
139.955500 0.011100
140.068200 0.011000
140.180800 0.010900
140.293400 0.010800
140.406000 0.010700
140.518600 0.010600
140.631300 0.010500
140.743900 0.010300
140.856500 0.010300
140.969100 0.010200
141.081700 0.010200
141.194300 0.010000
141.307000 0.009900
141.419600 0.009800
141.532200 0.009600
141.644800 0.009500
141.757400 0.009400
141.870100 0.009300
141.982700 0.009200
142.095300 0.009100
142.207900 0.009000
142.320500 0.008900
142.433100 0.008800
142.545800 0.008700
142.658400 0.008700
142.771000 0.008600
142.883600 0.008600
142.996200 0.008600
143.108800 0.008500
143.221500 0.008500
143.334100 0.008400
143.446700 0.008300
143.559300 0.008200
143.671900 0.008100
143.784600 0.008000
143.897200 0.007900
144.009800 0.007800
144.122400 0.007700
144.235000 0.007600
144.347600 0.007400
144.460300 0.007300
144.572900 0.007200
144.685500 0.007100
144.798100 0.007100
144.910700 0.007000
145.023400 0.007000
145.136000 0.007000
145.248600 0.007000
145.361200 0.007000
145.473800 0.007100
145.586400 0.007100
145.699100 0.007100
145.811700 0.007100
145.924300 0.006900
146.036900 0.006700
146.149500 0.006500
146.262200 0.006300
146.374800 0.006100
146.487400 0.005900
146.600000 0.005800
146.712600 0.006000
146.825200 0.005800
146.937900 0.005400
147.050500 0.004900
147.163100 0.004600
147.275700 0.004200
147.388300 0.003700
147.501000 0.002700
147.613600 0.002700
147.726200 0.002600
147.838800 0.002600
147.951400 0.002800
148.064000 0.003000
148.176700 0.003200
148.289300 0.003400
148.401900 0.003600
148.514500 0.010500
148.627100 0.000000
148.739800 0.000000
148.852400 0.000000
148.965000 0.000000
149.077600 0.000000
149.190200 0.000000
149.302800 0.000000
149.415500 0.000000
149.528100 0.000000
149.640700 0.000000
149.753300 0.000000
149.865900 0.000000
149.978500 0.000000
150.091200 0.000000
150.203800 0.000000
150.316400 0.000000
150.429000 0.000000
150.541600 0.000000
150.654300 0.000000
150.766900 0.000000
150.879500 0.000000
150.992100 0.000000
151.104700 0.000000
151.217300 0.000000
151.330000 0.000000
151.442600 0.000000
151.555200 0.000000
151.667800 0.000000
151.780400 0.000000
151.893100 0.000000
152.005700 0.000000
152.118300 0.000000
152.230900 0.000000
152.343500 0.000000
152.456100 0.000000
152.568800 0.000000
152.681400 0.000000
152.794000 0.000000
152.906600 0.000000
153.019200 0.000000
153.131900 0.000000
153.244500 0.000000
153.357100 0.000000
153.469700 0.000000
153.582300 0.000000
153.694900 0.000000
153.807600 0.000000
153.920200 0.000000
154.032800 0.000000
154.145400 0.000000
154.258000 0.000000
154.370700 0.000000
154.483300 0.000000
154.595900 0.000000
154.708500 0.000000
154.821100 0.000000
154.933700 0.000000
155.046400 0.000000
155.159000 0.000000
155.271600 0.000000
155.384200 0.000000
155.496800 0.000000
155.609400 0.000000
155.722100 0.000000
155.834700 0.000000
155.947300 0.000000
156.059900 0.000000
156.172500 0.000000
156.285200 0.000000
156.397800 0.000000
156.510400 0.000000
156.623000 0.000000
156.735600 0.000000
156.848200 0.000000
156.960900 0.000000
157.073500 0.000000
157.186100 0.000000
157.298700 0.000000
157.411300 0.000000
157.524000 0.000000
157.636600 0.000000
157.749200 0.000000
157.861800 0.000000
157.974400 0.000000
158.087000 0.000000
158.199700 0.000000
158.312300 0.000000
158.424900 0.000000
158.537500 0.000000
158.650100 0.000000
158.762800 0.000000
158.875400 0.000000
158.988000 0.000000
e
