set title 'mp-1079828 - Density of States'
set xlabel 'Energy (eV)'
set ylabel 'DOS (states/eV)'
set grid
set xrange [-10:10]
set yrange [0:10.303]
set xzeroaxis lt -1
set terminal png size 800,600
set output 'mp-1079828_dos_gnuplot.png'
plot '-' using 1:2 with lines title 'DOS'
-13.531100 0.000000
-13.506600 0.000000
-13.482000 0.000000
-13.457400 0.000000
-13.432900 0.000000
-13.408300 0.000000
-13.383700 0.000000
-13.359200 0.000000
-13.334600 0.000000
-13.310100 0.000000
-13.285500 0.000000
-13.260900 0.000000
-13.236400 0.000000
-13.211800 0.000000
-13.187300 0.000000
-13.162700 0.000000
-13.138100 0.000000
-13.113600 0.000000
-13.089000 0.000000
-13.064400 0.000000
-13.039900 0.000000
-13.015300 0.000000
-12.990800 0.000000
-12.966200 0.000000
-12.941600 0.000000
-12.917100 0.000000
-12.892500 0.000000
-12.867900 0.000000
-12.843400 0.000000
-12.818800 0.000000
-12.794300 0.000000
-12.769700 0.000000
-12.745100 0.000000
-12.720600 0.000000
-12.696000 0.000000
-12.671500 0.000000
-12.646900 0.000000
-12.622300 0.000000
-12.597800 0.000000
-12.573200 0.000000
-12.548600 0.000000
-12.524100 0.000000
-12.499500 0.000000
-12.475000 0.000000
-12.450400 0.000000
-12.425800 0.000000
-12.401300 0.000000
-12.376700 0.000000
-12.352200 0.000000
-12.327600 0.000000
-12.303000 0.000000
-12.278500 0.000000
-12.253900 0.000000
-12.229300 0.000000
-12.204800 0.000000
-12.180200 0.000000
-12.155700 0.000000
-12.131100 0.000000
-12.106500 0.000000
-12.082000 0.000000
-12.057400 0.000000
-12.032800 0.000000
-12.008300 0.000000
-11.983700 0.000000
-11.959200 0.000000
-11.934600 0.000000
-11.910000 0.000000
-11.885500 0.000000
-11.860900 0.000000
-11.836400 0.000000
-11.811800 0.000000
-11.787200 0.000000
-11.762700 0.000000
-11.738100 0.000000
-11.713500 0.000000
-11.689000 0.000000
-11.664400 0.000000
-11.639900 0.000000
-11.615300 0.000000
-11.590700 0.000000
-11.566200 0.000000
-11.541600 0.000000
-11.517000 0.000000
-11.492500 0.000000
-11.467900 0.000000
-11.443400 0.000000
-11.418800 0.000000
-11.394200 0.000000
-11.369700 0.000000
-11.345100 0.000000
-11.320600 0.000000
-11.296000 0.000600
-11.271400 0.081000
-11.246900 0.237200
-11.222300 0.338400
-11.197700 0.385200
-11.173200 0.435600
-11.148600 0.493700
-11.124100 0.560100
-11.099500 0.623000
-11.074900 0.678800
-11.050400 0.725600
-11.025800 0.770200
-11.001300 0.821900
-10.976700 0.881300
-10.952100 0.950900
-10.927600 1.024900
-10.903000 1.107400
-10.878400 1.250000
-10.853900 1.385400
-10.829300 1.384000
-10.804800 1.358400
-10.780200 1.382700
-10.755600 1.398500
-10.731100 1.397600
-10.706500 1.391500
-10.681900 1.386600
-10.657400 1.392200
-10.632800 1.405800
-10.608300 1.418000
-10.583700 1.426900
-10.559100 1.431700
-10.534600 1.439900
-10.510000 1.453600
-10.485500 1.467100
-10.460900 1.478500
-10.436300 1.489000
-10.411800 1.491300
-10.387200 1.467300
-10.362600 1.458900
-10.338100 1.453300
-10.313500 1.443300
-10.289000 1.435300
-10.264400 1.429500
-10.239800 1.425400
-10.215300 1.420300
-10.190700 1.416900
-10.166100 1.413700
-10.141600 1.425900
-10.117000 1.462200
-10.092500 1.478000
-10.067900 1.494200
-10.043300 1.511200
-10.018800 1.525400
-9.994200 1.538000
-9.969700 1.554700
-9.945100 1.572700
-9.920500 1.586100
-9.896000 1.598000
-9.871400 1.608900
-9.846800 1.626500
-9.822300 1.855200
-9.797700 1.873200
-9.773200 1.854600
-9.748600 1.870000
-9.724000 1.882900
-9.699500 1.942300
-9.674900 2.064800
-9.650300 1.783900
-9.625800 1.737600
-9.601200 1.685900
-9.576700 1.614600
-9.552100 1.600200
-9.527500 1.597900
-9.503000 1.618100
-9.478400 1.643800
-9.453900 1.641200
-9.429300 1.638600
-9.404700 1.634100
-9.380200 1.671300
-9.355600 2.202300
-9.331000 2.809000
-9.306500 3.913200
-9.281900 3.747800
-9.257400 1.779400
-9.232800 1.676600
-9.208200 1.622900
-9.183700 1.569200
-9.159100 1.515600
-9.134600 1.462100
-9.110000 1.408900
-9.085400 1.355900
-9.060900 1.308200
-9.036300 1.296000
-9.011700 1.334900
-8.987200 1.314500
-8.962600 1.213000
-8.938100 1.109300
-8.913500 1.056200
-8.888900 1.057300
-8.864400 1.037200
-8.839800 1.012100
-8.815200 0.989800
-8.790700 0.983400
-8.766100 0.978300
-8.741600 0.976400
-8.717000 0.982300
-8.692400 0.976400
-8.667900 0.965300
-8.643300 0.958200
-8.618800 0.976400
-8.594200 1.002500
-8.569600 0.995400
-8.545100 0.955200
-8.520500 0.908500
-8.495900 0.861700
-8.471400 0.798100
-8.446800 0.713200
-8.422300 0.658900
-8.397700 0.605300
-8.373100 0.549000
-8.348600 0.486700
-8.324000 0.410900
-8.299400 0.348700
-8.274900 0.302200
-8.250300 0.258200
-8.225800 0.216300
-8.201200 0.176400
-8.176600 0.138400
-8.152100 0.100700
-8.127500 0.063000
-8.103000 0.031100
-8.078400 0.007700
-8.053800 0.002300
-8.029300 0.022800
-8.004700 0.054700
-7.980100 0.094800
-7.955600 0.135000
-7.931000 0.175100
-7.906500 0.215300
-7.881900 0.255400
-7.857300 0.295500
-7.832800 0.337000
-7.808200 0.385200
-7.783600 0.442000
-7.759100 0.512800
-7.734500 1.001600
-7.710000 1.015700
-7.685400 1.222200
-7.660800 1.527400
-7.636300 1.797900
-7.611700 2.017200
-7.587200 2.190300
-7.562600 2.354400
-7.538000 2.505100
-7.513500 2.501200
-7.488900 2.426700
-7.464300 2.433100
-7.439800 2.446200
-7.415200 2.446300
-7.390700 2.442700
-7.366100 2.509000
-7.341500 2.583400
-7.317000 2.398100
-7.292400 2.199200
-7.267900 2.061600
-7.243300 1.995000
-7.218700 1.931400
-7.194200 1.912200
-7.169600 1.872300
-7.145000 1.844000
-7.120500 1.797200
-7.095900 1.717500
-7.071400 1.420100
-7.046800 1.237800
-7.022200 1.229800
-6.997700 1.226000
-6.973100 1.224600
-6.948500 1.223700
-6.924000 1.224000
-6.899400 1.223000
-6.874900 1.222100
-6.850300 1.221700
-6.825700 1.221600
-6.801200 1.221700
-6.776600 1.270100
-6.752100 1.297500
-6.727500 1.325800
-6.702900 1.407300
-6.678400 1.429500
-6.653800 1.451900
-6.629200 1.377000
-6.604700 1.163600
-6.580100 1.154000
-6.555600 1.144500
-6.531000 1.135000
-6.506400 1.125500
-6.481900 1.115200
-6.457300 1.104300
-6.432700 1.092500
-6.408200 1.080200
-6.383600 1.067500
-6.359100 1.054500
-6.334500 1.041100
-6.309900 1.027100
-6.285400 1.013600
-6.260800 1.002700
-6.236300 0.993200
-6.211700 0.985400
-6.187100 0.977700
-6.162600 0.970200
-6.138000 0.963000
-6.113400 0.955900
-6.088900 0.954900
-6.064300 0.973100
-6.039800 1.010400
-6.015200 1.050400
-5.990600 1.078400
-5.966100 1.091600
-5.941500 1.096800
-5.916900 1.103400
-5.892400 1.112700
-5.867800 1.123000
-5.843300 1.136800
-5.818700 1.152800
-5.794100 1.167100
-5.769600 1.181800
-5.745000 1.199800
-5.720500 1.222400
-5.695900 1.248300
-5.671300 1.279600
-5.646800 1.314500
-5.622200 1.352700
-5.597600 1.393800
-5.573100 1.439600
-5.548500 1.495600
-5.524000 1.551000
-5.499400 1.616000
-5.474800 1.665300
-5.450300 1.702200
-5.425700 1.740000
-5.401200 1.793400
-5.376600 1.715700
-5.352000 1.536100
-5.327500 1.457400
-5.302900 1.397300
-5.278300 1.288800
-5.253800 1.175600
-5.229200 1.110900
-5.204700 1.023700
-5.180100 0.939200
-5.155500 0.886400
-5.131000 0.952100
-5.106400 1.073000
-5.081800 1.204700
-5.057300 1.311400
-5.032700 1.341200
-5.008200 1.325600
-4.983600 1.312400
-4.959000 1.319000
-4.934500 1.388300
-4.909900 1.514800
-4.885400 1.628100
-4.860800 1.674500
-4.836200 1.752100
-4.811700 1.677400
-4.787100 1.687000
-4.762500 1.695400
-4.738000 1.722000
-4.713400 1.760700
-4.688900 1.813700
-4.664300 1.894100
-4.639700 1.928400
-4.615200 1.940100
-4.590600 1.969700
-4.566000 1.969500
-4.541500 1.956300
-4.516900 1.913800
-4.492400 1.851100
-4.467800 1.804200
-4.443200 1.755700
-4.418700 1.731900
-4.394100 1.711800
-4.369600 1.689600
-4.345000 1.690300
-4.320400 1.706500
-4.295900 1.712100
-4.271300 1.737200
-4.246700 1.674400
-4.222200 1.604000
-4.197600 1.458700
-4.173100 1.340700
-4.148500 1.270500
-4.123900 1.214000
-4.099400 1.161100
-4.074800 1.132900
-4.050200 1.106500
-4.025700 1.080900
-4.001100 1.081000
-3.976600 1.080600
-3.952000 1.079000
-3.927400 1.081800
-3.902900 1.090600
-3.878300 1.102500
-3.853800 1.126500
-3.829200 1.160600
-3.804600 1.193700
-3.780100 1.157900
-3.755500 1.138200
-3.730900 1.121700
-3.706400 1.114400
-3.681800 1.110200
-3.657300 1.108300
-3.632700 1.107400
-3.608100 1.115700
-3.583600 1.123500
-3.559000 1.133500
-3.534500 1.143300
-3.509900 1.153100
-3.485300 1.162500
-3.460800 1.171900
-3.436200 1.181300
-3.411600 1.186200
-3.387100 1.193200
-3.362500 1.203100
-3.338000 1.214700
-3.313400 1.227900
-3.288800 1.243200
-3.264300 1.260800
-3.239700 1.281600
-3.215100 1.302400
-3.190600 1.323300
-3.166000 1.345900
-3.141500 1.369000
-3.116900 1.393700
-3.092300 1.419100
-3.067800 1.447600
-3.043200 1.488300
-3.018700 1.561500
-2.994100 1.612000
-2.969500 1.619500
-2.945000 1.635100
-2.920400 1.641000
-2.895800 1.668200
-2.871300 1.674400
-2.846700 1.661600
-2.822200 1.671600
-2.797600 1.684200
-2.773000 1.698800
-2.748500 1.723600
-2.723900 1.724600
-2.699300 1.734500
-2.674800 1.750200
-2.650200 1.755300
-2.625700 1.750800
-2.601100 1.743800
-2.576500 1.737400
-2.552000 1.723500
-2.527400 1.690700
-2.502900 1.624700
-2.478300 1.552600
-2.453700 1.500200
-2.429200 1.465100
-2.404600 1.406600
-2.380000 1.337900
-2.355500 1.239400
-2.330900 1.140200
-2.306400 0.982200
-2.281800 0.823800
-2.257200 0.667900
-2.232700 0.548400
-2.208100 0.432700
-2.183500 0.323100
-2.159000 0.243700
-2.134400 0.177800
-2.109900 0.111700
-2.085300 0.045300
-2.060700 0.012500
-2.036200 0.045000
-2.011600 0.211900
-1.987100 0.487200
-1.962500 0.767000
-1.937900 1.103300
-1.913400 1.771300
-1.888800 2.164300
-1.864200 2.386300
-1.839700 2.589400
-1.815100 2.703900
-1.790600 2.843800
-1.766000 2.893700
-1.741400 2.844100
-1.716900 2.701400
-1.692300 2.631400
-1.667800 2.581500
-1.643200 2.573200
-1.618600 2.677200
-1.594100 2.686300
-1.569500 2.512100
-1.544900 2.405300
-1.520400 2.346200
-1.495800 2.306400
-1.471300 2.308500
-1.446700 2.375000
-1.422100 2.505200
-1.397600 2.608600
-1.373000 2.626300
-1.348400 2.625300
-1.323900 2.691100
-1.299300 2.787300
-1.274800 2.941400
-1.250200 2.967300
-1.225600 2.960600
-1.201100 2.942900
-1.176500 2.892700
-1.152000 2.866900
-1.127400 2.861500
-1.102800 2.976900
-1.078300 2.869900
-1.053700 2.745600
-1.029100 2.693800
-1.004600 2.613500
-0.980000 2.588000
-0.955500 2.603900
-0.930900 2.573000
-0.906300 2.478200
-0.881800 2.424100
-0.857200 2.391200
-0.832600 2.391400
-0.808100 2.375700
-0.783500 2.346400
-0.759000 2.587400
-0.734400 2.651600
-0.709800 2.825600
-0.685300 2.833300
-0.660700 2.801700
-0.636200 2.828800
-0.611600 3.178500
-0.587000 2.791900
-0.562500 2.774600
-0.537900 2.729300
-0.513300 2.570000
-0.488800 2.395800
-0.464200 2.355200
-0.439700 2.466400
-0.415100 2.323300
-0.390500 2.339200
-0.366000 2.317700
-0.341400 2.340000
-0.316800 2.408500
-0.292300 2.438600
-0.267700 2.529800
-0.243200 2.675400
-0.218600 3.136000
-0.194000 3.909200
-0.169500 4.275500
-0.144900 4.020400
-0.120400 3.846300
-0.095800 3.622700
-0.071200 3.535600
-0.046700 3.437000
-0.022100 3.347900
0.002500 3.292500
0.027000 3.269600
0.051600 3.256400
0.076100 3.224800
0.100700 3.236400
0.125300 3.294900
0.149800 3.469400
0.174400 3.739900
0.198900 4.023700
0.223500 3.951400
0.248100 4.032400
0.272600 3.374500
0.297200 3.094100
0.321800 2.961000
0.346300 3.184000
0.370900 3.464500
0.395400 3.479500
0.420000 3.401000
0.444600 3.277200
0.469100 3.175000
0.493700 3.126600
0.518300 3.136900
0.542800 3.173400
0.567400 3.345700
0.591900 3.364000
0.616500 3.303000
0.641100 3.058800
0.665600 3.019600
0.690200 2.683300
0.714700 2.115300
0.739300 1.822500
0.763900 1.613600
0.788400 1.542400
0.813000 1.559900
0.837600 1.614700
0.862100 1.716700
0.886700 1.922100
0.911200 2.210100
0.935800 2.534100
0.960400 2.612000
0.984900 2.635000
1.009500 2.759000
1.034100 2.936700
1.058600 3.165800
1.083200 3.138100
1.107700 3.060900
1.132300 3.088200
1.156900 3.198400
1.181400 3.368600
1.206000 3.799300
1.230500 4.278700
1.255100 4.564600
1.279700 4.775300
1.304200 4.749500
1.328800 4.678000
1.353400 4.675800
1.377900 4.577400
1.402500 4.609300
1.427000 4.371800
1.451600 4.260700
1.476200 4.285500
1.500700 4.337000
1.525300 4.334900
1.549800 4.329000
1.574400 4.196000
1.599000 4.022200
1.623500 4.170200
1.648100 4.184100
1.672700 4.308100
1.697200 4.404400
1.721800 4.493000
1.746300 4.719300
1.770900 4.952400
1.795500 4.885900
1.820000 4.637800
1.844600 4.503300
1.869200 4.408100
1.893700 4.327500
1.918300 4.055500
1.942800 3.919000
1.967400 3.941300
1.992000 3.866200
2.016500 3.785500
2.041100 3.735400
2.065600 3.859200
2.090200 3.880700
2.114800 3.871300
2.139300 3.964700
2.163900 3.980200
2.188500 3.990400
2.213000 3.963000
2.237600 4.002900
2.262100 4.117000
2.286700 4.050600
2.311300 3.933000
2.335800 3.844600
2.360400 3.879800
2.385000 3.761700
2.409500 3.605600
2.434100 3.504600
2.458600 3.478300
2.483200 3.472100
2.507800 3.434100
2.532300 3.420200
2.556900 3.534800
2.581400 3.455500
2.606000 3.255400
2.630600 3.208100
2.655100 3.226800
2.679700 3.316900
2.704300 3.416800
2.728800 3.341200
2.753400 3.418700
2.777900 3.488600
2.802500 3.407400
2.827100 3.392200
2.851600 3.364300
2.876200 3.357500
2.900800 3.486500
2.925300 3.631000
2.949900 3.734600
2.974400 3.857900
2.999000 3.872500
3.023600 4.121300
3.048100 4.488200
3.072700 4.441500
3.097200 4.305200
3.121800 4.310100
3.146400 4.269500
3.170900 3.991000
3.195500 4.004600
3.220100 3.766500
3.244600 3.586800
3.269200 3.621700
3.293700 3.459000
3.318300 3.241400
3.342900 3.168000
3.367400 3.123100
3.392000 3.275600
3.416500 3.406400
3.441100 3.627500
3.465700 3.998800
3.490200 4.469000
3.514800 5.105100
3.539400 5.842600
3.563900 5.603900
3.588500 5.288500
3.613000 5.316700
3.637600 5.315000
3.662200 5.100100
3.686700 5.085000
3.711300 4.934000
3.735900 4.519900
3.760400 4.186400
3.785000 3.772400
3.809500 3.559900
3.834100 3.369600
3.858700 3.172100
3.883200 2.982500
3.907800 2.838900
3.932300 2.877500
3.956900 2.792400
3.981500 2.702600
4.006000 2.426100
4.030600 2.241000
4.055200 2.138200
4.079700 2.115400
4.104300 2.036400
4.128800 2.371900
4.153400 2.864400
4.178000 3.210100
4.202500 3.446700
4.227100 3.797700
4.251700 4.587700
4.276200 5.297200
4.300800 5.738700
4.325300 6.266100
4.349900 5.714300
4.374500 4.729000
4.399000 3.971600
4.423600 3.654900
4.448100 3.413200
4.472700 3.528500
4.497300 3.660500
4.521800 4.266000
4.546400 4.913900
4.571000 5.900600
4.595500 6.914000
4.620100 6.369000
4.644600 6.844700
4.669200 7.682300
4.693800 8.693700
4.718300 8.137600
4.742900 7.057600
4.767500 6.238700
4.792000 5.726400
4.816600 5.403200
4.841100 5.254100
4.865700 5.514400
4.890300 5.279800
4.914800 5.116500
4.939400 5.013600
4.963900 4.808300
4.988500 4.894000
5.013100 5.070700
5.037600 5.258700
5.062200 5.193600
5.086800 4.880700
5.111300 4.605400
5.135900 4.365900
5.160400 4.247100
5.185000 4.169700
5.209600 4.251300
5.234100 4.321400
5.258700 4.572700
5.283200 4.930100
5.307800 5.317700
5.332400 5.837600
5.356900 5.965000
5.381500 6.330900
5.406100 6.690200
5.430600 6.892300
5.455200 6.951600
5.479700 6.810000
5.504300 6.569500
5.528900 6.026100
5.553400 5.898100
5.578000 5.893600
5.602600 6.077800
5.627100 5.537600
5.651700 5.449600
5.676200 5.543800
5.700800 5.646700
5.725400 5.925400
5.749900 5.922400
5.774500 5.864200
5.799000 5.772000
5.823600 5.748100
5.848200 5.616300
5.872700 5.751400
5.897300 5.468600
5.921900 5.141900
5.946400 5.173200
5.971000 5.038100
5.995500 5.258200
6.020100 5.892400
6.044700 7.005200
6.069200 8.274800
6.093800 8.429700
6.118400 8.258400
6.142900 8.940800
6.167500 9.019900
6.192000 9.209100
6.216600 8.483700
6.241200 7.275200
6.265700 6.690200
6.290300 7.253600
6.314800 8.498600
6.339400 9.366500
6.364000 8.224200
6.388500 8.123200
6.413100 6.664800
6.437700 6.616100
6.462200 5.399900
6.486800 5.207100
6.511300 5.015500
6.535900 5.041600
6.560500 5.384500
6.585000 5.629100
6.609600 5.397100
6.634200 5.448200
6.658700 5.670100
6.683300 5.958200
6.707800 5.367700
6.732400 4.551800
6.757000 3.992300
6.781500 3.796200
6.806100 4.309400
6.830600 5.237300
6.855200 6.833700
6.879800 7.719200
6.904300 8.013200
6.928900 6.618900
6.953500 6.284200
6.978000 5.927600
7.002600 5.519500
7.027100 5.286200
7.051700 5.474600
7.076300 5.618500
7.100800 5.982100
7.125400 5.844900
7.149900 6.682700
7.174500 6.418800
7.199100 6.021500
7.223600 5.488400
7.248200 4.959500
7.272800 4.424400
7.297300 4.016900
7.321900 3.835300
7.346400 3.716400
7.371000 3.546000
7.395600 3.461600
7.420100 3.370500
7.444700 3.347900
7.469300 3.374900
7.493800 3.481400
7.518400 3.648000
7.542900 3.867100
7.567500 4.159200
7.592100 4.135700
7.616600 4.159900
7.641200 4.298800
7.665700 4.386800
7.690300 4.236800
7.714900 4.025600
7.739400 3.991000
7.764000 3.969600
7.788600 3.830100
7.813100 3.857200
7.837700 3.980800
7.862200 4.107500
7.886800 4.124700
7.911400 4.111700
7.935900 3.975500
7.960500 3.800400
7.985100 3.679500
8.009600 3.460000
8.034200 3.218900
8.058700 3.113900
8.083300 3.079900
8.107900 3.068000
8.132400 3.068300
8.157000 3.119700
8.181500 3.262900
8.206100 3.355400
8.230700 3.415000
8.255200 3.188600
8.279800 3.036600
8.304400 2.929900
8.328900 2.711100
8.353500 2.443900
8.378000 2.275000
8.402600 2.203200
8.427200 2.156800
8.451700 2.132700
8.476300 2.182800
8.500900 2.435200
8.525400 2.039200
8.550000 1.863200
8.574500 1.814300
8.599100 1.774300
8.623700 1.711700
8.648200 1.663300
8.672800 1.616400
8.697300 1.577000
8.721900 1.551700
8.746500 1.527500
8.771000 1.496800
8.795600 1.472500
8.820200 1.468200
8.844700 1.445300
8.869300 1.338500
8.893800 1.297500
8.918400 1.258500
8.943000 1.214400
8.967500 1.157100
8.992100 1.109000
9.016600 1.061700
9.041200 1.010800
9.065800 0.994300
9.090300 0.956400
9.114900 0.918200
9.139500 0.881100
9.164000 0.848400
9.188600 0.831600
9.213100 0.828100
9.237700 0.790700
9.262300 0.767000
9.286800 0.746100
9.311400 0.723000
9.336000 0.691300
9.360500 0.658300
9.385100 0.625400
9.409600 0.592900
9.434200 0.563100
9.458800 0.527200
9.483300 0.736000
9.507900 0.652700
9.532400 0.725100
9.557000 0.792700
9.581600 0.925600
9.606100 1.013900
9.630700 1.097700
9.655300 1.077600
9.679800 1.009500
9.704400 0.990000
9.728900 1.003500
9.753500 1.020400
9.778100 1.035000
9.802600 1.065200
9.827200 1.110600
9.851800 1.272200
9.876300 1.252700
9.900900 1.293100
9.925400 1.286200
9.950000 1.283500
9.974600 1.258500
9.999100 1.246300
10.023700 1.241100
10.048200 1.240700
10.072800 1.244800
10.097400 1.263900
10.121900 1.265800
10.146500 1.265900
10.171100 1.274500
10.195600 1.286800
10.220200 1.304600
10.244700 1.327200
10.269300 1.347400
10.293900 1.370400
10.318400 1.414500
10.343000 1.448800
10.367600 1.439800
10.392100 1.395400
10.416700 1.378800
10.441200 1.366700
10.465800 1.357400
10.490400 1.347400
10.514900 1.336000
10.539500 1.325800
10.564000 1.318000
10.588600 1.307100
10.613200 1.296900
10.637700 1.291000
10.662300 1.288300
10.686900 1.291400
10.711400 1.297500
10.736000 1.304000
10.760500 1.311800
10.785100 1.318200
10.809700 1.325900
10.834200 1.334800
10.858800 1.344900
10.883300 1.356200
10.907900 1.369600
10.932500 1.383800
10.957000 1.397300
10.981600 1.414900
11.006200 1.437700
11.030700 1.466400
11.055300 1.497700
11.079800 1.529100
11.104400 1.565800
11.129000 1.596600
11.153500 1.621600
11.178100 1.645500
11.202700 1.666100
11.227200 1.684400
11.251800 1.708500
11.276300 1.736000
11.300900 1.767500
11.325500 1.806100
11.350000 1.848900
11.374600 1.907600
11.399100 1.983700
11.423700 2.073400
11.448300 2.198000
11.472800 2.363400
11.497400 2.523500
11.522000 2.717500
11.546500 2.912000
11.571100 3.024600
11.595600 3.071700
11.620200 3.123100
11.644800 3.190600
11.669300 3.234800
11.693900 3.043600
11.718500 2.966700
11.743000 3.041900
11.767600 2.864500
11.792100 2.788100
11.816700 2.744500
11.841300 2.407800
11.865800 2.162100
11.890400 2.041800
11.914900 1.936800
11.939500 1.834400
11.964100 1.745000
11.988600 1.666900
12.013200 1.602300
12.037800 1.535100
12.062300 1.469400
12.086900 1.414600
12.111400 1.371800
12.136000 1.299400
12.160600 1.228400
12.185100 1.163500
12.209700 1.128500
12.234300 1.139200
12.258800 1.166300
12.283400 1.178300
12.307900 1.275900
12.332500 2.417100
12.357100 3.118100
12.381600 3.347000
12.406200 3.713700
12.430700 3.693200
12.455300 3.585300
12.479900 3.573900
12.504400 3.586800
12.529000 3.349000
12.553600 2.913900
12.578100 2.730200
12.602700 2.480000
12.627200 2.376800
12.651800 2.260300
12.676400 2.189800
12.700900 2.137900
12.725500 2.106900
12.750000 2.097000
12.774600 2.093000
12.799200 2.093500
12.823700 2.079600
12.848300 2.088900
12.872900 2.086600
12.897400 2.080600
12.922000 2.071500
12.946500 2.102700
12.971100 2.069000
12.995700 2.060000
13.020200 2.073200
13.044800 2.096600
13.069400 2.129900
13.093900 2.226100
13.118500 2.452900
13.143000 2.535900
13.167600 2.632300
13.192200 2.744100
13.216700 2.687200
13.241300 2.641400
13.265800 2.518600
13.290400 2.472700
13.315000 2.326400
13.339500 2.233000
13.364100 2.106000
13.388700 1.994100
13.413200 1.913700
13.437800 1.851500
13.462300 1.813200
13.486900 1.785400
13.511500 1.655300
13.536000 1.554500
13.560600 1.444400
13.585200 1.356500
13.609700 1.278900
13.634300 1.211000
13.658800 1.149300
13.683400 1.064300
13.708000 0.997000
13.732500 0.940700
13.757100 0.892700
13.781600 0.846300
13.806200 0.795600
13.830800 0.742500
13.855300 0.694800
13.879900 0.669800
13.904500 0.648700
13.929000 0.629800
13.953600 0.608400
13.978100 0.584700
14.002700 0.562200
14.027300 0.542000
14.051800 0.523900
14.076400 0.506300
14.100900 0.490900
14.125500 0.476100
14.150100 0.462300
14.174600 0.446400
14.199200 0.431700
14.223800 0.418200
14.248300 0.393400
14.272900 0.367200
14.297400 0.341000
14.322000 0.313200
14.346600 0.284300
14.371100 0.253200
14.395700 0.225900
14.420300 0.202700
14.444800 0.184300
14.469400 0.169000
14.493900 0.151700
14.518500 0.177200
14.543100 0.186300
14.567600 0.058600
14.592200 0.004000
14.616700 0.000000
14.641300 0.009200
14.665900 0.047400
14.690400 0.092000
14.715000 0.155300
14.739600 0.193100
14.764100 0.193800
14.788700 0.207100
14.813200 0.213400
14.837800 0.236500
14.862400 0.313200
14.886900 0.548700
14.911500 1.201200
14.936100 1.285700
14.960600 1.328300
14.985200 1.378600
15.009700 1.461400
15.034300 1.478300
15.058900 1.456100
15.083400 1.450500
15.108000 1.493900
15.132500 1.558000
15.157100 1.607400
15.181700 1.613500
15.206200 1.632500
15.230800 1.686200
15.255400 1.792700
15.279900 1.865700
15.304500 1.957400
15.329000 2.163100
15.353600 2.378000
15.378200 2.514800
15.402700 2.809200
15.427300 3.214400
15.451900 3.268900
15.476400 2.931200
15.501000 2.819900
15.525500 2.870700
15.550100 2.979700
15.574700 2.967900
15.599200 3.149800
15.623800 3.179400
15.648300 3.134500
15.672900 3.201300
15.697500 3.397200
15.722000 3.521500
15.746600 3.552200
15.771200 3.616900
15.795700 3.554900
15.820300 3.542900
15.844800 3.560000
15.869400 3.605600
15.894000 3.638400
15.918500 3.550300
15.943100 3.447400
15.967600 3.356100
15.992200 3.203100
16.016800 3.133900
16.041300 3.040200
16.065900 3.047300
16.090500 2.972700
16.115000 2.961500
16.139600 3.125000
16.164100 2.999300
16.188700 2.922300
16.213300 2.936000
16.237800 2.872900
16.262400 2.904200
16.287000 2.997400
16.311500 3.102100
16.336100 3.078400
16.360600 2.827600
16.385200 2.520600
16.409800 2.344600
16.434300 2.379600
16.458900 2.518200
16.483400 3.135100
16.508000 3.754100
16.532600 3.684100
16.557100 3.461500
16.581700 3.367800
16.606300 3.320900
16.630800 3.135900
16.655400 3.023500
16.679900 2.920700
16.704500 2.858200
16.729100 2.932000
16.753600 2.992900
16.778200 2.978500
16.802800 3.046100
16.827300 3.402100
16.851900 3.713200
16.876400 4.099900
16.901000 4.683900
16.925600 6.365500
16.950100 6.425500
16.974700 6.438400
16.999200 6.703900
17.023800 6.433900
17.048400 6.164700
17.072900 5.983000
17.097500 5.738500
17.122100 5.318100
17.146600 4.695200
17.171200 4.123400
17.195700 3.802600
17.220300 3.766600
17.244900 3.851800
17.269400 3.993000
17.294000 4.090300
17.318600 4.158600
17.343100 4.266200
17.367700 4.352600
17.392200 4.259400
17.416800 4.102500
17.441400 4.052800
17.465900 4.126700
17.490500 4.272500
17.515000 4.558400
17.539600 5.033100
17.564200 5.768500
17.588700 6.306600
17.613300 6.308800
17.637900 6.243700
17.662400 6.131000
17.687000 6.546900
17.711500 6.850200
17.736100 6.522800
17.760700 6.879600
17.785200 6.949100
17.809800 6.420300
17.834300 6.125900
17.858900 6.018500
17.883500 6.188200
17.908000 6.214100
17.932600 6.342100
17.957200 5.706900
17.981700 5.237300
18.006300 5.062900
18.030800 5.014600
18.055400 5.039900
18.080000 5.048200
18.104500 5.034100
18.129100 5.026000
18.153700 4.979200
18.178200 4.821600
18.202800 4.679700
18.227300 4.513800
18.251900 4.307500
18.276500 4.336300
18.301000 4.381200
18.325600 4.201600
18.350100 4.257100
18.374700 4.038000
18.399300 4.054000
18.423800 3.906900
18.448400 3.809400
18.473000 3.603100
18.497500 3.487400
18.522100 3.472100
18.546600 3.626000
18.571200 3.650700
18.595800 3.617700
18.620300 3.537100
18.644900 3.578000
18.669500 3.669900
18.694000 3.662500
18.718600 3.732100
18.743100 3.701400
18.767700 3.519200
18.792300 3.502700
18.816800 3.688800
18.841400 3.991100
18.865900 4.194000
18.890500 4.406500
18.915100 4.490300
18.939600 4.321900
18.964200 3.923100
18.988800 3.845700
19.013300 3.929000
19.037900 3.940200
19.062400 4.058900
19.087000 4.326600
19.111600 4.608200
19.136100 5.184500
19.160700 5.489200
19.185300 5.701800
19.209800 5.895500
19.234400 6.008100
19.258900 6.158300
19.283500 6.079700
19.308100 5.888800
19.332600 5.267200
19.357200 4.908900
19.381700 4.614700
19.406300 4.454000
19.430900 4.413700
19.455400 4.700600
19.480000 4.979600
19.504600 5.195900
19.529100 5.658600
19.553700 6.255800
19.578200 6.394300
19.602800 6.484100
19.627400 6.202000
19.651900 5.764400
19.676500 5.327800
19.701000 5.004500
19.725600 4.601600
19.750200 4.408500
19.774700 4.176500
19.799300 3.721300
19.823900 3.484300
19.848400 3.281200
19.873000 3.245400
19.897500 3.498400
19.922100 4.025600
19.946700 4.754400
19.971200 5.337900
19.995800 5.666900
20.020400 5.721100
20.044900 5.819100
20.069500 5.767600
20.094000 5.202200
20.118600 4.829600
20.143200 4.621400
20.167700 4.553400
20.192300 4.558200
20.216800 4.479700
20.241400 4.332000
20.266000 4.301400
20.290500 4.310700
20.315100 4.246800
20.339700 4.297900
20.364200 4.317300
20.388800 4.317400
20.413300 4.237200
20.437900 4.250500
20.462500 4.115200
20.487000 4.218700
20.511600 4.340600
20.536200 4.190600
20.560700 4.552900
20.585300 4.469600
20.609800 4.477700
20.634400 4.618600
20.659000 4.357500
20.683500 3.949300
20.708100 3.851900
20.732600 3.837400
20.757200 3.705700
20.781800 3.702400
20.806300 3.551400
20.830900 3.518700
20.855500 3.533800
20.880000 3.571600
20.904600 3.673900
20.929100 3.844200
20.953700 4.078000
20.978300 4.142100
21.002800 4.189800
21.027400 3.995100
21.052000 3.787300
21.076500 3.728300
21.101100 3.851200
21.125600 3.803300
21.150200 3.712600
21.174800 3.574800
21.199300 3.519300
21.223900 3.559800
21.248400 3.590200
21.273000 3.586300
21.297600 3.516200
21.322100 3.302900
21.346700 3.115300
21.371300 2.874900
21.395800 2.700600
21.420400 2.554600
21.444900 2.434700
21.469500 2.362600
21.494100 2.341800
21.518600 2.333000
21.543200 2.407900
21.567700 2.362600
21.592300 2.426600
21.616900 2.456300
21.641400 2.738000
21.666000 2.959600
21.690600 3.267800
21.715100 3.535900
21.739700 3.772300
21.764200 3.966000
21.788800 4.070900
21.813400 4.060200
21.837900 3.972600
21.862500 3.770600
21.887100 3.924700
21.911600 3.955100
21.936200 3.914700
21.960700 3.813100
21.985300 3.645600
22.009900 3.556200
22.034400 3.490000
22.059000 3.431000
22.083500 3.278900
22.108100 3.158600
22.132700 3.093200
22.157200 3.117300
22.181800 3.058300
22.206400 2.928200
22.230900 2.942800
22.255500 2.990700
22.280000 3.214900
22.304600 3.080600
22.329200 3.034100
22.353700 3.028900
22.378300 3.036900
22.402900 3.184900
22.427400 3.187800
22.452000 3.184300
22.476500 3.174600
22.501100 3.243500
22.525700 3.338800
22.550200 3.472500
22.574800 3.620000
22.599300 3.747700
22.623900 3.761400
22.648500 3.790100
22.673000 3.800200
22.697600 3.732100
22.722200 3.629700
22.746700 3.644400
22.771300 3.548700
22.795800 3.431800
22.820400 3.304700
22.845000 3.294000
22.869500 3.272800
22.894100 3.251600
22.918700 3.257500
22.943200 3.276500
22.967800 3.233400
22.992300 3.236200
23.016900 3.278100
23.041500 3.363200
23.066000 3.470600
23.090600 3.495600
23.115100 3.420700
23.139700 3.442900
23.164300 3.472400
23.188800 3.529900
23.213400 3.461700
23.238000 3.435400
23.262500 3.387200
23.287100 3.194800
23.311600 3.169500
23.336200 3.223900
23.360800 3.280900
23.385300 3.532500
23.409900 3.786700
23.434400 3.651900
23.459000 3.765600
23.483600 3.629300
23.508100 3.471300
23.532700 3.349100
23.557300 3.241500
23.581800 3.132200
23.606400 3.003500
23.630900 2.916600
23.655500 2.845200
23.680100 2.799000
23.704600 2.748700
23.729200 2.700500
23.753800 2.682000
23.778300 2.683600
23.802900 2.709900
23.827400 2.704300
23.852000 2.728000
23.876600 2.797300
23.901100 2.851000
23.925700 2.854000
23.950200 2.894800
23.974800 2.884200
23.999400 2.917900
24.023900 2.704100
24.048500 2.652900
24.073100 2.658400
24.097600 2.662500
24.122200 2.663800
24.146700 2.731400
24.171300 2.749200
24.195900 2.818600
24.220400 2.943300
24.245000 2.964000
24.269600 3.013200
24.294100 3.285100
24.318700 3.184900
24.343200 2.842500
24.367800 2.756200
24.392400 2.738300
24.416900 2.759400
24.441500 2.709300
24.466000 2.755300
24.490600 2.834500
24.515200 2.751500
24.539700 2.677700
24.564300 2.585200
24.588900 2.512700
24.613400 2.474000
24.638000 2.506700
24.662500 2.531000
24.687100 2.540800
24.711700 2.591700
24.736200 2.705400
24.760800 2.711700
24.785300 2.709000
24.809900 2.707700
24.834500 2.709000
24.859000 2.707800
24.883600 2.736800
24.908200 2.678800
24.932700 2.698900
24.957300 2.631300
24.981800 2.634400
25.006400 2.688400
25.031000 2.897900
25.055500 2.975400
25.080100 3.105300
25.104700 3.163900
25.129200 3.269700
25.153800 3.448300
25.178300 3.659300
25.202900 3.999800
25.227500 4.234900
25.252000 4.370700
25.276600 4.388700
25.301100 4.212200
25.325700 4.173100
25.350300 4.165000
25.374800 3.844800
25.399400 3.590700
25.424000 3.432100
25.448500 3.407500
25.473100 3.271000
25.497600 3.126700
25.522200 2.972100
25.546800 2.831500
25.571300 2.777800
25.595900 2.815700
25.620500 2.953100
25.645000 3.093500
25.669600 3.193700
25.694100 3.383500
25.718700 3.579700
25.743300 3.716600
25.767800 3.649500
25.792400 3.384200
25.816900 3.276200
25.841500 3.261900
25.866100 3.173100
25.890600 3.146300
25.915200 3.131800
25.939800 3.170500
25.964300 3.210200
25.988900 3.139200
26.013400 3.007300
26.038000 2.847700
26.062600 2.728900
26.087100 2.691000
26.111700 2.626700
26.136300 2.534700
26.160800 2.488500
26.185400 2.564900
26.209900 2.594700
26.234500 2.612600
26.259100 2.702000
26.283600 2.906200
26.308200 3.132000
26.332700 3.303500
26.357300 3.490500
26.381900 3.636100
26.406400 3.781200
26.431000 4.011000
26.455600 4.155400
26.480100 4.595600
26.504700 4.857200
26.529200 5.251900
26.553800 5.149300
26.578400 5.089100
26.602900 5.184300
26.627500 5.350800
26.652000 5.116100
26.676600 4.594100
26.701200 3.956300
26.725700 3.569500
26.750300 3.271300
26.774900 3.136900
26.799400 3.110300
26.824000 3.094000
26.848500 3.045400
26.873100 3.048200
26.897700 3.156500
26.922200 3.274900
26.946800 3.519000
26.971400 3.684300
26.995900 3.722200
27.020500 3.802500
27.045000 3.928400
27.069600 3.989900
27.094200 3.722400
27.118700 3.544300
27.143300 3.598000
27.167800 3.562500
27.192400 3.186000
27.217000 3.052100
27.241500 3.055800
27.266100 2.992200
27.290700 3.023800
27.315200 3.100600
27.339800 3.160200
27.364300 3.163100
27.388900 3.173100
27.413500 3.023200
27.438000 3.003500
27.462600 3.097100
27.487200 3.370600
27.511700 3.437700
27.536300 3.541900
27.560800 3.585800
27.585400 3.539700
27.610000 3.487300
27.634500 3.448800
27.659100 3.425600
27.683600 3.353500
27.708200 3.247800
27.732800 3.205800
27.757300 3.274400
27.781900 3.279300
27.806500 3.358400
27.831000 3.480800
27.855600 3.553800
27.880100 3.508800
27.904700 3.437500
27.929300 3.396300
27.953800 3.390600
27.978400 3.388700
28.003000 3.445000
28.027500 3.446300
28.052100 3.120800
28.076600 2.950300
28.101200 2.934800
28.125800 2.954800
28.150300 3.019800
28.174900 3.055700
28.199400 3.086100
28.224000 3.125700
28.248600 3.162100
28.273100 3.214400
28.297700 3.300900
28.322300 3.370900
28.346800 3.422500
28.371400 3.484400
28.395900 3.437200
28.420500 3.342300
28.445100 3.180600
28.469600 3.107100
28.494200 3.115800
28.518700 3.088900
28.543300 3.082000
28.567900 3.113000
28.592400 3.324100
28.617000 3.320800
28.641600 3.494100
28.666100 3.641800
28.690700 3.746400
28.715200 3.813500
28.739800 3.819100
28.764400 3.828800
28.788900 3.805600
28.813500 3.795400
28.838100 3.767800
28.862600 3.798000
28.887200 3.924000
28.911700 4.063900
28.936300 4.223000
28.960900 4.216600
28.985400 4.074600
29.010000 3.964700
29.034500 3.665600
29.059100 3.589200
29.083700 3.200000
29.108200 2.939800
29.132800 2.726400
29.157400 2.741600
29.181900 3.091300
29.206500 3.294100
29.231000 3.487200
29.255600 3.607300
29.280200 3.656000
29.304700 3.711400
29.329300 3.817300
29.353900 3.910900
29.378400 4.151600
29.403000 4.344700
29.427500 4.304400
29.452100 4.215500
29.476700 4.094500
29.501200 3.960100
29.525800 3.830400
29.550300 3.731700
29.574900 3.687400
29.599500 3.668300
29.624000 3.766300
29.648600 3.939900
29.673200 4.101200
29.697700 4.421600
29.722300 4.581700
29.746800 4.739800
29.771400 4.486700
29.796000 4.366300
29.820500 4.303800
29.845100 4.251200
29.869700 4.188000
29.894200 4.147800
29.918800 3.767900
29.943300 3.528900
29.967900 3.342200
29.992500 3.186700
30.017000 3.059700
30.041600 2.960300
30.066100 2.969300
30.090700 2.957100
30.115300 2.911800
30.139800 3.106000
30.164400 3.104400
30.189000 3.038100
30.213500 3.096000
30.238100 3.147700
30.262600 3.267300
30.287200 3.407100
30.311800 3.426200
30.336300 3.364500
30.360900 3.361900
30.385400 3.259000
30.410000 3.151400
30.434600 3.247300
30.459100 3.229700
30.483700 3.230000
30.508300 3.252800
30.532800 3.329100
30.557400 3.321200
30.581900 3.324100
30.606500 3.291700
30.631100 3.304800
30.655600 3.203200
30.680200 3.193700
30.704800 3.179200
30.729300 3.241900
30.753900 3.214300
30.778400 3.256500
30.803000 3.296500
30.827600 3.300000
30.852100 3.316200
30.876700 3.367500
30.901200 3.408100
30.925800 3.403200
30.950400 3.431500
30.974900 3.541500
30.999500 3.535100
31.024100 3.701300
31.048600 3.754400
31.073200 3.819900
31.097700 3.920600
31.122300 3.977400
31.146900 4.084500
31.171400 4.189300
31.196000 4.622500
31.220600 4.409000
31.245100 4.318000
31.269700 4.189900
31.294200 4.297300
31.318800 3.941100
31.343400 3.703800
31.367900 3.480800
31.392500 3.331700
31.417000 3.368000
31.441600 3.479100
31.466200 3.848800
31.490700 3.959400
31.515300 3.855900
31.539900 3.734900
31.564400 3.655500
31.589000 3.560200
31.613500 3.517800
31.638100 3.550200
31.662700 3.468700
31.687200 3.325400
31.711800 3.214200
31.736400 3.103800
31.760900 3.000900
31.785500 2.934300
31.810000 2.918700
31.834600 2.908400
31.859200 2.930400
31.883700 2.930700
31.908300 2.839100
31.932800 2.813600
31.957400 2.904100
31.982000 2.975000
32.006500 3.077600
32.031100 3.137800
32.055700 3.267000
32.080200 3.341100
32.104800 3.380200
32.129300 3.471800
32.153900 3.482500
32.178500 3.414000
32.203000 3.320700
32.227600 3.264300
32.252100 3.172900
32.276700 3.132200
32.301300 3.143400
32.325800 3.215500
32.350400 3.132700
32.375000 2.932200
32.399500 2.640200
32.424100 2.055400
32.448600 1.827700
32.473200 1.702800
32.497800 1.616700
32.522300 1.580000
32.546900 1.544900
32.571500 1.503000
32.596000 1.485900
32.620600 1.486200
32.645100 1.573400
32.669700 1.510000
32.694300 1.379900
32.718800 1.193600
32.743400 0.977400
32.767900 0.827500
32.792500 0.687500
32.817100 0.591400
32.841600 0.504000
32.866200 0.431700
32.890800 0.368200
32.915300 0.305500
32.939900 0.249800
32.964400 0.213800
32.989000 0.185600
33.013600 0.156700
33.038100 0.124900
33.062700 0.091200
33.087300 0.057500
33.111800 0.026000
33.136400 0.012600
33.160900 0.009800
33.185500 0.008000
33.210100 0.006400
33.234600 0.004900
33.259200 0.003600
33.283700 0.002400
33.308300 0.001200
33.332900 0.000300
33.357400 0.000000
33.382000 0.000000
33.406600 0.000000
33.431100 0.000000
33.455700 0.000000
33.480200 0.000000
33.504800 0.000000
33.529400 0.000000
33.553900 0.000000
33.578500 0.000000
33.603100 0.000000
33.627600 0.000000
33.652200 0.000000
33.676700 0.000000
33.701300 0.000000
33.725900 0.000000
33.750400 0.000000
33.775000 0.000000
33.799500 0.000000
33.824100 0.000000
33.848700 0.000000
33.873200 0.000000
33.897800 0.000000
33.922400 0.000000
33.946900 0.000000
33.971500 0.000000
33.996000 0.000000
34.020600 0.000000
34.045200 0.000000
34.069700 0.000000
34.094300 0.000000
34.118800 0.000000
34.143400 0.000000
34.168000 0.000000
34.192500 0.000000
34.217100 0.000000
34.241700 0.000000
34.266200 0.000000
34.290800 0.000000
34.315300 0.000000
34.339900 0.000000
34.364500 0.000000
34.389000 0.000000
34.413600 0.000000
34.438200 0.000000
34.462700 0.000000
34.487300 0.000000
34.511800 0.000000
34.536400 0.000000
34.561000 0.000000
34.585500 0.000000
34.610100 0.000000
34.634600 0.000000
34.659200 0.000000
34.683800 0.000000
34.708300 0.000000
34.732900 0.000000
34.757500 0.000000
34.782000 0.000000
34.806600 0.000000
34.831100 0.000000
34.855700 0.000000
34.880300 0.000000
34.904800 0.000000
34.929400 0.000000
34.954000 0.000000
34.978500 0.000000
35.003100 0.000000
35.027600 0.000000
35.052200 0.000000
35.076800 0.000000
35.101300 0.000000
35.125900 0.000000
35.150400 0.000000
35.175000 0.000000
35.199600 0.000000
35.224100 0.000000
35.248700 0.000000
35.273300 0.000000
35.297800 0.000000
35.322400 0.000000
35.346900 0.000000
35.371500 0.000000
35.396100 0.000000
35.420600 0.000000
35.445200 0.000000
35.469800 0.000000
35.494300 0.000000
35.518900 0.000000
35.543400 0.000000
35.568000 0.000000
35.592600 0.000000
e
