set title 'mp-1215488 - Density of States'
set xlabel 'Energy (eV)'
set ylabel 'DOS (states/eV)'
set grid
set xrange [-10:10]
set yrange [0:113.239]
set xzeroaxis lt -1
set terminal png size 800,600
set output 'mp-1215488_dos_gnuplot.png'
plot '-' using 1:2 with lines title 'DOS'
-7.190400 0.000000
-7.173500 0.000000
-7.156700 0.000000
-7.139800 0.000000
-7.122900 0.000000
-7.106100 0.000000
-7.089200 0.000000
-7.072400 0.000000
-7.055500 0.000000
-7.038600 0.000000
-7.021800 0.000000
-7.004900 0.000000
-6.988000 0.000000
-6.971200 0.000000
-6.954300 0.000000
-6.937500 0.000000
-6.920600 0.000000
-6.903700 0.000000
-6.886900 0.000000
-6.870000 0.000000
-6.853200 0.000000
-6.836300 0.000000
-6.819400 0.000000
-6.802600 0.000000
-6.785700 0.000000
-6.768800 0.000000
-6.752000 0.000000
-6.735100 0.000000
-6.718300 0.000000
-6.701400 0.000000
-6.684500 0.000000
-6.667700 0.000000
-6.650800 0.000000
-6.633900 0.000000
-6.617100 0.000000
-6.600200 0.000000
-6.583400 0.000000
-6.566500 0.000000
-6.549600 0.000000
-6.532800 0.000000
-6.515900 0.000000
-6.499000 0.000000
-6.482200 0.000000
-6.465300 0.000000
-6.448500 0.000000
-6.431600 0.000000
-6.414700 0.000000
-6.397900 0.000000
-6.381000 0.000000
-6.364200 0.000000
-6.347300 0.000000
-6.330400 0.000000
-6.313600 0.000000
-6.296700 0.000000
-6.279800 0.000000
-6.263000 0.000000
-6.246100 0.000000
-6.229300 0.000000
-6.212400 0.000000
-6.195500 0.000000
-6.178700 0.000000
-6.161800 0.000000
-6.144900 0.000000
-6.128100 0.000000
-6.111200 0.000000
-6.094400 0.000000
-6.077500 0.000000
-6.060600 0.000000
-6.043800 0.000000
-6.026900 0.000000
-6.010000 0.000000
-5.993200 0.000000
-5.976300 0.000000
-5.959500 0.000000
-5.942600 0.000000
-5.925700 0.000000
-5.908900 0.000000
-5.892000 0.000000
-5.875200 0.000000
-5.858300 0.000000
-5.841400 0.000000
-5.824600 0.000000
-5.807700 0.000000
-5.790800 0.000000
-5.774000 0.000000
-5.757100 0.000000
-5.740300 0.000000
-5.723400 0.000000
-5.706500 0.000000
-5.689700 0.000000
-5.672800 0.000000
-5.655900 0.259500
-5.639100 0.378300
-5.622200 0.304600
-5.605400 0.339500
-5.588500 0.374400
-5.571600 0.409300
-5.554800 0.444200
-5.537900 0.479100
-5.521000 0.434500
-5.504200 0.387700
-5.487300 0.388600
-5.470500 0.389400
-5.453600 0.390300
-5.436700 0.391100
-5.419900 0.392000
-5.403000 0.394500
-5.386200 0.402300
-5.369300 0.412100
-5.352400 0.421900
-5.335600 0.431700
-5.318700 0.441500
-5.301800 0.451400
-5.285000 0.441300
-5.268100 0.422600
-5.251300 0.421300
-5.234400 0.419900
-5.217500 0.418500
-5.200700 0.417100
-5.183800 0.415800
-5.166900 0.416800
-5.150100 0.421500
-5.133200 0.425900
-5.116400 0.430200
-5.099500 0.434600
-5.082600 0.438900
-5.065800 0.443300
-5.048900 0.447600
-5.032000 0.452000
-5.015200 0.456300
-4.998300 0.460700
-4.981500 0.465000
-4.964600 0.469400
-4.947700 0.467800
-4.930900 0.465200
-4.914000 0.468400
-4.897200 0.471700
-4.880300 0.474900
-4.863400 0.478200
-4.846600 0.481400
-4.829700 0.485100
-4.812800 0.489300
-4.796000 0.493400
-4.779100 0.497500
-4.762300 0.501700
-4.745400 0.505800
-4.728500 0.509900
-4.711700 0.514100
-4.694800 0.518200
-4.677900 0.522400
-4.661100 0.526500
-4.644200 0.530600
-4.627400 0.541700
-4.610500 0.550800
-4.593600 0.557700
-4.576800 0.564600
-4.559900 0.599400
-4.543000 0.615500
-4.526200 0.631600
-4.509300 0.647700
-4.492500 0.761600
-4.475600 0.799200
-4.458700 0.835600
-4.441900 0.873200
-4.425000 0.912300
-4.408100 0.953000
-4.391300 0.995300
-4.374400 1.007400
-4.357600 1.048600
-4.340700 1.095600
-4.323800 1.143300
-4.307000 1.191200
-4.290100 1.287000
-4.273300 1.328200
-4.256400 1.624100
-4.239500 1.753500
-4.222700 1.881500
-4.205800 2.008300
-4.188900 2.094900
-4.172100 2.207100
-4.155200 4.833500
-4.138400 6.374300
-4.121500 5.786800
-4.104600 8.631000
-4.087800 10.169800
-4.070900 9.295600
-4.054000 11.497300
-4.037200 12.310500
-4.020300 13.894200
-4.003500 18.505200
-3.986600 18.053900
-3.969700 15.068500
-3.952900 12.361000
-3.936000 13.665900
-3.919100 14.292800
-3.902300 16.315100
-3.885400 35.902800
-3.868600 30.776500
-3.851700 28.444900
-3.834800 27.609300
-3.818000 24.193000
-3.801100 20.172700
-3.784300 16.238500
-3.767400 17.099000
-3.750500 16.154200
-3.733700 28.279100
-3.716800 31.387100
-3.699900 23.483200
-3.683100 13.707700
-3.666200 13.618200
-3.649400 17.096200
-3.632500 14.937400
-3.615600 15.549900
-3.598800 14.882400
-3.581900 17.258800
-3.565000 12.935200
-3.548200 9.387300
-3.531300 23.452300
-3.514500 16.931800
-3.497600 24.731000
-3.480700 14.945400
-3.463900 26.357300
-3.447000 19.289700
-3.430100 28.592900
-3.413300 33.128600
-3.396400 29.509300
-3.379600 32.567200
-3.362700 38.102300
-3.345800 43.444600
-3.329000 41.363800
-3.312100 42.654800
-3.295300 50.182300
-3.278400 38.553600
-3.261500 34.769500
-3.244700 49.261100
-3.227800 72.280300
-3.210900 56.006400
-3.194100 70.264300
-3.177200 72.965800
-3.160400 75.158300
-3.143500 52.051800
-3.126600 79.348200
-3.109800 60.963000
-3.092900 75.953400
-3.076000 58.049600
-3.059200 102.944200
-3.042300 72.924300
-3.025500 62.164900
-3.008600 60.665700
-2.991700 47.623000
-2.974900 55.564600
-2.958000 48.040800
-2.941100 59.054100
-2.924300 66.451400
-2.907400 64.278300
-2.890600 51.850200
-2.873700 48.539900
-2.856800 69.043400
-2.840000 58.193100
-2.823100 47.008200
-2.806300 42.592900
-2.789400 21.234000
-2.772500 19.439100
-2.755700 14.814500
-2.738800 12.312700
-2.721900 11.324500
-2.705100 10.999900
-2.688200 12.033000
-2.671400 15.663000
-2.654500 15.678200
-2.637600 14.469200
-2.620800 5.550900
-2.603900 5.111400
-2.587000 4.787400
-2.570200 4.181300
-2.553300 3.601500
-2.536500 2.098200
-2.519600 2.057200
-2.502700 2.037100
-2.485900 2.019500
-2.469000 2.006400
-2.452100 1.995000
-2.435300 1.987500
-2.418400 1.981900
-2.401600 1.977600
-2.384700 1.972800
-2.367800 1.946900
-2.351000 1.923900
-2.334100 1.907400
-2.317300 1.898400
-2.300400 1.893100
-2.283500 1.891100
-2.266700 1.891300
-2.249800 1.891200
-2.232900 1.892700
-2.216100 1.895400
-2.199200 1.899800
-2.182400 1.902300
-2.165500 1.975800
-2.148600 1.996200
-2.131800 2.018500
-2.114900 2.041100
-2.098000 2.065000
-2.081200 2.089400
-2.064300 2.113700
-2.047500 2.138700
-2.030600 2.148400
-2.013700 2.177100
-1.996900 2.205300
-1.980000 2.246000
-1.963100 2.275100
-1.946300 2.304500
-1.929400 2.335500
-1.912600 2.368900
-1.895700 2.401700
-1.878800 2.447900
-1.862000 2.486800
-1.845100 2.528900
-1.828300 2.570700
-1.811400 2.630200
-1.794500 2.697500
-1.777700 2.764400
-1.760800 2.836400
-1.743900 2.957000
-1.727100 3.294200
-1.710200 3.456000
-1.693400 3.587700
-1.676500 3.598900
-1.659600 3.683700
-1.642800 3.785000
-1.625900 3.859600
-1.609000 3.925900
-1.592200 4.086000
-1.575300 4.328300
-1.558500 4.479200
-1.541600 4.625500
-1.524700 4.782000
-1.507900 4.936700
-1.491000 5.091900
-1.474100 5.366000
-1.457300 5.554700
-1.440400 6.279000
-1.423600 7.120900
-1.406700 13.940900
-1.389800 8.061900
-1.373000 7.306300
-1.356100 8.014800
-1.339300 13.019500
-1.322400 6.874900
-1.305500 4.727500
-1.288700 3.666700
-1.271800 3.413000
-1.254900 3.681800
-1.238100 3.515300
-1.221200 3.776400
-1.204400 4.342400
-1.187500 6.341300
-1.170600 3.820700
-1.153800 3.544100
-1.136900 6.621000
-1.120000 4.357400
-1.103200 4.734200
-1.086300 2.344200
-1.069500 2.452400
-1.052600 3.625000
-1.035700 3.181900
-1.018900 3.392300
-1.002000 3.646200
-0.985100 3.955000
-0.968300 4.321300
-0.951400 4.996300
-0.934600 4.828300
-0.917700 4.661100
-0.900800 4.655900
-0.884000 4.602300
-0.867100 4.558900
-0.850300 4.535100
-0.833400 3.529300
-0.816500 3.394200
-0.799700 3.191100
-0.782800 3.090100
-0.765900 3.018700
-0.749100 2.874500
-0.732200 3.074300
-0.715400 4.132000
-0.698500 4.574300
-0.681600 1.716000
-0.664800 1.820000
-0.647900 2.177400
-0.631000 2.443800
-0.614200 2.697300
-0.597300 2.974800
-0.580500 3.791600
-0.563600 4.025000
-0.546700 4.429400
-0.529900 5.724500
-0.513000 3.786600
-0.496100 3.876300
-0.479300 4.385700
-0.462400 4.494100
-0.445600 4.665600
-0.428700 4.848400
-0.411800 5.907100
-0.395000 7.843400
-0.378100 8.709700
-0.361300 9.364600
-0.344400 12.129600
-0.327500 11.346600
-0.310700 11.827300
-0.293800 11.731800
-0.276900 11.642100
-0.260100 14.893600
-0.243200 16.878400
-0.226400 18.168400
-0.209500 15.790300
-0.192600 15.261600
-0.175800 14.816800
-0.158900 13.980100
-0.142000 14.293200
-0.125200 16.859400
-0.108300 18.402500
-0.091500 23.001500
-0.074600 18.415800
-0.057700 15.425400
-0.040900 14.677900
-0.024000 15.670700
-0.007100 14.558700
0.009700 12.941600
0.026600 11.200100
0.043400 11.771000
0.060300 9.712800
0.077200 10.369300
0.094000 10.806800
0.110900 10.798500
0.127800 17.905600
0.144600 21.069200
0.161500 19.009900
0.178300 14.594300
0.195200 10.845900
0.212100 5.590100
0.228900 5.388700
0.245800 5.548800
0.262600 7.606200
0.279500 7.586500
0.296400 7.807800
0.313200 8.418600
0.330100 8.340700
0.347000 9.551800
0.363800 8.637600
0.380700 9.631300
0.397500 10.760800
0.414400 11.147200
0.431300 11.754100
0.448100 12.402600
0.465000 12.351800
0.481900 11.278000
0.498700 12.411400
0.515600 12.238900
0.532400 12.819900
0.549300 13.391400
0.566200 11.391800
0.583000 10.996800
0.599900 11.749400
0.616800 12.468000
0.633600 13.026800
0.650500 13.548400
0.667300 13.486000
0.684200 13.284400
0.701100 12.851200
0.717900 12.492300
0.734800 14.545200
0.751600 8.249500
0.768500 9.002100
0.785400 10.548300
0.802200 14.598300
0.819100 17.392800
0.836000 17.472900
0.852800 14.828500
0.869700 13.253800
0.886500 14.391900
0.903400 13.752500
0.920300 14.377400
0.937100 11.541900
0.954000 11.836400
0.970900 13.299500
0.987700 10.247700
1.004600 9.574900
1.021400 8.689300
1.038300 10.111800
1.055200 12.217300
1.072000 15.754200
1.088900 13.437900
1.105800 11.522100
1.122600 11.430400
1.139500 12.977700
1.156300 14.594100
1.173200 16.388000
1.190100 16.050200
1.206900 15.002000
1.223800 16.325400
1.240600 20.778500
1.257500 25.364100
1.274400 18.622600
1.291200 16.553700
1.308100 14.069500
1.325000 14.333700
1.341800 12.478900
1.358700 11.406500
1.375500 10.553400
1.392400 9.538300
1.409300 8.880300
1.426100 8.346800
1.443000 7.758200
1.459900 6.013700
1.476700 5.906000
1.493600 5.861000
1.510400 5.603200
1.527300 5.452800
1.544200 5.312300
1.561000 5.187000
1.577900 5.080400
1.594800 5.039700
1.611600 5.012900
1.628500 4.764200
1.645300 4.585900
1.662200 4.503200
1.679100 4.168900
1.695900 3.740800
1.712800 3.642800
1.729600 3.579000
1.746500 3.528900
1.763400 3.342000
1.780200 3.249000
1.797100 3.168900
1.814000 3.101500
1.830800 3.023800
1.847700 3.011400
1.864500 2.989300
1.881400 2.973100
1.898300 2.965600
1.915100 3.077400
1.932000 2.781200
1.948900 3.136900
1.965700 3.214800
1.982600 3.218600
1.999400 3.279600
2.016300 3.016700
2.033200 2.676400
2.050000 2.391000
2.066900 2.242500
2.083800 2.172900
2.100600 2.076900
2.117500 2.041500
2.134300 2.016500
2.151200 2.020100
2.168100 2.006600
2.184900 1.994100
2.201800 1.975800
2.218600 1.965300
2.235500 1.951700
2.252400 1.938100
2.269200 1.921700
2.286100 1.898500
2.303000 1.863800
2.319800 1.847100
2.336700 1.827600
2.353500 1.805800
2.370400 1.844000
2.387300 1.985500
2.404100 1.999100
2.421000 2.026800
2.437900 2.062500
2.454700 2.041000
2.471600 2.060800
2.488400 2.080300
2.505300 2.137300
2.522200 2.149200
2.539000 2.156100
2.555900 2.165100
2.572800 2.166800
2.589600 2.185700
2.606500 2.211100
2.623300 2.230600
2.640200 2.249000
2.657100 2.267800
2.673900 2.309900
2.690800 2.321200
2.707600 2.316900
2.724500 2.333100
2.741400 2.349000
2.758200 2.336600
2.775100 2.343300
2.792000 2.647900
2.808800 2.644400
2.825700 2.282200
2.842500 2.235100
2.859400 2.192100
2.876300 2.161100
2.893100 2.130000
2.910000 2.099000
2.926900 2.066700
2.943700 2.059100
2.960600 2.024100
2.977400 1.990300
2.994300 1.956900
3.011200 1.924100
3.028000 1.894300
3.044900 1.865200
3.061800 1.836300
3.078600 1.807600
3.095500 1.771200
3.112300 1.745100
3.129200 1.679000
3.146100 1.685900
3.162900 1.861700
3.179800 1.893900
3.196600 1.926600
3.213500 1.961500
3.230400 1.999700
3.247200 2.039800
3.264100 2.001000
3.281000 1.984400
3.297800 2.018200
3.314700 2.059500
3.331500 2.067100
3.348400 2.064600
3.365300 2.059600
3.382100 2.063900
3.399000 2.048000
3.415900 2.068100
3.432700 2.066000
3.449600 2.056200
3.466400 2.049000
3.483300 2.041700
3.500200 2.039100
3.517000 2.032800
3.533900 2.016400
3.550800 1.926900
3.567600 1.912200
3.584500 1.897400
3.601300 2.232000
3.618200 2.234100
3.635100 2.452100
3.651900 2.493100
3.668800 2.535600
3.685600 2.424000
3.702500 2.338300
3.719400 2.285800
3.736200 2.235300
3.753100 2.235100
3.770000 2.235300
3.786800 2.230100
3.803700 2.234100
3.820500 2.272400
3.837400 2.275400
3.854300 2.256200
3.871100 2.271200
3.888000 2.273400
3.904900 2.264600
3.921700 2.242200
3.938600 2.241900
3.955400 2.241700
3.972300 2.236800
3.989200 2.256800
4.006000 2.282700
4.022900 2.282600
4.039800 2.276600
4.056600 2.250400
4.073500 2.244000
4.090300 2.228900
4.107200 2.251800
4.124100 2.238300
4.140900 3.403500
4.157800 2.257100
4.174600 2.245900
4.191500 2.233700
4.208400 2.221100
4.225200 2.157100
4.242100 2.143600
4.259000 2.121800
4.275800 2.078600
4.292700 2.060400
4.309500 2.041400
4.326400 2.128600
4.343300 2.138400
4.360100 2.138800
4.377000 2.106300
4.393900 2.126800
4.410700 2.094100
4.427600 2.100000
4.444400 2.103700
4.461300 2.109900
4.478200 2.141600
4.495000 2.159000
4.511900 2.433100
4.528800 2.386500
4.545600 2.176300
4.562500 2.218900
4.579300 2.272600
4.596200 2.295600
4.613100 2.322400
4.629900 2.336400
4.646800 2.340200
4.663600 2.340000
4.680500 2.330300
4.697400 2.319900
4.714200 2.295200
4.731100 2.274700
4.748000 2.253300
4.764800 2.237700
4.781700 2.183500
4.798500 2.174800
4.815400 2.169900
4.832300 2.201000
4.849100 2.168300
4.866000 2.178300
4.882900 2.229000
4.899700 2.257000
4.916600 2.267700
4.933400 2.298000
4.950300 2.302200
4.967200 2.815700
4.984000 2.617400
5.000900 2.670600
5.017800 2.603400
5.034600 2.492500
5.051500 2.478900
5.068300 2.422800
5.085200 2.403100
5.102100 2.404300
5.118900 2.302000
5.135800 2.262100
5.152700 2.222700
5.169500 2.181400
5.186400 2.136800
5.203200 2.167800
5.220100 2.099700
5.237000 2.030800
5.253800 1.801300
5.270700 1.824200
5.287500 1.800900
5.304400 1.844100
5.321300 1.761800
5.338100 1.690400
5.355000 1.680100
5.371900 1.713000
5.388700 1.731500
5.405600 1.750800
5.422400 1.734800
5.439300 1.751300
5.456200 1.767500
5.473000 1.784400
5.489900 1.785600
5.506800 1.797400
5.523600 1.809200
5.540500 1.819600
5.557300 1.907700
5.574200 1.934300
5.591100 1.963800
5.607900 1.995600
5.624800 2.037000
5.641700 2.149400
5.658500 2.167400
5.675400 2.148000
5.692200 2.220000
5.709100 2.216300
5.726000 2.221200
5.742800 2.240300
5.759700 2.223800
5.776500 2.181900
5.793400 2.150000
5.810300 2.113500
5.827100 2.093100
5.844000 2.042500
5.860900 1.873400
5.877700 1.821400
5.894600 1.792700
5.911400 1.742100
5.928300 1.691800
5.945200 1.641900
5.962000 1.601500
5.978900 1.499100
5.995800 1.429800
6.012600 1.374100
6.029500 1.350000
6.046300 1.381100
6.063200 1.324700
6.080100 1.323400
6.096900 1.332600
6.113800 1.349000
6.130700 1.260500
6.147500 1.297400
6.164400 2.263100
6.181200 1.555800
6.198100 1.552300
6.215000 1.545900
6.231800 1.531600
6.248700 1.516800
6.265500 1.489000
6.282400 1.448600
6.299300 1.337500
6.316100 1.299300
6.333000 1.262900
6.349900 1.213300
6.366700 1.258400
6.383600 1.289300
6.400400 1.312400
6.417300 1.340800
6.434200 1.304700
6.451000 1.334700
6.467900 1.367000
6.484800 1.411900
6.501600 1.458900
6.518500 1.508000
6.535300 1.634500
6.552200 1.684500
6.569100 1.812100
6.585900 1.894700
6.602800 2.116000
6.619700 2.132200
6.636500 2.149300
6.653400 2.167100
6.670200 2.545400
6.687100 2.699300
6.704000 2.374000
6.720800 2.172600
6.737700 2.241900
6.754500 2.309700
6.771400 2.118100
6.788300 2.123100
6.805100 2.188000
6.822000 2.260100
6.838900 2.379900
6.855700 2.646800
6.872600 2.675300
6.889400 2.554500
6.906300 2.422800
6.923200 2.208800
6.940000 2.179600
6.956900 2.145400
6.973800 2.125800
6.990600 2.117300
7.007500 2.114500
7.024300 2.091100
7.041200 2.069800
7.058100 2.159500
7.074900 2.180000
7.091800 2.206100
7.108700 2.294300
7.125500 2.282800
7.142400 2.271700
7.159200 2.260900
7.176100 2.250500
7.193000 2.156700
7.209800 2.079600
7.226700 2.142000
7.243500 2.139300
7.260400 2.169100
7.277300 2.174000
7.294100 2.208000
7.311000 2.211400
7.327900 2.264200
7.344700 2.307600
7.361600 2.348700
7.378400 2.383100
7.395300 2.403600
7.412200 2.730300
7.429000 2.817200
7.445900 2.703900
7.462800 3.370500
7.479600 3.017000
7.496500 3.126100
7.513300 3.187900
7.530200 3.156100
7.547100 3.261900
7.563900 3.279300
7.580800 3.320100
7.597700 3.299400
7.614500 3.287800
7.631400 3.276000
7.648200 3.231700
7.665100 3.178800
7.682000 3.109800
7.698800 2.990000
7.715700 2.954100
7.732500 2.857200
7.749400 2.803400
7.766300 2.860900
7.783100 2.786200
7.800000 2.785100
7.816900 2.778700
7.833700 2.481400
7.850600 2.481000
7.867400 2.502700
7.884300 2.520800
7.901200 2.579800
7.918000 2.516600
7.934900 2.949200
7.951800 3.182200
7.968600 2.923400
7.985500 2.452400
8.002300 2.418300
8.019200 2.423500
8.036100 2.430900
8.052900 2.521400
8.069800 2.745700
8.086700 2.761700
8.103500 2.770800
8.120400 3.000300
8.137200 3.041300
8.154100 2.423200
8.171000 2.365600
8.187800 2.337900
8.204700 2.277800
8.221500 2.261100
8.238400 2.246400
8.255300 2.232900
8.272100 2.219400
8.289000 2.219000
8.305900 2.280500
8.322700 2.368600
8.339600 2.450100
8.356400 2.409800
8.373300 2.173000
8.390200 2.280900
8.407000 2.391100
8.423900 2.387000
8.440800 2.251900
8.457600 2.230600
8.474500 2.285400
8.491300 2.209700
8.508200 2.158100
8.525100 2.127900
8.541900 2.137900
8.558800 2.129300
8.575700 2.087300
8.592500 2.351500
8.609400 2.464900
8.626200 2.549200
8.643100 2.395800
8.660000 2.405500
8.676800 2.380000
8.693700 2.421200
8.710500 2.480900
8.727400 2.538500
8.744300 2.592600
8.761100 2.644100
8.778000 2.593600
8.794900 2.562100
8.811700 2.606000
8.828600 2.589300
8.845400 2.561500
8.862300 2.573900
8.879200 2.669500
8.896000 3.336200
8.912900 3.240200
8.929800 3.039400
8.946600 2.947500
8.963500 2.819100
8.980300 3.053300
8.997200 3.228000
9.014100 3.539500
9.030900 3.287100
9.047800 3.047600
9.064700 3.003900
9.081500 3.011300
9.098400 2.869300
9.115200 2.858300
9.132100 2.896700
9.149000 2.884700
9.165800 2.873600
9.182700 2.866600
9.199500 2.851200
9.216400 2.841400
9.233300 2.844200
9.250100 2.857400
9.267000 2.945000
9.283900 3.013700
9.300700 2.961000
9.317600 2.907600
9.334400 2.965100
9.351300 2.768200
9.368200 2.758400
9.385000 2.730100
9.401900 2.604500
9.418800 2.607000
9.435600 2.634000
9.452500 2.602300
9.469300 2.573100
9.486200 2.549000
9.503100 2.595800
9.519900 2.639500
9.536800 2.670400
9.553700 2.621900
9.570500 2.652500
9.587400 2.660600
9.604200 2.767000
9.621100 2.780700
9.638000 2.769300
9.654800 2.692600
9.671700 2.694700
9.688600 2.695900
9.705400 2.705000
9.722300 2.706000
9.739100 2.768100
9.756000 2.781400
9.772900 2.753200
9.789700 2.965000
9.806600 2.956600
9.823400 2.916200
9.840300 2.765100
9.857200 2.725200
9.874000 2.856500
9.890900 2.815800
9.907800 2.921700
9.924600 2.916400
9.941500 3.378700
9.958300 2.989900
9.975200 2.935400
9.992100 3.043100
10.008900 3.167100
10.025800 3.179400
10.042700 3.208100
10.059500 3.172500
10.076400 3.146400
10.093200 3.183700
10.110100 3.215300
10.127000 3.262600
10.143800 3.327100
10.160700 3.814100
10.177600 3.558800
10.194400 3.160000
10.211300 3.124400
10.228100 3.077300
10.245000 3.038300
10.261900 3.026900
10.278700 2.986900
10.295600 2.945900
10.312400 2.904100
10.329300 2.861000
10.346200 2.805400
10.363000 2.796200
10.379900 2.786600
10.396800 2.922300
10.413600 2.895500
10.430500 2.861800
10.447300 3.096300
10.464200 3.091800
10.481100 3.059200
10.497900 3.101600
10.514800 3.031500
10.531700 2.996400
10.548500 2.986900
10.565400 2.955800
10.582200 3.017000
10.599100 3.111100
10.616000 3.168700
10.632800 2.951400
10.649700 3.018100
10.666600 3.495500
10.683400 3.511100
10.700300 3.131800
10.717100 3.064500
10.734000 3.043000
10.750900 2.934700
10.767700 2.914300
10.784600 3.036900
10.801400 2.906000
10.818300 2.908000
10.835200 2.908700
10.852000 2.910100
10.868900 2.915900
10.885800 2.919800
10.902600 2.931000
10.919500 2.894000
10.936300 2.881900
10.953200 2.837400
10.970100 2.824800
10.986900 2.778300
11.003800 2.775300
11.020700 2.959000
11.037500 3.128800
11.054400 3.054000
11.071200 3.067600
11.088100 3.064200
11.105000 2.896300
11.121800 2.906400
11.138700 2.916600
11.155600 2.990100
11.172400 3.003100
11.189300 3.007600
11.206100 3.004200
11.223000 2.994600
11.239900 3.076300
11.256700 3.162400
11.273600 7.122200
11.290400 3.430100
11.307300 3.210600
11.324200 3.099800
11.341000 3.070700
11.357900 3.054600
11.374800 3.038400
11.391600 2.968100
11.408500 2.964700
11.425300 2.977900
11.442200 2.940700
11.459100 2.940400
11.475900 3.203600
11.492800 2.974900
11.509700 2.960200
11.526500 2.955500
11.543400 2.946200
11.560200 2.930400
11.577100 2.933400
11.594000 2.948400
11.610800 2.964600
11.627700 2.981900
11.644600 3.058200
11.661400 3.125100
11.678300 3.297900
11.695100 3.322000
11.712000 3.305900
11.728900 3.309900
11.745700 3.327100
11.762600 3.200200
11.779400 3.195700
11.796300 3.191400
11.813200 3.334900
11.830000 3.347300
11.846900 3.389200
11.863800 3.386200
11.880600 3.417100
11.897500 3.333400
11.914300 3.205400
11.931200 3.037800
11.948100 2.964500
11.964900 3.269900
11.981800 2.719000
11.998700 2.718000
12.015500 2.810300
12.032400 2.863300
12.049200 2.913700
12.066100 2.955000
12.083000 3.160600
12.099800 2.936700
12.116700 2.839100
12.133600 2.783800
12.150400 2.770700
12.167300 2.819700
12.184100 2.804500
12.201000 2.795300
12.217900 2.794700
12.234700 2.791700
12.251600 2.813200
12.268400 2.900000
12.285300 3.284300
12.302200 3.004300
12.319000 2.834800
12.335900 2.920400
12.352800 2.972700
12.369600 3.175200
12.386500 3.193000
12.403300 3.198500
12.420200 3.211500
12.437100 3.351400
12.453900 3.291300
12.470800 3.268100
12.487700 3.242000
12.504500 3.177400
12.521400 3.068600
12.538200 3.054000
12.555100 3.069100
12.572000 3.084500
12.588800 3.081700
12.605700 3.089500
12.622600 3.069700
12.639400 3.008800
12.656300 2.984400
12.673100 2.964000
12.690000 2.942600
12.706900 2.954400
12.723700 3.075700
12.740600 3.064400
12.757400 3.058000
12.774300 3.078600
12.791200 3.043900
12.808000 3.095300
12.824900 3.225100
12.841800 3.234000
12.858600 3.190700
12.875500 3.201700
12.892300 2.950200
12.909200 2.982200
12.926100 3.016100
12.942900 3.060200
12.959800 3.104700
12.976700 3.110100
12.993500 3.141300
13.010400 3.149300
13.027200 3.184800
13.044100 3.220400
13.061000 3.479900
13.077800 3.480800
13.094700 3.222000
13.111600 3.168800
13.128400 3.166800
13.145300 3.153800
13.162100 3.197600
13.179000 3.317800
13.195900 3.176000
13.212700 3.180500
13.229600 3.141500
13.246400 3.143100
13.263300 3.154100
13.280200 3.113500
13.297000 3.089300
13.313900 3.262300
13.330800 3.215800
13.347600 2.995300
13.364500 2.994000
13.381300 3.027900
13.398200 3.045000
13.415100 2.995500
13.431900 2.893100
13.448800 2.944900
13.465700 2.908500
13.482500 2.869000
13.499400 2.817900
13.516200 2.833300
13.533100 2.824500
13.550000 2.827000
13.566800 2.841400
13.583700 2.839700
13.600600 2.898300
13.617400 2.916900
13.634300 2.930900
13.651100 2.944000
13.668000 2.957000
13.684900 2.951500
13.701700 3.034700
13.718600 3.010300
13.735400 2.979400
13.752300 2.788400
13.769200 2.805800
13.786000 2.823900
13.802900 2.927200
13.819800 2.899300
13.836600 2.871400
13.853500 2.846200
13.870300 2.932600
13.887200 2.970400
13.904100 2.987300
13.920900 2.967400
13.937800 3.040500
13.954700 3.070300
13.971500 3.103000
13.988400 3.296300
14.005200 3.231100
14.022100 3.253900
14.039000 3.128700
14.055800 3.166700
14.072700 3.087200
14.089600 3.039500
14.106400 3.016100
14.123300 3.079800
14.140100 3.091800
14.157000 3.103900
14.173900 3.900200
14.190700 2.817900
14.207600 2.801600
14.224500 2.752300
14.241300 2.697700
14.258200 2.842400
14.275000 2.874600
14.291900 2.980600
14.308800 3.000800
14.325600 3.054500
14.342500 3.028700
14.359300 3.169100
14.376200 3.280500
14.393100 3.325500
14.409900 3.245200
14.426800 3.274200
14.443700 3.465100
14.460500 3.467200
14.477400 3.410500
14.494200 3.251500
14.511100 3.220800
14.528000 3.220700
14.544800 3.257300
14.561700 3.358900
14.578600 3.158500
14.595400 2.978200
14.612300 2.902900
14.629100 2.806900
14.646000 2.869700
14.662900 2.863200
14.679700 2.873600
14.696600 2.870400
14.713500 2.843500
14.730300 2.880600
14.747200 2.881900
14.764000 2.931000
14.780900 2.884600
14.797800 2.914100
14.814600 2.942400
14.831500 2.983200
14.848300 3.032200
14.865200 3.051100
14.882100 3.069300
14.898900 3.085000
14.915800 3.122300
14.932700 3.140700
14.949500 3.148900
14.966400 3.270700
14.983200 3.386700
15.000100 3.424800
15.017000 3.548800
15.033800 3.282300
15.050700 3.279700
15.067600 3.220300
15.084400 3.031700
15.101300 3.030500
15.118100 3.011700
15.135000 2.951400
15.151900 2.929300
15.168700 2.814100
15.185600 3.240800
15.202500 2.929600
15.219300 2.938700
15.236200 2.884800
15.253000 2.901500
15.269900 2.907900
15.286800 2.917900
15.303600 3.001800
15.320500 3.042400
15.337300 3.068300
15.354200 3.087300
15.371100 3.035900
15.387900 3.056900
15.404800 3.037300
15.421700 3.042900
15.438500 3.166800
15.455400 4.088000
15.472200 3.153900
15.489100 3.193300
15.506000 3.181400
15.522800 3.267600
15.539700 3.199800
15.556600 3.073100
15.573400 3.020900
15.590300 3.014600
15.607100 2.850700
15.624000 2.850100
15.640900 2.838400
15.657700 2.908600
15.674600 2.922400
15.691500 2.951300
15.708300 3.233700
15.725200 3.490500
15.742000 3.664000
15.758900 3.824300
15.775800 3.837300
15.792600 3.627000
15.809500 3.452600
15.826300 3.421800
15.843200 3.383300
15.860100 3.279400
15.876900 3.322800
15.893800 3.348700
15.910700 3.310500
15.927500 3.363100
15.944400 3.455500
15.961200 3.696000
15.978100 3.833900
15.995000 3.822900
16.011800 3.564800
16.028700 4.010200
16.045600 3.220600
16.062400 3.127600
16.079300 3.014900
16.096100 2.990300
16.113000 2.952100
16.129900 2.919100
16.146700 2.870700
16.163600 2.826300
16.180500 2.793200
16.197300 2.786500
16.214200 2.818200
16.231000 2.801900
16.247900 2.830700
16.264800 2.897600
16.281600 2.914300
16.298500 2.935900
16.315300 2.960100
16.332200 2.988800
16.349100 3.027900
16.365900 3.068700
16.382800 3.195200
16.399700 3.150000
16.416500 3.110100
16.433400 3.626000
16.450200 3.489500
16.467100 3.624700
16.484000 3.787700
16.500800 3.676600
16.517700 3.715500
16.534600 3.674700
16.551400 3.612900
16.568300 3.645300
16.585100 3.660100
16.602000 3.295300
16.618900 3.226300
16.635700 3.196100
16.652600 3.193000
16.669500 3.185100
16.686300 3.179500
16.703200 3.130600
16.720000 3.164600
16.736900 3.152800
16.753800 3.186900
16.770600 3.257000
16.787500 3.431100
16.804300 3.384400
16.821200 3.315700
16.838100 3.373600
16.854900 3.475900
16.871800 3.546000
16.888700 3.492400
16.905500 3.475300
16.922400 3.643000
16.939200 3.651200
16.956100 3.246200
16.973000 3.499300
16.989800 3.575200
17.006700 3.641700
17.023600 3.475900
17.040400 3.514000
17.057300 3.483600
17.074100 3.475300
17.091000 3.408100
17.107900 3.378600
17.124700 3.409300
17.141600 3.540200
17.158500 3.508000
17.175300 3.535700
17.192200 3.566700
17.209000 3.594700
17.225900 3.614800
17.242800 3.640800
17.259600 3.668300
17.276500 3.659600
17.293300 3.593000
17.310200 3.591900
17.327100 3.622200
17.343900 3.654100
17.360800 3.919300
17.377700 4.045200
17.394500 4.189900
17.411400 4.258200
17.428200 4.212800
17.445100 4.611500
17.462000 4.634600
17.478800 4.422300
17.495700 4.016700
17.512600 4.363100
17.529400 4.867400
17.546300 5.764500
17.563100 3.745000
17.580000 3.863100
17.596900 3.874500
17.613700 3.942200
17.630600 4.315200
17.647500 4.645200
17.664300 4.925400
17.681200 4.305700
17.698000 4.078700
17.714900 4.299900
17.731800 4.135500
17.748600 4.007000
17.765500 4.016100
17.782300 3.976900
17.799200 3.951600
17.816100 3.902300
17.832900 3.982000
17.849800 4.008900
17.866700 3.992000
17.883500 4.065100
17.900400 3.941100
17.917200 3.946300
17.934100 4.001500
17.951000 4.065400
17.967800 4.441900
17.984700 4.455800
18.001600 4.430800
18.018400 4.399300
18.035300 4.448500
18.052100 4.437700
18.069000 4.492000
18.085900 4.679300
18.102700 5.497300
18.119600 4.541200
18.136500 5.005000
18.153300 4.564700
18.170200 4.571200
18.187000 4.459900
18.203900 4.360100
18.220800 4.839700
18.237600 4.349400
18.254500 4.384000
18.271300 4.508800
18.288200 4.629000
18.305100 4.662800
18.321900 4.780600
18.338800 4.897900
18.355700 4.645400
18.372500 4.548200
18.389400 4.500300
18.406200 4.436100
18.423100 4.339200
18.440000 4.049900
18.456800 3.999900
18.473700 3.951800
18.490600 4.058500
18.507400 4.020500
18.524300 3.969500
18.541100 3.963500
18.558000 3.954800
18.574900 3.946800
18.591700 3.598800
18.608600 3.636600
18.625500 3.669300
18.642300 3.733700
18.659200 3.849000
18.676000 3.999200
18.692900 4.254800
18.709800 4.228400
18.726600 4.294700
18.743500 4.419100
18.760400 4.427500
18.777200 4.231300
18.794100 4.004700
18.810900 3.865100
18.827800 3.867700
18.844700 3.849000
18.861500 3.813900
18.878400 3.764400
18.895200 3.739500
18.912100 3.704200
18.929000 3.821200
18.945800 3.980600
18.962700 4.095300
18.979600 4.202200
18.996400 3.958100
19.013300 4.048700
19.030100 4.155700
19.047000 4.189800
19.063900 4.218400
19.080700 4.311200
19.097600 4.342200
19.114500 4.555100
19.131300 4.641300
19.148200 4.813500
19.165000 4.731400
19.181900 4.357400
19.198800 4.128000
19.215600 3.900800
19.232500 3.703900
19.249400 3.531200
19.266200 3.498700
19.283100 3.464400
19.299900 3.454800
19.316800 3.428400
19.333700 3.396900
19.350500 3.368500
19.367400 3.351000
19.384200 3.404000
19.401100 3.450300
19.418000 3.585700
19.434800 3.818400
19.451700 3.924800
19.468600 3.955200
19.485400 4.048800
19.502300 3.816700
19.519100 3.756100
19.536000 3.627900
19.552900 3.554800
19.569700 3.525200
19.586600 3.421800
19.603500 3.325600
19.620300 3.254200
19.637200 3.255300
19.654000 3.380400
19.670900 3.525900
19.687800 3.348300
19.704600 3.298600
19.721500 3.302700
19.738400 3.177800
19.755200 3.193900
19.772100 3.216100
19.788900 3.240400
19.805800 3.266900
19.822700 3.295400
19.839500 3.326200
19.856400 3.590400
19.873200 3.583100
19.890100 3.298800
19.907000 3.389800
19.923800 3.519300
19.940700 3.581300
19.957600 3.556000
19.974400 3.470400
19.991300 3.332200
20.008100 3.407300
20.025000 3.392000
20.041900 3.322300
20.058700 3.303000
20.075600 3.305800
20.092500 3.245500
20.109300 3.184500
20.126200 3.224500
20.143000 3.332200
20.159900 3.307100
20.176800 3.316600
20.193600 3.241600
20.210500 3.261800
20.227400 3.383100
20.244200 3.417300
20.261100 3.452500
20.277900 3.525200
20.294800 3.662800
20.311700 3.492800
20.328500 3.542400
20.345400 3.524500
20.362200 3.399100
20.379100 3.139900
20.396000 3.112300
20.412800 3.155700
20.429700 3.226700
20.446600 3.286000
20.463400 3.542600
20.480300 3.669500
20.497100 3.789900
20.514000 3.893400
20.530900 3.846200
20.547700 3.912500
20.564600 3.931200
20.581500 3.966900
20.598300 4.263600
20.615200 4.342600
20.632000 3.978400
20.648900 4.522400
20.665800 4.432900
20.682600 4.119100
20.699500 4.209900
20.716400 4.310500
20.733200 4.181800
20.750100 4.085400
20.766900 4.535700
20.783800 3.918500
20.800700 3.785600
20.817500 3.731400
20.834400 3.677600
20.851200 3.797000
20.868100 3.802600
20.885000 3.727500
20.901800 3.655300
20.918700 3.562300
20.935600 3.564700
20.952400 3.504200
20.969300 3.639300
20.986100 3.851300
21.003000 4.007000
21.019900 4.021200
21.036700 4.219400
21.053600 4.511600
21.070500 4.479600
21.087300 4.427100
21.104200 4.067900
21.121000 4.058700
21.137900 3.988100
21.154800 3.938300
21.171600 3.805100
21.188500 4.079200
21.205400 4.000600
21.222200 3.940400
21.239100 3.771500
21.255900 3.772000
21.272800 3.768300
21.289700 3.767900
21.306500 3.791200
21.323400 3.786800
21.340200 3.753700
21.357100 3.765300
21.374000 3.555700
21.390800 3.502800
21.407700 3.384900
21.424600 3.361600
21.441400 3.347500
21.458300 3.333800
21.475100 3.565900
21.492000 3.489100
21.508900 3.479400
21.525700 3.451100
21.542600 3.251900
21.559500 3.191200
21.576300 3.023200
21.593200 2.814300
21.610000 2.690600
21.626900 2.765500
21.643800 2.788100
21.660600 2.806700
21.677500 2.861200
21.694400 2.879500
21.711200 2.895000
21.728100 2.914100
21.744900 2.985700
21.761800 3.031000
21.778700 3.092000
21.795500 3.159600
21.812400 3.694300
21.829200 3.778700
21.846100 3.772100
21.863000 3.525600
21.879800 3.468700
21.896700 3.506000
21.913600 3.596300
21.930400 3.584200
21.947300 3.442700
21.964100 3.324500
21.981000 3.301400
21.997900 3.333100
22.014700 3.317600
22.031600 3.425700
22.048500 3.876200
22.065300 3.386300
22.082200 3.298000
22.099000 3.056600
22.115900 3.018500
22.132800 2.978700
22.149600 2.923700
22.166500 2.812900
22.183400 2.581500
22.200200 2.654400
22.217100 2.698900
22.233900 2.778400
22.250800 2.847600
22.267700 4.316200
22.284500 3.149700
22.301400 3.125900
22.318200 3.351800
22.335100 3.188000
22.352000 2.746500
22.368800 2.753900
22.385700 2.770700
22.402600 2.994100
22.419400 3.027000
22.436300 3.060300
22.453100 3.189000
22.470000 3.303600
22.486900 3.497400
22.503700 3.620500
22.520600 3.846600
22.537500 3.810700
22.554300 3.839200
22.571200 3.205700
22.588000 2.997000
22.604900 2.842000
22.621800 2.903000
22.638600 3.082700
22.655500 3.070600
22.672400 3.076000
22.689200 3.703900
22.706100 3.773200
22.722900 3.824300
22.739800 3.766900
22.756700 3.568200
22.773500 3.561200
22.790400 4.728100
22.807200 3.476100
22.824100 3.484400
22.841000 3.520900
22.857800 3.496000
22.874700 3.500400
22.891600 3.509900
22.908400 3.524400
22.925300 3.392700
22.942100 3.427000
22.959000 3.400300
22.975900 3.505900
22.992700 3.544200
23.009600 3.522800
23.026500 3.450100
23.043300 3.507700
23.060200 3.530000
23.077000 3.574500
23.093900 3.602700
23.110800 3.546600
23.127600 3.558200
23.144500 3.725000
23.161400 3.780400
23.178200 3.825200
23.195100 3.971200
23.211900 4.013000
23.228800 3.990800
23.245700 3.989800
23.262500 3.827400
23.279400 4.086600
23.296300 3.479600
23.313100 3.511300
23.330000 3.529700
23.346800 3.548600
23.363700 3.605400
23.380600 3.615800
23.397400 3.682100
23.414300 4.000800
23.431100 4.003900
23.448000 4.127800
23.464900 4.125700
23.481700 4.103200
23.498600 4.027100
23.515500 4.029100
23.532300 4.118300
23.549200 4.431100
23.566000 4.500700
23.582900 4.343700
23.599800 4.021300
23.616600 3.898100
23.633500 3.861300
23.650400 3.835500
23.667200 3.801500
23.684100 3.832200
23.700900 3.796200
23.717800 3.745400
23.734700 3.748100
23.751500 3.739500
23.768400 3.711600
23.785300 3.769800
23.802100 3.799800
23.819000 3.687800
23.835800 3.632000
23.852700 3.648300
23.869600 3.682300
23.886400 3.733500
23.903300 3.786700
23.920100 3.861200
23.937000 4.027500
23.953900 4.075600
23.970700 4.153800
23.987600 4.219400
24.004500 4.337600
24.021300 5.055800
24.038200 5.566700
24.055000 6.286000
24.071900 5.162300
24.088800 4.636800
24.105600 4.606100
24.122500 4.483200
24.139400 4.434000
24.156200 4.441500
24.173100 4.394400
24.189900 4.394000
24.206800 4.191800
24.223700 4.145300
24.240500 4.100800
24.257400 4.063800
24.274300 4.026800
24.291100 4.006400
24.308000 3.941100
24.324800 4.204800
24.341700 4.413200
24.358600 4.406700
24.375400 4.457000
24.392300 4.596500
24.409100 5.516400
24.426000 5.609000
24.442900 5.426500
24.459700 5.291800
24.476600 5.065500
24.493500 5.007000
24.510300 4.867000
24.527200 4.774100
24.544000 4.659600
24.560900 4.748400
24.577800 4.923400
24.594600 4.913100
24.611500 4.989700
24.628400 5.082300
24.645200 5.095500
24.662100 7.804400
24.678900 5.224500
24.695800 5.108300
24.712700 4.946400
24.729500 4.835900
24.746400 4.963400
24.763300 5.118100
24.780100 5.282100
24.797000 5.420700
24.813800 5.723300
24.830700 5.615300
24.847600 6.318900
24.864400 6.960500
24.881300 7.293600
24.898100 16.111700
24.915000 44.843000
24.931900 23.134200
24.948700 19.134800
24.965600 21.547600
24.982500 9.617400
24.999300 5.657500
25.016200 0.000000
25.033000 0.000000
25.049900 0.000000
25.066800 0.000000
25.083600 0.000000
25.100500 0.000000
25.117400 0.000000
25.134200 0.000000
25.151100 0.000000
25.167900 0.000000
25.184800 0.000000
25.201700 0.000000
25.218500 0.000000
25.235400 0.000000
25.252300 0.000000
25.269100 0.000000
25.286000 0.000000
25.302800 0.000000
25.319700 0.000000
25.336600 0.000000
25.353400 0.000000
25.370300 0.000000
25.387100 0.000000
25.404000 0.000000
25.420900 0.000000
25.437700 0.000000
25.454600 0.000000
25.471500 0.000000
25.488300 0.000000
25.505200 0.000000
25.522000 0.000000
25.538900 0.000000
25.555800 0.000000
25.572600 0.000000
25.589500 0.000000
25.606400 0.000000
25.623200 0.000000
25.640100 0.000000
25.656900 0.000000
25.673800 0.000000
25.690700 0.000000
25.707500 0.000000
25.724400 0.000000
25.741300 0.000000
25.758100 0.000000
25.775000 0.000000
25.791800 0.000000
25.808700 0.000000
25.825600 0.000000
25.842400 0.000000
25.859300 0.000000
25.876100 0.000000
25.893000 0.000000
25.909900 0.000000
25.926700 0.000000
25.943600 0.000000
25.960500 0.000000
25.977300 0.000000
25.994200 0.000000
26.011000 0.000000
26.027900 0.000000
26.044800 0.000000
26.061600 0.000000
26.078500 0.000000
26.095400 0.000000
26.112200 0.000000
26.129100 0.000000
26.145900 0.000000
26.162800 0.000000
26.179700 0.000000
26.196500 0.000000
26.213400 0.000000
26.230300 0.000000
26.247100 0.000000
26.264000 0.000000
26.280800 0.000000
26.297700 0.000000
26.314600 0.000000
26.331400 0.000000
26.348300 0.000000
26.365100 0.000000
26.382000 0.000000
26.398900 0.000000
26.415700 0.000000
26.432600 0.000000
26.449500 0.000000
26.466300 0.000000
26.483200 0.000000
26.500000 0.000000
26.516900 0.000000
26.533800 0.000000
e
