set title 'mp-1183201 - Density of States'
set xlabel 'Energy (eV)'
set ylabel 'DOS (states/eV)'
set grid
set xrange [-10:10]
set yrange [0:21.229]
set xzeroaxis lt -1
set terminal png size 800,600
set output 'mp-1183201_dos_gnuplot.png'
plot '-' using 1:2 with lines title 'DOS'
-13.742400 0.000000
-13.718600 0.000000
-13.694800 0.000000
-13.671000 0.000000
-13.647100 0.000000
-13.623300 0.000000
-13.599500 0.000000
-13.575700 0.000000
-13.551900 0.000000
-13.528100 0.000000
-13.504300 0.000000
-13.480400 0.000000
-13.456600 0.000000
-13.432800 0.000000
-13.409000 0.000000
-13.385200 0.000000
-13.361400 0.000000
-13.337600 0.000000
-13.313700 0.000000
-13.289900 0.000000
-13.266100 0.000000
-13.242300 0.000000
-13.218500 0.000000
-13.194700 0.000000
-13.170900 0.000000
-13.147000 0.000000
-13.123200 0.000000
-13.099400 0.000000
-13.075600 0.000000
-13.051800 0.000000
-13.028000 0.000000
-13.004100 0.000000
-12.980300 0.000000
-12.956500 0.000000
-12.932700 0.000000
-12.908900 0.000000
-12.885100 0.000000
-12.861300 0.000000
-12.837400 0.000000
-12.813600 0.000000
-12.789800 0.000000
-12.766000 0.000000
-12.742200 0.000000
-12.718400 0.000000
-12.694600 0.000000
-12.670700 0.000000
-12.646900 0.000000
-12.623100 0.000000
-12.599300 0.000000
-12.575500 0.000000
-12.551700 0.000000
-12.527800 0.000000
-12.504000 0.000000
-12.480200 0.000000
-12.456400 0.000000
-12.432600 0.000000
-12.408800 0.000000
-12.385000 0.000000
-12.361100 0.000000
-12.337300 0.000000
-12.313500 0.000000
-12.289700 0.000000
-12.265900 0.000000
-12.242100 0.000000
-12.218300 0.000000
-12.194400 0.000000
-12.170600 0.000000
-12.146800 0.000000
-12.123000 0.000000
-12.099200 0.000000
-12.075400 0.000000
-12.051600 0.000000
-12.027700 0.000000
-12.003900 0.000000
-11.980100 0.000000
-11.956300 0.000000
-11.932500 0.000000
-11.908700 0.000000
-11.884800 0.000000
-11.861000 0.000000
-11.837200 0.000000
-11.813400 0.000000
-11.789600 0.000000
-11.765800 0.000000
-11.742000 0.000000
-11.718100 0.000000
-11.694300 0.000000
-11.670500 0.000000
-11.646700 0.000000
-11.622900 0.000000
-11.599100 0.000000
-11.575300 0.021900
-11.551400 1.237900
-11.527600 2.175500
-11.503800 3.137300
-11.480000 4.518500
-11.456200 7.174100
-11.432400 9.706900
-11.408600 13.989800
-11.384700 30.184700
-11.360900 16.705200
-11.337100 0.000000
-11.313300 0.000000
-11.289500 0.000000
-11.265700 0.000000
-11.241800 0.000000
-11.218000 0.000000
-11.194200 0.000000
-11.170400 0.000000
-11.146600 0.000000
-11.122800 0.000000
-11.099000 0.000000
-11.075100 0.000000
-11.051300 0.000000
-11.027500 0.000000
-11.003700 0.000000
-10.979900 0.000000
-10.956100 0.000000
-10.932300 0.000000
-10.908400 0.000000
-10.884600 0.000000
-10.860800 0.000000
-10.837000 0.000000
-10.813200 0.000000
-10.789400 0.000000
-10.765500 0.000000
-10.741700 0.000000
-10.717900 0.000000
-10.694100 0.000000
-10.670300 0.000000
-10.646500 0.000000
-10.622700 0.000000
-10.598800 0.000000
-10.575000 0.000000
-10.551200 0.000000
-10.527400 0.000000
-10.503600 0.000000
-10.479800 0.000000
-10.456000 0.000000
-10.432100 0.000000
-10.408300 0.000000
-10.384500 0.000000
-10.360700 0.000000
-10.336900 0.000000
-10.313100 0.000000
-10.289300 0.000000
-10.265400 0.000000
-10.241600 0.000000
-10.217800 0.000000
-10.194000 0.000000
-10.170200 0.000000
-10.146400 0.000000
-10.122500 0.000000
-10.098700 0.000000
-10.074900 0.000000
-10.051100 0.000000
-10.027300 0.000000
-10.003500 0.000000
-9.979700 0.000000
-9.955800 0.000000
-9.932000 0.000000
-9.908200 0.000000
-9.884400 0.000000
-9.860600 0.000000
-9.836800 0.000000
-9.813000 0.000000
-9.789100 0.000000
-9.765300 0.000000
-9.741500 0.000000
-9.717700 0.000000
-9.693900 0.000000
-9.670100 0.000000
-9.646200 0.000000
-9.622400 0.000000
-9.598600 0.000000
-9.574800 0.000000
-9.551000 0.000000
-9.527200 0.000000
-9.503400 0.000000
-9.479500 0.000000
-9.455700 0.000000
-9.431900 0.000000
-9.408100 0.000000
-9.384300 0.000000
-9.360500 0.000000
-9.336700 0.000000
-9.312800 0.000000
-9.289000 0.000000
-9.265200 0.000000
-9.241400 0.000000
-9.217600 0.000000
-9.193800 0.000000
-9.170000 0.000000
-9.146100 0.000000
-9.122300 0.000000
-9.098500 0.000000
-9.074700 0.000000
-9.050900 0.000000
-9.027100 0.000000
-9.003200 0.000000
-8.979400 0.000000
-8.955600 0.000000
-8.931800 0.000000
-8.908000 0.000000
-8.884200 0.000000
-8.860400 0.000000
-8.836500 0.000000
-8.812700 0.000000
-8.788900 0.000000
-8.765100 0.000000
-8.741300 0.000000
-8.717500 0.000000
-8.693700 0.000000
-8.669800 0.000000
-8.646000 0.000000
-8.622200 0.000000
-8.598400 0.000000
-8.574600 0.000000
-8.550800 0.000000
-8.527000 0.000000
-8.503100 0.000000
-8.479300 0.000000
-8.455500 0.000000
-8.431700 0.000000
-8.407900 0.000000
-8.384100 0.000000
-8.360200 0.000000
-8.336400 0.000000
-8.312600 0.000000
-8.288800 0.000000
-8.265000 0.000000
-8.241200 0.000000
-8.217400 0.000000
-8.193500 0.000000
-8.169700 0.000000
-8.145900 0.000000
-8.122100 0.000000
-8.098300 0.000000
-8.074500 0.000000
-8.050700 0.000000
-8.026800 0.000000
-8.003000 0.000000
-7.979200 0.000000
-7.955400 0.000000
-7.931600 0.000000
-7.907800 0.000000
-7.883900 0.000000
-7.860100 0.000000
-7.836300 0.000000
-7.812500 0.000000
-7.788700 0.000000
-7.764900 0.000000
-7.741100 0.000000
-7.717200 0.000000
-7.693400 0.000000
-7.669600 0.000000
-7.645800 0.000000
-7.622000 0.000000
-7.598200 0.000000
-7.574400 0.000000
-7.550500 0.000000
-7.526700 0.000000
-7.502900 0.000000
-7.479100 0.000000
-7.455300 0.000000
-7.431500 0.000000
-7.407700 0.000000
-7.383800 0.000000
-7.360000 0.000000
-7.336200 0.000000
-7.312400 0.000000
-7.288600 0.000000
-7.264800 0.000000
-7.240900 0.000000
-7.217100 0.000000
-7.193300 0.000000
-7.169500 0.000000
-7.145700 0.000000
-7.121900 0.000000
-7.098100 0.000000
-7.074200 0.000000
-7.050400 0.000000
-7.026600 0.000000
-7.002800 0.000000
-6.979000 0.000000
-6.955200 0.000000
-6.931400 0.000000
-6.907500 0.000000
-6.883700 0.000000
-6.859900 0.000000
-6.836100 0.000000
-6.812300 0.000000
-6.788500 0.000000
-6.764700 0.000000
-6.740800 0.000000
-6.717000 0.000000
-6.693200 0.000000
-6.669400 0.000000
-6.645600 0.000000
-6.621800 0.000000
-6.597900 0.000000
-6.574100 0.000000
-6.550300 0.000000
-6.526500 0.000000
-6.502700 0.000000
-6.478900 0.000000
-6.455100 0.000000
-6.431200 0.000000
-6.407400 0.000000
-6.383600 0.000000
-6.359800 0.000000
-6.336000 0.000000
-6.312200 0.000000
-6.288400 0.000000
-6.264500 0.000000
-6.240700 0.000000
-6.216900 0.000000
-6.193100 0.000000
-6.169300 0.000000
-6.145500 0.000000
-6.121600 0.000000
-6.097800 0.000000
-6.074000 0.000000
-6.050200 0.000000
-6.026400 0.000000
-6.002600 0.000000
-5.978800 0.000000
-5.954900 0.000000
-5.931100 0.000000
-5.907300 0.000000
-5.883500 0.000000
-5.859700 0.000000
-5.835900 0.000000
-5.812100 0.000000
-5.788200 0.000000
-5.764400 0.000000
-5.740600 0.000000
-5.716800 0.000000
-5.693000 0.000000
-5.669200 0.000000
-5.645400 0.000000
-5.621500 0.000000
-5.597700 0.000000
-5.573900 0.000000
-5.550100 0.000000
-5.526300 0.000000
-5.502500 0.000000
-5.478600 0.000000
-5.454800 0.000000
-5.431000 0.000000
-5.407200 0.000000
-5.383400 0.000000
-5.359600 0.000000
-5.335800 0.000000
-5.311900 0.000000
-5.288100 0.000000
-5.264300 0.000000
-5.240500 0.000000
-5.216700 0.000000
-5.192900 0.000000
-5.169100 0.000000
-5.145200 0.000000
-5.121400 0.000000
-5.097600 0.000000
-5.073800 0.000000
-5.050000 0.000000
-5.026200 0.000000
-5.002400 0.000000
-4.978500 0.000000
-4.954700 0.000000
-4.930900 0.000000
-4.907100 0.000000
-4.883300 0.000000
-4.859500 0.000000
-4.835600 0.000000
-4.811800 0.000000
-4.788000 0.000000
-4.764200 0.000000
-4.740400 0.000000
-4.716600 0.000000
-4.692800 0.000000
-4.668900 0.000000
-4.645100 0.000000
-4.621300 0.000000
-4.597500 0.000000
-4.573700 0.000000
-4.549900 0.000000
-4.526100 0.000000
-4.502200 0.000000
-4.478400 0.000000
-4.454600 0.000000
-4.430800 0.000000
-4.407000 0.000000
-4.383200 0.000000
-4.359300 0.000000
-4.335500 0.000000
-4.311700 0.000000
-4.287900 0.000000
-4.264100 0.000000
-4.240300 0.000000
-4.216500 0.000000
-4.192600 0.000000
-4.168800 0.000000
-4.145000 0.000000
-4.121200 0.000000
-4.097400 0.000000
-4.073600 0.000000
-4.049800 0.000000
-4.025900 0.000000
-4.002100 0.000000
-3.978300 0.000000
-3.954500 0.000000
-3.930700 0.000000
-3.906900 0.000000
-3.883100 0.000000
-3.859200 0.000000
-3.835400 0.000000
-3.811600 0.000000
-3.787800 0.000000
-3.764000 0.000000
-3.740200 0.000000
-3.716300 0.000000
-3.692500 0.000000
-3.668700 0.000000
-3.644900 0.000000
-3.621100 0.000000
-3.597300 0.000000
-3.573500 0.000000
-3.549600 0.000000
-3.525800 0.000000
-3.502000 0.000000
-3.478200 0.000000
-3.454400 0.000000
-3.430600 0.000000
-3.406800 0.000000
-3.382900 0.000000
-3.359100 0.000000
-3.335300 0.000000
-3.311500 0.000000
-3.287700 0.000000
-3.263900 0.000000
-3.240000 0.000000
-3.216200 0.000000
-3.192400 0.000000
-3.168600 0.000000
-3.144800 0.000000
-3.121000 0.000000
-3.097200 0.000000
-3.073300 0.000000
-3.049500 0.000000
-3.025700 0.000000
-3.001900 0.000000
-2.978100 0.000000
-2.954300 0.000000
-2.930500 0.000000
-2.906600 0.000000
-2.882800 0.000000
-2.859000 0.000000
-2.835200 0.000000
-2.811400 0.000000
-2.787600 0.000000
-2.763800 0.091600
-2.739900 0.272100
-2.716100 0.433200
-2.692300 0.464700
-2.668500 0.455200
-2.644700 0.515800
-2.620900 0.583800
-2.597000 0.658900
-2.573200 0.735800
-2.549400 0.780300
-2.525600 1.435900
-2.501800 2.871000
-2.478000 5.816400
-2.454200 5.257800
-2.430300 5.997600
-2.406500 6.450600
-2.382700 5.304700
-2.358900 4.330600
-2.335100 3.592700
-2.311300 3.299100
-2.287500 3.018100
-2.263600 2.743000
-2.239800 2.499900
-2.216000 2.295900
-2.192200 2.128800
-2.168400 1.989400
-2.144600 1.860600
-2.120800 1.734700
-2.096900 1.620300
-2.073100 1.495400
-2.049300 1.384300
-2.025500 1.302800
-2.001700 1.221000
-1.977900 1.217100
-1.954000 1.215400
-1.930200 1.301300
-1.906400 1.162600
-1.882600 1.147900
-1.858800 1.109400
-1.835000 1.038200
-1.811200 0.935300
-1.787300 0.865300
-1.763500 0.826600
-1.739700 0.860900
-1.715900 1.031700
-1.692100 1.193600
-1.668300 1.382600
-1.644500 1.490400
-1.620600 1.740400
-1.596800 1.991900
-1.573000 2.275100
-1.549200 2.621200
-1.525400 3.037500
-1.501600 3.412100
-1.477700 3.854200
-1.453900 4.788700
-1.430100 5.485600
-1.406300 5.296100
-1.382500 4.936200
-1.358700 4.589700
-1.334900 4.017900
-1.311000 4.330900
-1.287200 5.707700
-1.263400 5.765200
-1.239600 6.552700
-1.215800 7.506900
-1.192000 8.950100
-1.168200 7.784500
-1.144300 7.318700
-1.120500 6.534900
-1.096700 6.563600
-1.072900 6.154300
-1.049100 5.374500
-1.025300 5.053600
-1.001500 4.667800
-0.977600 4.412700
-0.953800 4.343600
-0.930000 3.831300
-0.906200 3.101700
-0.882400 2.512200
-0.858600 2.647000
-0.834700 2.148400
-0.810900 1.586700
-0.787100 1.216500
-0.763300 0.997700
-0.739500 1.401400
-0.715700 2.705800
-0.691900 3.110600
-0.668000 2.945300
-0.644200 2.964200
-0.620400 3.803600
-0.596600 4.208900
-0.572800 5.130900
-0.549000 5.438800
-0.525200 6.128700
-0.501300 7.152200
-0.477500 9.307200
-0.453700 13.067600
-0.429900 14.030000
-0.406100 9.166100
-0.382300 7.699100
-0.358500 5.648200
-0.334600 5.765000
-0.310800 8.369300
-0.287000 12.294400
-0.263200 10.046200
-0.239400 8.621000
-0.215600 8.875500
-0.191700 9.123300
-0.167900 6.709100
-0.144100 6.293400
-0.120300 6.509200
-0.096500 7.260600
-0.072700 6.940100
-0.048900 6.660600
-0.025000 6.529400
-0.001200 6.380600
0.022600 6.451500
0.046400 6.508500
0.070200 6.105800
0.094000 5.535700
0.117800 4.740800
0.141700 4.350600
0.165500 4.193000
0.189300 4.275500
0.213100 5.031900
0.236900 6.367600
0.260700 8.348500
0.284600 8.580200
0.308400 10.844300
0.332200 9.459900
0.356000 8.330700
0.379800 7.532100
0.403600 8.017800
0.427400 8.388300
0.451300 9.718000
0.475100 11.515200
0.498900 13.697900
0.522700 12.548500
0.546500 15.052800
0.570300 11.700200
0.594100 9.771400
0.618000 8.995300
0.641800 8.622700
0.665600 8.600400
0.689400 8.655700
0.713200 7.856500
0.737000 6.954600
0.760800 7.043700
0.784700 7.081700
0.808500 5.416100
0.832300 4.674700
0.856100 4.498100
0.879900 4.461500
0.903700 5.047000
0.927600 6.358600
0.951400 7.048400
0.975200 8.176800
0.999000 6.909600
1.022800 6.740000
1.046600 6.527600
1.070400 7.135600
1.094300 7.771100
1.118100 7.392100
1.141900 7.495700
1.165700 9.404800
1.189500 8.614000
1.213300 9.355200
1.237100 7.110300
1.261000 6.714800
1.284800 5.524600
1.308600 4.740100
1.332400 6.628500
1.356200 9.967700
1.380000 12.223900
1.403800 16.075600
1.427700 19.298900
1.451500 15.515900
1.475300 14.723300
1.499100 13.004000
1.522900 12.228000
1.546700 13.474100
1.570600 14.614100
1.594400 11.787600
1.618200 9.615400
1.642000 7.976000
1.665800 7.623700
1.689600 7.798000
1.713400 10.238100
1.737300 14.099700
1.761100 10.279500
1.784900 7.760400
1.808700 7.193900
1.832500 5.994700
1.856300 6.567400
1.880100 7.656600
1.904000 8.716200
1.927800 9.962000
1.951600 9.839400
1.975400 9.421500
1.999200 8.457700
2.023000 7.464800
2.046900 6.742500
2.070700 6.868000
2.094500 6.601900
2.118300 6.064300
2.142100 6.346100
2.165900 6.488900
2.189700 6.158400
2.213600 6.067400
2.237400 4.984800
2.261200 4.073400
2.285000 4.394100
2.308800 5.573200
2.332600 7.547200
2.356400 7.963700
2.380300 9.474800
2.404100 11.469000
2.427900 12.365200
2.451700 9.036800
2.475500 10.134900
2.499300 12.354100
2.523100 11.773000
2.547000 11.136100
2.570800 11.023100
2.594600 9.317500
2.618400 7.589800
2.642200 6.681100
2.666000 8.116700
2.689900 9.435000
2.713700 9.322800
2.737500 10.623800
2.761300 9.936600
2.785100 8.693000
2.808900 6.961100
2.832700 6.603200
2.856600 6.116100
2.880400 5.531500
2.904200 4.927900
2.928000 4.414200
2.951800 4.570500
2.975600 4.364000
2.999400 3.273400
3.023300 2.558500
3.047100 1.953700
3.070900 1.451600
3.094700 1.618000
3.118500 1.794700
3.142300 4.354800
3.166200 3.162700
3.190000 2.937300
3.213800 2.535000
3.237600 2.094900
3.261400 1.778700
3.285200 1.691600
3.309000 1.599300
3.332900 1.526500
3.356700 1.440300
3.380500 1.408300
3.404300 1.389000
3.428100 1.363700
3.451900 1.337300
3.475700 1.323600
3.499600 1.319400
3.523400 1.326600
3.547200 1.375700
3.571000 1.435400
3.594800 1.597300
3.618600 1.798800
3.642400 1.674600
3.666300 1.573100
3.690100 1.366800
3.713900 1.259300
3.737700 1.216300
3.761500 1.183900
3.785300 1.148800
3.809200 1.105500
3.833000 1.054100
3.856800 1.009500
3.880600 0.978200
3.904400 0.949000
3.928200 0.913400
3.952000 0.879200
3.975900 0.852300
3.999700 0.829700
4.023500 0.809600
4.047300 0.791100
4.071100 0.774700
4.094900 0.771700
4.118700 0.762500
4.142600 0.769900
4.166400 0.796700
4.190200 0.702100
4.214000 0.623500
4.237800 0.593700
4.261600 0.551800
4.285400 0.515600
4.309300 0.497000
4.333100 0.516800
4.356900 0.541500
4.380700 0.550100
4.404500 0.554600
4.428300 0.557300
4.452200 0.561500
4.476000 0.567900
4.499800 0.563100
4.523600 0.570000
4.547400 0.576500
4.571200 0.582700
4.595000 0.618000
4.618900 0.649600
4.642700 0.672600
4.666500 0.699600
4.690300 0.716400
4.714100 0.732900
4.737900 0.766700
4.761700 0.813000
4.785600 0.858900
4.809400 0.914500
4.833200 0.985800
4.857000 1.074300
4.880800 1.222100
4.904600 2.323500
4.928500 3.000400
4.952300 3.623700
4.976100 3.646400
4.999900 3.537900
5.023700 3.342600
5.047500 3.226900
5.071300 2.835200
5.095200 2.486400
5.119000 2.420700
5.142800 2.325000
5.166600 2.199900
5.190400 2.057300
5.214200 1.900000
5.238000 1.718000
5.261900 1.618900
5.285700 1.578200
5.309500 1.456000
5.333300 1.260700
5.357100 1.011100
5.380900 0.943800
5.404700 0.886100
5.428600 0.838200
5.452400 0.826900
5.476200 0.810800
5.500000 0.793700
5.523800 0.783700
5.547600 0.779200
5.571500 0.780000
5.595300 0.785300
5.619100 0.787700
5.642900 0.785100
5.666700 0.783800
5.690500 0.769100
5.714300 0.757000
5.738200 0.738300
5.762000 0.733400
5.785800 0.735200
5.809600 0.721800
5.833400 0.709800
5.857200 0.700600
5.881000 0.701800
5.904900 0.694700
5.928700 0.689500
5.952500 0.690200
5.976300 0.691800
6.000100 0.694000
6.023900 0.696700
6.047700 0.700100
6.071600 0.701700
6.095400 0.703600
6.119200 0.703100
6.143000 0.702900
6.166800 0.705200
6.190600 1.235300
6.214500 1.708800
6.238300 2.870800
6.262100 3.068400
6.285900 2.901400
6.309700 2.784400
6.333500 2.321700
6.357300 2.176500
6.381200 1.937300
6.405000 1.836500
6.428800 1.761600
6.452600 1.700900
6.476400 1.635200
6.500200 1.572400
6.524000 1.518200
6.547900 1.473600
6.571700 1.422600
6.595500 1.384900
6.619300 1.348100
6.643100 1.314000
6.666900 1.396900
6.690800 1.399500
6.714600 1.345700
6.738400 1.211300
6.762200 1.181200
6.786000 1.163300
6.809800 1.142200
6.833600 1.118900
6.857500 1.098500
6.881300 1.081600
6.905100 1.068900
6.928900 1.057700
6.952700 1.046200
6.976500 1.036800
7.000300 1.028600
7.024200 1.021400
7.048000 1.013400
7.071800 1.008500
7.095600 1.007900
7.119400 1.009400
7.143200 1.010400
7.167000 1.010400
7.190900 1.011800
7.214700 1.010500
7.238500 0.990100
7.262300 0.971500
7.286100 0.941400
7.309900 0.931600
7.333800 0.931100
7.357600 0.942600
7.381400 0.962400
7.405200 0.896300
7.429000 0.865400
7.452800 0.865900
7.476600 0.853600
7.500500 0.851500
7.524300 0.849500
7.548100 0.881200
7.571900 0.864500
7.595700 0.853600
7.619500 0.847100
7.643300 0.844200
7.667200 0.843200
7.691000 0.796000
7.714800 0.787900
7.738600 0.780900
7.762400 0.774300
7.786200 0.768100
7.810000 0.768800
7.833900 0.786300
7.857700 0.798200
7.881500 0.804400
7.905300 0.796200
7.929100 0.797100
7.952900 0.776300
7.976800 0.777400
8.000600 0.767000
8.024400 0.768800
8.048200 0.784600
8.072000 0.810400
8.095800 0.847300
8.119600 0.894300
8.143500 0.950800
8.167300 1.059600
8.191100 1.129800
8.214900 1.194300
8.238700 1.249100
8.262500 1.293900
8.286300 1.328900
8.310200 1.352200
8.334000 1.360600
8.357800 1.365000
8.381600 1.359800
8.405400 1.320200
8.429200 1.281400
8.453100 1.279600
8.476900 1.291300
8.500700 1.303800
8.524500 1.312400
8.548300 1.329800
8.572100 1.367900
8.595900 1.378500
8.619800 1.351600
8.643600 1.312500
8.667400 1.287800
8.691200 1.262800
8.715000 1.233300
8.738800 1.202100
8.762600 1.169500
8.786500 1.145800
8.810300 1.135500
8.834100 1.128800
8.857900 1.125000
8.881700 1.122500
8.905500 1.122700
8.929300 1.134500
8.953200 1.166800
8.977000 1.191700
9.000800 1.218600
9.024600 1.265800
9.048400 1.334900
9.072200 1.326600
9.096100 1.378700
9.119900 1.406200
9.143700 1.434900
9.167500 1.444500
9.191300 1.440200
9.215100 1.411300
9.238900 1.362200
9.262800 1.349000
9.286600 1.326600
9.310400 1.296100
9.334200 1.262600
9.358000 1.229400
9.381800 1.167300
9.405600 1.133800
9.429500 1.081200
9.453300 1.010500
9.477100 0.961900
9.500900 0.955800
9.524700 1.002500
9.548500 1.223800
9.572400 1.348900
9.596200 1.265200
9.620000 1.238600
9.643800 1.244700
9.667600 1.312300
9.691400 1.328200
9.715200 1.369600
9.739100 1.474100
9.762900 1.537400
9.786700 1.593400
9.810500 1.673200
9.834300 1.743500
9.858100 1.838000
9.881900 1.915100
9.905800 1.983400
9.929600 2.137600
9.953400 2.137000
9.977200 2.129400
10.001000 2.139300
10.024800 2.184100
10.048600 2.196600
10.072500 2.195700
10.096300 1.956400
10.120100 1.937500
10.143900 1.893900
10.167700 1.822400
10.191500 1.729900
10.215400 1.630600
10.239200 1.539900
10.263000 1.396700
10.286800 1.253600
10.310600 1.128700
10.334400 1.035900
10.358200 0.970300
10.382100 0.910700
10.405900 0.889400
10.429700 0.883300
10.453500 0.893400
10.477300 0.913800
10.501100 0.964900
10.524900 1.215000
10.548800 1.384800
10.572600 1.459600
10.596400 1.561800
10.620200 1.645400
10.644000 1.745800
10.667800 1.819800
10.691600 1.905100
10.715500 2.109700
10.739300 2.232500
10.763100 2.369500
10.786900 2.416500
10.810700 2.418300
10.834500 2.383800
10.858400 2.342300
10.882200 2.292100
10.906000 2.089700
10.929800 1.915900
10.953600 1.784400
10.977400 1.679100
11.001200 1.579500
11.025100 1.483700
11.048900 1.367500
11.072700 1.311000
11.096500 1.275000
11.120300 1.251900
11.144100 1.247300
11.167900 1.257100
11.191800 1.303500
11.215600 1.309000
11.239400 1.318000
11.263200 1.330900
11.287000 1.346800
11.310800 1.364800
11.334700 1.383200
11.358500 1.402900
11.382300 1.426600
11.406100 1.493200
11.429900 1.487200
11.453700 1.457500
11.477500 1.469500
11.501400 1.562900
11.525200 1.522700
11.549000 1.537500
11.572800 1.581300
11.596600 1.593700
11.620400 1.605500
11.644200 1.617500
11.668100 1.631100
11.691900 1.653900
11.715700 1.689000
11.739500 1.684100
11.763300 1.662000
11.787100 1.634300
11.810900 1.628600
11.834800 1.632200
11.858600 1.636500
11.882400 1.649600
11.906200 1.664000
11.930000 1.681900
11.953800 1.703700
11.977700 1.728900
12.001500 1.755600
12.025300 1.778100
12.049100 1.784000
12.072900 1.785900
12.096700 1.797200
12.120500 1.820500
12.144400 1.851800
12.168200 1.916200
12.192000 2.009100
12.215800 2.123700
12.239600 2.188800
12.263400 2.170300
12.287200 2.125300
12.311100 2.058700
12.334900 1.977900
12.358700 1.878400
12.382500 1.775700
12.406300 1.694600
12.430100 1.633200
12.453900 1.600200
12.477800 1.627400
12.501600 1.592600
12.525400 1.541900
12.549200 1.499800
12.573000 1.477900
12.596800 1.457600
12.620700 1.435600
12.644500 1.402400
12.668300 1.357700
12.692100 1.356000
12.715900 1.364300
12.739700 1.356900
12.763500 1.339800
12.787400 1.328300
12.811200 1.331500
12.835000 1.337600
12.858800 1.341400
12.882600 1.337300
12.906400 1.341900
12.930200 1.359400
12.954100 1.337100
12.977900 1.297400
13.001700 1.249500
13.025500 1.196500
13.049300 1.149600
13.073100 1.120200
13.097000 1.124000
13.120800 1.129200
13.144600 1.122300
13.168400 1.116900
13.192200 1.125900
13.216000 1.145900
13.239800 1.174700
13.263700 1.180600
13.287500 1.204300
13.311300 1.229900
13.335100 1.243500
13.358900 1.249800
13.382700 1.249300
13.406500 1.255600
13.430400 1.248900
13.454200 1.211700
13.478000 1.187800
13.501800 1.177800
13.525600 1.181000
13.549400 1.193000
13.573200 1.215800
13.597100 1.252300
13.620900 1.300600
13.644700 1.360700
13.668500 1.439100
13.692300 1.522900
13.716100 1.551100
13.740000 1.566000
13.763800 1.565100
13.787600 1.538900
13.811400 1.503500
13.835200 1.500500
13.859000 1.512900
13.882800 1.517600
13.906700 1.502000
13.930500 1.499300
13.954300 1.546000
13.978100 1.576500
14.001900 1.594000
14.025700 1.611600
14.049500 1.636000
14.073400 1.660000
14.097200 1.685100
14.121000 1.688100
14.144800 1.686000
14.168600 1.682500
14.192400 1.680800
14.216200 1.621800
14.240100 1.631600
14.263900 1.641300
14.287700 1.767000
14.311500 1.869700
14.335300 1.989900
14.359100 2.133800
14.383000 2.375900
14.406800 2.422600
14.430600 2.553300
14.454400 2.528500
14.478200 2.454800
14.502000 2.401500
14.525800 2.358000
14.549700 2.350000
14.573500 2.357400
14.597300 2.361500
14.621100 2.374600
14.644900 2.393500
14.668700 2.393400
14.692500 2.366100
14.716400 2.305000
14.740200 2.283200
14.764000 2.212200
14.787800 2.115400
14.811600 2.047100
14.835400 1.994000
14.859300 1.946900
14.883100 1.903000
14.906900 1.869200
14.930700 1.838500
14.954500 1.809900
14.978300 1.780100
15.002100 1.752000
15.026000 1.736800
15.049800 1.735800
15.073600 1.740400
15.097400 1.734600
15.121200 1.750700
15.145000 1.737000
15.168800 1.736200
15.192700 1.727200
15.216500 1.709200
15.240300 1.706800
15.264100 1.706400
15.287900 1.704800
15.311700 1.770700
15.335500 1.720700
15.359400 1.657900
15.383200 1.643600
15.407000 1.634500
15.430800 1.632300
15.454600 1.614200
15.478400 1.603200
15.502300 1.588000
15.526100 1.584300
15.549900 1.579200
15.573700 1.568600
15.597500 1.568200
15.621300 1.587300
15.645100 1.624500
15.669000 1.673700
15.692800 1.734300
15.716600 1.809700
15.740400 1.940700
15.764200 2.084600
15.788000 2.152100
15.811800 2.248800
15.835700 2.331700
15.859500 2.534800
15.883300 2.590100
15.907100 2.666800
15.930900 2.791200
15.954700 2.947000
15.978600 2.873700
16.002400 2.784200
16.026200 2.780800
16.050000 2.754400
16.073800 2.643400
16.097600 2.573600
16.121400 2.512300
16.145300 2.514900
16.169100 2.473300
16.192900 2.451400
16.216700 2.433600
16.240500 2.418500
16.264300 2.390400
16.288100 2.336300
16.312000 2.268900
16.335800 2.223000
16.359600 2.198200
16.383400 2.206100
16.407200 2.249000
16.431000 2.319200
16.454800 2.423500
16.478700 2.351900
16.502500 2.281300
16.526300 2.202100
16.550100 2.194200
16.573900 2.280800
16.597700 2.245000
16.621600 2.181000
16.645400 2.048900
16.669200 2.066300
16.693000 2.057900
16.716800 2.079100
16.740600 2.107300
16.764400 2.129100
16.788300 2.131600
16.812100 2.131000
16.835900 2.143600
16.859700 2.169200
16.883500 2.134700
16.907300 2.070900
16.931100 2.039400
16.955000 2.012900
16.978800 1.988500
17.002600 1.974200
17.026400 1.977100
17.050200 1.969400
17.074000 1.996400
17.097800 2.007500
17.121700 2.011300
17.145500 2.011400
17.169300 2.000500
17.193100 1.988400
17.216900 1.986900
17.240700 2.011800
17.264600 2.055800
17.288400 2.151300
17.312200 2.236700
17.336000 2.263800
17.359800 2.306000
17.383600 2.485700
17.407400 2.663100
17.431300 2.881800
17.455100 2.891800
17.478900 2.868200
17.502700 2.874400
17.526500 3.021300
17.550300 3.171100
17.574100 3.399000
17.598000 3.110700
17.621800 2.658900
17.645600 2.238500
17.669400 2.025900
17.693200 1.919000
17.717000 1.817400
17.740900 1.753800
17.764700 1.638700
17.788500 1.623300
17.812300 1.597800
17.836100 1.493900
17.859900 1.487400
17.883700 1.490300
17.907600 1.491000
17.931400 1.510300
17.955200 1.512200
17.979000 1.514700
18.002800 1.505600
18.026600 1.502600
18.050400 1.516400
18.074300 1.528800
18.098100 1.549400
18.121900 1.570900
18.145700 1.580400
18.169500 1.593200
18.193300 1.603300
18.217100 1.586200
18.241000 1.543400
18.264800 1.468300
18.288600 1.427600
18.312400 1.421700
18.336200 1.432100
18.360000 1.448600
18.383900 1.469900
18.407700 1.491700
18.431500 1.515500
18.455300 1.537700
18.479100 1.557700
18.502900 1.600300
18.526700 1.648800
18.550600 1.691300
18.574400 1.743900
18.598200 1.805500
18.622000 1.899300
18.645800 1.964300
18.669600 2.100300
18.693400 2.028400
18.717300 1.916900
18.741100 1.904300
18.764900 1.902900
18.788700 1.877900
18.812500 1.869000
18.836300 1.875200
18.860100 1.897100
18.884000 1.999400
18.907800 2.089100
18.931600 2.164800
18.955400 2.231100
18.979200 2.284300
19.003000 2.266500
19.026900 2.342000
19.050700 2.480500
19.074500 2.658300
19.098300 2.871500
19.122100 3.317800
19.145900 3.807000
19.169700 4.255400
19.193600 4.794100
19.217400 4.622900
19.241200 4.554000
19.265000 4.201700
19.288800 3.507200
19.312600 2.840400
19.336400 2.228700
19.360300 1.886800
19.384100 1.675600
19.407900 1.560800
19.431700 1.483800
19.455500 1.455900
19.479300 1.595100
19.503200 1.839900
19.527000 2.165700
19.550800 2.632400
19.574600 2.884700
19.598400 3.118900
19.622200 3.507700
19.646000 4.152200
19.669900 4.372100
19.693700 4.521700
19.717500 4.691900
19.741300 4.534500
19.765100 4.100500
19.788900 3.777800
19.812700 3.512500
19.836600 2.967400
19.860400 2.587800
19.884200 2.391300
19.908000 2.300600
19.931800 2.153500
19.955600 2.085400
19.979400 1.941300
20.003300 1.819600
20.027100 1.807900
20.050900 1.701100
20.074700 1.647600
20.098500 1.621900
20.122300 1.651600
20.146200 1.722700
20.170000 1.970700
20.193800 2.213800
20.217600 2.456000
20.241400 2.658400
20.265200 2.864900
20.289000 2.995800
20.312900 3.077800
20.336700 3.158500
20.360500 3.283700
20.384300 3.380100
20.408100 3.476800
20.431900 3.589600
20.455700 3.665900
20.479600 3.819000
20.503400 4.019800
20.527200 4.328700
20.551000 4.146400
20.574800 3.981000
20.598600 3.777400
20.622400 3.487300
20.646300 3.103700
20.670100 2.827000
20.693900 2.650700
20.717700 2.606200
20.741500 2.526900
20.765300 2.473400
20.789200 2.709600
20.813000 2.965500
20.836800 3.076300
20.860600 3.112700
20.884400 3.208100
20.908200 3.335200
20.932000 3.475100
20.955900 3.517800
20.979700 3.487300
21.003500 3.575700
21.027300 3.601500
21.051100 3.618700
21.074900 3.607000
21.098700 3.583000
21.122600 3.535100
21.146400 3.352100
21.170200 3.146600
21.194000 2.815300
21.217800 2.584000
21.241600 2.252200
21.265500 2.041700
21.289300 1.919300
21.313100 1.880200
21.336900 1.895300
21.360700 1.935900
21.384500 2.040000
21.408300 2.108800
21.432200 2.339300
21.456000 2.552600
21.479800 2.768100
21.503600 2.996200
21.527400 3.252900
21.551200 3.426900
21.575000 3.359900
21.598900 3.313900
21.622700 3.360100
21.646500 3.442100
21.670300 3.420800
21.694100 3.532400
21.717900 3.736100
21.741700 4.032600
21.765600 4.333500
21.789400 4.442800
21.813200 4.682200
21.837000 4.143700
21.860800 3.801000
21.884600 3.534800
21.908500 3.398500
21.932300 3.323400
21.956100 3.234600
21.979900 3.146500
22.003700 3.062200
22.027500 3.109200
22.051300 2.971200
22.075200 2.941300
22.099000 2.916700
22.122800 2.851100
22.146600 2.836300
22.170400 2.662400
22.194200 2.587500
22.218000 2.590200
22.241900 2.611700
22.265700 2.567800
22.289500 2.526500
22.313300 2.513100
22.337100 2.520700
22.360900 2.549400
22.384800 2.611400
22.408600 2.691100
22.432400 2.802000
22.456200 2.965400
22.480000 3.113300
22.503800 3.232900
22.527600 3.275800
22.551500 3.228700
22.575300 3.155700
22.599100 3.081800
22.622900 3.024400
22.646700 2.986900
22.670500 2.950400
22.694300 2.925600
22.718200 2.903900
22.742000 2.917100
22.765800 3.206000
22.789600 2.928800
22.813400 2.975200
22.837200 2.949500
22.861000 2.913000
22.884900 2.796100
22.908700 2.770500
22.932500 2.797200
22.956300 2.894300
22.980100 3.012900
23.003900 3.185200
23.027800 3.289600
23.051600 3.223700
23.075400 3.186500
23.099200 3.183600
23.123000 3.181800
23.146800 3.071400
23.170600 2.929000
23.194500 2.779000
23.218300 2.660200
23.242100 2.570800
23.265900 2.479000
23.289700 2.409500
23.313500 2.383300
23.337300 2.339600
23.361200 2.329900
23.385000 2.336300
23.408800 2.400400
23.432600 2.444200
23.456400 2.449200
23.480200 2.488100
23.504000 2.523600
23.527900 2.590100
23.551700 2.667900
23.575500 2.817400
23.599300 2.838000
23.623100 2.921600
23.646900 3.089900
23.670800 3.321900
23.694600 3.391900
23.718400 3.431000
23.742200 3.414800
23.766000 3.383200
23.789800 3.334200
23.813600 3.264800
23.837500 3.176300
23.861300 3.062700
23.885100 2.883200
23.908900 2.782600
23.932700 2.695600
23.956500 2.644100
23.980300 2.619100
24.004200 2.590400
24.028000 2.596200
24.051800 2.618600
24.075600 2.606100
24.099400 2.567800
24.123200 2.546900
24.147100 2.469400
24.170900 2.384300
24.194700 2.284600
24.218500 2.236300
24.242300 2.193600
24.266100 2.269300
24.289900 2.422700
24.313800 2.527800
24.337600 2.455800
24.361400 2.469600
24.385200 2.459200
24.409000 2.425700
24.432800 2.368100
24.456600 2.327100
24.480500 2.188400
24.504300 2.059100
24.528100 2.002500
24.551900 2.044000
24.575700 1.974900
24.599500 1.928900
24.623300 1.900200
24.647200 1.862100
24.671000 1.862900
24.694800 1.870100
24.718600 1.880800
24.742400 1.898200
24.766200 1.920800
24.790100 1.947800
24.813900 2.051300
24.837700 2.064100
24.861500 2.094200
24.885300 2.121100
24.909100 2.180500
24.932900 2.198400
24.956800 2.199300
24.980600 2.194700
25.004400 2.259300
25.028200 2.318800
25.052000 2.323300
25.075800 2.345500
25.099600 2.353700
25.123500 2.354700
25.147300 2.383400
25.171100 2.569300
25.194900 2.571600
25.218700 2.541000
25.242500 2.494300
25.266300 2.378000
25.290200 2.158300
25.314000 2.097600
25.337800 2.039100
25.361600 2.059800
25.385400 2.102700
25.409200 2.187500
25.433100 2.451900
25.456900 2.332400
25.480700 2.412500
25.504500 2.251500
25.528300 2.039400
25.552100 1.999200
25.575900 2.078000
25.599800 2.275000
25.623600 2.558300
25.647400 2.748400
25.671200 2.925500
25.695000 3.095000
25.718800 3.156500
25.742600 3.144800
25.766500 3.068200
25.790300 2.967900
25.814100 2.884800
25.837900 2.796700
25.861700 2.600600
25.885500 2.406600
25.909400 2.254500
25.933200 2.100500
25.957000 1.959600
25.980800 1.914200
26.004600 1.850000
26.028400 1.892100
26.052200 1.902900
26.076100 1.844300
26.099900 1.827300
26.123700 1.856700
26.147500 1.984900
26.171300 2.181700
26.195100 2.274300
26.218900 2.332100
26.242800 2.244000
26.266600 2.118800
26.290400 2.150700
26.314200 2.181800
26.338000 2.230700
26.361800 2.250600
26.385600 2.272800
26.409500 2.392300
26.433300 2.632600
26.457100 2.646700
26.480900 2.429500
26.504700 2.349000
26.528500 2.329500
26.552400 2.325000
26.576200 2.379900
26.600000 2.429400
26.623800 2.482100
26.647600 2.535800
26.671400 2.570300
26.695200 2.624600
26.719100 2.642000
26.742900 2.452600
26.766700 2.298900
26.790500 2.252600
26.814300 2.233100
26.838100 2.333900
26.861900 2.297000
26.885800 2.268300
26.909600 2.467900
26.933400 2.626600
26.957200 2.824400
26.981000 2.757600
27.004800 2.762600
27.028600 2.718500
27.052500 2.697400
27.076300 2.682600
27.100100 2.683200
27.123900 2.631500
27.147700 2.557000
27.171500 2.450600
27.195400 2.670600
27.219200 2.664000
27.243000 2.671700
27.266800 2.983200
27.290600 3.201500
27.314400 3.320700
27.338200 3.397600
27.362100 3.438400
27.385900 3.444700
27.409700 3.466300
27.433500 3.623800
27.457300 4.368300
27.481100 4.491000
27.504900 4.837600
27.528800 4.921100
27.552600 5.033500
27.576400 5.070000
27.600200 5.059100
27.624000 4.999400
27.647800 4.454600
27.671700 3.598200
27.695500 3.401600
27.719300 3.180800
27.743100 3.134300
27.766900 3.196600
27.790700 2.858600
27.814500 2.676000
27.838400 2.545100
27.862200 2.460600
27.886000 2.322000
27.909800 2.191600
27.933600 2.073200
27.957400 1.949200
27.981200 1.796500
28.005100 1.774600
28.028900 1.766800
28.052700 1.809500
28.076500 1.862200
28.100300 1.925000
28.124100 2.004500
28.147900 2.091500
28.171800 2.161500
28.195600 2.249000
28.219400 2.514100
28.243200 2.557800
28.267000 2.582000
28.290800 2.718400
28.314700 2.978500
28.338500 3.223100
28.362300 3.205800
28.386100 3.134300
28.409900 2.942700
28.433700 2.788700
28.457500 2.697900
28.481400 2.635900
28.505200 2.574800
28.529000 2.515600
28.552800 2.473300
28.576600 2.443000
28.600400 2.518100
28.624200 2.592800
28.648100 2.640200
28.671900 2.666300
28.695700 2.691300
28.719500 2.741800
28.743300 2.806600
28.767100 2.863600
28.791000 2.995000
28.814800 3.215700
28.838600 3.375600
28.862400 3.528200
28.886200 3.631800
28.910000 3.688100
28.933800 3.691200
28.957700 3.645900
28.981500 3.503500
29.005300 3.471600
29.029100 3.371300
29.052900 3.251400
29.076700 3.179400
29.100500 3.159400
29.124400 3.085100
29.148200 3.061300
29.172000 2.976200
29.195800 2.944100
29.219600 2.901200
29.243400 2.849500
29.267200 2.865300
29.291100 2.968400
29.314900 2.986700
29.338700 2.949700
29.362500 2.907700
29.386300 2.973200
29.410100 3.077100
29.434000 3.096700
29.457800 3.150200
29.481600 3.166500
29.505400 3.263300
29.529200 3.337600
29.553000 3.361900
29.576800 3.427500
29.600700 3.715000
29.624500 3.881400
29.648300 3.750200
29.672100 3.827000
29.695900 3.993100
29.719700 4.058300
29.743500 4.186800
29.767400 4.329200
29.791200 4.404500
29.815000 4.495800
29.838800 4.368500
29.862600 4.098400
29.886400 3.748200
29.910200 3.323000
29.934100 2.984600
29.957900 2.744000
29.981700 2.594500
30.005500 2.571900
30.029300 2.728500
30.053100 2.897300
30.077000 2.891300
30.100800 2.958400
30.124600 2.877100
30.148400 2.748900
30.172200 2.435200
30.196000 2.217900
30.219800 2.033300
30.243700 1.945100
30.267500 1.921600
30.291300 1.827700
30.315100 1.718100
30.338900 1.557200
30.362700 1.491100
30.386500 1.448600
30.410400 1.393600
30.434200 1.352500
30.458000 1.330800
30.481800 1.288700
30.505600 1.251000
30.529400 1.225300
30.553300 1.211900
30.577100 1.226400
30.600900 1.246000
30.624700 1.259500
30.648500 1.254700
30.672300 1.281800
30.696100 1.260000
30.720000 1.251000
30.743800 1.251000
30.767600 1.255100
30.791400 1.255300
30.815200 1.253400
30.839000 1.159200
30.862800 1.137300
30.886700 1.118900
30.910500 1.086300
30.934300 1.024000
30.958100 0.938300
30.981900 0.851200
31.005700 0.747000
31.029500 0.645100
31.053400 0.572700
31.077200 0.486200
31.101000 0.408000
31.124800 0.354000
31.148600 0.311400
31.172400 0.258400
31.196300 0.135900
31.220100 0.100600
31.243900 0.081100
31.267700 0.073100
31.291500 0.065600
31.315300 0.058600
31.339100 0.052000
31.363000 0.045800
31.386800 0.040100
31.410600 0.034900
31.434400 0.030100
31.458200 0.025800
31.482000 0.021900
31.505800 0.018500
31.529700 0.015200
31.553500 0.012100
31.577300 0.009100
31.601100 0.006300
31.624900 0.004300
31.648700 0.002600
31.672500 0.001200
31.696400 0.000300
31.720200 0.000000
31.744000 0.000000
31.767800 0.000000
31.791600 0.000000
31.815400 0.000000
31.839300 0.000000
31.863100 0.000000
31.886900 0.000000
31.910700 0.000000
31.934500 0.000000
31.958300 0.000000
31.982100 0.000000
32.006000 0.000000
32.029800 0.000000
32.053600 0.000000
32.077400 0.000000
32.101200 0.000000
32.125000 0.000000
32.148800 0.000000
32.172700 0.000000
32.196500 0.000000
32.220300 0.000000
32.244100 0.000000
32.267900 0.000000
32.291700 0.000000
32.315600 0.000000
32.339400 0.000000
32.363200 0.000000
32.387000 0.000000
32.410800 0.000000
32.434600 0.000000
32.458400 0.000000
32.482300 0.000000
32.506100 0.000000
32.529900 0.000000
32.553700 0.000000
32.577500 0.000000
32.601300 0.000000
32.625100 0.000000
32.649000 0.000000
32.672800 0.000000
32.696600 0.000000
32.720400 0.000000
32.744200 0.000000
32.768000 0.000000
32.791800 0.000000
32.815700 0.000000
32.839500 0.000000
32.863300 0.000000
32.887100 0.000000
32.910900 0.000000
32.934700 0.000000
32.958600 0.000000
32.982400 0.000000
33.006200 0.000000
33.030000 0.000000
33.053800 0.000000
33.077600 0.000000
33.101400 0.000000
33.125300 0.000000
33.149100 0.000000
33.172900 0.000000
33.196700 0.000000
33.220500 0.000000
33.244300 0.000000
33.268100 0.000000
33.292000 0.000000
33.315800 0.000000
33.339600 0.000000
33.363400 0.000000
33.387200 0.000000
33.411000 0.000000
33.434800 0.000000
33.458700 0.000000
33.482500 0.000000
33.506300 0.000000
33.530100 0.000000
33.553900 0.000000
33.577700 0.000000
33.601600 0.000000
33.625400 0.000000
33.649200 0.000000
33.673000 0.000000
33.696800 0.000000
33.720600 0.000000
33.744400 0.000000
33.768300 0.000000
33.792100 0.000000
33.815900 0.000000
33.839700 0.000000
33.863500 0.000000
33.887300 0.000000
e
