set title 'mp-1228793 - Density of States'
set xlabel 'Energy (eV)'
set ylabel 'DOS (states/eV)'
set grid
set xrange [-10:10]
set yrange [0:19.419]
set xzeroaxis lt -1
set terminal png size 800,600
set output 'mp-1228793_dos_gnuplot.png'
plot '-' using 1:2 with lines title 'DOS'
-9.769100 0.000000
-9.750100 0.000000
-9.731000 0.000000
-9.712000 0.000000
-9.693000 0.000000
-9.674000 0.000000
-9.654900 0.000000
-9.635900 0.000000
-9.616900 0.000000
-9.597900 0.000000
-9.578900 0.000000
-9.559800 0.000000
-9.540800 0.000000
-9.521800 0.000000
-9.502800 0.000000
-9.483800 0.000000
-9.464700 0.000000
-9.445700 0.000000
-9.426700 0.000000
-9.407700 0.000000
-9.388700 0.000000
-9.369600 0.000000
-9.350600 0.000000
-9.331600 0.000000
-9.312600 0.000000
-9.293600 0.000000
-9.274500 0.000000
-9.255500 0.000000
-9.236500 0.000000
-9.217500 0.000000
-9.198500 0.000000
-9.179400 0.000000
-9.160400 0.000000
-9.141400 0.000000
-9.122400 0.000000
-9.103400 0.000000
-9.084300 0.000000
-9.065300 0.000000
-9.046300 0.000000
-9.027300 0.000000
-9.008300 0.000000
-8.989200 0.000000
-8.970200 0.000000
-8.951200 0.000000
-8.932200 0.000000
-8.913200 0.000000
-8.894100 0.000000
-8.875100 0.000000
-8.856100 0.000000
-8.837100 0.000000
-8.818000 0.000000
-8.799000 0.000000
-8.780000 0.000000
-8.761000 0.000000
-8.742000 0.000000
-8.722900 0.000000
-8.703900 0.000000
-8.684900 0.000000
-8.665900 0.000000
-8.646900 0.000000
-8.627800 0.000000
-8.608800 0.000000
-8.589800 0.000000
-8.570800 0.000000
-8.551800 0.000000
-8.532700 0.000000
-8.513700 0.000000
-8.494700 0.000000
-8.475700 0.000000
-8.456700 0.000000
-8.437600 0.000000
-8.418600 0.000000
-8.399600 0.000000
-8.380600 0.000000
-8.361600 0.000000
-8.342500 0.000000
-8.323500 0.000000
-8.304500 0.000000
-8.285500 0.000000
-8.266500 0.000000
-8.247400 0.000000
-8.228400 0.000000
-8.209400 0.000000
-8.190400 0.000000
-8.171400 0.000000
-8.152300 0.000000
-8.133300 0.000000
-8.114300 0.000000
-8.095300 0.000000
-8.076300 0.000000
-8.057200 0.000000
-8.038200 0.003100
-8.019200 0.130900
-8.000200 0.267300
-7.981200 0.403700
-7.962100 0.540100
-7.943100 0.676600
-7.924100 0.653500
-7.905100 0.611000
-7.886000 0.568500
-7.867000 0.526000
-7.848000 0.483500
-7.829000 0.494000
-7.810000 0.510900
-7.790900 0.527700
-7.771900 0.544600
-7.752900 0.561400
-7.733900 0.578300
-7.714900 0.595200
-7.695800 0.612000
-7.676800 0.628900
-7.657800 0.634200
-7.638800 0.617800
-7.619800 0.601400
-7.600700 0.585000
-7.581700 0.568600
-7.562700 0.564900
-7.543700 0.570300
-7.524700 0.575800
-7.505600 0.581200
-7.486600 0.586600
-7.467600 0.592100
-7.448600 0.597500
-7.429600 0.603000
-7.410500 0.608400
-7.391500 0.613900
-7.372500 0.619300
-7.353500 0.624700
-7.334500 0.630200
-7.315400 0.635600
-7.296400 0.642000
-7.277400 0.650200
-7.258400 0.658300
-7.239400 0.663700
-7.220300 0.664500
-7.201300 0.665200
-7.182300 0.665900
-7.163300 0.666700
-7.144300 0.670200
-7.125200 0.675200
-7.106200 0.680200
-7.087200 0.685200
-7.068200 0.690200
-7.049100 0.695200
-7.030100 0.700200
-7.011100 0.705200
-6.992100 0.710200
-6.973100 0.715200
-6.954000 0.720200
-6.935000 0.725200
-6.916000 0.730200
-6.897000 0.738200
-6.878000 0.744800
-6.858900 0.751200
-6.839900 0.757700
-6.820900 0.764100
-6.801900 0.770500
-6.782900 0.776900
-6.763800 0.800000
-6.744800 0.829400
-6.725800 0.858900
-6.706800 0.888300
-6.687800 0.914500
-6.668700 0.928600
-6.649700 0.942800
-6.630700 0.957000
-6.611700 0.971100
-6.592700 0.985300
-6.573600 0.999500
-6.554600 1.013600
-6.535600 1.027800
-6.516600 1.042000
-6.497600 1.057300
-6.478500 1.073500
-6.459500 1.089700
-6.440500 1.105200
-6.421500 1.856800
-6.402500 1.780200
-6.383400 1.703700
-6.364400 1.627100
-6.345400 1.047300
-6.326400 1.027600
-6.307400 1.007900
-6.288300 0.988100
-6.269300 0.968400
-6.250300 0.948700
-6.231300 0.929000
-6.212300 0.909200
-6.193200 0.889500
-6.174200 0.869800
-6.155200 0.850100
-6.136200 0.830300
-6.117100 0.810600
-6.098100 0.708200
-6.079100 0.702200
-6.060100 0.697200
-6.041100 0.687400
-6.022000 0.677700
-6.003000 0.667900
-5.984000 0.658100
-5.965000 0.648400
-5.946000 0.638600
-5.926900 0.628800
-5.907900 0.619000
-5.888900 0.609300
-5.869900 0.599500
-5.850900 0.589700
-5.831800 0.579900
-5.812800 0.570200
-5.793800 0.560400
-5.774800 0.550600
-5.755800 0.540900
-5.736700 0.513800
-5.717700 0.507600
-5.698700 0.501300
-5.679700 0.495000
-5.660700 0.488700
-5.641600 0.482300
-5.622600 0.475700
-5.603600 0.469200
-5.584600 0.462600
-5.565600 0.456100
-5.546500 0.449600
-5.527500 0.443000
-5.508500 0.436500
-5.489500 0.429900
-5.470500 0.423400
-5.451400 0.416800
-5.432400 0.410300
-5.413400 0.403700
-5.394400 0.397200
-5.375400 0.390700
-5.356300 0.384100
-5.337300 0.436200
-5.318300 0.422000
-5.299300 0.407800
-5.280200 0.393600
-5.261200 0.379500
-5.242200 0.365300
-5.223200 0.351100
-5.204200 0.336900
-5.185100 0.322700
-5.166100 0.308500
-5.147100 0.294300
-5.128100 0.280100
-5.109100 0.265900
-5.090000 0.251700
-5.071000 0.237500
-5.052000 0.223300
-5.033000 0.000000
-5.014000 0.000000
-4.994900 0.000000
-4.975900 0.000000
-4.956900 0.000000
-4.937900 0.000000
-4.918900 0.000000
-4.899800 0.000000
-4.880800 0.000000
-4.861800 0.000000
-4.842800 0.000000
-4.823800 0.000000
-4.804700 0.000000
-4.785700 0.000000
-4.766700 0.000000
-4.747700 0.000000
-4.728700 0.000000
-4.709600 0.000000
-4.690600 0.000000
-4.671600 0.000000
-4.652600 0.000000
-4.633600 0.000000
-4.614500 0.000000
-4.595500 0.000000
-4.576500 0.000000
-4.557500 0.000000
-4.538500 0.000000
-4.519400 0.000000
-4.500400 0.000000
-4.481400 0.000000
-4.462400 0.000000
-4.443400 0.000000
-4.424300 0.000000
-4.405300 0.000000
-4.386300 0.000000
-4.367300 0.000000
-4.348200 0.000000
-4.329200 0.000000
-4.310200 0.000000
-4.291200 0.000000
-4.272200 0.000000
-4.253100 0.000000
-4.234100 0.000000
-4.215100 0.000000
-4.196100 0.000000
-4.177100 0.000000
-4.158000 0.000000
-4.139000 0.000000
-4.120000 0.000000
-4.101000 0.000000
-4.082000 0.000000
-4.062900 0.000000
-4.043900 0.000000
-4.024900 0.000000
-4.005900 0.000000
-3.986900 0.000000
-3.967800 0.000000
-3.948800 0.000000
-3.929800 0.000000
-3.910800 0.000000
-3.891800 0.000000
-3.872700 0.000000
-3.853700 0.000000
-3.834700 0.000000
-3.815700 0.000000
-3.796700 0.000000
-3.777600 0.000000
-3.758600 0.000000
-3.739600 0.000000
-3.720600 0.000000
-3.701600 0.000000
-3.682500 0.000000
-3.663500 0.000000
-3.644500 0.000000
-3.625500 0.000000
-3.606500 0.000000
-3.587400 0.000000
-3.568400 0.000000
-3.549400 0.000000
-3.530400 0.000000
-3.511300 0.000000
-3.492300 0.000000
-3.473300 0.000000
-3.454300 0.000000
-3.435300 0.000000
-3.416200 0.000000
-3.397200 0.000000
-3.378200 0.000000
-3.359200 0.000000
-3.340200 0.000000
-3.321100 0.000000
-3.302100 0.000000
-3.283100 0.000000
-3.264100 0.000000
-3.245100 0.000000
-3.226000 0.000000
-3.207000 0.000000
-3.188000 0.000000
-3.169000 0.000000
-3.150000 0.000000
-3.130900 0.000000
-3.111900 0.000000
-3.092900 0.000000
-3.073900 0.000000
-3.054900 0.000000
-3.035800 0.000000
-3.016800 0.000000
-2.997800 0.000000
-2.978800 0.000000
-2.959800 0.000000
-2.940700 0.000000
-2.921700 0.000000
-2.902700 0.000000
-2.883700 0.000000
-2.864700 0.000000
-2.845600 0.000000
-2.826600 0.000000
-2.807600 0.000000
-2.788600 0.000000
-2.769600 0.000000
-2.750500 0.000000
-2.731500 0.000000
-2.712500 0.000000
-2.693500 0.000000
-2.674500 0.000000
-2.655400 0.000000
-2.636400 0.000000
-2.617400 0.000000
-2.598400 0.000000
-2.579300 0.000000
-2.560300 0.000000
-2.541300 0.000000
-2.522300 0.000000
-2.503300 0.000000
-2.484200 0.000000
-2.465200 0.000000
-2.446200 0.000000
-2.427200 0.000000
-2.408200 0.000000
-2.389100 0.000000
-2.370100 0.000000
-2.351100 0.000000
-2.332100 0.000000
-2.313100 0.000000
-2.294000 0.000000
-2.275000 0.000000
-2.256000 0.000000
-2.237000 0.000000
-2.218000 0.000000
-2.198900 0.000000
-2.179900 0.000000
-2.160900 0.000000
-2.141900 0.000000
-2.122900 0.000000
-2.103800 0.000000
-2.084800 0.000000
-2.065800 0.000000
-2.046800 0.000000
-2.027800 0.000000
-2.008700 0.000000
-1.989700 0.000000
-1.970700 0.000000
-1.951700 0.000000
-1.932700 0.000000
-1.913600 0.000000
-1.894600 0.000000
-1.875600 0.000000
-1.856600 0.000000
-1.837600 0.000000
-1.818500 0.000000
-1.799500 0.000000
-1.780500 0.000000
-1.761500 0.000000
-1.742400 0.000000
-1.723400 0.000000
-1.704400 0.000000
-1.685400 0.000000
-1.666400 0.000000
-1.647300 0.000000
-1.628300 0.000000
-1.609300 0.000000
-1.590300 0.951800
-1.571300 1.023600
-1.552200 1.095500
-1.533200 1.167500
-1.514200 0.678800
-1.495200 0.709400
-1.476200 0.739900
-1.457100 0.770500
-1.438100 0.801100
-1.419100 0.833000
-1.400100 0.875800
-1.381100 0.926200
-1.362000 0.981800
-1.343000 1.071700
-1.324000 1.141700
-1.305000 1.216400
-1.286000 1.296500
-1.266900 1.377800
-1.247900 1.453800
-1.228900 1.528900
-1.209900 1.596800
-1.190900 2.160800
-1.171800 2.277400
-1.152800 2.386500
-1.133800 2.486500
-1.114800 1.981900
-1.095800 1.930600
-1.076700 2.070700
-1.057700 2.034800
-1.038700 2.006300
-1.019700 1.987400
-1.000700 1.973800
-0.981600 1.964300
-0.962600 1.954800
-0.943600 1.945400
-0.924600 1.935900
-0.905600 1.926500
-0.886500 1.916400
-0.867500 1.904500
-0.848500 1.891600
-0.829500 1.914500
-0.810400 2.068900
-0.791400 2.223800
-0.772400 1.738300
-0.753400 1.758700
-0.734400 1.819700
-0.715300 1.870300
-0.696300 1.863600
-0.677300 1.858100
-0.658300 1.853500
-0.639300 1.846000
-0.620200 2.276900
-0.601200 2.323400
-0.582200 2.378500
-0.563200 2.439100
-0.544200 2.504500
-0.525100 2.570000
-0.506100 2.635500
-0.487100 2.701000
-0.468100 2.644900
-0.449100 2.616300
-0.430000 2.550600
-0.411000 2.461200
-0.392000 2.419300
-0.373000 2.463400
-0.354000 2.439800
-0.334900 2.425400
-0.315900 2.345300
-0.296900 2.217400
-0.277900 2.111400
-0.258900 2.072400
-0.239800 1.627200
-0.220800 1.812200
-0.201800 1.984200
-0.182800 2.152100
-0.163800 2.307100
-0.144700 2.350400
-0.125700 2.448000
-0.106700 2.885800
-0.087700 3.841200
-0.068700 4.381000
-0.049600 4.042200
-0.030600 3.599300
-0.011600 3.429500
0.007400 3.342100
0.026500 3.254800
0.045500 3.167500
0.064500 3.082400
0.083500 3.008500
0.102500 2.940800
0.121600 2.880100
0.140600 2.830000
0.159600 2.874700
0.178600 3.066000
0.197600 3.370700
0.216700 3.778900
0.235700 4.057000
0.254700 4.169300
0.273700 4.141600
0.292700 3.967400
0.311800 3.868700
0.330800 3.514200
0.349800 3.206600
0.368800 3.061800
0.387800 3.118300
0.406900 3.257200
0.425900 3.440900
0.444900 3.859900
0.463900 4.165200
0.482900 4.677900
0.502000 5.200100
0.521000 5.405500
0.540000 5.250600
0.559000 5.372400
0.578000 4.605600
0.597100 5.055400
0.616100 6.588900
0.635100 8.563600
0.654100 8.062900
0.673100 7.200500
0.692200 5.655800
0.711200 5.467700
0.730200 5.247600
0.749200 5.245000
0.768200 5.395100
0.787300 5.825400
0.806300 6.567400
0.825300 7.844000
0.844300 9.106800
0.863300 9.521900
0.882400 9.540300
0.901400 9.601400
0.920400 9.991300
0.939400 10.671100
0.958500 11.199500
0.977500 11.410600
0.996500 13.528400
1.015500 17.653800
1.034500 14.621900
1.053600 12.478400
1.072600 10.409600
1.091600 10.175000
1.110600 10.186700
1.129600 11.985400
1.148700 11.178700
1.167700 12.005200
1.186700 14.118000
1.205700 16.184000
1.224700 16.657700
1.243800 15.456800
1.262800 13.245000
1.281800 12.462200
1.300800 11.393500
1.319800 13.127700
1.338900 15.388800
1.357900 16.391300
1.376900 9.964900
1.395900 8.601800
1.414900 9.064000
1.434000 8.297300
1.453000 8.081600
1.472000 10.758400
1.491000 12.126500
1.510000 11.482900
1.529100 9.457900
1.548100 8.010400
1.567100 7.423300
1.586100 8.907200
1.605100 9.747800
1.624200 10.308600
1.643200 12.396200
1.662200 12.641100
1.681200 12.292900
1.700200 11.927100
1.719300 10.133300
1.738300 10.520300
1.757300 9.732800
1.776300 9.394500
1.795300 9.874700
1.814400 10.529100
1.833400 11.092200
1.852400 12.172000
1.871400 10.896300
1.890500 9.683000
1.909500 10.774300
1.928500 8.228800
1.947500 7.517500
1.966500 8.201600
1.985600 9.314000
2.004600 10.844500
2.023600 12.393900
2.042600 13.243300
2.061600 14.178900
2.080700 13.640000
2.099700 12.580500
2.118700 10.730200
2.137700 9.039800
2.156700 9.180300
2.175800 8.795500
2.194800 7.995600
2.213800 7.736900
2.232800 7.415800
2.251800 7.788400
2.270900 8.090600
2.289900 8.693200
2.308900 8.358900
2.327900 8.073800
2.346900 7.730500
2.366000 7.402200
2.385000 7.144900
2.404000 6.642500
2.423000 6.377800
2.442000 6.553700
2.461100 6.894200
2.480100 5.266900
2.499100 5.234300
2.518100 5.398600
2.537100 6.232900
2.556200 6.620200
2.575200 5.958600
2.594200 4.820900
2.613200 4.752600
2.632200 5.416600
2.651300 6.384000
2.670300 6.898200
2.689300 7.574600
2.708300 7.901300
2.727400 7.998000
2.746400 7.935600
2.765400 8.142400
2.784400 8.706900
2.803400 7.723500
2.822500 6.798000
2.841500 6.586100
2.860500 6.559100
2.879500 6.647500
2.898500 7.058500
2.917600 8.270300
2.936600 8.462300
2.955600 8.257700
2.974600 7.628000
2.993600 9.191200
3.012700 9.569200
3.031700 9.564800
3.050700 10.352900
3.069700 10.103000
3.088700 9.292100
3.107800 8.360200
3.126800 8.338000
3.145800 8.785100
3.164800 9.149400
3.183800 9.765300
3.202900 9.604700
3.221900 9.754300
3.240900 10.509300
3.259900 10.264100
3.278900 11.120900
3.298000 12.370800
3.317000 11.383400
3.336000 10.802200
3.355000 10.477000
3.374000 10.202300
3.393100 10.566800
3.412100 10.256400
3.431100 10.711400
3.450100 11.267700
3.469100 10.457100
3.488200 13.753900
3.507200 6.923600
3.526200 6.661400
3.545200 6.831900
3.564200 7.405900
3.583300 8.153500
3.602300 8.654500
3.621300 8.632000
3.640300 8.828300
3.659400 8.584500
3.678400 8.887600
3.697400 8.617100
3.716400 8.045500
3.735400 7.385700
3.754500 7.865100
3.773500 10.110700
3.792500 12.984700
3.811500 15.870600
3.830500 15.041100
3.849600 14.418300
3.868600 13.160000
3.887600 11.553200
3.906600 9.185900
3.925600 9.770800
3.944700 9.834000
3.963700 10.036500
3.982700 10.175400
4.001700 10.320300
4.020700 8.942300
4.039800 8.003000
4.058800 8.715500
4.077800 10.207000
4.096800 9.794800
4.115800 8.380800
4.134900 7.595300
4.153900 6.669400
4.172900 6.235200
4.191900 6.188800
4.210900 6.198300
4.230000 6.122100
4.249000 6.239400
4.268000 6.416000
4.287000 7.406500
4.306000 7.725600
4.325100 7.930400
4.344100 8.887500
4.363100 10.143200
4.382100 10.642800
4.401100 10.761300
4.420200 8.175700
4.439200 7.446900
4.458200 7.366900
4.477200 6.496000
4.496300 5.891900
4.515300 6.976800
4.534300 5.489900
4.553300 4.588700
4.572300 3.831600
4.591400 3.413500
4.610400 3.099600
4.629400 2.950400
4.648400 2.843900
4.667400 2.745000
4.686500 2.686400
4.705500 2.640600
4.724500 2.595000
4.743500 2.534200
4.762500 2.474600
4.781600 2.383600
4.800600 2.250600
4.819600 2.195300
4.838600 2.150800
4.857600 2.094800
4.876700 2.007300
4.895700 1.866500
4.914700 1.699600
4.933700 1.629900
4.952700 1.551900
4.971800 1.434600
4.990800 1.372000
5.009800 1.343400
5.028800 1.413400
5.047800 1.494500
5.066900 1.444700
5.085900 1.434400
5.104900 1.398800
5.123900 1.353800
5.142900 1.352600
5.162000 1.351900
5.181000 1.357100
5.200000 1.366900
5.219000 1.382300
5.238000 1.402700
5.257100 1.456600
5.276100 1.520100
5.295100 1.644400
5.314100 1.735600
5.333100 1.779400
5.352200 1.823700
5.371200 1.862800
5.390200 1.902000
5.409200 1.927400
5.428300 1.941000
5.447300 1.953600
5.466300 1.967600
5.485300 1.977700
5.504300 1.989500
5.523400 2.001300
5.542400 2.013600
5.561400 2.018600
5.580400 2.018900
5.599400 1.994000
5.618500 1.923100
5.637500 1.885700
5.656500 1.868500
5.675500 1.883600
5.694500 1.912200
5.713600 1.949700
5.732600 1.973200
5.751600 2.012100
5.770600 2.078200
5.789600 2.053300
5.808700 1.988300
5.827700 1.925500
5.846700 1.892900
5.865700 1.901600
5.884700 1.923500
5.903800 1.944300
5.922800 1.955400
5.941800 1.972100
5.960800 1.993800
5.979800 2.038700
5.998900 2.105100
6.017900 2.084700
6.036900 1.984600
6.055900 1.902300
6.074900 1.853200
6.094000 1.816500
6.113000 1.800800
6.132000 1.724300
6.151000 1.638600
6.170000 1.578700
6.189100 1.521300
6.208100 1.465800
6.227100 1.412900
6.246100 1.363100
6.265200 1.315200
6.284200 1.269000
6.303200 1.224300
6.322200 1.180800
6.341200 1.139800
6.360300 1.099800
6.379300 1.057600
6.398300 1.036300
6.417300 0.986200
6.436300 0.934600
6.455400 0.895300
6.474400 0.867000
6.493400 0.849000
6.512400 0.837400
6.531400 0.832300
6.550500 0.822500
6.569500 0.808100
6.588500 0.827100
6.607500 0.858700
6.626500 0.878600
6.645600 0.907200
6.664600 0.936800
6.683600 0.980400
6.702600 1.073800
6.721600 1.150500
6.740700 1.199300
6.759700 1.219900
6.778700 1.243500
6.797700 1.280700
6.816700 1.319300
6.835800 1.370300
6.854800 1.449100
6.873800 1.549700
6.892800 1.644500
6.911800 1.706900
6.930900 1.742000
6.949900 1.761900
6.968900 1.763800
6.987900 1.816300
7.006900 1.962000
7.026000 2.073400
7.045000 2.168600
7.064000 2.288100
7.083000 2.391400
7.102000 2.486100
7.121100 2.512400
7.140100 2.473300
7.159100 2.174500
7.178100 2.046500
7.197200 1.922600
7.216200 1.792000
7.235200 1.658700
7.254200 1.558900
7.273200 1.447900
7.292300 1.399700
7.311300 1.390800
7.330300 1.363600
7.349300 1.339600
7.368300 1.318800
7.387400 1.299900
7.406400 1.282200
7.425400 1.266000
7.444400 1.251300
7.463400 1.238400
7.482500 1.228500
7.501500 1.225400
7.520500 1.223500
7.539500 1.230100
7.558500 1.243500
7.577600 1.261400
7.596600 1.280900
7.615600 1.305000
7.634600 1.334900
7.653600 1.402700
7.672700 1.447600
7.691700 1.448600
7.710700 1.385700
7.729700 1.367700
7.748700 1.382100
7.767800 1.397800
7.786800 1.423500
7.805800 1.461200
7.824800 1.490500
7.843800 1.521000
7.862900 1.549800
7.881900 1.577100
7.900900 1.602800
7.919900 1.628100
7.938900 1.655300
7.958000 1.701200
7.977000 1.761100
7.996000 1.832500
8.015000 1.891200
8.034100 1.936300
8.053100 1.937900
8.072100 1.896000
8.091100 1.865100
8.110100 1.833200
8.129200 1.786500
8.148200 1.662200
8.167200 1.656700
8.186200 1.647200
8.205200 1.656400
8.224300 1.685500
8.243300 1.719100
8.262300 1.755400
8.281300 1.792200
8.300300 1.818200
8.319400 1.801600
8.338400 1.747100
8.357400 1.720100
8.376400 1.745100
8.395400 1.819600
8.414500 1.900400
8.433500 1.943000
8.452500 1.913200
8.471500 1.873500
8.490500 1.809400
8.509600 1.740600
8.528600 1.671100
8.547600 1.871700
8.566600 1.642000
8.585600 1.482800
8.604700 1.381400
8.623700 1.344500
8.642700 1.316400
8.661700 1.297700
8.680700 1.289600
8.699800 1.276100
8.718800 1.258500
8.737800 1.219700
8.756800 1.197200
8.775800 1.165400
8.794900 1.148500
8.813900 1.132400
8.832900 1.117300
8.851900 1.104200
8.870900 1.091600
8.890000 1.079000
8.909000 1.066400
8.928000 1.053800
8.947000 1.040900
8.966100 1.027800
8.985100 1.014000
9.004100 0.999700
9.023100 0.966500
9.042100 0.933300
9.061200 0.896700
9.080200 0.885500
9.099200 0.840800
9.118200 0.809300
9.137200 0.784500
9.156300 0.764000
9.175300 0.740100
9.194300 0.714900
9.213300 0.689600
9.232300 0.664400
9.251400 0.639200
9.270400 0.613100
9.289400 0.589400
9.308400 0.569700
9.327400 0.572400
9.346500 0.579800
9.365500 0.591100
9.384500 0.604500
9.403500 0.620700
9.422500 0.645100
9.441600 0.724600
9.460600 0.709200
9.479600 0.703500
9.498600 0.698500
9.517600 0.695700
9.536700 0.692600
9.555700 0.688800
9.574700 0.681500
9.593700 0.673200
9.612700 0.664400
9.631800 0.655200
9.650800 0.647800
9.669800 0.641700
9.688800 0.637100
9.707800 0.634000
9.726900 0.632500
9.745900 0.634400
9.764900 0.636900
9.783900 0.641200
9.803000 0.647000
9.822000 0.654200
9.841000 0.663400
9.860000 0.678600
9.879000 0.702600
9.898100 0.727100
9.917100 0.759100
9.936100 0.793300
9.955100 0.820300
9.974100 0.872200
9.993200 0.894400
10.012200 0.908500
10.031200 0.920600
10.050200 0.930800
10.069200 0.939100
10.088300 0.931600
10.107300 0.940500
10.126300 0.949400
10.145300 0.958400
10.164300 0.968800
10.183400 0.981700
10.202400 0.997500
10.221400 1.016000
10.240400 1.038300
10.259400 1.062200
10.278500 1.087100
10.297500 1.112500
10.316500 1.137700
10.335500 1.164700
10.354500 1.196000
10.373600 1.235300
10.392600 1.282800
10.411600 1.338400
10.430600 1.388200
10.449600 1.430400
10.468700 1.475800
10.487700 1.524900
10.506700 1.575500
10.525700 1.626900
10.544700 1.679300
10.563800 1.733000
10.582800 1.797400
10.601800 1.903200
10.620800 1.984900
10.639800 2.059500
10.658900 2.136300
10.677900 2.183900
10.696900 2.177600
10.715900 2.181400
10.735000 2.110800
10.754000 2.040300
10.773000 1.981100
10.792000 1.942300
10.811000 1.922300
10.830100 1.920500
10.849100 1.925500
10.868100 1.938500
10.887100 1.978200
10.906100 2.018300
10.925200 2.055500
10.944200 2.093900
10.963200 1.972600
10.982200 1.954200
11.001200 1.936200
11.020300 1.956900
11.039300 1.932700
11.058300 1.906300
11.077300 1.883300
11.096300 1.862700
11.115400 1.848600
11.134400 1.821100
11.153400 1.805300
11.172400 1.796500
11.191400 1.787800
11.210500 1.779800
11.229500 1.771200
11.248500 1.758900
11.267500 1.744100
11.286500 1.723200
11.305600 1.695400
11.324600 1.650500
11.343600 1.617600
11.362600 1.605800
11.381600 1.556100
11.400700 1.525600
11.419700 1.502100
11.438700 1.483700
11.457700 1.469200
11.476700 1.460100
11.495800 1.476600
11.514800 1.509200
11.533800 1.538000
11.552800 1.556500
11.571900 1.550400
11.590900 1.560900
11.609900 1.556200
11.628900 1.536200
11.647900 1.526900
11.667000 1.522400
11.686000 1.519100
11.705000 1.545000
11.724000 1.538200
11.743000 1.523000
11.762100 1.485200
11.781100 1.466800
11.800100 1.457900
11.819100 1.450300
11.838100 1.446200
11.857200 1.454900
11.876200 1.451200
11.895200 1.443600
11.914200 1.451600
11.933200 1.492700
11.952300 1.611900
11.971300 1.705300
11.990300 1.750400
12.009300 1.769900
12.028300 1.761000
12.047400 1.693500
12.066400 1.664800
12.085400 1.636300
12.104400 1.619000
12.123400 1.606100
12.142500 1.569300
12.161500 1.535200
12.180500 1.505700
12.199500 1.464000
12.218500 1.427300
12.237600 1.412100
12.256600 1.398500
12.275600 1.383100
12.294600 1.361700
12.313600 1.336600
12.332700 1.314800
12.351700 1.295600
12.370700 1.278000
12.389700 1.260100
12.408700 1.248600
12.427800 1.240500
12.446800 1.233700
12.465800 1.229400
12.484800 1.227000
12.503900 1.226300
12.522900 1.249600
12.541900 1.267400
12.560900 1.287900
12.579900 1.323000
12.599000 1.371400
12.618000 1.424600
12.637000 1.481600
12.656000 1.545600
12.675000 1.608200
12.694100 1.671400
12.713100 1.734400
12.732100 1.785500
12.751100 1.767100
12.770100 1.748600
12.789200 1.738200
12.808200 1.744300
12.827200 1.744900
12.846200 1.748700
12.865200 1.754700
12.884300 1.761400
12.903300 1.768800
12.922300 1.776900
12.941300 1.785800
12.960300 1.795700
12.979400 1.824500
12.998400 1.838200
13.017400 1.851200
13.036400 1.860200
13.055400 1.857800
13.074500 1.852100
13.093500 1.847200
13.112500 1.840500
13.131500 1.816800
13.150500 1.821100
13.169600 1.842400
13.188600 1.860700
13.207600 1.896100
13.226600 1.918500
13.245600 1.940000
13.264700 1.960000
13.283700 1.983700
13.302700 2.002600
13.321700 2.005700
13.340800 1.980500
13.359800 1.974700
13.378800 2.055600
13.397800 1.938400
13.416800 1.813100
13.435900 1.737900
13.454900 1.620800
13.473900 1.481500
13.492900 1.387400
13.511900 1.322300
13.531000 1.279500
13.550000 1.262100
13.569000 1.238800
13.588000 1.221000
13.607000 1.194700
13.626100 1.193600
13.645100 1.200500
13.664100 1.209400
13.683100 1.226200
13.702100 1.249300
13.721200 1.280600
13.740200 1.333600
13.759200 1.415400
13.778200 1.460000
13.797200 1.596400
13.816300 1.608200
13.835300 1.599700
13.854300 1.626800
13.873300 1.639800
13.892300 1.645600
13.911400 1.667500
13.930400 1.705500
13.949400 1.738400
13.968400 1.778100
13.987400 1.823500
14.006500 1.863000
14.025500 1.881400
14.044500 1.896100
14.063500 2.013000
14.082500 2.116000
14.101600 2.119800
14.120600 2.022200
14.139600 2.023800
14.158600 2.028800
14.177600 2.037900
14.196700 2.063300
14.215700 2.035100
14.234700 2.071700
14.253700 2.116300
14.272800 2.155500
14.291800 2.165300
14.310800 2.214400
14.329800 2.265500
14.348800 2.315900
14.367900 2.375600
14.386900 2.439000
14.405900 2.470500
14.424900 2.400200
14.443900 2.375700
14.463000 2.337400
14.482000 2.300900
14.501000 2.273900
14.520000 2.254100
14.539000 2.243200
14.558100 2.269800
14.577100 2.316600
14.596100 2.281400
14.615100 2.280000
14.634100 2.247200
14.653200 2.333700
14.672200 2.337300
14.691200 2.374600
14.710200 2.390800
14.729200 2.398500
14.748300 2.354600
14.767300 2.269600
14.786300 2.150600
14.805300 2.060000
14.824300 1.987100
14.843400 1.925700
14.862400 1.910600
14.881400 1.918400
14.900400 1.968800
14.919400 2.007900
14.938500 2.048600
14.957500 2.090300
14.976500 2.132300
14.995500 2.314700
15.014500 2.166400
15.033600 2.194300
15.052600 2.218600
15.071600 2.236200
15.090600 2.254200
15.109600 2.270900
15.128700 2.264700
15.147700 2.267800
15.166700 2.268300
15.185700 2.260900
15.204800 2.256500
15.223800 2.260500
15.242800 2.270100
15.261800 2.306600
15.280800 2.308900
15.299900 2.310100
15.318900 2.249300
15.337900 2.125100
15.356900 2.055600
15.375900 1.994900
15.395000 1.950100
15.414000 1.891700
15.433000 1.831700
15.452000 1.798700
15.471000 1.779500
15.490100 1.768800
15.509100 1.760400
15.528100 1.760600
15.547100 1.763100
15.566100 1.757400
15.585200 1.762400
15.604200 1.767800
15.623200 1.772800
15.642200 1.777200
15.661200 1.779000
15.680300 1.792400
15.699300 1.807200
15.718300 1.808700
15.737300 1.844000
15.756300 1.867600
15.775400 1.888300
15.794400 1.910100
15.813400 1.940600
15.832400 1.992800
15.851400 2.054900
15.870500 2.109400
15.889500 2.144200
15.908500 2.181800
15.927500 2.222800
15.946500 2.251400
15.965600 2.266600
15.984600 2.284400
16.003600 2.291200
16.022600 2.297000
16.041700 2.303700
16.060700 2.310200
16.079700 2.319100
16.098700 2.329100
16.117700 2.375000
16.136800 2.385000
16.155800 2.398700
16.174800 2.415900
16.193800 2.456900
16.212800 2.484400
16.231900 2.488100
16.250900 2.478000
16.269900 2.401400
16.288900 2.361400
16.307900 2.338200
16.327000 2.314500
16.346000 2.291600
16.365000 2.244900
16.384000 2.198200
16.403000 2.173300
16.422100 2.158300
16.441100 2.140200
16.460100 2.128300
16.479100 2.122300
16.498100 2.125200
16.517200 2.088200
16.536200 2.028300
16.555200 1.998000
16.574200 1.982800
16.593200 2.045900
16.612300 2.333800
16.631300 2.113200
16.650300 2.051000
16.669300 2.025900
16.688300 2.037500
16.707400 2.055000
16.726400 2.111900
16.745400 2.219200
16.764400 2.333700
16.783400 2.418700
16.802500 2.481300
16.821500 2.562100
16.840500 2.677300
16.859500 2.800100
16.878500 2.911400
16.897600 2.908400
16.916600 2.981600
16.935600 3.057400
16.954600 3.146100
16.973700 3.234700
16.992700 3.294400
17.011700 3.203100
17.030700 3.153400
17.049700 3.124700
17.068800 3.111700
17.087800 3.110200
17.106800 3.103400
17.125800 3.107700
17.144800 3.136800
17.163900 3.317300
17.182900 3.239300
17.201900 3.266000
17.220900 3.290600
17.239900 3.156900
17.259000 3.128600
17.278000 3.059400
17.297000 3.035900
17.316000 3.052300
17.335000 2.972500
17.354100 2.940900
17.373100 2.906400
17.392100 2.817200
17.411100 2.708100
17.430100 2.631200
17.449200 2.573000
17.468200 2.514300
17.487200 2.472600
17.506200 2.396400
17.525200 2.350900
17.544300 2.328200
17.563300 2.314400
17.582300 2.303800
17.601300 2.275500
17.620300 2.268300
17.639400 2.263600
17.658400 2.261300
17.677400 2.261200
17.696400 2.261400
17.715400 2.263800
17.734500 2.279000
17.753500 2.313400
17.772500 2.302400
17.791500 2.303500
17.810600 2.304900
17.829600 2.304800
17.848600 2.296800
17.867600 2.284900
17.886600 2.268900
17.905700 2.250200
17.924700 2.230900
17.943700 2.225900
17.962700 2.227000
17.981700 2.228700
18.000800 2.232400
18.019800 2.213700
18.038800 2.212600
18.057800 2.222500
18.076800 2.246200
18.095900 2.277900
18.114900 2.315600
18.133900 2.350100
18.152900 2.400400
18.171900 2.453400
18.191000 2.501900
18.210000 2.548500
18.229000 2.523900
18.248000 2.481400
18.267000 2.440600
18.286100 2.416600
18.305100 2.404800
18.324100 2.394000
18.343100 2.386700
18.362100 2.390500
18.381200 2.390400
18.400200 2.386000
18.419200 2.393800
18.438200 2.401700
18.457200 2.409300
18.476300 2.410700
18.495300 2.388400
18.514300 2.366400
18.533300 2.345900
18.552300 2.344800
18.571400 2.335700
18.590400 2.328600
18.609400 2.330800
18.628400 2.337200
18.647400 2.343900
18.666500 2.348500
18.685500 2.351000
18.704500 2.353400
18.723500 2.366400
18.742600 2.375900
18.761600 2.402600
18.780600 2.405900
18.799600 2.460000
18.818600 2.519400
18.837700 2.342400
18.856700 2.290600
18.875700 2.298000
18.894700 2.278100
18.913700 2.262000
18.932800 2.248700
18.951800 2.293700
18.970800 2.274700
18.989800 2.256100
19.008800 2.230300
19.027900 2.210200
19.046900 2.195300
19.065900 2.189800
19.084900 2.205500
19.103900 2.214300
19.123000 2.224100
19.142000 2.230700
19.161000 2.233800
19.180000 2.233300
19.199000 2.232500
19.218100 2.234000
19.237100 2.232200
19.256100 2.227700
19.275100 2.297200
19.294100 2.316700
19.313200 2.326100
19.332200 2.364000
19.351200 2.413600
19.370200 2.472200
19.389200 2.512500
19.408300 2.535100
19.427300 2.515500
19.446300 2.508100
19.465300 2.470200
19.484300 2.424700
19.503400 2.417100
19.522400 2.455400
19.541400 2.502200
19.560400 2.519800
19.579500 2.528200
19.598500 2.527600
19.617500 2.526800
19.636500 2.526200
19.655500 2.510400
19.674600 2.497900
19.693600 2.483700
19.712600 2.464500
19.731600 2.452500
19.750600 2.434000
19.769700 2.435100
19.788700 2.444500
19.807700 2.452400
19.826700 2.458900
19.845700 2.445000
19.864800 2.430700
19.883800 2.432300
19.902800 2.439200
19.921800 2.455900
19.940800 2.416500
19.959900 2.334900
19.978900 2.320100
19.997900 2.327200
20.016900 2.341000
20.035900 2.357500
20.055000 2.373400
20.074000 2.381100
20.093000 2.448700
20.112000 2.556000
20.131000 2.614600
20.150100 2.580300
20.169100 2.487900
20.188100 2.353300
20.207100 2.218600
20.226100 2.130500
20.245200 2.146600
20.264200 2.146300
20.283200 2.142000
20.302200 2.133700
20.321200 2.122800
20.340300 2.106600
20.359300 2.096000
20.378300 2.093800
20.397300 2.097400
20.416300 2.104400
20.435400 2.121300
20.454400 2.094400
20.473400 2.065500
20.492400 2.034700
20.511500 2.001000
20.530500 1.965200
20.549500 2.006200
20.568500 2.059000
20.587500 1.979200
20.606600 1.962000
20.625600 1.974900
20.644600 1.987700
20.663600 2.005700
20.682600 2.018600
20.701700 2.034300
20.720700 2.052500
20.739700 2.071200
20.758700 2.096700
20.777700 2.142100
20.796800 2.154100
20.815800 2.230500
20.834800 2.254800
20.853800 2.289300
20.872800 2.313900
20.891900 2.391800
20.910900 2.399300
20.929900 2.402600
20.948900 2.401500
20.967900 2.398900
20.987000 2.396300
21.006000 2.393100
21.025000 2.390300
21.044000 2.384000
21.063000 2.509600
21.082100 2.502800
21.101100 2.486800
21.120100 2.464300
21.139100 2.435800
21.158100 2.393300
21.177200 2.401000
21.196200 2.348400
21.215200 2.303800
21.234200 2.267800
21.253200 2.237600
21.272300 2.209400
21.291300 2.188600
21.310300 2.171300
21.329300 2.145100
21.348400 2.073600
21.367400 2.049600
21.386400 2.060600
21.405400 2.058300
21.424400 2.056300
21.443500 2.062700
21.462500 2.089200
21.481500 2.160300
21.500500 2.272900
21.519500 2.409300
21.538600 2.534800
21.557600 2.485000
21.576600 2.474400
21.595600 2.500100
21.614600 2.514400
21.633700 2.504200
21.652700 2.486500
21.671700 2.505700
21.690700 2.522100
21.709700 2.528300
21.728800 2.538900
21.747800 2.557000
21.766800 2.584500
21.785800 2.619800
21.804800 2.664400
21.823900 2.718000
21.842900 2.776800
21.861900 2.830300
21.880900 3.087300
21.899900 2.969400
21.919000 2.898100
21.938000 2.886900
21.957000 2.877900
21.976000 2.911000
21.995000 2.953200
22.014100 2.985800
22.033100 3.014900
22.052100 3.061200
22.071100 3.111800
22.090100 3.166100
22.109200 3.269500
22.128200 3.416900
22.147200 3.625600
22.166200 3.805800
22.185200 3.990600
22.204300 3.636200
22.223300 3.087500
22.242300 2.864900
22.261300 2.743500
22.280400 2.814500
22.299400 2.791800
22.318400 2.762100
22.337400 2.757200
22.356400 2.752800
22.375500 2.762600
22.394500 2.759900
22.413500 2.831200
22.432500 3.024000
22.451500 3.018100
22.470600 3.158100
22.489600 3.308700
22.508600 3.452900
22.527600 3.485800
22.546600 3.613100
22.565700 3.499800
22.584700 3.359300
22.603700 3.252500
22.622700 3.129100
22.641700 2.981300
22.660800 2.758400
22.679800 2.600300
22.698800 2.541300
22.717800 2.564600
22.736800 2.595100
22.755900 2.671700
22.774900 2.707100
22.793900 2.781900
22.812900 2.809400
22.831900 2.800700
22.851000 2.841900
22.870000 2.943900
22.889000 3.100000
22.908000 3.309300
22.927000 3.657500
22.946100 3.450600
22.965100 3.304400
22.984100 3.174100
23.003100 3.064000
23.022100 2.983200
23.041200 2.851500
23.060200 2.680200
23.079200 2.551500
23.098200 2.433800
23.117300 2.329200
23.136300 2.230800
23.155300 2.131400
23.174300 2.038500
23.193300 1.950100
23.212400 1.965700
23.231400 1.910800
23.250400 1.861900
23.269400 1.840300
23.288400 1.831300
23.307500 1.823300
23.326500 1.803200
23.345500 1.818800
23.364500 1.864700
23.383500 1.931200
23.402600 2.075000
23.421600 2.241000
23.440600 2.403600
23.459600 2.434300
23.478600 2.398700
23.497700 2.472500
23.516700 2.611900
23.535700 2.925600
23.554700 3.257500
23.573700 3.373900
23.592800 3.351100
23.611800 3.309300
23.630800 3.275000
23.649800 3.187000
23.668800 3.165400
23.687900 3.157300
23.706900 3.152100
23.725900 3.241500
23.744900 3.124700
23.763900 3.035400
23.783000 3.052100
23.802000 3.135200
23.821000 3.157500
23.840000 3.071800
23.859000 3.003200
23.878100 2.948900
23.897100 2.978800
23.916100 3.115700
23.935100 3.123200
23.954100 3.083100
23.973200 3.102600
23.992200 3.134800
24.011200 3.137300
24.030200 3.139400
24.049300 3.053600
24.068300 3.060700
24.087300 3.064200
24.106300 3.073100
24.125300 3.087900
24.144400 3.108000
24.163400 3.112500
24.182400 3.084900
24.201400 3.038600
24.220400 3.080600
24.239500 3.057500
24.258500 3.019800
24.277500 2.980100
24.296500 3.001900
24.315500 3.035500
24.334600 3.013000
24.353600 2.987700
24.372600 2.934900
24.391600 2.885400
24.410600 2.864700
24.429700 2.861800
24.448700 2.855700
24.467700 2.831300
24.486700 2.786200
24.505700 2.743300
24.524800 2.709800
24.543800 2.679100
24.562800 2.603900
24.581800 2.586900
24.600800 2.573800
24.619900 2.571300
24.638900 2.572100
24.657900 2.571300
24.676900 2.588700
24.695900 2.693600
24.715000 2.631600
24.734000 2.731200
24.753000 2.678300
24.772000 2.694900
24.791000 2.753700
24.810100 2.827400
24.829100 2.912600
24.848100 3.005500
24.867100 2.997400
24.886200 3.019100
24.905200 2.940000
24.924200 2.893000
24.943200 2.885200
24.962200 2.875800
24.981300 2.869000
25.000300 2.867700
25.019300 2.859500
25.038300 2.852500
25.057300 2.854800
25.076400 2.880500
25.095400 2.879500
25.114400 2.883600
25.133400 2.931700
25.152400 2.980200
25.171500 3.050700
25.190500 3.126300
25.209500 3.179200
25.228500 3.259400
25.247500 3.318900
25.266600 3.338700
25.285600 3.363900
25.304600 3.453700
25.323600 3.509100
25.342600 3.546500
25.361700 3.557000
25.380700 3.581600
25.399700 3.691000
25.418700 3.657000
25.437700 3.626900
25.456800 3.602600
25.475800 3.598400
25.494800 3.611000
25.513800 3.677400
25.532800 3.644400
25.551900 3.589900
25.570900 3.531800
25.589900 3.461900
25.608900 3.433200
25.627900 3.427300
25.647000 3.330900
25.666000 3.297700
25.685000 3.289000
25.704000 3.296700
25.723000 3.296000
25.742100 3.293400
25.761100 3.280600
25.780100 3.270500
25.799100 3.292600
25.818200 3.271200
25.837200 3.248400
25.856200 3.212100
25.875200 3.157500
25.894200 3.101700
25.913300 3.047600
25.932300 2.986500
25.951300 2.998500
25.970300 2.944700
25.989300 2.913000
26.008400 2.923800
26.027400 2.953300
26.046400 3.000500
26.065400 3.162800
26.084400 3.261900
26.103500 3.350500
26.122500 3.462600
26.141500 3.599500
26.160500 3.778000
26.179500 3.991900
26.198600 4.282800
26.217600 4.623700
26.236600 5.279500
26.255600 6.097200
26.274600 7.801900
26.293700 11.093300
26.312700 12.138900
26.331700 13.482100
26.350700 19.190300
26.369700 28.554700
26.388800 54.943200
26.407800 86.194000
26.426800 44.209700
26.445800 11.692400
26.464800 3.155100
26.483900 0.801300
26.502900 0.351900
26.521900 0.123900
26.540900 0.005800
26.559900 0.000000
26.579000 0.000000
26.598000 0.000000
26.617000 0.000000
26.636000 0.000000
26.655000 0.000000
26.674100 0.000000
26.693100 0.000000
26.712100 0.000000
26.731100 0.000000
26.750200 0.000000
26.769200 0.000000
26.788200 0.000000
26.807200 0.000000
26.826200 0.000000
26.845300 0.000000
26.864300 0.000000
26.883300 0.000000
26.902300 0.000000
26.921300 0.000000
26.940400 0.000000
26.959400 0.000000
26.978400 0.000000
26.997400 0.000000
27.016400 0.000000
27.035500 0.000000
27.054500 0.000000
27.073500 0.000000
27.092500 0.000000
27.111500 0.000000
27.130600 0.000000
27.149600 0.000000
27.168600 0.000000
27.187600 0.000000
27.206600 0.000000
27.225700 0.000000
27.244700 0.000000
27.263700 0.000000
27.282700 0.000000
27.301700 0.000000
27.320800 0.000000
27.339800 0.000000
27.358800 0.000000
27.377800 0.000000
27.396800 0.000000
27.415900 0.000000
27.434900 0.000000
27.453900 0.000000
27.472900 0.000000
27.491900 0.000000
27.511000 0.000000
27.530000 0.000000
27.549000 0.000000
27.568000 0.000000
27.587100 0.000000
27.606100 0.000000
27.625100 0.000000
27.644100 0.000000
27.663100 0.000000
27.682200 0.000000
27.701200 0.000000
27.720200 0.000000
27.739200 0.000000
27.758200 0.000000
27.777300 0.000000
27.796300 0.000000
27.815300 0.000000
27.834300 0.000000
27.853300 0.000000
27.872400 0.000000
27.891400 0.000000
27.910400 0.000000
27.929400 0.000000
27.948400 0.000000
27.967500 0.000000
27.986500 0.000000
28.005500 0.000000
28.024500 0.000000
28.043500 0.000000
28.062600 0.000000
28.081600 0.000000
28.100600 0.000000
28.119600 0.000000
28.138600 0.000000
28.157700 0.000000
28.176700 0.000000
28.195700 0.000000
28.214700 0.000000
28.233700 0.000000
28.252800 0.000000
28.271800 0.000000
e
