set title 'mp-10021 - Density of States'
set xlabel 'Energy (eV)'
set ylabel 'DOS (states/eV)'
set grid
set xrange [-10:10]
set yrange [0:1.207]
set xzeroaxis lt -1
set terminal png size 800,600
set output 'mp-10021_dos_gnuplot.png'
plot '-' using 1:2 with lines title 'DOS'
-13.695200 0.000000
-13.673900 0.000000
-13.652700 0.000000
-13.631400 0.000000
-13.610100 0.000000
-13.588800 0.000000
-13.567500 0.000000
-13.546200 0.000000
-13.524900 0.000000
-13.503600 0.000000
-13.482300 0.000000
-13.461000 0.000000
-13.439700 0.000000
-13.418400 0.000000
-13.397100 0.000000
-13.375800 0.000000
-13.354500 0.000000
-13.333200 0.000000
-13.311900 0.000000
-13.290600 0.000000
-13.269300 0.000000
-13.248100 0.000000
-13.226800 0.000000
-13.205500 0.000000
-13.184200 0.000000
-13.162900 0.000000
-13.141600 0.000000
-13.120300 0.000000
-13.099000 0.000000
-13.077700 0.000000
-13.056400 0.000000
-13.035100 0.000000
-13.013800 0.000000
-12.992500 0.000000
-12.971200 0.000000
-12.949900 0.000000
-12.928600 0.000000
-12.907300 0.000000
-12.886000 0.000000
-12.864700 0.000000
-12.843400 0.000000
-12.822200 0.000000
-12.800900 0.000000
-12.779600 0.000000
-12.758300 0.000000
-12.737000 0.000000
-12.715700 0.000000
-12.694400 0.000000
-12.673100 0.000000
-12.651800 0.000000
-12.630500 0.000000
-12.609200 0.000000
-12.587900 0.000000
-12.566600 0.000000
-12.545300 0.000000
-12.524000 0.000000
-12.502700 0.000000
-12.481400 0.000000
-12.460100 0.000000
-12.438800 0.000000
-12.417600 0.000000
-12.396300 0.000000
-12.375000 0.000000
-12.353700 0.000000
-12.332400 0.000000
-12.311100 0.000000
-12.289800 0.000000
-12.268500 0.000000
-12.247200 0.000000
-12.225900 0.000000
-12.204600 0.000000
-12.183300 0.000000
-12.162000 0.000000
-12.140700 0.000000
-12.119400 0.000000
-12.098100 0.000000
-12.076800 0.000000
-12.055500 0.000000
-12.034200 0.000000
-12.013000 0.000000
-11.991700 0.000000
-11.970400 0.000000
-11.949100 0.000000
-11.927800 0.000000
-11.906500 0.000000
-11.885200 0.000000
-11.863900 0.000000
-11.842600 0.000000
-11.821300 0.000000
-11.800000 0.000000
-11.778700 0.000000
-11.757400 0.324200
-11.736100 2.300300
-11.714800 4.095200
-11.693500 7.465500
-11.672200 16.028900
-11.650900 30.691700
-11.629600 51.802500
-11.608300 40.935000
-11.587100 45.355100
-11.565800 55.689700
-11.544500 58.469000
-11.523200 39.048200
-11.501900 40.083700
-11.480600 21.371900
-11.459300 43.888800
-11.438000 67.939000
-11.416700 70.743300
-11.395400 56.048300
-11.374100 62.109700
-11.352800 44.453900
-11.331500 52.099000
-11.310200 47.016200
-11.288900 39.551300
-11.267600 14.627600
-11.246300 10.270000
-11.225000 13.522600
-11.203700 0.000000
-11.182500 0.000000
-11.161200 0.000000
-11.139900 0.000000
-11.118600 0.000000
-11.097300 0.000000
-11.076000 0.000000
-11.054700 0.000000
-11.033400 0.000000
-11.012100 0.000000
-10.990800 0.000000
-10.969500 0.000000
-10.948200 0.000000
-10.926900 0.000000
-10.905600 0.000000
-10.884300 0.000000
-10.863000 0.000000
-10.841700 0.000000
-10.820400 0.000000
-10.799100 0.000000
-10.777900 0.000000
-10.756600 0.000000
-10.735300 0.000000
-10.714000 0.000000
-10.692700 0.000000
-10.671400 0.000000
-10.650100 0.000000
-10.628800 0.000000
-10.607500 0.000000
-10.586200 0.000000
-10.564900 0.000000
-10.543600 0.000000
-10.522300 0.000000
-10.501000 0.000000
-10.479700 0.000000
-10.458400 0.000000
-10.437100 0.000000
-10.415800 0.000000
-10.394500 0.000000
-10.373200 0.000000
-10.352000 0.000000
-10.330700 0.000000
-10.309400 0.000000
-10.288100 0.000000
-10.266800 0.000000
-10.245500 0.000000
-10.224200 0.000000
-10.202900 0.000000
-10.181600 0.000000
-10.160300 0.000000
-10.139000 0.000000
-10.117700 0.000000
-10.096400 0.000000
-10.075100 0.000000
-10.053800 0.000000
-10.032500 0.000000
-10.011200 0.000000
-9.989900 0.000000
-9.968600 0.000000
-9.947400 0.000000
-9.926100 0.000000
-9.904800 0.000000
-9.883500 0.000000
-9.862200 0.000000
-9.840900 0.000000
-9.819600 0.000000
-9.798300 0.000000
-9.777000 0.000000
-9.755700 0.000000
-9.734400 0.000000
-9.713100 0.000000
-9.691800 0.000000
-9.670500 0.000000
-9.649200 0.000000
-9.627900 0.000000
-9.606600 0.000000
-9.585300 0.000000
-9.564000 0.000000
-9.542800 0.000000
-9.521500 0.000000
-9.500200 0.000000
-9.478900 0.000000
-9.457600 0.000000
-9.436300 0.000000
-9.415000 0.000000
-9.393700 0.000000
-9.372400 0.000000
-9.351100 0.000000
-9.329800 0.000000
-9.308500 0.000000
-9.287200 0.000000
-9.265900 0.000000
-9.244600 0.000000
-9.223300 0.000000
-9.202000 0.000000
-9.180700 0.000000
-9.159400 0.000000
-9.138100 0.000000
-9.116900 0.000000
-9.095600 0.000000
-9.074300 0.000000
-9.053000 0.000000
-9.031700 0.000000
-9.010400 0.000000
-8.989100 0.000000
-8.967800 0.000000
-8.946500 0.000000
-8.925200 0.000000
-8.903900 0.000000
-8.882600 0.000000
-8.861300 0.000000
-8.840000 0.000000
-8.818700 0.000000
-8.797400 0.000000
-8.776100 0.000000
-8.754800 0.000000
-8.733500 0.000000
-8.712300 0.000000
-8.691000 0.000000
-8.669700 0.000000
-8.648400 0.000000
-8.627100 0.000000
-8.605800 0.000000
-8.584500 0.000000
-8.563200 0.000000
-8.541900 0.000000
-8.520600 0.000000
-8.499300 0.000000
-8.478000 0.000000
-8.456700 0.000000
-8.435400 0.000000
-8.414100 0.000000
-8.392800 0.000000
-8.371500 0.000000
-8.350200 0.000000
-8.328900 0.000000
-8.307600 0.000000
-8.286400 0.000000
-8.265100 0.000000
-8.243800 0.000000
-8.222500 0.000000
-8.201200 0.000000
-8.179900 0.000000
-8.158600 0.000000
-8.137300 0.000000
-8.116000 0.000000
-8.094700 0.000000
-8.073400 0.000000
-8.052100 0.000000
-8.030800 0.000000
-8.009500 0.000000
-7.988200 0.000000
-7.966900 0.000000
-7.945600 0.000000
-7.924300 0.000000
-7.903000 0.000000
-7.881800 0.000000
-7.860500 0.000000
-7.839200 0.000000
-7.817900 0.000000
-7.796600 0.000000
-7.775300 0.000000
-7.754000 0.000000
-7.732700 0.000000
-7.711400 0.000000
-7.690100 0.000000
-7.668800 0.000000
-7.647500 0.000000
-7.626200 0.000000
-7.604900 0.000000
-7.583600 0.003000
-7.562300 0.023800
-7.541000 0.053800
-7.519700 0.063100
-7.498400 0.067100
-7.477200 0.077600
-7.455900 0.088500
-7.434600 0.099600
-7.413300 0.106900
-7.392000 0.109900
-7.370700 0.114500
-7.349400 0.120100
-7.328100 0.125800
-7.306800 0.131100
-7.285500 0.136600
-7.264200 0.142600
-7.242900 0.149000
-7.221600 0.154500
-7.200300 0.158000
-7.179000 0.160800
-7.157700 0.164400
-7.136400 0.168400
-7.115100 0.172100
-7.093800 0.175600
-7.072500 0.179100
-7.051300 0.183000
-7.030000 0.187100
-7.008700 0.191500
-6.987400 0.195900
-6.966100 0.200300
-6.944800 0.204100
-6.923500 0.207200
-6.902200 0.209800
-6.880900 0.212500
-6.859600 0.215200
-6.838300 0.217800
-6.817000 0.220600
-6.795700 0.223400
-6.774400 0.226300
-6.753100 0.229400
-6.731800 0.232500
-6.710500 0.235800
-6.689200 0.239100
-6.667900 0.242500
-6.646700 0.245900
-6.625400 0.249200
-6.604100 0.252300
-6.582800 0.255200
-6.561500 0.257800
-6.540200 0.259900
-6.518900 0.262200
-6.497600 0.264500
-6.476300 0.266900
-6.455000 0.269400
-6.433700 0.271900
-6.412400 0.274500
-6.391100 0.277200
-6.369800 0.279800
-6.348500 0.282600
-6.327200 0.285300
-6.305900 0.288100
-6.284600 0.291000
-6.263300 0.294000
-6.242100 0.297000
-6.220800 0.300000
-6.199500 0.303000
-6.178200 0.305800
-6.156900 0.308600
-6.135600 0.311400
-6.114300 0.314700
-6.093000 0.318600
-6.071700 0.322900
-6.050400 0.330100
-6.029100 0.338200
-6.007800 0.342100
-5.986500 0.343900
-5.965200 0.345000
-5.943900 0.345500
-5.922600 0.345700
-5.901300 0.346200
-5.880000 0.346100
-5.858700 0.346000
-5.837400 0.345800
-5.816200 0.345600
-5.794900 0.345600
-5.773600 0.347400
-5.752300 0.350100
-5.731000 0.351000
-5.709700 0.350900
-5.688400 0.350300
-5.667100 0.349300
-5.645800 0.348400
-5.624500 0.348100
-5.603200 0.347900
-5.581900 0.347800
-5.560600 0.347900
-5.539300 0.348100
-5.518000 0.348500
-5.496700 0.349100
-5.475400 0.349500
-5.454100 0.349600
-5.432800 0.349400
-5.411600 0.348900
-5.390300 0.348200
-5.369000 0.347700
-5.347700 0.347700
-5.326400 0.347800
-5.305100 0.347900
-5.283800 0.348100
-5.262500 0.348400
-5.241200 0.348600
-5.219900 0.350500
-5.198600 0.358300
-5.177300 0.370700
-5.156000 0.376500
-5.134700 0.375800
-5.113400 0.377700
-5.092100 0.380600
-5.070800 0.383400
-5.049500 0.385800
-5.028200 0.387200
-5.007000 0.387900
-4.985700 0.389300
-4.964400 0.391100
-4.943100 0.393300
-4.921800 0.395700
-4.900500 0.398300
-4.879200 0.401000
-4.857900 0.403800
-4.836600 0.406500
-4.815300 0.408900
-4.794000 0.411500
-4.772700 0.414200
-4.751400 0.416200
-4.730100 0.417700
-4.708800 0.419200
-4.687500 0.420700
-4.666200 0.422200
-4.644900 0.423600
-4.623600 0.425000
-4.602300 0.426600
-4.581100 0.428400
-4.559800 0.430300
-4.538500 0.432200
-4.517200 0.434200
-4.495900 0.436500
-4.474600 0.438500
-4.453300 0.440200
-4.432000 0.441900
-4.410700 0.443500
-4.389400 0.445100
-4.368100 0.446600
-4.346800 0.448100
-4.325500 0.449700
-4.304200 0.451400
-4.282900 0.453200
-4.261600 0.455100
-4.240300 0.457000
-4.219000 0.458900
-4.197700 0.460800
-4.176500 0.462600
-4.155200 0.464100
-4.133900 0.465300
-4.112600 0.466800
-4.091300 0.468400
-4.070000 0.469900
-4.048700 0.471500
-4.027400 0.473200
-4.006100 0.474900
-3.984800 0.476600
-3.963500 0.478100
-3.942200 0.479600
-3.920900 0.481200
-3.899600 0.482900
-3.878300 0.484600
-3.857000 0.486200
-3.835700 0.487900
-3.814400 0.489700
-3.793100 0.491400
-3.771800 0.493200
-3.750600 0.494900
-3.729300 0.496600
-3.708000 0.498400
-3.686700 0.500200
-3.665400 0.502100
-3.644100 0.503800
-3.622800 0.505600
-3.601500 0.507300
-3.580200 0.508900
-3.558900 0.510600
-3.537600 0.512200
-3.516300 0.513800
-3.495000 0.515400
-3.473700 0.517100
-3.452400 0.518800
-3.431100 0.520600
-3.409800 0.522300
-3.388500 0.524000
-3.367200 0.525700
-3.346000 0.527700
-3.324700 0.530000
-3.303400 0.532000
-3.282100 0.533900
-3.260800 0.535800
-3.239500 0.537700
-3.218200 0.539600
-3.196900 0.541500
-3.175600 0.543500
-3.154300 0.545400
-3.133000 0.547400
-3.111700 0.549400
-3.090400 0.551400
-3.069100 0.553400
-3.047800 0.555400
-3.026500 0.557500
-3.005200 0.559600
-2.983900 0.561800
-2.962600 0.564200
-2.941400 0.566600
-2.920100 0.569200
-2.898800 0.571900
-2.877500 0.574800
-2.856200 0.577900
-2.834900 0.581200
-2.813600 0.584700
-2.792300 0.588400
-2.771000 0.592200
-2.749700 0.596300
-2.728400 0.600600
-2.707100 0.605900
-2.685800 0.613800
-2.664500 0.620700
-2.643200 0.628300
-2.621900 0.633800
-2.600600 0.637500
-2.579300 0.640800
-2.558000 0.643600
-2.536700 0.645600
-2.515500 0.647200
-2.494200 0.648400
-2.472900 0.649600
-2.451600 0.651000
-2.430300 0.652300
-2.409000 0.653700
-2.387700 0.655200
-2.366400 0.656600
-2.345100 0.665300
-2.323800 0.681700
-2.302500 0.690300
-2.281200 0.695800
-2.259900 0.704500
-2.238600 0.685900
-2.217300 0.682600
-2.196000 0.677700
-2.174700 0.672000
-2.153400 0.667200
-2.132100 0.662600
-2.110900 0.655900
-2.089600 0.648400
-2.068300 0.643900
-2.047000 0.640900
-2.025700 0.637000
-2.004400 0.630400
-1.983100 0.627300
-1.961800 0.624400
-1.940500 0.621500
-1.919200 0.618800
-1.897900 0.616300
-1.876600 0.613700
-1.855300 0.611300
-1.834000 0.608200
-1.812700 0.604700
-1.791400 0.603700
-1.770100 0.603900
-1.748800 0.604100
-1.727500 0.597200
-1.706300 0.595800
-1.685000 0.594500
-1.663700 0.593100
-1.642400 0.591600
-1.621100 0.590800
-1.599800 0.589500
-1.578500 0.585400
-1.557200 0.582700
-1.535900 0.581000
-1.514600 0.579300
-1.493300 0.577300
-1.472000 0.575500
-1.450700 0.580400
-1.429400 0.595100
-1.408100 0.605900
-1.386800 0.611000
-1.365500 0.615800
-1.344200 0.620600
-1.322900 0.624700
-1.301600 0.624100
-1.280400 0.622000
-1.259100 0.619200
-1.237800 0.614700
-1.216500 0.611800
-1.195200 0.609400
-1.173900 0.607000
-1.152600 0.604800
-1.131300 0.604000
-1.110000 0.604500
-1.088700 0.604700
-1.067400 0.603200
-1.046100 0.597600
-1.024800 0.592500
-1.003500 0.588200
-0.982200 0.584300
-0.960900 0.580900
-0.939600 0.577800
-0.918300 0.575000
-0.897000 0.573000
-0.875800 0.570800
-0.854500 0.568400
-0.833200 0.566300
-0.811900 0.563900
-0.790600 0.561500
-0.769300 0.559000
-0.748000 0.556700
-0.726700 0.554400
-0.705400 0.552200
-0.684100 0.550000
-0.662800 0.547900
-0.641500 0.547600
-0.620200 0.585400
-0.598900 0.583400
-0.577600 0.577400
-0.556300 0.575300
-0.535000 0.576200
-0.513700 0.577200
-0.492400 0.576900
-0.471200 0.576300
-0.449900 0.576100
-0.428600 0.576700
-0.407300 0.578100
-0.386000 0.579800
-0.364700 0.581700
-0.343400 0.583600
-0.322100 0.585800
-0.300800 0.586700
-0.279500 0.587200
-0.258200 0.598200
-0.236900 0.608600
-0.215600 0.619200
-0.194300 0.625500
-0.173000 0.629100
-0.151700 0.632600
-0.130400 0.637400
-0.109100 0.640000
-0.087800 0.639600
-0.066500 0.637500
-0.045300 0.636500
-0.024000 0.636500
-0.002700 0.635900
0.018600 0.635200
0.039900 0.635400
0.061200 0.636200
0.082500 0.637000
0.103800 0.637800
0.125100 0.638400
0.146400 0.639100
0.167700 0.644700
0.189000 0.648400
0.210300 0.646100
0.231600 0.639800
0.252900 0.632000
0.274200 0.625800
0.295500 0.622100
0.316800 0.620900
0.338100 0.620800
0.359300 0.621700
0.380600 0.622400
0.401900 0.622700
0.423200 0.623300
0.444500 0.624100
0.465800 0.625300
0.487100 0.626700
0.508400 0.628300
0.529700 0.630200
0.551000 0.632200
0.572300 0.634400
0.593600 0.636600
0.614900 0.637900
0.636200 0.636600
0.657500 0.636100
0.678800 0.636400
0.700100 0.637200
0.721400 0.638600
0.742700 0.640200
0.763900 0.642300
0.785200 0.644900
0.806500 0.648300
0.827800 0.652700
0.849100 0.657600
0.870400 0.662700
0.891700 0.666100
0.913000 0.669500
0.934300 0.672600
0.955600 0.674700
0.976900 0.676300
0.998200 0.679200
1.019500 0.682300
1.040800 0.685200
1.062100 0.688200
1.083400 0.691500
1.104700 0.695900
1.126000 0.701300
1.147300 0.707800
1.168600 0.713000
1.189800 0.715900
1.211100 0.720300
1.232400 0.725200
1.253700 0.730100
1.275000 0.734300
1.296300 0.739100
1.317600 0.744700
1.338900 0.750800
1.360200 0.756800
1.381500 0.762900
1.402800 0.768700
1.424100 0.775100
1.445400 0.779600
1.466700 0.784400
1.488000 0.791000
1.509300 0.798900
1.530600 0.800000
1.551900 0.791800
1.573200 0.794800
1.594400 0.795900
1.615700 0.794700
1.637000 0.790200
1.658300 0.781000
1.679600 0.772400
1.700900 0.764200
1.722200 0.756200
1.743500 0.750800
1.764800 0.748000
1.786100 0.742900
1.807400 0.734400
1.828700 0.729500
1.850000 0.728000
1.871300 0.724800
1.892600 0.721100
1.913900 0.718800
1.935200 0.717700
1.956500 0.717800
1.977800 0.727700
1.999100 0.759400
2.020300 0.786400
2.041600 0.805400
2.062900 0.827900
2.084200 0.846300
2.105500 0.858100
2.126800 0.866500
2.148100 0.870200
2.169400 0.871100
2.190700 0.873400
2.212000 0.876200
2.233300 0.860800
2.254600 0.844600
2.275900 0.833200
2.297200 0.825900
2.318500 0.820600
2.339800 0.817600
2.361100 0.815400
2.382400 0.805300
2.403700 0.797400
2.424900 0.791500
2.446200 0.787700
2.467500 0.785100
2.488800 0.782000
2.510100 0.783400
2.531400 0.786300
2.552700 0.785900
2.574000 0.784900
2.595300 0.779700
2.616600 0.770200
2.637900 0.765100
2.659200 0.758700
2.680500 0.753800
2.701800 0.750500
2.723100 0.747600
2.744400 0.748700
2.765700 0.749400
2.787000 0.742900
2.808300 0.735300
2.829500 0.729700
2.850800 0.727100
2.872100 0.723900
2.893400 0.723000
2.914700 0.724000
2.936000 0.724300
2.957300 0.728800
2.978600 0.739400
2.999900 0.765200
3.021200 0.788800
3.042500 0.797200
3.063800 0.786900
3.085100 0.782400
3.106400 0.787200
3.127700 0.791900
3.149000 0.795700
3.170300 0.798100
3.191600 0.801900
3.212900 0.807700
3.234200 0.813900
3.255400 0.809900
3.276700 0.799800
3.298000 0.795700
3.319300 0.804300
3.340600 0.792100
3.361900 0.789400
3.383200 0.788300
3.404500 0.789900
3.425800 0.792500
3.447100 0.794900
3.468400 0.798000
3.489700 0.801200
3.511000 0.796300
3.532300 0.794900
3.553600 0.791000
3.574900 0.791900
3.596200 0.791400
3.617500 0.789000
3.638800 0.784400
3.660000 0.784000
3.681300 0.787000
3.702600 0.784400
3.723900 0.780600
3.745200 0.777400
3.766500 0.774500
3.787800 0.771400
3.809100 0.769600
3.830400 0.768800
3.851700 0.769800
3.873000 0.772300
3.894300 0.776900
3.915600 0.784100
3.936900 0.793800
3.958200 0.802600
3.979500 0.809100
4.000800 0.812900
4.022100 0.814800
4.043400 0.816200
4.064600 0.818900
4.085900 0.822100
4.107200 0.822600
4.128500 0.820400
4.149800 0.818000
4.171100 0.814600
4.192400 0.810400
4.213700 0.806500
4.235000 0.802900
4.256300 0.800000
4.277600 0.799200
4.298900 0.806600
4.320200 0.810100
4.341500 0.808800
4.362800 0.804900
4.384100 0.799800
4.405400 0.795200
4.426700 0.793300
4.448000 0.793900
4.469300 0.789200
4.490500 0.789000
4.511800 0.788000
4.533100 0.785800
4.554400 0.781400
4.575700 0.776300
4.597000 0.772300
4.618300 0.777100
4.639600 0.789100
4.660900 0.788100
4.682200 0.787400
4.703500 0.788900
4.724800 0.789800
4.746100 0.789600
4.767400 0.790500
4.788700 0.794800
4.810000 0.803400
4.831300 0.816000
4.852600 0.831800
4.873900 0.850100
4.895100 0.867300
4.916400 0.887600
4.937700 0.900000
4.959000 0.902900
4.980300 0.907300
5.001600 0.916100
5.022900 0.931500
5.044200 0.948500
5.065500 0.967000
5.086800 0.985500
5.108100 1.005700
5.129400 1.023700
5.150700 1.031600
5.172000 1.033300
5.193300 1.025800
5.214600 1.011700
5.235900 1.015600
5.257200 1.026600
5.278500 1.051300
5.299700 1.069800
5.321000 1.056100
5.342300 1.049500
5.363600 1.047800
5.384900 1.048300
5.406200 1.053700
5.427500 1.044300
5.448800 1.043100
5.470100 1.040100
5.491400 1.033900
5.512700 1.025100
5.534000 1.018300
5.555300 1.014600
5.576600 1.011500
5.597900 1.006600
5.619200 1.000900
5.640500 0.994800
5.661800 0.988400
5.683100 0.981900
5.704400 0.975000
5.725600 0.968000
5.746900 0.964600
5.768200 0.959300
5.789500 0.955300
5.810800 0.952600
5.832100 0.952100
5.853400 0.949500
5.874700 0.939900
5.896000 0.938000
5.917300 0.938900
5.938600 0.941100
5.959900 0.942000
5.981200 0.941400
6.002500 0.936100
6.023800 0.932800
6.045100 0.929300
6.066400 0.926800
6.087700 0.925800
6.109000 0.926000
6.130200 0.927400
6.151500 0.927200
6.172800 0.928200
6.194100 0.930700
6.215400 0.934300
6.236700 0.940800
6.258000 0.943900
6.279300 0.946200
6.300600 0.949900
6.321900 0.944700
6.343200 0.940900
6.364500 0.937600
6.385800 0.937300
6.407100 0.941000
6.428400 0.944300
6.449700 0.939400
6.471000 0.930900
6.492300 0.922800
6.513600 0.919000
6.534900 0.917000
6.556100 0.915700
6.577400 0.914400
6.598700 0.913800
6.620000 0.913500
6.641300 0.914100
6.662600 0.914600
6.683900 0.916900
6.705200 0.921100
6.726500 0.929000
6.747800 0.931300
6.769100 0.931800
6.790400 0.930900
6.811700 0.928100
6.833000 0.926600
6.854300 0.927600
6.875600 0.928800
6.896900 0.922500
6.918200 0.917800
6.939500 0.911700
6.960700 0.906700
6.982000 0.906300
7.003300 0.903900
7.024600 0.902200
7.045900 0.901200
7.067200 0.900900
7.088500 0.902500
7.109800 0.904600
7.131100 0.907100
7.152400 0.910200
7.173700 0.913400
7.195000 0.915900
7.216300 0.919300
7.237600 0.922000
7.258900 0.923400
7.280200 0.925800
7.301500 0.930900
7.322800 0.937200
7.344100 0.940700
7.365300 0.942300
7.386600 0.940900
7.407900 0.939100
7.429200 0.934800
7.450500 0.930200
7.471800 0.926200
7.493100 0.924000
7.514400 0.922400
7.535700 0.920900
7.557000 0.920400
7.578300 0.920500
7.599600 0.920300
7.620900 0.920100
7.642200 0.920000
7.663500 0.921400
7.684800 0.928200
7.706100 0.941200
7.727400 0.960900
7.748700 1.001600
7.770000 1.040200
7.791200 1.037300
7.812500 1.037000
7.833800 1.038700
7.855100 1.041100
7.876400 1.042100
7.897700 1.043200
7.919000 1.045400
7.940300 1.047900
7.961600 1.055100
7.982900 1.063600
8.004200 1.070400
8.025500 1.074000
8.046800 1.074200
8.068100 1.072700
8.089400 1.069700
8.110700 1.064200
8.132000 1.061000
8.153300 1.059600
8.174600 1.057400
8.195800 1.055500
8.217100 1.056800
8.238400 1.063300
8.259700 1.064600
8.281000 1.070300
8.302300 1.067700
8.323600 1.065800
8.344900 1.082300
8.366200 1.097500
8.387500 1.061100
8.408800 1.054200
8.430100 1.047000
8.451400 1.038400
8.472700 1.031000
8.494000 1.025800
8.515300 1.023000
8.536600 1.019400
8.557900 1.014700
8.579200 1.009700
8.600400 1.008100
8.621700 1.009400
8.643000 1.012500
8.664300 1.012200
8.685600 1.009200
8.706900 1.004600
8.728200 0.996300
8.749500 0.989000
8.770800 0.983100
8.792100 0.977700
8.813400 0.972800
8.834700 0.967100
8.856000 0.961300
8.877300 0.955500
8.898600 0.949500
8.919900 0.946400
8.941200 0.941900
8.962500 0.940900
8.983800 0.938500
9.005100 0.934900
9.026300 0.933400
9.047600 0.930800
9.068900 0.927300
9.090200 0.925100
9.111500 0.924200
9.132800 0.924000
9.154100 0.924300
9.175400 0.925100
9.196700 0.926100
9.218000 0.927300
9.239300 0.929000
9.260600 0.931200
9.281900 0.935000
9.303200 0.937200
9.324500 0.939700
9.345800 0.945900
9.367100 0.947100
9.388400 0.944700
9.409700 0.940700
9.430900 0.938300
9.452200 0.935300
9.473500 0.932100
9.494800 0.929900
9.516100 0.928700
9.537400 0.928200
9.558700 0.926900
9.580000 0.925600
9.601300 0.924600
9.622600 0.924100
9.643900 0.925300
9.665200 0.927200
9.686500 0.929300
9.707800 0.932700
9.729100 0.934600
9.750400 0.936200
9.771700 0.936500
9.793000 0.936300
9.814300 0.935800
9.835500 0.938000
9.856800 0.943400
9.878100 0.947000
9.899400 0.944200
9.920700 0.942900
9.942000 0.944800
9.963300 0.946200
9.984600 0.948200
10.005900 0.952700
10.027200 0.952000
10.048500 0.953900
10.069800 0.955600
10.091100 0.956100
10.112400 0.958200
10.133700 0.962000
10.155000 0.965800
10.176300 0.963200
10.197600 0.960800
10.218900 0.960600
10.240200 0.960100
10.261400 0.960300
10.282700 0.961300
10.304000 0.963200
10.325300 0.966500
10.346600 0.966500
10.367900 0.961600
10.389200 0.959400
10.410500 0.959500
10.431800 0.960700
10.453100 0.962200
10.474400 0.963600
10.495700 0.961000
10.517000 0.962500
10.538300 0.964600
10.559600 0.967700
10.580900 0.971500
10.602200 0.975400
10.623500 0.978600
10.644800 0.982600
10.666000 0.984600
10.687300 0.987700
10.708600 0.991300
10.729900 0.995800
10.751200 1.002200
10.772500 1.009500
10.793800 1.017500
10.815100 1.025100
10.836400 1.031200
10.857700 1.038900
10.879000 1.049800
10.900300 1.062300
10.921600 1.067100
10.942900 1.070500
10.964200 1.075200
10.985500 1.077400
11.006800 1.076400
11.028100 1.071900
11.049400 1.069000
11.070600 1.069000
11.091900 1.071700
11.113200 1.083600
11.134500 1.100400
11.155800 1.106500
11.177100 1.117500
11.198400 1.122800
11.219700 1.120700
11.241000 1.116800
11.262300 1.117000
11.283600 1.118900
11.304900 1.121800
11.326200 1.124700
11.347500 1.127700
11.368800 1.130700
11.390100 1.133300
11.411400 1.136800
11.432700 1.138300
11.454000 1.133100
11.475300 1.133700
11.496500 1.138500
11.517800 1.142000
11.539100 1.144200
11.560400 1.145800
11.581700 1.147400
11.603000 1.153300
11.624300 1.163500
11.645600 1.178300
11.666900 1.193800
11.688200 1.211300
11.709500 1.230900
11.730800 1.243000
11.752100 1.258100
11.773400 1.270200
11.794700 1.271700
11.816000 1.273600
11.837300 1.276100
11.858600 1.272100
11.879900 1.264900
11.901100 1.256700
11.922400 1.246000
11.943700 1.240400
11.965000 1.232100
11.986300 1.222600
12.007600 1.214800
12.028900 1.207800
12.050200 1.200900
12.071500 1.195900
12.092800 1.194900
12.114100 1.195500
12.135400 1.196800
12.156700 1.198400
12.178000 1.199800
12.199300 1.201600
12.220600 1.202700
12.241900 1.204300
12.263200 1.206400
12.284500 1.209100
12.305800 1.212400
12.327000 1.209700
12.348300 1.209400
12.369600 1.214500
12.390900 1.216200
12.412200 1.213900
12.433500 1.217700
12.454800 1.191900
12.476100 1.188200
12.497400 1.187800
12.518700 1.189400
12.540000 1.189200
12.561300 1.188900
12.582600 1.188800
12.603900 1.191000
12.625200 1.197200
12.646500 1.203100
12.667800 1.205000
12.689100 1.203900
12.710400 1.206900
12.731600 1.206800
12.752900 1.203200
12.774200 1.211900
12.795500 1.215800
12.816800 1.226200
12.838100 1.240300
12.859400 1.254200
12.880700 1.272500
12.902000 1.276300
12.923300 1.277900
12.944600 1.261900
12.965900 1.246100
12.987200 1.240600
13.008500 1.241500
13.029800 1.244100
13.051100 1.249000
13.072400 1.250900
13.093700 1.250700
13.115000 1.254600
13.136200 1.260500
13.157500 1.262900
13.178800 1.271200
13.200100 1.236600
13.221400 1.219900
13.242700 1.210400
13.264000 1.201200
13.285300 1.190200
13.306600 1.185300
13.327900 1.181600
13.349200 1.179600
13.370500 1.177800
13.391800 1.176500
13.413100 1.176100
13.434400 1.177200
13.455700 1.175700
13.477000 1.175200
13.498300 1.175600
13.519600 1.173200
13.540900 1.170100
13.562100 1.167300
13.583400 1.164900
13.604700 1.157600
13.626000 1.152100
13.647300 1.148200
13.668600 1.144400
13.689900 1.140200
13.711200 1.135600
13.732500 1.134200
13.753800 1.134300
13.775100 1.130400
13.796400 1.128200
13.817700 1.124500
13.839000 1.119100
13.860300 1.115000
13.881600 1.109800
13.902900 1.086200
13.924200 1.082000
13.945500 1.079400
13.966700 1.076600
13.988000 1.068600
14.009300 1.061500
14.030600 1.057400
14.051900 1.053300
14.073200 1.050000
14.094500 1.047500
14.115800 1.045700
14.137100 1.038900
14.158400 1.030400
14.179700 1.025200
14.201000 1.020500
14.222300 1.015800
14.243600 1.010900
14.264900 1.010400
14.286200 1.010400
14.307500 1.013400
14.328800 1.019300
14.350100 1.005200
14.371300 0.998500
14.392600 0.995100
14.413900 0.987100
14.435200 0.981100
14.456500 0.976000
14.477800 0.974400
14.499100 0.976100
14.520400 0.977100
14.541700 0.979300
14.563000 0.981900
14.584300 0.980600
14.605600 0.981200
14.626900 0.982000
14.648200 0.984800
14.669500 0.987800
14.690800 0.994000
14.712100 1.009100
14.733400 1.004300
14.754700 1.000200
14.776000 0.995400
14.797200 0.990300
14.818500 0.987800
14.839800 0.985000
14.861100 0.980600
14.882400 0.975200
14.903700 0.970900
14.925000 0.968600
14.946300 0.968000
14.967600 0.968400
14.988900 0.968800
15.010200 0.971700
15.031500 0.973300
15.052800 0.970000
15.074100 0.970300
15.095400 0.973600
15.116700 0.974600
15.138000 0.976100
15.159300 0.978000
15.180600 0.980000
15.201800 0.981700
15.223100 0.980200
15.244400 0.977900
15.265700 0.977100
15.287000 0.976500
15.308300 0.975800
15.329600 0.981100
15.350900 0.980400
15.372200 0.973400
15.393500 0.967900
15.414800 0.968700
15.436100 0.958900
15.457400 0.942400
15.478700 0.926900
15.500000 0.913400
15.521300 0.899000
15.542600 0.896600
15.563900 0.893000
15.585200 0.892000
15.606400 0.893200
15.627700 0.897500
15.649000 0.908800
15.670300 0.919000
15.691600 0.930200
15.712900 0.939200
15.734200 0.940900
15.755500 0.938800
15.776800 0.943900
15.798100 0.948900
15.819400 0.960100
15.840700 0.967200
15.862000 0.978800
15.883300 0.994100
15.904600 1.009000
15.925900 1.003800
15.947200 0.998600
15.968500 0.999200
15.989800 0.995000
16.011100 0.987500
16.032300 0.977900
16.053600 0.983900
16.074900 0.961600
16.096200 0.956100
16.117500 0.949500
16.138800 0.942000
16.160100 0.929200
16.181400 0.915500
16.202700 0.901100
16.224000 0.890700
16.245300 0.887800
16.266600 0.881200
16.287900 0.874800
16.309200 0.876300
16.330500 0.889500
16.351800 0.897800
16.373100 0.911100
16.394400 0.926100
16.415700 0.941800
16.436900 0.951400
16.458200 0.958000
16.479500 0.963500
16.500800 0.964200
16.522100 0.966500
16.543400 0.969800
16.564700 0.973200
16.586000 0.974700
16.607300 0.975200
16.628600 0.980700
16.649900 0.979000
16.671200 0.982700
16.692500 0.992700
16.713800 1.004900
16.735100 1.021500
16.756400 1.025300
16.777700 1.029600
16.799000 1.032600
16.820300 1.036900
16.841600 1.042000
16.862800 1.049700
16.884100 1.056600
16.905400 1.063500
16.926700 1.076100
16.948000 1.087700
16.969300 1.092800
16.990600 1.095300
17.011900 1.108700
17.033200 1.130700
17.054500 1.155800
17.075800 1.182100
17.097100 1.206700
17.118400 1.228600
17.139700 1.242300
17.161000 1.252200
17.182300 1.266000
17.203600 1.274700
17.224900 1.273100
17.246200 1.270900
17.267400 1.274200
17.288700 1.281200
17.310000 1.278800
17.331300 1.276400
17.352600 1.264600
17.373900 1.262300
17.395200 1.265900
17.416500 1.270300
17.437800 1.278700
17.459100 1.288100
17.480400 1.294900
17.501700 1.298300
17.523000 1.304100
17.544300 1.310200
17.565600 1.322300
17.586900 1.329000
17.608200 1.321100
17.629500 1.314100
17.650800 1.311100
17.672000 1.300600
17.693300 1.287600
17.714600 1.280100
17.735900 1.275500
17.757200 1.273200
17.778500 1.271900
17.799800 1.271500
17.821100 1.271500
17.842400 1.273800
17.863700 1.281800
17.885000 1.296100
17.906300 1.302600
17.927600 1.296100
17.948900 1.288200
17.970200 1.279200
17.991500 1.273900
18.012800 1.274300
18.034100 1.273200
18.055400 1.272300
18.076700 1.277100
18.097900 1.271100
18.119200 1.266600
18.140500 1.262700
18.161800 1.253900
18.183100 1.243600
18.204400 1.230300
18.225700 1.220800
18.247000 1.213100
18.268300 1.212600
18.289600 1.211400
18.310900 1.208800
18.332200 1.201100
18.353500 1.196700
18.374800 1.195100
18.396100 1.197100
18.417400 1.201500
18.438700 1.204900
18.460000 1.210400
18.481300 1.215800
18.502500 1.225000
18.523800 1.231300
18.545100 1.232000
18.566400 1.235200
18.587700 1.241900
18.609000 1.253200
18.630300 1.266800
18.651600 1.282900
18.672900 1.304700
18.694200 1.323900
18.715500 1.336400
18.736800 1.344400
18.758100 1.350300
18.779400 1.358500
18.800700 1.353500
18.822000 1.345300
18.843300 1.339900
18.864600 1.340600
18.885900 1.338800
18.907100 1.336200
18.928400 1.331300
18.949700 1.321800
18.971000 1.317900
18.992300 1.317700
19.013600 1.319700
19.034900 1.329900
19.056200 1.334200
19.077500 1.344800
19.098800 1.354600
19.120100 1.360700
19.141400 1.369800
19.162700 1.378600
19.184000 1.390300
19.205300 1.408800
19.226600 1.425200
19.247900 1.439300
19.269200 1.446400
19.290500 1.454900
19.311800 1.476400
19.333000 1.497900
19.354300 1.503200
19.375600 1.516900
19.396900 1.502400
19.418200 1.475400
19.439500 1.448300
19.460800 1.419100
19.482100 1.392800
19.503400 1.377000
19.524700 1.362100
19.546000 1.341400
19.567300 1.320600
19.588600 1.301800
19.609900 1.286800
19.631200 1.268400
19.652500 1.249400
19.673800 1.234400
19.695100 1.219500
19.716400 1.205000
19.737600 1.189700
19.758900 1.170800
19.780200 1.156900
19.801500 1.146600
19.822800 1.141100
19.844100 1.143400
19.865400 1.145200
19.886700 1.146000
19.908000 1.152100
19.929300 1.161700
19.950600 1.172900
19.971900 1.184700
19.993200 1.194400
20.014500 1.204400
20.035800 1.214500
20.057100 1.221700
20.078400 1.229100
20.099700 1.231000
20.121000 1.240600
20.142200 1.241800
20.163500 1.253300
20.184800 1.270700
20.206100 1.294400
20.227400 1.306900
20.248700 1.306500
20.270000 1.308100
20.291300 1.308900
20.312600 1.307900
20.333900 1.306900
20.355200 1.300500
20.376500 1.296700
20.397800 1.297300
20.419100 1.298100
20.440400 1.297400
20.461700 1.294000
20.483000 1.288800
20.504300 1.285500
20.525600 1.287200
20.546900 1.289500
20.568100 1.292100
20.589400 1.292400
20.610700 1.294600
20.632000 1.295600
20.653300 1.293000
20.674600 1.291500
20.695900 1.294000
20.717200 1.292500
20.738500 1.287200
20.759800 1.281700
20.781100 1.275700
20.802400 1.270700
20.823700 1.269200
20.845000 1.270000
20.866300 1.269700
20.887600 1.266200
20.908900 1.257400
20.930200 1.249900
20.951500 1.238800
20.972700 1.224300
20.994000 1.215900
21.015300 1.209600
21.036600 1.204700
21.057900 1.204600
21.079200 1.204900
21.100500 1.201600
21.121800 1.201000
21.143100 1.200300
21.164400 1.198700
21.185700 1.201800
21.207000 1.212900
21.228300 1.216500
21.249600 1.218400
21.270900 1.222700
21.292200 1.233900
21.313500 1.226000
21.334800 1.209500
21.356100 1.189200
21.377300 1.174900
21.398600 1.175700
21.419900 1.178800
21.441200 1.180000
21.462500 1.182800
21.483800 1.187900
21.505100 1.193600
21.526400 1.204200
21.547700 1.237900
21.569000 1.237600
21.590300 1.242500
21.611600 1.247000
21.632900 1.248100
21.654200 1.250300
21.675500 1.258700
21.696800 1.263300
21.718100 1.270000
21.739400 1.278100
21.760700 1.280800
21.782000 1.276300
21.803200 1.271500
21.824500 1.270200
21.845800 1.274800
21.867100 1.285500
21.888400 1.291300
21.909700 1.294800
21.931000 1.286900
21.952300 1.281000
21.973600 1.275900
21.994900 1.272300
22.016200 1.269300
22.037500 1.265900
22.058800 1.256100
22.080100 1.239800
22.101400 1.222700
22.122700 1.204200
22.144000 1.185900
22.165300 1.172000
22.186600 1.163900
22.207800 1.154300
22.229100 1.135800
22.250400 1.119400
22.271700 1.105100
22.293000 1.090000
22.314300 1.077300
22.335600 1.068800
22.356900 1.062200
22.378200 1.055000
22.399500 1.049700
22.420800 1.045000
22.442100 1.040900
22.463400 1.044700
22.484700 1.039900
22.506000 1.035700
22.527300 1.032500
22.548600 1.031700
22.569900 1.034600
22.591200 1.032400
22.612500 1.025500
22.633700 1.020900
22.655000 1.013900
22.676300 1.010900
22.697600 1.008300
22.718900 1.003800
22.740200 0.997400
22.761500 0.990300
22.782800 0.985000
22.804100 0.976900
22.825400 0.965000
22.846700 0.950200
22.868000 0.936000
22.889300 0.920300
22.910600 0.900600
22.931900 0.881100
22.953200 0.861700
22.974500 0.842400
22.995800 0.824000
23.017100 0.806700
23.038300 0.789800
23.059600 0.771800
23.080900 0.754500
23.102200 0.738800
23.123500 0.723800
23.144800 0.708800
23.166100 0.693800
23.187400 0.681300
23.208700 0.670500
23.230000 0.658000
23.251300 0.645700
23.272600 0.634500
23.293900 0.623300
23.315200 0.612100
23.336500 0.601600
23.357800 0.591400
23.379100 0.581500
23.400400 0.571500
23.421700 0.561600
23.442900 0.551700
23.464200 0.542200
23.485500 0.533100
23.506800 0.524400
23.528100 0.516200
23.549400 0.508500
23.570700 0.501000
23.592000 0.494000
23.613300 0.488300
23.634600 0.482300
23.655900 0.475700
23.677200 0.469200
23.698500 0.463100
23.719800 0.457100
23.741100 0.451300
23.762400 0.445700
23.783700 0.440300
23.805000 0.435100
23.826300 0.430100
23.847600 0.425200
23.868800 0.421600
23.890100 0.417200
23.911400 0.411800
23.932700 0.405500
23.954000 0.399300
23.975300 0.394100
23.996600 0.389100
24.017900 0.384200
24.039200 0.379500
24.060500 0.375000
24.081800 0.370800
24.103100 0.366600
24.124400 0.362400
24.145700 0.358700
24.167000 0.355600
24.188300 0.352800
24.209600 0.349000
24.230900 0.344800
24.252200 0.340800
24.273400 0.336900
24.294700 0.334500
24.316000 0.330600
24.337300 0.326700
24.358600 0.322900
24.379900 0.319200
24.401200 0.315700
24.422500 0.312200
24.443800 0.309000
24.465100 0.306000
24.486400 0.302800
24.507700 0.299500
24.529000 0.296400
24.550300 0.293900
24.571600 0.291600
24.592900 0.289300
24.614200 0.287100
24.635500 0.285100
24.656800 0.282700
24.678000 0.279500
24.699300 0.276500
24.720600 0.274700
24.741900 0.273600
24.763200 0.273000
24.784500 0.272800
24.805800 0.272200
24.827100 0.271200
24.848400 0.269900
24.869700 0.268200
24.891000 0.266500
24.912300 0.264700
24.933600 0.263000
24.954900 0.261600
24.976200 0.260300
24.997500 0.259200
25.018800 0.257800
25.040100 0.256100
25.061400 0.254100
25.082700 0.252000
25.103900 0.249200
25.125200 0.246400
25.146500 0.243600
25.167800 0.240000
25.189100 0.235500
25.210400 0.230300
25.231700 0.224500
25.253000 0.217700
25.274300 0.210200
25.295600 0.202400
25.316900 0.195900
25.338200 0.188600
25.359500 0.181200
25.380800 0.174100
25.402100 0.167400
25.423400 0.160400
25.444700 0.153200
25.466000 0.146600
25.487300 0.141700
25.508500 0.138500
25.529800 0.134100
25.551100 0.128600
25.572400 0.123900
25.593700 0.119900
25.615000 0.116100
25.636300 0.112400
25.657600 0.109400
25.678900 0.107100
25.700200 0.104500
25.721500 0.102800
25.742800 0.101200
25.764100 0.099100
25.785400 0.096500
25.806700 0.093900
25.828000 0.086000
25.849300 0.077000
25.870600 0.074000
25.891900 0.071400
25.913100 0.068800
25.934400 0.066200
25.955700 0.063800
25.977000 0.061400
25.998300 0.059100
26.019600 0.057000
26.040900 0.054900
26.062200 0.052800
26.083500 0.050900
26.104800 0.049100
26.126100 0.047600
26.147400 0.046200
26.168700 0.044900
26.190000 0.043500
26.211300 0.041500
26.232600 0.038900
26.253900 0.036100
26.275200 0.034300
26.296500 0.032900
26.317800 0.031500
26.339000 0.030200
26.360300 0.029000
26.381600 0.027900
26.402900 0.026800
26.424200 0.025600
26.445500 0.024500
26.466800 0.023400
26.488100 0.022300
26.509400 0.021100
26.530700 0.020000
26.552000 0.018900
26.573300 0.017900
26.594600 0.017000
26.615900 0.016100
26.637200 0.015200
26.658500 0.014200
26.679800 0.013000
26.701100 0.010700
26.722400 0.008400
26.743600 0.006500
26.764900 0.004900
26.786200 0.003600
26.807500 0.002700
26.828800 0.001900
26.850100 0.001300
26.871400 0.000900
26.892700 0.000500
26.914000 0.000200
26.935300 0.000100
26.956600 0.000000
26.977900 0.000000
26.999200 0.000000
27.020500 0.000000
27.041800 0.000000
27.063100 0.000000
27.084400 0.000000
27.105700 0.000000
27.127000 0.000000
27.148300 0.000000
27.169500 0.000000
27.190800 0.000000
27.212100 0.000000
27.233400 0.000000
27.254700 0.000000
27.276000 0.000000
27.297300 0.000000
27.318600 0.000000
27.339900 0.000000
27.361200 0.000000
27.382500 0.000000
27.403800 0.000000
27.425100 0.000000
27.446400 0.000000
27.467700 0.000000
27.489000 0.000000
27.510300 0.000000
27.531600 0.000000
27.552900 0.000000
27.574100 0.000000
27.595400 0.000000
27.616700 0.000000
27.638000 0.000000
27.659300 0.000000
27.680600 0.000000
27.701900 0.000000
27.723200 0.000000
27.744500 0.000000
27.765800 0.000000
27.787100 0.000000
27.808400 0.000000
27.829700 0.000000
27.851000 0.000000
27.872300 0.000000
27.893600 0.000000
27.914900 0.000000
27.936200 0.000000
27.957500 0.000000
27.978700 0.000000
28.000000 0.000000
28.021300 0.000000
28.042600 0.000000
28.063900 0.000000
28.085200 0.000000
28.106500 0.000000
28.127800 0.000000
28.149100 0.000000
28.170400 0.000000
28.191700 0.000000
28.213000 0.000000
28.234300 0.000000
28.255600 0.000000
28.276900 0.000000
28.298200 0.000000
28.319500 0.000000
28.340800 0.000000
28.362100 0.000000
28.383400 0.000000
28.404600 0.000000
28.425900 0.000000
28.447200 0.000000
28.468500 0.000000
28.489800 0.000000
28.511100 0.000000
28.532400 0.000000
28.553700 0.000000
28.575000 0.000000
28.596300 0.000000
28.617600 0.000000
28.638900 0.000000
28.660200 0.000000
28.681500 0.000000
28.702800 0.000000
28.724100 0.000000
28.745400 0.000000
28.766700 0.000000
28.788000 0.000000
28.809200 0.000000
28.830500 0.000000
28.851800 0.000000
28.873100 0.000000
28.894400 0.000000
e
