set title 'mp-1076920 - Density of States'
set xlabel 'Energy (eV)'
set ylabel 'DOS (states/eV)'
set grid
set xrange [-10:10]
set yrange [0:1.447]
set xzeroaxis lt -1
set terminal png size 800,600
set output 'mp-1076920_dos_gnuplot.png'
plot '-' using 1:2 with lines title 'DOS'
-36.934700 0.000000
-36.844700 0.000000
-36.754700 0.000000
-36.664700 0.000000
-36.574800 0.000000
-36.484800 0.000000
-36.394800 0.000000
-36.304800 0.000000
-36.214900 0.000000
-36.124900 0.000000
-36.034900 0.000000
-35.945000 0.000000
-35.855000 0.000000
-35.765000 0.000000
-35.675000 0.000000
-35.585100 0.000000
-35.495100 0.000000
-35.405100 0.000000
-35.315100 0.000000
-35.225200 0.000000
-35.135200 0.000000
-35.045200 0.000000
-34.955300 0.000000
-34.865300 0.000000
-34.775300 0.000000
-34.685300 0.000000
-34.595400 0.000000
-34.505400 0.000000
-34.415400 0.000000
-34.325400 0.000000
-34.235500 0.000000
-34.145500 0.000000
-34.055500 0.000000
-33.965600 0.000000
-33.875600 0.000000
-33.785600 0.000000
-33.695600 0.000000
-33.605700 0.000000
-33.515700 0.000000
-33.425700 0.000000
-33.335700 0.000000
-33.245800 0.000000
-33.155800 0.000000
-33.065800 0.000000
-32.975900 0.000000
-32.885900 0.000000
-32.795900 0.000000
-32.705900 0.000000
-32.616000 0.000000
-32.526000 0.000000
-32.436000 0.000000
-32.346000 0.000000
-32.256100 0.000000
-32.166100 0.000000
-32.076100 0.000000
-31.986200 0.000000
-31.896200 0.000000
-31.806200 0.000000
-31.716200 0.000000
-31.626300 0.000000
-31.536300 0.000000
-31.446300 0.000000
-31.356300 0.000000
-31.266400 0.000000
-31.176400 0.000000
-31.086400 0.000000
-30.996500 0.000000
-30.906500 0.000000
-30.816500 0.000000
-30.726500 0.000000
-30.636600 0.000000
-30.546600 0.000000
-30.456600 0.000000
-30.366600 0.000000
-30.276700 0.000000
-30.186700 0.000000
-30.096700 0.000000
-30.006800 0.000000
-29.916800 0.000000
-29.826800 0.000000
-29.736800 0.000000
-29.646900 0.000000
-29.556900 0.000000
-29.466900 0.000000
-29.376900 0.000000
-29.287000 0.000000
-29.197000 0.000000
-29.107000 0.000000
-29.017100 0.000000
-28.927100 0.000000
-28.837100 0.000000
-28.747100 0.009900
-28.657200 0.212900
-28.567200 0.319000
-28.477200 0.414000
-28.387200 0.517600
-28.297300 0.632500
-28.207300 0.779700
-28.117300 0.999200
-28.027400 1.099700
-27.937400 1.217600
-27.847400 1.394000
-27.757400 1.708800
-27.667500 2.339300
-27.577500 2.328900
-27.487500 1.813200
-27.397600 1.619300
-27.307600 1.513500
-27.217600 1.457300
-27.127600 1.448900
-27.037700 0.586400
-26.947700 0.000000
-26.857700 0.000000
-26.767700 0.000000
-26.677800 0.000000
-26.587800 0.000000
-26.497800 0.000000
-26.407900 0.000000
-26.317900 0.000000
-26.227900 0.000000
-26.137900 0.000000
-26.048000 0.000000
-25.958000 0.000000
-25.868000 0.000000
-25.778000 0.000000
-25.688100 0.000000
-25.598100 0.000000
-25.508100 0.000000
-25.418200 0.000000
-25.328200 0.000000
-25.238200 0.000000
-25.148200 0.000000
-25.058300 0.000000
-24.968300 0.000000
-24.878300 0.000000
-24.788300 0.000000
-24.698400 0.000000
-24.608400 0.000000
-24.518400 0.000000
-24.428500 0.000000
-24.338500 0.000000
-24.248500 0.000000
-24.158500 0.000000
-24.068600 0.000000
-23.978600 0.000000
-23.888600 0.000000
-23.798600 0.000000
-23.708700 0.000000
-23.618700 0.000000
-23.528700 0.000000
-23.438800 0.000000
-23.348800 0.000000
-23.258800 0.000000
-23.168800 0.000000
-23.078900 0.000000
-22.988900 0.000000
-22.898900 0.000000
-22.808900 0.000000
-22.719000 0.000000
-22.629000 0.000000
-22.539000 0.000000
-22.449100 0.000000
-22.359100 0.000000
-22.269100 0.000000
-22.179100 0.000000
-22.089200 0.000000
-21.999200 0.000000
-21.909200 0.000000
-21.819200 0.000000
-21.729300 0.000000
-21.639300 0.000000
-21.549300 0.000000
-21.459400 0.000000
-21.369400 0.000000
-21.279400 0.000000
-21.189400 0.000000
-21.099500 0.000000
-21.009500 0.000000
-20.919500 0.000000
-20.829500 0.000000
-20.739600 0.000000
-20.649600 0.000000
-20.559600 0.000000
-20.469700 0.000000
-20.379700 0.000000
-20.289700 0.000000
-20.199700 0.000000
-20.109800 0.000000
-20.019800 0.000000
-19.929800 0.000000
-19.839800 0.000000
-19.749900 0.000000
-19.659900 0.000000
-19.569900 0.000000
-19.480000 0.000000
-19.390000 0.000000
-19.300000 0.000000
-19.210000 0.000000
-19.120100 0.000000
-19.030100 0.000000
-18.940100 0.000000
-18.850200 0.000000
-18.760200 0.000000
-18.670200 0.000000
-18.580200 0.000000
-18.490300 0.000000
-18.400300 0.000000
-18.310300 0.000000
-18.220300 0.000000
-18.130400 0.000000
-18.040400 0.000000
-17.950400 0.000000
-17.860500 0.000000
-17.770500 0.000000
-17.680500 0.000000
-17.590500 0.000000
-17.500600 0.000000
-17.410600 0.000000
-17.320600 0.000000
-17.230600 0.000000
-17.140700 0.000000
-17.050700 0.000000
-16.960700 0.000000
-16.870800 0.000000
-16.780800 0.000000
-16.690800 0.000000
-16.600800 0.000000
-16.510900 0.000000
-16.420900 0.000000
-16.330900 0.000000
-16.240900 0.000000
-16.151000 0.000000
-16.061000 0.000000
-15.971000 0.000000
-15.881100 0.000000
-15.791100 0.000000
-15.701100 0.000000
-15.611100 0.000000
-15.521200 0.000000
-15.431200 0.000000
-15.341200 0.000000
-15.251200 0.000000
-15.161300 0.000000
-15.071300 0.000000
-14.981300 0.000000
-14.891400 0.000000
-14.801400 0.000000
-14.711400 0.000000
-14.621400 0.000000
-14.531500 0.000000
-14.441500 0.000000
-14.351500 0.000000
-14.261500 0.000000
-14.171600 0.000000
-14.081600 0.000000
-13.991600 0.000000
-13.901700 0.000000
-13.811700 0.000000
-13.721700 0.000000
-13.631700 0.000000
-13.541800 0.000000
-13.451800 0.000000
-13.361800 0.000000
-13.271800 0.000000
-13.181900 0.000000
-13.091900 0.000000
-13.001900 0.000000
-12.912000 0.000000
-12.822000 0.000000
-12.732000 0.000000
-12.642000 0.000000
-12.552100 0.000000
-12.462100 0.000000
-12.372100 0.000000
-12.282100 0.000000
-12.192200 0.000000
-12.102200 0.000000
-12.012200 0.000000
-11.922300 0.000000
-11.832300 0.000000
-11.742300 0.000000
-11.652300 0.000000
-11.562400 0.000000
-11.472400 0.000000
-11.382400 0.000000
-11.292400 0.000000
-11.202500 0.000000
-11.112500 0.000000
-11.022500 0.000000
-10.932600 0.000000
-10.842600 0.000000
-10.752600 0.000000
-10.662600 0.000000
-10.572700 0.000000
-10.482700 0.000000
-10.392700 0.000000
-10.302700 0.000000
-10.212800 0.000000
-10.122800 0.000000
-10.032800 0.000000
-9.942900 0.000000
-9.852900 0.000000
-9.762900 0.000000
-9.672900 0.000000
-9.583000 0.000000
-9.493000 0.000000
-9.403000 0.000000
-9.313100 0.000000
-9.223100 0.000000
-9.133100 0.000000
-9.043100 0.000000
-8.953200 0.000000
-8.863200 0.000000
-8.773200 0.000000
-8.683200 0.000000
-8.593300 0.000000
-8.503300 0.000000
-8.413300 0.000000
-8.323400 0.000000
-8.233400 0.000000
-8.143400 0.000000
-8.053400 0.000000
-7.963500 0.000000
-7.873500 0.000000
-7.783500 0.000000
-7.693500 0.000000
-7.603600 0.000000
-7.513600 0.000000
-7.423600 0.000000
-7.333700 0.000000
-7.243700 0.000000
-7.153700 0.034600
-7.063700 0.171300
-6.973800 0.234000
-6.883800 0.353000
-6.793800 0.433000
-6.703800 0.504800
-6.613900 0.585600
-6.523900 0.676300
-6.433900 0.776600
-6.344000 0.915500
-6.254000 1.101600
-6.164000 1.153600
-6.074000 1.161100
-5.984100 1.142200
-5.894100 1.146200
-5.804100 1.199500
-5.714100 1.171900
-5.624200 1.120800
-5.534200 1.255300
-5.444200 1.315000
-5.354300 1.207500
-5.264300 1.062700
-5.174300 0.923300
-5.084300 0.860100
-4.994400 0.760500
-4.904400 0.750100
-4.814400 0.737100
-4.724400 0.723700
-4.634500 0.713700
-4.544500 0.697600
-4.454500 0.691200
-4.364600 0.680200
-4.274600 0.726600
-4.184600 0.698200
-4.094600 0.688800
-4.004700 0.688600
-3.914700 0.719400
-3.824700 0.705600
-3.734700 0.697200
-3.644800 0.752600
-3.554800 0.721400
-3.464800 0.710000
-3.374900 0.713000
-3.284900 0.723800
-3.194900 0.771300
-3.104900 0.770700
-3.015000 0.763900
-2.925000 0.830200
-2.835000 0.819800
-2.745000 0.806400
-2.655100 0.826400
-2.565100 0.877800
-2.475100 0.896600
-2.385200 0.950000
-2.295200 1.032400
-2.205200 1.185100
-2.115200 1.127500
-2.025300 1.140800
-1.935300 1.132100
-1.845300 1.173600
-1.755300 1.196400
-1.665400 1.248800
-1.575400 1.266200
-1.485400 1.139800
-1.395500 1.025500
-1.305500 0.997900
-1.215500 1.062100
-1.125500 0.981600
-1.035600 0.940300
-0.945600 0.908500
-0.855600 0.892200
-0.765700 0.887800
-0.675700 0.904600
-0.585700 0.858700
-0.495700 0.657200
-0.405800 0.439900
-0.315800 0.320600
-0.225800 0.276500
-0.135800 0.230200
-0.045900 0.185700
0.044100 0.138400
0.134100 0.075200
0.224000 0.000000
0.314000 0.000000
0.404000 0.000000
0.494000 0.000000
0.583900 0.000000
0.673900 0.000000
0.763900 0.000000
0.853900 0.000000
0.943800 0.000000
1.033800 0.000000
1.123800 0.000000
1.213700 0.000000
1.303700 0.000000
1.393700 0.000000
1.483700 0.000000
1.573600 0.000000
1.663600 0.000000
1.753600 0.000000
1.843600 0.000000
1.933500 0.000000
2.023500 0.000000
2.113500 0.000000
2.203400 0.000000
2.293400 0.000000
2.383400 0.000000
2.473400 0.000000
2.563300 0.000000
2.653300 0.000000
2.743300 0.000000
2.833300 0.000000
2.923200 0.000000
3.013200 0.000000
3.103200 0.000000
3.193100 0.000000
3.283100 0.000000
3.373100 0.000000
3.463100 0.000000
3.553000 0.000000
3.643000 0.000000
3.733000 0.000000
3.823000 0.000000
3.912900 0.000000
4.002900 0.000000
4.092900 0.000000
4.182800 0.000000
4.272800 0.000000
4.362800 0.000000
4.452800 0.000000
4.542700 0.000000
4.632700 0.000000
4.722700 0.000000
4.812700 0.000000
4.902600 0.000000
4.992600 0.000000
5.082600 0.000000
5.172500 0.000000
5.262500 0.000000
5.352500 0.000000
5.442500 0.000000
5.532400 0.000000
5.622400 0.000000
5.712400 0.000000
5.802400 0.000000
5.892300 0.000000
5.982300 0.000000
6.072300 0.000000
6.162200 0.000000
6.252200 0.000000
6.342200 0.000000
6.432200 0.000000
6.522100 0.000000
6.612100 0.000000
6.702100 0.000000
6.792100 0.000000
6.882000 0.000000
6.972000 0.000000
7.062000 0.000000
7.151900 0.000000
7.241900 0.000000
7.331900 0.000000
7.421900 0.000000
7.511800 0.000000
7.601800 0.000000
7.691800 0.000000
7.781800 0.000000
7.871700 0.000000
7.961700 0.000000
8.051700 0.000000
8.141600 0.000000
8.231600 0.000000
8.321600 0.000000
8.411600 0.000000
8.501500 0.000000
8.591500 0.000000
8.681500 0.000000
8.771400 0.000000
8.861400 0.000000
8.951400 0.000000
9.041400 0.000000
9.131300 0.000000
9.221300 0.000000
9.311300 0.000000
9.401300 0.000000
9.491200 0.000000
9.581200 0.000000
9.671200 0.000000
9.761100 0.000000
9.851100 0.000000
9.941100 0.000900
10.031100 0.063100
10.121000 0.104200
10.211000 0.133100
10.301000 0.164300
10.391000 0.190300
10.480900 0.216000
10.570900 0.245100
10.660900 0.280400
10.750800 0.329800
10.840800 0.381900
10.930800 0.356900
11.020800 0.354200
11.110700 0.351800
11.200700 0.347400
11.290700 0.347700
11.380700 0.403600
11.470600 0.467300
11.560600 0.537100
11.650600 0.597600
11.740500 0.648400
11.830500 0.703100
11.920500 0.741800
12.010500 0.785300
12.100400 0.831100
12.190400 0.876400
12.280400 0.956100
12.370400 0.968400
12.460300 1.009200
12.550300 1.057500
12.640300 1.176900
12.730200 1.338800
12.820200 1.437300
12.910200 1.600900
13.000200 2.010900
13.090100 2.029300
13.180100 2.126500
13.270100 2.247300
13.360100 2.367000
13.450000 2.418000
13.540000 2.537600
13.630000 2.617900
13.719900 1.675900
13.809900 1.419700
13.899900 1.119400
13.989900 1.023900
14.079800 0.986000
14.169800 0.891700
14.259800 0.877500
14.349800 1.001700
14.439700 1.112300
14.529700 1.352600
14.619700 1.633100
14.709600 2.904400
14.799600 2.852400
14.889600 2.766500
14.979600 2.708400
15.069500 2.206400
15.159500 2.292800
15.249500 2.226900
15.339500 2.692800
15.429400 4.629600
15.519400 4.128500
15.609400 4.047300
15.699300 4.401000
15.789300 6.804300
15.879300 4.612100
15.969300 5.836300
16.059200 3.728200
16.149200 3.892900
16.239200 3.386900
16.329200 3.484300
16.419100 3.509100
16.509100 5.831900
16.599100 6.413900
16.689000 5.440300
16.779000 3.999400
16.869000 5.250400
16.959000 3.145000
17.048900 3.276900
17.138900 4.016900
17.228900 5.956400
17.318800 5.460000
17.408800 3.446000
17.498800 2.297700
17.588800 2.115300
17.678700 2.205400
17.768700 2.292900
17.858700 2.520100
17.948700 2.284700
18.038600 1.916000
18.128600 1.768700
18.218600 1.629400
18.308500 1.571700
18.398500 1.521000
18.488500 1.309000
18.578500 1.178300
18.668400 1.052400
18.758400 0.958800
18.848400 0.868100
18.938400 0.805500
19.028300 0.711000
19.118300 0.631600
19.208300 0.676400
19.298200 0.788400
19.388200 0.956800
19.478200 1.286100
19.568200 1.082200
19.658100 1.090500
19.748100 1.056000
19.838100 1.035700
19.928100 1.007200
20.018000 0.973300
20.108000 0.943600
20.198000 0.916200
20.287900 0.883400
20.377900 0.809200
20.467900 0.793600
20.557900 0.739400
20.647800 0.712600
20.737800 0.745000
20.827800 0.771100
20.917800 0.730300
21.007700 0.751800
21.097700 0.788800
21.187700 0.696600
21.277600 0.626500
21.367600 0.598500
21.457600 0.649100
21.547600 0.687600
21.637500 0.733300
21.727500 0.886400
21.817500 0.752000
21.907500 0.793700
21.997400 0.780300
22.087400 0.817700
22.177400 0.826500
22.267300 0.829800
22.357300 0.828000
22.447300 0.859600
22.537300 0.873200
22.627200 0.874400
22.717200 0.881700
22.807200 0.865700
22.897200 0.854700
22.987100 0.865100
23.077100 0.867700
23.167100 0.888200
23.257000 0.787600
23.347000 0.782700
23.437000 0.792400
23.527000 0.859600
23.616900 0.808300
23.706900 0.799100
23.796900 0.797400
23.886900 0.786800
23.976800 0.771500
24.066800 0.751700
24.156800 0.745200
24.246700 0.705400
24.336700 0.670400
24.426700 0.646800
24.516700 0.636500
24.606600 0.628400
24.696600 0.623400
24.786600 0.624900
24.876600 0.642400
24.966500 0.650300
25.056500 0.648200
25.146500 0.641700
25.236400 0.639900
25.326400 0.652200
25.416400 0.614800
25.506400 0.594200
25.596300 0.579700
25.686300 0.571700
25.776300 0.568900
25.866300 0.576200
25.956200 0.572500
26.046200 0.566200
26.136200 0.579800
26.226100 0.581300
26.316100 0.558700
26.406100 0.548900
26.496100 0.535600
26.586000 0.521500
26.676000 0.509600
26.766000 0.484100
26.855900 0.465000
26.945900 0.450900
27.035900 0.438200
27.125900 0.426900
27.215800 0.417700
27.305800 0.410100
27.395800 0.398300
27.485800 0.393900
27.575700 0.391400
27.665700 0.383500
27.755700 0.375400
27.845600 0.367500
27.935600 0.360000
28.025600 0.352700
28.115600 0.346100
28.205500 0.338900
28.295500 0.333700
28.385500 0.326700
28.475500 0.317000
28.565400 0.309300
28.655400 0.301600
28.745400 0.303100
28.835300 0.305700
28.925300 0.309700
29.015300 0.321800
29.105300 0.329100
29.195200 0.336800
29.285200 0.326700
29.375200 0.312300
29.465200 0.311400
29.555100 0.313200
29.645100 0.316100
29.735100 0.324500
29.825000 0.336700
29.915000 0.329000
30.005000 0.323600
30.095000 0.323400
30.184900 0.336400
30.274900 0.361500
30.364900 0.429000
30.454900 0.457800
30.544800 0.491500
30.634800 0.527800
30.724800 0.643400
30.814700 0.801800
30.904700 0.873400
30.994700 0.849100
31.084700 0.813300
31.174600 0.816800
31.264600 0.821700
31.354600 0.855900
31.444600 0.891200
31.534500 0.916300
31.624500 0.937300
31.714500 1.063500
31.804400 1.103000
31.894400 1.129400
31.984400 1.198400
32.074400 1.238500
32.164300 1.346600
32.254300 1.238300
32.344300 1.036500
32.434300 0.966000
32.524200 0.876000
32.614200 0.784000
32.704200 0.729100
32.794100 0.703200
32.884100 0.684000
32.974100 0.660800
33.064100 0.656000
33.154000 0.672300
33.244000 0.706900
33.334000 0.735800
33.424000 0.744000
33.513900 0.745200
33.603900 0.679300
33.693900 0.660800
33.783800 0.598400
33.873800 0.638600
33.963800 0.718500
34.053800 0.815100
34.143700 0.812300
34.233700 0.827600
34.323700 0.796200
34.413700 0.725900
34.503600 0.691300
34.593600 0.653500
34.683600 0.629000
34.773500 0.618000
34.863500 0.621100
34.953500 0.629400
35.043500 0.633600
35.133400 0.654400
35.223400 0.624800
35.313400 0.610400
35.403300 0.587700
35.493300 0.564900
35.583300 0.549900
35.673300 0.539200
35.763200 0.533900
35.853200 0.537900
35.943200 0.539800
36.033200 0.553600
36.123100 0.562600
36.213100 0.587400
36.303100 0.639400
36.393000 0.702100
36.483000 0.805800
36.573000 0.850200
36.663000 0.812500
36.752900 0.804900
36.842900 0.806700
36.932900 0.818600
37.022900 0.823300
37.112800 0.823700
37.202800 0.821700
37.292800 0.818700
37.382700 0.782400
37.472700 0.766400
37.562700 0.758300
37.652700 0.770200
37.742600 0.796000
37.832600 0.781900
37.922600 0.783200
38.012600 0.794500
38.102500 0.796300
38.192500 0.801000
38.282500 0.816100
38.372400 0.838000
38.462400 0.827600
38.552400 0.824100
38.642400 0.818600
38.732300 0.794300
38.822300 0.793500
38.912300 0.808200
39.002300 0.834900
39.092200 0.847800
39.182200 0.838100
39.272200 0.826200
39.362100 0.870100
39.452100 0.896000
39.542100 0.923500
39.632100 0.927700
39.722000 0.930600
39.812000 0.966100
39.902000 1.005700
39.992000 0.976200
40.081900 0.975100
40.171900 0.939500
40.261900 0.921100
40.351800 0.939600
40.441800 0.942300
40.531800 0.946700
40.621800 0.943600
40.711700 0.953000
40.801700 0.956800
40.891700 0.952700
40.981700 0.956600
41.071600 0.937700
41.161600 0.939300
41.251600 0.936300
41.341500 0.969800
41.431500 1.010400
41.521500 1.027900
41.611500 1.029800
41.701400 1.004800
41.791400 0.987500
41.881400 1.007300
41.971400 1.013200
42.061300 1.010100
42.151300 1.089500
42.241300 1.123200
42.331200 1.037200
42.421200 0.986900
42.511200 0.958700
42.601200 0.930400
42.691100 0.931600
42.781100 1.017400
42.871100 1.104300
42.961100 1.202400
43.051000 1.344000
43.141000 1.312000
43.231000 1.229800
43.320900 1.083200
43.410900 0.979900
43.500900 0.877000
43.590900 0.791100
43.680800 0.750200
43.770800 0.723000
43.860800 0.733800
43.950800 0.751000
44.040700 0.800000
44.130700 0.809800
44.220700 0.824000
44.310600 0.862600
44.400600 1.000900
44.490600 1.112600
44.580600 1.092700
44.670500 1.094000
44.760500 1.017700
44.850500 0.994100
44.940400 1.000600
45.030400 1.026800
45.120400 1.076900
45.210400 1.105000
45.300300 1.103500
45.390300 1.170600
45.480300 1.338600
45.570300 1.383100
45.660200 1.310200
45.750200 1.276100
45.840200 1.193400
45.930100 1.063800
46.020100 0.985200
46.110100 0.964300
46.200100 0.984600
46.290000 1.006700
46.380000 0.977700
46.470000 1.027900
46.560000 1.080700
46.649900 1.112300
46.739900 1.113700
46.829900 1.101900
46.919800 1.166200
47.009800 1.212900
47.099800 1.166100
47.189800 1.131300
47.279700 1.138800
47.369700 1.151200
47.459700 1.149200
47.549700 1.159400
47.639600 1.121400
47.729600 1.055300
47.819600 1.017600
47.909500 0.982200
47.999500 0.960100
48.089500 0.929400
48.179500 0.899300
48.269400 0.870100
48.359400 0.874300
48.449400 0.844800
48.539400 0.762000
48.629300 0.705300
48.719300 0.686400
48.809300 0.691300
48.899200 0.733500
48.989200 0.762200
49.079200 0.777700
49.169200 0.787300
49.259100 0.829500
49.349100 0.831500
49.439100 0.840700
49.529100 0.884600
49.619000 0.953200
49.709000 0.982500
49.799000 1.028900
49.888900 1.007700
49.978900 1.021200
50.068900 0.953100
50.158900 0.925000
50.248800 0.903200
50.338800 0.874200
50.428800 0.893300
50.518800 0.832700
50.608700 0.782200
50.698700 0.777800
50.788700 0.799600
50.878600 0.801700
50.968600 0.827300
51.058600 0.896900
51.148600 0.930000
51.238500 0.928900
51.328500 0.915600
51.418500 0.907500
51.508500 0.899200
51.598400 0.871300
51.688400 0.850600
51.778400 0.851100
51.868300 0.902200
51.958300 0.958300
52.048300 1.019400
52.138300 1.066400
52.228200 1.080400
52.318200 1.107000
52.408200 1.140800
52.498200 1.180200
52.588100 1.203500
52.678100 1.230600
52.768100 1.226800
52.858000 1.154000
52.948000 1.126100
53.038000 1.093000
53.128000 1.077000
53.217900 1.085500
53.307900 1.106300
53.397900 1.101800
53.487800 1.089100
53.577800 1.061600
53.667800 1.093300
53.757800 1.086900
53.847700 1.075400
53.937700 1.060400
54.027700 1.052800
54.117700 1.070700
54.207600 1.034700
54.297600 1.055600
54.387600 1.080600
54.477500 1.114600
54.567500 1.155100
54.657500 1.214100
54.747500 1.236700
54.837400 1.232000
54.927400 1.318000
55.017400 1.293600
55.107400 1.341100
55.197300 1.307200
55.287300 1.322800
55.377300 1.286700
55.467200 1.355900
55.557200 1.420000
55.647200 1.299500
55.737200 1.275200
55.827100 1.303700
55.917100 1.381800
56.007100 1.423500
56.097100 1.372500
56.187000 1.236700
56.277000 1.233300
56.367000 1.153100
56.456900 1.117400
56.546900 1.103900
56.636900 1.070500
56.726900 1.048600
56.816800 1.052900
56.906800 1.063000
56.996800 1.084700
57.086800 1.059600
57.176700 0.926600
57.266700 0.863600
57.356700 0.842500
57.446600 0.829300
57.536600 0.859500
57.626600 0.839400
57.716600 0.824400
57.806500 0.840200
57.896500 0.831000
57.986500 0.874900
58.076500 0.831600
58.166400 0.803500
58.256400 0.799300
58.346400 0.799900
58.436300 0.803900
58.526300 0.797300
58.616300 0.788900
58.706300 0.796400
58.796200 0.767600
58.886200 0.760800
58.976200 0.770400
59.066200 0.795500
59.156100 0.824700
59.246100 0.904700
59.336100 0.919800
59.426000 0.900400
59.516000 0.888500
59.606000 0.895000
59.696000 0.913500
59.785900 0.909400
59.875900 0.920400
59.965900 0.910000
60.055900 0.948800
60.145800 0.935600
60.235800 0.916700
60.325800 0.917000
60.415700 0.944800
60.505700 0.955400
60.595700 0.986800
60.685700 1.003800
60.775600 1.011600
60.865600 1.007500
60.955600 0.979700
61.045600 0.935200
61.135500 0.903300
61.225500 0.912200
61.315500 0.951700
61.405400 0.974600
61.495400 1.037300
61.585400 1.091800
61.675400 1.099600
61.765300 1.117500
61.855300 1.152300
61.945300 1.149700
62.035300 1.193000
62.125200 1.263500
62.215200 1.303900
62.305200 1.345500
62.395100 1.317500
62.485100 1.235300
62.575100 1.151100
62.665100 1.102500
62.755000 1.069500
62.845000 1.078400
62.935000 1.073100
63.024900 1.066000
63.114900 1.063800
63.204900 1.092300
63.294900 1.126900
63.384800 1.153100
63.474800 1.177100
63.564800 1.198600
63.654800 1.236000
63.744700 1.261500
63.834700 1.272400
63.924700 1.265700
64.014600 1.257900
64.104600 1.249700
64.194600 1.214600
64.284600 1.202400
64.374500 1.182800
64.464500 1.177400
64.554500 1.174500
64.644500 1.173500
64.734400 1.154300
64.824400 1.164600
64.914400 1.168000
65.004300 1.172100
65.094300 1.208900
65.184300 1.236000
65.274300 1.223000
65.364200 1.187500
65.454200 1.157300
65.544200 1.117000
65.634200 1.050300
65.724100 1.000400
65.814100 0.987700
65.904100 0.977200
65.994000 0.975100
66.084000 1.040300
66.174000 1.133600
66.264000 1.202700
66.353900 1.243200
66.443900 1.264800
66.533900 1.289300
66.623900 1.302400
66.713800 1.325300
66.803800 1.326600
66.893800 1.323800
66.983700 1.342200
67.073700 1.372100
67.163700 1.350900
67.253700 1.295000
67.343600 1.272500
67.433600 1.258900
67.523600 1.245400
67.613600 1.274200
67.703500 1.359400
67.793500 1.410800
67.883500 1.426300
67.973400 1.438200
68.063400 1.417600
68.153400 1.382700
68.243400 1.387000
68.333300 1.362800
68.423300 1.349700
68.513300 1.337400
68.603300 1.312500
68.693200 1.287100
68.783200 1.295300
68.873200 1.312800
68.963100 1.298100
69.053100 1.271900
69.143100 1.263700
69.233100 1.257800
69.323000 1.263100
69.413000 1.252600
69.503000 1.262400
69.593000 1.276600
69.682900 1.310300
69.772900 1.347800
69.862900 1.346200
69.952800 1.328800
70.042800 1.353900
70.132800 1.381600
70.222800 1.376100
70.312700 1.391000
70.402700 1.384500
70.492700 1.419400
70.582700 1.474200
70.672600 1.400100
70.762600 1.378900
70.852600 1.356000
70.942500 1.340600
71.032500 1.331300
71.122500 1.322500
71.212500 1.317600
71.302400 1.303000
71.392400 1.296900
71.482400 1.284000
71.572300 1.281500
71.662300 1.279300
71.752300 1.287700
71.842300 1.299400
71.932200 1.295500
72.022200 1.302800
72.112200 1.314300
72.202200 1.328200
72.292100 1.308200
72.382100 1.281300
72.472100 1.260700
72.562000 1.249500
72.652000 1.253000
72.742000 1.268600
72.832000 1.277200
72.921900 1.266700
73.011900 1.229000
73.101900 1.213200
73.191900 1.213100
73.281800 1.213100
73.371800 1.217000
73.461800 1.230400
73.551700 1.254800
73.641700 1.245700
73.731700 1.226500
73.821700 1.221600
73.911600 1.251800
74.001600 1.292200
74.091600 1.314200
74.181600 1.323100
74.271500 1.320900
74.361500 1.309700
74.451500 1.311100
74.541400 1.315800
74.631400 1.316000
74.721400 1.311500
74.811400 1.284600
74.901300 1.278000
74.991300 1.273700
75.081300 1.253700
75.171300 1.243400
75.261200 1.244400
75.351200 1.246300
75.441200 1.263700
75.531100 1.271700
75.621100 1.257600
75.711100 1.250500
75.801100 1.230100
75.891000 1.233000
75.981000 1.249200
76.071000 1.283700
76.161000 1.315900
76.250900 1.367700
76.340900 1.400600
76.430900 1.386600
76.520800 1.348000
76.610800 1.336400
76.700800 1.331300
76.790800 1.349700
76.880700 1.365800
76.970700 1.377300
77.060700 1.321700
77.150700 1.263600
77.240600 1.241800
77.330600 1.246800
77.420600 1.217900
77.510500 1.188400
77.600500 1.208000
77.690500 1.216800
77.780500 1.171000
77.870400 1.155300
77.960400 1.120500
78.050400 1.095500
78.140400 1.094800
78.230300 1.075100
78.320300 1.039100
78.410300 1.024400
78.500200 1.056900
78.590200 1.021600
78.680200 1.020900
78.770200 0.998400
78.860100 0.978100
78.950100 0.967100
79.040100 0.963200
79.130100 0.946300
79.220000 0.944700
79.310000 0.901100
79.400000 0.916800
79.489900 0.931500
79.579900 0.939200
79.669900 0.978800
79.759900 1.012800
79.849800 1.057500
79.939800 1.101000
80.029800 1.182600
80.119800 1.145600
80.209700 1.137300
80.299700 1.099400
80.389700 1.051800
80.479600 1.018900
80.569600 1.056800
80.659600 1.146200
80.749600 1.240000
80.839500 1.244500
80.929500 1.239100
81.019500 1.249800
81.109400 1.265300
81.199400 1.307800
81.289400 1.362700
81.379400 1.442700
81.469300 1.467900
81.559300 1.529900
81.649300 1.525600
81.739300 1.442200
81.829200 1.431600
81.919200 1.469700
82.009200 1.583400
82.099100 1.527800
82.189100 1.551300
82.279100 1.513600
82.369100 1.391300
82.459000 1.356400
82.549000 1.417200
82.639000 1.445900
82.729000 1.479200
82.818900 1.479600
82.908900 1.464900
82.998900 1.407700
83.088800 1.384300
83.178800 1.363400
83.268800 1.430600
83.358800 1.480200
83.448700 1.466800
83.538700 1.395100
83.628700 1.365800
83.718700 1.351600
83.808600 1.373700
83.898600 1.478000
83.988600 1.463600
84.078500 1.494000
84.168500 1.457300
84.258500 1.469100
84.348500 1.497800
84.438400 1.539100
84.528400 1.545200
84.618400 1.530200
84.708400 1.527200
84.798300 1.534700
84.888300 1.503100
84.978300 1.428200
85.068200 1.416600
85.158200 1.399400
85.248200 1.457000
85.338200 1.503200
85.428100 1.482700
85.518100 1.474400
85.608100 1.456900
85.698100 1.471500
85.788000 1.446800
85.878000 1.403700
85.968000 1.381800
86.057900 1.420900
86.147900 1.428500
86.237900 1.491600
86.327900 1.515800
86.417800 1.540400
86.507800 1.545700
86.597800 1.507400
86.687800 1.462000
86.777700 1.483200
86.867700 1.566900
86.957700 1.604100
87.047600 1.562000
87.137600 1.565000
87.227600 1.597700
87.317600 1.606700
87.407500 1.607600
87.497500 1.675300
87.587500 1.689200
87.677500 1.650100
87.767400 1.622800
87.857400 1.640700
87.947400 1.591500
88.037300 1.523400
88.127300 1.437400
88.217300 1.447700
88.307300 1.422500
88.397200 1.429500
88.487200 1.447500
88.577200 1.484100
88.667200 1.566000
88.757100 1.644000
88.847100 1.712700
88.937100 1.680400
89.027000 1.625200
89.117000 1.590200
89.207000 1.507200
89.297000 1.435300
89.386900 1.372800
89.476900 1.360500
89.566900 1.326400
89.656800 1.333200
89.746800 1.366900
89.836800 1.381600
89.926800 1.417300
90.016700 1.437000
90.106700 1.431100
90.196700 1.363800
90.286700 1.318600
90.376600 1.298500
90.466600 1.290100
90.556600 1.258900
90.646500 1.222600
90.736500 1.204900
90.826500 1.209000
90.916500 1.218600
91.006400 1.243100
91.096400 1.250500
91.186400 1.263600
91.276400 1.277800
91.366300 1.304900
91.456300 1.332600
91.546300 1.364800
91.636200 1.436900
91.726200 1.412900
91.816200 1.362800
91.906200 1.312500
91.996100 1.303500
92.086100 1.304200
92.176100 1.300600
92.266100 1.292000
92.356000 1.289400
92.446000 1.295300
92.536000 1.276500
92.625900 1.286600
92.715900 1.317100
92.805900 1.332700
92.895900 1.332900
92.985800 1.322000
93.075800 1.288000
93.165800 1.304000
93.255800 1.342000
93.345700 1.375900
93.435700 1.429300
93.525700 1.463700
93.615600 1.436900
93.705600 1.431900
93.795600 1.350900
93.885600 1.333900
93.975500 1.332500
94.065500 1.363400
94.155500 1.389000
94.245500 1.381500
94.335400 1.382200
94.425400 1.376700
94.515400 1.414000
94.605300 1.456700
94.695300 1.448400
94.785300 1.440700
94.875300 1.377100
94.965200 1.317600
95.055200 1.229000
95.145200 1.305500
95.235200 1.282800
95.325100 1.331800
95.415100 1.341300
95.505100 1.331300
95.595000 1.338200
95.685000 1.429800
95.775000 1.376500
95.865000 1.282300
95.954900 1.255500
96.044900 1.260900
96.134900 1.301400
96.224900 1.423800
96.314800 1.425100
96.404800 1.385200
96.494800 1.350400
96.584700 1.311300
96.674700 1.305200
96.764700 1.321300
96.854700 1.304000
96.944600 1.271600
97.034600 1.284300
97.124600 1.273500
97.214600 1.268700
97.304500 1.210900
97.394500 1.219100
97.484500 1.237200
97.574400 1.279500
97.664400 1.326200
97.754400 1.446800
97.844400 1.454000
97.934300 1.536700
98.024300 1.552100
98.114300 1.576700
98.204300 1.645500
98.294200 1.562800
98.384200 1.554300
98.474200 1.537100
98.564100 1.518800
98.654100 1.537100
98.744100 1.538800
98.834100 1.502100
98.924000 1.527600
99.014000 1.539800
99.104000 1.557000
99.193900 1.612100
99.283900 1.684500
99.373900 1.680100
99.463900 1.762800
99.553800 1.771200
99.643800 1.741100
99.733800 1.697800
99.823800 1.652300
99.913700 1.632800
100.003700 1.567100
100.093700 1.598100
100.183600 1.625000
100.273600 1.661400
100.363600 1.734100
100.453600 1.760900
100.543500 1.817100
100.633500 1.894200
100.723500 1.806200
100.813500 1.798800
100.903400 1.806100
100.993400 1.855800
101.083400 1.849400
101.173300 1.736500
101.263300 1.649600
101.353300 1.567000
101.443300 1.466100
101.533200 1.388500
101.623200 1.352300
101.713200 1.369000
101.803200 1.419800
101.893100 1.451900
101.983100 1.435500
102.073100 1.404800
102.163000 1.405400
102.253000 1.410500
102.343000 1.377800
102.433000 1.366300
102.522900 1.390000
102.612900 1.465500
102.702900 1.560600
102.792900 1.628500
102.882800 1.642100
102.972800 1.654300
103.062800 1.658600
103.152700 1.615400
103.242700 1.607200
103.332700 1.597700
103.422700 1.591200
103.512600 1.652800
103.602600 1.743100
103.692600 1.652300
103.782600 1.579100
103.872500 1.507400
103.962500 1.435400
104.052500 1.426000
104.142400 1.438400
104.232400 1.454300
104.322400 1.468200
104.412400 1.405600
104.502300 1.388100
104.592300 1.411300
104.682300 1.406000
104.772300 1.391000
104.862200 1.377300
104.952200 1.394900
105.042200 1.419000
105.132100 1.410400
105.222100 1.414800
105.312100 1.435400
105.402100 1.494000
105.492000 1.563100
105.582000 1.615300
105.672000 1.578700
105.762000 1.532900
105.851900 1.478300
105.941900 1.468400
106.031900 1.463600
106.121800 1.447800
106.211800 1.468400
106.301800 1.434900
106.391800 1.453800
106.481700 1.486500
106.571700 1.554300
106.661700 1.540900
106.751700 1.515100
106.841600 1.468900
106.931600 1.443100
107.021600 1.423400
107.111500 1.410900
107.201500 1.440800
107.291500 1.467900
107.381500 1.498600
107.471400 1.542000
107.561400 1.560200
107.651400 1.574300
107.741300 1.613300
107.831300 1.651200
107.921300 1.683300
108.011300 1.773600
108.101200 1.820700
108.191200 1.789000
108.281200 1.723000
108.371200 1.631400
108.461100 1.578500
108.551100 1.563800
108.641100 1.604700
108.731000 1.603300
108.821000 1.578800
108.911000 1.578000
109.001000 1.630800
109.090900 1.708100
109.180900 1.727900
109.270900 1.737900
109.360900 1.650800
109.450800 1.601800
109.540800 1.542700
109.630800 1.528300
109.720700 1.551200
109.810700 1.524600
109.900700 1.464100
109.990700 1.435700
110.080600 1.426100
110.170600 1.429200
110.260600 1.454900
110.350600 1.462100
110.440500 1.468900
110.530500 1.515100
110.620500 1.565000
110.710400 1.611600
110.800400 1.682200
110.890400 1.676800
110.980400 1.644700
111.070300 1.616400
111.160300 1.560400
111.250300 1.513300
111.340300 1.481600
111.430200 1.453300
111.520200 1.452100
111.610200 1.450900
111.700100 1.418200
111.790100 1.392500
111.880100 1.382200
111.970100 1.366600
112.060000 1.363400
112.150000 1.365300
112.240000 1.392800
112.330000 1.457200
112.419900 1.475900
112.509900 1.481500
112.599900 1.516300
112.689800 1.505300
112.779800 1.539500
112.869800 1.558800
112.959800 1.559900
113.049700 1.606500
113.139700 1.626400
113.229700 1.613100
113.319700 1.674700
113.409600 1.805100
113.499600 1.759600
113.589600 1.680300
113.679500 1.639300
113.769500 1.580200
113.859500 1.526200
113.949500 1.497300
114.039400 1.479200
114.129400 1.467100
114.219400 1.489200
114.309400 1.513500
114.399300 1.619100
114.489300 1.711300
114.579300 1.759800
114.669200 1.733700
114.759200 1.622700
114.849200 1.589400
114.939200 1.600300
115.029100 1.611500
115.119100 1.634300
115.209100 1.645400
115.299100 1.570100
115.389000 1.553100
115.479000 1.575100
115.569000 1.584200
115.658900 1.576600
115.748900 1.691800
115.838900 1.783500
115.928900 1.804800
116.018800 1.770600
116.108800 1.703900
116.198800 1.690100
116.288800 1.731200
116.378700 1.651700
116.468700 1.634200
116.558700 1.630800
116.648600 1.632900
116.738600 1.638500
116.828600 1.657300
116.918600 1.626700
117.008500 1.539500
117.098500 1.489600
117.188500 1.480400
117.278400 1.479800
117.368400 1.506700
117.458400 1.666000
117.548400 1.592200
117.638300 1.564100
117.728300 1.572600
117.818300 1.615200
117.908300 1.648200
117.998200 1.709400
118.088200 1.822500
118.178200 1.715500
118.268100 1.719200
118.358100 1.591300
118.448100 1.481500
118.538100 1.428900
118.628000 1.418900
118.718000 1.446700
118.808000 1.508400
118.898000 1.572100
118.987900 1.592400
119.077900 1.644500
119.167900 1.630500
119.257800 1.602000
119.347800 1.642400
119.437800 1.728400
119.527800 1.742200
119.617700 1.684200
119.707700 1.651000
119.797700 1.659100
119.887700 1.609700
119.977600 1.578600
120.067600 1.658800
120.157600 1.665900
120.247500 1.685600
120.337500 1.614300
120.427500 1.571300
120.517500 1.553800
120.607400 1.526700
120.697400 1.490600
120.787400 1.505700
120.877400 1.539100
120.967300 1.611800
121.057300 1.635400
121.147300 1.602300
121.237200 1.544400
121.327200 1.467200
121.417200 1.518200
121.507200 1.598300
121.597100 1.644800
121.687100 1.644600
121.777100 1.582800
121.867100 1.590600
121.957000 1.595500
122.047000 1.595100
122.137000 1.596700
122.226900 1.602700
122.316900 1.601300
122.406900 1.592800
122.496900 1.567400
122.586800 1.482900
122.676800 1.429900
122.766800 1.409000
122.856800 1.416500
122.946700 1.443000
123.036700 1.472400
123.126700 1.507400
123.216600 1.536700
123.306600 1.603000
123.396600 1.593500
123.486600 1.530700
123.576500 1.465600
123.666500 1.520200
123.756500 1.527700
123.846500 1.544500
123.936400 1.486600
124.026400 1.482300
124.116400 1.523500
124.206300 1.507600
124.296300 1.535200
124.386300 1.535100
124.476300 1.515500
124.566200 1.492800
124.656200 1.553500
124.746200 1.597500
124.836200 1.575900
124.926100 1.547000
125.016100 1.489300
125.106100 1.479300
125.196000 1.469300
125.286000 1.479100
125.376000 1.379100
125.466000 1.334400
125.555900 1.329400
125.645900 1.408900
125.735900 1.519000
125.825800 1.625000
125.915800 1.807900
126.005800 1.860400
126.095800 1.820100
126.185700 1.757000
126.275700 1.690300
126.365700 1.603600
126.455700 1.560300
126.545600 1.492000
126.635600 1.507600
126.725600 1.600900
126.815500 1.695900
126.905500 1.741900
126.995500 1.727900
127.085500 1.684900
127.175400 1.676200
127.265400 1.695100
127.355400 1.668100
127.445400 1.628000
127.535300 1.501000
127.625300 1.440400
127.715300 1.499900
127.805200 1.547500
127.895200 1.556100
127.985200 1.589500
128.075200 1.599700
128.165100 1.636000
128.255100 1.631200
128.345100 1.583100
128.435100 1.541100
128.525000 1.506200
128.615000 1.470500
128.705000 1.419700
128.794900 1.306300
128.884900 1.233900
128.974900 1.136600
129.064900 1.068900
129.154800 0.975500
129.244800 0.939700
129.334800 0.889800
129.424800 0.822500
129.514700 0.770700
129.604700 0.716600
129.694700 0.644700
129.784600 0.578700
129.874600 0.530200
129.964600 0.510900
130.054600 0.501900
130.144500 0.438100
130.234500 0.388400
130.324500 0.346000
130.414500 0.321600
130.504400 0.228000
130.594400 0.179700
130.684400 0.146800
130.774300 0.118600
130.864300 0.098100
130.954300 0.082200
131.044300 0.069400
131.134200 0.060200
131.224200 0.051300
131.314200 0.044300
131.404200 0.039400
131.494100 0.035200
131.584100 0.031500
131.674100 0.028400
131.764000 0.025900
131.854000 0.022600
131.944000 0.021400
132.034000 0.020500
132.123900 0.020400
132.213900 0.020200
132.303900 0.019700
132.393900 0.019100
132.483800 0.018500
132.573800 0.016800
132.663800 0.014400
132.753700 0.011400
132.843700 0.008100
132.933700 0.005200
133.023700 0.003500
133.113600 0.002900
133.203600 0.002600
133.293600 0.002300
133.383600 0.002100
133.473500 0.001800
133.563500 0.001600
133.653500 0.001400
133.743400 0.001200
133.833400 0.001000
133.923400 0.000800
134.013400 0.000600
134.103300 0.000500
134.193300 0.000400
134.283300 0.000300
134.373300 0.000200
134.463200 0.000100
134.553200 0.000100
134.643200 0.000000
134.733100 0.000000
134.823100 0.000000
134.913100 0.000000
135.003100 0.000000
135.093000 0.000000
135.183000 0.000000
135.273000 0.000000
135.362900 0.000000
135.452900 0.000000
135.542900 0.000000
135.632900 0.000000
135.722800 0.000000
135.812800 0.000000
135.902800 0.000000
135.992800 0.000000
136.082700 0.000000
136.172700 0.000000
136.262700 0.000000
136.352600 0.000000
136.442600 0.000000
136.532600 0.000000
136.622600 0.000000
136.712500 0.000000
136.802500 0.000000
136.892500 0.000000
136.982500 0.000000
137.072400 0.000000
137.162400 0.000000
137.252400 0.000000
137.342300 0.000000
137.432300 0.000000
137.522300 0.000000
137.612300 0.000000
137.702200 0.000000
137.792200 0.000000
137.882200 0.000000
137.972200 0.000000
138.062100 0.000000
138.152100 0.000000
138.242100 0.000000
138.332000 0.000000
138.422000 0.000000
138.512000 0.000000
138.602000 0.000000
138.691900 0.000000
138.781900 0.000000
138.871900 0.000000
138.961900 0.000000
139.051800 0.000000
139.141800 0.000000
139.231800 0.000000
139.321700 0.000000
139.411700 0.000000
139.501700 0.000000
139.591700 0.000000
139.681600 0.000000
139.771600 0.000000
139.861600 0.000000
139.951600 0.000000
140.041500 0.000000
140.131500 0.000000
140.221500 0.000000
140.311400 0.000000
140.401400 0.000000
140.491400 0.000000
140.581400 0.000000
140.671300 0.000000
140.761300 0.000000
140.851300 0.000000
140.941300 0.000000
141.031200 0.000000
141.121200 0.000000
141.211200 0.000000
141.301100 0.000000
141.391100 0.000000
141.481100 0.000000
141.571100 0.000000
141.661000 0.000000
141.751000 0.000000
141.841000 0.000000
141.931000 0.000000
142.020900 0.000000
142.110900 0.000000
142.200900 0.000000
142.290800 0.000000
142.380800 0.000000
142.470800 0.000000
142.560800 0.000000
142.650700 0.000000
142.740700 0.000000
142.830700 0.000000
142.920700 0.000000
143.010600 0.000000
e
