set title 'mp-1183651 - Density of States'
set xlabel 'Energy (eV)'
set ylabel 'DOS (states/eV)'
set grid
set xrange [-10:10]
set yrange [0:51.580]
set xzeroaxis lt -1
set terminal png size 800,600
set output 'mp-1183651_dos_gnuplot.png'
plot '-' using 1:2 with lines title 'DOS'
-10.012200 0.000000
-9.994200 0.000000
-9.976300 0.000000
-9.958300 0.000000
-9.940300 0.000000
-9.922400 0.000000
-9.904400 0.000000
-9.886400 0.000000
-9.868500 0.000000
-9.850500 0.000000
-9.832500 0.000000
-9.814600 0.000000
-9.796600 0.000000
-9.778700 0.000000
-9.760700 0.000000
-9.742700 0.000000
-9.724800 0.000000
-9.706800 0.000000
-9.688800 0.000000
-9.670900 0.000000
-9.652900 0.000000
-9.634900 0.000000
-9.617000 0.000000
-9.599000 0.000000
-9.581000 0.000000
-9.563100 0.000000
-9.545100 0.000000
-9.527100 0.000000
-9.509200 0.000000
-9.491200 0.000000
-9.473200 0.000000
-9.455300 0.000000
-9.437300 0.000000
-9.419400 0.000000
-9.401400 0.000000
-9.383400 0.000000
-9.365500 0.000000
-9.347500 0.000000
-9.329500 0.000000
-9.311600 0.000000
-9.293600 0.000000
-9.275600 0.000000
-9.257700 0.000000
-9.239700 0.000000
-9.221700 0.000000
-9.203800 0.000000
-9.185800 0.000000
-9.167800 0.000000
-9.149900 0.000000
-9.131900 0.000000
-9.114000 0.000000
-9.096000 0.000000
-9.078000 0.000000
-9.060100 0.000000
-9.042100 0.000000
-9.024100 0.000000
-9.006200 0.000000
-8.988200 0.000000
-8.970200 0.000000
-8.952300 0.000000
-8.934300 0.000000
-8.916300 0.000000
-8.898400 0.000000
-8.880400 0.000000
-8.862400 0.000000
-8.844500 0.000000
-8.826500 0.000000
-8.808600 0.000000
-8.790600 0.000000
-8.772600 0.000000
-8.754700 0.000000
-8.736700 0.000000
-8.718700 0.000000
-8.700800 0.000000
-8.682800 0.000000
-8.664800 0.000000
-8.646900 0.000000
-8.628900 0.000000
-8.610900 0.000000
-8.593000 0.000000
-8.575000 0.000000
-8.557000 0.000000
-8.539100 0.000000
-8.521100 0.000000
-8.503200 0.000000
-8.485200 0.000300
-8.467200 0.001400
-8.449300 0.005400
-8.431300 0.017100
-8.413300 0.045800
-8.395400 0.104100
-8.377400 0.203500
-8.359400 0.345400
-8.341500 0.514300
-8.323500 0.682300
-8.305500 0.827000
-8.287600 0.955300
-8.269600 1.109500
-8.251600 1.334900
-8.233700 1.625700
-8.215700 1.911400
-8.197700 2.111400
-8.179800 2.205100
-8.161800 2.252600
-8.143900 2.350300
-8.125900 2.553600
-8.107900 2.830500
-8.090000 3.095000
-8.072000 3.295700
-8.054000 3.465100
-8.036100 3.687000
-8.018100 4.052200
-8.000100 4.662100
-7.982200 5.628800
-7.964200 7.008300
-7.946200 8.656500
-7.928300 10.070500
-7.910300 10.466200
-7.892300 9.301600
-7.874400 6.851500
-7.856400 4.098000
-7.838500 1.964400
-7.820500 0.748400
-7.802500 0.225400
-7.784600 0.053400
-7.766600 0.009900
-7.748600 0.001500
-7.730700 0.000200
-7.712700 0.000000
-7.694700 0.000000
-7.676800 0.000000
-7.658800 0.000000
-7.640800 0.000000
-7.622900 0.000000
-7.604900 0.000000
-7.586900 0.000000
-7.569000 0.000000
-7.551000 0.000000
-7.533100 0.000000
-7.515100 0.000000
-7.497100 0.000000
-7.479200 0.000000
-7.461200 0.000000
-7.443200 0.000000
-7.425300 0.000000
-7.407300 0.000000
-7.389300 0.000000
-7.371400 0.000000
-7.353400 0.000000
-7.335400 0.000000
-7.317500 0.000000
-7.299500 0.000000
-7.281500 0.000000
-7.263600 0.000000
-7.245600 0.000000
-7.227600 0.000000
-7.209700 0.000000
-7.191700 0.000000
-7.173800 0.000000
-7.155800 0.000000
-7.137800 0.000000
-7.119900 0.000000
-7.101900 0.000000
-7.083900 0.000000
-7.066000 0.000000
-7.048000 0.000000
-7.030000 0.000000
-7.012100 0.000000
-6.994100 0.000000
-6.976100 0.000000
-6.958200 0.000000
-6.940200 0.000000
-6.922200 0.000000
-6.904300 0.000000
-6.886300 0.000000
-6.868400 0.000000
-6.850400 0.000000
-6.832400 0.000000
-6.814500 0.000000
-6.796500 0.000000
-6.778500 0.000000
-6.760600 0.000000
-6.742600 0.000000
-6.724600 0.000000
-6.706700 0.000000
-6.688700 0.000000
-6.670700 0.000000
-6.652800 0.000000
-6.634800 0.000000
-6.616800 0.000000
-6.598900 0.000000
-6.580900 0.000000
-6.563000 0.000000
-6.545000 0.000000
-6.527000 0.000000
-6.509100 0.000000
-6.491100 0.000000
-6.473100 0.000000
-6.455200 0.000000
-6.437200 0.000000
-6.419200 0.000000
-6.401300 0.000000
-6.383300 0.000000
-6.365300 0.000000
-6.347400 0.000000
-6.329400 0.000000
-6.311400 0.000000
-6.293500 0.000000
-6.275500 0.000000
-6.257600 0.000000
-6.239600 0.000000
-6.221600 0.000000
-6.203700 0.000000
-6.185700 0.000000
-6.167700 0.000000
-6.149800 0.000000
-6.131800 0.000000
-6.113800 0.000000
-6.095900 0.000000
-6.077900 0.000000
-6.059900 0.000000
-6.042000 0.000000
-6.024000 0.000000
-6.006000 0.000000
-5.988100 0.000000
-5.970100 0.000000
-5.952100 0.000000
-5.934200 0.000000
-5.916200 0.000000
-5.898300 0.000000
-5.880300 0.000000
-5.862300 0.000000
-5.844400 0.000000
-5.826400 0.000000
-5.808400 0.000000
-5.790500 0.000000
-5.772500 0.000000
-5.754500 0.000000
-5.736600 0.000000
-5.718600 0.000000
-5.700600 0.000000
-5.682700 0.000200
-5.664700 0.001300
-5.646700 0.006700
-5.628800 0.028400
-5.610800 0.098400
-5.592900 0.280100
-5.574900 0.663900
-5.556900 1.335800
-5.539000 2.347400
-5.521000 3.728300
-5.503000 5.538800
-5.485100 7.925000
-5.467100 11.167800
-5.449100 15.653300
-5.431200 21.594200
-5.413200 28.584400
-5.395200 35.496000
-5.377300 41.042400
-5.359300 44.555200
-5.341300 46.240100
-5.323400 46.800400
-5.305400 46.891000
-5.287500 46.732500
-5.269500 46.060300
-5.251500 44.549100
-5.233600 42.360000
-5.215600 40.077700
-5.197600 38.080300
-5.179700 36.254700
-5.161700 34.422600
-5.143700 32.756400
-5.125800 31.647800
-5.107800 31.374700
-5.089800 31.909500
-5.071900 32.824500
-5.053900 33.466600
-5.035900 33.498600
-5.018000 33.230700
-5.000000 33.267700
-4.982000 33.932400
-4.964100 35.121200
-4.946100 36.548300
-4.928200 37.962100
-4.910200 39.183200
-4.892200 40.099600
-4.874300 40.804800
-4.856300 41.734500
-4.838300 43.293500
-4.820400 45.045700
-4.802400 45.548600
-4.784400 43.448700
-4.766500 38.745400
-4.748500 32.762600
-4.730500 26.988800
-4.712600 22.126900
-4.694600 18.056800
-4.676600 14.376900
-4.658700 10.928100
-4.640700 7.937100
-4.622800 5.763100
-4.604800 4.516200
-4.586800 3.897500
-4.568900 3.433200
-4.550900 2.880800
-4.532900 2.355000
-4.515000 2.052300
-4.497000 1.952900
-4.479000 1.848600
-4.461100 1.578200
-4.443100 1.159500
-4.425100 0.722400
-4.407200 0.380100
-4.389200 0.168100
-4.371200 0.062000
-4.353300 0.018800
-4.335300 0.004600
-4.317400 0.000900
-4.299400 0.000100
-4.281400 0.000000
-4.263500 0.000000
-4.245500 0.000000
-4.227500 0.000000
-4.209600 0.000000
-4.191600 0.000000
-4.173600 0.000000
-4.155700 0.000000
-4.137700 0.000000
-4.119700 0.000000
-4.101800 0.000000
-4.083800 0.000000
-4.065800 0.000000
-4.047900 0.000000
-4.029900 0.000000
-4.012000 0.000000
-3.994000 0.000000
-3.976000 0.000000
-3.958100 0.000000
-3.940100 0.000000
-3.922100 0.000000
-3.904200 0.000000
-3.886200 0.000000
-3.868200 0.000000
-3.850300 0.000000
-3.832300 0.000000
-3.814300 0.000000
-3.796400 0.000000
-3.778400 0.000000
-3.760400 0.000000
-3.742500 0.000000
-3.724500 0.000000
-3.706500 0.000000
-3.688600 0.000000
-3.670600 0.000000
-3.652700 0.000000
-3.634700 0.000000
-3.616700 0.000000
-3.598800 0.000000
-3.580800 0.000000
-3.562800 0.000000
-3.544900 0.000000
-3.526900 0.000000
-3.508900 0.000000
-3.491000 0.000000
-3.473000 0.000000
-3.455000 0.000000
-3.437100 0.000000
-3.419100 0.000000
-3.401100 0.000000
-3.383200 0.000000
-3.365200 0.000000
-3.347300 0.000000
-3.329300 0.000000
-3.311300 0.000000
-3.293400 0.000000
-3.275400 0.000000
-3.257400 0.000000
-3.239500 0.000000
-3.221500 0.000000
-3.203500 0.000000
-3.185600 0.000000
-3.167600 0.000000
-3.149600 0.000000
-3.131700 0.000000
-3.113700 0.000200
-3.095700 0.000800
-3.077800 0.002900
-3.059800 0.008600
-3.041900 0.020100
-3.023900 0.038400
-3.005900 0.061400
-2.988000 0.085000
-2.970000 0.103400
-2.952000 0.110000
-2.934100 0.101300
-2.916100 0.086300
-2.898100 0.088300
-2.880200 0.131500
-2.862200 0.217800
-2.844200 0.311500
-2.826300 0.356800
-2.808300 0.324900
-2.790300 0.240700
-2.772400 0.156100
-2.754400 0.104900
-2.736400 0.091800
-2.718500 0.111400
-2.700500 0.158000
-2.682600 0.221300
-2.664600 0.289000
-2.646600 0.352900
-2.628700 0.401500
-2.610700 0.413800
-2.592700 0.385100
-2.574800 0.353800
-2.556800 0.375600
-2.538800 0.466900
-2.520900 0.586000
-2.502900 0.671900
-2.484900 0.687000
-2.467000 0.633100
-2.449000 0.551300
-2.431000 0.511200
-2.413100 0.579300
-2.395100 0.773800
-2.377200 1.046700
-2.359200 1.323600
-2.341200 1.572400
-2.323300 1.817200
-2.305300 2.070300
-2.287300 2.286300
-2.269400 2.422800
-2.251400 2.516700
-2.233400 2.635200
-2.215500 2.759400
-2.197500 2.777800
-2.179500 2.610700
-2.161600 2.302600
-2.143600 1.980500
-2.125600 1.749900
-2.107700 1.644300
-2.089700 1.656000
-2.071800 1.783100
-2.053800 2.027700
-2.035800 2.351300
-2.017900 2.644900
-1.999900 2.762200
-1.981900 2.615800
-1.964000 2.263500
-1.946000 1.876300
-1.928000 1.597400
-1.910100 1.436200
-1.892100 1.309200
-1.874100 1.173600
-1.856200 1.095500
-1.838200 1.179500
-1.820200 1.456200
-1.802300 1.852400
-1.784300 2.238700
-1.766400 2.489200
-1.748400 2.532700
-1.730400 2.388000
-1.712500 2.151300
-1.694500 1.936500
-1.676500 1.811400
-1.658600 1.764700
-1.640600 1.718200
-1.622600 1.585200
-1.604700 1.349000
-1.586700 1.089100
-1.568700 0.912600
-1.550800 0.859900
-1.532800 0.888200
-1.514800 0.933900
-1.496900 0.965400
-1.478900 0.974400
-1.460900 0.949200
-1.443000 0.888600
-1.425000 0.838700
-1.407100 0.888500
-1.389100 1.103500
-1.371100 1.447200
-1.353200 1.762800
-1.335200 1.857300
-1.317200 1.645800
-1.299300 1.227100
-1.281300 0.805300
-1.263300 0.541300
-1.245400 0.483200
-1.227400 0.590700
-1.209400 0.772100
-1.191500 0.913100
-1.173500 0.933900
-1.155500 0.846400
-1.137600 0.735400
-1.119600 0.676200
-1.101700 0.681200
-1.083700 0.721200
-1.065700 0.768100
-1.047800 0.799400
-1.029800 0.788800
-1.011800 0.719300
-0.993900 0.603000
-0.975900 0.485100
-0.957900 0.437700
-0.940000 0.538400
-0.922000 0.816800
-0.904000 1.206700
-0.886100 1.572200
-0.868100 1.805500
-0.850100 1.895200
-0.832200 1.896500
-0.814200 1.860900
-0.796300 1.814100
-0.778300 1.774200
-0.760300 1.746800
-0.742400 1.710800
-0.724400 1.648200
-0.706400 1.579600
-0.688500 1.532100
-0.670500 1.487400
-0.652500 1.410700
-0.634600 1.312100
-0.616600 1.241100
-0.598600 1.234900
-0.580700 1.291700
-0.562700 1.374300
-0.544700 1.426800
-0.526800 1.406300
-0.508800 1.319700
-0.490800 1.237000
-0.472900 1.250800
-0.454900 1.401900
-0.437000 1.638900
-0.419000 1.840800
-0.401000 1.876200
-0.383100 1.691200
-0.365100 1.375100
-0.347100 1.105700
-0.329200 0.999100
-0.311200 1.031400
-0.293200 1.099000
-0.275300 1.130000
-0.257300 1.151800
-0.239300 1.258800
-0.221400 1.494400
-0.203400 1.764000
-0.185400 1.909000
-0.167500 1.870800
-0.149500 1.740500
-0.131600 1.642400
-0.113600 1.618600
-0.095600 1.646500
-0.077700 1.724500
-0.059700 1.885500
-0.041700 2.117400
-0.023800 2.314300
-0.005800 2.358900
0.012200 2.248200
0.030100 2.099800
0.048100 2.047800
0.066100 2.156200
0.084000 2.390300
0.102000 2.632300
0.120000 2.744400
0.137900 2.665800
0.155900 2.454800
0.173800 2.225500
0.191800 2.050000
0.209800 1.934400
0.227700 1.872300
0.245700 1.884400
0.263700 1.991200
0.281600 2.176900
0.299600 2.405000
0.317600 2.648800
0.335500 2.882500
0.353500 3.054900
0.371500 3.102600
0.389400 2.996200
0.407400 2.767700
0.425400 2.493700
0.443300 2.249800
0.461300 2.073100
0.479200 1.952300
0.497200 1.836000
0.515200 1.664500
0.533100 1.427000
0.551100 1.188200
0.569100 1.023300
0.587000 0.932400
0.605000 0.851200
0.623000 0.747300
0.640900 0.670700
0.658900 0.694100
0.676900 0.819400
0.694800 0.964000
0.712800 1.037800
0.730800 1.010500
0.748700 0.908900
0.766700 0.790400
0.784700 0.738800
0.802600 0.849800
0.820600 1.163400
0.838500 1.596300
0.856500 1.979800
0.874500 2.206000
0.892400 2.310900
0.910400 2.379000
0.928400 2.402400
0.946300 2.281700
0.964300 1.947700
0.982300 1.448900
1.000200 0.931300
1.018200 0.548400
1.036200 0.378500
1.054100 0.406900
1.072100 0.572100
1.090100 0.821600
1.108000 1.125800
1.126000 1.444500
1.143900 1.704400
1.161900 1.837400
1.179900 1.836500
1.197800 1.754100
1.215800 1.647700
1.233800 1.542400
1.251700 1.442200
1.269700 1.366000
1.287700 1.361000
1.305600 1.468600
1.323600 1.670900
1.341600 1.878600
1.359500 1.987500
1.377500 1.953300
1.395500 1.808000
1.413400 1.610000
1.431400 1.404200
1.449300 1.233100
1.467300 1.145000
1.485300 1.162000
1.503200 1.257200
1.521200 1.368500
1.539200 1.437600
1.557100 1.458400
1.575100 1.488400
1.593100 1.588100
1.611000 1.756400
1.629000 1.952500
1.647000 2.170000
1.664900 2.446200
1.682900 2.780800
1.700900 3.074600
1.718800 3.187400
1.736800 3.061500
1.754800 2.773900
1.772700 2.463900
1.790700 2.233000
1.808600 2.121300
1.826600 2.135600
1.844600 2.249500
1.862500 2.381100
1.880500 2.415500
1.898500 2.279100
1.916400 1.998900
1.934400 1.691500
1.952400 1.471300
1.970300 1.354700
1.988300 1.272300
2.006300 1.189900
2.024200 1.192500
2.042200 1.410500
2.060200 1.857700
2.078100 2.367700
2.096100 2.714600
2.114000 2.796200
2.132000 2.690900
2.150000 2.562900
2.167900 2.537800
2.185900 2.623700
2.203900 2.699600
2.221800 2.610100
2.239800 2.297400
2.257800 1.833000
2.275700 1.353300
2.293700 0.991800
2.311700 0.825700
2.329600 0.833900
2.347600 0.909500
2.365600 0.940600
2.383500 0.890100
2.401500 0.800600
2.419400 0.740900
2.437400 0.768100
2.455400 0.914500
2.473300 1.151900
2.491300 1.367600
2.509300 1.445400
2.527200 1.394400
2.545200 1.348900
2.563200 1.419200
2.581100 1.573600
2.599100 1.671600
2.617100 1.594100
2.635000 1.348100
2.653000 1.065100
2.671000 0.894200
2.688900 0.882500
2.706900 0.947500
2.724800 0.965400
2.742800 0.889600
2.760800 0.788900
2.778700 0.781200
2.796700 0.948500
2.814700 1.299900
2.832600 1.762400
2.850600 2.181400
2.868600 2.384300
2.886500 2.303100
2.904500 2.025600
2.922500 1.711300
2.940400 1.487600
2.958400 1.428400
2.976400 1.554900
2.994300 1.800000
3.012300 2.005800
3.030300 2.029900
3.048200 1.868200
3.066200 1.642500
3.084100 1.483700
3.102100 1.456700
3.120100 1.568200
3.138000 1.781700
3.156000 2.009200
3.174000 2.132500
3.191900 2.082500
3.209900 1.917500
3.227900 1.800700
3.245800 1.858800
3.263800 2.050600
3.281800 2.201600
3.299700 2.173600
3.317700 1.978500
3.335700 1.733500
3.353600 1.542300
3.371600 1.421900
3.389500 1.320100
3.407500 1.188600
3.425500 1.038800
3.443400 0.936700
3.461400 0.958200
3.479400 1.141100
3.497300 1.443800
3.515300 1.738000
3.533300 1.877500
3.551200 1.808600
3.569200 1.608100
3.587200 1.404900
3.605100 1.288700
3.623100 1.301200
3.641100 1.468600
3.659000 1.796700
3.677000 2.240700
3.694900 2.701700
3.712900 3.068100
3.730900 3.273600
3.748800 3.319500
3.766800 3.241200
3.784800 3.074600
3.802700 2.871700
3.820700 2.701800
3.838700 2.591100
3.856600 2.480300
3.874600 2.282000
3.892600 1.990900
3.910500 1.729800
3.928500 1.661300
3.946500 1.841100
3.964400 2.170900
3.982400 2.496300
4.000400 2.710000
4.018300 2.759300
4.036300 2.618900
4.054200 2.317100
4.072200 1.967200
4.090200 1.721900
4.108100 1.682400
4.126100 1.858300
4.144100 2.198300
4.162000 2.629500
4.180000 3.075500
4.198000 3.469400
4.215900 3.760700
4.233900 3.913800
4.251900 3.919800
4.269800 3.807800
4.287800 3.610700
4.305800 3.337900
4.323700 3.013700
4.341700 2.709800
4.359600 2.493900
4.377600 2.366900
4.395600 2.275500
4.413500 2.156000
4.431500 1.961900
4.449500 1.698700
4.467400 1.451500
4.485400 1.339500
4.503400 1.410500
4.521300 1.583900
4.539300 1.714300
4.557300 1.721800
4.575200 1.646600
4.593200 1.566200
4.611200 1.489500
4.629100 1.362900
4.647100 1.160100
4.665000 0.923700
4.683000 0.714400
4.701000 0.561300
4.718900 0.481500
4.736900 0.508900
4.754900 0.668300
4.772800 0.923800
4.790800 1.171400
4.808800 1.295900
4.826700 1.258700
4.844700 1.138600
4.862700 1.066400
4.880600 1.105000
4.898600 1.202600
4.916600 1.274500
4.934500 1.300800
4.952500 1.311800
4.970400 1.295500
4.988400 1.187300
5.006400 0.973900
5.024300 0.750800
5.042300 0.629700
5.060300 0.615300
5.078200 0.613000
5.096200 0.548300
5.114200 0.449300
5.132100 0.409200
5.150100 0.494400
5.168100 0.694700
5.186000 0.939500
5.204000 1.148400
5.222000 1.287400
5.239900 1.389800
5.257900 1.511100
5.275900 1.660500
5.293800 1.783300
5.311800 1.801500
5.329700 1.666700
5.347700 1.391700
5.365700 1.046200
5.383600 0.717500
5.401600 0.469000
5.419600 0.327000
5.437500 0.297300
5.455500 0.388400
5.473500 0.617500
5.491400 0.987800
5.509400 1.457400
5.527400 1.939600
5.545300 2.344400
5.563300 2.611900
5.581300 2.698500
5.599200 2.563400
5.617200 2.216100
5.635100 1.770500
5.653100 1.406400
5.671100 1.256800
5.689000 1.319000
5.707000 1.456200
5.725000 1.502800
5.742900 1.404300
5.760900 1.264100
5.778900 1.253400
5.796800 1.474000
5.814800 1.873000
5.832800 2.264400
5.850700 2.468800
5.868700 2.466900
5.886700 2.388100
5.904600 2.343000
5.922600 2.326200
5.940500 2.290500
5.958500 2.241900
5.976500 2.231400
5.994400 2.304300
6.012400 2.469400
6.030400 2.660000
6.048300 2.734200
6.066300 2.590700
6.084300 2.296200
6.102200 2.038800
6.120200 1.941300
6.138200 1.955300
6.156100 1.954900
6.174100 1.902900
6.192100 1.876600
6.210000 1.936800
6.228000 2.029800
6.246000 2.045800
6.263900 1.935600
6.281900 1.752900
6.299800 1.603100
6.317800 1.560300
6.335800 1.615400
6.353700 1.701900
6.371700 1.783500
6.389700 1.894000
6.407600 2.067000
6.425600 2.255800
6.443600 2.366600
6.461500 2.359100
6.479500 2.285500
6.497500 2.244900
6.515400 2.310300
6.533400 2.470600
6.551400 2.621500
6.569300 2.621400
6.587300 2.388500
6.605200 1.971100
6.623200 1.529300
6.641200 1.230300
6.659100 1.144400
6.677100 1.231500
6.695100 1.409100
6.713000 1.602900
6.731000 1.736500
6.749000 1.734900
6.766900 1.602400
6.784900 1.477500
6.802900 1.545900
6.820800 1.883700
6.838800 2.398500
6.856800 2.900900
6.874700 3.220200
6.892700 3.286600
6.910600 3.140200
6.928600 2.873700
6.946600 2.576400
6.964500 2.324000
6.982500 2.170200
7.000500 2.123600
7.018400 2.157900
7.036400 2.259300
7.054400 2.432000
7.072300 2.641700
7.090300 2.796300
7.108300 2.830300
7.126200 2.795900
7.144200 2.832200
7.162200 3.039600
7.180100 3.397100
7.198100 3.785400
7.216000 4.062500
7.234000 4.125400
7.252000 3.944800
7.269900 3.566800
7.287900 3.083700
7.305900 2.610500
7.323800 2.269000
7.341800 2.131300
7.359800 2.157600
7.377700 2.235400
7.395700 2.291000
7.413700 2.347700
7.431600 2.479300
7.449600 2.711600
7.467600 2.962000
7.485500 3.098200
7.503500 3.078400
7.521500 3.004300
7.539400 3.003000
7.557400 3.066100
7.575300 3.034800
7.593300 2.764500
7.611300 2.304000
7.629200 1.901600
7.647200 1.813200
7.665200 2.091100
7.683100 2.557700
7.701100 2.973100
7.719100 3.210900
7.737000 3.283600
7.755000 3.246000
7.773000 3.125100
7.790900 2.940200
7.808900 2.727300
7.826900 2.518800
7.844800 2.342900
7.862800 2.250600
7.880700 2.269200
7.898700 2.318400
7.916700 2.253000
7.934600 2.023000
7.952600 1.740000
7.970600 1.573900
7.988500 1.618100
8.006500 1.837200
8.024500 2.102600
8.042400 2.291100
8.060400 2.387400
8.078400 2.475100
8.096300 2.610200
8.114300 2.736100
8.132300 2.744200
8.150200 2.581200
8.168200 2.287700
8.186100 1.974900
8.204100 1.757400
8.222100 1.668200
8.240000 1.647600
8.258000 1.630200
8.276000 1.611600
8.293900 1.620900
8.311900 1.669100
8.329900 1.749200
8.347800 1.860900
8.365800 2.012800
8.383800 2.197800
8.401700 2.378800
8.419700 2.502900
8.437700 2.536500
8.455600 2.494200
8.473600 2.436600
8.491600 2.441800
8.509500 2.556900
8.527500 2.747100
8.545400 2.891400
8.563400 2.856300
8.581400 2.601200
8.599300 2.223800
8.617300 1.884300
8.635300 1.682500
8.653200 1.630400
8.671200 1.716300
8.689200 1.911600
8.707100 2.110700
8.725100 2.167600
8.743100 2.041500
8.761000 1.850400
8.779000 1.746500
8.797000 1.774500
8.814900 1.865500
8.832900 1.942100
8.850800 2.006200
8.868800 2.115400
8.886800 2.280100
8.904700 2.418700
8.922700 2.439400
8.940700 2.347000
8.958600 2.236600
8.976600 2.184800
8.994600 2.163600
9.012500 2.075800
9.030500 1.879400
9.048500 1.661200
9.066400 1.573900
9.084400 1.703000
9.102400 2.000500
9.120300 2.337900
9.138300 2.611200
9.156200 2.789300
9.174200 2.883300
9.192200 2.912400
9.210100 2.884400
9.228100 2.764100
9.246100 2.492900
9.264000 2.095700
9.282000 1.730200
9.300000 1.567800
9.317900 1.636400
9.335900 1.808400
9.353900 1.924900
9.371800 1.913200
9.389800 1.818400
9.407800 1.773200
9.425700 1.938600
9.443700 2.421100
9.461600 3.181300
9.479600 3.988200
9.497600 4.508500
9.515500 4.517400
9.533500 4.054200
9.551500 3.371700
9.569400 2.751100
9.587400 2.355800
9.605400 2.199400
9.623300 2.189800
9.641300 2.200500
9.659300 2.152200
9.677200 2.072000
9.695200 2.069200
9.713200 2.228700
9.731100 2.514000
9.749100 2.766100
9.767100 2.812800
9.785000 2.612800
9.803000 2.294200
9.820900 2.037500
9.838900 1.936400
9.856900 1.968200
9.874800 2.058400
9.892800 2.143900
9.910800 2.184600
9.928700 2.138500
9.946700 1.961900
9.964700 1.661800
9.982600 1.337400
10.000600 1.146200
10.018600 1.215100
10.036500 1.563100
10.054500 2.087800
10.072500 2.635400
10.090400 3.099600
10.108400 3.446200
10.126300 3.662700
10.144300 3.729600
10.162300 3.638300
10.180200 3.392900
10.198200 2.997600
10.216200 2.495400
10.234100 2.012400
10.252100 1.715000
10.270100 1.705400
10.288000 1.955700
10.306000 2.323100
10.324000 2.631800
10.341900 2.772300
10.359900 2.746300
10.377900 2.624900
10.395800 2.473700
10.413800 2.320800
10.431700 2.169700
10.449700 2.021000
10.467700 1.885500
10.485600 1.790900
10.503600 1.767600
10.521600 1.817200
10.539500 1.892400
10.557500 1.908700
10.575500 1.789500
10.593400 1.524800
10.611400 1.202000
10.629400 0.973300
10.647300 0.973500
10.665300 1.248300
10.683300 1.740400
10.701200 2.324100
10.719200 2.849400
10.737200 3.176300
10.755100 3.215000
10.773100 2.959500
10.791000 2.486800
10.809000 1.933700
10.827000 1.467300
10.844900 1.233300
10.862900 1.295700
10.880900 1.609700
10.898800 2.046700
10.916800 2.462100
10.934800 2.766500
10.952700 2.929100
10.970700 2.922600
10.988700 2.715900
11.006600 2.338200
11.024600 1.903300
11.042600 1.541500
11.060500 1.328200
11.078500 1.273000
11.096400 1.338600
11.114400 1.460100
11.132400 1.578500
11.150300 1.679200
11.168300 1.788500
11.186300 1.924300
11.204200 2.054400
11.222200 2.103000
11.240200 2.005400
11.258100 1.771500
11.276100 1.492800
11.294100 1.283200
11.312000 1.206400
11.330000 1.239000
11.348000 1.290000
11.365900 1.279500
11.383900 1.215600
11.401800 1.189800
11.419800 1.305900
11.437800 1.612500
11.455700 2.074500
11.473700 2.586100
11.491700 3.013600
11.509600 3.241800
11.527600 3.209900
11.545600 2.941300
11.563500 2.553800
11.581500 2.217500
11.599500 2.058900
11.617400 2.080900
11.635400 2.182400
11.653400 2.262100
11.671300 2.291700
11.689300 2.300400
11.707200 2.319000
11.725200 2.344200
11.743200 2.346600
11.761100 2.319400
11.779100 2.309100
11.797100 2.362000
11.815000 2.450800
11.833000 2.486900
11.851000 2.409200
11.868900 2.260200
11.886900 2.183800
11.904900 2.312100
11.922800 2.622500
11.940800 2.930100
11.958800 3.041000
11.976700 2.897500
11.994700 2.589500
12.012700 2.265400
12.030600 2.031900
12.048600 1.902900
12.066500 1.824000
12.084500 1.739500
12.102500 1.634100
12.120400 1.532900
12.138400 1.478700
12.156400 1.518800
12.174300 1.700600
12.192300 2.048100
12.210300 2.512800
12.228200 2.966100
12.246200 3.273500
12.264200 3.367800
12.282100 3.247500
12.300100 2.949400
12.318100 2.550500
12.336000 2.159500
12.354000 1.858300
12.371900 1.651200
12.389900 1.491500
12.407900 1.364300
12.425800 1.329200
12.443800 1.471800
12.461800 1.819300
12.479700 2.295400
12.497700 2.737200
12.515700 2.976300
12.533600 2.948500
12.551600 2.735800
12.569600 2.489100
12.587500 2.330500
12.605500 2.322600
12.623500 2.465800
12.641400 2.688500
12.659400 2.892400
12.677300 3.041800
12.695300 3.169700
12.713300 3.276100
12.731200 3.272300
12.749200 3.073300
12.767200 2.717000
12.785100 2.346200
12.803100 2.080400
12.821100 1.946800
12.839000 1.919900
12.857000 1.981700
12.875000 2.139500
12.892900 2.403400
12.910900 2.746300
12.928900 3.090500
12.946800 3.337500
12.964800 3.411200
12.982800 3.279400
13.000700 2.962600
13.018700 2.543300
13.036600 2.155700
13.054600 1.938300
13.072600 1.990600
13.090500 2.370700
13.108500 3.066200
13.126500 3.904300
13.144400 4.544900
13.162400 4.694600
13.180400 4.357600
13.198300 3.802900
13.216300 3.282900
13.234300 2.865700
13.252200 2.525100
13.270200 2.275000
13.288200 2.158700
13.306100 2.163600
13.324100 2.200100
13.342000 2.166100
13.360000 2.030300
13.378000 1.876400
13.395900 1.857400
13.413900 2.071600
13.431900 2.475400
13.449800 2.913900
13.467800 3.216800
13.485800 3.289400
13.503700 3.168600
13.521700 3.000000
13.539700 2.923200
13.557600 2.952600
13.575600 2.988300
13.593600 2.976000
13.611500 3.024600
13.629500 3.291300
13.647400 3.743900
13.665400 4.114500
13.683400 4.143500
13.701300 3.844100
13.719300 3.472700
13.737300 3.252600
13.755200 3.178700
13.773200 3.081900
13.791200 2.827300
13.809100 2.443400
13.827100 2.098900
13.845100 1.972400
13.863000 2.124200
13.881000 2.449600
13.899000 2.744800
13.916900 2.853500
13.934900 2.783600
13.952900 2.679400
13.970800 2.675300
13.988800 2.773400
14.006700 2.865500
14.024700 2.881800
14.042700 2.905700
14.060600 3.104300
14.078600 3.535800
14.096600 4.038300
14.114500 4.328000
14.132500 4.249300
14.150500 3.940200
14.168400 3.695500
14.186400 3.661000
14.204400 3.726200
14.222300 3.690600
14.240300 3.446900
14.258300 3.022800
14.276200 2.536500
14.294200 2.112900
14.312100 1.791900
14.330100 1.530000
14.348100 1.316700
14.366000 1.256000
14.384000 1.488000
14.402000 2.012300
14.419900 2.616000
14.437900 3.030200
14.455900 3.181800
14.473800 3.248800
14.491800 3.432200
14.509800 3.712800
14.527700 3.872900
14.545700 3.736400
14.563700 3.345000
14.581600 2.913400
14.599600 2.656800
14.617500 2.660400
14.635500 2.862200
14.653500 3.113100
14.671400 3.263800
14.689400 3.234400
14.707400 3.050300
14.725300 2.851900
14.743300 2.859300
14.761300 3.245400
14.779200 3.975600
14.797200 4.797600
14.815200 5.425400
14.833100 5.725000
14.851100 5.740700
14.869100 5.598200
14.887000 5.392300
14.905000 5.150400
14.922900 4.895700
14.940900 4.695300
14.958900 4.585000
14.976800 4.472600
14.994800 4.190200
15.012800 3.674300
15.030700 3.068700
15.048700 2.613400
15.066700 2.436600
15.084600 2.481000
15.102600 2.595600
15.120600 2.652900
15.138500 2.631800
15.156500 2.627500
15.174500 2.715100
15.192400 2.787100
15.210400 2.641900
15.228400 2.275000
15.246300 1.965400
15.264300 2.007300
15.282200 2.417600
15.300200 2.936200
15.318200 3.285700
15.336100 3.409300
15.354100 3.450500
15.372100 3.530300
15.390000 3.621200
15.408000 3.645200
15.426000 3.608700
15.443900 3.598200
15.461900 3.682700
15.479900 3.846500
15.497800 4.002600
15.515800 4.050700
15.533800 3.934700
15.551700 3.689700
15.569700 3.457100
15.587600 3.407700
15.605600 3.598500
15.623600 3.928000
15.641500 4.253200
15.659500 4.498400
15.677500 4.608500
15.695400 4.480600
15.713400 4.047300
15.731400 3.417400
15.749300 2.861700
15.767300 2.636900
15.785300 2.812000
15.803200 3.223400
15.821200 3.588400
15.839200 3.697400
15.857100 3.523200
15.875100 3.153300
15.893000 2.672300
15.911000 2.157800
15.929000 1.737100
15.946900 1.569700
15.964900 1.765100
15.982900 2.329600
16.000800 3.156800
16.018800 4.037500
16.036800 4.718100
16.054700 5.020800
16.072700 4.936700
16.090700 4.606100
16.108600 4.212500
16.126600 3.869600
16.144600 3.584000
16.162500 3.324000
16.180500 3.112200
16.198500 3.027200
16.216400 3.126700
16.234400 3.379300
16.252300 3.651600
16.270300 3.777700
16.288300 3.685800
16.306200 3.463500
16.324200 3.286600
16.342200 3.281200
16.360100 3.437500
16.378100 3.620900
16.396100 3.666800
16.414000 3.515000
16.432000 3.287900
16.450000 3.210700
16.467900 3.400100
16.485900 3.714700
16.503900 3.846200
16.521800 3.594200
16.539800 3.048200
16.557700 2.503400
16.575700 2.227000
16.593700 2.285700
16.611600 2.536400
16.629600 2.770200
16.647600 2.882100
16.665500 2.897000
16.683500 2.857300
16.701500 2.759200
16.719400 2.608100
16.737400 2.461200
16.755400 2.378500
16.773300 2.357900
16.791300 2.344100
16.809300 2.306200
16.827200 2.310100
16.845200 2.499000
16.863100 2.960600
16.881100 3.600400
16.899100 4.175500
16.917000 4.460300
16.935000 4.372900
16.953000 3.983800
16.970900 3.452800
16.988900 2.950400
17.006900 2.597400
17.024800 2.439000
17.042800 2.433500
17.060800 2.459200
17.078700 2.382200
17.096700 2.163600
17.114700 1.893500
17.132600 1.712900
17.150600 1.708600
17.168500 1.857200
17.186500 2.031500
17.204500 2.094200
17.222400 2.045700
17.240400 2.062000
17.258400 2.320100
17.276300 2.774900
17.294300 3.158200
17.312300 3.226600
17.330200 2.983000
17.348200 2.637300
17.366200 2.398700
17.384100 2.352700
17.402100 2.486900
17.420100 2.725100
17.438000 2.926600
17.456000 2.964300
17.474000 2.869200
17.491900 2.836400
17.509900 3.042500
17.527800 3.492500
17.545800 4.033300
17.563800 4.440800
17.581700 4.514100
17.599700 4.191700
17.617700 3.602800
17.635600 2.964300
17.653600 2.430700
17.671600 2.057600
17.689500 1.874000
17.707500 1.940600
17.725500 2.307000
17.743400 2.908100
17.761400 3.540000
17.779400 3.987000
17.797300 4.167900
17.815300 4.132000
17.833200 3.953700
17.851200 3.698400
17.869200 3.464400
17.887100 3.371200
17.905100 3.482900
17.923100 3.767300
17.941000 4.115200
17.959000 4.373200
17.977000 4.398800
17.994900 4.150700
18.012900 3.731200
18.030900 3.308000
18.048800 3.008500
18.066800 2.891800
18.084800 2.953500
18.102700 3.119600
18.120700 3.273700
18.138600 3.315300
18.156600 3.198300
18.174600 2.960900
18.192500 2.741800
18.210500 2.717800
18.228500 2.958300
18.246400 3.320200
18.264400 3.522500
18.282400 3.383700
18.300300 2.990100
18.318300 2.606200
18.336300 2.422900
18.354200 2.409600
18.372200 2.400000
18.390200 2.296000
18.408100 2.164700
18.426100 2.144500
18.444100 2.291800
18.462000 2.533600
18.480000 2.746500
18.497900 2.856900
18.515900 2.866400
18.533900 2.806700
18.551800 2.707300
18.569800 2.595300
18.587800 2.484300
18.605700 2.354400
18.623700 2.178600
18.641700 1.987400
18.659600 1.872000
18.677600 1.901500
18.695600 2.044700
18.713500 2.192400
18.731500 2.257200
18.749500 2.254500
18.767400 2.286800
18.785400 2.437400
18.803300 2.695100
18.821300 2.997900
18.839300 3.294300
18.857200 3.510000
18.875200 3.524100
18.893200 3.277900
18.911100 2.878000
18.929100 2.521800
18.947100 2.333600
18.965000 2.297900
18.983000 2.311000
19.001000 2.269600
19.018900 2.152400
19.036900 2.052100
19.054900 2.100000
19.072800 2.342200
19.090800 2.718300
19.108700 3.146900
19.126700 3.577800
19.144700 3.961300
19.162600 4.215300
19.180600 4.251800
19.198600 4.057800
19.216500 3.746100
19.234500 3.487700
19.252500 3.370400
19.270400 3.339600
19.288400 3.297400
19.306400 3.240400
19.324300 3.255000
19.342300 3.375900
19.360300 3.515400
19.378200 3.580600
19.396200 3.620600
19.414100 3.794800
19.432100 4.205300
19.450100 4.785800
19.468000 5.323200
19.486000 5.586000
19.504000 5.483200
19.521900 5.099300
19.539900 4.568000
19.557900 3.974300
19.575800 3.393400
19.593800 2.934100
19.611800 2.690200
19.629700 2.677800
19.647700 2.824300
19.665700 2.995800
19.683600 3.074800
19.701600 3.058700
19.719600 3.063700
19.737500 3.219100
19.755500 3.578700
19.773400 4.087100
19.791400 4.554800
19.809400 4.721000
19.827300 4.458200
19.845300 3.912000
19.863300 3.378200
19.881200 3.047000
19.899200 2.890100
19.917200 2.768000
19.935100 2.613500
19.953100 2.506500
19.971100 2.591100
19.989000 2.929900
20.007000 3.441200
20.025000 3.977900
20.042900 4.445300
20.060900 4.818400
20.078800 5.074600
20.096800 5.164500
20.114800 5.062100
20.132700 4.806200
20.150700 4.455200
20.168700 4.025400
20.186600 3.516700
20.204600 2.992600
20.222600 2.592400
20.240500 2.464300
20.258500 2.701600
20.276500 3.305400
20.294400 4.154800
20.312400 5.026500
20.330400 5.694900
20.348300 6.026500
20.366300 5.976400
20.384200 5.552500
20.402200 4.857800
20.420200 4.148200
20.438100 3.749900
20.456100 3.838600
20.474100 4.279900
20.492000 4.716300
20.510000 4.860600
20.528000 4.700400
20.545900 4.402700
20.563900 4.085100
20.581900 3.757700
20.599800 3.427100
20.617800 3.151200
20.635800 2.997700
20.653700 3.011100
20.671700 3.202000
20.689700 3.492400
20.707600 3.690000
20.725600 3.627100
20.743500 3.350200
20.761500 3.084300
20.779500 2.993300
20.797400 3.040800
20.815400 3.079300
20.833400 2.999400
20.851300 2.792800
20.869300 2.536900
20.887300 2.352500
20.905200 2.346700
20.923200 2.541400
20.941200 2.839400
20.959100 3.087200
20.977100 3.181000
20.995100 3.097400
21.013000 2.869000
21.031000 2.597100
21.048900 2.449100
21.066900 2.547600
21.084900 2.837200
21.102800 3.104200
21.120800 3.155400
21.138800 2.976700
21.156700 2.719400
21.174700 2.556600
21.192700 2.581700
21.210600 2.822400
21.228600 3.260000
21.246600 3.778100
21.264500 4.173100
21.282500 4.318300
21.300500 4.276500
21.318400 4.196800
21.336400 4.153300
21.354300 4.120100
21.372300 4.045600
21.390300 3.922200
21.408200 3.807200
21.426200 3.777500
21.444200 3.853200
21.462100 3.960900
21.480100 3.968900
21.498100 3.772300
21.516000 3.387400
21.534000 2.976600
21.552000 2.753500
21.569900 2.849300
21.587900 3.248600
21.605900 3.800700
21.623800 4.284300
21.641800 4.532300
21.659700 4.536900
21.677700 4.411700
21.695700 4.251900
21.713600 4.081500
21.731600 3.931900
21.749600 3.884200
21.767500 3.989500
21.785500 4.211200
21.803500 4.491200
21.821400 4.804500
21.839400 5.085800
21.857400 5.172000
21.875300 4.923400
21.893300 4.398500
21.911300 3.849700
21.929200 3.540500
21.947200 3.583000
21.965200 3.914200
21.983100 4.377300
22.001100 4.815000
22.019000 5.104200
22.037000 5.135300
22.055000 4.823000
22.072900 4.180600
22.090900 3.356100
22.108900 2.565600
22.126800 2.010100
22.144800 1.844300
22.162800 2.141000
22.180700 2.822900
22.198700 3.650400
22.216700 4.327200
22.234600 4.651100
22.252600 4.590800
22.270600 4.251600
22.288500 3.793200
22.306500 3.387600
22.324400 3.212200
22.342400 3.380200
22.360400 3.816700
22.378300 4.264200
22.396300 4.473500
22.414300 4.376500
22.432200 4.067600
22.450200 3.682600
22.468200 3.326800
22.486100 3.061600
22.504100 2.902000
22.522100 2.827800
22.540000 2.813300
22.558000 2.854900
22.576000 2.975500
22.593900 3.197300
22.611900 3.484200
22.629800 3.714600
22.647800 3.757500
22.665800 3.571400
22.683700 3.203300
22.701700 2.727900
22.719700 2.239900
22.737600 1.878800
22.755600 1.786400
22.773600 1.994500
22.791500 2.360800
22.809500 2.657300
22.827500 2.726800
22.845400 2.552000
22.863400 2.225300
22.881400 1.907000
22.899300 1.766900
22.917300 1.873500
22.935300 2.117900
22.953200 2.303000
22.971200 2.329900
22.989100 2.256900
23.007100 2.173000
23.025100 2.083300
23.043000 1.956800
23.061000 1.824300
23.079000 1.770900
23.096900 1.850400
23.114900 2.035200
23.132900 2.225800
23.150800 2.291400
23.168800 2.139500
23.186800 1.793100
23.204700 1.397200
23.222700 1.118100
23.240700 1.029800
23.258600 1.088100
23.276600 1.190200
23.294500 1.240900
23.312500 1.185800
23.330500 1.027400
23.348400 0.833500
23.366400 0.708800
23.384400 0.726300
23.402300 0.873000
23.420300 1.060100
23.438300 1.179700
23.456200 1.169100
23.474200 1.053300
23.492200 0.927200
23.510100 0.880300
23.528100 0.930800
23.546100 1.030100
23.564000 1.115000
23.582000 1.141700
23.599900 1.083000
23.617900 0.934900
23.635900 0.738500
23.653800 0.566700
23.671800 0.470600
23.689800 0.454300
23.707700 0.495800
23.725700 0.566400
23.743700 0.626500
23.761600 0.633900
23.779600 0.581200
23.797600 0.521700
23.815500 0.530300
23.833500 0.622500
23.851500 0.726900
23.869400 0.750000
23.887400 0.661000
23.905300 0.503500
23.923300 0.340300
23.941300 0.208400
23.959200 0.116900
23.977200 0.063400
23.995200 0.043800
24.013100 0.051000
24.031100 0.072400
24.049100 0.091100
24.067000 0.096700
24.085000 0.095200
24.103000 0.104700
24.120900 0.137700
24.138900 0.188100
24.156900 0.235300
24.174800 0.260500
24.192800 0.262900
24.210800 0.260600
24.228700 0.270100
24.246700 0.288300
24.264600 0.297300
24.282600 0.280000
24.300600 0.231500
24.318500 0.162000
24.336500 0.093100
24.354500 0.042900
24.372400 0.015700
24.390400 0.004500
24.408400 0.001000
24.426300 0.000200
24.444300 0.000000
24.462300 0.000000
24.480200 0.000000
24.498200 0.000000
24.516200 0.000000
24.534100 0.000000
24.552100 0.000000
24.570000 0.000000
24.588000 0.000000
24.606000 0.000000
24.623900 0.000000
24.641900 0.000000
24.659900 0.000000
24.677800 0.000000
24.695800 0.000000
24.713800 0.000000
24.731700 0.000000
24.749700 0.000000
24.767700 0.000000
24.785600 0.000000
24.803600 0.000000
24.821600 0.000000
24.839500 0.000000
24.857500 0.000000
24.875400 0.000000
24.893400 0.000000
24.911400 0.000000
24.929300 0.000000
24.947300 0.000000
24.965300 0.000000
24.983200 0.000000
25.001200 0.000000
25.019200 0.000000
25.037100 0.000000
25.055100 0.000000
25.073100 0.000000
25.091000 0.000000
25.109000 0.000000
25.127000 0.000000
25.144900 0.000000
25.162900 0.000000
25.180900 0.000000
25.198800 0.000000
25.216800 0.000000
25.234700 0.000000
25.252700 0.000000
25.270700 0.000000
25.288600 0.000000
25.306600 0.000000
25.324600 0.000000
25.342500 0.000000
25.360500 0.000000
25.378500 0.000000
25.396400 0.000000
25.414400 0.000000
25.432400 0.000000
25.450300 0.000000
25.468300 0.000000
25.486300 0.000000
25.504200 0.000000
25.522200 0.000000
25.540100 0.000000
25.558100 0.000000
25.576100 0.000000
25.594000 0.000000
25.612000 0.000000
25.630000 0.000000
25.647900 0.000000
25.665900 0.000000
25.683900 0.000000
25.701800 0.000000
25.719800 0.000000
25.737800 0.000000
25.755700 0.000000
25.773700 0.000000
25.791700 0.000000
25.809600 0.000000
25.827600 0.000000
25.845500 0.000000
25.863500 0.000000
25.881500 0.000000
25.899400 0.000000
25.917400 0.000000
e
