set title 'mp-1184268 - Density of States'
set xlabel 'Energy (eV)'
set ylabel 'DOS (states/eV)'
set grid
set xrange [-10:10]
set yrange [0:51.681]
set xzeroaxis lt -1
set terminal png size 800,600
set output 'mp-1184268_dos_gnuplot.png'
plot '-' using 1:2 with lines title 'DOS'
-13.832000 0.000000
-13.810600 0.000000
-13.789100 0.000000
-13.767600 0.000000
-13.746200 0.000000
-13.724700 0.000000
-13.703200 0.000000
-13.681800 0.000000
-13.660300 0.000000
-13.638800 0.000000
-13.617400 0.000000
-13.595900 0.000000
-13.574400 0.000000
-13.553000 0.000000
-13.531500 0.000000
-13.510000 0.000000
-13.488600 0.000000
-13.467100 0.000000
-13.445600 0.000000
-13.424200 0.000000
-13.402700 0.000000
-13.381200 0.000000
-13.359800 0.000000
-13.338300 0.000000
-13.316800 0.000000
-13.295400 0.000000
-13.273900 0.000000
-13.252400 0.000000
-13.231000 0.000000
-13.209500 0.000000
-13.188000 0.000000
-13.166600 0.000000
-13.145100 0.000000
-13.123600 0.000000
-13.102200 0.000000
-13.080700 0.000000
-13.059200 0.000000
-13.037800 0.000000
-13.016300 0.000000
-12.994800 0.000000
-12.973400 0.000000
-12.951900 0.000000
-12.930400 0.000000
-12.909000 0.000000
-12.887500 0.000000
-12.866100 0.000000
-12.844600 0.000000
-12.823100 0.000000
-12.801700 0.000000
-12.780200 0.000000
-12.758700 0.000000
-12.737300 0.000000
-12.715800 0.000000
-12.694300 0.000000
-12.672900 0.000000
-12.651400 0.000000
-12.629900 0.000000
-12.608500 0.000000
-12.587000 0.000000
-12.565500 0.000000
-12.544100 0.000000
-12.522600 0.000000
-12.501100 0.000000
-12.479700 0.000000
-12.458200 0.000000
-12.436700 0.000000
-12.415300 0.000000
-12.393800 0.000000
-12.372300 0.000000
-12.350900 0.000000
-12.329400 0.000000
-12.307900 0.000000
-12.286500 0.000000
-12.265000 0.000000
-12.243500 0.000000
-12.222100 0.000000
-12.200600 0.000000
-12.179100 0.000000
-12.157700 0.000000
-12.136200 0.000000
-12.114700 0.000000
-12.093300 0.000000
-12.071800 0.000000
-12.050300 0.000000
-12.028900 0.000000
-12.007400 0.000000
-11.985900 0.000000
-11.964500 0.000000
-11.943000 0.000000
-11.921500 0.000000
-11.900100 0.000000
-11.878600 0.729500
-11.857100 12.897900
-11.835700 49.824300
-11.814200 112.659300
-11.792700 112.125200
-11.771300 139.727200
-11.749800 181.779500
-11.728300 182.247800
-11.706900 109.388500
-11.685400 135.586600
-11.663900 134.345100
-11.642500 119.165000
-11.621000 44.649800
-11.599500 15.124800
-11.578100 10.328400
-11.556600 5.613500
-11.535100 0.000000
-11.513700 0.000000
-11.492200 0.000000
-11.470700 0.000000
-11.449300 0.000000
-11.427800 0.000000
-11.406400 0.000000
-11.384900 0.000000
-11.363400 0.000000
-11.342000 0.000000
-11.320500 0.000000
-11.299000 0.000000
-11.277600 0.000000
-11.256100 0.000000
-11.234600 0.000000
-11.213200 0.000000
-11.191700 0.000000
-11.170200 0.000000
-11.148800 0.000000
-11.127300 0.000000
-11.105800 0.000000
-11.084400 0.000000
-11.062900 0.000000
-11.041400 0.000000
-11.020000 0.000000
-10.998500 0.000000
-10.977000 0.000000
-10.955600 0.000000
-10.934100 0.000000
-10.912600 0.000000
-10.891200 0.000000
-10.869700 0.000000
-10.848200 0.000000
-10.826800 0.000000
-10.805300 0.000000
-10.783800 0.000000
-10.762400 0.000000
-10.740900 0.000000
-10.719400 0.000000
-10.698000 0.000000
-10.676500 0.000000
-10.655000 0.000000
-10.633600 0.000000
-10.612100 0.000000
-10.590600 0.000000
-10.569200 0.000000
-10.547700 0.000000
-10.526200 0.000000
-10.504800 0.000000
-10.483300 0.000000
-10.461800 0.000000
-10.440400 0.000000
-10.418900 0.000000
-10.397400 0.000000
-10.376000 0.000000
-10.354500 0.000000
-10.333000 0.000000
-10.311600 0.000000
-10.290100 0.000000
-10.268600 0.000000
-10.247200 0.000000
-10.225700 0.000000
-10.204200 0.000000
-10.182800 0.000000
-10.161300 0.000000
-10.139800 0.000000
-10.118400 0.000000
-10.096900 0.000000
-10.075400 0.000000
-10.054000 0.000000
-10.032500 0.000000
-10.011000 0.000000
-9.989600 0.000000
-9.968100 0.000000
-9.946700 0.000000
-9.925200 0.000000
-9.903700 0.000000
-9.882300 0.000000
-9.860800 0.000000
-9.839300 0.000000
-9.817900 0.000000
-9.796400 0.000000
-9.774900 0.000000
-9.753500 0.000000
-9.732000 0.000000
-9.710500 0.000000
-9.689100 0.000000
-9.667600 0.000000
-9.646100 0.000000
-9.624700 0.000000
-9.603200 0.000000
-9.581700 0.000000
-9.560300 0.000000
-9.538800 0.000000
-9.517300 0.000000
-9.495900 0.000000
-9.474400 0.000000
-9.452900 0.000000
-9.431500 0.000000
-9.410000 0.000000
-9.388500 0.000000
-9.367100 0.000000
-9.345600 0.000000
-9.324100 0.000000
-9.302700 0.000000
-9.281200 0.000000
-9.259700 0.000000
-9.238300 0.000000
-9.216800 0.000000
-9.195300 0.000000
-9.173900 0.000000
-9.152400 0.000000
-9.130900 0.000000
-9.109500 0.000000
-9.088000 0.000000
-9.066500 0.000000
-9.045100 0.000000
-9.023600 0.000000
-9.002100 0.000000
-8.980700 0.000000
-8.959200 0.000000
-8.937700 0.000000
-8.916300 0.000000
-8.894800 0.000000
-8.873300 0.000000
-8.851900 0.000000
-8.830400 0.000000
-8.808900 0.000000
-8.787500 0.000000
-8.766000 0.000000
-8.744500 0.000000
-8.723100 0.000000
-8.701600 0.000000
-8.680100 0.000000
-8.658700 0.000000
-8.637200 0.000000
-8.615700 0.000000
-8.594300 0.000000
-8.572800 0.000000
-8.551300 0.000000
-8.529900 0.000000
-8.508400 0.000000
-8.487000 0.000000
-8.465500 0.000000
-8.444000 0.000000
-8.422600 0.000000
-8.401100 0.000000
-8.379600 0.000000
-8.358200 0.000000
-8.336700 0.000000
-8.315200 0.000000
-8.293800 0.000000
-8.272300 0.000000
-8.250800 0.000000
-8.229400 0.000000
-8.207900 0.000000
-8.186400 0.000000
-8.165000 0.000000
-8.143500 0.000000
-8.122000 0.000000
-8.100600 0.000000
-8.079100 0.000000
-8.057600 0.000000
-8.036200 0.000000
-8.014700 0.000000
-7.993200 0.000000
-7.971800 0.000000
-7.950300 0.000000
-7.928800 0.000000
-7.907400 0.000000
-7.885900 0.000000
-7.864400 0.000000
-7.843000 0.000000
-7.821500 0.000000
-7.800000 0.000000
-7.778600 0.000000
-7.757100 0.000000
-7.735600 0.000000
-7.714200 0.000000
-7.692700 0.000000
-7.671200 0.000000
-7.649800 0.000000
-7.628300 0.000000
-7.606800 0.000000
-7.585400 0.000000
-7.563900 0.000000
-7.542400 0.000000
-7.521000 0.000000
-7.499500 0.000000
-7.478000 0.000000
-7.456600 0.000000
-7.435100 0.000000
-7.413600 0.000000
-7.392200 0.000000
-7.370700 0.000000
-7.349200 0.000000
-7.327800 0.000000
-7.306300 0.000000
-7.284800 0.000000
-7.263400 0.000000
-7.241900 0.000000
-7.220400 0.000000
-7.199000 0.000000
-7.177500 0.000000
-7.156000 0.007600
-7.134600 0.034900
-7.113100 0.081800
-7.091600 0.124200
-7.070200 0.155200
-7.048700 0.165700
-7.027300 0.178100
-7.005800 0.192500
-6.984300 0.209100
-6.962900 0.218300
-6.941400 0.232900
-6.919900 0.249500
-6.898500 0.266600
-6.877000 0.283900
-6.855500 0.297100
-6.834100 0.305200
-6.812600 0.309700
-6.791100 0.319400
-6.769700 0.329700
-6.748200 0.338700
-6.726700 0.346500
-6.705300 0.354600
-6.683800 0.362600
-6.662300 0.370600
-6.640900 0.379900
-6.619400 0.389500
-6.597900 0.399400
-6.576500 0.409600
-6.555000 0.420600
-6.533500 0.432100
-6.512100 0.444000
-6.490600 0.452300
-6.469100 0.459600
-6.447700 0.465600
-6.426200 0.471100
-6.404700 0.476500
-6.383300 0.482800
-6.361800 0.489900
-6.340300 0.497300
-6.318900 0.504700
-6.297400 0.512000
-6.275900 0.519300
-6.254500 0.526500
-6.233000 0.535000
-6.211500 0.543300
-6.190100 0.551800
-6.168600 0.560800
-6.147100 0.570100
-6.125700 0.579600
-6.104200 0.589200
-6.082700 0.597700
-6.061300 0.607000
-6.039800 0.616400
-6.018300 0.625600
-5.996900 0.633600
-5.975400 0.640500
-5.953900 0.647200
-5.932500 0.654900
-5.911000 0.662800
-5.889500 0.671200
-5.868100 0.680100
-5.846600 0.689400
-5.825100 0.699100
-5.803700 0.709300
-5.782200 0.719700
-5.760700 0.730400
-5.739300 0.741300
-5.717800 0.753100
-5.696300 0.767900
-5.674900 0.782600
-5.653400 0.797700
-5.631900 0.812700
-5.610500 0.827600
-5.589000 0.844400
-5.567600 0.865700
-5.546100 0.884900
-5.524600 0.902100
-5.503200 0.917300
-5.481700 0.930500
-5.460200 0.941900
-5.438800 0.948500
-5.417300 0.956600
-5.395800 0.968800
-5.374400 0.984500
-5.352900 1.003800
-5.331400 1.027700
-5.310000 1.056200
-5.288500 1.087700
-5.267000 1.122000
-5.245600 1.192000
-5.224100 1.252800
-5.202600 1.301500
-5.181200 1.391200
-5.159700 1.454900
-5.138200 1.517900
-5.116800 1.595500
-5.095300 1.676900
-5.073800 1.751400
-5.052400 1.810200
-5.030900 1.830700
-5.009400 1.910400
-4.988000 2.015100
-4.966500 2.124400
-4.945000 2.506000
-4.923600 3.279500
-4.902100 4.232600
-4.880600 3.911000
-4.859200 2.940500
-4.837700 2.319100
-4.816200 2.125900
-4.794800 1.599600
-4.773300 1.065600
-4.751800 0.667200
-4.730400 0.520600
-4.708900 0.607900
-4.687400 1.380300
-4.666000 2.533500
-4.644500 3.766400
-4.623000 5.148600
-4.601600 5.550200
-4.580100 5.963500
-4.558600 6.150500
-4.537200 5.770000
-4.515700 6.323800
-4.494200 6.196300
-4.472800 5.810000
-4.451300 5.520700
-4.429800 5.009600
-4.408400 3.665800
-4.386900 3.284100
-4.365400 3.086000
-4.344000 3.892300
-4.322500 6.063100
-4.301000 8.672600
-4.279600 10.035000
-4.258100 15.210300
-4.236600 18.048000
-4.215200 30.299800
-4.193700 8.285400
-4.172200 8.550100
-4.150800 20.298400
-4.129300 16.898400
-4.107900 16.781800
-4.086400 17.486400
-4.064900 23.004900
-4.043500 30.377000
-4.022000 46.982800
-4.000500 27.988600
-3.979100 16.504800
-3.957600 8.465700
-3.936100 6.818100
-3.914700 5.845800
-3.893200 5.101300
-3.871700 4.563600
-3.850300 4.032500
-3.828800 2.676800
-3.807300 2.323800
-3.785900 2.252600
-3.764400 2.234400
-3.742900 2.098600
-3.721500 1.949200
-3.700000 1.813300
-3.678500 1.642100
-3.657100 1.507100
-3.635600 1.427400
-3.614100 1.358200
-3.592700 1.295300
-3.571200 1.240100
-3.549700 1.209800
-3.528300 1.189500
-3.506800 1.082200
-3.485300 0.995400
-3.463900 0.959700
-3.442400 0.932100
-3.420900 0.910500
-3.399500 0.890700
-3.378000 0.871600
-3.356500 0.889400
-3.335100 1.011700
-3.313600 1.130300
-3.292100 1.277600
-3.270700 1.339000
-3.249200 1.366400
-3.227700 1.414800
-3.206300 1.456100
-3.184800 1.486900
-3.163300 1.492300
-3.141900 1.471500
-3.120400 1.454300
-3.098900 1.429100
-3.077500 1.393900
-3.056000 1.398900
-3.034500 1.404300
-3.013100 1.422100
-2.991600 1.442800
-2.970100 1.476100
-2.948700 1.489600
-2.927200 1.466200
-2.905700 1.442900
-2.884300 1.420000
-2.862800 1.396000
-2.841300 1.367300
-2.819900 1.337700
-2.798400 1.300800
-2.776900 1.259200
-2.755500 1.245500
-2.734000 1.233700
-2.712500 1.224100
-2.691100 1.216100
-2.669600 1.207800
-2.648200 1.199500
-2.626700 1.183700
-2.605200 1.182000
-2.583800 1.179200
-2.562300 1.176900
-2.540800 1.177700
-2.519400 1.166800
-2.497900 1.183300
-2.476400 1.201800
-2.455000 1.220700
-2.433500 1.246800
-2.412000 1.262700
-2.390600 1.252700
-2.369100 1.235700
-2.347600 1.217800
-2.326200 1.202600
-2.304700 1.190800
-2.283200 1.180800
-2.261800 1.176600
-2.240300 1.177300
-2.218800 1.191200
-2.197400 1.190700
-2.175900 1.190400
-2.154400 1.190100
-2.133000 1.190300
-2.111500 1.191200
-2.090000 1.191100
-2.068600 1.190300
-2.047100 1.189800
-2.025600 1.188000
-2.004200 1.186700
-1.982700 1.184800
-1.961200 1.182700
-1.939800 1.182300
-1.918300 1.182700
-1.896800 1.194200
-1.875400 1.219300
-1.853900 1.224400
-1.832400 1.225200
-1.811000 1.216100
-1.789500 1.207300
-1.768000 1.198700
-1.746600 1.193200
-1.725100 1.193200
-1.703600 1.196700
-1.682200 1.202500
-1.660700 1.211300
-1.639200 1.221700
-1.617800 1.239500
-1.596300 1.265400
-1.574800 1.326400
-1.553400 1.368100
-1.531900 1.400300
-1.510400 1.415100
-1.489000 1.426000
-1.467500 1.435600
-1.446000 1.444100
-1.424600 1.455200
-1.403100 1.420100
-1.381600 1.421000
-1.360200 1.426100
-1.338700 1.431200
-1.317200 1.445800
-1.295800 1.461400
-1.274300 1.477400
-1.252800 1.495200
-1.231400 1.518300
-1.209900 1.539600
-1.188500 1.557100
-1.167000 1.575100
-1.145500 1.592000
-1.124100 1.605600
-1.102600 1.616700
-1.081100 1.636200
-1.059700 1.630500
-1.038200 1.629300
-1.016700 1.633200
-0.995300 1.646400
-0.973800 1.657400
-0.952300 1.658500
-0.930900 1.680700
-0.909400 1.743900
-0.887900 1.722500
-0.866500 1.717600
-0.845000 1.723400
-0.823500 1.734400
-0.802100 1.693800
-0.780600 1.687700
-0.759100 1.682500
-0.737700 1.683500
-0.716200 1.681400
-0.694700 1.678100
-0.673300 1.679800
-0.651800 1.694500
-0.630300 1.635800
-0.608900 1.558700
-0.587400 1.486200
-0.565900 1.429800
-0.544500 1.387700
-0.523000 1.397200
-0.501500 1.340600
-0.480100 1.291700
-0.458600 1.250500
-0.437100 1.213800
-0.415700 1.179600
-0.394200 1.149800
-0.372700 1.125200
-0.351300 1.087200
-0.329800 1.050700
-0.308300 1.034800
-0.286900 1.030300
-0.265400 1.023000
-0.243900 1.016500
-0.222500 1.010800
-0.201000 1.007200
-0.179500 1.004600
-0.158100 1.002900
-0.136600 1.005100
-0.115100 1.026200
-0.093700 1.042900
-0.072200 1.156500
-0.050700 1.073800
-0.029300 1.095400
-0.007800 1.119300
0.013700 1.145400
0.035100 1.231500
0.056600 1.336300
0.078100 1.395200
0.099500 1.451300
0.121000 1.479400
0.142500 1.525200
0.163900 1.560900
0.185400 1.549400
0.206900 1.550700
0.228300 1.547100
0.249800 1.575100
0.271200 1.570100
0.292700 1.571800
0.314200 1.572300
0.335600 1.453000
0.357100 1.439100
0.378600 1.432100
0.400000 1.431200
0.421500 1.434000
0.443000 1.438400
0.464400 1.441000
0.485900 1.441300
0.507400 1.449200
0.528800 1.463600
0.550300 1.483600
0.571800 1.495000
0.593200 1.489800
0.614700 1.482500
0.636200 1.499100
0.657600 1.511900
0.679100 1.522400
0.700600 1.566800
0.722000 1.572000
0.743500 1.574900
0.765000 1.581500
0.786400 1.595600
0.807900 1.624500
0.829400 1.593000
0.850800 1.555000
0.872300 1.516600
0.893800 1.493900
0.915200 1.480600
0.936700 1.504200
0.958200 1.484200
0.979600 1.484500
1.001100 1.498800
1.022600 1.433400
1.044000 1.390400
1.065500 1.350100
1.087000 1.311600
1.108400 1.271400
1.129900 1.235500
1.151400 1.226500
1.172800 1.213400
1.194300 1.188000
1.215800 1.168900
1.237200 1.147900
1.258700 1.146200
1.280200 1.147300
1.301600 1.151200
1.323100 1.157200
1.344600 1.148400
1.366000 1.146000
1.387500 1.150300
1.409000 1.159000
1.430400 1.171000
1.451900 1.186100
1.473400 1.204500
1.494800 1.227200
1.516300 1.250700
1.537800 1.320900
1.559200 1.274600
1.580700 1.254400
1.602200 1.263800
1.623600 1.267800
1.645100 1.265700
1.666600 1.255700
1.688000 1.244600
1.709500 1.233200
1.730900 1.220000
1.752400 1.215500
1.773900 1.210900
1.795300 1.207000
1.816800 1.205500
1.838300 1.204200
1.859700 1.201200
1.881200 1.198800
1.902700 1.197900
1.924100 1.201200
1.945600 1.201600
1.967100 1.219500
1.988500 1.239000
2.010000 1.229300
2.031500 1.217700
2.052900 1.234300
2.074400 1.246700
2.095900 1.256200
2.117300 1.267700
2.138800 1.278400
2.160300 1.296800
2.181700 1.312000
2.203200 1.332000
2.224700 1.347800
2.246100 1.387700
2.267600 1.432700
2.289100 1.484900
2.310500 1.544300
2.332000 1.610800
2.353500 1.606600
2.374900 1.638400
2.396400 1.665200
2.417900 1.666000
2.439300 1.668500
2.460800 1.680500
2.482300 1.705700
2.503700 1.732900
2.525200 1.769100
2.546700 1.798700
2.568100 1.833300
2.589600 1.855300
2.611100 1.874000
2.632500 1.886600
2.654000 1.895700
2.675500 1.901600
2.696900 1.904400
2.718400 1.905100
2.739900 1.903800
2.761300 1.901200
2.782800 1.897000
2.804300 1.891800
2.825700 1.888900
2.847200 1.886900
2.868700 1.889300
2.890100 1.890600
2.911600 1.895500
2.933100 1.896000
2.954500 1.892300
2.976000 1.924000
2.997500 1.915500
3.018900 1.912000
3.040400 1.901700
3.061900 1.898000
3.083300 1.893900
3.104800 1.886600
3.126300 1.875700
3.147700 1.856800
3.169200 1.894800
3.190600 1.840900
3.212100 1.965400
3.233600 1.824000
3.255000 1.802200
3.276500 1.776500
3.298000 1.750500
3.319400 1.724300
3.340900 1.707100
3.362400 1.668300
3.383800 1.642200
3.405300 1.635900
3.426800 1.675300
3.448200 1.742100
3.469700 1.671300
3.491200 1.667500
3.512600 1.656500
3.534100 1.644700
3.555600 1.659500
3.577000 1.680700
3.598500 1.667800
3.620000 1.682400
3.641400 1.623000
3.662900 1.621100
3.684400 1.620600
3.705800 1.619500
3.727300 1.617600
3.748800 1.614900
3.770200 1.615700
3.791700 1.628300
3.813200 1.648800
3.834600 1.678900
3.856100 1.695200
3.877600 1.703900
3.899000 1.715500
3.920500 1.735200
3.942000 1.739100
3.963400 1.711900
3.984900 1.713500
4.006400 1.730500
4.027800 1.750600
4.049300 1.671600
4.070800 1.661300
4.092200 1.652100
4.113700 1.643100
4.135200 1.633400
4.156600 1.620500
4.178100 1.595700
4.199600 1.599800
4.221000 1.604300
4.242500 1.608200
4.264000 1.610900
4.285400 1.613300
4.306900 1.612400
4.328400 1.606600
4.349800 1.599300
4.371300 1.604700
4.392800 1.605000
4.414200 1.609000
4.435700 1.621700
4.457200 1.634900
4.478600 1.657500
4.500100 1.687500
4.521600 1.704900
4.543000 1.712800
4.564500 1.720100
4.586000 1.728300
4.607400 1.739000
4.628900 1.750700
4.650300 1.765500
4.671800 1.783700
4.693300 1.800000
4.714700 1.813500
4.736200 1.827900
4.757700 1.836700
4.779100 1.841600
4.800600 1.850800
4.822100 1.863100
4.843500 1.879500
4.865000 1.901500
4.886500 1.925700
4.907900 1.937200
4.929400 1.943300
4.950900 2.275500
4.972300 2.073400
4.993800 2.088400
5.015300 2.098800
5.036700 2.091500
5.058200 2.074000
5.079700 2.058000
5.101100 2.036600
5.122600 2.014400
5.144100 1.991000
5.165500 1.963800
5.187000 1.931700
5.208500 1.893400
5.229900 1.847500
5.251400 1.804100
5.272900 1.776300
5.294300 1.742100
5.315800 1.700200
5.337300 1.650100
5.358700 1.597300
5.380200 1.538900
5.401700 1.485000
5.423100 1.443500
5.444600 1.406800
5.466100 1.374700
5.487500 1.346300
5.509000 1.329600
5.530500 1.328100
5.551900 1.344300
5.573400 1.341100
5.594900 1.341300
5.616300 1.356300
5.637800 1.377300
5.659300 1.402400
5.680700 1.433300
5.702200 1.472500
5.723700 1.505600
5.745100 1.536800
5.766600 1.581000
5.788100 1.635200
5.809500 1.679400
5.831000 1.721000
5.852500 1.760700
5.873900 1.792500
5.895400 1.820100
5.916900 1.834600
5.938300 1.866300
5.959800 1.894000
5.981300 1.935000
6.002700 1.974300
6.024200 2.012800
6.045700 2.067900
6.067100 2.110700
6.088600 2.129300
6.110000 2.170000
6.131500 2.125500
6.153000 2.055700
6.174400 2.026500
6.195900 2.016800
6.217400 2.011600
6.238800 1.997000
6.260300 1.976200
6.281800 1.945000
6.303200 1.932100
6.324700 1.928000
6.346200 1.941100
6.367600 1.991700
6.389100 2.032200
6.410600 2.064900
6.432000 2.090400
6.453500 2.109800
6.475000 2.127000
6.496400 2.141100
6.517900 2.162400
6.539400 2.183500
6.560800 2.202200
6.582300 2.218200
6.603800 2.243600
6.625200 2.295100
6.646700 2.243600
6.668200 2.207300
6.689600 2.164700
6.711100 2.129800
6.732600 2.103300
6.754000 2.077800
6.775500 2.068600
6.797000 2.045300
6.818400 2.013700
6.839900 1.975900
6.861400 1.952600
6.882800 1.931900
6.904300 1.920400
6.925800 1.929600
6.947200 1.941200
6.968700 1.956100
6.990200 1.979600
7.011600 2.023700
7.033100 2.059400
7.054600 2.091900
7.076000 2.121300
7.097500 2.144400
7.119000 2.161700
7.140400 2.166300
7.161900 2.173600
7.183400 2.231700
7.204800 2.316600
7.226300 2.333000
7.247800 2.356900
7.269200 2.388200
7.290700 2.439400
7.312200 2.514900
7.333600 2.534200
7.355100 2.554400
7.376600 2.583700
7.398000 2.619700
7.419500 2.657800
7.441000 2.699500
7.462400 2.949700
7.483900 2.874800
7.505400 2.711300
7.526800 2.659100
7.548300 2.641500
7.569700 2.625300
7.591200 2.595400
7.612700 2.530200
7.634100 2.413800
7.655600 2.196000
7.677100 2.022200
7.698500 1.905500
7.720000 1.849800
7.741500 1.840800
7.762900 1.854800
7.784400 1.888800
7.805900 2.002500
7.827300 2.047400
7.848800 2.055600
7.870300 2.073400
7.891700 2.098600
7.913200 2.130600
7.934700 2.165700
7.956100 2.197600
7.977600 2.236000
7.999100 2.257300
8.020500 2.267300
8.042000 2.284300
8.063500 2.307300
8.084900 2.392700
8.106400 2.441000
8.127900 2.471800
8.149300 2.469900
8.170800 2.423200
8.192300 2.367000
8.213700 2.355700
8.235200 2.372200
8.256700 2.424400
8.278100 2.448700
8.299600 2.466600
8.321100 2.469500
8.342500 2.462300
8.364000 2.445800
8.385500 2.424600
8.406900 2.467100
8.428400 2.483600
8.449900 2.456500
8.471300 2.430800
8.492800 2.403800
8.514300 2.343900
8.535700 2.193300
8.557200 2.166800
8.578700 2.214400
8.600100 2.200600
8.621600 2.143700
8.643100 2.090500
8.664500 2.054400
8.686000 2.033500
8.707500 2.012500
8.728900 1.999100
8.750400 1.998000
8.771900 2.015300
8.793300 2.040300
8.814800 2.082800
8.836300 2.113400
8.857700 2.088000
8.879200 2.055100
8.900700 2.028300
8.922100 2.022000
8.943600 2.017300
8.965100 2.028300
8.986500 2.044800
9.008000 2.058200
9.029400 1.967100
9.050900 1.962300
9.072400 1.971600
9.093800 1.990200
9.115300 2.014100
9.136800 2.044800
9.158200 2.115200
9.179700 2.138300
9.201200 2.195200
9.222600 2.266500
9.244100 2.330700
9.265600 2.280600
9.287000 2.225200
9.308500 2.218100
9.330000 2.214100
9.351400 2.235100
9.372900 2.255200
9.394400 2.257800
9.415800 2.260800
9.437300 2.262000
9.458800 2.263100
9.480200 2.270600
9.501700 2.275200
9.523200 2.280700
9.544600 2.291900
9.566100 2.300100
9.587600 2.305400
9.609000 2.308300
9.630500 2.310000
9.652000 2.320100
9.673400 2.336100
9.694900 2.353800
9.716400 2.374300
9.737800 2.388500
9.759300 2.385600
9.780800 2.379800
9.802200 2.327900
9.823700 2.309400
9.845200 2.367900
9.866600 2.310600
9.888100 2.190300
9.909600 2.131600
9.931000 2.095400
9.952500 2.075200
9.974000 2.055800
9.995400 2.034900
10.016900 2.013800
10.038400 1.995500
10.059800 1.977000
10.081300 1.961100
10.102800 1.946300
10.124200 1.937100
10.145700 1.934500
10.167200 1.936600
10.188600 1.990000
10.210100 2.084500
10.231600 2.127400
10.253000 2.164300
10.274500 2.128700
10.296000 2.199300
10.317400 2.294400
10.338900 2.256800
10.360400 2.256200
10.381800 2.250700
10.403300 2.243800
10.424800 2.240600
10.446200 2.272500
10.467700 2.275600
10.489100 2.280100
10.510600 2.291800
10.532100 2.300600
10.553500 2.269000
10.575000 2.243100
10.596500 2.220100
10.617900 2.193500
10.639400 2.170400
10.660900 2.149200
10.682300 2.135300
10.703800 2.123500
10.725300 2.097800
10.746700 2.060700
10.768200 2.008400
10.789700 1.956500
10.811100 1.936600
10.832600 1.948600
10.854100 1.958500
10.875500 1.940900
10.897000 1.897200
10.918500 1.814000
10.939900 1.777800
10.961400 1.755200
10.982900 1.734600
11.004300 1.718900
11.025800 1.703200
11.047300 1.687000
11.068700 1.678900
11.090200 1.693300
11.111700 1.695000
11.133100 1.681400
11.154600 1.677900
11.176100 1.722000
11.197500 1.728600
11.219000 1.722800
11.240500 1.747400
11.261900 1.753100
11.283400 1.741200
11.304900 1.708700
11.326300 1.699300
11.347800 1.698900
11.369300 1.703500
11.390700 1.722800
11.412200 1.713500
11.433700 1.723200
11.455100 1.734700
11.476600 1.716000
11.498100 1.723900
11.519500 1.739700
11.541000 1.745100
11.562500 1.743100
11.583900 1.733200
11.605400 1.722400
11.626900 1.729200
11.648300 1.735500
11.669800 1.750400
11.691300 1.800400
11.712700 1.816200
11.734200 1.837800
11.755700 1.871800
11.777100 1.876400
11.798600 1.896500
11.820100 1.933200
11.841500 1.996900
11.863000 1.937400
11.884500 1.949300
11.905900 1.962300
11.927400 1.974900
11.948800 1.983000
11.970300 1.980000
11.991800 1.949900
12.013200 1.935200
12.034700 1.922700
12.056200 1.916600
12.077600 1.914700
12.099100 1.916500
12.120600 1.915500
12.142000 1.911800
12.163500 1.906000
12.185000 1.893700
12.206400 1.872300
12.227900 1.850900
12.249400 1.838100
12.270800 1.853200
12.292300 1.919800
12.313800 1.954300
12.335200 1.994000
12.356700 1.950700
12.378200 1.910100
12.399600 1.916300
12.421100 1.897100
12.442600 1.866500
12.464000 1.842200
12.485500 1.816700
12.507000 1.800300
12.528400 1.787700
12.549900 1.783900
12.571400 1.784400
12.592800 1.785300
12.614300 1.780900
12.635800 1.782100
12.657200 1.776800
12.678700 1.771400
12.700200 1.748900
12.721600 1.728600
12.743100 1.708000
12.764600 1.724200
12.786000 1.763400
12.807500 1.772700
12.829000 1.653600
12.850400 1.607300
12.871900 1.565700
12.893400 1.531400
12.914800 1.536000
12.936300 1.550300
12.957800 1.569800
12.979200 1.593400
13.000700 1.622500
13.022200 1.657800
13.043600 1.703900
13.065100 1.769700
13.086600 1.833500
13.108000 1.900200
13.129500 1.964000
13.151000 2.026200
13.172400 2.087200
13.193900 2.148700
13.215400 2.200600
13.236800 2.252500
13.258300 2.315500
13.279800 2.346800
13.301200 2.394300
13.322700 2.439000
13.344200 2.487700
13.365600 2.540400
13.387100 2.533500
13.408500 2.507000
13.430000 2.455200
13.451500 2.427500
13.472900 2.307900
13.494400 2.227100
13.515900 2.176500
13.537300 2.139100
13.558800 2.133700
13.580300 2.147800
13.601700 2.164000
13.623200 2.201300
13.644700 2.210900
13.666100 2.171900
13.687600 2.130500
13.709100 2.082700
13.730500 2.020000
13.752000 2.002000
13.773500 1.982100
13.794900 1.966000
13.816400 1.987600
13.837900 1.972500
13.859300 1.978700
13.880800 1.995000
13.902300 2.019100
13.923700 2.095000
13.945200 2.182400
13.966700 2.266700
13.988100 2.343700
14.009600 2.384200
14.031100 2.362000
14.052500 2.375800
14.074000 2.417900
14.095500 2.476300
14.116900 2.556400
14.138400 2.599800
14.159900 2.584900
14.181300 2.590100
14.202800 2.600600
14.224300 2.622500
14.245700 2.666300
14.267200 2.753800
14.288700 2.767500
14.310100 2.748700
14.331600 2.727600
14.353100 2.720700
14.374500 2.749500
14.396000 2.721000
14.417500 2.706600
14.438900 2.674600
14.460400 2.741600
14.481900 2.563900
14.503300 2.546400
14.524800 2.547500
14.546300 2.565200
14.567700 2.592700
14.589200 2.597900
14.610700 2.621900
14.632100 2.647200
14.653600 2.660900
14.675100 2.677000
14.696500 2.692500
14.718000 2.659200
14.739500 2.621900
14.760900 2.583600
14.782400 2.640500
14.803900 2.676300
14.825300 2.644400
14.846800 2.673400
14.868200 2.523700
14.889700 2.436200
14.911200 2.414700
14.932600 2.274600
14.954100 2.288300
14.975600 2.363200
14.997000 2.524200
15.018500 2.416400
15.040000 2.347400
15.061400 2.294400
15.082900 2.264100
15.104400 2.255600
15.125800 2.252400
15.147300 2.252400
15.168800 2.265500
15.190200 2.283700
15.211700 2.292900
15.233200 2.318100
15.254600 2.311900
15.276100 2.310000
15.297600 2.285000
15.319000 2.289300
15.340500 2.300700
15.362000 2.315000
15.383400 2.310600
15.404900 2.309800
15.426400 2.300000
15.447800 2.280800
15.469300 2.260500
15.490800 2.262700
15.512200 2.287700
15.533700 2.269100
15.555200 2.312800
15.576600 2.347100
15.598100 2.397900
15.619600 2.442200
15.641000 2.492800
15.662500 2.544800
15.684000 2.589400
15.705400 2.628400
15.726900 2.612000
15.748400 2.646800
15.769800 2.697900
15.791300 2.760800
15.812800 2.827600
15.834200 3.127100
15.855700 2.864800
15.877200 2.875800
15.898600 2.888000
15.920100 3.066800
15.941600 3.115100
15.963000 2.852300
15.984500 2.753600
16.006000 2.673400
16.027400 2.590500
16.048900 2.508100
16.070400 2.447800
16.091800 2.405600
16.113300 2.378100
16.134800 2.391300
16.156200 2.370100
16.177700 2.294800
16.199200 2.248200
16.220600 2.212100
16.242100 2.198800
16.263600 2.215700
16.285000 2.212500
16.306500 2.201200
16.327900 2.196500
16.349400 2.155000
16.370900 2.186300
16.392300 2.173000
16.413800 2.210900
16.435300 2.279800
16.456700 2.541900
16.478200 2.563600
16.499700 2.643100
16.521100 2.660000
16.542600 2.669000
16.564100 2.692700
16.585500 2.733200
16.607000 2.739200
16.628500 2.656600
16.649900 2.604500
16.671400 2.700300
16.692900 2.903800
16.714300 2.999500
16.735800 3.069700
16.757300 3.149400
16.778700 3.203900
16.800200 3.290500
16.821700 3.380400
16.843100 3.374900
16.864600 3.332000
16.886100 3.185900
16.907500 3.060300
16.929000 2.959900
16.950500 2.890300
16.971900 2.842800
16.993400 2.834700
17.014900 2.811900
17.036300 2.742900
17.057800 2.672900
17.079300 2.583400
17.100700 2.548900
17.122200 2.533100
17.143700 2.485000
17.165100 2.367500
17.186600 2.280600
17.208100 2.141300
17.229500 2.102800
17.251000 2.106700
17.272500 2.086200
17.293900 2.048200
17.315400 2.002500
17.336900 1.981400
17.358300 2.048800
17.379800 1.993700
17.401300 2.028800
17.422700 2.071900
17.444200 2.124000
17.465700 2.308100
17.487100 2.538300
17.508600 2.687100
17.530100 2.801400
17.551500 2.847100
17.573000 2.884000
17.594500 2.825900
17.615900 2.794000
17.637400 2.747700
17.658900 2.684100
17.680300 2.613800
17.701800 2.536500
17.723300 2.464400
17.744700 2.445100
17.766200 2.463700
17.787600 2.549700
17.809100 2.571100
17.830600 2.591000
17.852000 2.639100
17.873500 2.875100
17.895000 2.818100
17.916400 2.917500
17.937900 2.980300
17.959400 2.978700
17.980800 2.962200
18.002300 2.949300
18.023800 2.951700
18.045200 2.903300
18.066700 2.871900
18.088200 2.854600
18.109600 2.837300
18.131100 2.826400
18.152600 2.799600
18.174000 2.737600
18.195500 2.687000
18.217000 2.662300
18.238400 2.617000
18.259900 2.569500
18.281400 2.517500
18.302800 2.471800
18.324300 2.460000
18.345800 2.479900
18.367200 2.496500
18.388700 2.483100
18.410200 2.687800
18.431600 2.784400
18.453100 2.893400
18.474600 2.695700
18.496000 2.633200
18.517500 2.625000
18.539000 2.637000
18.560400 2.633800
18.581900 2.612300
18.603400 2.584800
18.624800 2.564000
18.646300 2.555900
18.667800 2.542000
18.689200 2.530900
18.710700 2.535000
18.732200 2.540000
18.753600 2.484400
18.775100 2.418300
18.796600 2.355300
18.818000 2.307100
18.839500 2.263600
18.861000 2.265300
18.882400 2.269900
18.903900 2.283600
18.925400 2.304500
18.946800 2.312800
18.968300 2.341900
18.989800 2.359600
19.011200 2.364400
19.032700 2.352800
19.054200 2.341200
19.075600 2.456300
19.097100 2.393900
19.118600 2.322000
19.140000 2.306900
19.161500 2.287600
19.183000 2.265100
19.204400 2.222800
19.225900 2.186900
19.247300 2.199800
19.268800 2.208900
19.290300 2.209100
19.311700 2.210100
19.333200 2.216100
19.354700 2.239400
19.376100 2.334100
19.397600 2.446400
19.419100 2.523800
19.440500 2.542800
19.462000 2.524700
19.483500 2.506600
19.504900 2.458300
19.526400 2.635800
19.547900 2.688600
19.569300 2.387600
19.590800 1.979800
19.612300 1.826600
19.633700 1.746100
19.655200 1.708000
19.676700 1.690500
19.698100 1.750600
19.719600 1.762900
19.741100 1.756100
19.762500 1.783700
19.784000 1.830000
19.805500 1.865300
19.826900 1.909100
19.848400 1.932200
19.869900 1.900900
19.891300 1.903300
19.912800 1.948600
19.934300 1.986500
19.955700 2.005000
19.977200 2.042300
19.998700 2.081700
20.020100 2.159300
20.041600 2.242700
20.063100 2.309300
20.084500 2.394700
20.106000 2.424200
20.127500 2.382800
20.148900 2.376100
20.170400 2.374400
20.191900 2.361400
20.213300 2.373100
20.234800 2.434000
20.256300 2.501200
20.277700 2.584400
20.299200 2.691900
20.320700 2.878700
20.342100 3.017900
20.363600 2.972100
20.385100 2.993200
20.406500 2.960700
20.428000 2.960100
20.449500 3.006700
20.470900 3.091700
20.492400 3.185500
20.513900 3.402500
20.535300 3.372500
20.556800 3.351600
20.578300 3.401300
20.599700 3.444500
20.621200 3.513000
20.642700 3.512000
20.664100 3.549200
20.685600 3.613900
20.707000 3.674600
20.728500 3.632600
20.750000 3.484400
20.771400 3.398100
20.792900 3.329600
20.814400 3.266300
20.835800 3.186900
20.857300 3.168900
20.878800 3.074800
20.900200 3.001500
20.921700 2.904000
20.943200 2.809000
20.964600 2.690300
20.986100 2.688800
21.007600 2.713000
21.029000 2.680500
21.050500 2.683300
21.072000 2.681500
21.093400 2.649800
21.114900 2.620900
21.136400 2.604400
21.157800 2.535100
21.179300 2.540100
21.200800 2.809200
21.222200 2.620300
21.243700 2.550300
21.265200 2.547300
21.286600 2.563400
21.308100 2.588400
21.329600 2.577000
21.351000 2.526100
21.372500 2.504400
21.394000 2.485500
21.415400 2.477100
21.436900 2.499900
21.458400 2.473500
21.479800 2.416000
21.501300 2.365700
21.522800 2.353100
21.544200 2.344100
21.565700 2.338000
21.587200 2.339200
21.608600 2.354600
21.630100 2.400500
21.651600 2.448900
21.673000 2.494000
21.694500 2.554400
21.716000 2.628800
21.737400 2.689100
21.758900 2.752900
21.780400 2.890300
21.801800 3.048900
21.823300 3.126700
21.844800 3.117900
21.866200 3.096600
21.887700 3.019100
21.909200 2.924300
21.930600 2.767800
21.952100 2.662100
21.973600 2.636900
21.995000 2.668400
22.016500 2.663600
22.038000 2.641700
22.059400 2.617500
22.080900 2.496600
22.102400 2.396100
22.123800 2.314600
22.145300 2.349200
22.166700 2.424500
22.188200 2.535700
22.209700 2.633000
22.231100 2.869400
22.252600 3.066600
22.274100 3.207700
22.295500 3.282200
22.317000 3.315600
22.338500 3.312800
22.359900 2.983700
22.381400 2.860300
22.402900 2.715600
22.424300 2.580000
22.445800 2.499200
22.467300 2.546100
22.488700 2.344200
22.510200 2.273500
22.531700 2.166900
22.553100 2.115400
22.574600 2.050000
22.596100 1.987200
22.617500 1.950900
22.639000 1.916300
22.660500 1.887500
22.681900 1.839500
22.703400 1.815500
22.724900 1.792500
22.746300 1.774900
22.767800 1.734900
22.789300 1.701100
22.810700 1.665700
22.832200 1.625100
22.853700 1.584200
22.875100 1.548300
22.896600 1.512000
22.918100 1.475700
22.939500 1.437400
22.961000 1.397900
22.982500 1.303700
23.003900 1.224600
23.025400 1.156200
23.046900 1.091200
23.068300 1.029100
23.089800 0.979400
23.111300 0.920900
23.132700 0.853200
23.154200 0.794300
23.175700 0.747000
23.197100 0.704500
23.218600 0.665300
23.240100 0.624400
23.261500 0.501300
23.283000 0.481000
23.304500 0.462200
23.325900 0.444000
23.347400 0.429700
23.368900 0.415900
23.390300 0.402400
23.411800 0.389300
23.433300 0.376500
23.454700 0.364100
23.476200 0.352400
23.497700 0.341300
23.519100 0.330700
23.540600 0.320700
23.562100 0.311500
23.583500 0.302900
23.605000 0.294400
23.626400 0.286400
23.647900 0.278800
23.669400 0.271700
23.690800 0.264900
23.712300 0.258400
23.733800 0.251900
23.755200 0.245700
23.776700 0.239600
23.798200 0.233900
23.819600 0.228500
23.841100 0.223400
23.862600 0.218500
23.884000 0.213600
23.905500 0.209300
23.927000 0.206100
23.948400 0.203600
23.969900 0.201100
23.991400 0.198600
24.012800 0.196200
24.034300 0.193800
24.055800 0.191500
24.077200 0.189200
24.098700 0.187000
24.120200 0.184800
24.141600 0.182700
24.163100 0.180600
24.184600 0.178600
24.206000 0.176600
24.227500 0.174700
24.249000 0.172800
24.270400 0.171000
24.291900 0.170000
24.313400 0.169400
24.334800 0.168800
24.356300 0.168100
24.377800 0.167400
24.399200 0.166500
24.420700 0.165600
24.442200 0.164500
24.463600 0.163300
24.485100 0.161600
24.506600 0.158100
24.528000 0.154500
24.549500 0.150800
24.571000 0.147000
24.592400 0.143000
24.613900 0.138900
24.635400 0.135600
24.656800 0.136900
24.678300 0.136900
24.699800 0.135400
24.721200 0.133200
24.742700 0.131000
24.764200 0.128800
24.785600 0.126700
24.807100 0.124600
24.828600 0.122500
24.850000 0.120400
24.871500 0.118300
24.893000 0.116300
24.914400 0.114300
24.935900 0.112300
24.957400 0.110500
24.978800 0.111100
25.000300 0.111200
25.021800 0.110500
25.043200 0.109100
25.064700 0.107000
25.086200 0.104200
25.107600 0.100600
25.129100 0.096300
25.150500 0.094500
25.172000 0.092800
25.193500 0.091000
25.214900 0.089100
25.236400 0.087100
25.257900 0.088400
25.279300 0.092100
25.300800 0.095300
25.322300 0.097800
25.343700 0.099700
25.365200 0.101000
25.386700 0.101600
25.408100 0.118900
25.429600 0.112500
25.451100 0.086700
25.472500 0.079200
25.494000 0.071700
25.515500 0.064100
25.536900 0.056400
25.558400 0.048600
25.579900 0.040700
25.601300 0.036200
25.622800 0.035600
25.644300 0.035000
25.665700 0.034300
25.687200 0.033600
25.708700 0.032900
25.730100 0.032100
25.751600 0.031300
25.773100 0.030500
25.794500 0.029700
25.816000 0.049100
25.837500 0.066700
25.858900 0.054900
25.880400 0.044800
25.901900 0.019000
25.923300 0.017100
25.944800 0.016600
25.966300 0.016100
25.987700 0.015600
26.009200 0.015200
26.030700 0.014700
26.052100 0.014300
26.073600 0.013800
26.095100 0.013400
26.116500 0.012900
26.138000 0.012500
26.159500 0.012100
26.180900 0.011700
26.202400 0.011300
26.223900 0.010900
26.245300 0.010500
26.266800 0.010100
26.288300 0.009700
26.309700 0.009400
26.331200 0.009000
26.352700 0.008600
26.374100 0.008300
26.395600 0.007900
26.417100 0.007600
26.438500 0.007300
26.460000 0.006900
26.481500 0.006600
26.502900 0.006300
26.524400 0.006000
26.545900 0.005700
26.567300 0.005400
26.588800 0.005100
26.610200 0.004800
26.631700 0.004600
26.653200 0.004300
26.674600 0.004000
26.696100 0.003800
26.717600 0.003500
26.739000 0.003300
26.760500 0.003100
26.782000 0.002800
26.803400 0.002600
26.824900 0.002400
26.846400 0.002200
26.867800 0.002000
26.889300 0.001800
26.910800 0.001600
26.932200 0.001400
26.953700 0.001300
26.975200 0.001100
26.996600 0.000900
27.018100 0.000800
27.039600 0.000600
27.061000 0.000500
27.082500 0.000400
27.104000 0.000200
27.125400 0.000100
27.146900 0.000000
27.168400 0.000000
27.189800 0.000000
27.211300 0.000000
27.232800 0.000000
27.254200 0.000000
27.275700 0.000000
27.297200 0.000000
27.318600 0.000000
27.340100 0.000000
27.361600 0.000000
27.383000 0.000000
27.404500 0.000000
27.426000 0.000000
27.447400 0.000000
27.468900 0.000000
27.490400 0.000000
27.511800 0.000000
27.533300 0.000000
27.554800 0.000000
27.576200 0.000000
27.597700 0.000000
27.619200 0.000000
27.640600 0.000000
27.662100 0.000000
27.683600 0.000000
27.705000 0.000000
27.726500 0.000000
27.748000 0.000000
27.769400 0.000000
27.790900 0.000000
27.812400 0.000000
27.833800 0.000000
27.855300 0.000000
27.876800 0.000000
27.898200 0.000000
27.919700 0.000000
27.941200 0.000000
27.962600 0.000000
27.984100 0.000000
28.005600 0.000000
28.027000 0.000000
28.048500 0.000000
28.069900 0.000000
28.091400 0.000000
28.112900 0.000000
28.134300 0.000000
28.155800 0.000000
28.177300 0.000000
28.198700 0.000000
28.220200 0.000000
28.241700 0.000000
28.263100 0.000000
28.284600 0.000000
28.306100 0.000000
28.327500 0.000000
28.349000 0.000000
28.370500 0.000000
28.391900 0.000000
28.413400 0.000000
28.434900 0.000000
28.456300 0.000000
28.477800 0.000000
28.499300 0.000000
28.520700 0.000000
28.542200 0.000000
28.563700 0.000000
28.585100 0.000000
28.606600 0.000000
28.628100 0.000000
28.649500 0.000000
28.671000 0.000000
28.692500 0.000000
28.713900 0.000000
28.735400 0.000000
28.756900 0.000000
28.778300 0.000000
28.799800 0.000000
28.821300 0.000000
28.842700 0.000000
28.864200 0.000000
28.885700 0.000000
28.907100 0.000000
28.928600 0.000000
28.950100 0.000000
28.971500 0.000000
28.993000 0.000000
29.014500 0.000000
29.035900 0.000000
29.057400 0.000000
29.078900 0.000000
29.100300 0.000000
e
