set title 'mp-1184566 - Density of States'
set xlabel 'Energy (eV)'
set ylabel 'DOS (states/eV)'
set grid
set xrange [-10:10]
set yrange [0:28.347]
set xzeroaxis lt -1
set terminal png size 800,600
set output 'mp-1184566_dos_gnuplot.png'
plot '-' using 1:2 with lines title 'DOS'
-12.041800 0.000000
-12.017400 0.000000
-11.993000 0.000000
-11.968700 0.000000
-11.944300 0.000000
-11.919900 0.000000
-11.895500 0.000000
-11.871100 0.000000
-11.846800 0.000000
-11.822400 0.000000
-11.798000 0.000000
-11.773600 0.000000
-11.749200 0.000000
-11.724900 0.000000
-11.700500 0.000000
-11.676100 0.000000
-11.651700 0.000000
-11.627400 0.000000
-11.603000 0.000000
-11.578600 0.000000
-11.554200 0.000000
-11.529800 0.000000
-11.505500 0.000000
-11.481100 0.000000
-11.456700 0.000000
-11.432300 0.000000
-11.407900 0.000000
-11.383600 0.000000
-11.359200 0.000000
-11.334800 0.000000
-11.310400 0.000000
-11.286100 0.000000
-11.261700 0.000000
-11.237300 0.000000
-11.212900 0.000000
-11.188500 0.000000
-11.164200 0.000000
-11.139800 0.000000
-11.115400 0.000000
-11.091000 0.000000
-11.066600 0.000000
-11.042300 0.000000
-11.017900 0.000000
-10.993500 0.000000
-10.969100 0.000000
-10.944800 0.000000
-10.920400 0.000000
-10.896000 0.000000
-10.871600 0.000000
-10.847200 0.000000
-10.822900 0.000000
-10.798500 0.000000
-10.774100 0.000000
-10.749700 0.000000
-10.725300 0.000000
-10.701000 0.000000
-10.676600 0.000000
-10.652200 0.000000
-10.627800 0.000000
-10.603500 0.000000
-10.579100 0.000000
-10.554700 0.000000
-10.530300 0.000000
-10.505900 0.000000
-10.481600 0.000000
-10.457200 0.000000
-10.432800 0.000000
-10.408400 0.000000
-10.384000 0.000000
-10.359700 0.000000
-10.335300 0.000000
-10.310900 0.000000
-10.286500 0.000000
-10.262100 0.000000
-10.237800 0.000000
-10.213400 0.000000
-10.189000 0.000000
-10.164600 0.000000
-10.140300 0.000000
-10.115900 0.000000
-10.091500 0.000000
-10.067100 0.000000
-10.042700 0.000000
-10.018400 0.000000
-9.994000 0.000000
-9.969600 0.000000
-9.945200 0.000000
-9.920800 0.000000
-9.896500 0.000000
-9.872100 0.000000
-9.847700 0.000000
-9.823300 0.000400
-9.799000 0.063000
-9.774600 0.201900
-9.750200 0.254100
-9.725800 0.285800
-9.701400 0.344400
-9.677100 0.401900
-9.652700 0.444900
-9.628300 0.478000
-9.603900 0.515900
-9.579500 0.559200
-9.555200 0.603100
-9.530800 0.646200
-9.506400 0.688100
-9.482000 0.734100
-9.457700 0.780400
-9.433300 0.824500
-9.408900 0.871200
-9.384500 0.919300
-9.360100 0.972700
-9.335800 1.029800
-9.311400 1.090500
-9.287000 1.151900
-9.262600 1.215300
-9.238200 1.281800
-9.213900 1.358200
-9.189500 1.437800
-9.165100 1.520600
-9.140700 1.618500
-9.116400 1.724300
-9.092000 1.833700
-9.067600 1.953200
-9.043200 2.097500
-9.018800 2.254200
-8.994500 2.419600
-8.970100 2.615700
-8.945700 2.862500
-8.921300 3.152800
-8.896900 3.527400
-8.872600 4.027300
-8.848200 4.703400
-8.823800 5.186300
-8.799400 5.677300
-8.775100 5.882700
-8.750700 6.160600
-8.726300 6.289500
-8.701900 6.490400
-8.677500 6.913100
-8.653200 7.212400
-8.628800 7.291400
-8.604400 8.271700
-8.580000 9.095500
-8.555600 15.690600
-8.531300 22.827600
-8.506900 0.000000
-8.482500 0.000000
-8.458100 0.000000
-8.433800 0.000000
-8.409400 0.000000
-8.385000 0.000000
-8.360600 0.000000
-8.336200 0.000000
-8.311900 0.000000
-8.287500 0.000000
-8.263100 0.000000
-8.238700 0.000000
-8.214300 0.000000
-8.190000 0.000000
-8.165600 0.000000
-8.141200 0.000000
-8.116800 0.000000
-8.092400 0.000000
-8.068100 0.000000
-8.043700 0.000000
-8.019300 0.000000
-7.994900 0.000000
-7.970600 0.000000
-7.946200 0.000000
-7.921800 0.000000
-7.897400 0.000000
-7.873000 0.000000
-7.848700 0.000000
-7.824300 0.000000
-7.799900 0.000000
-7.775500 0.000000
-7.751100 0.000000
-7.726800 0.000000
-7.702400 0.000000
-7.678000 0.000000
-7.653600 0.000000
-7.629300 0.000000
-7.604900 0.000000
-7.580500 0.000000
-7.556100 0.000000
-7.531700 0.000000
-7.507400 0.000000
-7.483000 0.000000
-7.458600 0.000000
-7.434200 0.000000
-7.409800 0.000000
-7.385500 0.000000
-7.361100 0.000000
-7.336700 0.000000
-7.312300 0.000000
-7.288000 0.000000
-7.263600 0.000000
-7.239200 0.000000
-7.214800 0.000000
-7.190400 0.000000
-7.166100 0.000000
-7.141700 0.000000
-7.117300 0.000000
-7.092900 0.000000
-7.068500 0.000000
-7.044200 0.000000
-7.019800 0.000000
-6.995400 0.000000
-6.971000 0.000000
-6.946700 0.000000
-6.922300 0.000000
-6.897900 0.000000
-6.873500 0.000000
-6.849100 0.000000
-6.824800 0.000000
-6.800400 0.000000
-6.776000 0.000000
-6.751600 0.000000
-6.727200 0.000000
-6.702900 0.000000
-6.678500 0.000000
-6.654100 0.000000
-6.629700 0.000000
-6.605400 0.000000
-6.581000 0.000000
-6.556600 0.000000
-6.532200 0.000000
-6.507800 0.000000
-6.483500 0.000000
-6.459100 0.000000
-6.434700 0.000000
-6.410300 0.000000
-6.385900 0.000000
-6.361600 0.000000
-6.337200 0.000000
-6.312800 0.000000
-6.288400 0.000000
-6.264100 0.000000
-6.239700 0.000000
-6.215300 0.000000
-6.190900 0.000000
-6.166500 0.000000
-6.142200 0.000000
-6.117800 0.000000
-6.093400 0.000000
-6.069000 0.000000
-6.044600 0.000000
-6.020300 0.000000
-5.995900 0.000000
-5.971500 0.000000
-5.947100 0.000000
-5.922700 0.000000
-5.898400 0.000000
-5.874000 0.000000
-5.849600 0.000000
-5.825200 0.000000
-5.800900 0.000000
-5.776500 0.000000
-5.752100 0.000000
-5.727700 0.000000
-5.703300 0.000000
-5.679000 0.000000
-5.654600 0.000000
-5.630200 0.000000
-5.605800 0.000000
-5.581400 0.000000
-5.557100 0.000000
-5.532700 0.000000
-5.508300 1.677300
-5.483900 4.495900
-5.459600 7.357100
-5.435200 15.289700
-5.410800 19.183900
-5.386400 25.769700
-5.362000 19.767200
-5.337700 15.322800
-5.313300 14.377200
-5.288900 19.024700
-5.264500 14.115400
-5.240100 16.511700
-5.215800 16.508400
-5.191400 11.259200
-5.167000 10.289200
-5.142600 11.506000
-5.118300 12.746500
-5.093900 13.435500
-5.069500 12.487000
-5.045100 11.692200
-5.020700 10.888000
-4.996400 10.204400
-4.972000 9.757800
-4.947600 9.259200
-4.923200 9.530500
-4.898800 10.721500
-4.874500 12.816100
-4.850100 14.717200
-4.825700 13.861000
-4.801300 9.969700
-4.777000 9.197300
-4.752600 11.279000
-4.728200 12.666700
-4.703800 16.537000
-4.679400 12.631300
-4.655100 11.178200
-4.630700 9.299200
-4.606300 10.509000
-4.581900 12.613100
-4.557500 11.809200
-4.533200 7.501700
-4.508800 11.419800
-4.484400 10.021400
-4.460000 11.145600
-4.435700 14.290800
-4.411300 15.616200
-4.386900 18.483800
-4.362500 18.185900
-4.338100 18.118800
-4.313800 17.602700
-4.289400 14.146000
-4.265000 10.792700
-4.240600 10.954100
-4.216200 9.634800
-4.191900 6.635000
-4.167500 4.018100
-4.143100 3.756000
-4.118700 3.260000
-4.094400 2.532900
-4.070000 2.363200
-4.045600 2.290300
-4.021200 2.231400
-3.996800 2.187400
-3.972500 2.169300
-3.948100 2.159600
-3.923700 2.126600
-3.899300 2.069300
-3.874900 2.041400
-3.850600 2.018700
-3.826200 1.998300
-3.801800 1.997900
-3.777400 2.072100
-3.753000 2.099400
-3.728700 2.112200
-3.704300 2.121800
-3.679900 2.128400
-3.655500 2.127200
-3.631200 2.128300
-3.606800 2.179700
-3.582400 2.277100
-3.558000 2.262100
-3.533600 2.212000
-3.509300 2.139700
-3.484900 2.075700
-3.460500 2.037400
-3.436100 1.986500
-3.411700 1.969600
-3.387400 2.007100
-3.363000 2.016700
-3.338600 1.992900
-3.314200 2.008700
-3.289900 2.016600
-3.265500 2.039900
-3.241100 2.070100
-3.216700 2.157200
-3.192300 2.374300
-3.168000 2.465500
-3.143600 2.551400
-3.119200 2.306000
-3.094800 2.214600
-3.070400 2.224500
-3.046100 2.162300
-3.021700 2.083200
-2.997300 2.063000
-2.972900 2.071700
-2.948600 2.111400
-2.924200 2.243400
-2.899800 2.047200
-2.875400 2.025400
-2.851000 1.257600
-2.826700 1.168900
-2.802300 0.932300
-2.777900 0.839800
-2.753500 0.743200
-2.729100 0.642300
-2.704800 0.542000
-2.680400 0.450000
-2.656000 0.371200
-2.631600 0.314400
-2.607300 0.205000
-2.582900 0.065000
-2.558500 0.068800
-2.534100 0.074300
-2.509700 0.080000
-2.485400 0.085800
-2.461000 0.091900
-2.436600 0.098700
-2.412200 0.105900
-2.387800 0.113500
-2.363500 0.140100
-2.339100 0.271400
-2.314700 0.762500
-2.290300 0.997900
-2.266000 1.180000
-2.241600 1.485100
-2.217200 2.094200
-2.192800 2.647500
-2.168400 2.679400
-2.144100 2.791400
-2.119700 2.915600
-2.095300 3.543900
-2.070900 2.862700
-2.046500 2.676200
-2.022200 2.494400
-1.997800 2.339400
-1.973400 2.197400
-1.949000 2.065800
-1.924700 1.940100
-1.900300 1.847700
-1.875900 1.760800
-1.851500 1.691800
-1.827100 1.632400
-1.802800 1.580900
-1.778400 1.502800
-1.754000 1.429200
-1.729600 1.378200
-1.705200 1.310200
-1.680900 1.283900
-1.656500 1.260300
-1.632100 1.239400
-1.607700 1.220700
-1.583300 1.211800
-1.559000 1.193200
-1.534600 1.176600
-1.510200 1.162800
-1.485800 1.151100
-1.461500 1.124200
-1.437100 1.124700
-1.412700 1.127300
-1.388300 1.131900
-1.363900 1.138600
-1.339600 1.146300
-1.315200 1.151800
-1.290800 1.157000
-1.266400 1.160600
-1.242000 1.164100
-1.217700 1.184000
-1.193300 1.198100
-1.168900 1.215900
-1.144500 1.240700
-1.120200 1.279800
-1.095800 1.303000
-1.071400 1.351300
-1.047000 1.386700
-1.022600 1.402400
-0.998300 1.392200
-0.973900 1.346400
-0.949500 1.276000
-0.925100 1.227500
-0.900700 1.178900
-0.876400 1.123500
-0.852000 1.096200
-0.827600 1.071300
-0.803200 1.078600
-0.778900 1.076100
-0.754500 1.076800
-0.730100 1.080100
-0.705700 1.085600
-0.681300 1.068600
-0.657000 1.067600
-0.632600 1.068200
-0.608200 1.070000
-0.583800 1.072700
-0.559400 1.075600
-0.535100 1.078800
-0.510700 1.081900
-0.486300 1.085200
-0.461900 1.089100
-0.437600 1.095000
-0.413200 1.100800
-0.388800 1.110200
-0.364400 1.120300
-0.340000 1.130700
-0.315700 1.140600
-0.291300 1.148800
-0.266900 1.156300
-0.242500 1.162900
-0.218100 1.167600
-0.193800 1.173400
-0.169400 1.180700
-0.145000 1.194800
-0.120600 1.222900
-0.096300 1.264500
-0.071900 1.327800
-0.047500 1.424600
-0.023100 1.459200
0.001300 1.487900
0.025600 1.512300
0.050000 1.528600
0.074400 1.538900
0.098800 1.550400
0.123200 1.565700
0.147500 1.580600
0.171900 1.601800
0.196300 1.520500
0.220700 1.463100
0.245000 1.445200
0.269400 1.423200
0.293800 1.393000
0.318200 1.350000
0.342600 1.328400
0.366900 1.323600
0.391300 1.319600
0.415700 1.339800
0.440100 1.369800
0.464500 1.401600
0.488800 1.434700
0.513200 1.471100
0.537600 1.513900
0.562000 1.560800
0.586400 1.592500
0.610700 1.611500
0.635100 1.648300
0.659500 1.688300
0.683900 1.736000
0.708200 1.860500
0.732600 1.964700
0.757000 2.008800
0.781400 2.033600
0.805800 2.062300
0.830100 2.121600
0.854500 2.092500
0.878900 2.075500
0.903300 2.082400
0.927700 2.092000
0.952000 2.141400
0.976400 2.194500
1.000800 2.250400
1.025200 2.308600
1.049500 2.359200
1.073900 2.421100
1.098300 2.461200
1.122700 2.468300
1.147100 2.470900
1.171400 2.482700
1.195800 2.504900
1.220200 2.533400
1.244600 2.559200
1.269000 2.630400
1.293300 2.701100
1.317700 2.671900
1.342100 2.428800
1.366500 2.245200
1.390800 2.200300
1.415200 2.173100
1.439600 2.151700
1.464000 2.139300
1.488400 2.119300
1.512700 2.143000
1.537100 2.141900
1.561500 2.146900
1.585900 2.154300
1.610300 2.198500
1.634600 2.259400
1.659000 2.324200
1.683400 2.404100
1.707800 2.443800
1.732100 2.491600
1.756500 2.354700
1.780900 2.403300
1.805300 2.409500
1.829700 2.416300
1.854000 2.437900
1.878400 2.529200
1.902800 2.662600
1.927200 2.744700
1.951600 2.730600
1.975900 2.661100
2.000300 2.672300
2.024700 2.683000
2.049100 2.685300
2.073400 2.646400
2.097800 2.688500
2.122200 2.816300
2.146600 3.020000
2.171000 3.341500
2.195300 3.580000
2.219700 3.761000
2.244100 3.860000
2.268500 3.847900
2.292900 3.941500
2.317200 4.467500
2.341600 4.459200
2.366000 4.256000
2.390400 4.154500
2.414700 3.996100
2.439100 3.905600
2.463500 3.835000
2.487900 3.853300
2.512300 3.782500
2.536600 3.684500
2.561000 3.596500
2.585400 3.479600
2.609800 3.408300
2.634200 3.370500
2.658500 3.322200
2.682900 3.249800
2.707300 3.185800
2.731700 3.117100
2.756100 3.006500
2.780400 2.909300
2.804800 2.856800
2.829200 2.841500
2.853600 2.863500
2.877900 2.848600
2.902300 2.754000
2.926700 2.651800
2.951100 2.541000
2.975500 2.416700
2.999800 2.293900
3.024200 2.205900
3.048600 2.144200
3.073000 2.086200
3.097400 2.022100
3.121700 1.954100
3.146100 1.887200
3.170500 1.819300
3.194900 1.750600
3.219200 1.690500
3.243600 1.645800
3.268000 1.598700
3.292400 1.532700
3.316800 1.481600
3.341100 1.439200
3.365500 1.399500
3.389900 1.359900
3.414300 1.317600
3.438700 1.278600
3.463000 1.244600
3.487400 1.231800
3.511800 1.216500
3.536200 1.181500
3.560500 1.131600
3.584900 1.080600
3.609300 1.043400
3.633700 1.005400
3.658100 0.969700
3.682400 0.931400
3.706800 0.891800
3.731200 0.854800
3.755600 0.823300
3.780000 0.798100
3.804300 0.771000
3.828700 0.740800
3.853100 0.711900
3.877500 0.673400
3.901800 0.630900
3.926200 0.588200
3.950600 0.546400
3.975000 0.513300
3.999400 0.505000
4.023700 0.448600
4.048100 0.365700
4.072500 0.301400
4.096900 0.246300
4.121300 0.200700
4.145600 0.184900
4.170000 0.149200
4.194400 0.063000
4.218800 0.008100
4.243100 0.000000
4.267500 0.000200
4.291900 0.000500
4.316300 0.001100
4.340700 0.001800
4.365000 0.002700
4.389400 0.003800
4.413800 0.005100
4.438200 0.006600
4.462600 0.008200
4.486900 0.010000
4.511300 0.012100
4.535700 0.014300
4.560100 0.016600
4.584400 0.019300
4.608800 0.023000
4.633200 0.028200
4.657600 0.033400
4.682000 0.037600
4.706300 0.041600
4.730700 0.045600
4.755100 0.049400
4.779500 0.053100
4.803900 0.056700
4.828200 0.060200
4.852600 0.063600
4.877000 0.067900
4.901400 0.072400
4.925800 0.077100
4.950100 0.081800
4.974500 0.086700
4.998900 0.091700
5.023300 0.096800
5.047600 0.102000
5.072000 0.107400
5.096400 0.112900
5.120800 0.118500
5.145200 0.124200
5.169500 0.130200
5.193900 0.136200
5.218300 0.142800
5.242700 0.149800
5.267100 0.157500
5.291400 0.165600
5.315800 0.173000
5.340200 0.180200
5.364600 0.187500
5.388900 0.195000
5.413300 0.202500
5.437700 0.210200
5.462100 0.218000
5.486500 0.225900
5.510800 0.234000
5.535200 0.242100
5.559600 0.250200
5.584000 0.259500
5.608400 0.270300
5.632700 0.281900
5.657100 0.293300
5.681500 0.305100
5.705900 0.317200
5.730200 0.329200
5.754600 0.340400
5.779000 0.352000
5.803400 0.364100
5.827800 0.377800
5.852100 0.393000
5.876500 0.414600
5.900900 0.449900
5.925300 0.485900
5.949700 0.522000
5.974000 0.558000
5.998400 0.593000
6.022800 0.624800
6.047200 0.656100
6.071500 0.686200
6.095900 0.715700
6.120300 0.698700
6.144700 0.695900
6.169100 0.713400
6.193400 0.730800
6.217800 0.748900
6.242200 0.767600
6.266600 0.788400
6.291000 0.813800
6.315300 0.840300
6.339700 0.865100
6.364100 0.890900
6.388500 0.916900
6.412800 0.944100
6.437200 0.972700
6.461600 1.002300
6.486000 1.032500
6.510400 1.074400
6.534700 1.152300
6.559100 1.224800
6.583500 1.292800
6.607900 1.354000
6.632300 1.446300
6.656600 1.639900
6.681000 1.791000
6.705400 1.860300
6.729800 1.919200
6.754100 1.955400
6.778500 1.976600
6.802900 1.964500
6.827300 1.935000
6.851700 1.953400
6.876000 1.942800
6.900400 1.918500
6.924800 1.893500
6.949200 1.861800
6.973600 1.834300
6.997900 1.807300
7.022300 1.809100
7.046700 1.812200
7.071100 1.815600
7.095500 1.818300
7.119800 1.822100
7.144200 1.824100
7.168600 1.818600
7.193000 1.809500
7.217300 1.805800
7.241700 1.802300
7.266100 1.797200
7.290500 1.794900
7.314900 1.801200
7.339200 1.820700
7.363600 1.854500
7.388000 1.891400
7.412400 1.924500
7.436800 1.953900
7.461100 2.004800
7.485500 2.071200
7.509900 2.106500
7.534300 2.157900
7.558600 2.249700
7.583000 2.373400
7.607400 2.761200
7.631800 2.714200
7.656200 2.628600
7.680500 2.543300
7.704900 2.415000
7.729300 2.231700
7.753700 2.071600
7.778100 1.841600
7.802400 1.807400
7.826800 1.811700
7.851200 1.774300
7.875600 1.734700
7.899900 1.698700
7.924300 1.670700
7.948700 1.645400
7.973100 1.622800
7.997500 1.607400
8.021800 1.612600
8.046200 1.847900
8.070600 1.446200
8.095000 1.428200
8.119400 1.416100
8.143700 1.368700
8.168100 1.308500
8.192500 1.294600
8.216900 1.410900
8.241200 1.303500
8.265600 1.228000
8.290000 1.392500
8.314400 1.482700
8.338800 1.676500
8.363100 0.000000
8.387500 0.000000
8.411900 0.000000
8.436300 0.000000
8.460700 0.000000
8.485000 0.000000
8.509400 0.000000
8.533800 0.000000
8.558200 0.000000
8.582500 0.035000
8.606900 0.057200
8.631300 0.083300
8.655700 0.113200
8.680100 0.155000
8.704400 0.305000
8.728800 0.560400
8.753200 0.849800
8.777600 1.043500
8.802000 1.166200
8.826300 1.360200
8.850700 1.617000
8.875100 1.877400
8.899500 2.093900
8.923800 2.250000
8.948200 2.386500
8.972600 2.436400
8.997000 2.463800
9.021400 2.478100
9.045700 2.466700
9.070100 2.559000
9.094500 2.678900
9.118900 2.811200
9.143300 2.966800
9.167600 3.310200
9.192000 3.906900
9.216400 3.939000
9.240800 3.899800
9.265200 3.644900
9.289500 3.327200
9.313900 3.089600
9.338300 3.155000
9.362700 3.406000
9.387000 3.796100
9.411400 4.327400
9.435800 4.504600
9.460200 4.854800
9.484600 5.199900
9.508900 4.919000
9.533300 4.687700
9.557700 4.068500
9.582100 3.897500
9.606500 3.741900
9.630800 3.577600
9.655200 3.433300
9.679600 3.293600
9.704000 3.063600
9.728300 2.738000
9.752700 2.412800
9.777100 2.324800
9.801500 2.087000
9.825900 1.872900
9.850200 1.758900
9.874600 1.631100
9.899000 1.520400
9.923400 1.425300
9.947800 1.341800
9.972100 1.266300
9.996500 1.234100
10.020900 1.190700
10.045300 1.163800
10.069600 1.136900
10.094000 1.115100
10.118400 1.093900
10.142800 1.070000
10.167200 1.097400
10.191500 1.089200
10.215900 1.086200
10.240300 1.030200
10.264700 0.859000
10.289100 0.771400
10.313400 0.782200
10.337800 0.786400
10.362200 0.780300
10.386600 0.776700
10.410900 0.771400
10.435300 0.769200
10.459700 0.769600
10.484100 0.771000
10.508500 0.773900
10.532800 0.773000
10.557200 0.754600
10.581600 0.748800
10.606000 0.753900
10.630400 0.782900
10.654700 0.813500
10.679100 0.841500
10.703500 0.872000
10.727900 0.901700
10.752200 0.933500
10.776600 0.970100
10.801000 1.006100
10.825400 1.048600
10.849800 1.101300
10.874100 1.170100
10.898500 1.251600
10.922900 1.348600
10.947300 1.447300
10.971700 1.522700
10.996000 1.591400
11.020400 1.761400
11.044800 1.883400
11.069200 2.017300
11.093500 2.185400
11.117900 2.383500
11.142300 2.687700
11.166700 3.084200
11.191100 3.634300
11.215400 3.992500
11.239800 4.188800
11.264200 4.140100
11.288600 3.913400
11.313000 4.145900
11.337300 4.541100
11.361700 4.963500
11.386100 4.822900
11.410500 4.632900
11.434900 4.313500
11.459200 3.856100
11.483600 3.527300
11.508000 3.401300
11.532400 3.277300
11.556700 3.033600
11.581100 2.654900
11.605500 2.509600
11.629900 2.407600
11.654300 2.363000
11.678600 2.336600
11.703000 2.293100
11.727400 2.227400
11.751800 2.182700
11.776200 2.154300
11.800500 2.125800
11.824900 2.061700
11.849300 2.019000
11.873700 1.976000
11.898000 1.884100
11.922400 1.789400
11.946800 1.691800
11.971200 1.570000
11.995600 1.506300
12.019900 1.455400
12.044300 1.390700
12.068700 1.371900
12.093100 1.507700
12.117500 1.750700
12.141800 2.149200
12.166200 2.375200
12.190600 2.562200
12.215000 3.061100
12.239300 3.272300
12.263700 3.392200
12.288100 3.420900
12.312500 3.336500
12.336900 3.211200
12.361200 3.024100
12.385600 2.872500
12.410000 2.746900
12.434400 2.613100
12.458800 2.478800
12.483100 2.273200
12.507500 2.069000
12.531900 1.999700
12.556300 2.031700
12.580600 2.065900
12.605000 2.095700
12.629400 2.117900
12.653800 2.130300
12.678200 2.132900
12.702500 2.233800
12.726900 2.224400
12.751300 2.231800
12.775700 2.230000
12.800100 2.200200
12.824400 2.175500
12.848800 2.180100
12.873200 2.235300
12.897600 2.286300
12.921900 2.332600
12.946300 2.436000
12.970700 2.451800
12.995100 2.286100
13.019500 2.188600
13.043800 2.049200
13.068200 1.882900
13.092600 1.773500
13.117000 1.727300
13.141400 1.687400
13.165700 1.652900
13.190100 1.614800
13.214500 1.605500
13.238900 1.560000
13.263200 1.517200
13.287600 1.464500
13.312000 1.441900
13.336400 1.420600
13.360800 1.400800
13.385100 1.382800
13.409500 1.364100
13.433900 1.336600
13.458300 1.311300
13.482700 1.292400
13.507000 1.271000
13.531400 1.256500
13.555800 1.256400
13.580200 1.252800
13.604600 1.252300
13.628900 1.254000
13.653300 1.258600
13.677700 1.267100
13.702100 1.279200
13.726400 1.295700
13.750800 1.301600
13.775200 1.310500
13.799600 1.320200
13.824000 1.340700
13.848300 1.364500
13.872700 1.388900
13.897100 1.416800
13.921500 1.445000
13.945900 1.474500
13.970200 1.512300
13.994600 1.582600
14.019000 1.661500
14.043400 1.845300
14.067700 1.958100
14.092100 2.064700
14.116500 2.169600
14.140900 2.206000
14.165300 2.285300
14.189600 2.375300
14.214000 2.379700
14.238400 2.351600
14.262800 2.290200
14.287200 2.226900
14.311500 2.161400
14.335900 2.080300
14.360300 1.988300
14.384700 1.936200
14.409000 1.860300
14.433400 1.810100
14.457800 1.761700
14.482200 1.718400
14.506600 1.674800
14.530900 1.624500
14.555300 1.571000
14.579700 1.520600
14.604100 1.475200
14.628500 1.453300
14.652800 1.452200
14.677200 1.461000
14.701600 1.481600
14.726000 1.647500
14.750300 1.733100
14.774700 1.766200
14.799100 1.803700
14.823500 1.856400
14.847900 1.946800
14.872200 2.336900
14.896600 2.801300
14.921000 2.917300
14.945400 2.660700
14.969800 2.281000
14.994100 1.858500
15.018500 1.486200
15.042900 1.332900
15.067300 1.291000
15.091600 1.261900
15.116000 1.240400
15.140400 1.227400
15.164800 1.217100
15.189200 1.205900
15.213500 1.193700
15.237900 1.178800
15.262300 1.150500
15.286700 1.139100
15.311100 1.134400
15.335400 1.178100
15.359800 1.178600
15.384200 1.184200
15.408600 1.195100
15.433000 1.215200
15.457300 1.236800
15.481700 1.257500
15.506100 1.237200
15.530500 1.187100
15.554800 1.152200
15.579200 1.154300
15.603600 1.157200
15.628000 1.160800
15.652400 1.166200
15.676700 1.176000
15.701100 1.185900
15.725500 1.197600
15.749900 1.212000
15.774300 1.220400
15.798600 1.230400
15.823000 1.242700
15.847400 1.257600
15.871800 1.273100
15.896100 1.293200
15.920500 1.317400
15.944900 1.344700
15.969300 1.375000
15.993700 1.405800
16.018000 1.437700
16.042400 1.484800
16.066800 1.543300
16.091200 1.611100
16.115600 1.690300
16.139900 1.833500
16.164300 1.987000
16.188700 1.966600
16.213100 1.959900
16.237400 1.934100
16.261800 1.963800
16.286200 1.930400
16.310600 1.878300
16.335000 1.776300
16.359300 1.731100
16.383700 1.688500
16.408100 1.648400
16.432500 1.613200
16.456900 1.586100
16.481200 1.566900
16.505600 1.484900
16.530000 1.367400
16.554400 1.327300
16.578700 1.298200
16.603100 1.276100
16.627500 1.259400
16.651900 1.243600
16.676300 1.220600
16.700600 1.193500
16.725000 1.161500
16.749400 1.125900
16.773800 1.098000
16.798200 1.074600
16.822500 1.054300
16.846900 1.029700
16.871300 0.999900
16.895700 0.970800
16.920000 0.958200
16.944400 0.963700
16.968800 0.980500
16.993200 0.996800
17.017600 1.013100
17.041900 1.031800
17.066300 1.038600
17.090700 1.057000
17.115100 1.076000
17.139500 1.085100
17.163800 1.083400
17.188200 1.086100
17.212600 1.098900
17.237000 1.100100
17.261300 1.185100
17.285700 1.214900
17.310100 1.247100
17.334500 1.280500
17.358900 1.311000
17.383200 1.304300
17.407600 1.286300
17.432000 1.253200
17.456400 1.256300
17.480800 1.254900
17.505100 1.249300
17.529500 1.243600
17.553900 1.275600
17.578300 1.325100
17.602700 1.379100
17.627000 1.472400
17.651400 1.599200
17.675800 1.735800
17.700200 1.862100
17.724500 1.976200
17.748900 2.093300
17.773300 2.191700
17.797700 2.277500
17.822100 2.365700
17.846400 2.437600
17.870800 2.483800
17.895200 2.467900
17.919600 2.452700
17.944000 2.565700
17.968300 2.781600
17.992700 2.661000
18.017100 2.471500
18.041500 2.311500
18.065800 2.181700
18.090200 2.074400
18.114600 1.991600
18.139000 1.927100
18.163400 1.867800
18.187700 1.816700
18.212100 1.786200
18.236500 1.764500
18.260900 1.750000
18.285300 1.739700
18.309600 1.744400
18.334000 1.775400
18.358400 1.827900
18.382800 1.904400
18.407100 1.891900
18.431500 1.990200
18.455900 1.992400
18.480300 1.963500
18.504700 1.909300
18.529000 1.866900
18.553400 1.842600
18.577800 1.856600
18.602200 1.913900
18.626600 1.976200
18.650900 2.026900
18.675300 2.068700
18.699700 2.104000
18.724100 2.143200
18.748400 2.195400
18.772800 2.310300
18.797200 2.602900
18.821600 2.913700
18.846000 3.222000
18.870300 3.558300
18.894700 3.720300
18.919100 3.635400
18.943500 3.087500
18.967900 2.840500
18.992200 2.630300
19.016600 2.452800
19.041000 2.276200
19.065400 2.137600
19.089700 2.049500
19.114100 1.965000
19.138500 1.897600
19.162900 1.843900
19.187300 1.803800
19.211600 1.826600
19.236000 1.777000
19.260400 1.714000
19.284800 1.665100
19.309200 1.654800
19.333500 1.675800
19.357900 1.718000
19.382300 1.658400
19.406700 1.587700
19.431000 1.555800
19.455400 1.562800
19.479800 1.570300
19.504200 1.584900
19.528600 1.605500
19.552900 1.626200
19.577300 1.650800
19.601700 1.672100
19.626100 1.693800
19.650500 1.719200
19.674800 1.755800
19.699200 1.808400
19.723600 1.863000
19.748000 1.919800
19.772400 1.985300
19.796700 2.062300
19.821100 2.139300
19.845500 2.197900
19.869900 2.231400
19.894200 2.226100
19.918600 2.206300
19.943000 2.274700
19.967400 2.403800
19.991800 2.296000
20.016100 1.855000
20.040500 1.759400
20.064900 1.692900
20.089300 1.645300
20.113700 1.614500
20.138000 1.601600
20.162400 1.601100
20.186800 1.614900
20.211200 1.646200
20.235500 1.678100
20.259900 1.708400
20.284300 1.731400
20.308700 1.746000
20.333100 1.753100
20.357400 1.763700
20.381800 1.782100
20.406200 1.808200
20.430600 1.861200
20.455000 1.898200
20.479300 1.937000
20.503700 1.979700
20.528100 2.031800
20.552500 2.100400
20.576800 2.214400
20.601200 2.410900
20.625600 2.602700
20.650000 2.745300
20.674400 2.963000
20.698700 3.109700
20.723100 3.211500
20.747500 3.336300
20.771900 3.424900
20.796300 3.517000
20.820600 3.617200
20.845000 3.751800
20.869400 3.933900
20.893800 4.171400
20.918100 3.718300
20.942500 3.506200
20.966900 3.334100
20.991300 3.205800
21.015700 3.159000
21.040000 3.112600
21.064400 3.000100
21.088800 2.882200
21.113200 2.764700
21.137600 2.655100
21.161900 2.526200
21.186300 2.282800
21.210700 2.046400
21.235100 1.721000
21.259400 1.484700
21.283800 1.127000
21.308200 1.018300
21.332600 1.094700
21.357000 1.230900
21.381300 1.400600
21.405700 1.603200
21.430100 1.832900
21.454500 2.320000
21.478900 2.599900
21.503200 2.835600
21.527600 3.062100
21.552000 3.133300
21.576400 3.428900
21.600700 3.478200
21.625100 3.602000
21.649500 3.656200
21.673900 3.646100
21.698300 3.625900
21.722600 3.601300
21.747000 3.486900
21.771400 3.645100
21.795800 3.668100
21.820200 3.677400
21.844500 3.821800
21.868900 4.201100
21.893300 4.494600
21.917700 4.954500
21.942100 5.795800
21.966400 5.916900
21.990800 5.864500
22.015200 6.015800
22.039600 6.264400
22.063900 6.002500
22.088300 5.055500
22.112700 4.560900
22.137100 3.999800
22.161500 3.608700
22.185800 3.437400
22.210200 3.267200
22.234600 3.172100
22.259000 3.145100
22.283400 3.728600
22.307700 3.464800
22.332100 3.500600
22.356500 3.495600
22.380900 3.439700
22.405200 3.358400
22.429600 3.257600
22.454000 3.160500
22.478400 2.999000
22.502800 2.849300
22.527100 2.932800
22.551500 3.093200
22.575900 3.228800
22.600300 3.372000
22.624700 3.534000
22.649000 3.811300
22.673400 3.853900
22.697800 3.784600
22.722200 3.725900
22.746500 3.934500
22.770900 3.846100
22.795300 3.557400
22.819700 3.315500
22.844100 3.153800
22.868400 2.977800
22.892800 2.881000
22.917200 2.855000
22.941600 2.835700
22.966000 2.819000
22.990300 2.822200
23.014700 2.867600
23.039100 2.963200
23.063500 3.132000
23.087800 3.273300
23.112200 3.559700
23.136600 3.710200
23.161000 3.761200
23.185400 3.734300
23.209700 3.696800
23.234100 3.612400
23.258500 3.556200
23.282900 3.582900
23.307300 3.739100
23.331600 3.938900
23.356000 3.281400
23.380400 3.142300
23.404800 2.800800
23.429100 2.596000
23.453500 2.424100
23.477900 2.284200
23.502300 2.177100
23.526700 2.078500
23.551000 1.991800
23.575400 1.955900
23.599800 1.883400
23.624200 1.796200
23.648600 1.728200
23.672900 1.687700
23.697300 2.189500
23.721700 2.024500
23.746100 2.051300
23.770400 2.065100
23.794800 1.921400
23.819200 1.724700
23.843600 1.599800
23.868000 1.507700
23.892300 1.449100
23.916700 1.446600
23.941100 1.467400
23.965500 1.517900
23.989900 1.587300
24.014200 1.667000
24.038600 1.757300
24.063000 1.902800
24.087400 2.128100
24.111800 2.268300
24.136100 2.707400
24.160500 3.061800
24.184900 3.035000
24.209300 3.050500
24.233600 3.077700
24.258000 3.100800
24.282400 3.124700
24.306800 3.033300
24.331200 2.978800
24.355500 2.908200
24.379900 2.822600
24.404300 2.743500
24.428700 2.674100
24.453100 2.617300
24.477400 2.493200
24.501800 2.330800
24.526200 2.219300
24.550600 2.167900
24.574900 2.137200
24.599300 2.109500
24.623700 2.089300
24.648100 2.154200
24.672500 2.242300
24.696800 2.369600
24.721200 2.456700
24.745600 2.415500
24.770000 2.458100
24.794400 2.566500
24.818700 2.553900
24.843100 2.637700
24.867500 2.715500
24.891900 2.789900
24.916200 2.993500
24.940600 3.182000
24.965000 3.214600
24.989400 3.204800
25.013800 3.236800
25.038100 3.256000
25.062500 3.279400
25.086900 3.293600
25.111300 3.253200
25.135700 3.162900
25.160000 2.996900
25.184400 2.969000
25.208800 2.991100
25.233200 3.102500
25.257500 3.261100
25.281900 3.384600
25.306300 3.404500
25.330700 3.308300
25.355100 3.070000
25.379400 2.778700
25.403800 2.727600
25.428200 2.760200
25.452600 2.814300
25.477000 2.925000
25.501300 2.954100
25.525700 2.974700
25.550100 2.990100
25.574500 3.001400
25.598800 2.936700
25.623200 2.883700
25.647600 2.898300
25.672000 2.983500
25.696400 2.972400
25.720700 2.967500
25.745100 2.976100
25.769500 2.973800
25.793900 2.951600
25.818300 2.955900
25.842600 3.035600
25.867000 3.219700
25.891400 3.277100
25.915800 3.263800
25.940100 3.300400
25.964500 3.331700
25.988900 3.369600
26.013300 3.488200
26.037700 3.585300
26.062000 3.599500
26.086400 3.426200
26.110800 3.366500
26.135200 3.282600
26.159600 3.105000
26.183900 2.872900
26.208300 2.617000
26.232700 2.411900
26.257100 2.316600
26.281500 2.276000
26.305800 2.278500
26.330200 2.300500
26.354600 2.328200
26.379000 2.361200
26.403300 2.398100
26.427700 2.439800
26.452100 2.486100
26.476500 2.540500
26.500900 2.600000
26.525200 2.655300
26.549600 2.694000
26.574000 2.686900
26.598400 2.660700
26.622800 2.646200
26.647100 2.625400
26.671500 2.589800
26.695900 2.497600
26.720300 2.387600
26.744600 2.301000
26.769000 2.318900
26.793400 2.338400
26.817800 2.352000
26.842200 2.392100
26.866500 2.511100
26.890900 2.487100
26.915300 2.429300
26.939700 2.373200
26.964100 2.327400
26.988400 2.300200
27.012800 2.287600
27.037200 2.268900
27.061600 2.240300
27.085900 2.244600
27.110300 2.266500
27.134700 2.297900
27.159100 2.409300
27.183500 2.412700
27.207800 2.341500
27.232200 2.249700
27.256600 2.163600
27.281000 2.070900
27.305400 1.972700
27.329700 1.898400
27.354100 1.836400
27.378500 1.800300
27.402900 1.741200
27.427200 1.676100
27.451600 1.652000
27.476000 1.652300
27.500400 1.677200
27.524800 1.731800
27.549100 1.796300
27.573500 1.865500
27.597900 1.934900
27.622300 1.998100
27.646700 2.051500
27.671000 2.090600
27.695400 2.109900
27.719800 2.136800
27.744200 2.159300
27.768500 2.152700
27.792900 2.150500
27.817300 2.162800
27.841700 2.173800
27.866100 2.180500
27.890400 2.176700
27.914800 2.215900
27.939200 2.252900
27.963600 2.284100
27.988000 2.332300
28.012300 2.390800
28.036700 2.626100
28.061100 2.583300
28.085500 2.246800
28.109800 2.007600
28.134200 1.982600
28.158600 2.009400
28.183000 2.015300
28.207400 2.045800
28.231700 2.093600
28.256100 2.144300
28.280500 2.199300
28.304900 2.245000
28.329300 2.276800
28.353600 2.305800
28.378000 2.316600
28.402400 2.302900
28.426800 2.231800
28.451200 2.279200
28.475500 2.362900
28.499900 2.491000
28.524300 2.636400
28.548700 2.672400
28.573000 2.752600
28.597400 2.983100
28.621800 3.081800
28.646200 3.045400
28.670600 2.899000
28.694900 2.733500
28.719300 2.688700
28.743700 2.631800
28.768100 2.589700
28.792500 2.842200
28.816800 3.060900
28.841200 2.733200
28.865600 2.557300
28.890000 2.482400
28.914300 2.409300
28.938700 2.393200
28.963100 2.440700
28.987500 2.514500
29.011900 2.609500
29.036200 2.697500
29.060600 2.684400
29.085000 2.522000
29.109400 2.435300
29.133800 2.413900
29.158100 2.423300
29.182500 2.447100
29.206900 2.471000
29.231300 2.474700
29.255600 2.520000
29.280000 2.597600
29.304400 2.693400
29.328800 2.822800
29.353200 2.946200
29.377500 3.032400
29.401900 3.085500
29.426300 3.144700
29.450700 3.223100
29.475100 3.248200
29.499400 3.221700
29.523800 3.183900
29.548200 3.119000
29.572600 2.952900
29.596900 2.799900
29.621300 2.598400
29.645700 2.431600
29.670100 2.199300
29.694500 1.954500
29.718800 1.746900
29.743200 1.613100
29.767600 1.545800
29.792000 1.506800
29.816400 1.486800
29.840700 1.495700
29.865100 1.498800
29.889500 1.498300
29.913900 1.608000
29.938200 1.631600
29.962600 1.529200
29.987000 1.517200
30.011400 1.509200
30.035800 1.482400
30.060100 1.474300
30.084500 1.578400
30.108900 1.743300
30.133300 2.002700
30.157700 2.264500
30.182000 2.680900
30.206400 2.946800
30.230800 3.072300
30.255200 3.169400
30.279500 3.187600
30.303900 3.182300
30.328300 3.166500
30.352700 3.124600
30.377100 3.088400
30.401400 3.090000
30.425800 3.109000
30.450200 3.088300
30.474600 3.042200
30.499000 3.013100
30.523300 2.976600
30.547700 2.977100
30.572100 3.011600
30.596500 3.045500
30.620900 3.106300
30.645200 3.184800
30.669600 3.295800
30.694000 3.313800
30.718400 3.328900
30.742700 3.318900
30.767100 3.703200
30.791500 3.731300
30.815900 3.864400
30.840300 4.060000
30.864600 3.882400
30.889000 3.219000
30.913400 2.727200
30.937800 2.245900
30.962200 2.076700
30.986500 1.944800
31.010900 1.916700
31.035300 1.946000
31.059700 1.968400
31.084000 1.971800
31.108400 1.992000
31.132800 2.032500
31.157200 2.092200
31.181600 2.100600
31.205900 2.095100
31.230300 2.175700
31.254700 2.259700
31.279100 2.389500
31.303500 2.556900
31.327800 2.721600
31.352200 2.904600
31.376600 3.414100
31.401000 3.447100
31.425300 3.360800
31.449700 3.308100
31.474100 3.360100
31.498500 3.703200
31.522900 3.700600
31.547200 3.748100
31.571600 3.710800
31.596000 3.687500
31.620400 3.647400
31.644800 3.582700
31.669100 3.517700
31.693500 3.448600
31.717900 3.349500
31.742300 3.176000
31.766600 2.999200
31.791000 2.859200
31.815400 2.722000
31.839800 2.591600
31.864200 2.529700
31.888500 2.480400
31.912900 2.453500
31.937300 2.427600
31.961700 2.423600
31.986100 2.440100
32.010400 2.474100
32.034800 2.559400
32.059200 2.515600
32.083600 2.465000
32.107900 2.455700
32.132300 2.478700
32.156700 2.485800
32.181100 2.516300
32.205500 2.541400
32.229800 2.626400
32.254200 2.783400
32.278600 2.846600
32.303000 2.827900
32.327400 2.793800
32.351700 2.745700
32.376100 2.663900
32.400500 2.469400
32.424900 2.287700
32.449200 2.163300
32.473600 1.984300
32.498000 1.860100
32.522400 1.752200
32.546800 1.657200
32.571100 1.572100
32.595500 1.457000
32.619900 1.349600
32.644300 1.296700
32.668700 1.259100
32.693000 1.241800
32.717400 1.250200
32.741800 1.280700
32.766200 1.254100
32.790600 1.044600
32.814900 0.891900
32.839300 0.770600
32.863700 0.685800
32.888100 0.603100
32.912400 0.509700
32.936800 0.423400
32.961200 0.361300
32.985600 0.317000
33.010000 0.275500
33.034300 0.239800
33.058700 0.210500
33.083100 0.187600
33.107500 0.170900
33.131900 0.156700
33.156200 0.135400
33.180600 0.132000
33.205000 0.128700
33.229400 0.125500
33.253700 0.122400
33.278100 0.119300
33.302500 0.116300
33.326900 0.113400
33.351300 0.110900
33.375600 0.109100
33.400000 0.107800
33.424400 0.105500
33.448800 0.101600
33.473200 0.096900
33.497500 0.090100
33.521900 0.079300
33.546300 0.078100
33.570700 0.075700
33.595000 0.073100
33.619400 0.070500
33.643800 0.067900
33.668200 0.065400
33.692600 0.062900
33.716900 0.060500
33.741300 0.058100
33.765700 0.055800
33.790100 0.053500
33.814500 0.051300
33.838800 0.049100
33.863200 0.046900
33.887600 0.044800
33.912000 0.042800
33.936300 0.040700
33.960700 0.038800
33.985100 0.036800
34.009500 0.035000
34.033900 0.033100
34.058200 0.031300
34.082600 0.029600
34.107000 0.027900
34.131400 0.026200
34.155800 0.024600
34.180100 0.023000
34.204500 0.021500
34.228900 0.020000
34.253300 0.018600
34.277600 0.015900
34.302000 0.012600
34.326400 0.009700
34.350800 0.007100
34.375200 0.005000
34.399500 0.003200
34.423900 0.001800
34.448300 0.000800
34.472700 0.000200
34.497100 0.000000
34.521400 0.000000
34.545800 0.000000
34.570200 0.000000
34.594600 0.000000
34.618900 0.000000
34.643300 0.000000
34.667700 0.000000
34.692100 0.000000
34.716500 0.000000
34.740800 0.000000
34.765200 0.000000
34.789600 0.000000
34.814000 0.000000
34.838400 0.000000
34.862700 0.000000
34.887100 0.000000
34.911500 0.000000
34.935900 0.000000
34.960300 0.000000
34.984600 0.000000
35.009000 0.000000
35.033400 0.000000
35.057800 0.000000
35.082100 0.000000
35.106500 0.000000
35.130900 0.000000
35.155300 0.000000
35.179700 0.000000
35.204000 0.000000
35.228400 0.000000
35.252800 0.000000
35.277200 0.000000
35.301600 0.000000
35.325900 0.000000
35.350300 0.000000
35.374700 0.000000
35.399100 0.000000
35.423400 0.000000
35.447800 0.000000
35.472200 0.000000
35.496600 0.000000
35.521000 0.000000
35.545300 0.000000
35.569700 0.000000
35.594100 0.000000
35.618500 0.000000
35.642900 0.000000
35.667200 0.000000
35.691600 0.000000
35.716000 0.000000
35.740400 0.000000
35.764700 0.000000
35.789100 0.000000
35.813500 0.000000
35.837900 0.000000
35.862300 0.000000
35.886600 0.000000
35.911000 0.000000
35.935400 0.000000
35.959800 0.000000
35.984200 0.000000
36.008500 0.000000
36.032900 0.000000
36.057300 0.000000
36.081700 0.000000
36.106000 0.000000
36.130400 0.000000
36.154800 0.000000
36.179200 0.000000
36.203600 0.000000
36.227900 0.000000
36.252300 0.000000
36.276700 0.000000
36.301100 0.000000
36.325500 0.000000
36.349800 0.000000
36.374200 0.000000
36.398600 0.000000
36.423000 0.000000
36.447300 0.000000
36.471700 0.000000
36.496100 0.000000
36.520500 0.000000
36.544900 0.000000
36.569200 0.000000
36.593600 0.000000
36.618000 0.000000
36.642400 0.000000
36.666800 0.000000
36.691100 0.000000
36.715500 0.000000
e
