set title 'mp-12826 - Density of States'
set xlabel 'Energy (eV)'
set ylabel 'DOS (states/eV)'
set grid
set xrange [-10:10]
set yrange [0:48.114]
set xzeroaxis lt -1
set terminal png size 800,600
set output 'mp-12826_dos_gnuplot.png'
plot '-' using 1:2 with lines title 'DOS'
-7.829400 0.000000
-7.816700 0.000000
-7.804100 0.000000
-7.791500 0.000000
-7.778900 0.000000
-7.766200 0.000000
-7.753600 0.000000
-7.741000 0.000000
-7.728400 0.000000
-7.715800 0.000000
-7.703100 0.000000
-7.690500 0.000000
-7.677900 0.000000
-7.665300 0.000000
-7.652600 0.000000
-7.640000 0.000000
-7.627400 0.000000
-7.614800 0.000000
-7.602100 0.000000
-7.589500 0.000000
-7.576900 0.000000
-7.564300 0.000000
-7.551600 0.000000
-7.539000 0.000000
-7.526400 0.000000
-7.513800 0.000000
-7.501100 0.000000
-7.488500 0.000000
-7.475900 0.000000
-7.463300 0.000000
-7.450600 0.000000
-7.438000 0.000000
-7.425400 0.000000
-7.412800 0.000000
-7.400100 0.000000
-7.387500 0.000000
-7.374900 0.000000
-7.362300 0.000000
-7.349600 0.000000
-7.337000 0.000000
-7.324400 0.000000
-7.311800 0.000000
-7.299100 0.000000
-7.286500 0.000000
-7.273900 0.000000
-7.261300 0.000000
-7.248600 0.000000
-7.236000 0.000000
-7.223400 0.000000
-7.210800 0.000000
-7.198100 0.000000
-7.185500 0.000000
-7.172900 0.000000
-7.160300 0.000000
-7.147600 0.000000
-7.135000 0.000000
-7.122400 0.000000
-7.109800 0.000000
-7.097200 0.000000
-7.084500 0.000000
-7.071900 0.000000
-7.059300 0.000000
-7.046700 0.000000
-7.034000 0.000000
-7.021400 0.000000
-7.008800 0.000000
-6.996200 0.000000
-6.983500 0.000000
-6.970900 0.000000
-6.958300 0.000000
-6.945700 0.000000
-6.933000 0.000000
-6.920400 0.000000
-6.907800 0.000000
-6.895200 0.000000
-6.882500 0.000000
-6.869900 0.000000
-6.857300 0.000000
-6.844700 0.000000
-6.832000 0.000000
-6.819400 0.000000
-6.806800 0.000000
-6.794200 0.000000
-6.781500 0.000000
-6.768900 0.000000
-6.756300 0.000000
-6.743700 0.000000
-6.731000 0.000000
-6.718400 0.000000
-6.705800 0.000000
-6.693200 0.000000
-6.680500 0.008000
-6.667900 0.114200
-6.655300 0.220300
-6.642700 0.326500
-6.630000 0.432700
-6.617400 0.538800
-6.604800 0.645000
-6.592200 0.751100
-6.579500 0.857300
-6.566900 0.963400
-6.554300 1.069600
-6.541700 1.175800
-6.529000 1.281900
-6.516400 1.388100
-6.503800 0.746900
-6.491200 0.756900
-6.478600 0.767000
-6.465900 0.777000
-6.453300 0.787000
-6.440700 0.797000
-6.428100 0.807000
-6.415400 0.817100
-6.402800 0.827100
-6.390200 0.837100
-6.377600 0.847100
-6.364900 0.857100
-6.352300 0.867100
-6.339700 0.877200
-6.327100 0.887200
-6.314400 0.897200
-6.301800 0.907200
-6.289200 0.917200
-6.276600 0.927300
-6.263900 0.937300
-6.251300 0.947300
-6.238700 1.054700
-6.226100 1.190600
-6.213400 1.326600
-6.200800 1.462600
-6.188200 1.598500
-6.175600 1.728100
-6.162900 1.847600
-6.150300 1.967100
-6.137700 2.086600
-6.125100 2.206100
-6.112400 2.325600
-6.099800 2.445100
-6.087200 1.788500
-6.074600 1.795300
-6.061900 1.802000
-6.049300 1.808700
-6.036700 1.815400
-6.024100 1.822200
-6.011400 1.839700
-5.998800 1.858500
-5.986200 1.877300
-5.973600 1.896200
-5.960900 1.915000
-5.948300 1.933800
-5.935700 1.952600
-5.923100 1.971400
-5.910400 1.990200
-5.897800 2.009100
-5.885200 2.027900
-5.872600 2.046700
-5.860000 2.065500
-5.847300 2.084300
-5.834700 2.103100
-5.822100 2.121900
-5.809500 2.140800
-5.796800 2.159600
-5.784200 2.165200
-5.771600 2.169800
-5.759000 2.174400
-5.746300 2.179000
-5.733700 2.183600
-5.721100 2.188200
-5.708500 2.192800
-5.695800 2.197400
-5.683200 2.202100
-5.670600 2.206700
-5.658000 2.214200
-5.645300 2.231700
-5.632700 2.249200
-5.620100 2.269300
-5.607500 2.314000
-5.594800 2.373300
-5.582200 2.445200
-5.569600 2.558000
-5.557000 2.665700
-5.544300 2.784000
-5.531700 2.902300
-5.519100 3.020500
-5.506500 3.138700
-5.493800 3.256900
-5.481200 3.375000
-5.468600 3.493100
-5.456000 3.611200
-5.443300 3.729300
-5.430700 3.664600
-5.418100 3.655600
-5.405500 3.666800
-5.392800 3.671700
-5.380200 3.676900
-5.367600 3.656600
-5.355000 3.736200
-5.342300 3.832900
-5.329700 4.643800
-5.317100 4.689400
-5.304500 4.741100
-5.291800 4.988800
-5.279200 5.124200
-5.266600 5.265800
-5.254000 5.394300
-5.241300 5.454100
-5.228700 5.529000
-5.216100 5.622100
-5.203500 5.729900
-5.190900 5.839500
-5.178200 5.945000
-5.165600 6.046000
-5.153000 7.593600
-5.140400 7.388500
-5.127700 7.174000
-5.115100 6.950100
-5.102500 6.718500
-5.089900 6.341300
-5.077200 6.146700
-5.064600 5.969000
-5.052000 5.807500
-5.039400 5.662200
-5.026700 5.543100
-5.014100 5.434200
-5.001500 4.485200
-4.988900 4.500300
-4.976200 4.956700
-4.963600 5.433600
-4.951000 5.931500
-4.938400 6.453600
-4.925700 6.995100
-4.913100 4.354900
-4.900500 4.551900
-4.887900 4.742500
-4.875200 4.961400
-4.862600 5.165900
-4.850000 8.370300
-4.837400 14.246200
-4.824700 20.112300
-4.812100 11.461600
-4.799500 9.796800
-4.786900 8.129600
-4.774200 6.738000
-4.761600 7.568200
-4.749000 6.720400
-4.736400 6.015000
-4.723700 5.316600
-4.711100 4.618100
-4.698500 3.919700
-4.685900 1.790200
-4.673200 1.805300
-4.660600 1.820400
-4.648000 1.835500
-4.635400 1.850500
-4.622700 1.865600
-4.610100 1.880700
-4.597500 1.903100
-4.584900 1.944500
-4.572300 1.997300
-4.559600 2.061500
-4.547000 2.136100
-4.534400 2.219800
-4.521800 2.320900
-4.509100 2.442400
-4.496500 2.562300
-4.483900 2.678600
-4.471300 2.789500
-4.458600 2.896800
-4.446000 3.004100
-4.433400 3.065500
-4.420800 3.020900
-4.408100 3.011300
-4.395500 2.993400
-4.382900 2.948100
-4.370300 2.857200
-4.357600 2.726100
-4.345000 2.739500
-4.332400 2.758700
-4.319800 2.780900
-4.307100 2.803100
-4.294500 2.825300
-4.281900 2.832700
-4.269300 2.784900
-4.256600 2.807100
-4.244000 2.829300
-4.231400 2.851600
-4.218800 2.873800
-4.206100 2.896000
-4.193500 2.918300
-4.180900 2.940500
-4.168300 2.962800
-4.155600 2.985000
-4.143000 3.007200
-4.130400 3.029500
-4.117800 3.051700
-4.105100 3.073600
-4.092500 3.091900
-4.079900 3.106900
-4.067300 3.117900
-4.054600 3.123700
-4.042000 3.129300
-4.029400 3.135000
-4.016800 3.140600
-4.004100 3.146200
-3.991500 3.151900
-3.978900 3.532000
-3.966300 3.606500
-3.953700 3.589000
-3.941000 3.577600
-3.928400 3.572900
-3.915800 3.572200
-3.903200 3.538100
-3.890500 3.562400
-3.877900 3.586600
-3.865300 3.610900
-3.852700 3.635100
-3.840000 3.659400
-3.827400 3.683600
-3.814800 3.707900
-3.802200 3.732100
-3.789500 3.756300
-3.776900 3.780600
-3.764300 3.804800
-3.751700 3.829000
-3.739000 3.853200
-3.726400 3.877500
-3.713800 3.901700
-3.701200 4.284700
-3.688500 4.786000
-3.675900 4.696000
-3.663300 4.606000
-3.650700 4.516000
-3.638000 4.426000
-3.625400 4.336000
-3.612800 4.246000
-3.600200 4.155900
-3.587500 4.065900
-3.574900 3.975900
-3.562300 3.885900
-3.549700 3.920600
-3.537000 4.338100
-3.524400 4.695800
-3.511800 5.053200
-3.499200 5.410300
-3.486500 5.767000
-3.473900 7.462600
-3.461300 43.740300
-3.448700 6.660200
-3.436000 5.560900
-3.423400 4.513200
-3.410800 3.557300
-3.398200 2.948800
-3.385500 2.622300
-3.372900 2.590100
-3.360300 2.573800
-3.347700 2.557500
-3.335100 2.541300
-3.322400 2.525100
-3.309800 2.508900
-3.297200 2.492800
-3.284600 2.476600
-3.271900 2.460600
-3.259300 2.444500
-3.246700 2.643800
-3.234100 3.453800
-3.221400 3.507400
-3.208800 4.687600
-3.196200 5.869700
-3.183600 7.476200
-3.170900 7.124400
-3.158300 4.915100
-3.145700 3.039000
-3.133100 2.722700
-3.120400 2.677200
-3.107800 2.631700
-3.095200 2.586200
-3.082600 2.540700
-3.069900 2.495200
-3.057300 2.449700
-3.044700 2.404200
-3.032100 2.358700
-3.019400 2.313200
-3.006800 4.051500
-2.994200 3.940400
-2.981600 3.829300
-2.968900 3.718200
-2.956300 3.607200
-2.943700 3.496200
-2.931100 3.385200
-2.918400 3.274300
-2.905800 3.163400
-2.893200 2.844400
-2.880600 2.845900
-2.867900 2.939000
-2.855300 3.037600
-2.842700 3.136100
-2.830100 3.234700
-2.817400 3.333300
-2.804800 3.431900
-2.792200 3.530500
-2.779600 3.629200
-2.766900 3.727800
-2.754300 3.826500
-2.741700 3.925100
-2.729100 4.023800
-2.716500 4.122500
-2.703800 4.221100
-2.691200 4.319800
-2.678600 4.418500
-2.666000 4.517200
-2.653300 4.609300
-2.640700 4.068500
-2.628100 3.725600
-2.615500 3.842500
-2.602800 3.959500
-2.590200 4.076500
-2.577600 4.193400
-2.565000 4.310400
-2.552300 4.429000
-2.539700 4.808900
-2.527100 5.272200
-2.514500 7.283500
-2.501800 7.185600
-2.489200 6.493400
-2.476600 6.569800
-2.464000 6.518500
-2.451300 7.516400
-2.438700 2.816800
-2.426100 2.909500
-2.413500 3.002100
-2.400800 3.094800
-2.388200 3.187400
-2.375600 3.280100
-2.363000 3.372700
-2.350300 3.465400
-2.337700 3.406900
-2.325100 4.365100
-2.312500 3.997200
-2.299800 3.739400
-2.287200 3.676400
-2.274600 3.613400
-2.262000 3.550400
-2.249300 4.067000
-2.236700 4.005200
-2.224100 3.943500
-2.211500 3.881800
-2.198800 3.820100
-2.186200 3.758400
-2.173600 3.696700
-2.161000 3.635000
-2.148300 3.597800
-2.135700 3.641100
-2.123100 3.684500
-2.110500 3.727900
-2.097900 3.771200
-2.085200 3.814600
-2.072600 3.857900
-2.060000 3.901300
-2.047400 3.944600
-2.034700 3.988300
-2.022100 4.042600
-2.009500 4.108700
-1.996900 4.192300
-1.984200 4.281000
-1.971600 4.369700
-1.959000 4.458400
-1.946400 4.547200
-1.933700 4.698900
-1.921100 4.799900
-1.908500 4.900900
-1.895900 5.002000
-1.883200 5.103000
-1.870600 5.204200
-1.858000 5.000200
-1.845400 4.576800
-1.832700 4.470700
-1.820100 4.479500
-1.807500 4.489700
-1.794900 4.496700
-1.782200 4.503000
-1.769600 4.509000
-1.757000 4.514500
-1.744400 4.519600
-1.731700 5.574800
-1.719100 5.327100
-1.706500 4.977400
-1.693900 4.537000
-1.681200 4.469700
-1.668600 4.417200
-1.656000 4.376700
-1.643400 4.329000
-1.630700 4.267200
-1.618100 4.187600
-1.605500 4.095400
-1.592900 4.089400
-1.580200 4.090200
-1.567600 4.111000
-1.555000 4.131500
-1.542400 4.151700
-1.529700 4.171700
-1.517100 4.194300
-1.504500 4.200400
-1.491900 4.211500
-1.479300 4.480700
-1.466600 4.098800
-1.454000 3.861700
-1.441400 3.766900
-1.428800 3.772900
-1.416100 3.782800
-1.403500 3.346500
-1.390900 3.132500
-1.378300 3.059900
-1.365600 2.987200
-1.353000 2.914400
-1.340400 2.862300
-1.327800 2.879900
-1.315100 2.785500
-1.302500 2.691600
-1.289900 2.595000
-1.277300 2.544700
-1.264600 2.494900
-1.252000 2.445600
-1.239400 2.396900
-1.226800 2.348700
-1.214100 2.301100
-1.201500 2.254300
-1.188900 2.209600
-1.176300 2.167100
-1.163600 2.126800
-1.151000 2.088800
-1.138400 2.053000
-1.125800 2.019400
-1.113100 1.994900
-1.100500 1.974900
-1.087900 1.950900
-1.075300 1.911900
-1.062600 1.862900
-1.050000 1.815800
-1.037400 1.770900
-1.024800 1.731600
-1.012100 1.697400
-0.999500 1.665000
-0.986900 1.634600
-0.974300 1.606000
-0.961600 1.579300
-0.949000 1.554400
-0.936400 1.531300
-0.923800 1.509900
-0.911100 1.490400
-0.898500 1.472600
-0.885900 1.456600
-0.873300 1.442400
-0.860600 1.430000
-0.848000 1.419400
-0.835400 1.416700
-0.822800 1.415100
-0.810200 1.411300
-0.797500 1.401800
-0.784900 1.391900
-0.772300 1.381900
-0.759700 1.372000
-0.747000 1.362100
-0.734400 1.352100
-0.721800 1.342200
-0.709200 1.332200
-0.696500 1.322300
-0.683900 1.312300
-0.671300 1.302400
-0.658700 1.292400
-0.646000 1.282500
-0.633400 1.272500
-0.620800 1.262500
-0.608200 1.252600
-0.595500 1.242600
-0.582900 1.232600
-0.570300 1.222600
-0.557700 1.212700
-0.545000 1.202700
-0.532400 1.193800
-0.519800 1.185000
-0.507200 1.176200
-0.494500 1.167400
-0.481900 1.158600
-0.469300 1.149800
-0.456700 1.140900
-0.444000 1.132100
-0.431400 1.269900
-0.418800 1.370500
-0.406200 1.372900
-0.393500 1.369900
-0.380900 1.360300
-0.368300 1.342000
-0.355700 1.348300
-0.343000 1.271400
-0.330400 1.195100
-0.317800 1.119800
-0.305200 1.045500
-0.292500 0.972200
-0.279900 0.899900
-0.267300 0.844000
-0.254700 0.794300
-0.242000 0.748300
-0.229400 0.706100
-0.216800 0.667600
-0.204200 0.632900
-0.191600 0.601900
-0.178900 0.573400
-0.166300 0.547200
-0.153700 0.523300
-0.141100 0.501700
-0.128400 0.482400
-0.115800 0.465400
-0.103200 0.451400
-0.090600 0.441900
-0.077900 0.437100
-0.065300 0.434500
-0.052700 0.431900
-0.040100 0.429300
-0.027400 0.426700
-0.014800 0.424100
-0.002200 0.421500
0.010400 0.418900
0.023100 0.416300
0.035700 0.413700
0.048300 0.411100
0.060900 0.408500
0.073600 0.405900
0.086200 0.403300
0.098800 0.400700
0.111400 0.398100
0.124100 0.395500
0.136700 0.392800
0.149300 0.390200
0.161900 0.387600
0.174600 0.385000
0.187200 0.382400
0.199800 0.379800
0.212400 0.377200
0.225100 0.374600
0.237700 0.372000
0.250300 0.369400
0.262900 0.366800
0.275600 0.364200
0.288200 0.361600
0.300800 0.359000
0.313400 0.356400
0.326100 0.353800
0.338700 0.351200
0.351300 0.348600
0.363900 0.346000
0.376600 0.343400
0.389200 0.340800
0.401800 0.338200
0.414400 0.335600
0.427000 0.332900
0.439700 0.330300
0.452300 0.327700
0.464900 0.325100
0.477500 0.436600
0.490200 0.529800
0.502800 0.514400
0.515400 0.499000
0.528000 0.483700
0.540700 0.468300
0.553300 0.452900
0.565900 0.437600
0.578500 0.422200
0.591200 0.406900
0.603800 0.391500
0.616400 0.376200
0.629000 0.360800
0.641700 0.345500
0.654300 0.330200
0.666900 0.314800
0.679500 0.299500
0.692200 0.284100
0.704800 0.268800
0.717400 0.253500
0.730000 0.238100
0.742700 0.222800
0.755300 0.207500
0.767900 0.192200
0.780500 0.176900
0.793200 0.161500
0.805800 0.146200
0.818400 0.130900
0.831000 0.115600
0.843700 0.100300
0.856300 0.085000
0.868900 0.069700
0.881500 0.054400
0.894200 0.039100
0.906800 0.026400
0.919400 1.025900
0.932000 6.301500
0.944700 4.005100
0.957300 1.825600
0.969900 1.550000
0.982500 1.607800
0.995200 1.665500
1.007800 1.723300
1.020400 1.781100
1.033000 1.838900
1.045600 1.896700
1.058300 1.954500
1.070900 2.012400
1.083500 2.070200
1.096100 2.128100
1.108800 2.185900
1.121400 2.243800
1.134000 2.301700
1.146600 2.359600
1.159300 2.417500
1.171900 2.475400
1.184500 2.533300
1.197100 2.591200
1.209800 2.649100
1.222400 2.707100
1.235000 2.765100
1.247600 2.823000
1.260300 3.846900
1.272900 7.023700
1.285500 6.472800
1.298100 1.027700
1.310800 1.015400
1.323400 1.003100
1.336000 0.990700
1.348600 0.978400
1.361300 0.966100
1.373900 0.953700
1.386500 0.941400
1.399100 0.929100
1.411800 0.916700
1.424400 2.079900
1.437000 2.084300
1.449600 2.089300
1.462300 2.094900
1.474900 2.100900
1.487500 2.107600
1.500100 2.114800
1.512800 2.122500
1.525400 2.130800
1.538000 2.162400
1.550600 2.325600
1.563300 2.613200
1.575900 2.901800
1.588500 3.367500
1.601100 3.813700
1.613800 4.054500
1.626400 4.207200
1.639000 4.314000
1.651600 4.427300
1.664200 4.580700
1.676900 4.649200
1.689500 4.626500
1.702100 4.512500
1.714700 4.334300
1.727400 4.120200
1.740000 3.837800
1.752600 3.448500
1.765200 2.949400
1.777900 2.722300
1.790500 2.593900
1.803100 3.250600
1.815700 4.167600
1.828400 4.428400
1.841000 4.362400
1.853600 4.432200
1.866200 4.442900
1.878900 4.433800
1.891500 5.730800
1.904100 7.551900
1.916700 6.391100
1.929400 6.661900
1.942000 6.947100
1.954600 7.246700
1.967200 7.560700
1.979900 7.889000
1.992500 8.243400
2.005100 8.780000
2.017700 8.579900
2.030400 7.838300
2.043000 7.718600
2.055600 7.014600
2.068200 6.526100
2.080900 6.624000
2.093500 6.706800
2.106100 6.748500
2.118700 6.789100
2.131400 6.838500
2.144000 6.874300
2.156600 6.886900
2.169200 6.714100
2.181900 6.405900
2.194500 6.161300
2.207100 5.977400
2.219700 5.897400
2.232400 5.817000
2.245000 5.744800
2.257600 5.688700
2.270200 5.644800
2.282800 5.640500
2.295500 5.797700
2.308100 5.963400
2.320700 6.113300
2.333300 6.281300
2.346000 6.682600
2.358600 7.091600
2.371200 7.427900
2.383800 7.691100
2.396500 8.013700
2.409100 8.221400
2.421700 8.420200
2.434300 8.626700
2.447000 8.814300
2.459600 8.751400
2.472200 8.521300
2.484800 8.551500
2.497500 8.618100
2.510100 8.691900
2.522700 8.792500
2.535300 8.902400
2.548000 9.009400
2.560600 9.103700
2.573200 9.212600
2.585800 9.460300
2.598500 9.823900
2.611100 10.437400
2.623700 10.342900
2.636300 9.809400
2.649000 9.185300
2.661600 8.413200
2.674200 8.322300
2.686800 8.215500
2.699500 8.076700
2.712100 7.943700
2.724700 7.834300
2.737300 7.716300
2.750000 7.619800
2.762600 7.578800
2.775200 7.569500
2.787800 7.616800
2.800500 7.678500
2.813100 7.737300
2.825700 7.785600
2.838300 7.836400
2.851000 7.889900
2.863600 7.886000
2.876200 7.952300
2.888800 8.020400
2.901500 8.090500
2.914100 8.174500
2.926700 8.227900
2.939300 8.246300
2.951900 8.320300
2.964600 8.436500
2.977200 8.557600
2.989800 8.674800
3.002400 8.775000
3.015100 8.814600
3.027700 8.876300
3.040300 8.982100
3.052900 9.169300
3.065600 9.437100
3.078200 9.775800
3.090800 10.096000
3.103400 10.408200
3.116100 11.523000
3.128700 9.081000
3.141300 8.731300
3.153900 8.441400
3.166600 8.231300
3.179200 8.069900
3.191800 8.002800
3.204400 8.006600
3.217100 8.069800
3.229700 8.150400
3.242300 8.207200
3.254900 8.255200
3.267600 8.299200
3.280200 8.391000
3.292800 8.539200
3.305400 8.779600
3.318100 9.155200
3.330700 10.434800
3.343300 11.981800
3.355900 10.389000
3.368600 8.871600
3.381200 8.762600
3.393800 8.711900
3.406400 8.653800
3.419100 8.589100
3.431700 8.507200
3.444300 8.428500
3.456900 8.309500
3.469600 8.255100
3.482200 8.242100
3.494800 8.294400
3.507400 8.433200
3.520100 8.785100
3.532700 9.271900
3.545300 9.893100
3.557900 10.646400
3.570500 11.507500
3.583200 12.024900
3.595800 12.044200
3.608400 11.843500
3.621000 11.596000
3.633700 11.417500
3.646300 11.437400
3.658900 11.787300
3.671500 11.441000
3.684200 11.137200
3.696800 10.995200
3.709400 10.749700
3.722000 10.426300
3.734700 10.064200
3.747300 9.749200
3.759900 9.452100
3.772500 9.201600
3.785200 8.956800
3.797800 8.703900
3.810400 8.337600
3.823000 8.130000
3.835700 8.044200
3.848300 8.003800
3.860900 8.025300
3.873500 8.081600
3.886200 8.128000
3.898800 8.164600
3.911400 8.191400
3.924000 8.206200
3.936700 8.802700
3.949300 9.571300
3.961900 9.933500
3.974500 10.280700
3.987200 10.335200
3.999800 10.344800
4.012400 10.204200
4.025000 9.972000
4.037700 9.716700
4.050300 9.413400
4.062900 9.156700
4.075500 8.923500
4.088200 8.606700
4.100800 8.249800
4.113400 8.208100
4.126000 8.440000
4.138700 8.647100
4.151300 8.837700
4.163900 8.805600
4.176500 8.691500
4.189100 8.588100
4.201800 8.511300
4.214400 8.460600
4.227000 8.405900
4.239600 8.309200
4.252300 8.247700
4.264900 8.337900
4.277500 7.087700
4.290100 6.942700
4.302800 6.871600
4.315400 6.410200
4.328000 5.879000
4.340600 5.532900
4.353300 5.385300
4.365900 5.302300
4.378500 5.266300
4.391100 5.310800
4.403800 5.422300
4.416400 5.778500
4.429000 6.266200
4.441600 6.530800
4.454300 6.607500
4.466900 6.723500
4.479500 6.716200
4.492100 6.689100
4.504800 6.637300
4.517400 6.559300
4.530000 6.498300
4.542600 6.565000
4.555300 6.658100
4.567900 6.781100
4.580500 7.112200
4.593100 7.343400
4.605800 7.634800
4.618400 7.909300
4.631000 8.133700
4.643600 8.307600
4.656300 8.430700
4.668900 8.528200
4.681500 8.597300
4.694100 8.680200
4.706800 8.769800
4.719400 8.905600
4.732000 9.064700
4.744600 9.064900
4.757300 8.896400
4.769900 8.725700
4.782500 8.568700
4.795100 8.547100
4.807700 8.489200
4.820400 8.514200
4.833000 8.594000
4.845600 8.665100
4.858200 8.734800
4.870900 8.765700
4.883500 8.840000
4.896100 9.006300
4.908700 8.732600
4.921400 8.474000
4.934000 8.791800
4.946600 8.637800
4.959200 8.499900
4.971900 8.763300
4.984500 9.106200
4.997100 9.425300
5.009700 10.113200
5.022400 11.365300
5.035000 11.805700
5.047600 11.914700
5.060200 11.560600
5.072900 12.156900
5.085500 10.385800
5.098100 8.888700
5.110700 8.758900
5.123400 9.091100
5.136000 8.948300
5.148600 9.062100
5.161200 8.413800
5.173900 7.997200
5.186500 7.417600
5.199100 7.011500
5.211700 6.888600
5.224400 6.700900
5.237000 6.030200
5.249600 5.589100
5.262200 5.910400
5.274900 6.348300
5.287500 6.912700
5.300100 7.683800
5.312700 8.781700
5.325400 9.726100
5.338000 10.374700
5.350600 8.820700
5.363200 8.535400
5.375900 8.205200
5.388500 8.063500
5.401100 8.713000
5.413700 8.283400
5.426300 8.085900
5.439000 7.913400
5.451600 7.806800
5.464200 7.723300
5.476800 7.650300
5.489500 7.598800
5.502100 7.591400
5.514700 7.610600
5.527300 7.604700
5.540000 7.587900
5.552600 7.582400
5.565200 7.621000
5.577800 7.861600
5.590500 8.547400
5.603100 8.455700
5.615700 7.495500
5.628300 7.166300
5.641000 6.613500
5.653600 6.141700
5.666200 5.708100
5.678800 5.397000
5.691500 5.161100
5.704100 4.887400
5.716700 4.316800
5.729300 3.989500
5.742000 3.809900
5.754600 3.751600
5.767200 3.748800
5.779800 3.869600
5.792500 4.030400
5.805100 4.179300
5.817700 4.321400
5.830300 4.542000
5.843000 5.320100
5.855600 5.700600
5.868200 4.824000
5.880800 3.342400
5.893500 2.900200
5.906100 2.434800
5.918700 2.038800
5.931300 1.962800
5.944000 1.939700
5.956600 1.911600
5.969200 1.877900
5.981800 1.843600
5.994500 1.816300
6.007100 1.795200
6.019700 1.777400
6.032300 1.762300
6.044900 1.749800
6.057600 1.741000
6.070200 1.724900
6.082800 1.703600
6.095400 1.679100
6.108100 1.674600
6.120700 1.720900
6.133300 1.775900
6.145900 1.823700
6.158600 1.873200
6.171200 1.916700
6.183800 1.951500
6.196400 1.971400
6.209100 1.934100
6.221700 1.831500
6.234300 1.664100
6.246900 1.467600
6.259600 1.264000
6.272200 1.074400
6.284800 0.967500
6.297400 0.877900
6.310100 0.805600
6.322700 0.750600
6.335300 0.704500
6.347900 0.660800
6.360600 0.618500
6.373200 0.575400
6.385800 0.531400
6.398400 0.486400
6.411100 0.439300
6.423700 0.389400
6.436300 0.349700
6.448900 0.308600
6.461600 0.266000
6.474200 0.222000
6.486800 0.176500
6.499400 0.158100
6.512100 0.164500
6.524700 0.184300
6.537300 0.215900
6.549900 0.251000
6.562600 0.293800
6.575200 0.390800
6.587800 0.516600
6.600400 0.661200
6.613100 0.822700
6.625700 0.987500
6.638300 1.154900
6.650900 1.324100
6.663500 1.494100
6.676200 1.674100
6.688800 1.883600
6.701400 2.212000
6.714000 2.530300
6.726700 2.815800
6.739300 3.068600
6.751900 3.288600
6.764500 3.475800
6.777200 3.682700
6.789800 3.968600
6.802400 4.324800
6.815000 4.751900
6.827700 5.629800
6.840300 5.912600
6.852900 5.553500
6.865500 5.657500
6.878200 5.845000
6.890800 5.521300
6.903400 5.488800
6.916000 5.691400
6.928700 6.138000
6.941300 6.456300
6.953900 6.179400
6.966500 6.390700
6.979200 6.502800
6.991800 6.724700
7.004400 6.992900
7.017000 7.292100
7.029700 7.585100
7.042300 7.857200
7.054900 8.411000
7.067500 9.383100
7.080200 11.552700
7.092800 14.317900
7.105400 14.878000
7.118000 13.367200
7.130700 13.297100
7.143300 13.007600
7.155900 12.954500
7.168500 11.916700
7.181200 11.989400
7.193800 11.087000
7.206400 10.524300
7.219000 9.888700
7.231700 9.172700
7.244300 8.408600
7.256900 7.878300
7.269500 7.564500
7.282200 7.616500
7.294800 7.851500
7.307400 7.916800
7.320000 8.986100
7.332600 8.865400
7.345300 8.503000
7.357900 8.729300
7.370500 8.916200
7.383100 8.883100
7.395800 9.031200
7.408400 9.314600
7.421000 9.588900
7.433600 8.572100
7.446300 8.082900
7.458900 7.992500
7.471500 8.090000
7.484100 8.436000
7.496800 8.655500
7.509400 8.344500
7.522000 7.660700
7.534600 7.238800
7.547300 6.855700
7.559900 6.302200
7.572500 5.994100
7.585100 5.247800
7.597800 5.267800
7.610400 5.279900
7.623000 5.303600
7.635600 5.339800
7.648300 5.452900
7.660900 5.679300
7.673500 6.011300
7.686100 6.706600
7.698800 7.939100
7.711400 8.864100
7.724000 9.450200
7.736600 9.974600
7.749300 10.437700
7.761900 10.160300
7.774500 9.898700
7.787100 9.505500
7.799800 9.207600
7.812400 8.987100
7.825000 8.822400
7.837600 8.703100
7.850300 8.600600
7.862900 8.635800
7.875500 8.772200
7.888100 9.142500
7.900800 8.926500
7.913400 8.627100
7.926000 8.288600
7.938600 7.896400
7.951200 7.572000
7.963900 7.218200
7.976500 6.900400
7.989100 6.804600
8.001700 6.860400
8.014400 7.027900
8.027000 7.050800
8.039600 6.645800
8.052200 6.404900
8.064900 6.294400
8.077500 6.309900
8.090100 6.379000
8.102700 6.456000
8.115400 6.571600
8.128000 6.761600
8.140600 7.019400
8.153200 7.207700
8.165900 7.329700
8.178500 7.391700
8.191100 7.529200
8.203700 7.498200
8.216400 7.241700
8.229000 6.952200
8.241600 6.787400
8.254200 6.640900
8.266900 6.555100
8.279500 6.570800
8.292100 6.692700
8.304700 6.924500
8.317400 7.267200
8.330000 7.623200
8.342600 7.988700
8.355200 8.382000
8.367900 8.798700
8.380500 9.158500
8.393100 9.518300
8.405700 9.621400
8.418400 9.570000
8.431000 9.377200
8.443600 9.436400
8.456200 9.531900
8.468900 9.538900
8.481500 9.481600
8.494100 9.345100
8.506700 9.026700
8.519400 8.746600
8.532000 8.491900
8.544600 8.061700
8.557200 7.747800
8.569800 7.647900
8.582500 7.684600
8.595100 7.774500
8.607700 7.837000
8.620300 7.938900
8.633000 8.005900
8.645600 7.624100
8.658200 7.765300
8.670800 7.902100
8.683500 8.035200
8.696100 8.207900
8.708700 8.346400
8.721300 8.340500
8.734000 8.328500
8.746600 8.307200
8.759200 8.273400
8.771800 8.238900
8.784500 8.217900
8.797100 8.216800
8.809700 8.252000
8.822300 8.387300
8.835000 8.516600
8.847600 8.561700
8.860200 8.586500
8.872800 8.607600
8.885500 8.634100
8.898100 8.670600
8.910700 8.875900
8.923300 8.903500
8.936000 8.914400
8.948600 8.935900
8.961200 8.963900
8.973800 8.983100
8.986500 8.971800
8.999100 8.961300
9.011700 8.923900
9.024300 8.794500
9.037000 8.672800
9.049600 8.584200
9.062200 8.508200
9.074800 8.104500
9.087500 7.985000
9.100100 7.908000
9.112700 7.832700
9.125300 7.765800
9.138000 7.710500
9.150600 7.659000
9.163200 7.615100
9.175800 7.547000
9.188400 7.432800
9.201100 7.343900
9.213700 7.331900
9.226300 7.332000
9.238900 7.304400
9.251600 7.271200
9.264200 7.291900
9.276800 7.338400
9.289400 7.436400
9.302100 7.537900
9.314700 7.633100
9.327300 7.695700
9.339900 7.707500
9.352600 7.722000
9.365200 7.916900
9.377800 8.210200
9.390400 8.483000
9.403100 8.631200
9.415700 8.721700
9.428300 8.795500
9.440900 8.820800
9.453600 8.835200
9.466200 8.968100
9.478800 9.182600
9.491400 9.229500
9.504100 9.143600
9.516700 9.027800
9.529300 8.946200
9.541900 8.802400
9.554600 8.811500
9.567200 8.961000
9.579800 9.145300
9.592400 9.216800
9.605100 9.212200
9.617700 8.830700
9.630300 8.528600
9.642900 8.331500
9.655600 8.219300
9.668200 8.162800
9.680800 8.224700
9.693400 8.288400
9.706100 8.308000
9.718700 8.212400
9.731300 8.111600
9.743900 8.007000
9.756600 7.898600
9.769200 7.786500
9.781800 7.669000
9.794400 7.546100
9.807000 7.441800
9.819700 7.327100
9.832300 7.105400
9.844900 7.171500
9.857500 7.096700
9.870200 6.940800
9.882800 6.723000
9.895400 6.430700
9.908000 5.906900
9.920700 5.457000
9.933300 4.980300
9.945900 4.825000
9.958500 4.964400
9.971200 5.335300
9.983800 5.836900
9.996400 6.186100
10.009000 6.138300
10.021700 6.055700
10.034300 5.986700
10.046900 5.931300
10.059500 5.995900
10.072200 5.846100
10.084800 5.805300
10.097400 5.876900
10.110000 6.030500
10.122700 6.176000
10.135300 6.551500
10.147900 5.900300
10.160500 5.777400
10.173200 5.666100
10.185800 5.593000
10.198400 5.594700
10.211000 5.665900
10.223700 5.719700
10.236300 5.724900
10.248900 5.600100
10.261500 5.487400
10.274200 5.337300
10.286800 5.236100
10.299400 5.180400
10.312000 5.224800
10.324700 5.354900
10.337300 5.663600
10.349900 6.238300
10.362500 7.042600
10.375200 12.745500
10.387800 7.394000
10.400400 6.690400
10.413000 6.483500
10.425600 5.882800
10.438300 5.690200
10.450900 5.648800
10.463500 5.613600
10.476100 5.581000
10.488800 5.546400
10.501400 5.439600
10.514000 5.385700
10.526600 5.376000
10.539300 5.359900
10.551900 5.558600
10.564500 7.062700
10.577100 7.229700
10.589800 5.722700
10.602400 5.558400
10.615000 5.471000
10.627600 5.425700
10.640300 5.422300
10.652900 5.461000
10.665500 5.528600
10.678100 5.602700
10.690800 5.690100
10.703400 5.734900
10.716000 5.771500
10.728600 5.789800
10.741300 5.860500
10.753900 6.135600
10.766500 6.405600
10.779100 6.792700
10.791800 7.231100
10.804400 7.668300
10.817000 8.019000
10.829600 8.250400
10.842300 8.314200
10.854900 8.366800
10.867500 8.442800
10.880100 8.540000
10.892800 8.637300
10.905400 8.712400
10.918000 8.702300
10.930600 8.637600
10.943300 11.162100
10.955900 8.470800
10.968500 8.199100
10.981100 8.083100
10.993800 7.977000
11.006400 8.035700
11.019000 9.514800
11.031600 8.306400
11.044200 7.357300
11.056900 6.883000
11.069500 6.899300
11.082100 6.962500
11.094700 7.031500
11.107400 7.075600
11.120000 7.262600
11.132600 7.690400
11.145200 10.221700
11.157900 6.232200
11.170500 6.381600
11.183100 9.532600
11.195700 8.677900
11.208400 8.442400
11.221000 8.823600
11.233600 9.146100
11.246200 9.379500
11.258900 9.294900
11.271500 8.770800
11.284100 8.358300
11.296700 8.292000
11.309400 8.676000
11.322000 9.513200
11.334600 10.331400
11.347200 10.005900
11.359900 9.635100
11.372500 8.752400
11.385100 8.264000
11.397700 7.912800
11.410400 7.739200
11.423000 7.865400
11.435600 8.280400
11.448200 8.685200
11.460900 9.058400
11.473500 8.647500
11.486100 8.452700
11.498700 7.678800
11.511400 8.680000
11.524000 8.067400
11.536600 7.100600
11.549200 6.591300
11.561900 6.453700
11.574500 6.483000
11.587100 7.474800
11.599700 8.361300
11.612400 8.824500
11.625000 7.781800
11.637600 6.675100
11.650200 6.422900
11.662900 6.475900
11.675500 6.629400
11.688100 8.481600
11.700700 7.587100
11.713300 9.191600
11.726000 8.089900
11.738600 7.321300
11.751200 6.864600
11.763800 6.841500
11.776500 6.934300
11.789100 7.015800
11.801700 7.055400
11.814300 7.111800
11.827000 7.204000
11.839600 7.250500
11.852200 7.185700
11.864800 7.081900
11.877500 7.226500
11.890100 7.378300
11.902700 7.379800
11.915300 7.278300
11.928000 7.198900
11.940600 7.107900
11.953200 7.033000
11.965800 7.050000
11.978500 6.984900
11.991100 6.986900
12.003700 7.152900
12.016300 7.111900
12.029000 6.901700
12.041600 6.375700
12.054200 5.511300
12.066800 4.989100
12.079500 4.647800
12.092100 4.378300
12.104700 4.201300
12.117300 4.073500
12.130000 3.981400
12.142600 4.019800
12.155200 4.066400
12.167800 4.148700
12.180500 4.449400
12.193100 4.897200
12.205700 4.975600
12.218300 4.732700
12.231000 4.554200
12.243600 4.413500
12.256200 4.310500
12.268800 4.245300
12.281500 4.217200
12.294100 4.212100
12.306700 4.213500
12.319300 4.221400
12.331900 4.251900
12.344600 4.353200
12.357200 4.489800
12.369800 4.665200
12.382400 4.862000
12.395100 5.082400
12.407700 5.323200
12.420300 5.517200
12.432900 5.659000
12.445600 5.694400
12.458200 5.704100
12.470800 5.681400
12.483400 5.580600
12.496100 5.450200
12.508700 5.334300
12.521300 5.238300
12.533900 5.158400
12.546600 5.085600
12.559200 5.019700
12.571800 4.959200
12.584400 4.907100
12.597100 4.870700
12.609700 4.839700
12.622300 4.803000
12.634900 4.767100
12.647600 4.733500
12.660200 4.702900
12.672800 4.724500
12.685400 4.813600
12.698100 4.932000
12.710700 5.196400
12.723300 5.296200
12.735900 5.238400
12.748600 5.145300
12.761200 5.081800
12.773800 5.037500
12.786400 5.016900
12.799100 5.000900
12.811700 4.986900
12.824300 4.978400
12.836900 4.983400
12.849600 4.944300
12.862200 4.839700
12.874800 4.953000
12.887400 4.973900
12.900100 5.004000
12.912700 5.043700
12.925300 5.100700
12.937900 5.175000
12.950500 5.261600
12.963200 5.356300
12.975800 5.464500
12.988400 5.583600
13.001000 5.713200
13.013700 6.117600
13.026300 6.367100
13.038900 6.783900
13.051500 7.045800
13.064200 7.118400
13.076800 7.004300
13.089400 6.987600
13.102000 6.999200
13.114700 6.979200
13.127300 6.928900
13.139900 6.873300
13.152500 6.822100
13.165200 6.772300
13.177800 6.709900
13.190400 6.738700
13.203000 7.202900
13.215700 9.904900
13.228300 7.902800
13.240900 8.001400
13.253500 8.018600
13.266200 7.975700
13.278800 7.877200
13.291400 7.768700
13.304000 7.658000
13.316700 7.568800
13.329300 7.493700
13.341900 7.434400
13.354500 7.392500
13.367200 7.366600
13.379800 7.393900
13.392400 7.563500
13.405000 7.689100
13.417700 7.820000
13.430300 8.007100
13.442900 8.334600
13.455500 7.953400
13.468200 7.609900
13.480800 7.521500
13.493400 7.428500
13.506000 7.348600
13.518700 7.322100
13.531300 7.320700
13.543900 7.326600
13.556500 7.339200
13.569100 7.374700
13.581800 7.430700
13.594400 8.228900
13.607000 8.898700
13.619600 8.909100
13.632300 8.256600
13.644900 8.137700
13.657500 8.155800
13.670100 8.228000
13.682800 8.305600
13.695400 8.401300
13.708000 8.511000
13.720600 8.654000
13.733300 9.146100
13.745900 9.578400
13.758500 9.688000
13.771100 9.458800
13.783800 9.059600
13.796400 9.079200
13.809000 9.084800
13.821600 9.100800
13.834300 9.124500
13.846900 9.141800
13.859500 9.146200
13.872100 9.139100
13.884800 9.121800
13.897400 9.110500
13.910000 9.070900
13.922600 9.010200
13.935300 8.960200
13.947900 8.878400
13.960500 8.803000
13.973100 8.757800
13.985800 8.738400
13.998400 8.683400
14.011000 8.669800
14.023600 8.637500
14.036300 8.611400
14.048900 8.596500
14.061500 8.591600
14.074100 8.593800
14.086800 8.602300
14.099400 8.618400
14.112000 8.645600
14.124600 8.695400
14.137300 8.665700
14.149900 8.720300
14.162500 8.802700
14.175100 8.903100
14.187700 9.046400
14.200400 9.427200
14.213000 9.247800
14.225600 9.199900
14.238200 9.154000
14.250900 9.126600
14.263500 9.117100
14.276100 9.110000
14.288700 9.117000
14.301400 9.131400
14.314000 9.215100
14.326600 9.270000
14.339200 9.285300
14.351900 9.294800
14.364500 9.340100
14.377100 9.409600
14.389700 9.430600
14.402400 9.438900
14.415000 9.445800
14.427600 9.447900
14.440200 9.425400
14.452900 9.364100
14.465500 9.294400
14.478100 9.130600
14.490700 9.107800
14.503400 8.824300
14.516000 8.545800
14.528600 8.251500
14.541200 8.001100
14.553900 7.852200
14.566500 7.720900
14.579100 7.631700
14.591700 7.623400
14.604400 7.732500
14.617000 7.890600
14.629600 8.067300
14.642200 8.241700
14.654900 8.345400
14.667500 8.434700
14.680100 8.531700
14.692700 8.636500
14.705400 8.749500
14.718000 8.871900
14.730600 9.008200
14.743200 9.158700
14.755900 9.322900
14.768500 9.490800
14.781100 9.583500
14.793700 9.611300
14.806300 9.576400
14.819000 9.492800
14.831600 9.361300
14.844200 9.227600
14.856800 9.355600
14.869500 9.514700
14.882100 9.638300
14.894700 9.721300
14.907300 9.673700
14.920000 9.409500
14.932600 9.108400
14.945200 9.303100
14.957800 9.509700
14.970500 9.713500
14.983100 9.773400
14.995700 10.176400
15.008300 10.553400
15.021000 10.151300
15.033600 9.874900
15.046200 9.039900
15.058800 8.376800
15.071500 7.825100
15.084100 7.692900
15.096700 7.456200
15.109300 7.079600
15.122000 6.802000
15.134600 6.720600
15.147200 6.326700
15.159800 6.080500
15.172500 6.038100
15.185100 6.144800
15.197700 6.225000
15.210300 6.318700
15.223000 7.309300
15.235600 8.046500
15.248200 8.474200
15.260800 8.942300
15.273500 9.442200
15.286100 9.753400
15.298700 9.999900
15.311300 10.291800
15.324000 10.750300
15.336600 11.679100
15.349200 12.749500
15.361800 13.265700
15.374500 10.489300
15.387100 8.928000
15.399700 8.706300
15.412300 9.321800
15.425000 9.903400
15.437600 10.606900
15.450200 11.301900
15.462800 11.317300
15.475400 11.246100
15.488100 8.357400
15.500700 6.133800
15.513300 7.738000
15.525900 7.432300
15.538600 7.888800
15.551200 7.858900
15.563800 7.912800
15.576400 7.960400
15.589100 7.984700
15.601700 7.975100
15.614300 7.899400
15.626900 7.060700
15.639600 6.748100
15.652200 6.339200
15.664800 5.833900
15.677400 5.232300
15.690100 4.819700
15.702700 4.543000
15.715300 4.408800
15.727900 4.665400
15.740600 5.116500
15.753200 5.030800
15.765800 4.984100
15.778400 4.800500
15.791100 4.936700
15.803700 4.457400
15.816300 4.189100
15.828900 4.253700
15.841600 4.676200
15.854200 5.031800
15.866800 4.893200
15.879400 4.730000
15.892100 4.595800
15.904700 4.481600
15.917300 4.344200
15.929900 4.206200
15.942600 4.098000
15.955200 3.990100
15.967800 3.749100
15.980400 3.490500
15.993100 3.214300
16.005700 2.920500
16.018300 2.609200
16.030900 2.284500
16.043600 2.098100
16.056200 2.108500
16.068800 2.115100
16.081400 2.117700
16.094000 2.116400
16.106700 1.785200
16.119300 1.265600
16.131900 1.008900
16.144500 0.836700
16.157200 0.713000
16.169800 0.598300
16.182400 0.492500
16.195000 0.395700
16.207700 0.307900
16.220300 0.229100
16.232900 0.159200
16.245500 0.098300
16.258200 0.046400
16.270800 0.003500
16.283400 0.000000
16.296000 0.000000
16.308700 0.000000
16.321300 0.000000
16.333900 0.000000
16.346500 0.000000
16.359200 0.000000
16.371800 0.000000
16.384400 0.000000
16.397000 0.000000
16.409700 0.000000
16.422300 0.000000
16.434900 0.000000
16.447500 0.000000
16.460200 0.000000
16.472800 0.000000
16.485400 0.000000
16.498000 0.000000
16.510700 0.000000
16.523300 0.000000
16.535900 0.000000
16.548500 0.000000
16.561200 0.000000
16.573800 0.000000
16.586400 0.000000
16.599000 0.000000
16.611700 0.000000
16.624300 0.000000
16.636900 0.000000
16.649500 0.000000
16.662200 0.000000
16.674800 0.000000
16.687400 0.000000
16.700000 0.000000
16.712600 0.000000
16.725300 0.000000
16.737900 0.000000
16.750500 0.000000
16.763100 0.000000
16.775800 0.000000
16.788400 0.000000
16.801000 0.000000
16.813600 0.000000
16.826300 0.000000
16.838900 0.000000
16.851500 0.000000
16.864100 0.000000
16.876800 0.000000
16.889400 0.000000
16.902000 0.000000
16.914600 0.000000
16.927300 0.000000
16.939900 0.000000
16.952500 0.000000
16.965100 0.000000
16.977800 0.000000
16.990400 0.000000
17.003000 0.000000
17.015600 0.000000
17.028300 0.000000
17.040900 0.000000
17.053500 0.000000
17.066100 0.000000
17.078800 0.000000
17.091400 0.000000
17.104000 0.000000
17.116600 0.000000
17.129300 0.000000
17.141900 0.000000
17.154500 0.000000
17.167100 0.000000
17.179800 0.000000
17.192400 0.000000
17.205000 0.000000
17.217600 0.000000
17.230300 0.000000
17.242900 0.000000
17.255500 0.000000
17.268100 0.000000
17.280800 0.000000
17.293400 0.000000
17.306000 0.000000
17.318600 0.000000
17.331200 0.000000
17.343900 0.000000
17.356500 0.000000
17.369100 0.000000
17.381700 0.000000
17.394400 0.000000
17.407000 0.000000
17.419600 0.000000
e
