set title 'mp-22777 - Density of States'
set xlabel 'Energy (eV)'
set ylabel 'DOS (states/eV)'
set grid
set xrange [-10:10]
set yrange [0:10.315]
set xzeroaxis lt -1
set terminal png size 800,600
set output 'mp-22777_dos_gnuplot.png'
plot '-' using 1:2 with lines title 'DOS'
-27.885900 0.000000
-27.823900 0.000000
-27.761900 0.000000
-27.699900 0.000000
-27.638000 0.000000
-27.576000 0.000000
-27.514000 0.000000
-27.452100 0.000000
-27.390100 0.000000
-27.328100 0.000000
-27.266200 0.000000
-27.204200 0.000000
-27.142200 0.000000
-27.080300 0.000000
-27.018300 0.000000
-26.956300 0.000000
-26.894300 0.000000
-26.832400 0.000000
-26.770400 0.000000
-26.708400 0.000000
-26.646500 0.000000
-26.584500 0.000000
-26.522500 0.000000
-26.460600 0.000000
-26.398600 0.000000
-26.336600 0.000000
-26.274700 0.000000
-26.212700 0.000000
-26.150700 0.000000
-26.088700 0.000000
-26.026800 0.000000
-25.964800 0.000000
-25.902800 0.000000
-25.840900 0.000000
-25.778900 0.000000
-25.716900 0.000000
-25.655000 0.000000
-25.593000 0.000000
-25.531000 0.000000
-25.469000 0.000000
-25.407100 0.000000
-25.345100 0.000000
-25.283100 0.000000
-25.221200 0.000000
-25.159200 0.000000
-25.097200 0.000000
-25.035300 0.000000
-24.973300 0.000000
-24.911300 0.000000
-24.849400 0.000000
-24.787400 0.000000
-24.725400 0.000000
-24.663400 0.000000
-24.601500 0.000000
-24.539500 0.000000
-24.477500 0.000000
-24.415600 0.000000
-24.353600 0.000000
-24.291600 0.000000
-24.229700 0.000000
-24.167700 0.000000
-24.105700 0.000000
-24.043800 0.000000
-23.981800 0.000000
-23.919800 0.000000
-23.857800 0.000000
-23.795900 0.000000
-23.733900 0.000000
-23.671900 0.000000
-23.610000 0.000000
-23.548000 0.000000
-23.486000 0.000000
-23.424100 0.000000
-23.362100 0.000000
-23.300100 0.000000
-23.238200 0.000000
-23.176200 0.000000
-23.114200 0.000000
-23.052200 0.000000
-22.990300 0.000000
-22.928300 0.000000
-22.866300 0.000000
-22.804400 0.000000
-22.742400 0.000000
-22.680400 0.000000
-22.618500 0.000000
-22.556500 0.000000
-22.494500 0.000000
-22.432600 0.000000
-22.370600 0.000000
-22.308600 0.000000
-22.246600 1.513200
-22.184700 20.444500
-22.122700 6.340200
-22.060700 0.000000
-21.998800 0.000000
-21.936800 0.000000
-21.874800 0.000000
-21.812900 26.746600
-21.750900 0.000000
-21.688900 7.081900
-21.626900 0.000000
-21.565000 0.000000
-21.503000 0.000000
-21.441000 0.000000
-21.379100 0.000000
-21.317100 0.000000
-21.255100 0.000000
-21.193200 0.000000
-21.131200 0.000000
-21.069200 0.000000
-21.007300 0.000000
-20.945300 0.000000
-20.883300 0.000000
-20.821300 0.000000
-20.759400 0.000000
-20.697400 0.000000
-20.635400 0.000000
-20.573500 0.000000
-20.511500 0.000000
-20.449500 0.000000
-20.387600 0.000000
-20.325600 0.000000
-20.263600 0.000000
-20.201700 0.000000
-20.139700 0.000000
-20.077700 0.000000
-20.015700 0.000000
-19.953800 0.000000
-19.891800 0.000000
-19.829800 0.000000
-19.767900 0.000000
-19.705900 0.000000
-19.643900 0.000000
-19.582000 0.000000
-19.520000 0.000000
-19.458000 0.000000
-19.396100 0.000000
-19.334100 0.000000
-19.272100 0.000000
-19.210100 0.000000
-19.148200 0.000000
-19.086200 0.000000
-19.024200 0.000000
-18.962300 0.000000
-18.900300 0.000000
-18.838300 0.000000
-18.776400 0.000000
-18.714400 0.000000
-18.652400 0.000000
-18.590500 0.000000
-18.528500 0.000000
-18.466500 0.000000
-18.404500 0.000000
-18.342600 0.000000
-18.280600 0.000000
-18.218600 0.000000
-18.156700 0.000000
-18.094700 0.000000
-18.032700 0.000000
-17.970800 0.000000
-17.908800 0.000000
-17.846800 0.000000
-17.784900 0.000000
-17.722900 0.000000
-17.660900 0.000000
-17.598900 0.000000
-17.537000 0.000000
-17.475000 0.000000
-17.413000 0.000000
-17.351100 0.000000
-17.289100 0.000000
-17.227100 0.000000
-17.165200 0.000000
-17.103200 0.000000
-17.041200 0.000000
-16.979200 0.000000
-16.917300 0.000000
-16.855300 0.000000
-16.793300 0.000000
-16.731400 0.000000
-16.669400 0.000000
-16.607400 0.000000
-16.545500 0.000000
-16.483500 0.000000
-16.421500 0.000000
-16.359600 0.000000
-16.297600 0.000000
-16.235600 0.000000
-16.173600 0.000000
-16.111700 0.000000
-16.049700 0.000000
-15.987700 0.000000
-15.925800 0.000000
-15.863800 0.000000
-15.801800 0.000000
-15.739900 0.000000
-15.677900 0.000000
-15.615900 0.000000
-15.554000 0.000000
-15.492000 0.000000
-15.430000 0.000000
-15.368000 0.000000
-15.306100 0.000000
-15.244100 0.000000
-15.182100 0.000000
-15.120200 0.000000
-15.058200 0.000000
-14.996200 0.000000
-14.934300 0.000000
-14.872300 0.000000
-14.810300 0.000000
-14.748400 0.000000
-14.686400 0.000000
-14.624400 0.000000
-14.562400 0.000000
-14.500500 0.000000
-14.438500 0.000000
-14.376500 0.000000
-14.314600 0.000000
-14.252600 0.000000
-14.190600 0.000000
-14.128700 0.000000
-14.066700 0.000000
-14.004700 0.000000
-13.942800 0.000000
-13.880800 0.000000
-13.818800 0.000000
-13.756800 0.000000
-13.694900 0.000000
-13.632900 0.000000
-13.570900 0.000000
-13.509000 0.000000
-13.447000 0.000000
-13.385000 0.000000
-13.323100 0.000000
-13.261100 0.000000
-13.199100 0.000000
-13.137100 0.000000
-13.075200 0.000000
-13.013200 0.000000
-12.951200 0.000000
-12.889300 0.000000
-12.827300 0.000000
-12.765300 0.000000
-12.703400 0.000000
-12.641400 0.000000
-12.579400 0.000000
-12.517500 0.000000
-12.455500 0.000000
-12.393500 0.000000
-12.331500 0.000000
-12.269600 0.000000
-12.207600 0.000000
-12.145600 0.000000
-12.083700 0.000000
-12.021700 0.000000
-11.959700 0.000000
-11.897800 3.068500
-11.835800 2.805400
-11.773800 1.889600
-11.711900 1.536200
-11.649900 1.529900
-11.587900 1.293600
-11.525900 1.123800
-11.464000 1.123700
-11.402000 1.123700
-11.340000 1.090700
-11.278100 1.007900
-11.216100 1.007800
-11.154100 1.007700
-11.092200 1.013300
-11.030200 1.071700
-10.968200 1.178800
-10.906300 1.178900
-10.844300 1.240400
-10.782300 1.675800
-10.720300 2.218000
-10.658400 1.763500
-10.596400 0.199500
-10.534400 0.000000
-10.472500 0.000000
-10.410500 0.000000
-10.348500 0.000000
-10.286600 0.000000
-10.224600 0.000000
-10.162600 0.000000
-10.100700 0.000000
-10.038700 0.000000
-9.976700 0.000000
-9.914700 0.000000
-9.852800 0.000000
-9.790800 0.000000
-9.728800 0.000000
-9.666900 0.000000
-9.604900 0.000000
-9.542900 0.000000
-9.481000 0.000000
-9.419000 0.000000
-9.357000 0.000000
-9.295100 0.000000
-9.233100 0.000000
-9.171100 0.000000
-9.109100 0.000000
-9.047200 0.000000
-8.985200 0.000000
-8.923200 0.000000
-8.861300 0.000000
-8.799300 0.000000
-8.737300 0.309400
-8.675400 1.510700
-8.613400 3.909400
-8.551400 5.390100
-8.489400 7.781900
-8.427500 5.498500
-8.365500 4.887700
-8.303500 3.417800
-8.241600 0.000000
-8.179600 0.000000
-8.117600 0.000000
-8.055700 0.000000
-7.993700 0.000000
-7.931700 0.000000
-7.869800 0.000000
-7.807800 0.000000
-7.745800 0.000000
-7.683800 0.000000
-7.621900 0.000000
-7.559900 0.000000
-7.497900 0.000000
-7.436000 0.000000
-7.374000 0.000000
-7.312000 0.000000
-7.250100 0.000000
-7.188100 0.477500
-7.126100 1.166000
-7.064200 1.748000
-7.002200 1.403200
-6.940200 0.924700
-6.878200 0.680400
-6.816300 0.680500
-6.754300 0.680500
-6.692300 0.680600
-6.630400 0.680600
-6.568400 0.675100
-6.506400 0.610400
-6.444500 0.558400
-6.382500 0.558400
-6.320500 0.558300
-6.258600 0.558300
-6.196600 1.020000
-6.134600 1.467300
-6.072600 1.942600
-6.010700 3.040700
-5.948700 3.771700
-5.886700 4.468300
-5.824800 5.320800
-5.762800 9.377000
-5.700800 4.071500
-5.638900 1.993400
-5.576900 0.772100
-5.514900 0.773200
-5.453000 0.762900
-5.391000 0.773400
-5.329000 0.849400
-5.267000 0.894600
-5.205100 0.894400
-5.143100 1.036400
-5.081100 1.409200
-5.019200 1.973600
-4.957200 1.399900
-4.895200 1.301000
-4.833300 1.167700
-4.771300 1.399900
-4.709300 0.759300
-4.647400 1.360300
-4.585400 2.628700
-4.523400 2.310100
-4.461400 2.409600
-4.399500 2.811200
-4.337500 3.875000
-4.275500 3.915800
-4.213600 1.680300
-4.151600 1.252900
-4.089600 1.141800
-4.027700 1.143900
-3.965700 1.148000
-3.903700 1.129100
-3.841700 1.129100
-3.779800 1.129500
-3.717800 5.999800
-3.655800 0.000000
-3.593900 0.000000
-3.531900 0.000000
-3.469900 0.000000
-3.408000 0.000000
-3.346000 0.000000
-3.284000 0.000000
-3.222100 0.000000
-3.160100 0.000000
-3.098100 0.000000
-3.036100 0.000000
-2.974200 0.000000
-2.912200 0.000000
-2.850200 0.000000
-2.788300 0.000000
-2.726300 0.000000
-2.664300 0.000000
-2.602400 0.000000
-2.540400 0.000000
-2.478400 0.000000
-2.416500 0.000000
-2.354500 0.000000
-2.292500 0.000000
-2.230500 0.000000
-2.168600 0.000000
-2.106600 0.000000
-2.044600 0.000000
-1.982700 0.000000
-1.920700 0.000000
-1.858700 0.000000
-1.796800 0.000000
-1.734800 0.000000
-1.672800 0.000000
-1.610900 0.000000
-1.548900 0.000000
-1.486900 0.000000
-1.424900 0.000000
-1.363000 0.000000
-1.301000 0.000000
-1.239000 0.000000
-1.177100 0.000000
-1.115100 0.000000
-1.053100 0.797700
-0.991200 1.111300
-0.929200 1.371500
-0.867200 1.382800
-0.805300 1.669400
-0.743300 2.090900
-0.681300 1.563100
-0.619300 1.214400
-0.557400 1.106500
-0.495400 1.054600
-0.433400 0.983900
-0.371500 0.928100
-0.309500 0.887300
-0.247500 0.860500
-0.185600 0.839500
-0.123600 0.816100
-0.061600 0.788900
0.000400 0.779300
0.062300 0.778600
0.124300 0.793200
0.186300 0.801800
0.248200 0.810200
0.310200 0.820800
0.372200 0.825500
0.434100 1.390900
0.496100 2.063800
0.558100 2.750200
0.620000 3.762100
0.682000 6.855300
0.744000 3.889500
0.806000 3.317400
0.867900 2.791000
0.929900 3.013000
0.991900 2.886200
1.053800 3.626400
1.115800 3.702700
1.177800 2.606900
1.239700 0.816600
1.301700 0.784400
1.363700 0.784400
1.425600 0.585200
1.487600 0.504800
1.549600 0.504800
1.611600 0.504800
1.673500 0.504800
1.735500 0.504800
1.797500 0.504800
1.859400 0.504800
1.921400 0.504800
1.983400 0.504800
2.045300 0.477900
2.107300 0.477900
2.169300 0.477900
2.231200 0.477900
2.293200 0.477900
2.355200 0.477900
2.417200 0.477900
2.479100 0.671800
2.541100 0.837400
2.603100 1.750700
2.665000 3.103500
2.727000 3.745200
2.789000 4.220200
2.850900 5.084300
2.912900 4.847100
2.974900 4.764900
3.036800 4.805500
3.098800 4.945900
3.160800 4.804800
3.222800 3.526700
3.284700 1.547100
3.346700 1.746400
3.408700 1.252900
3.470600 1.589100
3.532600 2.002700
3.594600 2.134600
3.656500 2.939900
3.718500 2.940000
3.780500 0.607000
3.842400 0.619100
3.904400 0.633200
3.966400 0.640700
4.028400 0.646700
4.090300 0.646800
4.152300 0.646800
4.214300 0.646900
4.276200 0.646900
4.338200 0.745100
4.400200 0.805500
4.462100 0.843600
4.524100 0.849500
4.586100 0.849600
4.648100 0.849800
4.710000 1.198700
4.772000 1.473800
4.834000 1.575700
4.895900 2.187000
4.957900 1.919400
5.019900 0.000000
5.081800 0.000000
5.143800 0.000000
5.205800 0.000000
5.267700 0.000000
5.329700 0.000000
5.391700 0.000000
5.453700 0.000000
5.515600 0.000000
5.577600 0.000000
5.639600 0.000000
5.701500 0.000000
5.763500 0.000000
5.825500 0.000000
5.887400 0.000000
5.949400 0.000000
6.011400 0.000000
6.073300 0.000000
6.135300 0.000000
6.197300 0.000000
6.259300 0.000000
6.321200 0.191400
6.383200 0.240300
6.445200 0.326600
6.507100 0.364700
6.569100 0.442600
6.631100 0.486700
6.693000 0.505700
6.755000 0.547600
6.817000 0.598700
6.878900 0.632000
6.940900 0.661800
7.002900 0.691000
7.064900 0.731900
7.126800 0.779200
7.188800 0.824900
7.250800 0.875100
7.312700 0.940000
7.374700 1.025000
7.436700 1.101000
7.498600 1.195900
7.560600 1.308900
7.622600 1.418700
7.684500 1.497100
7.746500 1.649800
7.808500 1.717200
7.870500 1.687800
7.932400 1.622500
7.994400 1.394600
8.056400 1.082700
8.118300 0.916100
8.180300 0.800700
8.242300 0.743600
8.304200 0.591100
8.366200 0.498200
8.428200 0.415800
8.490200 0.352100
8.552100 0.297100
8.614100 0.248100
8.676100 0.212300
8.738000 0.188300
8.800000 0.210000
8.862000 0.243000
8.923900 0.257800
8.985900 0.283200
9.047900 0.480200
9.109800 0.820200
9.171800 0.955900
9.233800 1.133500
9.295800 1.362900
9.357700 1.613000
9.419700 1.797800
9.481700 1.860300
9.543600 2.090000
9.605600 1.895100
9.667600 1.899500
9.729500 1.596900
9.791500 1.493600
9.853500 1.570200
9.915400 1.702800
9.977400 1.852200
10.039400 1.755600
10.101400 1.734600
10.163300 1.698100
10.225300 1.696700
10.287300 1.680600
10.349200 1.677700
10.411200 1.667000
10.473200 1.692400
10.535100 1.698800
10.597100 1.679300
10.659100 1.705700
10.721000 1.558200
10.783000 1.512400
10.845000 1.558700
10.907000 1.914200
10.968900 1.443400
11.030900 1.272200
11.092900 1.122600
11.154800 0.997300
11.216800 0.924100
11.278800 0.892500
11.340700 0.834100
11.402700 0.813700
11.464700 0.795400
11.526600 0.776300
11.588600 0.758900
11.650600 0.764000
11.712600 0.777400
11.774500 0.773900
11.836500 0.755700
11.898500 0.737100
11.960400 0.831800
12.022400 0.864700
12.084400 0.918700
12.146300 0.906900
12.208300 1.065500
12.270300 1.288600
12.332200 1.311900
12.394200 1.280000
12.456200 1.122100
12.518200 1.066700
12.580100 1.054500
12.642100 1.100200
12.704100 1.091700
12.766000 1.079500
12.828000 1.081700
12.890000 1.132500
12.951900 1.391200
13.013900 1.733500
13.075900 1.815500
13.137900 2.139700
13.199800 2.231200
13.261800 1.989500
13.323800 1.978000
13.385700 1.924300
13.447700 1.869900
13.509700 1.672600
13.571600 1.643700
13.633600 1.577500
13.695600 1.581200
13.757500 1.783500
13.819500 2.009900
13.881500 2.124600
13.943500 2.210300
14.005400 2.308800
14.067400 2.381900
14.129400 2.287300
14.191300 1.943800
14.253300 1.566500
14.315300 1.246300
14.377200 0.967000
14.439200 0.832200
14.501200 0.791500
14.563100 1.018600
14.625100 1.019100
14.687100 1.099400
14.749100 1.158300
14.811000 1.166600
14.873000 1.199000
14.935000 1.294600
14.996900 1.367600
15.058900 1.427300
15.120900 1.497300
15.182800 1.456900
15.244800 1.535700
15.306800 1.580300
15.368700 1.583100
15.430700 1.460400
15.492700 1.385100
15.554700 1.232300
15.616600 1.124200
15.678600 1.097800
15.740600 1.056300
15.802500 1.060700
15.864500 1.050900
15.926500 0.962500
15.988400 0.902500
16.050400 0.835400
16.112400 0.804000
16.174300 0.840400
16.236300 0.908800
16.298300 1.038400
16.360300 1.317200
16.422200 1.490300
16.484200 1.512100
16.546200 1.542300
16.608100 1.426400
16.670100 1.440600
16.732100 1.507100
16.794000 1.975800
16.856000 2.165200
16.918000 2.507900
16.979900 2.400800
17.041900 2.365800
17.103900 2.727500
17.165900 2.757100
17.227800 2.589000
17.289800 2.141600
17.351800 1.952800
17.413700 2.007200
17.475700 2.067200
17.537700 2.100500
17.599600 2.274000
17.661600 2.695300
17.723600 2.588900
17.785600 2.579600
17.847500 2.478200
17.909500 2.485500
17.971500 2.533100
18.033400 2.528700
18.095400 2.510100
18.157400 2.524400
18.219300 2.429000
18.281300 2.350400
18.343300 2.342900
18.405200 2.302400
18.467200 2.266900
18.529200 2.282800
18.591200 2.180600
18.653100 2.322100
18.715100 2.400300
18.777100 2.172100
18.839000 2.219000
18.901000 2.210800
18.963000 2.308800
19.024900 2.356500
19.086900 2.404900
19.148900 2.711400
19.210800 2.727700
19.272800 2.394800
19.334800 2.427800
19.396800 2.440700
19.458700 2.396900
19.520700 2.377900
19.582700 2.213400
19.644600 2.158600
19.706600 2.111800
19.768600 2.192000
19.830500 2.481500
19.892500 2.751100
19.954500 2.729700
20.016400 2.553100
20.078400 2.510500
20.140400 2.371000
20.202400 2.263400
20.264300 2.061800
20.326300 1.899300
20.388300 1.811100
20.450200 1.690200
20.512200 1.670400
20.574200 1.701100
20.636100 1.697100
20.698100 1.825100
20.760100 2.102700
20.822000 1.887500
20.884000 1.763200
20.946000 1.669800
21.008000 1.627600
21.069900 1.563800
21.131900 1.552800
21.193900 1.545600
21.255800 1.588000
21.317800 1.608600
21.379800 1.642900
21.441700 1.629900
21.503700 1.571000
21.565700 1.568500
21.627700 1.654600
21.689600 1.895600
21.751600 1.915500
21.813600 2.024900
21.875500 1.946100
21.937500 1.749300
21.999500 1.574900
22.061400 1.467300
22.123400 1.359100
22.185400 1.319300
22.247300 1.406800
22.309300 1.452100
22.371300 1.513300
22.433300 1.600100
22.495200 1.726500
22.557200 1.677300
22.619200 1.556900
22.681100 1.492000
22.743100 1.505100
22.805100 1.566500
22.867000 1.631000
22.929000 1.729100
22.991000 1.740900
23.052900 1.744700
23.114900 1.848100
23.176900 1.935300
23.238900 2.053700
23.300800 2.141200
23.362800 2.162700
23.424800 2.201000
23.486700 2.271200
23.548700 2.269400
23.610700 2.226800
23.672600 2.212300
23.734600 2.351700
23.796600 2.404900
23.858500 2.489400
23.920500 2.472200
23.982500 2.344200
24.044500 2.281000
24.106400 2.334900
24.168400 2.589500
24.230400 2.710800
24.292300 3.029000
24.354300 3.093000
24.416300 2.894000
24.478200 2.543100
24.540200 2.467000
24.602200 2.648500
24.664100 2.716400
24.726100 2.420600
24.788100 2.240600
24.850100 2.229500
24.912000 2.425100
24.974000 2.704800
25.036000 2.770600
25.097900 3.061400
25.159900 3.292500
25.221900 3.302700
25.283800 3.197600
25.345800 2.771000
25.407800 2.450000
25.469700 2.265000
25.531700 2.331400
25.593700 2.135100
25.655700 2.246400
25.717600 2.548400
25.779600 2.636300
25.841600 2.386700
25.903500 2.359900
25.965500 1.876700
26.027500 1.757800
26.089400 1.807600
26.151400 1.938300
26.213400 1.935900
26.275400 2.013100
26.337300 2.089600
26.399300 2.152100
26.461300 2.173800
26.523200 2.188100
26.585200 2.227300
26.647200 2.233800
26.709100 2.280200
26.771100 2.309700
26.833100 2.133000
26.895000 2.219700
26.957000 2.458200
27.019000 2.847400
27.081000 2.726700
27.142900 2.366800
27.204900 2.223900
27.266900 2.168300
27.328800 2.233400
27.390800 2.259200
27.452800 2.110000
27.514700 2.105200
27.576700 2.043700
27.638700 2.065800
27.700600 2.206100
27.762600 2.374400
27.824600 2.456600
27.886600 2.591800
27.948500 2.606800
28.010500 2.462900
28.072500 2.337100
28.134400 2.224100
28.196400 2.117200
28.258400 2.068300
28.320300 2.108000
28.382300 2.244600
28.444300 2.340700
28.506200 2.274500
28.568200 2.097500
28.630200 1.931000
28.692200 1.817300
28.754100 1.984000
28.816100 2.169800
28.878100 2.286200
28.940000 2.299400
29.002000 2.302800
29.064000 2.439800
29.125900 2.606800
29.187900 2.405400
29.249900 2.394500
29.311800 2.331400
29.373800 2.258600
29.435800 2.237800
29.497800 2.202000
29.559700 2.066100
29.621700 1.985600
29.683700 1.961600
29.745600 2.043000
29.807600 2.165400
29.869600 2.216000
29.931500 2.334600
29.993500 2.400600
30.055500 2.433200
30.117500 2.477400
30.179400 2.559100
30.241400 2.735900
30.303400 2.517400
30.365300 2.328500
30.427300 2.100200
30.489300 1.853200
30.551200 1.729500
30.613200 1.661400
30.675200 1.700300
30.737100 1.724700
30.799100 1.800200
30.861100 1.905000
30.923100 2.054400
30.985000 2.144500
31.047000 2.171500
31.109000 2.292500
31.170900 2.256600
31.232900 2.306800
31.294900 2.451100
31.356800 2.709900
31.418800 2.850600
31.480800 2.795200
31.542700 2.752700
31.604700 2.833300
31.666700 2.657700
31.728700 2.622900
31.790600 2.679900
31.852600 2.614000
31.914600 2.620300
31.976500 2.689600
32.038500 2.808300
32.100500 2.662800
32.162400 2.702200
32.224400 2.689200
32.286400 2.595900
32.348300 2.607200
32.410300 2.608100
32.472300 2.636600
32.534300 2.620600
32.596200 2.379300
32.658200 2.433000
32.720200 2.516000
32.782100 2.460000
32.844100 2.516100
32.906100 2.520400
32.968000 2.600800
33.030000 2.780500
33.092000 2.998200
33.153900 2.818600
33.215900 2.682400
33.277900 2.694700
33.339900 2.765600
33.401800 2.716800
33.463800 2.622400
33.525800 2.578500
33.587700 2.631200
33.649700 2.918100
33.711700 3.095300
33.773600 2.839900
33.835600 2.648600
33.897600 2.452100
33.959500 2.457600
34.021500 2.561800
34.083500 2.646700
34.145500 2.493000
34.207400 2.402000
34.269400 2.318400
34.331400 2.361100
34.393300 2.417900
34.455300 2.434500
34.517300 2.493300
34.579200 2.510600
34.641200 2.645400
34.703200 2.865200
34.765200 3.108400
34.827100 2.997900
34.889100 2.947600
34.951100 2.829200
35.013000 2.662400
35.075000 2.617900
35.137000 2.535000
35.198900 2.490300
35.260900 2.463100
35.322900 2.525500
35.384800 2.554100
35.446800 2.573700
35.508800 2.614000
35.570800 2.608100
35.632700 2.736700
35.694700 2.946400
35.756700 3.077600
35.818600 3.142200
35.880600 3.141300
35.942600 3.189100
36.004500 3.052600
36.066500 2.869400
36.128500 2.927100
36.190400 2.836900
36.252400 2.592700
36.314400 2.539100
36.376400 2.638000
36.438300 2.766600
36.500300 2.816500
36.562300 2.887900
36.624200 3.064900
36.686200 3.462000
36.748200 3.934500
36.810100 5.467900
36.872100 11.129900
36.934100 7.407900
36.996000 4.648600
37.058000 3.866900
37.120000 3.395000
37.182000 3.107000
37.243900 2.931300
37.305900 2.774000
37.367900 2.696400
37.429800 2.746300
37.491800 2.825800
37.553800 2.802100
37.615700 2.610000
37.677700 2.601400
37.739700 2.378400
37.801600 2.327200
37.863600 2.286000
37.925600 2.285100
37.987600 2.345200
38.049500 2.426100
38.111500 2.610100
38.173500 2.663200
38.235400 2.658000
38.297400 2.763900
38.359400 2.893900
38.421300 3.000400
38.483300 2.844400
38.545300 2.775300
38.607200 2.647400
38.669200 2.471900
38.731200 2.470600
38.793200 2.517800
38.855100 2.662800
38.917100 2.515800
38.979100 2.433300
39.041000 2.648100
39.103000 2.751500
39.165000 2.772100
39.226900 2.629100
39.288900 2.521100
39.350900 2.321000
39.412900 2.231200
39.474800 2.216700
39.536800 2.310000
39.598800 2.550000
39.660700 2.694300
39.722700 2.647400
39.784700 2.628400
39.846600 2.567000
39.908600 2.445400
39.970600 2.386200
40.032500 2.316500
40.094500 2.337800
40.156500 2.389500
40.218500 2.445300
40.280400 2.524900
40.342400 2.560100
40.404400 2.676200
40.466300 2.697200
40.528300 2.590800
40.590300 2.560900
40.652200 2.563000
40.714200 2.659700
40.776200 2.560900
40.838100 2.584500
40.900100 2.704900
40.962100 2.687800
41.024100 2.632200
41.086000 2.602400
41.148000 2.539100
41.210000 2.548300
41.271900 2.615000
41.333900 2.723400
41.395900 2.781600
41.457800 2.861400
41.519800 2.928400
41.581800 2.905400
41.643700 2.789100
41.705700 2.806400
41.767700 2.786000
41.829700 2.722800
41.891600 2.693400
41.953600 2.745700
42.015600 2.863800
42.077500 2.931700
42.139500 2.833700
42.201500 2.785000
42.263400 2.739300
42.325400 2.766900
42.387400 2.774800
42.449300 2.824600
42.511300 2.694100
42.573300 2.651500
42.635300 2.612000
42.697200 2.598700
42.759200 2.617900
42.821200 2.502800
42.883100 2.425900
42.945100 2.517500
43.007100 2.511600
43.069000 2.571700
43.131000 2.574900
43.193000 2.623800
43.255000 2.551800
43.316900 2.467600
43.378900 2.431400
43.440900 2.387300
43.502800 2.440500
43.564800 2.500200
43.626800 2.628100
43.688700 2.709600
43.750700 2.670000
43.812700 2.612700
43.874600 2.657800
43.936600 2.834200
43.998600 2.637900
44.060600 2.610800
44.122500 2.729300
44.184500 2.736400
44.246500 2.740100
44.308400 2.836700
44.370400 2.889700
44.432400 2.732100
44.494300 2.582600
44.556300 2.566000
44.618300 2.612300
44.680200 2.829900
44.742200 2.790200
44.804200 2.810000
44.866200 2.839100
44.928100 2.791100
44.990100 2.850300
45.052100 2.747800
45.114000 2.556600
45.176000 2.593400
45.238000 2.676800
45.299900 2.706600
45.361900 2.789200
45.423900 2.845900
45.485800 2.942200
45.547800 2.985500
45.609800 3.062800
45.671800 3.251600
45.733700 3.189000
45.795700 3.241600
45.857700 3.066100
45.919600 3.018100
45.981600 2.918800
46.043600 2.883900
46.105500 2.914700
46.167500 3.093600
46.229500 3.227900
46.291400 3.153600
46.353400 3.046500
46.415400 3.003200
46.477400 2.941800
46.539300 2.946100
46.601300 2.957800
46.663300 3.037300
46.725200 2.869400
46.787200 2.903600
46.849200 2.881100
46.911100 2.893400
46.973100 2.900300
47.035100 3.030600
47.097000 3.214700
47.159000 3.143100
47.221000 3.004700
47.283000 2.943700
47.344900 2.955100
47.406900 2.937300
47.468900 2.908700
47.530800 2.918900
47.592800 3.056800
47.654800 3.014600
47.716700 2.844000
47.778700 2.666300
47.840700 2.580700
47.902700 2.581500
47.964600 2.593700
48.026600 2.651300
48.088600 2.745800
48.150500 2.779600
48.212500 2.804300
48.274500 2.903800
48.336400 2.933200
48.398400 2.789300
48.460400 2.601000
48.522300 2.509300
48.584300 2.426300
48.646300 2.371700
48.708300 2.341000
48.770200 2.376900
48.832200 2.508000
48.894200 2.601900
48.956100 2.654900
49.018100 2.674600
49.080100 2.731600
49.142000 2.811200
49.204000 2.867500
49.266000 2.863500
49.327900 3.002400
49.389900 3.085200
49.451900 3.138700
49.513900 3.054800
49.575800 2.963400
49.637800 2.842600
49.699800 2.796300
49.761700 2.748200
49.823700 2.753800
49.885700 2.788400
49.947600 2.918000
50.009600 2.860500
50.071600 2.813000
50.133500 2.764100
50.195500 2.771100
50.257500 2.872900
50.319500 2.858600
50.381400 2.790300
50.443400 2.748700
50.505400 2.695900
50.567300 2.697700
50.629300 2.743200
50.691300 2.713000
50.753200 2.768200
50.815200 2.838400
50.877200 2.920200
50.939100 2.963400
51.001100 3.003800
51.063100 2.949200
51.125100 2.862500
51.187000 2.791700
51.249000 2.789600
51.311000 2.985200
51.372900 2.853100
51.434900 2.842300
51.496900 2.856200
51.558800 3.010300
51.620800 2.896100
51.682800 2.889900
51.744800 2.901500
51.806700 2.964100
51.868700 2.910300
51.930700 2.827500
51.992600 2.758600
52.054600 2.655200
52.116600 2.651100
52.178500 2.708300
52.240500 2.877400
52.302500 2.941300
52.364400 3.009700
52.426400 2.941300
52.488400 2.833600
52.550400 2.896100
52.612300 3.258300
52.674300 3.315800
52.736300 3.057400
52.798200 2.972700
52.860200 2.935700
52.922200 2.769900
52.984100 2.652800
53.046100 2.559300
53.108100 2.688900
53.170000 2.768600
53.232000 2.902200
53.294000 3.028400
53.356000 2.977300
53.417900 2.902400
53.479900 2.868200
53.541900 2.807900
53.603800 2.886800
53.665800 2.880600
53.727800 2.912600
53.789700 2.965900
53.851700 3.048400
53.913700 3.005100
53.975600 2.902500
54.037600 2.969800
54.099600 3.006200
54.161600 2.703900
54.223500 2.645300
54.285500 2.705600
54.347500 2.857900
54.409400 3.076500
54.471400 3.379300
54.533400 3.455400
54.595300 3.297500
54.657300 3.143200
54.719300 2.977400
54.781200 2.991700
54.843200 2.987100
54.905200 3.125800
54.967200 3.272900
55.029100 3.172100
55.091100 3.206700
55.153100 3.175600
55.215000 3.100500
55.277000 3.107400
55.339000 3.017500
55.400900 2.858000
55.462900 2.831400
55.524900 2.896400
55.586800 3.069700
55.648800 3.220500
55.710800 3.430600
55.772800 3.298500
55.834700 2.994000
55.896700 2.845300
55.958700 2.927900
56.020600 2.991900
56.082600 2.970400
56.144600 3.073500
56.206500 3.294400
56.268500 3.584400
56.330500 3.648400
56.392500 3.373700
56.454400 3.116600
56.516400 3.070900
56.578400 2.903900
56.640300 2.924300
56.702300 3.114800
56.764300 3.089500
56.826200 3.196000
56.888200 3.296100
56.950200 3.276500
57.012100 3.083300
57.074100 3.021100
57.136100 2.994700
57.198100 3.024000
57.260000 2.946300
57.322000 2.906000
57.384000 2.880500
57.445900 2.909900
57.507900 2.899300
57.569900 2.942800
57.631800 2.840100
57.693800 2.788100
57.755800 2.706600
57.817700 2.803500
57.879700 2.952300
57.941700 3.048000
58.003700 3.103900
58.065600 3.193600
58.127600 3.214200
58.189600 3.158600
58.251500 3.003800
58.313500 2.948700
58.375500 2.904000
58.437400 2.806400
58.499400 2.797900
58.561400 2.843200
58.623300 3.021800
58.685300 2.883500
58.747300 2.910500
58.809300 3.016000
58.871200 3.095400
58.933200 3.093900
58.995200 2.973500
59.057100 3.039900
59.119100 3.026500
59.181100 3.123700
59.243000 3.217200
59.305000 3.209900
59.367000 3.201900
59.428900 3.230300
59.490900 3.191400
59.552900 3.143800
59.614900 2.917000
59.676800 2.874900
59.738800 2.928100
59.800800 3.012200
59.862700 3.139400
59.924700 3.180500
59.986700 3.196900
60.048600 3.252700
60.110600 3.263500
60.172600 3.251200
60.234500 3.093200
60.296500 3.189500
60.358500 3.188600
60.420500 3.040100
60.482400 2.805200
60.544400 2.734100
60.606400 2.831000
60.668300 2.971400
60.730300 3.067900
60.792300 3.196500
60.854200 3.198700
60.916200 3.160000
60.978200 3.218700
61.040200 3.127700
61.102100 3.066600
61.164100 3.082800
61.226100 3.069400
61.288000 3.015600
61.350000 3.007100
61.412000 3.042100
61.473900 3.174300
61.535900 3.338700
61.597900 3.425800
61.659800 2.996600
61.721800 2.763700
61.783800 2.845200
61.845800 2.961200
61.907700 3.245700
61.969700 3.424400
62.031700 3.416500
62.093600 3.356800
62.155600 3.305800
62.217600 3.355900
62.279500 3.441800
62.341500 3.549700
62.403500 3.522300
62.465400 3.382600
62.527400 3.322200
62.589400 3.249900
62.651400 3.262400
62.713300 3.347400
62.775300 3.326100
62.837300 3.186400
62.899200 3.198600
62.961200 3.184300
63.023200 3.108800
63.085100 3.333700
63.147100 3.281400
63.209100 3.107500
63.271000 3.291400
63.333000 3.496000
63.395000 3.535700
63.457000 3.596000
63.518900 3.337900
63.580900 3.209800
63.642900 3.222500
63.704800 3.143600
63.766800 3.264000
63.828800 3.309400
63.890700 3.350900
63.952700 3.399700
64.014700 3.367000
64.076600 3.342300
64.138600 3.358300
64.200600 3.231700
64.262600 3.556700
64.324500 3.577900
64.386500 3.591300
64.448500 3.350000
64.510400 3.228900
64.572400 2.926300
64.634400 2.869100
64.696300 3.093300
64.758300 3.091700
64.820300 3.272100
64.882300 3.525800
64.944200 3.421500
65.006200 3.395400
65.068200 3.207100
65.130100 3.142900
65.192100 3.006400
65.254100 2.945500
65.316000 3.095300
65.378000 3.182500
65.440000 3.381800
65.501900 3.602400
65.563900 3.554500
65.625900 3.377000
65.687900 3.348000
65.749800 3.410000
65.811800 3.328500
65.873800 3.272900
65.935700 3.349400
65.997700 3.407900
66.059700 3.460000
66.121600 3.575000
66.183600 3.477700
66.245600 3.290100
66.307500 3.226600
66.369500 3.267500
66.431500 3.348200
66.493500 3.292500
66.555400 3.271500
66.617400 3.440500
66.679400 3.645300
66.741300 3.617500
66.803300 3.443600
66.865300 3.352500
66.927200 3.206600
66.989200 3.236700
67.051200 3.152600
67.113100 3.057300
67.175100 3.162500
67.237100 3.392500
67.299100 3.359900
67.361000 3.408500
67.423000 3.380000
67.485000 3.317100
67.546900 3.265400
67.608900 3.238600
67.670900 3.276200
67.732800 3.393700
67.794800 3.489600
67.856800 3.549900
67.918700 3.623300
67.980700 3.718100
68.042700 3.711100
68.104700 3.752100
68.166600 3.806700
68.228600 3.883800
68.290600 3.773900
68.352500 3.497800
68.414500 3.397300
68.476500 3.443400
68.538400 3.446200
68.600400 3.490200
68.662400 3.500700
68.724300 3.468600
68.786300 3.352900
68.848300 3.270800
68.910300 3.380600
68.972200 3.507400
69.034200 3.344900
69.096200 3.315000
69.158100 3.408600
69.220100 3.506000
69.282100 3.552300
69.344000 3.682100
69.406000 3.628400
69.468000 3.544700
69.530000 3.432100
69.591900 3.376900
69.653900 3.326600
69.715900 3.260300
69.777800 3.238300
69.839800 3.383300
69.901800 3.414600
69.963700 3.434500
70.025700 3.477900
70.087700 3.427700
70.149600 3.410500
70.211600 3.428200
70.273600 3.391000
70.335600 3.399100
70.397500 3.472100
70.459500 3.552700
70.521500 3.676400
70.583400 3.758600
70.645400 3.607500
70.707400 3.615200
70.769300 3.529300
70.831300 3.366100
70.893300 3.346000
70.955200 3.302600
71.017200 3.387400
71.079200 3.338600
71.141200 3.412700
71.203100 3.455300
71.265100 3.490200
71.327100 3.476800
71.389000 3.400000
71.451000 3.372200
71.513000 3.321800
71.574900 3.335200
71.636900 3.437200
71.698900 3.459600
71.760800 3.654300
71.822800 3.982600
71.884800 4.228500
71.946800 3.701100
72.008700 3.350800
72.070700 3.260300
72.132700 3.357000
72.194600 3.455900
72.256600 3.412000
72.318600 3.409800
72.380500 3.343000
72.442500 3.452700
72.504500 3.427900
72.566400 3.571700
72.628400 3.680900
72.690400 3.673900
72.752400 3.597000
72.814300 3.659300
72.876300 3.585700
72.938300 3.491200
73.000200 3.342400
73.062200 3.286200
73.124200 3.236200
73.186100 3.266400
73.248100 3.144800
73.310100 3.125100
73.372100 3.169900
73.434000 3.278900
73.496000 3.255900
73.558000 3.197700
73.619900 3.243800
73.681900 3.404000
73.743900 3.432800
73.805800 3.469600
73.867800 3.383900
73.929800 3.279000
73.991700 3.359200
74.053700 3.402700
74.115700 3.349500
74.177700 3.439600
74.239600 3.411500
74.301600 3.341200
74.363600 3.284200
74.425500 3.360800
74.487500 3.420500
74.549500 3.407400
74.611400 3.384000
74.673400 3.430100
74.735400 3.498900
74.797300 3.638000
74.859300 3.735700
74.921300 3.811200
74.983300 3.769800
75.045200 3.494400
75.107200 3.501400
75.169200 3.538300
75.231100 3.575100
75.293100 3.578400
75.355100 3.501300
75.417000 3.514700
75.479000 3.571200
75.541000 3.607300
75.602900 3.664700
75.664900 3.736200
75.726900 3.817400
75.788900 3.864800
75.850800 3.746100
75.912800 3.710100
75.974800 3.648400
76.036700 3.666400
76.098700 3.658200
76.160700 3.613200
76.222600 3.508700
76.284600 3.512100
76.346600 3.585400
76.408500 3.511200
76.470500 3.595800
76.532500 3.593600
76.594500 3.640100
76.656400 3.803000
76.718400 3.804800
76.780400 3.725100
76.842300 3.785400
76.904300 3.763700
76.966300 3.755300
77.028200 3.811400
77.090200 3.698900
77.152200 3.495300
77.214100 3.367300
77.276100 3.299300
77.338100 3.324600
77.400100 3.430200
77.462000 3.574800
77.524000 3.656300
77.586000 3.689500
77.647900 3.557500
77.709900 3.531700
77.771900 3.558200
77.833800 3.606100
77.895800 3.681600
77.957800 3.658300
78.019800 3.596100
78.081700 3.535500
78.143700 3.428000
78.205700 3.387100
78.267600 3.399300
78.329600 3.401600
78.391600 3.373200
78.453500 3.323500
78.515500 3.284100
78.577500 3.339800
78.639400 3.451600
78.701400 3.453900
78.763400 3.384600
78.825400 3.500300
78.887300 3.673200
78.949300 3.650100
79.011300 3.590300
79.073200 3.579500
79.135200 3.486300
79.197200 3.409500
79.259100 3.384700
79.321100 3.386300
79.383100 3.463600
79.445000 3.616100
79.507000 3.635800
79.569000 3.553600
79.631000 3.525600
79.692900 3.556500
79.754900 3.561300
79.816900 3.563700
79.878800 3.397500
79.940800 3.356000
80.002800 3.455600
80.064700 3.481100
80.126700 3.532000
80.188700 3.527600
80.250600 3.539900
80.312600 3.491800
80.374600 3.403400
80.436600 3.399200
80.498500 3.388700
80.560500 3.401600
80.622500 3.450800
80.684400 3.440900
80.746400 3.463700
80.808400 3.455200
80.870300 3.501900
80.932300 3.496100
80.994300 3.423600
81.056200 3.456700
81.118200 3.616100
81.180200 3.670700
81.242200 3.753700
81.304100 3.708600
81.366100 3.568400
81.428100 3.520800
81.490000 3.513800
81.552000 3.391300
81.614000 3.385900
81.675900 3.443700
81.737900 3.593600
81.799900 3.728700
81.861800 3.798900
81.923800 3.802800
81.985800 3.735100
82.047800 3.789000
82.109700 3.682300
82.171700 3.673000
82.233700 3.632600
82.295600 3.573800
82.357600 3.564500
82.419600 3.584400
82.481500 3.571700
82.543500 3.620300
82.605500 3.515500
82.667500 3.565800
82.729400 3.557500
82.791400 3.724600
82.853400 3.700900
82.915300 3.689700
82.977300 3.800200
83.039300 3.776700
83.101200 3.741400
83.163200 3.759400
83.225200 3.588900
83.287100 3.507100
83.349100 3.579900
83.411100 3.623200
83.473100 3.640800
83.535000 3.667500
83.597000 3.698600
83.659000 3.642700
83.720900 3.471000
83.782900 3.384800
83.844900 3.431900
83.906800 3.505700
83.968800 3.598500
84.030800 3.712000
84.092700 3.718900
84.154700 3.641800
84.216700 3.555400
84.278700 3.476000
84.340600 3.416200
84.402600 3.340500
84.464600 3.314800
84.526500 3.296000
84.588500 3.316200
84.650500 3.431100
84.712400 3.620000
84.774400 3.648400
84.836400 3.813900
84.898300 3.744800
84.960300 3.711600
85.022300 3.765800
85.084300 3.879200
85.146200 3.975800
85.208200 3.911000
85.270200 3.769500
85.332100 3.708700
85.394100 3.495200
85.456100 3.431000
85.518000 3.536200
85.580000 3.569400
85.642000 3.677300
85.703900 3.766700
85.765900 3.720700
85.827900 3.688300
85.889900 3.586200
85.951800 3.583600
86.013800 3.722300
86.075800 3.745600
86.137700 3.767700
86.199700 3.833800
86.261700 3.725000
86.323600 3.553600
86.385600 3.578100
86.447600 3.792600
86.509600 3.957000
86.571500 3.919000
86.633500 3.825600
86.695500 3.725100
86.757400 3.650500
86.819400 3.645600
86.881400 3.714200
86.943300 3.731100
87.005300 3.752000
87.067300 3.730400
87.129200 3.703100
87.191200 3.790200
87.253200 3.856800
87.315200 3.743000
87.377100 3.619800
87.439100 3.826200
87.501100 3.976200
87.563000 3.981800
87.625000 3.986900
87.687000 3.917400
87.748900 3.811600
87.810900 3.688700
87.872900 3.644900
87.934800 3.451400
87.996800 3.354000
88.058800 3.295300
88.120800 3.309000
88.182700 3.335400
88.244700 3.483800
88.306700 3.511700
88.368600 3.465000
88.430600 3.175400
88.492600 3.058000
88.554500 2.871300
88.616500 2.759300
88.678500 2.750900
88.740400 2.651300
88.802400 2.520000
88.864400 2.369600
88.926400 2.225100
88.988300 2.038800
89.050300 1.863600
89.112300 1.747900
89.174200 1.700000
89.236200 1.625100
89.298200 1.413000
89.360100 1.237800
89.422100 1.055500
89.484100 0.966000
89.546000 0.896900
89.608000 0.779500
89.670000 0.773000
89.732000 0.651700
89.793900 0.520000
89.855900 0.412800
89.917900 0.333700
89.979800 0.270400
90.041800 0.196900
90.103800 0.147300
90.165700 0.056700
90.227700 0.041300
90.289700 0.025100
90.351600 0.009400
90.413600 0.000100
90.475600 0.000000
90.537600 0.000000
90.599500 0.000000
90.661500 0.000000
90.723500 0.000000
90.785400 0.000000
90.847400 0.000000
90.909400 0.000000
90.971300 0.000000
91.033300 0.000000
91.095300 0.000000
91.157300 0.000000
91.219200 0.000000
91.281200 0.000000
91.343200 0.000000
91.405100 0.000000
91.467100 0.000000
91.529100 0.000000
91.591000 0.000000
91.653000 0.000000
91.715000 0.000000
91.776900 0.000000
91.838900 0.000000
91.900900 0.000000
91.962900 0.000000
92.024800 0.000000
92.086800 0.000000
92.148800 0.000000
92.210700 0.000000
92.272700 0.000000
92.334700 0.000000
92.396600 0.000000
92.458600 0.000000
92.520600 0.000000
92.582500 0.000000
92.644500 0.000000
92.706500 0.000000
92.768500 0.000000
92.830400 0.000000
92.892400 0.000000
92.954400 0.000000
93.016300 0.000000
93.078300 0.000000
93.140300 0.000000
93.202200 0.000000
93.264200 0.000000
93.326200 0.000000
93.388100 0.000000
93.450100 0.000000
93.512100 0.000000
93.574100 0.000000
93.636000 0.000000
93.698000 0.000000
93.760000 0.000000
93.821900 0.000000
93.883900 0.000000
93.945900 0.000000
94.007800 0.000000
94.069800 0.000000
94.131800 0.000000
94.193700 0.000000
94.255700 0.000000
94.317700 0.000000
94.379700 0.000000
94.441600 0.000000
94.503600 0.000000
94.565600 0.000000
94.627500 0.000000
94.689500 0.000000
94.751500 0.000000
94.813400 0.000000
94.875400 0.000000
94.937400 0.000000
94.999400 0.000000
95.061300 0.000000
95.123300 0.000000
95.185300 0.000000
95.247200 0.000000
95.309200 0.000000
95.371200 0.000000
95.433100 0.000000
95.495100 0.000000
95.557100 0.000000
95.619000 0.000000
95.681000 0.000000
95.743000 0.000000
95.805000 0.000000
95.866900 0.000000
95.928900 0.000000
95.990900 0.000000
96.052800 0.000000
e
