set title 'mp-1216527 - Density of States'
set xlabel 'Energy (eV)'
set ylabel 'DOS (states/eV)'
set grid
set xrange [-10:10]
set yrange [0:64.295]
set xzeroaxis lt -1
set terminal png size 800,600
set output 'mp-1216527_dos_gnuplot.png'
plot '-' using 1:2 with lines title 'DOS'
-10.763300 0.000000
-10.735400 0.000000
-10.707500 0.000000
-10.679600 0.000000
-10.651700 0.000000
-10.623800 0.000000
-10.595900 0.000000
-10.568000 0.000000
-10.540100 0.000000
-10.512200 0.000000
-10.484300 0.000000
-10.456400 0.000000
-10.428400 0.000000
-10.400500 0.000000
-10.372600 0.000000
-10.344700 0.000000
-10.316800 0.000000
-10.288900 0.000000
-10.261000 0.000000
-10.233100 0.000000
-10.205200 0.000000
-10.177300 0.000000
-10.149400 0.000000
-10.121400 0.000000
-10.093500 0.000000
-10.065600 0.000000
-10.037700 0.000000
-10.009800 0.000000
-9.981900 0.000000
-9.954000 0.000000
-9.926100 0.000000
-9.898200 0.000000
-9.870300 0.000000
-9.842400 0.000000
-9.814400 0.000000
-9.786500 0.000000
-9.758600 0.000000
-9.730700 0.000000
-9.702800 0.000000
-9.674900 0.000000
-9.647000 0.000000
-9.619100 0.000000
-9.591200 0.000000
-9.563300 0.000000
-9.535400 0.000000
-9.507400 0.000000
-9.479500 0.000000
-9.451600 0.000000
-9.423700 0.000000
-9.395800 0.000000
-9.367900 0.000000
-9.340000 0.000000
-9.312100 0.000000
-9.284200 0.000000
-9.256300 0.000000
-9.228400 0.000000
-9.200500 0.000000
-9.172500 0.000000
-9.144600 0.000000
-9.116700 0.000000
-9.088800 0.000000
-9.060900 0.000000
-9.033000 0.000000
-9.005100 0.000000
-8.977200 0.000000
-8.949300 0.000000
-8.921400 0.000000
-8.893500 0.000000
-8.865500 0.000000
-8.837600 0.000000
-8.809700 0.000000
-8.781800 0.000000
-8.753900 0.000000
-8.726000 0.000000
-8.698100 0.000000
-8.670200 0.000000
-8.642300 0.000000
-8.614400 0.000000
-8.586500 0.000000
-8.558500 0.000000
-8.530600 0.000000
-8.502700 0.000000
-8.474800 0.000000
-8.446900 0.000000
-8.419000 0.000000
-8.391100 0.000000
-8.363200 0.000000
-8.335300 0.000000
-8.307400 0.000000
-8.279500 0.000000
-8.251500 0.000000
-8.223600 1.545800
-8.195700 15.102300
-8.167800 33.980400
-8.139900 32.188700
-8.112000 58.449600
-8.084100 24.172400
-8.056200 34.249800
-8.028300 32.369800
-8.000400 9.254600
-7.972500 17.863700
-7.944500 16.523200
-7.916600 8.270300
-7.888700 0.000000
-7.860800 0.000000
-7.832900 0.000000
-7.805000 0.000000
-7.777100 0.000000
-7.749200 0.000000
-7.721300 0.000000
-7.693400 0.000000
-7.665500 0.000000
-7.637600 0.000000
-7.609600 0.000000
-7.581700 0.000000
-7.553800 0.000000
-7.525900 0.000000
-7.498000 0.000000
-7.470100 0.000000
-7.442200 0.000000
-7.414300 0.000000
-7.386400 0.000000
-7.358500 0.000000
-7.330600 0.000000
-7.302600 0.000000
-7.274700 0.000000
-7.246800 0.000000
-7.218900 0.000000
-7.191000 0.000000
-7.163100 0.000000
-7.135200 0.000000
-7.107300 0.000000
-7.079400 0.000000
-7.051500 0.000000
-7.023600 0.000000
-6.995600 0.000000
-6.967700 0.000000
-6.939800 0.000000
-6.911900 0.000000
-6.884000 0.000000
-6.856100 0.000000
-6.828200 0.000000
-6.800300 0.000000
-6.772400 0.000000
-6.744500 0.000000
-6.716600 0.000000
-6.688600 0.000000
-6.660700 0.000000
-6.632800 0.000000
-6.604900 0.000000
-6.577000 0.000000
-6.549100 0.000000
-6.521200 0.000000
-6.493300 0.000000
-6.465400 0.000000
-6.437500 0.000000
-6.409600 0.000000
-6.381700 0.000000
-6.353700 0.000000
-6.325800 0.000000
-6.297900 0.000000
-6.270000 0.000000
-6.242100 0.000000
-6.214200 0.000000
-6.186300 0.000000
-6.158400 0.000000
-6.130500 0.000000
-6.102600 0.000000
-6.074700 0.000000
-6.046700 0.000000
-6.018800 0.000000
-5.990900 0.000000
-5.963000 0.000000
-5.935100 0.000000
-5.907200 0.000000
-5.879300 0.000000
-5.851400 0.000000
-5.823500 0.000000
-5.795600 0.000000
-5.767700 0.000000
-5.739700 0.000000
-5.711800 0.000000
-5.683900 0.000000
-5.656000 0.000000
-5.628100 0.000000
-5.600200 0.000000
-5.572300 0.000000
-5.544400 0.000000
-5.516500 0.000000
-5.488600 0.000000
-5.460700 0.000000
-5.432700 0.000000
-5.404800 0.000000
-5.376900 0.000000
-5.349000 1.838000
-5.321100 7.293100
-5.293200 6.632400
-5.265300 7.569100
-5.237400 11.217200
-5.209500 17.460700
-5.181600 8.784300
-5.153700 10.694300
-5.125800 24.133700
-5.097800 31.756300
-5.069900 13.903200
-5.042000 3.992800
-5.014100 18.794300
-4.986200 15.406700
-4.958300 14.413200
-4.930400 47.974900
-4.902500 23.729300
-4.874600 32.710500
-4.846700 9.378900
-4.818800 9.126100
-4.790800 16.200700
-4.762900 7.827900
-4.735000 6.010200
-4.707100 5.432100
-4.679200 0.000000
-4.651300 0.000000
-4.623400 0.000000
-4.595500 0.000000
-4.567600 0.000000
-4.539700 0.000000
-4.511800 0.000000
-4.483800 0.000000
-4.455900 0.000000
-4.428000 0.000000
-4.400100 0.000000
-4.372200 0.000000
-4.344300 0.000000
-4.316400 0.000000
-4.288500 0.000000
-4.260600 0.000000
-4.232700 0.000000
-4.204800 0.000000
-4.176800 0.000000
-4.148900 0.000000
-4.121000 0.000000
-4.093100 0.000000
-4.065200 0.000000
-4.037300 0.000000
-4.009400 0.000000
-3.981500 0.000000
-3.953600 0.000000
-3.925700 0.000000
-3.897800 0.000000
-3.869800 0.000000
-3.841900 0.000000
-3.814000 0.000000
-3.786100 0.000000
-3.758200 0.000000
-3.730300 0.000000
-3.702400 0.000000
-3.674500 0.000000
-3.646600 0.000000
-3.618700 0.000000
-3.590800 0.000000
-3.562900 0.000000
-3.534900 0.000000
-3.507000 0.000000
-3.479100 0.000000
-3.451200 0.000000
-3.423300 0.000000
-3.395400 0.000000
-3.367500 0.000000
-3.339600 0.000000
-3.311700 0.000000
-3.283800 0.000000
-3.255900 0.000000
-3.227900 0.000000
-3.200000 0.000000
-3.172100 0.000000
-3.144200 0.000000
-3.116300 0.000000
-3.088400 0.000000
-3.060500 0.000000
-3.032600 0.000000
-3.004700 0.000000
-2.976800 0.017700
-2.948900 0.045800
-2.920900 0.082800
-2.893000 0.122800
-2.865100 0.124400
-2.837200 0.129600
-2.809300 0.142300
-2.781400 0.154900
-2.753500 0.164000
-2.725600 0.174500
-2.697700 0.186400
-2.669800 0.198600
-2.641900 0.211100
-2.613900 0.222900
-2.586000 0.230600
-2.558100 0.236100
-2.530200 0.241100
-2.502300 0.245700
-2.474400 0.251400
-2.446500 0.258100
-2.418600 0.265000
-2.390700 0.272300
-2.362800 0.279900
-2.334900 0.287500
-2.307000 0.295300
-2.279000 0.303500
-2.251100 0.311800
-2.223200 0.320200
-2.195300 0.328900
-2.167400 0.337900
-2.139500 0.347200
-2.111600 0.358100
-2.083700 0.375300
-2.055800 0.390200
-2.027900 0.399700
-2.000000 0.401200
-1.972000 0.394800
-1.944100 0.386600
-1.916200 0.388500
-1.888300 0.390000
-1.860400 0.391200
-1.832500 0.392200
-1.804600 0.393200
-1.776700 0.394100
-1.748800 0.394700
-1.720900 0.393300
-1.693000 0.391200
-1.665000 0.389200
-1.637100 0.388200
-1.609200 0.388300
-1.581300 0.389400
-1.553400 0.391000
-1.525500 0.392700
-1.497600 0.394300
-1.469700 0.395800
-1.441800 0.396800
-1.413900 0.397200
-1.386000 0.397000
-1.358000 0.396600
-1.330100 0.395800
-1.302200 0.395000
-1.274300 0.394100
-1.246400 0.392800
-1.218500 0.391200
-1.190600 0.390200
-1.162700 0.390200
-1.134800 0.390300
-1.106900 0.390400
-1.079000 0.390500
-1.051100 0.390700
-1.023100 0.414900
-0.995200 0.428100
-0.967300 0.430500
-0.939400 0.435900
-0.911500 0.441800
-0.883600 0.447900
-0.855700 0.454400
-0.827800 0.461200
-0.799900 0.468100
-0.772000 0.474400
-0.744100 0.479900
-0.716100 0.484900
-0.688200 0.489100
-0.660300 0.493800
-0.632400 0.497500
-0.604500 0.501000
-0.576600 0.504400
-0.548700 0.507100
-0.520800 0.510300
-0.492900 0.513900
-0.465000 0.517900
-0.437100 0.522100
-0.409100 0.526600
-0.381200 0.531100
-0.353300 0.535600
-0.325400 0.539700
-0.297500 0.543500
-0.269600 0.547700
-0.241700 0.552000
-0.213800 0.556500
-0.185900 0.561000
-0.158000 0.565100
-0.130100 0.569200
-0.102100 0.573400
-0.074200 0.577700
-0.046300 0.582000
-0.018400 0.586300
0.009500 0.590700
0.037400 0.595100
0.065300 0.599500
0.093200 0.604100
0.121100 0.608600
0.149000 0.613300
0.176900 0.618100
0.204900 0.622900
0.232800 0.627500
0.260700 0.632200
0.288600 0.637000
0.316500 0.642000
0.344400 0.647300
0.372300 0.652600
0.400200 0.658000
0.428100 0.663700
0.456000 0.669800
0.483900 0.676100
0.511800 0.682700
0.539800 0.689300
0.567700 0.696300
0.595600 0.703700
0.623500 0.711300
0.651400 0.719200
0.679300 0.727500
0.707200 0.736100
0.735100 0.745000
0.763000 0.754300
0.790900 0.764000
0.818800 0.774100
0.846800 0.784800
0.874700 0.797600
0.902600 0.815500
0.930500 0.838000
0.958400 0.872400
0.986300 0.912400
1.014200 0.945300
1.042100 0.971200
1.070000 0.990300
1.097900 1.004300
1.125800 1.015600
1.153800 1.026400
1.181700 1.038800
1.209600 1.051400
1.237500 1.058700
1.265400 1.061500
1.293300 1.062500
1.321200 1.043700
1.349100 1.009000
1.377000 0.936000
1.404900 0.856400
1.432800 0.825300
1.460800 0.802800
1.488700 0.825300
1.516600 0.939500
1.544500 0.879400
1.572400 0.829200
1.600300 0.796500
1.628200 0.779100
1.656100 0.785400
1.684000 0.796100
1.711900 0.792600
1.739800 0.774400
1.767700 0.742800
1.795700 0.719800
1.823600 0.710400
1.851500 0.701000
1.879400 0.708200
1.907300 0.694400
1.935200 0.655600
1.963100 0.613800
1.991000 0.574900
2.018900 0.543300
2.046800 0.509800
2.074700 0.489100
2.102700 0.489300
2.130600 0.490600
2.158500 0.493100
2.186400 0.496800
2.214300 0.503700
2.242200 0.514500
2.270100 0.528600
2.298000 0.552600
2.325900 0.588300
2.353800 0.627600
2.381700 0.663500
2.409700 0.695900
2.437600 0.721700
2.465500 0.719500
2.493400 0.702300
2.521300 0.713800
2.549200 0.752400
2.577100 0.848200
2.605000 0.781100
2.632900 0.787700
2.660800 0.785000
2.688700 0.774000
2.716700 0.761700
2.744600 0.752500
2.772500 0.747400
2.800400 0.746300
2.828300 0.747200
2.856200 0.748100
2.884100 0.749400
2.912000 0.751100
2.939900 0.753600
2.967800 0.756700
2.995700 0.758100
3.023600 0.758600
3.051600 0.759200
3.079500 0.759700
3.107400 0.762600
3.135300 0.780000
3.163200 0.797200
3.191100 0.818100
3.219000 0.837600
3.246900 0.857800
3.274800 0.886200
3.302700 0.935100
3.330600 0.985300
3.358600 1.027600
3.386500 1.070700
3.414400 1.115400
3.442300 1.164300
3.470200 1.224800
3.498100 1.139400
3.526000 1.107900
3.553900 1.037900
3.581800 0.894100
3.609700 0.723600
3.637600 0.619300
3.665600 0.495600
3.693500 0.348600
3.721400 0.248900
3.749300 0.158400
3.777200 0.105800
3.805100 0.083900
3.833000 0.092500
3.860900 0.114000
3.888800 0.132700
3.916700 0.150800
3.944600 0.170300
3.972600 0.191200
4.000500 0.300500
4.028400 0.248400
4.056300 0.258600
4.084200 0.269000
4.112100 0.275900
4.140000 0.278800
4.167900 0.280500
4.195800 0.283000
4.223700 0.287400
4.251600 0.293000
4.279600 0.302100
4.307500 0.312700
4.335400 0.322500
4.363300 0.331400
4.391200 0.339500
4.419100 0.347800
4.447000 0.357000
4.474900 0.367100
4.502800 0.378200
4.530700 0.392000
4.558600 0.408200
4.586500 0.425800
4.614500 0.444900
4.642400 0.465500
4.670300 0.476500
4.698200 0.474300
4.726100 0.490800
4.754000 0.514100
4.781900 0.534400
4.809800 0.557800
4.837700 0.581900
4.865600 0.604400
4.893500 0.625200
4.921500 0.644300
4.949400 0.662800
4.977300 0.683700
5.005200 0.705600
5.033100 0.728100
5.061000 0.751000
5.088900 0.773900
5.116800 0.795800
5.144700 0.816700
5.172600 0.866700
5.200500 0.860800
5.228500 0.857600
5.256400 0.870500
5.284300 0.883000
5.312200 0.897300
5.340100 0.913500
5.368000 0.931600
5.395900 0.952100
5.423800 0.974000
5.451700 0.998600
5.479600 1.028000
5.507500 1.063900
5.535500 1.107800
5.563400 1.222700
5.591300 1.232700
5.619200 1.290100
5.647100 1.316300
5.675000 1.323600
5.702900 1.345000
5.730800 1.362500
5.758700 1.350900
5.786600 1.336900
5.814500 1.327400
5.842400 1.326000
5.870400 1.335100
5.898300 1.339800
5.926200 1.336400
5.954100 1.302500
5.982000 1.259000
6.009900 1.225900
6.037800 1.208000
6.065700 1.198400
6.093600 1.191900
6.121500 1.184300
6.149400 1.184600
6.177400 1.187000
6.205300 1.174000
6.233200 1.154700
6.261100 1.122400
6.289000 1.074500
6.316900 1.030500
6.344800 0.990500
6.372700 0.943800
6.400600 0.912200
6.428500 0.889900
6.456400 0.872200
6.484400 0.861200
6.512300 0.860700
6.540200 0.862400
6.568100 0.869300
6.596000 0.882200
6.623900 0.974500
6.651800 0.923300
6.679700 0.918500
6.707600 0.905600
6.735500 0.897800
6.763400 0.897000
6.791400 0.914100
6.819300 0.952400
6.847200 0.947400
6.875100 0.951800
6.903000 0.969700
6.930900 0.982600
6.958800 0.990300
6.986700 0.993500
7.014600 0.992800
7.042500 0.993600
7.070400 0.994700
7.098300 0.998400
7.126300 1.004700
7.154200 1.000300
7.182100 0.982000
7.210000 0.959800
7.237900 0.940600
7.265800 0.923500
7.293700 0.922600
7.321600 0.919500
7.349500 0.914500
7.377400 0.913300
7.405300 0.919900
7.433300 0.927700
7.461200 0.935600
7.489100 0.942400
7.517000 0.948700
7.544900 0.954900
7.572800 0.960100
7.600700 0.963200
7.628600 0.962200
7.656500 0.966500
7.684400 0.971600
7.712300 0.976600
7.740300 0.986300
7.768200 0.997400
7.796100 1.008200
7.824000 1.018000
7.851900 1.032000
7.879800 1.044800
7.907700 1.054600
7.935600 1.060500
7.963500 1.060100
7.991400 1.058600
8.019300 1.056900
8.047300 1.055000
8.075200 1.055900
8.103100 1.057900
8.131000 1.056000
8.158900 1.052400
8.186800 1.049100
8.214700 1.055200
8.242600 1.050900
8.270500 1.046700
8.298400 1.044500
8.326300 1.042900
8.354200 1.041700
8.382200 1.041100
8.410100 1.040600
8.438000 1.042900
8.465900 1.044800
8.493800 1.045900
8.521700 1.047000
8.549600 1.048200
8.577500 1.049400
8.605400 1.050600
8.633300 1.051900
8.661200 1.053700
8.689200 1.061000
8.717100 1.068900
8.745000 1.076600
8.772900 1.083100
8.800800 1.089600
8.828700 1.096600
8.856600 1.104500
8.884500 1.112100
8.912400 1.117300
8.940300 1.121800
8.968200 1.130600
8.996200 1.143200
9.024100 1.156200
9.052000 1.159100
9.079900 1.160300
9.107800 1.161200
9.135700 1.163500
9.163600 1.164700
9.191500 1.166000
9.219400 1.167300
9.247300 1.182200
9.275200 1.189000
9.303200 1.185700
9.331100 1.172700
9.359000 1.157100
9.386900 1.147500
9.414800 1.150800
9.442700 1.150700
9.470600 1.152400
9.498500 1.153200
9.526400 1.154800
9.554300 1.158300
9.582200 1.164100
9.610200 1.173800
9.638100 1.187800
9.666000 1.204700
9.693900 1.219300
9.721800 1.230500
9.749700 1.238300
9.777600 1.244300
9.805500 1.252100
9.833400 1.260500
9.861300 1.269900
9.889200 1.281500
9.917100 1.295900
9.945100 1.317100
9.973000 1.380400
10.000900 1.377100
10.028800 1.420000
10.056700 1.458300
10.084600 1.493300
10.112500 1.510600
10.140400 1.523700
10.168300 1.649900
10.196200 1.506400
10.224100 1.510200
10.252100 1.522100
10.280000 1.546100
10.307900 1.603800
10.335800 1.636700
10.363700 1.626500
10.391600 1.608200
10.419500 1.649000
10.447400 1.638100
10.475300 1.633800
10.503200 1.622300
10.531100 1.603000
10.559100 1.581500
10.587000 1.552200
10.614900 1.485100
10.642800 1.467400
10.670700 1.448400
10.698600 1.427700
10.726500 1.405200
10.754400 1.384400
10.782300 1.363500
10.810200 1.342200
10.838100 1.316700
10.866100 1.293200
10.894000 1.282800
10.921900 1.278900
10.949800 1.295700
10.977700 1.336100
11.005600 1.383800
11.033500 1.372400
11.061400 1.304500
11.089300 1.291000
11.117200 1.291200
11.145100 1.292600
11.173000 1.297100
11.201000 1.317000
11.228900 1.346900
11.256800 1.387000
11.284700 1.383700
11.312600 1.374400
11.340500 1.377700
11.368400 1.352400
11.396300 1.335300
11.424200 1.326300
11.452100 1.315500
11.480000 1.312700
11.508000 1.316600
11.535900 1.317400
11.563800 1.315900
11.591700 1.384400
11.619600 1.330000
11.647500 1.348200
11.675400 1.368600
11.703300 1.403000
11.731200 1.427500
11.759100 1.392400
11.787000 1.335000
11.815000 1.300600
11.842900 1.294400
11.870800 1.288600
11.898700 1.283100
11.926600 1.277600
11.954500 1.272100
11.982400 1.268300
12.010300 1.275800
12.038200 1.268500
12.066100 1.268200
12.094000 1.265500
12.122000 1.260300
12.149900 1.252100
12.177800 1.248500
12.205700 1.245500
12.233600 1.240700
12.261500 1.234100
12.289400 1.225500
12.317300 1.215300
12.345200 1.206100
12.373100 1.198800
12.401000 1.196200
12.428900 1.193400
12.456900 1.190300
12.484800 1.187000
12.512700 1.180500
12.540600 1.175400
12.568500 1.172200
12.596400 1.169700
12.624300 1.166700
12.652200 1.163300
12.680100 1.159300
12.708000 1.155000
12.735900 1.150200
12.763900 1.145100
12.791800 1.140200
12.819700 1.134300
12.847600 1.128100
12.875500 1.121800
12.903400 1.115400
12.931300 1.109000
12.959200 1.103200
12.987100 1.099100
13.015000 1.095500
13.042900 1.093600
13.070900 1.089200
13.098800 1.086300
13.126700 1.084300
13.154600 1.082900
13.182500 1.082100
13.210400 1.082000
13.238300 1.082100
13.266200 1.082700
13.294100 1.083400
13.322000 1.084000
13.349900 1.081500
13.377900 1.080000
13.405800 1.080700
13.433700 1.085400
13.461600 1.097400
13.489500 1.126600
13.517400 1.138500
13.545300 1.116600
13.573200 1.102500
13.601100 1.090200
13.629000 1.071600
13.656900 1.039300
13.684900 1.024800
13.712800 1.015800
13.740700 1.012400
13.768600 1.016500
13.796500 1.023900
13.824400 1.064500
13.852300 1.028500
13.880200 0.992500
13.908100 0.967500
13.936000 0.950200
13.963900 0.936700
13.991800 0.927700
14.019800 0.923000
14.047700 0.924600
14.075600 0.929300
14.103500 0.954900
14.131400 0.988300
14.159300 1.025600
14.187200 1.065500
14.215100 1.103400
14.243000 1.136800
14.270900 1.166000
14.298800 1.188400
14.326800 1.263500
14.354700 1.263800
14.382600 1.177200
14.410500 1.150500
14.438400 1.140100
14.466300 1.132700
14.494200 1.137200
14.522100 1.154500
14.550000 1.163600
14.577900 1.169600
14.605800 1.193400
14.633800 1.217200
14.661700 1.239400
14.689600 1.257100
14.717500 1.274800
14.745400 1.290900
14.773300 1.306500
14.801200 1.321400
14.829100 1.335800
14.857000 1.346700
14.884900 1.354100
14.912800 1.358300
14.940800 1.362000
14.968700 1.362700
14.996600 1.362800
15.024500 1.362100
15.052400 1.361500
15.080300 1.359200
15.108200 1.356200
15.136100 1.351800
15.164000 1.350700
15.191900 1.364500
15.219800 1.385300
15.247700 1.411600
15.275700 1.441800
15.303600 1.473800
15.331500 1.511200
15.359400 1.550500
15.387300 1.577100
15.415200 1.597700
15.443100 1.621400
15.471000 1.649800
15.498900 1.685700
15.526800 1.714700
15.554700 1.717200
15.582700 1.716400
15.610600 1.714000
15.638500 1.712500
15.666400 1.713400
15.694300 1.715400
15.722200 1.717700
15.750100 1.719400
15.778000 1.717600
15.805900 1.708500
15.833800 1.701600
15.861700 1.696300
15.889700 1.690700
15.917600 1.686400
15.945500 1.683700
15.973400 1.743200
16.001300 1.714800
16.029200 1.731200
16.057100 1.770800
16.085000 1.800000
16.112900 1.827600
16.140800 1.726300
16.168700 1.703000
16.196700 1.672500
16.224600 1.636200
16.252500 1.597500
16.280400 1.611200
16.308300 1.701400
16.336200 1.828700
16.364100 1.922200
16.392000 1.920700
16.419900 1.917700
16.447800 1.904300
16.475700 1.861100
16.503600 1.805600
16.531600 1.778700
16.559500 1.766400
16.587400 1.760000
16.615300 1.755900
16.643200 1.764400
16.671100 1.771400
16.699000 1.778500
16.726900 1.787800
16.754800 1.797500
16.782700 1.796800
16.810600 1.795500
16.838600 1.804700
16.866500 1.820000
16.894400 1.829400
16.922300 1.818400
16.950200 1.804400
16.978100 1.781700
17.006000 1.765200
17.033900 1.768800
17.061800 1.766000
17.089700 1.757800
17.117600 1.747800
17.145600 1.753000
17.173500 1.776000
17.201400 1.796800
17.229300 1.802700
17.257200 1.781500
17.285100 1.780300
17.313000 1.789700
17.340900 1.753400
17.368800 1.683900
17.396700 1.619700
17.424600 1.542800
17.452600 1.491100
17.480500 1.458300
17.508400 1.433000
17.536300 1.395300
17.564200 1.375500
17.592100 1.359300
17.620000 1.353000
17.647900 1.342500
17.675800 1.316000
17.703700 1.284500
17.731600 1.280800
17.759600 1.275100
17.787500 1.212200
17.815400 1.108700
17.843300 1.003400
17.871200 0.915200
17.899100 0.865000
17.927000 0.822900
17.954900 0.786400
17.982800 0.752400
18.010700 0.721400
18.038600 0.694500
18.066500 0.670800
18.094500 0.690200
18.122400 0.612400
18.150300 0.608300
18.178200 0.605800
18.206100 0.604700
18.234000 0.605100
18.261900 0.607300
18.289800 0.611500
18.317700 0.617300
18.345600 0.624200
18.373500 0.631700
18.401500 0.639800
18.429400 0.648900
18.457300 0.658300
18.485200 0.668100
18.513100 0.678300
18.541000 0.686600
18.568900 0.693000
18.596800 0.702700
18.624700 0.716000
18.652600 0.732800
18.680500 0.752500
18.708500 0.776200
18.736400 0.803700
18.764300 0.859900
18.792200 0.929100
18.820100 1.013600
18.848000 1.070600
18.875900 1.056400
18.903800 1.084700
18.931700 1.099200
18.959600 1.175600
18.987500 1.262000
19.015500 1.330900
19.043400 1.392000
19.071300 1.519000
19.099200 1.607100
19.127100 1.685700
19.155000 1.753600
19.182900 1.805100
19.210800 1.856400
19.238700 1.921800
19.266600 1.970600
19.294500 2.095200
19.322400 2.117900
19.350400 2.153600
19.378300 2.145500
19.406200 2.126300
19.434100 2.123500
19.462000 2.162800
19.489900 2.268500
19.517800 2.427800
19.545700 2.415900
19.573600 2.265100
19.601500 2.201400
19.629400 2.155700
19.657400 2.111900
19.685300 2.065500
19.713200 2.015700
19.741100 1.950100
19.769000 1.879200
19.796900 1.811400
19.824800 1.822000
19.852700 1.688300
19.880600 1.616600
19.908500 1.561200
19.936400 1.523500
19.964400 1.498000
19.992300 1.480200
20.020200 1.468500
20.048100 1.461400
20.076000 1.463900
20.103900 1.476800
20.131800 1.503600
20.159700 1.538300
20.187600 1.576700
20.215500 1.580100
20.243400 1.509600
20.271400 1.505000
20.299300 1.504600
20.327200 1.501200
20.355100 1.527400
20.383000 1.589200
20.410900 1.630200
20.438800 1.636600
20.466700 1.644100
20.494600 1.670300
20.522500 1.708600
20.550400 1.759100
20.578300 1.813700
20.606300 1.862900
20.634200 1.899700
20.662100 1.926100
20.690000 1.930400
20.717900 1.897300
20.745800 1.848400
20.773700 1.806500
20.801600 1.774600
20.829500 1.759500
20.857400 1.773300
20.885300 1.788300
20.913300 1.813100
20.941200 1.814900
20.969100 1.830100
20.997000 1.804900
21.024900 1.792500
21.052800 1.790900
21.080700 1.790600
21.108600 1.780200
21.136500 1.767700
21.164400 1.766600
21.192300 1.874700
21.220300 1.950000
21.248200 2.028700
21.276100 2.050800
21.304000 2.041000
21.331900 2.017000
21.359800 1.996600
21.387700 1.978000
21.415600 1.970500
21.443500 1.983300
21.471400 2.015200
21.499300 2.002100
21.527300 1.991500
21.555200 2.034600
21.583100 2.032800
21.611000 2.086700
21.638900 2.107400
21.666800 2.102300
21.694700 2.101500
21.722600 2.112500
21.750500 2.123200
21.778400 2.142500
21.806300 2.181000
21.834200 2.283600
21.862200 2.247300
21.890100 2.282700
21.918000 2.316800
21.945900 2.354700
21.973800 2.398100
22.001700 2.451200
22.029600 2.455100
22.057500 2.459900
22.085400 2.497900
22.113300 2.571500
22.141200 2.602500
22.169200 2.604600
22.197100 2.508900
22.225000 2.423900
22.252900 2.417500
22.280800 2.418700
22.308700 2.350600
22.336600 2.320300
22.364500 2.297300
22.392400 2.302200
22.420300 2.322500
22.448200 2.346700
22.476200 2.362500
22.504100 2.342400
22.532000 2.326000
22.559900 2.297700
22.587800 2.257400
22.615700 2.223000
22.643600 2.196800
22.671500 2.180700
22.699400 2.181200
22.727300 2.137000
22.755200 2.147500
22.783200 2.168800
22.811100 2.211500
22.839000 2.255900
22.866900 2.282900
22.894800 2.305800
22.922700 2.330300
22.950600 2.362600
22.978500 2.427200
23.006400 2.490600
23.034300 2.549000
23.062200 2.581100
23.090200 2.532900
23.118100 2.439500
23.146000 2.422600
23.173900 2.401000
23.201800 2.379300
23.229700 2.358000
23.257600 2.325500
23.285500 2.337600
23.313400 2.293700
23.341300 2.248800
23.369200 2.222500
23.397100 2.236700
23.425100 2.234200
23.453000 2.279900
23.480900 2.221900
23.508800 2.195100
23.536700 2.168800
23.564600 2.143800
23.592500 2.125800
23.620400 2.118800
23.648300 2.112600
23.676200 2.131200
23.704100 2.162500
23.732100 2.198100
23.760000 2.240700
23.787900 2.224900
23.815800 2.201000
23.843700 2.200100
23.871600 2.210300
23.899500 2.215700
23.927400 2.231900
23.955300 2.163000
23.983200 2.157500
24.011100 2.159600
24.039100 2.168400
24.067000 2.179600
24.094900 2.202600
24.122800 2.233200
24.150700 2.252000
24.178600 2.253600
24.206500 2.250400
24.234400 2.248800
24.262300 2.244100
24.290200 2.230800
24.318100 2.218000
24.346100 2.207000
24.374000 2.201100
24.401900 2.207100
24.429800 2.216100
24.457700 2.227600
24.485600 2.256600
24.513500 2.304400
24.541400 2.369000
24.569300 2.447100
24.597200 2.495900
24.625100 2.506100
24.653000 2.487100
24.681000 2.489800
24.708900 2.502300
24.736800 2.463900
24.764700 2.400800
24.792600 2.334900
24.820500 2.300600
24.848400 2.286000
24.876300 2.268700
24.904200 2.259900
24.932100 2.252500
24.960000 2.252100
24.988000 2.340300
25.015900 2.362800
25.043800 2.250900
25.071700 2.265100
25.099600 2.296000
25.127500 2.325200
25.155400 2.346100
25.183300 2.362300
25.211200 2.384300
25.239100 2.420700
25.267000 2.453500
25.295000 2.498900
25.322900 2.541200
25.350800 2.558600
25.378700 2.582800
25.406600 2.624800
25.434500 2.634200
25.462400 2.685100
25.490300 2.599200
25.518200 2.527100
25.546100 2.458300
25.574000 2.402200
25.602000 2.349000
25.629900 2.303900
25.657800 2.270200
25.685700 2.243700
25.713600 2.219100
25.741500 2.193400
25.769400 2.164700
25.797300 2.130600
25.825200 2.098500
25.853100 2.074600
25.881000 2.056000
25.908900 2.041300
25.936900 2.030100
25.964800 2.030200
25.992700 2.042200
26.020600 2.065000
26.048500 2.097300
26.076400 2.132400
26.104300 2.177100
26.132200 2.224700
26.160100 2.256800
26.188000 2.249000
26.215900 2.204300
26.243900 2.186100
26.271800 2.174300
26.299700 2.167300
26.327600 2.162400
26.355500 2.159100
26.383400 2.159100
26.411300 2.157700
26.439200 2.146500
26.467100 2.117600
26.495000 2.106800
26.522900 2.097900
26.550900 2.066300
26.578800 2.044300
26.606700 2.033700
26.634600 2.027000
26.662500 2.022800
26.690400 2.022300
26.718300 2.034300
26.746200 2.074400
26.774100 2.138900
26.802000 2.126700
26.829900 2.148700
26.857900 2.130900
26.885800 2.105300
26.913700 2.149700
26.941600 2.205500
26.969500 2.250900
26.997400 2.265700
27.025300 2.274300
27.053200 2.303600
27.081100 2.349300
27.109000 2.399100
27.136900 2.456200
27.164900 2.531200
27.192800 2.623000
27.220700 2.801200
27.248600 2.836700
27.276500 2.838400
27.304400 2.844500
27.332300 2.771400
27.360200 2.704600
27.388100 2.795000
27.416000 2.723200
27.443900 2.678000
27.471800 2.694100
27.499800 2.715800
27.527700 2.744300
27.555600 2.767200
27.583500 2.782600
27.611400 2.794200
27.639300 2.794200
27.667200 2.796600
27.695100 2.806800
27.723000 2.828100
27.750900 2.862500
27.778800 2.872300
27.806800 2.878400
27.834700 2.928500
27.862600 2.922400
27.890500 2.925600
27.918400 2.939800
27.946300 2.957300
27.974200 2.980000
28.002100 3.022500
28.030000 3.018900
28.057900 2.993700
28.085800 2.988100
28.113800 2.931500
28.141700 2.901100
28.169600 2.862500
28.197500 2.815900
28.225400 2.779600
28.253300 2.785000
28.281200 2.813700
28.309100 2.855700
28.337000 2.853400
28.364900 2.910200
28.392800 2.727000
28.420800 2.585900
28.448700 2.515800
28.476600 2.459100
28.504500 2.409800
28.532400 2.370700
28.560300 2.335300
28.588200 2.287600
28.616100 2.219400
28.644000 2.214100
28.671900 2.213100
28.699800 2.197500
28.727700 2.181900
28.755700 2.242400
28.783600 2.230900
28.811500 2.231300
28.839400 2.234300
28.867300 2.241000
28.895200 2.252500
28.923100 2.273000
28.951000 2.310500
28.978900 2.344700
29.006800 2.369300
29.034700 2.375700
29.062700 2.366200
29.090600 2.356900
29.118500 2.319100
29.146400 2.295100
29.174300 2.296400
29.202200 2.329700
29.230100 2.394200
29.258000 2.418800
29.285900 2.471400
29.313800 2.560300
29.341700 2.424400
29.369700 2.406900
29.397600 2.387000
29.425500 2.364100
29.453400 2.343800
29.481300 2.327500
29.509200 2.294200
29.537100 2.263100
29.565000 2.209800
29.592900 2.164300
29.620800 2.133200
29.648700 2.138900
29.676700 2.141800
29.704600 2.129800
29.732500 2.104700
29.760400 2.061000
29.788300 2.014400
29.816200 1.981400
29.844100 1.965700
29.872000 1.941100
29.899900 1.899900
29.927800 1.861300
29.955700 1.834800
29.983600 1.793800
30.011600 1.760500
30.039500 1.744000
30.067400 1.732100
30.095300 1.723000
30.123200 1.716000
30.151100 1.710400
30.179000 1.708000
30.206900 1.704100
30.234800 1.698900
30.262700 1.693100
30.290600 1.684900
30.318600 1.676300
30.346500 1.674600
30.374400 1.686500
30.402300 1.698900
30.430200 1.709500
30.458100 1.739100
30.486000 1.772900
30.513900 1.854300
30.541800 1.825700
30.569700 1.823500
30.597600 1.844400
30.625600 1.868900
30.653500 1.893600
30.681400 1.919100
30.709300 1.944700
30.737200 1.969100
30.765100 2.039100
30.793000 2.070500
30.820900 2.090600
30.848800 2.114500
30.876700 2.141900
30.904600 2.170200
30.932600 2.159500
30.960500 2.204600
30.988400 2.235300
31.016300 2.257300
31.044200 2.279800
31.072100 2.285900
31.100000 2.277300
31.127900 2.258400
31.155800 2.233200
31.183700 2.134800
31.211600 2.110100
31.239600 2.094700
31.267500 2.079800
31.295400 2.072100
31.323300 2.070100
31.351200 2.069500
31.379100 2.073200
31.407000 2.075400
31.434900 2.063200
31.462800 2.042000
31.490700 2.048100
31.518600 2.072500
31.546500 2.068700
31.574500 2.039200
31.602400 2.014500
31.630300 1.985900
31.658200 1.973600
31.686100 1.970900
31.714000 1.973500
31.741900 1.984200
31.769800 2.066500
31.797700 2.043200
31.825600 2.074100
31.853500 2.127400
31.881500 2.195300
31.909400 2.260700
31.937300 2.317200
31.965200 2.370700
31.993100 2.411400
32.021000 2.427900
32.048900 2.403400
32.076800 2.390900
32.104700 2.384500
32.132600 2.367300
32.160500 2.316400
32.188500 2.259900
32.216400 2.222600
32.244300 2.183800
32.272200 2.163900
32.300100 2.194700
32.328000 2.220900
32.355900 2.237100
32.383800 2.263200
32.411700 2.274000
32.439600 2.286800
32.467500 2.281900
32.495500 2.259700
32.523400 2.235200
32.551300 2.232300
32.579200 2.235700
32.607100 2.275100
32.635000 2.349600
32.662900 2.418000
32.690800 2.432400
32.718700 2.382200
32.746600 2.315200
32.774500 2.226000
32.802400 2.161700
32.830400 2.085700
32.858300 2.025200
32.886200 2.004700
32.914100 2.007900
32.942000 2.007800
32.969900 2.006700
32.997800 2.013200
33.025700 2.046200
33.053600 2.081500
33.081500 2.125300
33.109400 2.195600
33.137400 2.198100
33.165300 2.155800
33.193200 2.174800
33.221100 2.263500
33.249000 2.339100
33.276900 2.387300
33.304800 2.462500
33.332700 2.504900
33.360600 2.471700
33.388500 2.483900
33.416400 2.528500
33.444400 2.632800
33.472300 2.765900
33.500200 2.877700
33.528100 2.962000
33.556000 3.091800
33.583900 3.174600
33.611800 3.320700
33.639700 3.491900
33.667600 2.813500
33.695500 2.497400
33.723400 2.430700
33.751400 2.651600
33.779300 2.865100
33.807200 2.889900
33.835100 2.958800
33.863000 3.122100
33.890900 3.283900
33.918800 3.364900
33.946700 3.396200
33.974600 3.427800
34.002500 3.588900
34.030400 3.592100
34.058300 3.567200
34.086300 3.384200
34.114200 3.364600
34.142100 3.383800
34.170000 3.304900
34.197900 3.315300
34.225800 3.356100
34.253700 3.379200
34.281600 3.366800
34.309500 3.305000
34.337400 3.376500
34.365300 3.374500
34.393300 3.619100
34.421200 4.017900
34.449100 4.276100
34.477000 4.250300
34.504900 4.016300
34.532800 3.720600
34.560700 3.768700
34.588600 3.730400
34.616500 3.681500
34.644400 3.461000
34.672300 3.256100
34.700300 3.106500
34.728200 2.971600
34.756100 2.877700
34.784000 3.002500
34.811900 2.915100
34.839800 2.815700
34.867700 2.643700
34.895600 2.534200
34.923500 2.486600
34.951400 2.445700
34.979300 2.570600
35.007300 2.677400
35.035200 2.738200
35.063100 2.785600
35.091000 2.824000
35.118900 2.849200
35.146800 2.927200
35.174700 2.928200
35.202600 2.962600
35.230500 2.972800
35.258400 2.966900
35.286300 3.060900
35.314300 3.006600
35.342200 2.999800
35.370100 3.021800
35.398000 3.040700
35.425900 3.052400
35.453800 3.047000
35.481700 3.045900
35.509600 3.178400
35.537500 3.350000
35.565400 3.415400
35.593300 3.431100
35.621200 3.263200
35.649200 3.156200
35.677100 3.121600
35.705000 3.137600
35.732900 2.931200
35.760800 2.836100
35.788700 2.820800
35.816600 2.896500
35.844500 2.788000
35.872400 2.717600
35.900300 2.694000
35.928200 2.717100
35.956200 2.769800
35.984100 2.811000
36.012000 2.778400
36.039900 2.781100
36.067800 2.778700
36.095700 2.778800
36.123600 2.790300
36.151500 2.807900
36.179400 2.839500
36.207300 2.879500
36.235200 2.886200
36.263200 2.892300
36.291100 2.901800
36.319000 2.919100
36.346900 2.935200
36.374800 2.949900
36.402700 3.017600
36.430600 3.128400
36.458500 3.148700
36.486400 3.089700
36.514300 2.974900
36.542200 2.530500
36.570200 2.522000
36.598100 2.489900
36.626000 2.425100
36.653900 2.362900
36.681800 2.296500
36.709700 2.267800
36.737600 2.260600
36.765500 2.302900
36.793400 2.326600
36.821300 2.352100
36.849200 2.384100
36.877100 2.433500
36.905100 2.490400
36.933000 2.534900
36.960900 2.561900
36.988800 2.570300
37.016700 2.559200
37.044600 2.528000
37.072500 2.461400
37.100400 2.391900
37.128300 2.310200
37.156200 2.228300
37.184100 2.141600
37.212100 2.042100
37.240000 1.983600
37.267900 1.941700
37.295800 1.897100
37.323700 1.870300
37.351600 1.818700
37.379500 1.778300
37.407400 1.756800
37.435300 1.758500
37.463200 1.783800
37.491100 1.830800
37.519100 1.902800
37.547000 1.991400
37.574900 2.096000
37.602800 2.195300
37.630700 2.248900
37.658600 2.269000
37.686500 2.283500
37.714400 2.558200
37.742300 1.961100
37.770200 1.942300
37.798100 1.923700
37.826100 1.948100
37.854000 1.972700
37.881900 1.995200
37.909800 2.060900
37.937700 2.064500
37.965600 2.015000
37.993500 2.018400
38.021400 2.026700
38.049300 2.036700
38.077200 2.047100
38.105100 2.074200
38.133000 2.115600
38.161000 2.169800
38.188900 2.219300
38.216800 2.245100
38.244700 2.259500
38.272600 2.276500
38.300500 2.291400
38.328400 2.294700
38.356300 2.309500
38.384200 2.339000
38.412100 2.368200
38.440000 2.399300
38.468000 2.434600
38.495900 2.472900
38.523800 2.570300
38.551700 2.620900
38.579600 2.696600
38.607500 2.791200
38.635400 2.847000
38.663300 2.940800
38.691200 3.113100
38.719100 3.312400
38.747000 3.396900
38.775000 3.414200
38.802900 3.467900
38.830800 3.610800
38.858700 3.680000
38.886600 3.496300
38.914500 3.436100
38.942400 3.389500
38.970300 3.332700
38.998200 3.534100
39.026100 3.559800
39.054000 3.386800
39.082000 3.417800
39.109900 3.579600
39.137800 3.847200
39.165700 4.133300
39.193600 4.454500
39.221500 4.077100
39.249400 4.205900
39.277300 4.260400
39.305200 3.950700
39.333100 3.684200
39.361000 3.610600
39.388900 3.779500
39.416900 4.016200
39.444800 3.761200
39.472700 3.674300
39.500600 3.625700
39.528500 3.558400
39.556400 3.463700
39.584300 3.546900
39.612200 3.361800
39.640100 3.267000
39.668000 3.401400
39.695900 3.555800
39.723900 3.763100
39.751800 4.074600
39.779700 4.459600
39.807600 4.338600
39.835500 4.201400
39.863400 3.896400
39.891300 3.628800
39.919200 3.408000
39.947100 3.138200
39.975000 2.936400
40.002900 2.795300
40.030900 2.711400
40.058800 2.683000
40.086700 2.717100
40.114600 2.769200
40.142500 2.815800
40.170400 2.870400
40.198300 2.931100
40.226200 2.969400
40.254100 2.987000
40.282000 3.007900
40.309900 3.079000
40.337900 3.277900
40.365800 3.057800
40.393700 2.951800
40.421600 2.843500
40.449500 2.746100
40.477400 2.670700
40.505300 2.609500
40.533200 2.567100
40.561100 2.825500
40.589000 2.407800
40.616900 2.371900
40.644900 2.318300
40.672800 2.249000
40.700700 2.166600
40.728600 2.011300
40.756500 1.897800
40.784400 1.816600
40.812300 1.821300
40.840200 1.834300
40.868100 1.808800
40.896000 1.773000
40.923900 1.733200
40.951800 1.772600
40.979800 1.545600
41.007700 1.430000
41.035600 1.364100
41.063500 1.309100
41.091400 1.258100
41.119300 1.203000
41.147200 1.150800
41.175100 1.099800
41.203000 1.070300
41.230900 1.047300
41.258800 1.043400
41.286800 0.998700
41.314700 0.942000
41.342600 0.839500
41.370500 0.826000
41.398400 0.814900
41.426300 0.820900
41.454200 0.831900
41.482100 0.836500
41.510000 0.819300
41.537900 0.784800
41.565800 0.757100
41.593800 0.750500
41.621700 0.751200
41.649600 0.746800
41.677500 0.697600
41.705400 0.633400
41.733300 0.613200
41.761200 0.600800
41.789100 0.596600
41.817000 0.600600
41.844900 0.618200
41.872800 0.642600
41.900800 0.669000
41.928700 0.720200
41.956600 0.827200
41.984500 0.987200
42.012400 1.169100
42.040300 1.222600
42.068200 0.887200
42.096100 0.730700
42.124000 0.656400
42.151900 0.644700
42.179800 0.120800
42.207700 0.027200
42.235700 0.023300
42.263600 0.019700
42.291500 0.016400
42.319400 0.013400
42.347300 0.010600
42.375200 0.008200
42.403100 0.006000
42.431000 0.004100
42.458900 0.002500
42.486800 0.001100
42.514700 0.000100
42.542700 0.000000
42.570600 0.000000
42.598500 0.000000
42.626400 0.000000
42.654300 0.000000
42.682200 0.000000
42.710100 0.000000
42.738000 0.000000
42.765900 0.000000
42.793800 0.000000
42.821700 0.000000
42.849700 0.000000
42.877600 0.000000
42.905500 0.000000
42.933400 0.000000
42.961300 0.000000
42.989200 0.000000
43.017100 0.000000
43.045000 0.000000
43.072900 0.000000
43.100800 0.000000
43.128700 0.000000
43.156700 0.000000
43.184600 0.000000
43.212500 0.000000
43.240400 0.000000
43.268300 0.000000
43.296200 0.000000
43.324100 0.000000
43.352000 0.000000
43.379900 0.000000
43.407800 0.000000
43.435700 0.000000
43.463600 0.000000
43.491600 0.000000
43.519500 0.000000
43.547400 0.000000
43.575300 0.000000
43.603200 0.000000
43.631100 0.000000
43.659000 0.000000
43.686900 0.000000
43.714800 0.000000
43.742700 0.000000
43.770600 0.000000
43.798600 0.000000
43.826500 0.000000
43.854400 0.000000
43.882300 0.000000
43.910200 0.000000
43.938100 0.000000
43.966000 0.000000
43.993900 0.000000
44.021800 0.000000
44.049700 0.000000
44.077600 0.000000
44.105600 0.000000
44.133500 0.000000
44.161400 0.000000
44.189300 0.000000
44.217200 0.000000
44.245100 0.000000
44.273000 0.000000
44.300900 0.000000
44.328800 0.000000
44.356700 0.000000
44.384600 0.000000
44.412600 0.000000
44.440500 0.000000
44.468400 0.000000
44.496300 0.000000
44.524200 0.000000
44.552100 0.000000
44.580000 0.000000
44.607900 0.000000
44.635800 0.000000
44.663700 0.000000
44.691600 0.000000
44.719600 0.000000
44.747500 0.000000
44.775400 0.000000
44.803300 0.000000
44.831200 0.000000
44.859100 0.000000
44.887000 0.000000
44.914900 0.000000
44.942800 0.000000
44.970700 0.000000
44.998600 0.000000
45.026500 0.000000
45.054500 0.000000
e
