set title 'mp-1101251 - Density of States'
set xlabel 'Energy (eV)'
set ylabel 'DOS (states/eV)'
set grid
set xrange [-10:10]
set yrange [0:143.692]
set xzeroaxis lt -1
set terminal png size 800,600
set output 'mp-1101251_dos_gnuplot.png'
plot '-' using 1:2 with lines title 'DOS'
-7.166200 0.000000
-7.150700 0.000000
-7.135200 0.000000
-7.119700 0.000000
-7.104200 0.000000
-7.088700 0.000000
-7.073200 0.000000
-7.057700 0.000000
-7.042200 0.000000
-7.026700 0.000000
-7.011200 0.000000
-6.995700 0.000000
-6.980200 0.000000
-6.964700 0.000000
-6.949300 0.000000
-6.933800 0.000000
-6.918300 0.000000
-6.902800 0.000000
-6.887300 0.000000
-6.871800 0.000000
-6.856300 0.000000
-6.840800 0.000000
-6.825300 0.000000
-6.809800 0.000000
-6.794300 0.000000
-6.778800 0.000000
-6.763300 0.000000
-6.747800 0.000000
-6.732300 0.000000
-6.716800 0.000000
-6.701300 0.000000
-6.685800 0.000000
-6.670300 0.000000
-6.654800 0.000000
-6.639300 0.000000
-6.623800 0.000000
-6.608300 0.000000
-6.592800 0.000000
-6.577300 0.000000
-6.561800 0.000000
-6.546300 0.000000
-6.530800 0.000000
-6.515300 0.000000
-6.499800 0.000000
-6.484300 0.000000
-6.468800 0.000000
-6.453400 0.000000
-6.437900 0.000000
-6.422400 0.000000
-6.406900 0.000000
-6.391400 0.000000
-6.375900 0.000000
-6.360400 0.000000
-6.344900 0.000000
-6.329400 0.000000
-6.313900 0.000000
-6.298400 0.000000
-6.282900 0.000000
-6.267400 0.000000
-6.251900 0.000000
-6.236400 0.000000
-6.220900 0.000000
-6.205400 0.000000
-6.189900 0.000000
-6.174400 0.000000
-6.158900 0.000000
-6.143400 0.000000
-6.127900 0.000000
-6.112400 0.000000
-6.096900 0.000000
-6.081400 0.000000
-6.065900 0.000000
-6.050400 0.000000
-6.034900 0.000000
-6.019400 0.000000
-6.003900 0.000000
-5.988400 0.000000
-5.972900 0.000000
-5.957500 0.000000
-5.942000 0.000000
-5.926500 0.000000
-5.911000 0.000000
-5.895500 0.000000
-5.880000 0.000000
-5.864500 0.000000
-5.849000 0.000000
-5.833500 0.000000
-5.818000 0.000000
-5.802500 0.000000
-5.787000 0.000000
-5.771500 0.000000
-5.756000 1.170500
-5.740500 5.445300
-5.725000 19.639300
-5.709500 60.428000
-5.694000 59.984300
-5.678500 48.767700
-5.663000 46.390000
-5.647500 53.499300
-5.632000 49.700100
-5.616500 65.079000
-5.601000 55.187900
-5.585500 36.532800
-5.570000 51.613200
-5.554500 80.320100
-5.539000 77.025000
-5.523500 79.943100
-5.508000 76.452800
-5.492500 88.632100
-5.477000 65.195400
-5.461600 123.839500
-5.446100 52.186600
-5.430600 46.946400
-5.415100 71.609700
-5.399600 46.757800
-5.384100 38.406700
-5.368600 72.884100
-5.353100 69.015700
-5.337600 67.923100
-5.322100 63.554000
-5.306600 83.434500
-5.291100 78.422800
-5.275600 62.696800
-5.260100 92.100500
-5.244600 49.084600
-5.229100 81.941400
-5.213600 86.208400
-5.198100 62.388600
-5.182600 108.083500
-5.167100 130.629300
-5.151600 35.933100
-5.136100 20.556300
-5.120600 1.036800
-5.105100 0.000000
-5.089600 0.000000
-5.074100 0.000000
-5.058600 0.000000
-5.043100 0.000000
-5.027600 0.000000
-5.012100 0.000000
-4.996600 0.000000
-4.981100 0.000000
-4.965700 0.000000
-4.950200 0.000000
-4.934700 0.000000
-4.919200 0.000000
-4.903700 0.000000
-4.888200 0.000000
-4.872700 0.000000
-4.857200 0.000000
-4.841700 0.000000
-4.826200 0.000000
-4.810700 0.000000
-4.795200 0.000000
-4.779700 0.000000
-4.764200 0.000000
-4.748700 0.000000
-4.733200 0.000000
-4.717700 0.000000
-4.702200 0.000000
-4.686700 0.000000
-4.671200 0.000000
-4.655700 0.000000
-4.640200 0.000000
-4.624700 0.000000
-4.609200 0.000000
-4.593700 0.000000
-4.578200 0.000000
-4.562700 0.000000
-4.547200 0.000000
-4.531700 0.000000
-4.516200 0.000000
-4.500700 0.000000
-4.485200 0.000000
-4.469800 0.000000
-4.454300 0.000000
-4.438800 0.000000
-4.423300 0.000000
-4.407800 0.000000
-4.392300 0.000000
-4.376800 0.000000
-4.361300 0.000000
-4.345800 0.000000
-4.330300 0.000000
-4.314800 0.000000
-4.299300 0.000000
-4.283800 0.000000
-4.268300 0.000000
-4.252800 0.000000
-4.237300 0.000000
-4.221800 0.000000
-4.206300 0.000000
-4.190800 0.000000
-4.175300 0.000000
-4.159800 0.000000
-4.144300 0.000000
-4.128800 0.000000
-4.113300 0.000000
-4.097800 0.000000
-4.082300 0.000000
-4.066800 0.000000
-4.051300 0.000000
-4.035800 0.000000
-4.020300 0.000000
-4.004800 0.000000
-3.989300 0.000000
-3.973900 0.000000
-3.958400 0.000000
-3.942900 0.000000
-3.927400 0.000000
-3.911900 0.000000
-3.896400 0.000000
-3.880900 0.000000
-3.865400 0.000000
-3.849900 0.000000
-3.834400 0.000000
-3.818900 0.000000
-3.803400 0.000000
-3.787900 0.000000
-3.772400 0.000000
-3.756900 0.000000
-3.741400 0.000000
-3.725900 0.000000
-3.710400 0.000000
-3.694900 0.000000
-3.679400 0.000000
-3.663900 0.000000
-3.648400 0.000000
-3.632900 0.000000
-3.617400 0.000000
-3.601900 0.000000
-3.586400 0.000000
-3.570900 0.000000
-3.555400 0.000000
-3.539900 0.000000
-3.524400 0.000000
-3.508900 0.001800
-3.493400 0.014800
-3.478000 0.040500
-3.462500 0.079000
-3.447000 0.130100
-3.431500 0.237200
-3.416000 0.325000
-3.400500 0.234900
-3.385000 0.250000
-3.369500 0.268600
-3.354000 0.290300
-3.338500 0.312400
-3.323000 0.334100
-3.307500 0.355600
-3.292000 0.376800
-3.276500 0.397800
-3.261000 0.418400
-3.245500 0.432900
-3.230000 0.445000
-3.214500 0.457000
-3.199000 0.468600
-3.183500 0.479000
-3.168000 0.486300
-3.152500 0.494000
-3.137000 0.502600
-3.121500 0.509500
-3.106000 0.512800
-3.090500 0.524100
-3.075000 0.536900
-3.059500 0.550100
-3.044000 0.563700
-3.028500 0.577500
-3.013000 0.591600
-2.997600 0.606100
-2.982100 0.620900
-2.966600 0.635900
-2.951100 0.651300
-2.935600 0.656600
-2.920100 0.663900
-2.904600 0.671800
-2.889100 0.674100
-2.873600 0.680700
-2.858100 0.688700
-2.842600 0.697200
-2.827100 0.705400
-2.811600 0.713200
-2.796100 0.720600
-2.780600 0.727400
-2.765100 0.734200
-2.749600 0.741300
-2.734100 0.749100
-2.718600 0.757700
-2.703100 0.766400
-2.687600 0.775300
-2.672100 0.784400
-2.656600 0.793600
-2.641100 0.803000
-2.625600 0.812600
-2.610100 0.822700
-2.594600 0.833500
-2.579100 0.844900
-2.563600 0.856500
-2.548100 0.868300
-2.532600 0.879400
-2.517100 0.889400
-2.501700 0.897600
-2.486200 0.903900
-2.470700 0.912100
-2.455200 0.921200
-2.439700 0.930100
-2.424200 0.939200
-2.408700 0.948600
-2.393200 0.958300
-2.377700 0.968700
-2.362200 0.979600
-2.346700 0.991100
-2.331200 1.003200
-2.315700 1.016100
-2.300200 1.030500
-2.284700 1.046400
-2.269200 1.068600
-2.253700 1.092100
-2.238200 1.112900
-2.222700 1.132400
-2.207200 1.147400
-2.191700 1.152200
-2.176200 1.156900
-2.160700 1.161500
-2.145200 1.166200
-2.129700 1.170900
-2.114200 1.175500
-2.098700 1.180200
-2.083200 1.184900
-2.067700 1.189700
-2.052200 1.194400
-2.036700 1.199300
-2.021200 1.282100
-2.005800 1.360300
-1.990300 1.380600
-1.974800 1.309600
-1.959300 1.213000
-1.943800 1.206600
-1.928300 1.202500
-1.912800 1.200600
-1.897300 1.201100
-1.881800 1.202100
-1.866300 1.209500
-1.850800 1.216700
-1.835300 1.222000
-1.819800 1.225500
-1.804300 1.227100
-1.788800 1.227600
-1.773300 1.227600
-1.757800 1.227100
-1.742300 1.237800
-1.726800 1.255300
-1.711300 1.276400
-1.695800 1.298000
-1.680300 1.319900
-1.664800 1.364100
-1.649300 1.398500
-1.633800 1.399500
-1.618300 1.419500
-1.602800 1.446500
-1.587300 1.473600
-1.571800 1.492500
-1.556300 1.508300
-1.540800 1.500800
-1.525300 1.443800
-1.509900 1.358500
-1.494400 1.321400
-1.478900 1.294100
-1.463400 1.274000
-1.447900 1.261100
-1.432400 1.245400
-1.416900 1.229700
-1.401400 1.210000
-1.385900 1.187200
-1.370400 1.165200
-1.354900 1.144400
-1.339400 1.124800
-1.323900 1.120000
-1.308400 1.131200
-1.292900 1.313900
-1.277400 1.498100
-1.261900 1.255800
-1.246400 1.148200
-1.230900 1.045500
-1.215400 1.056900
-1.199900 1.086800
-1.184400 1.108000
-1.168900 1.115400
-1.153400 1.128000
-1.137900 1.158100
-1.122400 1.196200
-1.106900 1.240500
-1.091400 1.290000
-1.075900 1.345000
-1.060400 1.405300
-1.044900 1.765000
-1.029400 1.858200
-1.014000 1.882500
-0.998500 1.932400
-0.983000 1.966900
-0.967500 1.990400
-0.952000 2.010300
-0.936500 2.026800
-0.921000 2.043500
-0.905500 2.058400
-0.890000 2.059800
-0.874500 2.060300
-0.859000 2.052700
-0.843500 2.037300
-0.828000 2.020500
-0.812500 2.002700
-0.797000 1.995600
-0.781500 1.991900
-0.766000 1.991500
-0.750500 2.006000
-0.735000 2.026100
-0.719500 2.042500
-0.704000 2.053500
-0.688500 2.050200
-0.673000 2.040900
-0.657500 2.030500
-0.642000 1.993800
-0.626500 2.002000
-0.611000 2.012200
-0.595500 2.082300
-0.580000 2.630500
-0.564500 2.177200
-0.549000 2.205800
-0.533500 2.291600
-0.518100 2.136300
-0.502600 2.116700
-0.487100 2.136700
-0.471600 2.161100
-0.456100 2.180300
-0.440600 2.269000
-0.425100 2.302000
-0.409600 2.326500
-0.394100 2.432000
-0.378600 2.998300
-0.363100 2.747900
-0.347600 2.735400
-0.332100 2.763600
-0.316600 2.804300
-0.301100 2.810100
-0.285600 2.813600
-0.270100 2.813900
-0.254600 2.810700
-0.239100 2.825000
-0.223600 2.894000
-0.208100 2.979200
-0.192600 3.492300
-0.177100 3.444400
-0.161600 3.415900
-0.146100 3.351900
-0.130600 3.141700
-0.115100 2.877100
-0.099600 2.804600
-0.084100 3.073500
-0.068600 2.519900
-0.053100 1.763400
-0.037600 1.793700
-0.022200 1.826900
-0.006700 1.988600
0.008800 1.999200
0.024300 2.018500
0.039800 2.077100
0.055300 2.147300
0.070800 2.233400
0.086300 2.292600
0.101800 2.384400
0.117300 2.513400
0.132800 2.531800
0.148300 2.636200
0.163800 2.672300
0.179300 2.707700
0.194800 2.745500
0.210300 2.779900
0.225800 2.790500
0.241300 2.850800
0.256800 2.873900
0.272300 2.844100
0.287800 2.758900
0.303300 2.782300
0.318800 2.833200
0.334300 2.941500
0.349800 3.105600
0.365300 3.315100
0.380800 3.668200
0.396300 4.501300
0.411800 4.234300
0.427300 4.040600
0.442800 3.795300
0.458300 3.666600
0.473700 3.538600
0.489200 3.407100
0.504700 3.284200
0.520200 3.174400
0.535700 3.126100
0.551200 3.057300
0.566700 2.907600
0.582200 2.830400
0.597700 2.765800
0.613200 2.711400
0.628700 2.668200
0.644200 2.630900
0.659700 2.589200
0.675200 2.552100
0.690700 2.516400
0.706200 2.482100
0.721700 2.449300
0.737200 2.431800
0.752700 2.422600
0.768200 2.337900
0.783700 2.265600
0.799200 2.225400
0.814700 2.209400
0.830200 2.218300
0.845700 2.236800
0.861200 2.239800
0.876700 2.220700
0.892200 2.180400
0.907700 2.123700
0.923200 2.051300
0.938700 1.968300
0.954200 1.900700
0.969600 1.815800
0.985100 1.780900
1.000600 1.746300
1.016100 1.709000
1.031600 1.670900
1.047100 1.645500
1.062600 1.626300
1.078100 1.691200
1.093600 1.598000
1.109100 1.541900
1.124600 1.491500
1.140100 1.441700
1.155600 1.389500
1.171100 1.337400
1.186600 1.285900
1.202100 1.240400
1.217600 1.194800
1.233100 1.149200
1.248600 1.103600
1.264100 1.059400
1.279600 1.018500
1.295100 0.981500
1.310600 0.970000
1.326100 0.920100
1.341600 0.877000
1.357100 0.836800
1.372600 0.808800
1.388100 0.784400
1.403600 0.776600
1.419100 0.770300
1.434600 0.764700
1.450100 0.759800
1.465500 0.755500
1.481000 0.751900
1.496500 0.749100
1.512000 0.747400
1.527500 0.746600
1.543000 0.746800
1.558500 0.748500
1.574000 0.755800
1.589500 0.770700
1.605000 0.806900
1.620500 0.867100
1.636000 0.927300
1.651500 0.979000
1.667000 0.970300
1.682500 1.015100
1.698000 1.129500
1.713500 1.158000
1.729000 1.178500
1.744500 1.302400
1.760000 1.542800
1.775500 1.823300
1.791000 2.008300
1.806500 2.215400
1.822000 2.404300
1.837500 2.543600
1.853000 2.657400
1.868500 2.813300
1.884000 2.864800
1.899500 3.066600
1.915000 2.984700
1.930500 2.158600
1.946000 1.872500
1.961400 1.734800
1.976900 1.712800
1.992400 1.703100
2.007900 1.689800
2.023400 1.674100
2.038900 1.655000
2.054400 1.629600
2.069900 1.597800
2.085400 1.535500
2.100900 1.409400
2.116400 1.334400
2.131900 1.278300
2.147400 1.233600
2.162900 1.185900
2.178400 1.177900
2.193900 1.179600
2.209400 1.181600
2.224900 1.183700
2.240400 1.186200
2.255900 1.188900
2.271400 1.191800
2.286900 1.195000
2.302400 1.213400
2.317900 1.233600
2.333400 1.280100
2.348900 1.394900
2.364400 1.555500
2.379900 1.745800
2.395400 1.946000
2.410900 2.158600
2.426400 2.403000
2.441900 2.693400
2.457300 3.050200
2.472800 3.452500
2.488300 3.843300
2.503800 4.407400
2.519300 4.918500
2.534800 5.375000
2.550300 5.571800
2.565800 5.836300
2.581300 6.444500
2.596800 6.968900
2.612300 7.853600
2.627800 8.703500
2.643300 10.040300
2.658800 11.387100
2.674300 9.577300
2.689800 9.155600
2.705300 8.747700
2.720800 8.747200
2.736300 8.832700
2.751800 9.184800
2.767300 10.251100
2.782800 10.851400
2.798300 11.561300
2.813800 9.621300
2.829300 9.806800
2.844800 7.929700
2.860300 7.632800
2.875800 7.461900
2.891300 7.912700
2.906800 8.758000
2.922300 8.843700
2.937800 8.999600
2.953200 9.729100
2.968700 8.529000
2.984200 7.681800
2.999700 7.254900
3.015200 7.169800
3.030700 7.360900
3.046200 7.502800
3.061700 7.621600
3.077200 7.577400
3.092700 7.542100
3.108200 7.189500
3.123700 7.062900
3.139200 7.122100
3.154700 7.155800
3.170200 7.542300
3.185700 8.249600
3.201200 8.589300
3.216700 9.032400
3.232200 9.393100
3.247700 10.324300
3.263200 13.823000
3.278700 8.552800
3.294200 9.117900
3.309700 9.837900
3.325200 10.667100
3.340700 11.897300
3.356200 13.125700
3.371700 12.922600
3.387200 12.161900
3.402700 11.188400
3.418200 9.495400
3.433700 8.234800
3.449100 7.027300
3.464600 6.280600
3.480100 5.562500
3.495600 5.056300
3.511100 4.744100
3.526600 4.504000
3.542100 4.443700
3.557600 4.683600
3.573100 5.249200
3.588600 6.328200
3.604100 10.971200
3.619600 11.928200
3.635100 11.340900
3.650600 10.711800
3.666100 11.482400
3.681600 8.461500
3.697100 8.165500
3.712600 10.343200
3.728100 10.931900
3.743600 12.157600
3.759100 13.015000
3.774600 12.998900
3.790100 12.995500
3.805600 15.712800
3.821100 13.656800
3.836600 11.107300
3.852100 9.526800
3.867600 7.172800
3.883100 7.304300
3.898600 7.158000
3.914100 4.663600
3.929600 7.481800
3.945000 5.535100
3.960500 4.831300
3.976000 4.295700
3.991500 4.164000
4.007000 4.471300
4.022500 4.795600
4.038000 4.928600
4.053500 4.997600
4.069000 5.108100
4.084500 5.231800
4.100000 5.383900
4.115500 5.530100
4.131000 5.742700
4.146500 5.962000
4.162000 6.111200
4.177500 6.476100
4.193000 7.185000
4.208500 6.672700
4.224000 6.649600
4.239500 6.534200
4.255000 6.271300
4.270500 6.007500
4.286000 5.764100
4.301500 5.539400
4.317000 5.344900
4.332500 5.202900
4.348000 5.092500
4.363500 5.113900
4.379000 5.012100
4.394500 4.914900
4.410000 4.890800
4.425500 4.899200
4.440900 4.496200
4.456400 4.603100
4.471900 4.826500
4.487400 4.960000
4.502900 5.660200
4.518400 5.585600
4.533900 5.846500
4.549400 5.851900
4.564900 5.730900
4.580400 5.575000
4.595900 5.830300
4.611400 6.121700
4.626900 6.316800
4.642400 6.396900
4.657900 6.218800
4.673400 5.749100
4.688900 5.715200
4.704400 5.440400
4.719900 5.403600
4.735400 5.371200
4.750900 5.350000
4.766400 5.376200
4.781900 5.424900
4.797400 5.500300
4.812900 5.639700
4.828400 5.807100
4.843900 6.019300
4.859400 6.125100
4.874900 6.225100
4.890400 6.334100
4.905900 6.442900
4.921300 6.621300
4.936800 6.853800
4.952300 7.056600
4.967800 7.440000
4.983300 7.926400
4.998800 8.639600
5.014300 9.668200
5.029800 10.333500
5.045300 10.915800
5.060800 9.195200
5.076300 7.816600
5.091800 6.834700
5.107300 5.063300
5.122800 4.538900
5.138300 4.302300
5.153800 4.226500
5.169300 4.078300
5.184800 4.002900
5.200300 3.959600
5.215800 3.876100
5.231300 3.798600
5.246800 3.725700
5.262300 3.635300
5.277800 3.543100
5.293300 3.502400
5.308800 3.644500
5.324300 3.747900
5.339800 3.663800
5.355300 3.626000
5.370800 3.591600
5.386300 3.563100
5.401800 3.532800
5.417200 3.500500
5.432700 3.466400
5.448200 3.430300
5.463700 3.397200
5.479200 3.375300
5.494700 3.324800
5.510200 3.265100
5.525700 3.188200
5.541200 3.039700
5.556700 2.930200
5.572200 2.842700
5.587700 2.700600
5.603200 2.650900
5.618700 2.649700
5.634200 2.696500
5.649700 2.782600
5.665200 2.040500
5.680700 2.100700
5.696200 2.161900
5.711700 2.222500
5.727200 2.277500
5.742700 2.326300
5.758200 2.374100
5.773700 2.414900
5.789200 2.452600
5.804700 2.464000
5.820200 2.451200
5.835700 2.392000
5.851200 2.372400
5.866700 2.351300
5.882200 2.342400
5.897700 2.332500
5.913100 2.308700
5.928600 2.324900
5.944100 2.319000
5.959600 2.322600
5.975100 2.335400
5.990600 2.366000
6.006100 3.234600
6.021600 2.342500
6.037100 2.338100
6.052600 2.275900
6.068100 2.141600
6.083600 2.110100
6.099100 2.112000
6.114600 2.254900
6.130100 2.328400
6.145600 2.417800
6.161100 2.527500
6.176600 2.625600
6.192100 2.624500
6.207600 2.704100
6.223100 2.755100
6.238600 2.845400
6.254100 2.875600
6.269600 2.951700
6.285100 3.017300
6.300600 3.071300
6.316100 3.133300
6.331600 3.203200
6.347100 3.323200
6.362600 3.350600
6.378100 3.736400
6.393600 3.771400
6.409000 3.824100
6.424500 3.868800
6.440000 3.845100
6.455500 3.684600
6.471000 3.462900
6.486500 3.279000
6.502000 3.266400
6.517500 2.566500
6.533000 2.347100
6.548500 2.157300
6.564000 2.021800
6.579500 1.929900
6.595000 1.860200
6.610500 1.817900
6.626000 1.792700
6.641500 1.783800
6.657000 1.791800
6.672500 1.819600
6.688000 1.866100
6.703500 2.000700
6.719000 2.481600
6.734500 2.383200
6.750000 2.279300
6.765500 2.209200
6.781000 2.193600
6.796500 2.193400
6.812000 2.203500
6.827500 2.158300
6.843000 2.191800
6.858500 2.218900
6.874000 2.277800
6.889500 2.222300
6.904900 2.249300
6.920400 2.284400
6.935900 2.321600
6.951400 2.387000
6.966900 2.439800
6.982400 2.483900
6.997900 2.506200
7.013400 2.520200
7.028900 2.534300
7.044400 2.568500
7.059900 2.619900
7.075400 2.674200
7.090900 2.724500
7.106400 2.775300
7.121900 2.826800
7.137400 3.468100
7.152900 2.948300
7.168400 2.990500
7.183900 3.031400
7.199400 3.065700
7.214900 3.100800
7.230400 3.104600
7.245900 3.127900
7.261400 3.198800
7.276900 3.187300
7.292400 3.187000
7.307900 3.172700
7.323400 3.133300
7.338900 3.046500
7.354400 2.878000
7.369900 2.732900
7.385400 2.606800
7.400800 2.479900
7.416300 2.351100
7.431800 2.197000
7.447300 2.012800
7.462800 1.928300
7.478300 1.928100
7.493800 1.946200
7.509300 1.911000
7.524800 1.879200
7.540300 1.854600
7.555800 1.834700
7.571300 1.819300
7.586800 1.808500
7.602300 1.802300
7.617800 1.800700
7.633300 1.844400
7.648800 1.913700
7.664300 1.924700
7.679800 1.935100
7.695300 1.957000
7.710800 1.982500
7.726300 2.012900
7.741800 2.067300
7.757300 2.104600
7.772800 2.174700
7.788300 2.237600
7.803800 2.347000
7.819300 2.389200
7.834800 2.426600
7.850300 2.459900
7.865800 2.475900
7.881300 2.458900
7.896700 2.414600
7.912200 2.355500
7.927700 2.316100
7.943200 2.298100
7.958700 2.297600
7.974200 2.308500
7.989700 2.329400
8.005200 2.321900
8.020700 2.334300
8.036200 2.383400
8.051700 2.447900
8.067200 2.528900
8.082700 2.599900
8.098200 2.668400
8.113700 2.713100
8.129200 2.764900
8.144700 2.810500
8.160200 2.849700
8.175700 2.878700
8.191200 2.898500
8.206700 3.017800
8.222200 3.065400
8.237700 3.102800
8.253200 3.126200
8.268700 3.158600
8.284200 3.158500
8.299700 3.098500
8.315200 3.127100
8.330700 3.164900
8.346200 3.202600
8.361700 3.232400
8.377200 3.253500
8.392600 3.265100
8.408100 3.270700
8.423600 3.303400
8.439100 3.343600
8.454600 3.371900
8.470100 3.397200
8.485600 3.449500
8.501100 3.291100
8.516600 3.306500
8.532100 3.261300
8.547600 3.228200
8.563100 3.190200
8.578600 3.159600
8.594100 3.098600
8.609600 3.102000
8.625100 3.164000
8.640600 3.236300
8.656100 3.300700
8.671600 3.342900
8.687100 3.372000
8.702600 3.469900
8.718100 3.497700
8.733600 3.572700
8.749100 3.604000
8.764600 3.695500
8.780100 3.752100
8.795600 3.803200
8.811100 3.852400
8.826600 3.872000
8.842100 3.857400
8.857600 3.815800
8.873100 3.761700
8.888500 3.693700
8.904000 3.645000
8.919500 3.543700
8.935000 3.417600
8.950500 3.244100
8.966000 2.971400
8.981500 2.761800
8.997000 2.606100
9.012500 2.588300
9.028000 2.569100
9.043500 2.551900
9.059000 2.524300
9.074500 2.520400
9.090000 2.517000
9.105500 2.512700
9.121000 2.504600
9.136500 2.801400
9.152000 2.925400
9.167500 2.896500
9.183000 2.867600
9.198500 2.880900
9.214000 2.896400
9.229500 2.910700
9.245000 2.927700
9.260500 2.946700
9.276000 2.967400
9.291500 2.989600
9.307000 3.012300
9.322500 3.034800
9.338000 3.055800
9.353500 3.074000
9.369000 3.090000
9.384400 3.104000
9.399900 3.114000
9.415400 3.117200
9.430900 3.114400
9.446400 3.112900
9.461900 3.114200
9.477400 3.118100
9.492900 3.125500
9.508400 3.134700
9.523900 3.106800
9.539400 3.082800
9.554900 3.031000
9.570400 2.969300
9.585900 2.923200
9.601400 2.907200
9.616900 2.921100
9.632400 2.957000
9.647900 3.015800
9.663400 3.005800
9.678900 2.989900
9.694400 2.967900
9.709900 2.961600
9.725400 2.984900
9.740900 3.003400
9.756400 3.014600
9.771900 3.036400
9.787400 3.054200
9.802900 3.067900
9.818400 3.076500
9.833900 3.070600
9.849400 3.112800
9.864900 3.110700
9.880300 3.095800
9.895800 3.073100
9.911300 3.042700
9.926800 2.914000
9.942300 2.848000
9.957800 2.798400
9.973300 2.773400
9.988800 2.732500
10.004300 2.681000
10.019800 2.634900
10.035300 2.648600
10.050800 2.665300
10.066300 2.683000
10.081800 2.701700
10.097300 2.724300
10.112800 2.763800
10.128300 2.810600
10.143800 3.011300
10.159300 3.141400
10.174800 3.236400
10.190300 3.349000
10.205800 3.452100
10.221300 3.426200
10.236800 3.396100
10.252300 3.322500
10.267800 3.308400
10.283300 3.315500
10.298800 3.335700
10.314300 3.370300
10.329800 3.573500
10.345300 3.610900
10.360800 3.640800
10.376200 3.660300
10.391700 3.663300
10.407200 3.591000
10.422700 3.558600
10.438200 3.512500
10.453700 3.829600
10.469200 3.680800
10.484700 3.606800
10.500200 3.558500
10.515700 3.613300
10.531200 3.725000
10.546700 3.730700
10.562200 3.724100
10.577700 3.696200
10.593200 3.659500
10.608700 3.613800
10.624200 3.579000
10.639700 3.545200
10.655200 3.531400
10.670700 3.493300
10.686200 3.413300
10.701700 3.360500
10.717200 3.316900
10.732700 3.289200
10.748200 3.271300
10.763700 3.252000
10.779200 3.225100
10.794700 3.199200
10.810200 3.172300
10.825700 3.124100
10.841200 3.071200
10.856700 3.089700
10.872100 3.101700
10.887600 3.109200
10.903100 3.117000
10.918600 3.110300
10.934100 3.111000
10.949600 3.113200
10.965100 3.117200
10.980600 3.123900
10.996100 3.131900
11.011600 3.143600
11.027100 3.160600
11.042600 3.223000
11.058100 3.276600
11.073600 3.390700
11.089100 3.443600
11.104600 3.433900
11.120100 3.452600
11.135600 3.586100
11.151100 3.636900
11.166600 3.698900
11.182100 3.765800
11.197600 3.847300
11.213100 3.903500
11.228600 3.940200
11.244100 3.983600
11.259600 4.040600
11.275100 4.085900
11.290600 4.113300
11.306100 4.035700
11.321600 3.969700
11.337100 3.892200
11.352600 3.814500
11.368000 3.685300
11.383500 3.573200
11.399000 3.480700
11.414500 3.393000
11.430000 3.437600
11.445500 3.213000
11.461000 3.122700
11.476500 3.069900
11.492000 3.068300
11.507500 3.066000
11.523000 3.035800
11.538500 3.043800
11.554000 3.106600
11.569500 3.201600
11.585000 3.269600
11.600500 3.236200
11.616000 3.288200
11.631500 3.327000
11.647000 3.372800
11.662500 3.397300
11.678000 3.458600
11.693500 3.513700
11.709000 3.563000
11.724500 3.595800
11.740000 3.572900
11.755500 3.501900
11.771000 3.455000
11.786500 3.404400
11.802000 3.317400
11.817500 3.231200
11.833000 3.150500
11.848500 3.081200
11.863900 3.151500
11.879400 3.150200
11.894900 2.900500
11.910400 2.767300
11.925900 2.743400
11.941400 2.731800
11.956900 2.703300
11.972400 2.678400
11.987900 2.657500
12.003400 2.657800
12.018900 2.667900
12.034400 2.681500
12.049900 2.814900
12.065400 2.854900
12.080900 2.864700
12.096400 2.870100
12.111900 2.872000
12.127400 2.961000
12.142900 2.976500
12.158400 2.969100
12.173900 3.084200
12.189400 3.194900
12.204900 3.322600
12.220400 3.461800
12.235900 3.568400
12.251400 3.525400
12.266900 3.498000
12.282400 3.477100
12.297900 3.456800
12.313400 3.434700
12.328900 3.369100
12.344400 3.389800
12.359800 3.424900
12.375300 3.437300
12.390800 3.457800
12.406300 3.468800
12.421800 3.471500
12.437300 3.464200
12.452800 3.451000
12.468300 3.450000
12.483800 3.490300
12.499300 3.529200
12.514800 3.546400
12.530300 3.552400
12.545800 3.536000
12.561300 3.510400
12.576800 3.403500
12.592300 3.139700
12.607800 2.951500
12.623300 2.832100
12.638800 2.693400
12.654300 2.554500
12.669800 2.529700
12.685300 2.592800
12.700800 2.668300
12.716300 2.424400
12.731800 2.531900
12.747300 2.655500
12.762800 2.789500
12.778300 3.765700
12.793800 3.876700
12.809300 3.906000
12.824800 3.733400
12.840200 3.431500
12.855700 3.138400
12.871200 2.954600
12.886700 2.812800
12.902200 2.719300
12.917700 2.664500
12.933200 2.638300
12.948700 2.618900
12.964200 2.616800
12.979700 2.605600
12.995200 2.591400
13.010700 2.584100
13.026200 2.578200
13.041700 2.548400
13.057200 2.518700
13.072700 2.490400
13.088200 2.462300
13.103700 2.448000
13.119200 2.442300
13.134700 2.402800
13.150200 2.356200
13.165700 2.300100
13.181200 2.313600
13.196700 2.081600
13.212200 2.030400
13.227700 2.012800
13.243200 1.998800
13.258700 1.989600
13.274200 1.976100
13.289700 2.020900
13.305200 2.078400
13.320700 2.163400
13.336100 2.119800
13.351600 2.105500
13.367100 2.092700
13.382600 2.081500
13.398100 2.113000
13.413600 2.136900
13.429100 2.165000
13.444600 2.187500
13.460100 2.203900
13.475600 2.217700
13.491100 2.230700
13.506600 2.244700
13.522100 2.260200
13.537600 2.277000
13.553100 2.289400
13.568600 2.307300
13.584100 2.318900
13.599600 2.319100
13.615100 2.320600
13.630600 2.323500
13.646100 2.329900
13.661600 2.298900
13.677100 2.243400
13.692600 2.247300
13.708100 2.249200
13.723600 2.254200
13.739100 2.258200
13.754600 2.265700
13.770100 2.287600
13.785600 2.321800
13.801100 2.368300
13.816600 2.398100
13.832000 2.435800
13.847500 2.558900
13.863000 2.641900
13.878500 2.667200
13.894000 2.656400
13.909500 2.629200
13.925000 2.603300
13.940500 2.580900
13.956000 2.563400
13.971500 2.550800
13.987000 2.529900
14.002500 2.484700
14.018000 2.446500
14.033500 2.385400
14.049000 2.309400
14.064500 2.234100
14.080000 2.164600
14.095500 2.093400
14.111000 2.021900
14.126500 1.953700
14.142000 1.891200
14.157500 1.834600
14.173000 1.783700
14.188500 1.738700
14.204000 1.699000
14.219500 1.663800
14.235000 1.646000
14.250500 1.636200
14.266000 1.633400
14.281500 1.628000
14.297000 1.619100
14.312500 1.618100
14.327900 1.630100
14.343400 1.659700
14.358900 1.703500
14.374400 1.809600
14.389900 1.840400
14.405400 1.870600
14.420900 1.907400
14.436400 1.953500
14.451900 1.968900
14.467400 1.888400
14.482900 1.828000
14.498400 1.778500
14.513900 1.712800
14.529400 1.661900
14.544900 1.611700
14.560400 1.596600
14.575900 1.583600
14.591400 1.601000
14.606900 1.611600
14.622400 1.611700
14.637900 1.580200
14.653400 1.570900
14.668900 1.582100
14.684400 1.601700
14.699900 1.621800
14.715400 1.636300
14.730900 1.645000
14.746400 1.653900
14.761900 1.685500
14.777400 1.719200
14.792900 1.760500
14.808400 1.803500
14.823800 1.886200
14.839300 1.981500
14.854800 2.064400
14.870300 2.219500
14.885800 2.386500
14.901300 2.578200
14.916800 2.893200
14.932300 3.101600
14.947800 3.234700
14.963300 3.349800
14.978800 3.439000
14.994300 3.534900
15.009800 3.571200
15.025300 3.633600
15.040800 3.709400
15.056300 3.489700
15.071800 3.457800
15.087300 3.488000
15.102800 3.448500
15.118300 3.367700
15.133800 3.484900
15.149300 3.432000
15.164800 3.220100
15.180300 3.118100
15.195800 3.191700
15.211300 3.266300
15.226800 3.321500
15.242300 3.340500
15.257800 3.337900
15.273300 3.293400
15.288800 3.281900
15.304300 3.223600
15.319700 3.226500
15.335200 3.260000
15.350700 3.265700
15.366200 3.360300
15.381700 3.268800
15.397200 3.131400
15.412700 3.064700
15.428200 3.048700
15.443700 3.022900
15.459200 2.980700
15.474700 2.936600
15.490200 2.890600
15.505700 2.836400
15.521200 2.822500
15.536700 2.877800
15.552200 2.839400
15.567700 2.833300
15.583200 2.845700
15.598700 2.873400
15.614200 2.887900
15.629700 2.973100
15.645200 2.903000
15.660700 2.816800
15.676200 2.806200
15.691700 2.710500
15.707200 2.669600
15.722700 2.623600
15.738200 2.586000
15.753700 2.548100
15.769200 2.511700
15.784700 2.479000
15.800200 2.449300
15.815600 2.421500
15.831100 2.395400
15.846600 2.371000
15.862100 2.348000
15.877600 2.329500
15.893100 2.308000
15.908600 2.289100
15.924100 2.277300
15.939600 2.271800
15.955100 2.267000
15.970600 2.242200
15.986100 2.263000
16.001600 2.280600
16.017100 2.302500
16.032600 2.356300
16.048100 2.454400
16.063600 2.746900
16.079100 2.717200
16.094600 3.132600
16.110100 4.381500
16.125600 3.068200
16.141100 2.970500
16.156600 2.941400
16.172100 2.970400
16.187600 3.029400
16.203100 3.050100
16.218600 3.106000
16.234100 3.159700
16.249600 3.241800
16.265100 3.356300
16.280600 3.517800
16.296100 3.801300
16.311500 3.904700
16.327000 3.983500
16.342500 4.085100
16.358000 4.169600
16.373500 4.243600
16.389000 4.280400
16.404500 4.304600
16.420000 4.337900
16.435500 4.397700
16.451000 4.518700
16.466500 4.625100
16.482000 4.773900
16.497500 4.928200
16.513000 5.161500
16.528500 5.353800
16.544000 5.321600
16.559500 5.272700
16.575000 5.142800
16.590500 4.948400
16.606000 4.838000
16.621500 4.729600
16.637000 4.634500
16.652500 4.543100
16.668000 4.479000
16.683500 4.470400
16.699000 4.479800
16.714500 4.474500
16.730000 4.448600
16.745500 4.403000
16.761000 4.333600
16.776500 4.306200
16.792000 4.303800
16.807400 4.302100
16.822900 4.277500
16.838400 4.301500
16.853900 4.302300
16.869400 4.350000
16.884900 4.390800
16.900400 4.521600
16.915900 4.818900
16.931400 5.027400
16.946900 5.039100
16.962400 5.023900
16.977900 5.005400
16.993400 4.997300
17.008900 5.021600
17.024400 5.087600
17.039900 5.151600
17.055400 5.214500
17.070900 5.276000
17.086400 5.344700
17.101900 5.460100
17.117400 5.591700
17.132900 5.985300
17.148400 5.991800
17.163900 6.013700
17.179400 6.048000
17.194900 6.170800
17.210400 6.187000
17.225900 6.209000
17.241400 6.174900
17.256900 6.140900
17.272400 6.102300
17.287900 6.063800
17.303300 6.036000
17.318800 6.049800
17.334300 6.088600
17.349800 6.148100
17.365300 6.202400
17.380800 6.109600
17.396300 5.935700
17.411800 5.797200
17.427300 5.750100
17.442800 5.764200
17.458300 5.765100
17.473800 5.741500
17.489300 5.726500
17.504800 5.784500
17.520300 5.717200
17.535800 5.657800
17.551300 5.590600
17.566800 5.620700
17.582300 5.785800
17.597800 5.950300
17.613300 5.757700
17.628800 5.593400
17.644300 5.477400
17.659800 5.369900
17.675300 5.294300
17.690800 5.240700
17.706300 5.143900
17.721800 5.034700
17.737300 4.990200
17.752800 4.947200
17.768300 4.878100
17.783800 4.795600
17.799200 4.676300
17.814700 4.709700
17.830200 4.770200
17.845700 4.837500
17.861200 4.912700
17.876700 5.065300
17.892200 5.302100
17.907700 5.349100
17.923200 5.351600
17.938700 5.322100
17.954200 5.278000
17.969700 5.239900
17.985200 5.211000
18.000700 5.153500
18.016200 5.108100
18.031700 5.035200
18.047200 5.045900
18.062700 5.207200
18.078200 5.371100
18.093700 5.514800
18.109200 5.663700
18.124700 5.618500
18.140200 5.517200
18.155700 5.503500
18.171200 5.525300
18.186700 5.526600
18.202200 5.532000
18.217700 5.557800
18.233200 5.514900
18.248700 5.538300
18.264200 5.634500
18.279700 5.588400
18.295100 5.827700
18.310600 5.911000
18.326100 6.023800
18.341600 5.981200
18.357100 5.864400
18.372600 5.617500
18.388100 5.373600
18.403600 5.150100
18.419100 4.881900
18.434600 4.671200
18.450100 4.591800
18.465600 4.549700
18.481100 4.520400
18.496600 4.499000
18.512100 4.515000
18.527600 4.513000
18.543100 4.607500
18.558600 4.622900
18.574100 4.660500
18.589600 4.712600
18.605100 4.772400
18.620600 4.844300
18.636100 4.881000
18.651600 4.888200
18.667100 4.784200
18.682600 4.911700
18.698100 4.832200
18.713600 4.642100
18.729100 4.622400
18.744600 4.584700
18.760100 4.530900
18.775600 4.378000
18.791000 4.402500
18.806500 4.434800
18.822000 4.471500
18.837500 4.523900
18.853000 4.533500
18.868500 4.562100
18.884000 4.597300
18.899500 4.634800
18.915000 4.670400
18.930500 4.831100
18.946000 5.254400
18.961500 5.214600
18.977000 4.933000
18.992500 4.921400
19.008000 5.001700
19.023500 5.028700
19.039000 5.003300
19.054500 5.031900
19.070000 5.072900
19.085500 5.093600
19.101000 4.984700
19.116500 4.978900
19.132000 4.967700
19.147500 4.945800
19.163000 4.815000
19.178500 4.842400
19.194000 4.862700
19.209500 4.838500
19.225000 4.744700
19.240500 4.658800
19.256000 4.662700
19.271500 4.725700
19.286900 4.764500
19.302400 4.803000
19.317900 4.817000
19.333400 4.835600
19.348900 4.841100
19.364400 4.831500
19.379900 4.719700
19.395400 4.695500
19.410900 4.687800
19.426400 4.716500
19.441900 4.430300
19.457400 4.301300
19.472900 4.302200
19.488400 4.317700
19.503900 4.266500
19.519400 4.214100
19.534900 4.345300
19.550400 4.363500
19.565900 4.379700
19.581400 4.621700
19.596900 4.508300
19.612400 4.448900
19.627900 4.418100
19.643400 4.373200
19.658900 4.313300
19.674400 4.274600
19.689900 4.194600
19.705400 4.160000
19.720900 4.127900
19.736400 4.084900
19.751900 4.044000
19.767400 4.049100
19.782800 4.066000
19.798300 4.088500
19.813800 4.160100
19.829300 4.191600
19.844800 4.213200
19.860300 4.269100
19.875800 4.274400
19.891300 4.293000
19.906800 4.318100
19.922300 4.332100
19.937800 4.316900
19.953300 4.295600
19.968800 4.275100
19.984300 4.299300
19.999800 4.362200
20.015300 4.396000
20.030800 4.482300
20.046300 4.511900
20.061800 4.511700
20.077300 4.508700
20.092800 4.505400
20.108300 4.408600
20.123800 4.354400
20.139300 4.264900
20.154800 4.239300
20.170300 4.233500
20.185800 4.243800
20.201300 4.268900
20.216800 4.305000
20.232300 4.411500
20.247800 4.475800
20.263300 4.550000
20.278700 4.570500
20.294200 4.575700
20.309700 4.583500
20.325200 4.592700
20.340700 4.594100
20.356200 4.571500
20.371700 4.534200
20.387200 4.388900
20.402700 4.207700
20.418200 4.194500
20.433700 4.182200
20.449200 4.203700
20.464700 4.241900
20.480200 4.306700
20.495700 4.412000
20.511200 4.485700
20.526700 4.587900
20.542200 4.656000
20.557700 4.739700
20.573200 4.813200
20.588700 4.876600
20.604200 4.936200
20.619700 4.992300
20.635200 5.060700
20.650700 5.141200
20.666200 5.225100
20.681700 5.184200
20.697200 5.152600
20.712700 5.249700
20.728200 5.246000
20.743700 5.257500
20.759200 5.270400
20.774600 5.302100
20.790100 5.384600
20.805600 5.474700
20.821100 5.516400
20.836600 5.297800
20.852100 5.230700
20.867600 5.179300
20.883100 5.130900
20.898600 5.115400
20.914100 5.163000
20.929600 5.242900
20.945100 5.346300
20.960600 5.449600
20.976100 5.732400
20.991600 5.719700
21.007100 5.769600
21.022600 5.457500
21.038100 5.499400
21.053600 5.471100
21.069100 5.448000
21.084600 5.428500
21.100100 5.382400
21.115600 5.264900
21.131100 5.216400
21.146600 5.214600
21.162100 5.280000
21.177600 5.264300
21.193100 5.233900
21.208600 5.044300
21.224100 4.785900
21.239600 4.612900
21.255000 4.519800
21.270500 4.704100
21.286000 4.679300
21.301500 4.743000
21.317000 4.826000
21.332500 4.919200
21.348000 5.030100
21.363500 5.251000
21.379000 5.317100
21.394500 5.077400
21.410000 4.923100
21.425500 4.797300
21.441000 4.689600
21.456500 4.608700
21.472000 4.674300
21.487500 4.040100
21.503000 3.967200
21.518500 3.920600
21.534000 3.915300
21.549500 3.921500
21.565000 3.944200
21.580500 4.123700
21.596000 3.672400
21.611500 3.712900
21.627000 4.004900
21.642500 2.654300
21.658000 2.388300
21.673500 2.276700
21.689000 2.178600
21.704500 2.084600
21.720000 1.992600
21.735500 1.893600
21.750900 1.793400
21.766400 1.728100
21.781900 1.682700
21.797400 1.656100
21.812900 1.631700
21.828400 1.609200
21.843900 1.595100
21.859400 1.594800
21.874900 1.583300
21.890400 1.566500
21.905900 1.545600
21.921400 1.528400
21.936900 1.498600
21.952400 1.454700
21.967900 1.395400
21.983400 1.314600
21.998900 1.233200
22.014400 1.149200
22.029900 1.067300
22.045400 0.978700
22.060900 0.878800
22.076400 0.725100
22.091900 0.285500
22.107400 0.252800
22.122900 0.221600
22.138400 0.192500
22.153900 0.167800
22.169400 0.146300
22.184900 0.128000
22.200400 0.112900
22.215900 0.101000
22.231400 0.092300
22.246800 0.086300
22.262300 0.080500
22.277800 0.074400
22.293300 0.068100
22.308800 0.061600
22.324300 0.054900
22.339800 0.057000
22.355300 0.036800
22.370800 0.021000
22.386300 0.009600
22.401800 0.002600
22.417300 0.000000
22.432800 0.000000
22.448300 0.000000
22.463800 0.000000
22.479300 0.000000
22.494800 0.000000
22.510300 0.000000
22.525800 0.000000
22.541300 0.000000
22.556800 0.000000
22.572300 0.000000
22.587800 0.000000
22.603300 0.000000
22.618800 0.000000
22.634300 0.000000
22.649800 0.000000
22.665300 0.000000
22.680800 0.000000
22.696300 0.000000
22.711800 0.000000
22.727300 0.000000
22.742700 0.000000
22.758200 0.000000
22.773700 0.000000
22.789200 0.000000
22.804700 0.000000
22.820200 0.000000
22.835700 0.000000
22.851200 0.000000
22.866700 0.000000
22.882200 0.000000
22.897700 0.000000
22.913200 0.000000
22.928700 0.000000
22.944200 0.000000
22.959700 0.000000
22.975200 0.000000
22.990700 0.000000
23.006200 0.000000
23.021700 0.000000
23.037200 0.000000
23.052700 0.000000
23.068200 0.000000
23.083700 0.000000
23.099200 0.000000
23.114700 0.000000
23.130200 0.000000
23.145700 0.000000
23.161200 0.000000
23.176700 0.000000
23.192200 0.000000
23.207700 0.000000
23.223200 0.000000
23.238600 0.000000
23.254100 0.000000
23.269600 0.000000
23.285100 0.000000
23.300600 0.000000
23.316100 0.000000
23.331600 0.000000
23.347100 0.000000
23.362600 0.000000
23.378100 0.000000
23.393600 0.000000
23.409100 0.000000
23.424600 0.000000
23.440100 0.000000
23.455600 0.000000
23.471100 0.000000
23.486600 0.000000
23.502100 0.000000
23.517600 0.000000
23.533100 0.000000
23.548600 0.000000
23.564100 0.000000
23.579600 0.000000
23.595100 0.000000
23.610600 0.000000
23.626100 0.000000
23.641600 0.000000
23.657100 0.000000
23.672600 0.000000
23.688100 0.000000
23.703600 0.000000
23.719100 0.000000
23.734500 0.000000
23.750000 0.000000
23.765500 0.000000
23.781000 0.000000
23.796500 0.000000
23.812000 0.000000
23.827500 0.000000
e
