set title 'mp-1067793 - Density of States'
set xlabel 'Energy (eV)'
set ylabel 'DOS (states/eV)'
set grid
set xrange [-10:10]
set yrange [0:7.572]
set xzeroaxis lt -1
set terminal png size 800,600
set output 'mp-1067793_dos_gnuplot.png'
plot '-' using 1:2 with lines title 'DOS'
-31.070300 0.000000
-31.030000 0.000000
-30.989600 0.000000
-30.949300 0.000000
-30.908900 0.000000
-30.868600 0.000000
-30.828200 0.000000
-30.787900 0.000000
-30.747500 0.000000
-30.707200 0.000000
-30.666800 0.000000
-30.626500 0.000000
-30.586100 0.000000
-30.545800 0.000000
-30.505400 0.000000
-30.465100 0.000000
-30.424700 0.000000
-30.384400 0.000000
-30.344000 0.000000
-30.303700 0.000000
-30.263300 0.000000
-30.223000 0.000000
-30.182600 0.000000
-30.142300 0.000000
-30.101900 0.000000
-30.061600 0.000000
-30.021200 0.000000
-29.980900 0.000000
-29.940500 0.000000
-29.900200 0.000000
-29.859800 0.000000
-29.819500 0.000000
-29.779100 0.000000
-29.738800 0.000000
-29.698400 0.000000
-29.658100 0.000000
-29.617700 0.000000
-29.577400 0.000000
-29.537000 0.000000
-29.496700 0.000000
-29.456300 0.000000
-29.416000 0.000000
-29.375600 0.000000
-29.335300 0.000000
-29.294900 0.000000
-29.254600 0.000000
-29.214200 0.000000
-29.173900 0.000000
-29.133500 0.000000
-29.093200 0.000000
-29.052800 0.000000
-29.012500 0.000000
-28.972100 0.000000
-28.931800 0.000000
-28.891400 0.000000
-28.851100 0.000000
-28.810700 0.000000
-28.770400 0.000000
-28.730000 0.000000
-28.689700 0.000000
-28.649300 0.000000
-28.609000 0.000000
-28.568600 0.000000
-28.528300 0.000000
-28.487900 0.000000
-28.447600 0.000000
-28.407200 0.000000
-28.366900 0.000000
-28.326500 0.000000
-28.286200 0.000000
-28.245800 0.000000
-28.205500 0.000000
-28.165100 0.000000
-28.124800 0.000000
-28.084400 0.000000
-28.044100 0.000000
-28.003700 0.000000
-27.963400 0.000000
-27.923000 0.000000
-27.882700 0.000000
-27.842300 0.000000
-27.802000 0.000000
-27.761600 0.000000
-27.721300 0.000000
-27.680900 0.000000
-27.640600 0.000000
-27.600200 0.000000
-27.559900 0.000000
-27.519500 0.000000
-27.479200 0.000000
-27.438800 0.000000
-27.398500 0.013600
-27.358100 0.572300
-27.317800 0.835100
-27.277400 1.114400
-27.237100 1.349100
-27.196700 1.655800
-27.156400 1.980700
-27.116000 2.411200
-27.075700 3.224200
-27.035300 3.647600
-26.995000 3.586600
-26.954600 3.560400
-26.914300 3.528500
-26.873900 3.503900
-26.833600 3.484400
-26.793200 2.968300
-26.752900 2.651900
-26.712500 2.431100
-26.672200 2.283500
-26.631800 2.195000
-26.591500 2.100200
-26.551100 1.981900
-26.510800 1.895100
-26.470400 1.840500
-26.430100 1.792200
-26.389700 1.741800
-26.349400 1.691900
-26.309000 1.644700
-26.268700 1.606900
-26.228300 1.570500
-26.188000 1.536200
-26.147600 1.506900
-26.107300 1.474900
-26.066900 1.446400
-26.026600 1.423100
-25.986200 1.407100
-25.945900 1.383800
-25.905500 1.357300
-25.865200 1.337800
-25.824800 1.321900
-25.784500 1.301800
-25.744100 1.282700
-25.703800 1.267000
-25.663400 1.260000
-25.623100 1.255600
-25.582700 1.259900
-25.542400 1.295600
-25.502000 1.400600
-25.461700 1.479500
-25.421300 1.544300
-25.381000 1.603600
-25.340600 1.448300
-25.300300 1.241400
-25.259900 1.019600
-25.219600 0.800700
-25.179200 0.470400
-25.138900 0.039500
-25.098500 0.312500
-25.058200 0.716100
-25.017800 0.959200
-24.977500 1.195700
-24.937100 1.408100
-24.896800 1.456700
-24.856400 1.384700
-24.816100 1.318900
-24.775700 1.261200
-24.735400 1.196300
-24.695000 1.134800
-24.654700 1.073000
-24.614300 1.053000
-24.574000 1.045700
-24.533600 1.041100
-24.493300 1.037000
-24.452900 1.035900
-24.412600 1.035900
-24.372200 1.035900
-24.331900 1.035900
-24.291500 1.035700
-24.251200 1.035600
-24.210800 1.035300
-24.170500 1.034800
-24.130100 1.033400
-24.089800 1.032400
-24.049400 1.031600
-24.009100 1.031100
-23.968700 1.031100
-23.928400 1.031100
-23.888000 1.031600
-23.847700 1.034900
-23.807300 1.038800
-23.767000 1.043500
-23.726600 1.050400
-23.686300 1.057600
-23.645900 1.064600
-23.605600 1.070200
-23.565200 1.075100
-23.524900 1.076200
-23.484500 1.076200
-23.444200 1.076200
-23.403800 1.076600
-23.363500 1.086800
-23.323100 1.098900
-23.282800 1.115400
-23.242400 1.138600
-23.202100 1.158200
-23.161700 1.181600
-23.121400 1.199400
-23.081000 1.202000
-23.040700 1.202100
-23.000300 1.202100
-22.960000 1.205600
-22.919600 1.235000
-22.879300 1.273000
-22.838900 1.332300
-22.798600 1.381000
-22.758200 1.444700
-22.717900 1.495800
-22.677500 1.495800
-22.637200 1.495900
-22.596800 1.521000
-22.556500 1.627800
-22.516100 1.805500
-22.475800 1.946800
-22.435400 2.112700
-22.395100 2.285300
-22.354700 2.556100
-22.314400 3.560600
-22.274000 4.013900
-22.233700 3.160800
-22.193300 3.086100
-22.153000 1.725800
-22.112600 0.000000
-22.072300 0.000000
-22.031900 0.000000
-21.991600 0.000000
-21.951200 0.000000
-21.910900 0.000000
-21.870500 0.000000
-21.830200 0.000000
-21.789800 0.000000
-21.749500 0.000000
-21.709100 0.000000
-21.668800 0.000000
-21.628400 0.000000
-21.588100 0.000000
-21.547700 0.000000
-21.507400 0.000000
-21.467000 0.000000
-21.426700 0.000000
-21.386300 0.000000
-21.346000 0.000000
-21.305600 0.000000
-21.265300 0.000000
-21.224900 0.000000
-21.184600 0.000000
-21.144200 0.000000
-21.103900 0.000000
-21.063500 0.000000
-21.023200 0.000000
-20.982800 0.000000
-20.942500 0.000000
-20.902100 0.000000
-20.861800 0.000000
-20.821400 0.000000
-20.781100 0.000000
-20.740700 0.000000
-20.700400 0.000000
-20.660000 0.000000
-20.619700 0.000000
-20.579300 0.000000
-20.539000 0.000000
-20.498600 0.000000
-20.458300 0.000000
-20.417900 0.000000
-20.377600 0.000000
-20.337200 0.000000
-20.296900 0.000000
-20.256500 0.000000
-20.216200 0.000000
-20.175800 0.000000
-20.135500 0.000000
-20.095100 0.000000
-20.054800 0.000000
-20.014400 0.000000
-19.974100 0.000000
-19.933700 0.000000
-19.893400 0.000000
-19.853000 0.000000
-19.812700 0.000000
-19.772300 0.000000
-19.732000 0.000000
-19.691600 0.000000
-19.651300 0.000000
-19.610900 0.000000
-19.570600 0.000000
-19.530200 0.000000
-19.489900 0.000000
-19.449500 0.000000
-19.409200 0.000000
-19.368800 0.000000
-19.328500 0.000000
-19.288100 0.000000
-19.247800 0.000000
-19.207400 0.000000
-19.167100 0.000000
-19.126700 0.000000
-19.086400 0.000000
-19.046000 0.000000
-19.005700 0.000000
-18.965300 0.000000
-18.925000 0.000000
-18.884600 0.000000
-18.844300 0.000000
-18.803900 0.000000
-18.763600 0.000000
-18.723200 0.000000
-18.682900 0.000000
-18.642500 0.000000
-18.602200 0.000000
-18.561800 0.000000
-18.521500 0.000000
-18.481100 0.000000
-18.440800 0.000000
-18.400400 0.000000
-18.360100 0.000000
-18.319700 0.000000
-18.279400 0.000000
-18.239000 0.000000
-18.198700 0.000000
-18.158300 0.000000
-18.118000 0.000000
-18.077600 0.000000
-18.037300 0.000000
-17.996900 0.000000
-17.956600 0.000000
-17.916200 0.000000
-17.875900 0.000000
-17.835500 0.000000
-17.795200 0.000000
-17.754800 0.000000
-17.714500 0.000000
-17.674100 0.000000
-17.633800 0.000000
-17.593400 0.000000
-17.553100 0.000000
-17.512700 0.000000
-17.472400 0.000000
-17.432000 0.000000
-17.391700 0.000000
-17.351300 0.000000
-17.311000 0.000000
-17.270600 0.000000
-17.230300 0.000000
-17.189900 0.000000
-17.149600 0.000000
-17.109200 0.000000
-17.068900 0.000000
-17.028500 0.000000
-16.988200 0.000000
-16.947800 0.000000
-16.907500 0.000000
-16.867100 0.000000
-16.826800 0.000000
-16.786400 0.000000
-16.746100 0.000000
-16.705700 0.000000
-16.665400 0.000000
-16.625000 0.000000
-16.584700 0.000000
-16.544300 0.000000
-16.504000 0.000000
-16.463600 0.000000
-16.423300 0.000000
-16.382900 0.000000
-16.342600 0.000000
-16.302200 0.000000
-16.261900 0.000000
-16.221500 0.000000
-16.181200 0.000000
-16.140800 0.000000
-16.100500 0.000000
-16.060100 0.000000
-16.019800 0.000000
-15.979400 0.000000
-15.939100 0.000000
-15.898700 0.000000
-15.858400 0.000000
-15.818000 0.000000
-15.777700 0.000000
-15.737300 0.000000
-15.697000 0.000000
-15.656600 0.000000
-15.616300 0.000000
-15.575900 0.000000
-15.535600 0.000000
-15.495200 0.000000
-15.454900 0.000000
-15.414500 0.000000
-15.374200 0.000000
-15.333800 0.000000
-15.293500 0.000000
-15.253100 0.000000
-15.212800 0.000000
-15.172400 0.000000
-15.132100 0.000000
-15.091700 0.000000
-15.051400 0.000000
-15.011000 0.000000
-14.970700 0.000000
-14.930300 0.000000
-14.890000 0.000000
-14.849600 0.000000
-14.809300 0.000000
-14.768900 0.000000
-14.728600 0.000000
-14.688200 0.000000
-14.647900 0.000000
-14.607500 0.000000
-14.567200 0.000000
-14.526800 0.000000
-14.486500 0.000000
-14.446100 0.000000
-14.405800 0.000000
-14.365400 0.000000
-14.325100 0.000000
-14.284700 0.000000
-14.244400 0.000000
-14.204000 0.000000
-14.163700 0.000000
-14.123300 0.000000
-14.083000 0.000000
-14.042600 0.000000
-14.002300 0.000000
-13.961900 0.000000
-13.921600 0.000000
-13.881200 0.000000
-13.840900 0.000000
-13.800500 0.000000
-13.760200 0.000000
-13.719800 0.000000
-13.679500 0.000000
-13.639100 0.000000
-13.598800 0.000000
-13.558400 0.000000
-13.518100 0.000000
-13.477700 0.000000
-13.437400 0.000000
-13.397000 0.000000
-13.356700 0.000000
-13.316300 0.000000
-13.276000 0.000000
-13.235600 0.000000
-13.195300 0.000000
-13.154900 0.000000
-13.114600 0.000000
-13.074200 0.000000
-13.033900 0.000000
-12.993500 0.000000
-12.953200 0.000000
-12.912800 0.000000
-12.872500 0.000000
-12.832100 0.000000
-12.791800 0.000000
-12.751400 0.000000
-12.711100 0.000000
-12.670700 0.000000
-12.630400 0.000000
-12.590000 0.000000
-12.549700 0.000000
-12.509300 0.000000
-12.469000 0.000000
-12.428600 0.000000
-12.388300 0.000000
-12.347900 0.000000
-12.307600 0.000000
-12.267200 0.000000
-12.226900 0.000000
-12.186500 0.000000
-12.146200 0.000000
-12.105800 0.000000
-12.065500 0.000000
-12.025100 0.000000
-11.984800 0.000000
-11.944400 0.000000
-11.904100 0.000000
-11.863700 0.000000
-11.823400 0.000000
-11.783000 0.000000
-11.742700 0.000000
-11.702300 0.000000
-11.662000 0.000000
-11.621600 0.000000
-11.581300 0.000000
-11.540900 0.000000
-11.500600 0.000000
-11.460200 0.000000
-11.419900 0.000000
-11.379500 0.000000
-11.339200 0.000000
-11.298800 0.000000
-11.258500 0.000000
-11.218100 0.000000
-11.177800 0.000000
-11.137400 0.000000
-11.097100 0.000000
-11.056700 0.000000
-11.016400 0.000000
-10.976000 0.000000
-10.935700 0.097900
-10.895300 0.368600
-10.855000 0.671800
-10.814600 0.886800
-10.774300 1.120400
-10.733900 1.421300
-10.693600 2.047900
-10.653200 2.479400
-10.612900 2.548300
-10.572500 2.462900
-10.532200 2.509100
-10.491800 2.496300
-10.451500 2.060000
-10.411100 1.833100
-10.370800 1.714900
-10.330400 1.613000
-10.290100 1.487900
-10.249700 1.291900
-10.209400 1.292000
-10.169000 1.292100
-10.128700 1.292200
-10.088300 1.292400
-10.048000 1.293000
-10.007600 1.225600
-9.967300 1.173000
-9.926900 1.132800
-9.886600 1.095800
-9.846200 1.060100
-9.805900 1.060000
-9.765500 1.060000
-9.725200 1.060100
-9.684800 1.060100
-9.644500 1.052400
-9.604100 1.033200
-9.563800 1.022000
-9.523400 1.012400
-9.483100 1.002200
-9.442700 0.986000
-9.402400 0.975500
-9.362000 0.967500
-9.321700 0.960700
-9.281300 0.955300
-9.241000 0.950900
-9.200600 0.946100
-9.160300 0.940900
-9.119900 0.935900
-9.079600 0.932800
-9.039200 0.930400
-8.998900 0.928300
-8.958500 0.926300
-8.918200 0.925500
-8.877800 0.923400
-8.837500 0.920800
-8.797100 0.915900
-8.756800 0.911600
-8.716400 0.907800
-8.676100 0.904200
-8.635700 0.901400
-8.595400 0.900100
-8.555000 0.899300
-8.514700 0.898700
-8.474300 0.898200
-8.434000 0.898100
-8.393600 0.898100
-8.353300 0.896800
-8.312900 0.896000
-8.272600 0.895500
-8.232200 0.896700
-8.191900 0.902700
-8.151500 0.972000
-8.111200 1.165500
-8.070800 1.235900
-8.030500 1.320700
-7.990100 1.403200
-7.949800 1.479200
-7.909400 1.542400
-7.869100 1.500400
-7.828700 1.549500
-7.788400 1.599100
-7.748000 2.053800
-7.707700 2.100000
-7.667300 2.307800
-7.627000 2.663400
-7.586600 3.064400
-7.546300 3.502900
-7.505900 3.114300
-7.465600 2.484600
-7.425200 2.086800
-7.384900 1.899600
-7.344500 1.897100
-7.304200 1.891200
-7.263800 1.983800
-7.223500 2.170600
-7.183100 2.351400
-7.142800 2.863300
-7.102400 3.501300
-7.062100 3.794300
-7.021700 3.742200
-6.981400 3.664800
-6.941000 3.549700
-6.900700 3.378500
-6.860300 3.270000
-6.820000 3.267300
-6.779600 3.606700
-6.739300 3.622700
-6.698900 3.470200
-6.658600 3.286300
-6.618200 3.151700
-6.577900 3.232700
-6.537500 3.280000
-6.497200 3.363200
-6.456800 3.485300
-6.416500 3.625000
-6.376100 3.800600
-6.335800 4.035500
-6.295400 4.212600
-6.255100 4.341100
-6.214700 4.402200
-6.174400 4.242400
-6.134000 4.179600
-6.093700 4.231000
-6.053300 4.328600
-6.013000 4.582100
-5.972600 4.746700
-5.932300 5.098800
-5.891900 5.558800
-5.851600 5.108500
-5.811200 5.346900
-5.770900 6.883600
-5.730500 6.114300
-5.690200 5.267700
-5.649800 4.237000
-5.609500 3.516700
-5.569100 3.682900
-5.528800 3.145900
-5.488400 3.038300
-5.448100 3.264400
-5.407700 3.575700
-5.367400 4.440400
-5.327000 4.464300
-5.286700 4.814400
-5.246300 4.996400
-5.206000 4.216300
-5.165600 4.015000
-5.125300 4.469800
-5.084900 4.633100
-5.044600 4.767500
-5.004200 5.147300
-4.963900 4.909800
-4.923500 4.682600
-4.883200 4.895200
-4.842800 5.131800
-4.802500 5.251700
-4.762100 5.333400
-4.721800 5.524000
-4.681400 5.473200
-4.641100 5.260000
-4.600700 5.243100
-4.560400 5.332500
-4.520000 5.086400
-4.479700 5.380800
-4.439300 4.991000
-4.399000 3.260300
-4.358600 3.808100
-4.318300 3.668400
-4.277900 3.967900
-4.237600 4.345500
-4.197200 4.159600
-4.156900 4.162900
-4.116500 3.803100
-4.076200 3.528400
-4.035800 3.391200
-3.995500 3.284800
-3.955100 3.215500
-3.914800 3.151100
-3.874400 3.089700
-3.834100 3.059100
-3.793700 3.013600
-3.753400 2.920800
-3.713000 2.475100
-3.672700 2.005600
-3.632300 2.233200
-3.592000 2.451100
-3.551600 2.362000
-3.511300 1.990400
-3.470900 1.616900
-3.430600 0.950400
-3.390200 0.902100
-3.349900 0.902100
-3.309500 0.902100
-3.269200 0.902100
-3.228800 0.902100
-3.188500 0.902100
-3.148100 0.902100
-3.107800 0.897600
-3.067400 0.894700
-3.027100 0.894300
-2.986700 0.870800
-2.946400 0.870800
-2.906000 0.870800
-2.865700 0.870800
-2.825300 0.870700
-2.785000 0.870700
-2.744600 0.870700
-2.704300 0.870700
-2.663900 0.870700
-2.623600 0.870800
-2.583200 0.872900
-2.542900 0.877700
-2.502500 0.887300
-2.462200 0.908200
-2.421800 0.944600
-2.381500 0.975900
-2.341100 0.975900
-2.300800 0.975900
-2.260400 0.975900
-2.220100 0.975900
-2.179700 0.975900
-2.139400 0.975900
-2.099000 0.976100
-2.058700 0.983400
-2.018300 0.995800
-1.978000 1.023400
-1.937600 1.058800
-1.897300 1.158200
-1.856900 1.165800
-1.816600 1.165800
-1.776200 1.165800
-1.735900 1.165800
-1.695500 1.165900
-1.655200 1.165900
-1.614800 1.173100
-1.574500 1.203400
-1.534100 1.294300
-1.493800 1.445700
-1.453400 1.496200
-1.413100 1.496200
-1.372700 1.496200
-1.332400 1.496200
-1.292000 1.496300
-1.251700 1.496300
-1.211300 1.793100
-1.171000 2.058800
-1.130600 2.136100
-1.090300 2.135900
-1.049900 2.135800
-1.009600 2.548200
-0.969200 3.040300
-0.928900 4.076800
-0.888500 4.685400
-0.848200 3.749800
-0.807800 2.794200
-0.767500 2.573100
-0.727100 2.453300
-0.686800 2.085700
-0.646400 0.000000
-0.606100 0.000000
-0.565700 0.000000
-0.525400 0.000000
-0.485000 0.000000
-0.444700 0.000000
-0.404300 0.000000
-0.364000 0.000000
-0.323600 0.000000
-0.283300 0.000000
-0.242900 0.000000
-0.202600 0.000000
-0.162200 0.000000
-0.121900 0.000000
-0.081500 0.000000
-0.041200 0.000000
-0.000800 0.000000
0.039500 0.000000
0.079900 0.000000
0.120200 0.000000
0.160600 0.000000
0.200900 0.000000
0.241300 0.000000
0.281600 0.000000
0.322000 0.000000
0.362300 0.000000
0.402700 0.000000
0.443000 0.000000
0.483400 0.000000
0.523700 0.000000
0.564100 0.000000
0.604400 0.000000
0.644800 0.000000
0.685100 0.000000
0.725500 0.000000
0.765800 0.000000
0.806200 0.000000
0.846500 0.000000
0.886900 0.000000
0.927200 0.000000
0.967600 0.000000
1.007900 0.000000
1.048300 0.000000
1.088600 0.000000
1.129000 0.000000
1.169300 0.000000
1.209700 0.000000
1.250000 0.000000
1.290400 0.000000
1.330700 0.000000
1.371100 0.000000
1.411400 0.000000
1.451800 0.000000
1.492100 0.000000
1.532500 0.000000
1.572800 0.000000
1.613200 0.000000
1.653500 0.000000
1.693900 0.000000
1.734200 0.000000
1.774600 0.000000
1.814900 0.000000
1.855300 0.000000
1.895600 0.000000
1.936000 0.000000
1.976300 0.000000
2.016700 0.000000
2.057000 0.000000
2.097400 0.000000
2.137700 0.000000
2.178100 0.000000
2.218400 0.000000
2.258800 0.000000
2.299100 0.000000
2.339500 0.000000
2.379800 0.000000
2.420200 0.000000
2.460500 0.000000
2.500900 0.000000
2.541200 0.000000
2.581600 0.000000
2.621900 0.000000
2.662300 0.000000
2.702600 0.000000
2.743000 0.000000
2.783300 0.000000
2.823700 0.000000
2.864000 0.000000
2.904400 0.000000
2.944700 0.000000
2.985100 0.000000
3.025400 0.000000
3.065800 0.000000
3.106100 0.000000
3.146500 0.000000
3.186800 0.000000
3.227200 0.000000
3.267500 0.000000
3.307900 0.000000
3.348200 0.000000
3.388600 0.000000
3.428900 0.000000
3.469300 0.000000
3.509600 0.000000
3.550000 0.000000
3.590300 0.000000
3.630700 0.000000
3.671000 0.000000
3.711400 0.000000
3.751700 0.000000
3.792100 0.000000
3.832400 0.000000
3.872800 0.000000
3.913100 0.000000
3.953500 0.000000
3.993800 0.000000
4.034200 0.000000
4.074500 0.000000
4.114900 0.000000
4.155200 0.000000
4.195600 0.000000
4.235900 0.000000
4.276300 0.000000
4.316600 0.000000
4.357000 0.000000
4.397300 0.000000
4.437700 0.000000
4.478000 0.000000
4.518400 0.000000
4.558700 0.000000
4.599100 0.000000
4.639400 0.000000
4.679800 0.000000
4.720100 0.000000
4.760500 0.000000
4.800800 0.000000
4.841200 0.000000
4.881500 0.000000
4.921900 0.000000
4.962200 0.000000
5.002600 0.000000
5.042900 0.000000
5.083300 0.000000
5.123600 0.000000
5.164000 0.000000
5.204300 0.000000
5.244700 0.000000
5.285000 0.000000
5.325400 0.000000
5.365700 0.000000
5.406100 0.000000
5.446400 0.000000
5.486800 0.000000
5.527100 0.000000
5.567500 0.000000
5.607800 0.000000
5.648200 0.000000
5.688500 0.000000
5.728900 0.000000
5.769200 0.000000
5.809600 0.000000
5.849900 0.000000
5.890300 0.000000
5.930600 0.000000
5.971000 0.000000
6.011300 0.000000
6.051700 0.000000
6.092000 0.000000
6.132400 0.000000
6.172700 0.000000
6.213100 0.000000
6.253400 0.000000
6.293800 0.000000
6.334100 0.000000
6.374500 0.000000
6.414800 0.000000
6.455200 0.000000
6.495500 0.000000
6.535900 0.000000
6.576200 0.000000
6.616600 0.000000
6.656900 0.000000
6.697300 0.000000
6.737600 0.000000
6.778000 0.004300
6.818300 0.027000
6.858700 0.059800
6.899000 0.073600
6.939400 0.079500
6.979700 0.090000
7.020100 0.101300
7.060400 0.113200
7.100800 0.125500
7.141100 0.133800
7.181500 0.140200
7.221800 0.147500
7.262200 0.154200
7.302500 0.160900
7.342900 0.168400
7.383200 0.176400
7.423600 0.184700
7.463900 0.193300
7.504300 0.201900
7.544600 0.208300
7.585000 0.214500
7.625300 0.220600
7.665700 0.226600
7.706000 0.232700
7.746400 0.239100
7.786700 0.245900
7.827100 0.252800
7.867400 0.259700
7.907800 0.266800
7.948100 0.273900
7.988500 0.281200
8.028800 0.288300
8.069200 0.294700
8.109500 0.302100
8.149900 0.321900
8.190200 0.336300
8.230600 0.343500
8.270900 0.348100
8.311300 0.343500
8.351600 0.346100
8.392000 0.349200
8.432300 0.352200
8.472700 0.355200
8.513000 0.357800
8.553400 0.358800
8.593700 0.360300
8.634100 0.362900
8.674400 0.365500
8.714800 0.368000
8.755100 0.379400
8.795500 0.410300
8.835800 0.425200
8.876200 0.436200
8.916500 0.443200
8.956900 0.444900
8.997200 0.453200
9.037600 0.463300
9.077900 0.472200
9.118300 0.479800
9.158600 0.486700
9.199000 0.492500
9.239300 0.498300
9.279700 0.505100
9.320000 0.511900
9.360400 0.518900
9.400700 0.527300
9.441100 0.536600
9.481400 0.545600
9.521800 0.554200
9.562100 0.562100
9.602500 0.570300
9.642800 0.578700
9.683200 0.587100
9.723500 0.595000
9.763900 0.603400
9.804200 0.612900
9.844600 0.622500
9.884900 0.632400
9.925300 0.642800
9.965600 0.653500
10.006000 0.665000
10.046300 0.677400
10.086700 0.689800
10.127000 0.702900
10.167400 0.717400
10.207700 0.730100
10.248100 0.742500
10.288400 0.755700
10.328800 0.769500
10.369100 0.784000
10.409500 0.799200
10.449800 0.815300
10.490200 0.832600
10.530500 0.852400
10.570900 0.875200
10.611200 0.900500
10.651600 0.925900
10.691900 0.953900
10.732300 0.984600
10.772600 1.017200
10.813000 1.053100
10.853300 1.096300
10.893700 1.197400
10.934000 1.399700
10.974400 1.423600
11.014700 1.448100
11.055100 1.437300
11.095400 1.441200
11.135800 1.476700
11.176100 1.543100
11.216500 1.689100
11.256800 1.762600
11.297200 1.747000
11.337500 1.721900
11.377900 1.657700
11.418200 1.569100
11.458600 1.503300
11.498900 1.476300
11.539300 1.434600
11.579600 1.376900
11.620000 1.335800
11.660300 1.328400
11.700700 1.327500
11.741000 1.339700
11.781400 1.323700
11.821700 1.314600
11.862100 1.238600
11.902400 1.198000
11.942800 1.187100
11.983100 1.192500
12.023500 1.249300
12.063800 1.145000
12.104200 1.078900
12.144500 1.021200
12.184900 0.985800
12.225200 0.936300
12.265600 0.935900
12.305900 0.869300
12.346300 0.834600
12.386600 0.829000
12.427000 0.758200
12.467300 0.719300
12.507700 0.686200
12.548000 0.684300
12.588400 0.699400
12.628700 0.755700
12.669100 0.789400
12.709400 0.835000
12.749800 0.791300
12.790100 0.794600
12.830500 0.819800
12.870800 0.805700
12.911200 0.862100
12.951500 0.798500
12.991900 0.711800
13.032200 0.636900
13.072600 0.583600
13.112900 0.590500
13.153300 0.613900
13.193600 0.655200
13.234000 0.661700
13.274300 0.664000
13.314700 0.674100
13.355000 0.686300
13.395400 0.700500
13.435700 0.720100
13.476100 0.722700
13.516400 0.729900
13.556800 0.744500
13.597100 0.765600
13.637500 0.787400
13.677800 0.809800
13.718200 0.850000
13.758500 0.881700
13.798900 0.903600
13.839200 0.936000
13.879600 0.990900
13.919900 1.016800
13.960300 1.045900
14.000600 1.095700
14.041000 1.120800
14.081300 1.082100
14.121700 1.047700
14.162000 1.023100
14.202400 1.010500
14.242700 1.009400
14.283100 1.020800
14.323400 1.046300
14.363800 1.076600
14.404100 1.110500
14.444500 1.136700
14.484800 1.140800
14.525200 1.149300
14.565500 1.103500
14.605900 1.079400
14.646200 1.062500
14.686600 1.068100
14.726900 1.073400
14.767300 1.075800
14.807600 1.089700
14.848000 1.138200
14.888300 1.193400
14.928700 1.219400
14.969000 1.235700
15.009400 1.208800
15.049700 1.201600
15.090100 1.181900
15.130400 1.146400
15.170800 1.170400
15.211100 1.204400
15.251500 1.209400
15.291800 1.200300
15.332200 1.214800
15.372500 1.272800
15.412900 1.292200
15.453200 1.319000
15.493600 1.334300
15.533900 1.324100
15.574300 1.331600
15.614600 1.345700
15.655000 1.387700
15.695300 1.437900
15.735700 1.526700
15.776000 1.583200
15.816400 1.678900
15.856700 2.020500
15.897100 2.365400
15.937400 2.262300
15.977800 1.787400
16.018100 1.780700
16.058500 1.804900
16.098800 1.952900
16.139200 1.965500
16.179500 1.819500
16.219900 1.807700
16.260200 1.965900
16.300600 2.001700
16.340900 2.003500
16.381300 2.004200
16.421600 2.035800
16.462000 2.150800
16.502300 2.121500
16.542700 1.971700
16.583000 1.903500
16.623400 1.875700
16.663700 1.870000
16.704100 1.874000
16.744400 1.840200
16.784800 1.803800
16.825100 1.771000
16.865500 1.757200
16.905800 1.719600
16.946200 1.711100
16.986500 1.674000
17.026900 1.621400
17.067200 1.569500
17.107600 1.558100
17.147900 1.557700
17.188300 1.508400
17.228600 1.481000
17.269000 1.466100
17.309300 1.539700
17.349700 1.492300
17.390000 1.464600
17.430400 1.442500
17.470700 1.423000
17.511100 1.469200
17.551400 1.509500
17.591800 1.555100
17.632100 1.557700
17.672500 1.602800
17.712800 1.637200
17.753200 1.708200
17.793500 1.776200
17.833900 1.817600
17.874200 1.807900
17.914600 1.793500
17.954900 1.722700
17.995300 1.636900
18.035600 1.591600
18.076000 1.569500
18.116300 1.566600
18.156700 1.590200
18.197000 1.580600
18.237400 1.543800
18.277700 1.525000
18.318100 1.499600
18.358400 1.476600
18.398800 1.444500
18.439100 1.418500
18.479500 1.396400
18.519800 1.372500
18.560200 1.351100
18.600500 1.336500
18.640900 1.457600
18.681200 1.206300
18.721600 1.130800
18.761900 1.057400
18.802300 1.065500
18.842600 1.116600
18.883000 1.242100
18.923300 1.372000
18.963700 1.415600
19.004000 1.493600
19.044400 1.640600
19.084700 1.852800
19.125100 2.109000
19.165400 2.671500
19.205800 3.043400
19.246100 1.827700
19.286500 1.705500
19.326800 1.638900
19.367200 1.602000
19.407500 1.583900
19.447900 1.538500
19.488200 1.488500
19.528600 1.485000
19.568900 1.592900
19.609300 1.519000
19.649600 1.435300
19.690000 1.403300
19.730300 1.426700
19.770700 1.396100
19.811000 1.447000
19.851400 1.328300
19.891700 1.364600
19.932100 1.521500
19.972400 1.692900
20.012800 1.848300
20.053100 1.883700
20.093500 1.887700
20.133800 1.882700
20.174200 1.873500
20.214500 1.791200
20.254900 1.701400
20.295200 1.558500
20.335600 1.427600
20.375900 1.393000
20.416300 1.399400
20.456600 1.411200
20.497000 1.383300
20.537300 1.400800
20.577700 1.380500
20.618000 1.469100
20.658400 1.663200
20.698700 1.642900
20.739100 1.623000
20.779400 1.659900
20.819800 1.676800
20.860100 1.690100
20.900500 1.721200
20.940800 1.730700
20.981200 1.771900
21.021500 1.826100
21.061900 1.815800
21.102200 1.804500
21.142600 1.757800
21.182900 1.728200
21.223300 1.745200
21.263600 1.746700
21.304000 1.842200
21.344300 1.788200
21.384700 1.845600
21.425000 1.812600
21.465400 1.763900
21.505700 1.712100
21.546100 1.644200
21.586400 1.582000
21.626800 1.540300
21.667100 1.530500
21.707500 1.519500
21.747800 1.514300
21.788200 1.447400
21.828500 1.404400
21.868900 1.380100
21.909200 1.362800
21.949600 1.360300
21.989900 1.365300
22.030300 1.369900
22.070600 1.398400
22.111000 1.391700
22.151300 1.332700
22.191700 1.310300
22.232000 1.287700
22.272400 1.258000
22.312700 1.234500
22.353100 1.204300
22.393400 1.175900
22.433800 1.165900
22.474100 1.155800
22.514500 1.135100
22.554800 1.121100
22.595200 1.113500
22.635500 1.110500
22.675900 1.086000
22.716200 1.072500
22.756600 1.042900
22.796900 1.026700
22.837300 1.008700
22.877600 0.993400
22.918000 0.983400
22.958300 0.974600
22.998700 0.966700
23.039000 0.959700
23.079400 0.958900
23.119700 0.965100
23.160100 0.973900
23.200400 0.989200
23.240800 1.001900
23.281100 1.040200
23.321500 1.074700
23.361800 1.098100
23.402200 1.116500
23.442500 1.126500
23.482900 1.082900
23.523200 1.081900
23.563600 1.069200
23.603900 1.078900
23.644300 1.089000
23.684600 1.113200
23.725000 1.122500
23.765300 1.150700
23.805700 1.159700
23.846000 1.173800
23.886400 1.182100
23.926700 1.216100
23.967100 1.254000
24.007400 1.270300
24.047800 1.275200
24.088100 1.343200
24.128500 1.443500
24.168800 1.472600
24.209200 1.447900
24.249500 1.444200
24.289900 1.421300
24.330200 1.393400
24.370600 1.401000
24.410900 1.375700
24.451300 1.359800
24.491600 1.336300
24.532000 1.296700
24.572300 1.285200
24.612700 1.285700
24.653000 1.288800
24.693400 1.294100
24.733700 1.312600
24.774100 1.341700
24.814400 1.374800
24.854800 1.380700
24.895100 1.380200
24.935500 1.383300
24.975800 1.375300
25.016200 1.379100
25.056500 1.370000
25.096900 1.363600
25.137200 1.357500
25.177600 1.349900
25.217900 1.354600
25.258300 1.372500
25.298600 1.390800
25.339000 1.380800
25.379300 1.389300
25.419700 1.421500
25.460000 1.465500
25.500400 1.455200
25.540700 1.493100
25.581100 1.504400
25.621400 1.507200
25.661800 1.512700
25.702100 1.532900
25.742500 1.551900
25.782800 1.546700
25.823200 1.531200
25.863500 1.523600
25.903900 1.532000
25.944200 1.490000
25.984600 1.449900
26.024900 1.421800
26.065300 1.424300
26.105600 1.421800
26.146000 1.425200
26.186300 1.428500
26.226700 1.423200
26.267000 1.415700
26.307400 1.405300
26.347700 1.409500
26.388100 1.422800
26.428400 1.428700
26.468800 1.422000
26.509100 1.408000
26.549500 1.427900
26.589800 1.508500
26.630200 1.548600
26.670500 1.534300
26.710900 1.502500
26.751200 1.488100
26.791600 1.481100
26.831900 1.476400
26.872300 1.478500
26.912600 1.483300
26.953000 1.485300
26.993300 1.487000
27.033700 1.491000
27.074000 1.500100
27.114400 1.503500
27.154700 1.515800
27.195100 1.558700
27.235400 1.586100
27.275800 1.602100
27.316100 1.585700
27.356500 1.561600
27.396800 1.551300
27.437200 1.552300
27.477500 1.544500
27.517900 1.558800
27.558200 1.577500
27.598600 1.638600
27.638900 1.680400
27.679300 1.638800
27.719600 1.557900
27.760000 1.489800
27.800300 1.451700
27.840700 1.418400
27.881000 1.385600
27.921400 1.358000
27.961700 1.312300
28.002100 1.309400
28.042400 1.283000
28.082800 1.278600
28.123100 1.291600
28.163500 1.301500
28.203800 1.284800
28.244200 1.303100
28.284500 1.319400
28.324900 1.351600
28.365200 1.359600
28.405600 1.365200
28.445900 1.369100
28.486300 1.391700
28.526600 1.398700
28.567000 1.407300
28.607300 1.399000
28.647700 1.406900
28.688000 1.439300
28.728400 1.484800
28.768700 1.528300
28.809100 1.568800
28.849400 1.576300
28.889800 1.573600
28.930100 1.587500
28.970500 1.618600
29.010800 1.665800
29.051200 1.725300
29.091500 1.795400
29.131900 1.840200
29.172200 1.903500
29.212600 1.921100
29.252900 1.947000
29.293300 1.962200
29.333600 2.015200
29.374000 2.069000
29.414300 2.110700
29.454700 2.160300
29.495000 2.218500
29.535400 2.280500
29.575700 2.382200
29.616100 2.514200
29.656400 2.575200
29.696800 2.670400
29.737100 2.561700
29.777500 2.600800
29.817800 2.790900
29.858200 2.726500
29.898500 2.785500
29.938900 2.751600
29.979200 2.755900
30.019600 2.824200
30.059900 2.864500
30.100300 2.967400
30.140600 2.855300
30.181000 2.763200
30.221300 2.801900
30.261700 2.877600
30.302000 2.806400
30.342400 2.816700
30.382700 2.719800
30.423100 2.673800
30.463400 2.643200
30.503800 2.608800
30.544100 2.751400
30.584500 2.830200
30.624800 2.747000
30.665200 2.721300
30.705500 2.709100
30.745900 2.684800
30.786200 2.665400
30.826600 2.667000
30.866900 2.661200
30.907300 2.544000
30.947600 2.486200
30.988000 2.449400
31.028300 2.405500
31.068700 2.384700
31.109000 2.381500
31.149400 2.383900
31.189700 2.384400
31.230100 2.387800
31.270400 2.386400
31.310800 2.353600
31.351100 2.355300
31.391500 2.288500
31.431800 2.178100
31.472200 2.111700
31.512500 2.075700
31.552900 2.068400
31.593200 2.072000
31.633600 2.098400
31.673900 2.161100
31.714300 2.174400
31.754600 2.168300
31.795000 2.167200
31.835300 2.111600
31.875700 2.107200
31.916000 2.118000
31.956400 2.120300
31.996700 2.051200
32.037100 2.006800
32.077400 2.020000
32.117800 2.046400
32.158100 2.027900
32.198500 1.930200
32.238800 1.944000
32.279200 2.012000
32.319500 2.088500
32.359900 2.150000
32.400200 2.053600
32.440600 1.990800
32.480900 1.982800
32.521300 1.993500
32.561600 1.975200
32.602000 1.925400
32.642300 1.849300
32.682700 1.732200
32.723000 1.691300
32.763400 1.651500
32.803700 1.597000
32.844100 1.568700
32.884400 1.563300
32.924800 1.529600
32.965100 1.494600
33.005500 1.457600
33.045800 1.458900
33.086200 1.474900
33.126500 1.517000
33.166900 1.560600
33.207200 1.633000
33.247600 1.771900
33.287900 1.941000
33.328300 2.059300
33.368600 2.177800
33.409000 2.312400
33.449300 2.436500
33.489700 2.342700
33.530000 2.241000
33.570400 2.245200
33.610700 2.247900
33.651100 2.219900
33.691400 2.156000
33.731800 2.021300
33.772100 1.966300
33.812500 1.940400
33.852800 1.935100
33.893200 2.010100
33.933500 2.027200
33.973900 2.096300
34.014200 2.089500
34.054600 1.977100
34.094900 1.968800
34.135300 2.040000
34.175600 2.081700
34.216000 2.218700
34.256300 2.201000
34.296700 2.169800
34.337000 2.125600
34.377400 2.103000
34.417700 2.056400
34.458100 1.990800
34.498400 1.915100
34.538800 1.888600
34.579100 1.871900
34.619500 1.811200
34.659800 1.802000
34.700200 1.834900
34.740500 1.909000
34.780900 1.976400
34.821200 2.031000
34.861600 2.078900
34.901900 2.124600
34.942300 2.218200
34.982600 2.187400
35.023000 1.928300
35.063300 1.867400
35.103700 1.888800
35.144000 2.001900
35.184400 1.993000
35.224700 1.889300
35.265100 1.786500
35.305400 1.686300
35.345800 1.620800
35.386100 1.562300
35.426500 1.540400
35.466800 1.572800
35.507200 1.635600
35.547500 1.694700
35.587900 1.763300
35.628200 1.878300
35.668600 1.939300
35.708900 1.980700
35.749300 2.046400
35.789600 2.163100
35.830000 2.361500
35.870300 2.421600
35.910700 2.467800
35.951000 2.447900
35.991400 2.437600
36.031700 2.520600
36.072100 2.593700
36.112400 2.686500
36.152800 2.756300
36.193100 2.746900
36.233500 2.781200
36.273800 2.734700
36.314200 2.775100
36.354500 2.815700
36.394900 2.869900
36.435200 2.890800
36.475600 2.960300
36.515900 2.935000
36.556300 2.869300
36.596600 2.922100
36.637000 2.807500
36.677300 2.697900
36.717700 2.515000
36.758000 2.408400
36.798400 2.345100
36.838700 2.304900
36.879100 2.280000
36.919400 2.290000
36.959800 2.284400
37.000100 2.301200
37.040500 2.358100
37.080800 2.435100
37.121200 2.521200
37.161500 2.623000
37.201900 2.694800
37.242200 2.894100
37.282600 2.841000
37.322900 2.751500
37.363300 2.810100
37.403600 2.660700
37.444000 2.480700
37.484300 2.479400
37.524700 2.327100
37.565000 2.161300
37.605400 2.149900
37.645700 2.112600
37.686100 2.090200
37.726400 2.026400
37.766800 2.022200
37.807100 2.032600
37.847500 2.109000
37.887800 2.165300
37.928200 2.196000
37.968500 2.279300
38.008900 2.408900
38.049200 2.721200
38.089600 2.810700
38.129900 2.897700
38.170300 2.974700
38.210600 3.039200
38.251000 3.019900
38.291300 3.027200
38.331700 3.023300
38.372000 3.113700
38.412400 3.077300
38.452700 3.070400
38.493100 3.091000
38.533400 3.022900
38.573800 3.001100
38.614100 2.961500
38.654500 2.971800
38.694800 3.031500
38.735200 2.955900
38.775500 2.962900
38.815900 2.884700
38.856200 2.768700
38.896600 2.662500
38.936900 2.621500
38.977300 2.497100
39.017600 2.491800
39.058000 2.503900
39.098300 2.601400
39.138700 2.620600
39.179000 2.656100
39.219400 2.730400
39.259700 2.762900
39.300100 2.896800
39.340400 2.937100
39.380800 2.980400
39.421100 2.930200
39.461500 2.798300
39.501800 2.565200
39.542200 2.341000
39.582500 2.186100
39.622900 2.118700
39.663200 2.013800
39.703600 1.992000
39.743900 2.012500
39.784300 2.113200
39.824600 2.152500
39.865000 2.188600
39.905300 2.223600
39.945700 2.258200
39.986000 2.349500
40.026400 2.456700
40.066700 2.488300
40.107100 2.511300
40.147400 2.488900
40.187800 2.417000
40.228100 2.342900
40.268500 2.144500
40.308800 2.024000
40.349200 1.981300
40.389500 1.959000
40.429900 1.956700
40.470200 1.960800
40.510600 1.886700
40.550900 1.891700
40.591300 1.964500
40.631600 1.980700
40.672000 1.978000
40.712300 1.966100
40.752700 1.960300
40.793000 1.946400
40.833400 1.868700
40.873700 1.817000
40.914100 1.831000
40.954400 1.865400
40.994800 1.952900
41.035100 2.089000
41.075500 2.209900
41.115800 2.338700
41.156200 2.395200
41.196500 2.435500
41.236900 2.480700
41.277200 2.521900
41.317600 2.512500
41.357900 2.481100
41.398300 2.408900
41.438600 2.380500
41.479000 2.347300
41.519300 2.439900
41.559700 2.471600
41.600000 2.457700
41.640400 2.502500
41.680700 2.533000
41.721100 2.517800
41.761400 2.500400
41.801800 2.575600
41.842100 2.625900
41.882500 2.599400
41.922800 2.618600
41.963200 2.590400
42.003500 2.556000
42.043900 2.454900
42.084200 2.456100
42.124600 2.384900
42.164900 2.378400
42.205300 2.357200
42.245600 2.372500
42.286000 2.425200
42.326300 2.556000
42.366700 2.508300
42.407000 2.532400
42.447400 2.567900
42.487700 2.649600
42.528100 2.700900
42.568400 2.720500
42.608800 2.655500
42.649100 2.434500
42.689500 2.325600
42.729800 2.288200
42.770200 2.336400
42.810500 2.324300
42.850900 2.298500
42.891200 2.301800
42.931600 2.327300
42.971900 2.429100
43.012300 2.374400
43.052600 2.273500
43.093000 2.331000
43.133300 2.532500
43.173700 2.432600
43.214100 2.529100
43.254400 2.613400
43.294800 2.623300
43.335100 2.576200
43.375500 2.340900
43.415800 2.235500
43.456200 2.234800
43.496500 2.306300
43.536900 2.351000
43.577200 2.369100
43.617600 2.416200
43.657900 2.546100
43.698300 2.652600
43.738600 2.622700
43.779000 2.549500
43.819300 2.471600
43.859700 2.440900
43.900000 2.459000
43.940400 2.488800
43.980700 2.405700
44.021100 2.409300
44.061400 2.302400
44.101800 2.159000
44.142100 2.115600
44.182500 2.122200
44.222800 2.118000
44.263200 2.116600
44.303500 2.072700
44.343900 2.107400
44.384200 2.097800
44.424600 2.002300
44.464900 1.900500
44.505300 1.874000
44.545600 1.799100
44.586000 1.743000
44.626300 1.706400
44.666700 1.644700
44.707000 1.714600
44.747400 1.587000
44.787700 1.451900
44.828100 1.326300
44.868400 1.225300
44.908800 1.143700
44.949100 1.077100
44.989500 1.030300
45.029800 0.985600
45.070200 0.935200
45.110500 0.886000
45.150900 0.848200
45.191200 0.812900
45.231600 0.784500
45.271900 0.767200
45.312300 0.747200
45.352600 0.741200
45.393000 0.685200
45.433300 0.534800
45.473700 0.455800
45.514000 0.404700
45.554400 0.368300
45.594700 0.234100
45.635100 0.153200
45.675400 0.093500
45.715800 0.051000
45.756100 0.028900
45.796500 0.015200
45.836800 0.006300
45.877200 0.001800
45.917500 0.000400
45.957900 0.000000
45.998200 0.000000
46.038600 0.000000
46.078900 0.000000
46.119300 0.000000
46.159600 0.000000
46.200000 0.000000
46.240300 0.000000
46.280700 0.000000
46.321000 0.000000
46.361400 0.000000
46.401700 0.000000
46.442100 0.000000
46.482400 0.000000
46.522800 0.000000
46.563100 0.000000
46.603500 0.000000
46.643800 0.000000
46.684200 0.000000
46.724500 0.000000
46.764900 0.000000
46.805200 0.000000
46.845600 0.000000
46.885900 0.000000
46.926300 0.000000
46.966600 0.000000
47.007000 0.000000
47.047300 0.000000
47.087700 0.000000
47.128000 0.000000
47.168400 0.000000
47.208700 0.000000
47.249100 0.000000
47.289400 0.000000
47.329800 0.000000
47.370100 0.000000
47.410500 0.000000
47.450800 0.000000
47.491200 0.000000
47.531500 0.000000
47.571900 0.000000
47.612200 0.000000
47.652600 0.000000
47.692900 0.000000
47.733300 0.000000
47.773600 0.000000
47.814000 0.000000
47.854300 0.000000
47.894700 0.000000
47.935000 0.000000
47.975400 0.000000
48.015700 0.000000
48.056100 0.000000
48.096400 0.000000
48.136800 0.000000
48.177100 0.000000
48.217500 0.000000
48.257800 0.000000
48.298200 0.000000
48.338500 0.000000
48.378900 0.000000
48.419200 0.000000
48.459600 0.000000
48.499900 0.000000
48.540300 0.000000
48.580600 0.000000
48.621000 0.000000
48.661300 0.000000
48.701700 0.000000
48.742000 0.000000
48.782400 0.000000
48.822700 0.000000
48.863100 0.000000
48.903400 0.000000
48.943800 0.000000
48.984100 0.000000
49.024500 0.000000
49.064800 0.000000
49.105200 0.000000
49.145500 0.000000
49.185900 0.000000
49.226200 0.000000
49.266600 0.000000
49.306900 0.000000
49.347300 0.000000
49.387600 0.000000
49.428000 0.000000
49.468300 0.000000
49.508700 0.000000
49.549000 0.000000
49.589400 0.000000
49.629700 0.000000
e
