set title 'mp-2245 - Density of States'
set xlabel 'Energy (eV)'
set ylabel 'DOS (states/eV)'
set grid
set xrange [-10:10]
set yrange [0:110.215]
set xzeroaxis lt -1
set terminal png size 800,600
set output 'mp-2245_dos_gnuplot.png'
plot '-' using 1:2 with lines title 'DOS'
-13.332800 0.000000
-13.314500 0.000000
-13.296200 0.000000
-13.277900 0.000000
-13.259600 0.000000
-13.241300 0.000000
-13.223000 0.000000
-13.204700 0.000000
-13.186500 0.000000
-13.168200 0.000000
-13.149900 0.000000
-13.131600 0.000000
-13.113300 0.000000
-13.095000 0.000000
-13.076700 0.000000
-13.058400 0.000000
-13.040100 0.000000
-13.021900 0.000000
-13.003600 0.000000
-12.985300 0.000000
-12.967000 0.000000
-12.948700 0.000000
-12.930400 0.000000
-12.912100 0.000000
-12.893800 0.000000
-12.875500 0.000000
-12.857300 0.000000
-12.839000 0.000000
-12.820700 0.000000
-12.802400 0.000000
-12.784100 0.000000
-12.765800 0.000000
-12.747500 0.000000
-12.729200 0.000000
-12.710900 0.000000
-12.692700 0.000000
-12.674400 0.000000
-12.656100 0.000000
-12.637800 0.000000
-12.619500 0.000000
-12.601200 0.000000
-12.582900 0.000000
-12.564600 0.000000
-12.546300 0.000000
-12.528100 0.000000
-12.509800 0.000000
-12.491500 0.000000
-12.473200 0.000000
-12.454900 0.000000
-12.436600 0.000000
-12.418300 0.000000
-12.400000 0.000000
-12.381700 0.000000
-12.363500 0.000000
-12.345200 0.000000
-12.326900 0.000000
-12.308600 0.000000
-12.290300 0.000000
-12.272000 0.000000
-12.253700 0.000000
-12.235400 0.000000
-12.217100 0.000000
-12.198900 0.000000
-12.180600 0.000000
-12.162300 0.000000
-12.144000 0.000000
-12.125700 0.000000
-12.107400 0.000000
-12.089100 0.000000
-12.070800 0.000000
-12.052500 0.000000
-12.034300 0.000000
-12.016000 0.000000
-11.997700 0.000000
-11.979400 0.000000
-11.961100 0.000000
-11.942800 0.000000
-11.924500 0.000000
-11.906200 0.000000
-11.888000 0.000000
-11.869700 0.000000
-11.851400 0.000000
-11.833100 0.000000
-11.814800 0.000000
-11.796500 0.000000
-11.778200 0.000000
-11.759900 0.000000
-11.741600 0.000000
-11.723400 0.000000
-11.705100 0.000000
-11.686800 0.000000
-11.668500 0.000100
-11.650200 0.017700
-11.631900 0.065000
-11.613600 0.142100
-11.595300 0.248900
-11.577000 0.385400
-11.558800 0.551700
-11.540500 0.743900
-11.522200 0.948700
-11.503900 1.164900
-11.485600 1.392500
-11.467300 1.631500
-11.449000 1.881900
-11.430700 2.210500
-11.412400 2.528900
-11.394200 2.800000
-11.375900 3.024000
-11.357600 3.200700
-11.339300 3.330200
-11.321000 3.384700
-11.302700 3.385400
-11.284400 3.376600
-11.266100 3.358400
-11.247800 3.330800
-11.229600 3.293800
-11.211300 3.247300
-11.193000 3.291100
-11.174700 3.322200
-11.156400 3.331500
-11.138100 3.319100
-11.119800 3.285000
-11.101500 3.229100
-11.083200 3.162900
-11.065000 3.100500
-11.046700 3.042100
-11.028400 2.987600
-11.010100 2.937100
-10.991800 2.957000
-10.973500 2.720500
-10.955200 2.497400
-10.936900 2.289700
-10.918600 2.207400
-10.900400 2.288700
-10.882100 2.533500
-10.863800 2.941900
-10.845500 3.512700
-10.827200 4.212200
-10.808900 5.014500
-10.790600 5.919300
-10.772300 6.302500
-10.754000 6.143000
-10.735800 5.934900
-10.717500 5.678200
-10.699200 5.372900
-10.680900 6.331500
-10.662600 7.421900
-10.644300 8.322300
-10.626000 9.089800
-10.607700 13.003600
-10.589500 20.253700
-10.571200 3.206100
-10.552900 3.350800
-10.534600 3.499400
-10.516300 3.651700
-10.498000 3.807700
-10.479700 3.967600
-10.461400 4.131200
-10.443100 4.298600
-10.424900 4.469700
-10.406600 4.644700
-10.388300 4.823400
-10.370000 5.005800
-10.351700 5.210500
-10.333400 5.468100
-10.315100 5.683700
-10.296800 5.857400
-10.278500 5.989100
-10.260300 4.987100
-10.242000 4.041800
-10.223700 3.663000
-10.205400 3.292600
-10.187100 2.930500
-10.168800 2.576700
-10.150500 2.231300
-10.132200 1.894300
-10.113900 2.090500
-10.095700 2.557300
-10.077400 3.242500
-10.059100 4.146200
-10.040800 5.263800
-10.022500 6.956300
-10.004200 15.741100
-9.985900 9.435200
-9.967600 8.472800
-9.949300 7.638400
-9.931100 6.851100
-9.912800 6.110800
-9.894500 5.417600
-9.876200 4.771500
-9.857900 13.153100
-9.839600 10.152800
-9.821300 7.978600
-9.803000 6.557100
-9.784700 5.876000
-9.766500 5.685600
-9.748200 5.596300
-9.729900 5.588300
-9.711600 5.598000
-9.693300 5.625500
-9.675000 5.670700
-9.656700 7.127200
-9.638400 6.703900
-9.620100 6.355100
-9.601900 6.120000
-9.583600 6.041500
-9.565300 6.152200
-9.547000 6.453700
-9.528700 6.947000
-9.510400 9.612900
-9.492100 16.217100
-9.473800 6.799200
-9.455600 6.884400
-9.437300 6.997200
-9.419000 7.133400
-9.400700 7.284300
-9.382400 7.450000
-9.364100 7.634700
-9.345800 8.102000
-9.327500 10.301900
-9.309200 13.862900
-9.291000 16.575000
-9.272700 16.377400
-9.254400 18.684900
-9.236100 13.636400
-9.217800 9.390800
-9.199500 9.617500
-9.181200 9.825400
-9.162900 11.310400
-9.144600 14.852900
-9.126400 1.883100
-9.108100 4.041600
-9.089800 7.601200
-9.071500 4.988900
-9.053200 5.544800
-9.034900 6.075700
-9.016600 6.535100
-8.998300 6.922800
-8.980000 7.238900
-8.961800 7.483400
-8.943500 13.648800
-8.925200 8.155100
-8.906900 6.971900
-8.888600 6.008500
-8.870300 5.524000
-8.852000 5.423500
-8.833700 5.646500
-8.815400 6.206500
-8.797200 7.570000
-8.778900 10.001300
-8.760600 13.555500
-8.742300 18.233500
-8.724000 20.980700
-8.705700 9.863700
-8.687400 9.998700
-8.669100 10.072600
-8.650800 10.189800
-8.632600 10.350400
-8.614300 10.971100
-8.596000 21.001500
-8.577700 19.419100
-8.559400 9.765000
-8.541100 9.646200
-8.522800 9.399500
-8.504500 8.860100
-8.486200 8.028000
-8.468000 6.903300
-8.449700 4.844300
-8.431400 5.433000
-8.413100 7.014100
-8.394800 8.644900
-8.376500 10.684900
-8.358200 34.705600
-8.339900 18.652100
-8.321600 15.621700
-8.303400 15.016400
-8.285100 22.188200
-8.266800 23.105200
-8.248500 18.734500
-8.230200 10.752400
-8.211900 6.091600
-8.193600 4.752000
-8.175300 5.643400
-8.157100 10.228100
-8.138800 21.447800
-8.120500 26.202100
-8.102200 26.733100
-8.083900 22.362900
-8.065600 24.670600
-8.047300 19.047000
-8.029000 50.686000
-8.010700 17.959800
-7.992500 100.195700
-7.974200 38.237800
-7.955900 23.544300
-7.937600 20.698500
-7.919300 15.687600
-7.901000 18.877400
-7.882700 22.814700
-7.864400 16.690100
-7.846100 4.393000
-7.827900 1.194200
-7.809600 0.148900
-7.791300 0.000000
-7.773000 0.000000
-7.754700 0.000000
-7.736400 0.000000
-7.718100 0.000000
-7.699800 0.000000
-7.681500 0.000000
-7.663300 0.000000
-7.645000 0.000000
-7.626700 0.000000
-7.608400 0.000000
-7.590100 0.000000
-7.571800 0.000000
-7.553500 0.000000
-7.535200 0.000000
-7.516900 0.000000
-7.498700 0.000000
-7.480400 0.000000
-7.462100 0.000000
-7.443800 0.000000
-7.425500 0.000000
-7.407200 0.000000
-7.388900 0.000000
-7.370600 0.000000
-7.352300 0.000000
-7.334100 0.000000
-7.315800 0.000000
-7.297500 0.000000
-7.279200 0.000000
-7.260900 0.000000
-7.242600 0.000000
-7.224300 0.000000
-7.206000 0.000000
-7.187700 0.000000
-7.169500 0.000000
-7.151200 0.000000
-7.132900 0.000000
-7.114600 0.000000
-7.096300 0.000000
-7.078000 0.000000
-7.059700 0.000000
-7.041400 0.000000
-7.023100 0.000000
-7.004900 0.000000
-6.986600 0.000000
-6.968300 0.000000
-6.950000 0.000000
-6.931700 0.000000
-6.913400 0.000000
-6.895100 0.000000
-6.876800 0.000000
-6.858600 0.000000
-6.840300 0.000000
-6.822000 0.000000
-6.803700 0.000000
-6.785400 0.000000
-6.767100 0.000000
-6.748800 0.000000
-6.730500 0.000000
-6.712200 0.000000
-6.694000 0.000000
-6.675700 0.000000
-6.657400 0.000000
-6.639100 0.000000
-6.620800 0.000000
-6.602500 0.000000
-6.584200 0.000000
-6.565900 0.000000
-6.547600 0.000000
-6.529400 0.000000
-6.511100 0.000000
-6.492800 0.000000
-6.474500 0.000000
-6.456200 0.000000
-6.437900 0.000000
-6.419600 0.000000
-6.401300 0.000000
-6.383000 0.000000
-6.364800 0.000000
-6.346500 0.000000
-6.328200 0.000000
-6.309900 0.000000
-6.291600 0.000000
-6.273300 0.000000
-6.255000 0.000000
-6.236700 0.000000
-6.218400 0.000000
-6.200200 0.000000
-6.181900 0.000000
-6.163600 0.000000
-6.145300 0.000000
-6.127000 0.000000
-6.108700 0.000000
-6.090400 0.000000
-6.072100 0.000000
-6.053800 0.000000
-6.035600 0.000000
-6.017300 0.000000
-5.999000 0.000000
-5.980700 0.000000
-5.962400 0.000000
-5.944100 0.000000
-5.925800 0.000000
-5.907500 0.000000
-5.889200 0.000000
-5.871000 0.000000
-5.852700 0.000000
-5.834400 0.000000
-5.816100 0.000000
-5.797800 0.000000
-5.779500 0.000000
-5.761200 0.000000
-5.742900 0.000000
-5.724600 0.000000
-5.706400 0.000000
-5.688100 0.000000
-5.669800 0.000000
-5.651500 0.000000
-5.633200 0.000000
-5.614900 0.000000
-5.596600 0.000000
-5.578300 0.000000
-5.560100 0.000000
-5.541800 0.000000
-5.523500 0.000000
-5.505200 0.000000
-5.486900 0.000000
-5.468600 0.000000
-5.450300 0.000000
-5.432000 0.000000
-5.413700 0.000000
-5.395500 0.000000
-5.377200 0.000000
-5.358900 0.000000
-5.340600 0.000000
-5.322300 0.000000
-5.304000 0.000000
-5.285700 0.000000
-5.267400 0.000000
-5.249100 0.000000
-5.230900 0.000000
-5.212600 0.000000
-5.194300 0.000000
-5.176000 0.000000
-5.157700 0.000000
-5.139400 0.000000
-5.121100 0.000000
-5.102800 0.000000
-5.084500 0.000000
-5.066300 0.000000
-5.048000 0.000000
-5.029700 0.000000
-5.011400 0.000000
-4.993100 0.000000
-4.974800 0.000000
-4.956500 0.000000
-4.938200 0.000000
-4.919900 0.000000
-4.901700 0.000000
-4.883400 0.000000
-4.865100 0.000000
-4.846800 0.000000
-4.828500 0.000000
-4.810200 0.000000
-4.791900 0.000000
-4.773600 0.000000
-4.755300 0.000000
-4.737100 0.000000
-4.718800 0.000000
-4.700500 0.000000
-4.682200 0.000000
-4.663900 0.000000
-4.645600 0.000000
-4.627300 0.000000
-4.609000 0.000000
-4.590700 0.000000
-4.572500 0.000000
-4.554200 0.000000
-4.535900 0.000000
-4.517600 0.000000
-4.499300 0.000000
-4.481000 0.000000
-4.462700 0.000000
-4.444400 0.000000
-4.426100 0.000000
-4.407900 0.000000
-4.389600 0.000000
-4.371300 0.000000
-4.353000 0.000000
-4.334700 0.000000
-4.316400 0.000000
-4.298100 0.000000
-4.279800 0.000000
-4.261600 0.000000
-4.243300 0.000000
-4.225000 0.000000
-4.206700 0.000000
-4.188400 0.000000
-4.170100 0.000000
-4.151800 0.000000
-4.133500 0.000000
-4.115200 0.000000
-4.097000 0.000000
-4.078700 0.000000
-4.060400 0.000000
-4.042100 0.000000
-4.023800 0.000000
-4.005500 0.000000
-3.987200 0.000000
-3.968900 0.000000
-3.950600 0.000000
-3.932400 0.000000
-3.914100 0.000000
-3.895800 0.000000
-3.877500 0.000000
-3.859200 0.000000
-3.840900 0.000000
-3.822600 0.000000
-3.804300 0.000000
-3.786000 0.000000
-3.767800 0.000000
-3.749500 0.000000
-3.731200 0.000000
-3.712900 0.000000
-3.694600 0.000000
-3.676300 0.000000
-3.658000 0.000000
-3.639700 0.000000
-3.621400 0.000000
-3.603200 0.000000
-3.584900 0.000000
-3.566600 0.000000
-3.548300 0.000000
-3.530000 0.000000
-3.511700 0.000000
-3.493400 0.000000
-3.475100 0.000000
-3.456800 0.000000
-3.438600 0.000000
-3.420300 0.000000
-3.402000 0.000000
-3.383700 0.000000
-3.365400 0.000000
-3.347100 0.000000
-3.328800 0.000000
-3.310500 0.000000
-3.292200 0.000000
-3.274000 0.000000
-3.255700 0.000000
-3.237400 0.000000
-3.219100 0.000000
-3.200800 0.000000
-3.182500 0.000000
-3.164200 0.000000
-3.145900 0.000000
-3.127700 0.000000
-3.109400 0.000000
-3.091100 0.000000
-3.072800 0.000000
-3.054500 0.000000
-3.036200 0.006400
-3.017900 0.147400
-2.999600 0.473300
-2.981300 0.984000
-2.963100 2.184700
-2.944800 3.607200
-2.926500 4.575000
-2.908200 5.088100
-2.889900 5.239000
-2.871600 5.660400
-2.853300 6.472000
-2.835000 7.333900
-2.816700 7.646100
-2.798500 7.651500
-2.780200 7.445600
-2.761900 7.066000
-2.743600 6.807000
-2.725300 6.654700
-2.707000 6.495500
-2.688700 6.248300
-2.670400 5.825800
-2.652100 5.373700
-2.633900 5.208700
-2.615600 6.110400
-2.597300 8.475700
-2.579000 7.931400
-2.560700 7.945700
-2.542400 8.109700
-2.524100 8.426400
-2.505800 8.895600
-2.487500 9.494100
-2.469300 10.102600
-2.451000 10.704000
-2.432700 11.307600
-2.414400 12.018700
-2.396100 8.537800
-2.377800 8.669600
-2.359500 8.744600
-2.341200 8.790100
-2.322900 8.921700
-2.304700 9.017000
-2.286400 9.058000
-2.268100 9.044600
-2.249800 7.932700
-2.231500 7.770900
-2.213200 7.722000
-2.194900 8.027700
-2.176600 7.609000
-2.158300 6.845100
-2.140100 7.252600
-2.121800 7.768700
-2.103500 12.708000
-2.085200 8.733400
-2.066900 7.912600
-2.048600 7.757800
-2.030300 7.605700
-2.012000 7.456200
-1.993700 7.338600
-1.975500 7.352000
-1.957200 14.428200
-1.938900 9.702500
-1.920600 9.293100
-1.902300 8.947900
-1.884000 8.992300
-1.865700 8.360100
-1.847400 7.856300
-1.829200 7.553400
-1.810900 7.451400
-1.792600 7.378700
-1.774300 7.191100
-1.756000 7.374900
-1.737700 8.726900
-1.719400 9.724000
-1.701100 10.384800
-1.682800 10.635300
-1.664600 10.554300
-1.646300 10.317800
-1.628000 9.956700
-1.609700 8.088000
-1.591400 7.786200
-1.573100 7.546800
-1.554800 7.370000
-1.536500 7.255600
-1.518200 7.200900
-1.500000 7.191000
-1.481700 7.224000
-1.463400 7.272100
-1.445100 7.308500
-1.426800 7.333200
-1.408500 7.346100
-1.390200 7.367000
-1.371900 7.654000
-1.353600 8.650100
-1.335400 10.369500
-1.317100 5.137900
-1.298800 4.659000
-1.280500 4.336200
-1.262200 4.197800
-1.243900 4.247000
-1.225600 4.342200
-1.207300 4.468200
-1.189000 4.625000
-1.170800 4.818000
-1.152500 14.322700
-1.134200 6.449000
-1.115900 5.797300
-1.097600 5.331900
-1.079300 5.065900
-1.061000 5.030300
-1.042700 5.215800
-1.024400 5.326700
-1.006200 5.405100
-0.987900 5.647700
-0.969600 5.929300
-0.951300 6.222600
-0.933000 6.540900
-0.914700 6.922100
-0.896400 7.368500
-0.878100 7.880100
-0.859800 8.456800
-0.841600 9.098800
-0.823300 9.227400
-0.805000 7.302100
-0.786700 6.037900
-0.768400 5.434700
-0.750100 5.446200
-0.731800 5.594400
-0.713500 6.022400
-0.695200 7.277100
-0.677000 9.374300
-0.658700 12.314200
-0.640400 17.931600
-0.622100 0.856500
-0.603800 1.002900
-0.585500 1.186600
-0.567200 1.382600
-0.548900 1.585600
-0.530700 1.795700
-0.512400 2.012800
-0.494100 2.237000
-0.475800 2.468200
-0.457500 2.706500
-0.439200 2.960300
-0.420900 3.249800
-0.402600 9.975700
-0.384300 9.610200
-0.366100 9.238100
-0.347800 9.045400
-0.329500 8.955900
-0.311200 8.826500
-0.292900 8.799800
-0.274600 9.064100
-0.256300 9.620000
-0.238000 10.467800
-0.219700 15.854400
-0.201500 10.852900
-0.183200 10.086800
-0.164900 10.435900
-0.146600 6.674900
-0.128300 6.805000
-0.110000 7.180500
-0.091700 10.801400
-0.073400 21.079500
-0.055100 12.823500
-0.036900 14.031400
-0.018600 13.823100
-0.000300 13.330700
0.018000 12.295700
0.036300 11.604500
0.054600 11.205500
0.072900 5.050900
0.091200 1.066700
0.109500 2.777200
0.127700 11.185000
0.146000 16.571200
0.164300 14.846400
0.182600 13.172400
0.200900 11.549200
0.219200 10.387800
0.237500 10.197200
0.255800 9.618100
0.274100 9.738700
0.292300 10.625100
0.310600 11.884500
0.328900 8.732500
0.347200 9.172900
0.365500 10.186700
0.383800 11.620400
0.402100 13.123200
0.420400 19.799900
0.438700 18.399000
0.456900 14.681200
0.475200 11.729000
0.493500 9.012800
0.511800 7.700600
0.530100 7.177900
0.548400 7.073600
0.566700 7.347300
0.585000 13.144200
0.603300 11.232900
0.621500 10.041300
0.639800 9.140300
0.658100 8.352800
0.676400 7.656200
0.694700 7.626200
0.713000 8.823400
0.731300 10.571200
0.749600 13.986300
0.767800 21.874500
0.786100 11.576500
0.804400 12.293300
0.822700 14.846800
0.841000 15.209800
0.859300 13.341900
0.877600 11.600900
0.895900 9.968000
0.914200 8.954200
0.932400 8.217700
0.950700 7.740100
0.969000 7.492500
0.987300 7.474300
1.005600 7.685600
1.023900 8.084500
1.042200 8.488000
1.060500 8.731500
1.078800 15.123200
1.097000 13.257000
1.115300 10.576800
1.133600 7.548400
1.151900 4.471900
1.170200 5.340500
1.188500 6.483400
1.206800 7.823800
1.225100 9.331400
1.243400 10.776800
1.261600 12.112100
1.279900 18.249400
1.298200 14.816800
1.316500 12.468600
1.334800 11.197600
1.353100 10.164500
1.371400 9.208600
1.389700 8.330000
1.408000 7.450000
1.426200 6.604600
1.444500 6.084800
1.462800 6.062900
1.481100 6.291100
1.499400 6.939100
1.517700 9.435700
1.536000 25.362400
1.554300 13.014800
1.572600 14.772900
1.590800 20.877200
1.609100 24.665400
1.627400 30.618700
1.645700 22.979900
1.664000 18.979700
1.682300 18.330100
1.700600 13.344800
1.718900 13.376600
1.737200 13.662200
1.755400 12.850600
1.773700 12.965400
1.792000 12.932600
1.810300 12.752100
1.828600 12.423900
1.846900 11.948100
1.865200 11.418800
1.883500 12.059000
1.901800 10.891900
1.920000 12.953100
1.938300 10.727100
1.956600 11.744200
1.974900 13.242400
1.993200 15.152300
2.011500 20.529600
2.029800 21.360100
2.048100 16.305800
2.066300 14.305000
2.084600 14.775200
2.102900 26.234700
2.121200 23.988700
2.139500 26.278400
2.157800 29.310400
2.176100 13.938100
2.194400 14.527500
2.212700 20.213300
2.230900 19.636500
2.249200 12.357000
2.267500 11.211800
2.285800 11.484700
2.304100 12.181200
2.322400 19.632100
2.340700 20.929400
2.359000 13.352400
2.377300 12.751400
2.395500 11.904800
2.413800 10.812600
2.432100 19.399300
2.450400 14.841000
2.468700 15.503300
2.487000 14.813100
2.505300 13.435100
2.523600 9.859600
2.541900 7.495800
2.560100 7.655200
2.578400 7.740100
2.596700 8.341200
2.615000 9.180000
2.633300 11.069000
2.651600 14.578100
2.669900 15.570400
2.688200 26.184400
2.706500 19.930900
2.724700 17.544000
2.743000 15.467700
2.761300 13.324600
2.779600 12.373600
2.797900 13.792600
2.816200 16.386900
2.834500 14.553000
2.852800 11.982800
2.871100 9.200900
2.889300 7.458400
2.907600 6.377800
2.925900 5.657600
2.944200 0.273700
2.962500 1.031400
2.980800 2.455600
2.999100 4.384400
3.017400 7.167300
3.035700 11.197100
3.053900 17.310300
3.072200 34.218000
3.090500 30.458100
3.108800 9.186000
3.127100 14.362300
3.145400 7.540000
3.163700 7.121100
3.182000 6.927700
3.200200 6.959900
3.218500 7.110700
3.236800 7.252900
3.255100 7.386100
3.273400 7.510500
3.291700 7.626000
3.310000 9.602400
3.328300 8.421500
3.346600 11.319600
3.364800 11.031900
3.383100 10.880900
3.401400 11.327400
3.419700 11.933800
3.438000 12.700000
3.456300 9.561500
3.474600 9.281300
3.492900 11.148300
3.511200 9.703200
3.529400 8.190600
3.547700 6.610500
3.566000 5.012000
3.584300 3.807600
3.602600 3.157500
3.620900 2.925900
3.639200 2.749500
3.657500 2.607400
3.675800 2.499600
3.694000 2.426100
3.712300 2.387000
3.730600 2.418300
3.748900 2.532100
3.767200 2.716100
3.785500 2.970200
3.803800 3.294400
3.822100 8.675700
3.840400 14.670700
3.858600 10.205200
3.876900 9.844800
3.895200 10.197700
3.913500 11.263700
3.931800 11.255200
3.950100 11.050200
3.968400 12.163300
3.986700 9.468700
4.005000 7.483600
4.023200 6.208000
4.041500 5.641900
4.059800 5.308500
4.078100 4.353700
4.096400 7.845600
4.114700 13.100900
4.133000 18.230200
4.151300 18.059500
4.169600 15.596800
4.187800 13.470000
4.206100 11.105000
4.224400 8.467500
4.242700 8.961800
4.261000 5.194700
4.279300 14.891600
4.297600 16.232500
4.315900 13.449600
4.334200 11.757600
4.352400 11.104000
4.370700 12.013600
4.389000 13.086400
4.407300 14.232000
4.425600 14.969500
4.443900 13.779000
4.462200 12.029900
4.480500 12.908400
4.498700 17.657900
4.517000 22.024100
4.535300 8.459900
4.553600 6.509300
4.571900 5.919800
4.590200 6.834100
4.608500 9.252000
4.626800 25.403300
4.645100 28.156200
4.663300 26.465900
4.681600 5.394900
4.699900 3.864600
4.718200 3.120500
4.736500 3.102900
4.754800 35.391700
4.773100 14.843400
4.791400 16.524400
4.809700 35.463700
4.827900 28.647600
4.846200 33.049200
4.864500 15.580800
4.882800 13.056300
4.901100 10.572500
4.919400 9.618800
4.937700 9.367100
4.956000 9.198000
4.974300 9.093200
4.992500 25.986600
5.010800 15.048800
5.029100 14.198800
5.047400 11.771000
5.065700 18.402700
5.084000 16.050400
5.102300 13.860800
5.120600 12.178600
5.138900 12.917500
5.157100 16.524800
5.175400 19.365900
5.193700 20.074800
5.212000 23.102100
5.230300 32.350900
5.248600 27.631200
5.266900 19.300200
5.285200 18.815600
5.303500 17.939000
5.321700 20.082000
5.340000 25.891400
5.358300 13.534900
5.376600 13.051000
5.394900 12.525900
5.413200 11.864300
5.431500 10.895100
5.449800 9.680900
5.468100 8.331600
5.486300 6.849100
5.504600 5.165700
5.522900 4.018700
5.541200 7.641500
5.559500 12.455500
5.577800 16.230100
5.596100 10.401700
5.614400 3.258400
5.632700 2.841600
5.650900 7.582900
5.669200 21.169000
5.687500 17.989500
5.705800 16.790900
5.724100 16.939200
5.742400 17.684400
5.760700 17.790200
5.779000 11.664800
5.797200 8.743800
5.815500 6.363000
5.833800 5.206900
5.852100 4.786900
5.870400 4.487400
5.888700 4.308600
5.907000 4.250400
5.925300 4.264400
5.943600 3.736700
5.961800 2.895100
5.980100 2.636400
5.998400 2.632000
6.016700 2.630400
6.035000 2.629100
6.053300 2.628100
6.071600 2.627400
6.089900 2.626900
6.108200 2.626800
6.126400 2.627000
6.144700 2.627400
6.163000 2.628200
6.181300 2.629200
6.199600 2.630500
6.217900 2.607300
6.236200 2.325100
6.254500 1.726300
6.272800 0.000000
6.291000 0.000000
6.309300 0.000000
6.327600 0.000000
6.345900 0.000000
6.364200 0.000000
6.382500 0.000000
6.400800 0.000000
6.419100 0.000000
6.437400 0.000000
6.455600 0.000000
6.473900 0.000000
6.492200 0.000000
6.510500 0.000000
6.528800 0.000000
6.547100 0.000000
6.565400 0.000000
6.583700 0.000000
6.602000 0.000000
6.620200 0.000000
6.638500 0.000000
6.656800 0.000000
6.675100 0.000000
6.693400 0.000000
6.711700 0.000000
6.730000 0.000000
6.748300 0.000000
6.766600 0.000000
6.784800 0.000000
6.803100 0.000000
6.821400 0.000000
6.839700 0.000000
6.858000 0.000000
6.876300 0.000000
6.894600 0.000000
6.912900 0.000000
6.931200 0.000000
6.949400 0.000000
6.967700 0.000000
6.986000 0.000000
7.004300 0.000000
7.022600 0.000000
7.040900 0.000000
7.059200 0.000000
7.077500 0.000000
7.095700 0.000000
7.114000 0.000000
7.132300 0.000000
7.150600 0.000000
7.168900 0.000000
7.187200 0.000000
7.205500 0.000000
7.223800 0.000000
7.242100 0.000000
7.260300 0.000000
7.278600 0.000000
7.296900 0.000000
7.315200 0.000000
7.333500 0.000000
7.351800 0.000000
7.370100 0.000000
7.388400 0.000000
7.406700 0.000000
7.424900 0.000000
7.443200 0.000000
7.461500 0.000000
7.479800 0.000000
7.498100 0.000000
7.516400 0.000000
7.534700 0.000000
7.553000 0.000000
7.571300 0.000000
7.589500 0.000000
7.607800 0.000000
7.626100 0.000000
7.644400 0.000000
7.662700 0.000000
7.681000 0.000000
7.699300 0.000000
7.717600 0.000000
7.735900 0.000000
7.754100 0.000000
7.772400 0.000000
7.790700 0.000000
7.809000 0.000000
7.827300 0.000000
7.845600 0.000000
7.863900 0.000000
7.882200 0.000000
7.900500 0.000000
7.918700 0.000000
7.937000 0.000000
7.955300 0.000000
7.973600 0.000000
7.991900 0.000000
8.010200 0.000000
8.028500 0.000000
8.046800 0.000000
8.065100 0.000000
8.083300 0.000000
8.101600 0.000000
8.119900 0.000000
8.138200 0.000000
8.156500 0.000000
8.174800 0.000000
8.193100 0.000000
8.211400 0.000000
8.229700 0.000000
8.247900 0.000000
8.266200 0.000000
8.284500 0.000000
8.302800 0.000000
8.321100 0.000000
8.339400 0.000000
8.357700 0.000000
8.376000 0.000000
8.394200 0.000000
8.412500 0.000000
8.430800 0.000000
8.449100 0.000000
8.467400 0.000000
8.485700 0.000000
8.504000 0.000000
8.522300 0.000000
8.540600 0.000000
8.558800 0.000000
8.577100 0.000000
8.595400 0.000000
8.613700 0.000000
8.632000 0.000000
8.650300 0.000000
8.668600 0.000000
8.686900 0.000000
8.705200 0.000000
8.723400 0.000000
8.741700 0.000000
8.760000 0.000000
8.778300 0.000000
8.796600 0.000000
8.814900 0.000000
8.833200 0.000000
8.851500 0.000000
8.869800 0.000000
8.888000 0.000000
8.906300 0.000000
8.924600 0.000000
8.942900 0.000000
8.961200 0.000000
8.979500 0.000000
8.997800 0.000000
9.016100 0.000000
9.034400 0.000000
9.052600 0.000000
9.070900 0.000000
9.089200 0.000000
9.107500 0.000000
9.125800 0.000000
9.144100 0.000000
9.162400 0.000000
9.180700 0.000000
9.199000 0.000000
9.217200 0.000000
9.235500 0.000000
9.253800 0.000000
9.272100 0.000000
9.290400 0.000000
9.308700 0.000000
9.327000 0.000000
9.345300 0.000000
9.363600 0.000000
9.381800 0.000000
9.400100 0.000000
9.418400 0.000000
9.436700 0.000000
9.455000 0.000000
9.473300 0.000000
9.491600 0.000000
9.509900 0.000000
9.528100 0.000000
9.546400 0.000000
9.564700 0.000000
9.583000 0.000000
9.601300 0.000000
9.619600 0.000000
9.637900 0.000000
9.656200 0.000000
9.674500 0.000000
9.692700 0.000000
9.711000 0.000000
9.729300 0.000000
9.747600 0.000000
9.765900 0.000000
9.784200 0.000000
9.802500 0.000000
9.820800 0.000000
9.839100 0.000000
9.857300 0.000000
9.875600 0.000000
9.893900 0.000000
9.912200 0.000000
9.930500 0.000000
9.948800 0.000000
9.967100 0.000000
9.985400 0.000000
10.003700 0.000000
10.021900 0.000000
10.040200 0.000000
10.058500 0.000000
10.076800 0.000000
10.095100 0.000000
10.113400 0.000000
10.131700 0.000000
10.150000 0.000000
10.168300 0.000000
10.186500 0.000000
10.204800 0.000000
10.223100 0.000000
10.241400 0.000000
10.259700 0.000000
10.278000 0.000000
10.296300 0.000000
10.314600 0.000000
10.332900 0.000000
10.351100 0.000000
10.369400 0.000000
10.387700 0.000000
10.406000 0.000000
10.424300 0.000000
10.442600 0.000000
10.460900 0.000000
10.479200 0.000000
10.497500 0.000000
10.515700 0.000000
10.534000 0.000000
10.552300 0.000000
10.570600 0.000000
10.588900 0.000000
10.607200 0.000000
10.625500 0.000000
10.643800 0.000000
10.662100 0.000000
10.680300 0.000000
10.698600 0.000000
10.716900 0.000000
10.735200 0.000000
10.753500 0.000000
10.771800 0.000000
10.790100 0.000000
10.808400 0.000000
10.826600 0.000000
10.844900 0.000000
10.863200 0.000000
10.881500 0.000000
10.899800 0.000000
10.918100 0.000000
10.936400 0.002500
10.954700 0.028200
10.973000 0.081700
10.991200 0.163000
11.009500 0.272100
11.027800 0.409000
11.046100 0.573800
11.064400 0.766400
11.082700 0.986700
11.101000 1.235900
11.119300 1.515500
11.137600 1.825500
11.155800 2.343300
11.174100 4.293100
11.192400 4.626300
11.210700 4.257800
11.229000 4.211000
11.247300 4.410100
11.265600 4.598900
11.283900 4.777300
11.302200 4.945400
11.320400 5.103200
11.338700 5.250600
11.357000 5.387700
11.375300 6.180800
11.393600 6.929400
11.411900 7.508100
11.430200 7.983100
11.448500 8.808100
11.466800 9.909200
11.485000 10.998400
11.503300 12.069800
11.521600 13.843500
11.539900 15.833400
11.558200 13.419100
11.576500 12.884000
11.594800 14.220100
11.613100 14.944200
11.631400 9.925400
11.649600 10.142800
11.667900 10.359400
11.686200 10.641800
11.704500 8.748800
11.722800 8.889100
11.741100 8.996000
11.759400 9.493900
11.777700 10.490800
11.796000 11.205200
11.814200 11.801400
11.832500 12.260900
11.850800 12.696000
11.869100 13.355700
11.887400 14.789200
11.905700 19.971200
11.924000 16.989300
11.942300 15.302700
11.960600 14.875800
11.978800 14.872200
11.997100 14.752100
12.015400 14.673500
12.033700 24.480400
12.052000 17.399500
12.070300 16.087300
12.088600 14.082600
12.106900 12.795400
12.125100 12.627800
12.143400 13.027000
12.161700 13.649900
12.180000 14.088800
12.198300 14.264500
12.216600 15.110700
12.234900 15.202600
12.253200 15.296000
12.271500 15.361800
12.289700 15.400000
12.308000 15.210500
12.326300 14.806800
12.344600 14.668600
12.362900 14.398300
12.381200 13.773800
12.399500 13.176700
12.417800 12.620000
12.436100 12.081200
12.454300 11.577100
12.472600 11.494700
12.490900 11.276300
12.509200 12.596900
12.527500 12.309500
12.545800 13.980800
12.564100 17.803500
12.582400 21.254700
12.600700 11.516700
12.618900 11.986100
12.637200 12.399200
12.655500 12.763800
12.673800 12.647900
12.692100 11.380600
12.710400 19.370800
12.728700 7.462700
12.747000 7.511300
12.765300 7.631100
12.783500 7.822100
12.801800 8.084200
12.820100 14.325000
12.838400 11.522000
12.856700 9.719400
12.875000 10.485300
12.893300 14.319700
12.911600 15.206600
12.929900 13.815900
12.948100 12.026800
12.966400 11.303100
12.984700 11.526000
13.003000 12.698000
13.021300 14.081500
13.039600 15.137700
13.057900 15.671500
13.076200 14.608100
13.094500 14.042500
13.112700 14.165600
13.131000 11.675400
13.149300 10.647200
13.167600 10.838900
13.185900 13.574200
13.204200 14.002700
13.222500 15.053000
13.240800 16.832400
13.259100 16.338800
13.277300 16.277800
13.295600 20.590300
13.313900 18.796000
13.332200 17.547400
13.350500 16.344200
13.368800 15.119300
13.387100 14.244400
13.405400 14.562300
13.423600 14.798200
13.441900 14.618700
13.460200 14.420800
13.478500 44.931600
13.496800 8.170300
13.515100 8.423600
13.533400 8.768300
13.551700 9.312300
13.570000 10.062800
13.588200 11.019600
13.606500 13.354800
13.624800 14.693400
13.643100 20.125400
13.661400 16.142900
13.679700 19.322100
13.698000 18.303900
13.716300 16.252800
13.734600 16.110700
13.752800 17.834200
13.771100 18.914300
13.789400 22.049900
13.807700 30.488100
13.826000 17.841600
13.844300 16.909800
13.862600 16.329200
13.880900 16.103700
13.899200 16.118100
13.917400 15.584000
13.935700 12.113100
13.954000 10.443900
13.972300 9.419500
13.990600 9.031400
14.008900 9.970500
14.027200 10.284200
14.045500 9.908500
14.063800 9.260600
14.082000 16.980400
14.100300 9.944000
14.118600 9.716900
14.136900 9.758500
14.155200 10.068700
14.173500 10.647600
14.191800 11.408300
14.210100 12.238700
14.228400 13.901000
14.246600 18.054500
14.264900 11.204100
14.283200 10.557800
14.301500 9.908500
14.319800 9.256300
14.338100 8.601300
14.356400 7.943300
14.374700 8.843900
14.393000 6.598200
14.411200 4.889800
14.429500 3.890700
14.447800 3.403600
14.466100 3.144100
14.484400 3.743800
14.502700 16.261900
14.521000 20.429000
14.539300 20.203400
14.557600 19.960200
14.575800 27.862600
14.594100 29.028700
14.612400 27.639200
14.630700 21.025100
14.649000 9.314800
14.667300 9.247000
14.685600 9.009400
14.703900 9.615000
14.722100 12.502600
14.740400 14.015900
14.758700 15.608800
14.777000 16.354000
14.795300 18.229100
14.813600 16.939600
14.831900 14.611600
14.850200 13.869700
14.868500 14.905000
14.886700 21.994500
14.905000 24.486400
14.923300 13.708900
14.941600 18.631900
14.959900 16.804800
14.978200 11.285900
14.996500 11.084300
15.014800 10.921700
15.033100 10.798200
15.051300 10.713600
15.069600 12.342800
15.087900 17.360300
15.106200 6.880500
15.124500 3.903500
15.142800 3.768800
15.161100 6.676800
15.179400 14.988300
15.197700 18.089300
15.215900 12.215200
15.234200 10.076000
15.252500 10.196000
15.270800 14.503600
15.289100 12.660900
15.307400 13.331100
15.325700 16.491500
15.344000 16.456500
15.362300 16.557800
15.380500 18.495800
15.398800 17.871400
15.417100 18.097200
15.435400 16.898500
15.453700 15.599300
15.472000 13.592500
15.490300 14.187100
15.508600 11.685700
15.526900 12.087400
15.545100 12.463500
15.563400 15.367200
15.581700 12.821200
15.600000 12.380300
15.618300 11.672100
15.636600 12.875200
15.654900 30.028100
15.673200 29.539200
15.691500 18.307600
15.709700 12.264200
15.728000 10.043900
15.746300 8.855100
15.764600 6.948500
15.782900 6.224700
15.801200 6.654300
15.819500 8.164600
15.837800 10.275900
15.856000 12.398400
15.874300 10.246700
15.892600 10.574200
15.910900 10.727400
15.929200 10.967400
15.947500 11.722600
15.965800 12.566500
15.984100 14.500800
16.002400 13.821000
16.020600 12.076600
16.038900 10.895300
16.057200 8.887000
16.075500 7.682500
16.093800 7.256400
16.112100 7.929800
16.130400 9.425400
16.148700 10.937300
16.167000 13.088800
16.185200 15.450800
16.203500 9.897900
16.221800 10.100300
16.240100 10.153400
16.258400 10.056000
16.276700 9.812900
16.295000 9.518600
16.313300 9.507200
16.331600 9.686600
16.349800 10.369500
16.368100 12.414200
16.386400 13.939500
16.404700 12.564600
16.423000 11.247800
16.441300 10.114000
16.459600 9.466500
16.477900 12.283200
16.496200 16.290100
16.514400 11.828400
16.532700 9.633400
16.551000 8.280000
16.569300 8.123300
16.587600 11.390800
16.605900 11.130400
16.624200 11.230300
16.642500 11.365200
16.660800 11.547100
16.679000 12.161400
16.697300 12.792400
16.715600 13.390400
16.733900 13.900500
16.752200 14.292300
16.770500 22.145600
16.788800 18.843600
16.807100 15.515900
16.825400 13.704300
16.843600 19.008200
16.861900 17.735400
16.880200 16.892000
16.898500 16.070000
16.916800 15.397000
16.935100 16.368200
16.953400 19.618300
16.971700 16.280300
16.990000 11.884100
17.008200 10.155800
17.026500 8.026500
17.044800 6.441600
17.063100 12.549900
17.081400 16.075100
17.099700 12.411500
17.118000 9.913400
17.136300 8.580800
17.154500 8.093100
17.172800 8.188800
17.191100 8.958900
17.209400 10.402100
17.227700 12.387100
17.246000 18.974400
17.264300 13.944300
17.282600 14.054300
17.300900 12.855200
17.319100 11.437800
17.337400 10.384900
17.355700 9.712600
17.374000 9.433200
17.392300 24.483500
17.410600 23.845300
17.428900 24.267100
17.447200 18.763700
17.465500 9.474500
17.483700 10.049800
17.502000 11.465900
17.520300 13.188300
17.538600 17.554800
17.556900 15.698600
17.575200 15.162900
17.593500 14.924700
17.611800 14.531200
17.630100 14.813000
17.648300 14.349700
17.666600 18.437700
17.684900 15.760100
17.703200 12.239000
17.721500 16.182400
17.739800 13.255400
17.758100 11.427600
17.776400 11.681800
17.794700 12.020400
17.812900 15.438600
17.831200 12.963100
17.849500 13.440800
17.867800 13.706000
17.886100 13.986700
17.904400 14.492500
17.922700 14.658800
17.941000 14.485600
17.959300 14.197300
17.977500 13.095900
17.995800 12.029300
18.014100 12.514900
18.032400 17.917800
18.050700 13.606900
18.069000 13.302300
18.087300 13.437800
18.105600 17.039300
18.123900 16.127600
18.142100 13.942300
18.160400 12.458100
18.178700 11.472400
18.197000 12.633100
18.215300 12.450300
18.233600 12.440300
18.251900 12.449300
18.270200 12.472800
18.288500 12.510800
18.306700 20.067900
18.325000 12.287200
18.343300 6.916800
18.361600 4.457000
18.379900 5.087300
18.398200 7.394300
18.416500 10.194700
18.434800 10.423100
18.453000 13.983400
18.471300 24.675700
18.489600 26.232700
18.507900 8.744300
18.526200 8.424600
18.544500 8.261100
18.562800 8.192800
18.581100 8.226700
18.599400 8.363800
18.617600 8.603900
18.635900 9.454200
18.654200 8.868500
18.672500 8.989800
18.690800 9.818200
18.709100 18.056100
18.727400 13.060700
18.745700 13.493900
18.764000 13.887400
18.782200 12.829500
18.800500 8.890300
18.818800 9.841000
18.837100 13.191800
18.855400 23.009800
18.873700 20.579800
18.892000 16.309700
18.910300 10.182700
18.928600 9.555300
18.946800 9.410400
18.965100 9.625800
18.983400 10.206800
19.001700 12.591000
19.020000 14.472100
19.038300 16.499000
19.056600 18.756000
19.074900 21.352000
19.093200 15.091000
19.111400 14.078800
19.129700 12.441800
19.148000 10.419800
19.166300 30.772000
19.184600 20.395200
19.202900 19.346600
19.221200 26.101000
19.239500 17.069400
19.257800 10.922400
19.276000 7.146200
19.294300 3.841100
19.312600 3.441500
19.330900 3.063500
19.349200 2.757900
19.367500 2.555600
19.385800 2.456700
19.404100 2.461100
19.422400 2.568800
19.440600 2.758100
19.458900 3.044200
19.477200 3.489300
19.495500 4.094000
19.513800 7.582100
19.532100 10.995900
19.550400 12.283400
19.568700 13.544600
19.587000 15.141800
19.605200 15.550700
19.623500 15.598300
19.641800 14.831300
19.660100 14.162500
19.678400 17.181400
19.696700 14.747400
19.715000 12.653800
19.733300 12.543900
19.751500 42.171600
19.769800 5.194700
19.788100 2.856600
19.806400 1.357900
19.824700 2.903100
19.843000 6.965900
19.861300 10.028100
19.879600 11.827300
19.897900 11.106000
19.916100 10.562300
19.934400 10.182700
19.952700 10.164400
19.971000 10.753400
19.989300 12.090000
20.007600 6.424600
20.025900 7.072900
20.044200 10.365600
20.062500 13.280900
20.080700 14.393500
20.099000 14.382600
20.117300 14.651300
20.135600 14.875100
20.153900 15.054000
20.172200 15.189300
20.190500 15.265500
20.208800 15.716300
20.227100 20.119600
20.245300 23.646800
20.263600 8.526800
20.281900 9.299400
20.300200 16.735000
20.318500 17.259300
20.336800 14.840100
20.355100 14.304900
20.373400 10.600200
20.391700 10.132100
20.409900 7.845200
20.428200 6.707100
20.446500 7.137900
20.464800 8.812100
20.483100 11.565700
20.501400 10.824200
20.519700 9.623200
20.538000 8.431100
20.556300 7.217800
20.574500 6.436900
20.592800 6.288000
20.611100 6.181400
20.629400 6.116800
20.647700 6.094500
20.666000 6.114300
20.684300 6.177200
20.702600 6.304200
20.720900 7.057200
20.739100 11.475900
20.757400 17.279900
20.775700 12.823600
20.794000 7.435900
20.812300 7.586800
20.830600 7.929100
20.848900 8.491500
20.867200 9.492400
20.885500 10.882200
20.903700 13.808900
20.922000 11.856400
20.940300 13.738800
20.958600 17.761700
20.976900 17.134500
20.995200 13.720100
21.013500 9.004900
21.031800 9.301700
21.050000 9.463900
21.068300 8.276300
21.086600 6.311000
21.104900 6.422100
21.123200 7.288300
21.141500 8.579100
21.159800 9.901500
21.178100 10.411500
21.196400 10.307200
21.214600 10.299300
21.232900 10.041600
21.251200 9.360400
21.269500 6.985900
21.287800 5.348900
21.306100 4.125700
21.324400 3.345900
21.342700 2.670700
21.361000 2.099000
21.379200 1.630500
21.397500 1.265400
21.415800 0.993400
21.434100 0.762500
21.452400 0.562600
21.470700 0.393800
21.489000 0.256000
21.507300 0.149200
21.525600 0.073400
21.543800 0.028600
21.562100 0.007800
21.580400 0.000100
21.598700 0.000000
21.617000 0.000000
21.635300 0.000000
21.653600 0.000000
21.671900 0.000000
21.690200 0.000000
21.708400 0.000000
21.726700 0.000000
21.745000 0.000000
21.763300 0.000000
21.781600 0.000000
21.799900 0.000000
21.818200 0.000000
21.836500 0.000000
21.854800 0.000000
21.873000 0.000000
21.891300 0.000000
21.909600 0.000000
21.927900 0.000000
21.946200 0.000000
21.964500 0.000000
21.982800 0.000000
22.001100 0.000000
22.019400 0.000000
22.037600 0.000000
22.055900 0.000000
22.074200 0.000000
22.092500 0.000000
22.110800 0.000000
22.129100 0.000000
22.147400 0.000000
22.165700 0.000000
22.183900 0.000000
22.202200 0.000000
22.220500 0.000000
22.238800 0.000000
22.257100 0.000000
22.275400 0.000000
22.293700 0.000000
22.312000 0.000000
22.330300 0.000000
22.348500 0.000000
22.366800 0.000000
22.385100 0.000000
22.403400 0.000000
22.421700 0.000000
22.440000 0.000000
22.458300 0.000000
22.476600 0.000000
22.494900 0.000000
22.513100 0.000000
22.531400 0.000000
22.549700 0.000000
22.568000 0.000000
22.586300 0.000000
22.604600 0.000000
22.622900 0.000000
22.641200 0.000000
22.659500 0.000000
22.677700 0.000000
22.696000 0.000000
22.714300 0.000000
22.732600 0.000000
22.750900 0.000000
22.769200 0.000000
22.787500 0.000000
22.805800 0.000000
22.824100 0.000000
22.842300 0.000000
22.860600 0.000000
22.878900 0.000000
22.897200 0.000000
22.915500 0.000000
22.933800 0.000000
22.952100 0.000000
22.970400 0.000000
22.988700 0.000000
23.006900 0.000000
23.025200 0.000000
23.043500 0.000000
23.061800 0.000000
23.080100 0.000000
23.098400 0.000000
23.116700 0.000000
23.135000 0.000000
23.153300 0.000000
23.171500 0.000000
23.189800 0.000000
23.208100 0.000000
23.226400 0.000000
23.244700 0.000000
e
