set title 'mp-1184731 - Density of States'
set xlabel 'Energy (eV)'
set ylabel 'DOS (states/eV)'
set grid
set xrange [-10:10]
set yrange [0:2.818]
set xzeroaxis lt -1
set terminal png size 800,600
set output 'mp-1184731_dos_gnuplot.png'
plot '-' using 1:2 with lines title 'DOS'
-14.463600 0.000000
-14.439000 0.000000
-14.414400 0.000000
-14.389800 0.000000
-14.365200 0.000000
-14.340600 0.000000
-14.316000 0.000000
-14.291400 0.000000
-14.266800 0.000000
-14.242300 0.000000
-14.217700 0.000000
-14.193100 0.000000
-14.168500 0.000000
-14.143900 0.000000
-14.119300 0.000000
-14.094700 0.000000
-14.070100 0.000000
-14.045500 0.000000
-14.020900 0.000000
-13.996400 0.000000
-13.971800 0.000000
-13.947200 0.000000
-13.922600 0.000000
-13.898000 0.000000
-13.873400 0.000000
-13.848800 0.000000
-13.824200 0.000000
-13.799600 0.000000
-13.775000 0.000000
-13.750500 0.000000
-13.725900 0.000000
-13.701300 0.000000
-13.676700 0.000000
-13.652100 0.000000
-13.627500 0.000000
-13.602900 0.000000
-13.578300 0.000000
-13.553700 0.000000
-13.529200 0.000000
-13.504600 0.000000
-13.480000 0.000000
-13.455400 0.000000
-13.430800 0.000000
-13.406200 0.000000
-13.381600 0.000000
-13.357000 0.000000
-13.332400 0.000000
-13.307800 0.000000
-13.283300 0.000000
-13.258700 0.000000
-13.234100 0.000000
-13.209500 0.000000
-13.184900 0.000000
-13.160300 0.000000
-13.135700 0.000000
-13.111100 0.000000
-13.086500 0.000000
-13.061900 0.000000
-13.037400 0.000000
-13.012800 0.000000
-12.988200 0.000000
-12.963600 0.000000
-12.939000 0.000000
-12.914400 0.000000
-12.889800 0.000000
-12.865200 0.000000
-12.840600 0.000000
-12.816000 0.000000
-12.791500 0.000000
-12.766900 0.000000
-12.742300 0.000000
-12.717700 0.000000
-12.693100 0.000000
-12.668500 0.000000
-12.643900 0.000000
-12.619300 0.000000
-12.594700 0.000000
-12.570200 0.000000
-12.545600 0.000000
-12.521000 0.000000
-12.496400 0.000000
-12.471800 0.000000
-12.447200 0.000000
-12.422600 0.000000
-12.398000 0.000000
-12.373400 0.000000
-12.348800 0.000000
-12.324300 0.000000
-12.299700 0.000000
-12.275100 0.000000
-12.250500 0.000000
-12.225900 1.229800
-12.201300 26.586900
-12.176700 32.618100
-12.152100 45.076400
-12.127500 16.223700
-12.102900 31.928900
-12.078400 82.054500
-12.053800 54.666900
-12.029200 76.133300
-12.004600 78.140200
-11.980000 121.761300
-11.955400 98.148000
-11.930800 55.056100
-11.906200 26.532200
-11.881600 0.000000
-11.857100 0.000000
-11.832500 0.000000
-11.807900 0.000000
-11.783300 0.000000
-11.758700 0.000000
-11.734100 0.000000
-11.709500 0.000000
-11.684900 0.000000
-11.660300 0.000000
-11.635700 0.000000
-11.611200 0.000000
-11.586600 0.000000
-11.562000 0.000000
-11.537400 0.000000
-11.512800 0.000000
-11.488200 0.000000
-11.463600 0.000000
-11.439000 0.000000
-11.414400 0.000000
-11.389800 0.000000
-11.365300 0.000000
-11.340700 0.000000
-11.316100 0.000000
-11.291500 0.000000
-11.266900 0.000000
-11.242300 0.000000
-11.217700 0.000000
-11.193100 0.000000
-11.168500 0.000000
-11.144000 0.000000
-11.119400 0.000000
-11.094800 0.000000
-11.070200 0.000000
-11.045600 0.000000
-11.021000 0.000000
-10.996400 0.000000
-10.971800 0.000000
-10.947200 0.000000
-10.922600 0.000000
-10.898100 0.000000
-10.873500 0.000000
-10.848900 0.000000
-10.824300 0.000000
-10.799700 0.000000
-10.775100 0.000000
-10.750500 0.000000
-10.725900 0.000000
-10.701300 0.000000
-10.676700 0.000000
-10.652200 0.000000
-10.627600 0.000000
-10.603000 0.000000
-10.578400 0.000000
-10.553800 0.000000
-10.529200 0.000000
-10.504600 0.000000
-10.480000 0.000000
-10.455400 0.000000
-10.430900 0.000000
-10.406300 0.000000
-10.381700 0.000000
-10.357100 0.000000
-10.332500 0.000000
-10.307900 0.000000
-10.283300 0.000000
-10.258700 0.000000
-10.234100 0.000000
-10.209500 0.000000
-10.185000 0.000000
-10.160400 0.000000
-10.135800 0.000000
-10.111200 0.000000
-10.086600 0.000000
-10.062000 0.000000
-10.037400 0.000000
-10.012800 0.000000
-9.988200 0.000000
-9.963600 0.000000
-9.939100 0.000000
-9.914500 0.000000
-9.889900 0.000000
-9.865300 0.000000
-9.840700 0.000000
-9.816100 0.000000
-9.791500 0.000000
-9.766900 0.000000
-9.742300 0.000000
-9.717800 0.000000
-9.693200 0.000000
-9.668600 0.000000
-9.644000 0.000000
-9.619400 0.000000
-9.594800 0.000000
-9.570200 0.000000
-9.545600 0.000000
-9.521000 0.000000
-9.496400 0.000000
-9.471900 0.000000
-9.447300 0.000000
-9.422700 0.000000
-9.398100 0.000000
-9.373500 0.000000
-9.348900 0.000000
-9.324300 0.000000
-9.299700 0.000000
-9.275100 0.000000
-9.250500 0.000000
-9.226000 0.000000
-9.201400 0.000000
-9.176800 0.000000
-9.152200 0.000000
-9.127600 0.000000
-9.103000 0.000000
-9.078400 0.000000
-9.053800 0.000000
-9.029200 0.000000
-9.004700 0.000000
-8.980100 0.000000
-8.955500 0.000000
-8.930900 0.000000
-8.906300 0.000000
-8.881700 0.000000
-8.857100 0.000000
-8.832500 0.000000
-8.807900 0.000000
-8.783300 0.000000
-8.758800 0.000000
-8.734200 0.000000
-8.709600 0.000000
-8.685000 0.000000
-8.660400 0.000000
-8.635800 0.000000
-8.611200 0.000000
-8.586600 0.000000
-8.562000 0.000000
-8.537400 0.000000
-8.512900 0.000000
-8.488300 0.000000
-8.463700 0.000000
-8.439100 0.000000
-8.414500 0.000000
-8.389900 0.000000
-8.365300 0.000000
-8.340700 0.000000
-8.316100 0.000000
-8.291600 0.000000
-8.267000 0.000000
-8.242400 0.000000
-8.217800 0.000000
-8.193200 0.000000
-8.168600 0.000000
-8.144000 0.000000
-8.119400 0.000000
-8.094800 0.000000
-8.070200 0.000000
-8.045700 0.000000
-8.021100 0.000000
-7.996500 0.000000
-7.971900 0.000000
-7.947300 0.000000
-7.922700 0.000000
-7.898100 0.000000
-7.873500 0.000000
-7.848900 0.000000
-7.824300 0.000000
-7.799800 0.000000
-7.775200 0.000000
-7.750600 0.000000
-7.726000 0.000000
-7.701400 0.000000
-7.676800 0.000000
-7.652200 0.000000
-7.627600 0.000000
-7.603000 0.000000
-7.578500 0.000000
-7.553900 0.000000
-7.529300 0.000000
-7.504700 0.000000
-7.480100 0.000000
-7.455500 0.000000
-7.430900 0.000000
-7.406300 0.000000
-7.381700 0.000000
-7.357100 0.000000
-7.332600 0.000000
-7.308000 0.000000
-7.283400 0.000000
-7.258800 0.000000
-7.234200 0.000000
-7.209600 0.000000
-7.185000 0.000000
-7.160400 0.000000
-7.135800 0.000000
-7.111200 0.000000
-7.086700 0.000000
-7.062100 0.000000
-7.037500 0.000000
-7.012900 0.000000
-6.988300 0.000000
-6.963700 0.000000
-6.939100 0.000000
-6.914500 0.000000
-6.889900 0.000000
-6.865400 0.000000
-6.840800 0.000000
-6.816200 0.000000
-6.791600 0.000000
-6.767000 0.000000
-6.742400 0.000000
-6.717800 0.000000
-6.693200 0.000000
-6.668600 0.000000
-6.644000 0.000000
-6.619500 0.000000
-6.594900 0.000000
-6.570300 0.000000
-6.545700 0.000000
-6.521100 0.000000
-6.496500 0.000000
-6.471900 0.000000
-6.447300 0.000000
-6.422700 0.000000
-6.398100 0.000000
-6.373600 0.000000
-6.349000 0.000000
-6.324400 0.000000
-6.299800 0.000000
-6.275200 0.000000
-6.250600 0.000000
-6.226000 0.000000
-6.201400 0.000000
-6.176800 0.000000
-6.152300 0.000000
-6.127700 0.000000
-6.103100 0.000000
-6.078500 0.003500
-6.053900 0.034800
-6.029300 0.096300
-6.004700 0.163400
-5.980100 0.176700
-5.955500 0.177000
-5.930900 0.201300
-5.906400 0.226500
-5.881800 0.252100
-5.857200 0.274700
-5.832600 0.293200
-5.808000 0.304900
-5.783400 0.315800
-5.758800 0.324900
-5.734200 0.335700
-5.709600 0.349200
-5.685000 0.363400
-5.660500 0.377900
-5.635900 0.421900
-5.611300 0.459700
-5.586700 0.491300
-5.562100 0.450400
-5.537500 0.458100
-5.512900 0.463300
-5.488300 0.464000
-5.463700 0.464500
-5.439200 0.466300
-5.414600 0.466200
-5.390000 0.461200
-5.365400 0.456700
-5.340800 0.471700
-5.316200 0.511900
-5.291600 0.557900
-5.267000 0.543100
-5.242400 0.556600
-5.217800 0.570500
-5.193300 0.584800
-5.168700 0.599600
-5.144100 0.614700
-5.119500 0.630000
-5.094900 0.634400
-5.070300 0.640700
-5.045700 0.645700
-5.021100 0.652900
-4.996500 0.663100
-4.971900 0.674800
-4.947400 0.687300
-4.922800 0.700600
-4.898200 0.713900
-4.873600 0.727400
-4.849000 0.741200
-4.824400 0.755300
-4.799800 0.769400
-4.775200 0.777200
-4.750600 0.789900
-4.726100 0.802500
-4.701500 0.816300
-4.676900 0.836300
-4.652300 0.864600
-4.627700 0.895700
-4.603100 0.923200
-4.578500 0.949800
-4.553900 0.963700
-4.529300 0.963800
-4.504700 0.959600
-4.480200 0.966900
-4.455600 0.973000
-4.431000 0.977000
-4.406400 0.979000
-4.381800 0.978200
-4.357200 0.976600
-4.332600 0.975400
-4.308000 0.977000
-4.283400 0.980400
-4.258800 0.984800
-4.234300 0.989200
-4.209700 0.993400
-4.185100 0.997400
-4.160500 0.999700
-4.135900 1.002100
-4.111300 1.004200
-4.086700 1.006200
-4.062100 1.008000
-4.037500 1.010800
-4.012900 1.014700
-3.988400 1.019100
-3.963800 1.023700
-3.939200 1.028700
-3.914600 1.034000
-3.890000 1.039700
-3.865400 1.044600
-3.840800 1.050200
-3.816200 1.055900
-3.791600 1.061600
-3.767100 1.067200
-3.742500 1.072500
-3.717900 1.077900
-3.693300 1.083500
-3.668700 1.089400
-3.644100 1.096000
-3.619500 1.103300
-3.594900 1.111400
-3.570300 1.120200
-3.545700 1.129200
-3.521200 1.138400
-3.496600 1.147800
-3.472000 1.157300
-3.447400 1.167200
-3.422800 1.177400
-3.398200 1.189000
-3.373600 1.201600
-3.349000 1.214900
-3.324400 1.229300
-3.299800 1.248000
-3.275300 1.268700
-3.250700 1.290000
-3.226100 1.313200
-3.201500 1.340800
-3.176900 1.372000
-3.152300 1.405800
-3.127700 1.441900
-3.103100 1.564000
-3.078500 1.732800
-3.054000 1.697500
-3.029400 1.634100
-3.004800 1.620500
-2.980200 1.623400
-2.955600 1.605700
-2.931000 1.583400
-2.906400 1.570900
-2.881800 1.562900
-2.857200 1.550900
-2.832600 1.553100
-2.808100 1.570800
-2.783500 1.647000
-2.758900 1.537900
-2.734300 1.483700
-2.709700 1.475500
-2.685100 1.479000
-2.660500 1.491100
-2.635900 1.505400
-2.611300 1.533900
-2.586700 1.701100
-2.562200 1.607200
-2.537600 1.611300
-2.513000 1.606900
-2.488400 1.557600
-2.463800 1.556900
-2.439200 1.544200
-2.414600 1.565700
-2.390000 1.600200
-2.365400 1.730100
-2.340900 1.579700
-2.316300 1.606600
-2.291700 1.587700
-2.267100 1.755600
-2.242500 1.737300
-2.217900 1.459100
-2.193300 1.325000
-2.168700 1.279800
-2.144100 1.158200
-2.119500 1.137000
-2.095000 1.724700
-2.070400 0.521800
-2.045800 0.045900
-2.021200 0.000000
-1.996600 0.000000
-1.972000 0.000000
-1.947400 0.000000
-1.922800 0.000000
-1.898200 0.000000
-1.873600 0.000000
-1.849100 0.000000
-1.824500 0.000000
-1.799900 0.000000
-1.775300 0.000000
-1.750700 0.000000
-1.726100 0.000000
-1.701500 0.000000
-1.676900 0.000000
-1.652300 0.000000
-1.627800 0.000000
-1.603200 0.000000
-1.578600 0.000000
-1.554000 0.000000
-1.529400 0.000000
-1.504800 0.000000
-1.480200 0.000000
-1.455600 0.000000
-1.431000 0.000000
-1.406400 0.000000
-1.381900 0.000000
-1.357300 0.000000
-1.332700 0.000000
-1.308100 0.000000
-1.283500 0.000000
-1.258900 0.000000
-1.234300 0.000000
-1.209700 0.000000
-1.185100 0.000000
-1.160500 0.000000
-1.136000 0.000000
-1.111400 0.000000
-1.086800 0.000000
-1.062200 0.000000
-1.037600 0.000000
-1.013000 0.000000
-0.988400 0.000000
-0.963800 0.000000
-0.939200 0.000000
-0.914700 0.000000
-0.890100 0.000000
-0.865500 0.000000
-0.840900 0.000000
-0.816300 0.000000
-0.791700 0.000000
-0.767100 0.000000
-0.742500 0.004100
-0.717900 0.016700
-0.693300 0.037200
-0.668800 0.050400
-0.644200 0.064500
-0.619600 0.079300
-0.595000 0.094900
-0.570400 0.111300
-0.545800 0.128500
-0.521200 0.145200
-0.496600 0.157600
-0.472000 0.164100
-0.447400 0.168000
-0.422900 0.175800
-0.398300 0.183400
-0.373700 0.190900
-0.349100 0.198200
-0.324500 0.205400
-0.299900 0.212800
-0.275300 0.221000
-0.250700 0.229200
-0.226100 0.237600
-0.201600 0.246000
-0.177000 0.254400
-0.152400 0.262700
-0.127800 0.271100
-0.103200 0.279600
-0.078600 0.288300
-0.054000 0.297200
-0.029400 0.307000
-0.004800 0.317100
0.019800 0.327600
0.044300 0.338500
0.068900 0.350000
0.093500 0.361900
0.118100 0.374400
0.142700 0.386700
0.167300 0.398400
0.191900 0.410300
0.216500 0.423300
0.241100 0.437300
0.265700 0.452400
0.290200 0.468600
0.314800 0.485800
0.339400 0.503900
0.364000 0.526200
0.388600 0.553000
0.413200 0.592000
0.437800 0.644500
0.462400 1.340100
0.487000 1.994600
0.511500 1.712600
0.536100 1.781600
0.560700 1.849300
0.585300 1.892600
0.609900 1.850100
0.634500 1.856400
0.659100 1.851100
0.683700 1.813000
0.708300 1.827500
0.732900 1.931700
0.757400 1.890500
0.782000 1.802000
0.806600 1.746600
0.831200 1.715800
0.855800 1.735300
0.880400 1.758000
0.905000 1.779600
0.929600 1.743400
0.954200 1.760600
0.978800 1.774900
1.003300 1.941000
1.027900 1.821500
1.052500 1.889700
1.077100 1.840100
1.101700 1.777700
1.126300 1.776400
1.150900 1.777500
1.175500 2.102900
1.200100 1.449600
1.224600 1.396900
1.249200 1.350000
1.273800 1.503200
1.298400 1.461500
1.323000 1.369300
1.347600 1.354600
1.372200 1.313600
1.396800 1.301800
1.421400 1.289100
1.446000 1.282500
1.470500 1.284000
1.495100 1.291600
1.519700 1.306500
1.544300 1.325300
1.568900 1.341800
1.593500 1.384100
1.618100 1.433300
1.642700 1.495900
1.667300 1.779900
1.691900 1.414700
1.716400 1.287800
1.741000 1.139800
1.765600 0.859300
1.790200 0.869500
1.814800 0.874800
1.839400 0.867200
1.864000 0.844600
1.888600 0.814500
1.913200 0.776800
1.937700 0.731700
1.962300 0.694200
1.986900 0.674500
2.011500 0.656300
2.036100 0.639700
2.060700 0.625300
2.085300 0.613600
2.109900 0.652600
2.134500 0.716600
2.159100 0.687900
2.183600 0.694600
2.208200 0.702500
2.232800 0.711700
2.257400 0.721300
2.282000 0.724700
2.306600 0.728900
2.331200 0.738700
2.355800 0.748900
2.380400 0.764100
2.405000 0.790100
2.429500 0.817300
2.454100 0.880800
2.478700 0.934100
2.503300 1.047600
2.527900 1.174700
2.552500 1.350000
2.577100 0.617900
2.601700 0.607100
2.626300 0.596700
2.650800 0.586800
2.675400 0.577300
2.700000 0.568900
2.724600 0.561700
2.749200 0.554800
2.773800 0.548100
2.798400 0.541600
2.823000 0.535300
2.847600 0.529200
2.872200 0.523200
2.896700 0.517300
2.921300 0.511500
2.945900 0.505800
2.970500 0.553000
2.995100 0.646300
3.019700 0.701400
3.044300 0.750500
3.068900 0.803400
3.093500 0.860500
3.118100 0.921800
3.142600 0.979800
3.167200 1.000100
3.191800 0.996500
3.216400 1.079100
3.241000 1.142700
3.265600 1.193200
3.290200 1.256000
3.314800 1.293400
3.339400 1.304700
3.363900 1.305800
3.388500 1.303100
3.413100 1.296700
3.437700 1.284000
3.462300 1.295100
3.486900 1.308000
3.511500 1.324100
3.536100 1.345100
3.560700 1.360400
3.585300 1.371800
3.609800 1.370300
3.634400 1.361200
3.659000 1.367200
3.683600 1.340600
3.708200 1.309300
3.732800 1.291700
3.757400 1.269900
3.782000 1.260500
3.806600 1.251100
3.831200 1.241000
3.855700 1.230200
3.880300 1.218700
3.904900 1.206400
3.929500 1.246900
3.954100 1.241800
3.978700 1.236200
4.003300 1.230600
4.027900 1.229000
4.052500 1.229900
4.077000 1.233700
4.101600 1.265100
4.126200 1.287300
4.150800 1.317900
4.175400 1.366900
4.200000 1.471500
4.224600 1.525700
4.249200 1.578100
4.273800 2.169300
4.298400 2.080100
4.322900 2.471900
4.347500 2.044900
4.372100 1.633200
4.396700 1.627200
4.421300 1.580900
4.445900 1.490200
4.470500 1.505500
4.495100 1.485900
4.519700 1.450900
4.544300 1.415000
4.568800 1.358300
4.593400 1.327100
4.618000 1.309000
4.642600 1.293400
4.667200 1.278800
4.691800 1.264900
4.716400 1.269200
4.741000 1.273300
4.765600 1.290400
4.790200 1.322400
4.814700 1.448700
4.839300 1.628300
4.863900 1.713000
4.888500 1.798300
4.913100 1.879200
4.937700 2.516700
4.962300 2.425500
4.986900 2.065100
5.011500 1.884000
5.036000 1.844600
5.060600 1.801700
5.085200 1.738400
5.109800 1.677900
5.134400 1.596400
5.159000 1.578600
5.183600 1.460500
5.208200 1.412000
5.232800 1.385100
5.257400 1.344400
5.281900 1.307600
5.306500 1.276200
5.331100 1.250500
5.355700 1.225800
5.380300 1.189300
5.404900 1.166900
5.429500 1.149000
5.454100 1.134300
5.478700 1.113400
5.503300 1.101700
5.527800 1.094300
5.552400 1.090800
5.577000 1.088100
5.601600 1.086100
5.626200 1.084900
5.650800 1.084400
5.675400 1.084300
5.700000 1.084900
5.724600 1.085600
5.749100 1.086000
5.773700 1.086200
5.798300 1.089300
5.822900 1.098600
5.847500 1.108900
5.872100 1.187700
5.896700 1.264300
5.921300 1.323400
5.945900 1.227300
5.970500 1.214100
5.995000 1.204500
6.019600 1.404400
6.044200 1.206300
6.068800 1.071900
6.093400 1.076300
6.118000 1.081300
6.142600 1.086300
6.167200 1.091300
6.191800 1.096400
6.216400 1.101700
6.240900 1.110300
6.265500 1.123700
6.290100 1.142000
6.314700 1.165100
6.339300 1.287100
6.363900 1.293500
6.388500 1.309800
6.413100 1.609900
6.437700 1.507500
6.462200 1.435900
6.486800 1.364400
6.511400 1.306700
6.536000 1.256400
6.560600 1.255200
6.585200 1.247200
6.609800 1.243800
6.634400 1.246200
6.659000 1.252500
6.683600 1.257200
6.708100 1.260600
6.732700 1.266000
6.757300 1.270700
6.781900 1.275500
6.806500 1.285700
6.831100 1.296200
6.855700 1.302400
6.880300 1.305300
6.904900 1.308100
6.929500 1.311200
6.954000 1.314900
6.978600 1.316000
7.003200 1.308000
7.027800 1.312500
7.052400 1.317900
7.077000 1.325900
7.101600 1.333800
7.126200 1.341000
7.150800 1.356800
7.175300 1.385900
7.199900 1.416000
7.224500 1.453700
7.249100 1.478000
7.273700 1.495700
7.298300 1.516000
7.322900 1.538300
7.347500 1.572400
7.372100 1.622100
7.396700 1.690400
7.421200 1.763100
7.445800 1.825200
7.470400 1.887400
7.495000 2.132900
7.519600 2.362400
7.544200 2.412100
7.568800 2.360000
7.593400 2.347100
7.618000 2.351100
7.642600 2.374300
7.667100 2.460700
7.691700 2.431300
7.716300 2.241900
7.740900 1.993200
7.765500 1.876000
7.790100 1.823300
7.814700 1.783700
7.839300 1.755900
7.863900 1.771700
7.888400 1.800700
7.913000 1.835500
7.937600 1.873900
7.962200 1.923300
7.986800 2.015300
8.011400 2.137700
8.036000 2.288300
8.060600 2.562200
8.085200 2.280200
8.109800 2.279600
8.134300 2.292700
8.158900 2.270400
8.183500 2.232600
8.208100 2.194100
8.232700 2.178800
8.257300 2.161800
8.281900 2.138500
8.306500 2.083600
8.331100 2.053100
8.355700 2.053000
8.380200 2.043500
8.404800 2.046300
8.429400 2.028600
8.454000 1.966200
8.478600 1.963500
8.503200 2.109100
8.527800 2.253900
8.552400 2.250700
8.577000 2.265800
8.601500 2.119700
8.626100 2.086100
8.650700 2.049700
8.675300 2.026400
8.699900 2.026200
8.724500 2.029600
8.749100 2.034500
8.773700 2.041300
8.798300 2.049200
8.822900 2.058300
8.847400 2.094100
8.872000 2.104800
8.896600 2.112700
8.921200 2.118100
8.945800 2.121100
8.970400 2.115400
8.995000 2.084700
9.019600 2.045900
9.044200 2.010300
9.068800 1.993200
9.093300 1.935300
9.117900 1.876900
9.142500 1.816000
9.167100 1.756700
9.191700 1.710900
9.216300 1.675700
9.240900 1.648100
9.265500 1.634800
9.290100 1.624500
9.314600 1.617900
9.339200 1.647500
9.363800 1.614700
9.388400 1.579000
9.413000 1.541900
9.437600 1.466000
9.462200 1.432300
9.486800 1.423300
9.511400 1.434300
9.536000 1.450100
9.560500 1.455800
9.585100 1.464200
9.609700 1.470500
9.634300 1.476400
9.658900 1.486000
9.683500 1.521000
9.708100 1.548000
9.732700 1.565700
9.757300 1.574500
9.781900 1.581900
9.806400 1.589200
9.831000 1.595300
9.855600 1.600700
9.880200 1.605500
9.904800 1.609800
9.929400 1.615000
9.954000 1.620300
9.978600 1.624500
10.003200 1.627700
10.027700 1.633300
10.052300 1.713500
10.076900 1.653500
10.101500 1.612700
10.126100 1.646100
10.150700 1.664000
10.175300 1.686100
10.199900 1.660100
10.224500 1.669100
10.249100 1.679700
10.273600 1.691000
10.298200 1.685600
10.322800 1.661000
10.347400 1.634300
10.372000 1.605600
10.396600 1.570300
10.421200 1.543600
10.445800 1.521900
10.470400 1.502900
10.495000 1.484100
10.519500 1.441300
10.544100 1.417900
10.568700 1.410100
10.593300 1.408500
10.617900 1.415900
10.642500 1.414300
10.667100 1.416000
10.691700 1.412400
10.716300 1.408300
10.740800 1.409700
10.765400 1.418600
10.790000 1.453200
10.814600 1.483800
10.839200 1.510200
10.863800 1.536500
10.888400 1.553700
10.913000 1.566700
10.937600 1.584000
10.962200 1.542900
10.986700 1.502000
11.011300 1.462400
11.035900 1.426700
11.060500 1.395600
11.085100 1.372900
11.109700 1.342300
11.134300 1.302100
11.158900 1.270100
11.183500 1.246400
11.208100 1.228500
11.232600 1.262100
11.257200 1.271300
11.281800 1.291600
11.306400 1.302800
11.331000 1.336200
11.355600 1.598900
11.380200 1.435500
11.404800 1.350200
11.429400 1.350300
11.453900 1.329600
11.478500 1.334300
11.503100 1.446000
11.527700 1.494100
11.552300 1.435700
11.576900 1.388100
11.601500 1.351300
11.626100 1.316900
11.650700 1.301600
11.675300 1.302700
11.699800 1.304600
11.724400 1.302100
11.749000 1.289300
11.773600 1.279900
11.798200 1.277500
11.822800 1.330100
11.847400 1.384400
11.872000 1.422100
11.896600 1.411300
11.921200 1.418000
11.945700 1.422200
11.970300 1.423600
11.994900 1.472500
12.019500 1.451900
12.044100 1.429900
12.068700 1.404900
12.093300 1.372500
12.117900 1.337600
12.142500 1.306500
12.167000 1.274500
12.191600 1.230600
12.216200 1.190500
12.240800 1.184900
12.265400 1.180800
12.290000 1.180700
12.314600 1.185900
12.339200 1.211700
12.363800 1.246300
12.388400 1.285900
12.412900 1.326700
12.437500 1.370500
12.462100 1.417500
12.486700 1.466300
12.511300 1.516900
12.535900 1.572500
12.560500 1.694700
12.585100 1.773400
12.609700 1.842000
12.634300 1.901500
12.658800 1.957100
12.683400 2.034400
12.708000 1.945900
12.732600 1.888300
12.757200 1.815500
12.781800 1.731300
12.806400 1.666600
12.831000 1.611600
12.855600 1.550100
12.880100 1.533600
12.904700 1.519100
12.929300 1.506600
12.953900 1.495500
12.978500 1.485300
13.003100 1.476900
13.027700 1.473000
13.052300 1.473800
13.076900 1.475500
13.101500 1.477300
13.126000 1.489400
13.150600 1.499700
13.175200 1.501600
13.199800 1.497200
13.224400 1.491900
13.249000 1.484400
13.273600 1.488300
13.298200 1.493100
13.322800 1.455800
13.347400 1.376200
13.371900 1.293300
13.396500 1.216100
13.421100 1.156200
13.445700 1.134000
13.470300 1.124600
13.494900 1.171000
13.519500 1.256800
13.544100 1.369600
13.568700 1.458700
13.593300 1.502700
13.617800 1.445400
13.642400 1.308500
13.667000 1.296900
13.691600 1.312000
13.716200 1.327600
13.740800 1.344300
13.765400 1.363400
13.790000 1.350400
13.814600 1.327200
13.839100 1.298300
13.863700 1.298600
13.888300 1.289400
13.912900 1.362200
13.937500 1.332200
13.962100 1.304400
13.986700 1.278400
14.011300 1.258600
14.035900 1.247600
14.060500 1.224800
14.085000 1.235900
14.109600 1.260700
14.134200 1.298400
14.158800 1.338000
14.183400 1.332400
14.208000 1.352100
14.232600 1.370100
14.257200 1.464400
14.281800 1.551000
14.306400 1.645200
14.330900 1.800800
14.355500 1.950000
14.380100 1.894900
14.404700 1.933000
14.429300 2.013700
14.453900 2.090200
14.478500 2.139700
14.503100 2.247500
14.527700 2.350800
14.552200 2.096300
14.576800 2.138300
14.601400 2.197300
14.626000 2.236900
14.650600 2.277300
14.675200 2.360300
14.699800 2.392600
14.724400 2.301000
14.749000 2.200700
14.773600 2.159900
14.798100 2.206600
14.822700 2.262000
14.847300 2.311100
14.871900 2.356600
14.896500 2.399900
14.921100 2.432300
14.945700 2.518000
14.970300 2.545100
14.994900 2.574500
15.019500 2.531200
15.044000 2.556600
15.068600 2.584800
15.093200 2.575700
15.117800 2.553800
15.142400 2.519200
15.167000 2.728800
15.191600 2.476600
15.216200 2.457600
15.240800 2.452900
15.265300 2.440300
15.289900 2.412500
15.314500 2.365300
15.339100 2.292200
15.363700 2.187000
15.388300 2.123600
15.412900 2.115200
15.437500 2.249400
15.462100 2.292700
15.486700 2.295300
15.511200 2.503200
15.535800 1.832700
15.560400 1.810500
15.585000 1.793600
15.609600 1.783900
15.634200 1.796700
15.658800 1.809800
15.683400 1.834200
15.708000 1.875300
15.732600 1.928900
15.757100 1.977300
15.781700 2.144100
15.806300 2.328100
15.830900 2.567400
15.855500 2.538000
15.880100 2.612400
15.904700 2.642100
15.929300 2.664400
15.953900 2.673300
15.978400 2.651300
16.003000 2.751600
16.027600 2.541400
16.052200 2.428000
16.076800 2.342800
16.101400 2.288900
16.126000 2.257300
16.150600 2.234500
16.175200 2.213700
16.199800 2.194100
16.224300 2.176400
16.248900 2.161600
16.273500 2.153100
16.298100 2.124500
16.322700 2.165000
16.347300 2.203700
16.371900 2.436200
16.396500 2.466800
16.421100 2.514200
16.445700 2.367600
16.470200 2.430300
16.494800 2.375500
16.519400 2.435400
16.544000 2.479400
16.568600 2.528600
16.593200 2.592600
16.617800 2.654000
16.642400 2.722000
16.667000 2.720600
16.691500 2.680800
16.716100 2.706800
16.740700 2.527000
16.765300 2.535700
16.789900 2.687500
16.814500 2.638700
16.839100 2.419600
16.863700 2.500800
16.888300 2.904200
16.912900 2.756300
16.937400 2.979100
16.962000 2.837000
16.986600 2.718600
17.011200 2.692900
17.035800 2.723100
17.060400 2.734900
17.085000 2.988800
17.109600 2.917300
17.134200 2.838700
17.158800 2.709500
17.183300 2.623100
17.207900 2.714400
17.232500 2.798000
17.257100 2.740300
17.281700 2.626000
17.306300 2.470400
17.330900 2.252000
17.355500 2.159500
17.380100 2.080600
17.404600 2.047800
17.429200 2.040100
17.453800 2.034200
17.478400 1.994700
17.503000 1.958300
17.527600 1.851300
17.552200 2.000400
17.576800 1.901100
17.601400 1.971100
17.626000 2.059900
17.650500 2.166600
17.675100 2.342300
17.699700 2.750300
17.724300 2.677700
17.748900 2.708300
17.773500 3.026700
17.798100 3.275900
17.822700 3.423000
17.847300 3.524500
17.871900 3.376600
17.896400 3.308000
17.921000 3.008800
17.945600 2.858200
17.970200 2.775800
17.994800 2.718400
18.019400 2.669500
18.044000 2.623200
18.068600 2.566200
18.093200 2.509100
18.117700 2.491100
18.142300 2.436300
18.166900 2.401200
18.191500 2.433100
18.216100 2.622300
18.240700 2.842000
18.265300 2.649900
18.289900 2.664500
18.314500 2.673600
18.339100 2.632600
18.363600 2.575800
18.388200 2.533700
18.412800 2.503200
18.437400 2.477800
18.462000 2.455700
18.486600 2.437600
18.511200 2.432700
18.535800 2.474800
18.560400 2.462600
18.585000 2.512400
18.609500 2.572300
18.634100 2.672500
18.658700 2.765000
18.683300 2.724200
18.707900 2.686600
18.732500 2.667100
18.757100 2.522600
18.781700 2.683500
18.806300 2.533500
18.830800 2.629700
18.855400 2.643000
18.880000 2.623600
18.904600 2.590400
18.929200 2.543400
18.953800 2.589300
18.978400 2.576100
19.003000 2.581800
19.027600 2.604700
19.052200 2.648700
19.076700 2.664600
19.101300 2.645300
19.125900 2.627600
19.150500 2.608500
19.175100 2.592300
19.199700 2.671200
19.224300 2.724800
19.248900 2.811700
19.273500 2.916100
19.298100 2.841000
19.322600 2.866900
19.347200 2.828800
19.371800 2.846400
19.396400 2.961300
19.421000 3.001800
19.445600 3.045500
19.470200 2.991600
19.494800 2.940700
19.519400 2.917100
19.543900 2.929100
19.568500 2.937700
19.593100 2.913800
19.617700 2.853800
19.642300 2.800200
19.666900 2.626200
19.691500 2.557500
19.716100 2.495300
19.740700 2.508200
19.765300 2.466500
19.789800 2.434300
19.814400 2.400200
19.839000 2.371500
19.863600 2.424400
19.888200 2.459700
19.912800 2.434400
19.937400 2.486700
19.962000 2.509800
19.986600 2.443100
20.011200 2.418000
20.035700 2.379400
20.060300 2.384300
20.084900 2.371300
20.109500 2.359900
20.134100 2.345100
20.158700 2.352800
20.183300 2.355300
20.207900 2.353100
20.232500 2.346100
20.257000 2.491300
20.281600 2.531000
20.306200 2.573800
20.330800 2.788000
20.355400 3.162900
20.380000 2.814700
20.404600 2.872600
20.429200 2.958500
20.453800 3.043100
20.478400 3.369400
20.502900 2.966000
20.527500 2.938800
20.552100 2.907000
20.576700 2.847200
20.601300 2.761900
20.625900 2.799400
20.650500 2.756800
20.675100 2.644100
20.699700 2.640700
20.724300 2.656500
20.748800 2.689900
20.773400 2.732200
20.798000 2.777900
20.822600 2.820400
20.847200 2.894200
20.871800 2.999500
20.896400 3.145900
20.921000 3.015100
20.945600 2.713000
20.970100 2.589400
20.994700 2.701500
21.019300 2.819600
21.043900 2.811200
21.068500 2.785800
21.093100 2.694300
21.117700 2.674100
21.142300 2.650500
21.166900 2.671100
21.191500 2.745300
21.216000 2.803800
21.240600 2.860700
21.265200 2.868400
21.289800 2.876100
21.314400 2.865500
21.339000 2.885900
21.363600 2.877300
21.388200 2.860100
21.412800 2.947700
21.437400 2.964500
21.461900 2.957400
21.486500 2.933200
21.511100 2.900300
21.535700 2.870200
21.560300 2.851900
21.584900 2.719300
21.609500 2.758800
21.634100 2.722400
21.658700 2.690400
21.683200 2.681500
21.707800 2.699600
21.732400 2.778800
21.757000 2.844900
21.781600 2.904400
21.806200 2.864900
21.830800 2.910600
21.855400 2.889200
21.880000 2.888400
21.904600 2.959300
21.929100 2.862800
21.953700 2.861200
21.978300 2.854000
22.002900 2.844200
22.027500 2.798800
22.052100 2.799200
22.076700 2.828700
22.101300 2.893400
22.125900 2.927500
22.150500 2.853800
22.175000 2.857800
22.199600 2.894900
22.224200 2.949400
22.248800 2.947100
22.273400 3.049200
22.298000 3.156100
22.322600 3.173600
22.347200 3.156000
22.371800 3.150800
22.396400 3.154300
22.420900 3.172400
22.445500 3.208300
22.470100 3.224500
22.494700 3.192600
22.519300 3.214100
22.543900 3.249700
22.568500 3.221500
22.593100 3.259000
22.617700 3.304200
22.642200 3.277500
22.666800 3.226800
22.691400 3.229500
22.716000 3.260200
22.740600 3.284200
22.765200 3.351400
22.789800 3.429100
22.814400 3.236900
22.839000 3.236600
22.863600 3.224900
22.888100 3.204400
22.912700 3.191400
22.937300 3.188000
22.961900 3.187800
22.986500 3.191900
23.011100 3.206400
23.035700 3.209500
23.060300 3.215400
23.084900 3.156400
23.109500 3.152700
23.134000 3.156500
23.158600 3.162600
23.183200 3.168700
23.207800 3.195000
23.232400 3.247300
23.257000 3.389400
23.281600 3.511700
23.306200 3.534800
23.330800 3.501800
23.355300 3.421000
23.379900 3.304500
23.404500 3.254100
23.429100 3.298500
23.453700 3.442100
23.478300 3.432200
23.502900 3.404700
23.527500 3.325300
23.552100 3.293900
23.576700 3.256000
23.601200 3.196900
23.625800 3.149700
23.650400 3.117200
23.675000 3.099800
23.699600 3.103400
23.724200 3.113500
23.748800 3.148600
23.773400 3.181000
23.798000 3.185600
23.822600 3.130800
23.847100 3.178900
23.871700 3.251300
23.896300 3.362000
23.920900 3.487900
23.945500 3.407800
23.970100 3.344400
23.994700 3.557300
24.019300 3.421400
24.043900 3.552000
24.068400 3.552100
24.093000 3.567500
24.117600 3.580400
24.142200 3.698800
24.166800 3.804100
24.191400 3.843400
24.216000 3.846000
24.240600 3.827700
24.265200 3.790500
24.289800 3.735900
24.314300 3.581000
24.338900 3.288200
24.363500 3.136800
24.388100 3.000000
24.412700 2.960100
24.437300 2.931400
24.461900 2.915300
24.486500 2.896000
24.511100 2.890600
24.535700 2.904800
24.560200 2.923300
24.584800 2.946400
24.609400 2.984300
24.634000 3.030500
24.658600 3.129100
24.683200 3.297700
24.707800 3.394700
24.732400 3.449600
24.757000 3.472900
24.781500 3.604800
24.806100 3.743000
24.830700 3.731600
24.855300 3.543400
24.879900 3.474300
24.904500 3.475400
24.929100 3.725700
24.953700 3.359400
24.978300 3.312900
25.002900 3.284700
25.027400 3.323400
25.052000 3.230600
25.076600 3.135500
25.101200 3.045000
25.125800 2.950200
25.150400 2.865400
25.175000 2.816200
25.199600 2.779000
25.224200 2.745800
25.248800 2.711800
25.273300 2.728400
25.297900 2.730200
25.322500 2.743700
25.347100 2.747500
25.371700 2.739900
25.396300 2.729300
25.420900 2.712700
25.445500 2.682400
25.470100 2.653800
25.494600 2.623100
25.519200 2.576700
25.543800 2.547500
25.568400 2.523600
25.593000 2.527000
25.617600 2.555800
25.642200 2.581200
25.666800 2.635000
25.691400 2.673700
25.716000 2.677000
25.740500 2.772500
25.765100 2.911900
25.789700 2.816600
25.814300 2.784000
25.838900 2.754900
25.863500 2.740300
25.888100 2.745800
25.912700 2.757700
25.937300 2.760200
25.961900 2.754300
25.986400 2.739500
26.011000 2.718000
26.035600 2.710800
26.060200 2.729700
26.084800 2.799200
26.109400 2.910300
26.134000 3.039000
26.158600 3.167800
26.183200 3.204400
26.207700 3.158400
26.232300 3.053600
26.256900 3.046600
26.281500 3.067500
26.306100 3.114800
26.330700 3.174300
26.355300 3.229100
26.379900 3.279400
26.404500 3.324000
26.429100 3.368900
26.453600 3.396400
26.478200 3.462400
26.502800 3.449100
26.527400 3.402500
26.552000 3.347600
26.576600 3.247000
26.601200 3.175500
26.625800 3.185000
26.650400 3.151300
26.675000 3.125200
26.699500 3.174300
26.724100 3.141100
26.748700 3.100600
26.773300 3.064500
26.797900 3.048000
26.822500 3.074700
26.847100 3.118500
26.871700 3.192800
26.896300 3.282500
26.920800 3.292600
26.945400 3.431700
26.970000 3.447400
26.994600 3.407400
27.019200 3.456100
27.043800 3.492800
27.068400 3.521800
27.093000 3.548800
27.117600 3.581800
27.142200 3.596500
27.166700 3.566300
27.191300 3.529900
27.215900 3.453300
27.240500 3.419400
27.265100 3.418600
27.289700 3.460000
27.314300 3.435900
27.338900 3.364800
27.363500 3.371000
27.388100 3.398400
27.412600 3.460800
27.437200 3.555800
27.461800 3.706500
27.486400 3.870100
27.511000 3.731100
27.535600 3.597100
27.560200 3.497300
27.584800 3.487100
27.609400 3.526500
27.633900 3.603600
27.658500 3.656500
27.683100 3.749300
27.707700 3.853400
27.732300 4.824800
27.756900 4.543100
27.781500 4.191100
27.806100 3.882600
27.830700 3.836400
27.855300 3.828500
27.879800 3.859500
27.904400 3.749900
27.929000 4.031200
27.953600 4.152100
27.978200 4.334500
28.002800 4.401200
28.027400 4.394600
28.052000 4.316400
28.076600 4.128100
28.101200 4.099900
28.125700 4.075300
28.150300 4.067700
28.174900 3.994800
28.199500 3.900500
28.224100 3.866900
28.248700 3.788000
28.273300 3.692400
28.297900 3.534900
28.322500 3.433000
28.347000 3.432200
28.371600 3.446900
28.396200 3.481700
28.420800 3.510400
28.445400 3.540200
28.470000 3.611500
28.494600 3.810800
28.519200 4.527000
28.543800 4.337900
28.568400 4.199500
28.592900 4.142900
28.617500 4.052300
28.642100 3.899100
28.666700 3.729500
28.691300 3.539300
28.715900 3.456800
28.740500 3.426200
28.765100 3.425000
28.789700 3.435100
28.814300 3.451200
28.838800 3.483000
28.863400 3.511100
28.888000 3.513200
28.912600 3.468200
28.937200 3.389800
28.961800 3.304600
28.986400 3.314300
29.011000 3.280100
29.035600 3.287100
29.060100 3.334000
29.084700 3.361900
29.109300 3.405900
29.133900 3.557100
29.158500 3.834300
29.183100 3.824700
29.207700 4.267000
29.232300 4.212300
29.256900 4.063000
29.281500 3.831400
29.306000 3.569900
29.330600 3.296100
29.355200 3.052600
29.379800 2.964100
29.404400 3.097900
29.429000 3.503000
29.453600 3.615400
29.478200 3.664300
29.502800 3.721400
29.527400 3.751200
29.551900 3.807700
29.576500 3.795800
29.601100 3.706500
29.625700 3.524100
29.650300 3.483800
29.674900 3.447000
29.699500 3.421600
29.724100 3.369600
29.748700 3.496400
29.773200 3.593200
29.797800 3.672200
29.822400 3.658200
29.847000 3.627500
29.871600 3.607300
29.896200 3.595300
29.920800 3.597100
29.945400 3.616900
29.970000 3.609200
29.994600 3.583600
30.019100 3.486500
30.043700 3.383200
30.068300 3.229300
30.092900 3.049000
30.117500 3.033300
30.142100 3.144600
30.166700 3.718700
30.191300 3.614200
30.215900 3.574000
30.240500 3.441500
30.265000 3.385300
30.289600 3.337900
30.314200 3.347600
30.338800 3.363000
30.363400 3.319800
30.388000 3.245400
30.412600 3.177600
30.437200 3.269100
30.461800 3.015400
30.486300 2.862800
30.510900 2.746500
30.535500 2.691600
30.560100 2.752600
30.584700 2.665000
30.609300 2.628400
30.633900 2.602000
30.658500 2.608800
30.683100 2.639000
30.707700 2.645500
30.732200 2.664700
30.756800 2.626500
30.781400 2.535600
30.806000 2.460300
30.830600 2.410700
30.855200 2.366200
30.879800 2.285500
30.904400 2.236300
30.929000 2.182300
30.953600 2.132300
30.978100 2.094500
31.002700 2.081300
31.027300 2.075200
31.051900 2.082200
31.076500 2.081400
31.101100 2.096000
31.125700 2.164400
31.150300 2.265000
31.174900 2.327700
31.199500 2.456800
31.224000 2.617800
31.248600 2.784000
31.273200 2.838100
31.297800 2.794900
31.322400 2.725700
31.347000 2.702000
31.371600 2.685700
31.396200 2.661900
31.420800 2.602400
31.445300 2.705300
31.469900 2.577900
31.494500 2.513200
31.519100 2.357100
31.543700 2.278800
31.568300 2.192600
31.592900 2.130100
31.617500 2.068700
31.642100 1.998000
31.666700 1.917000
31.691200 1.846400
31.715800 1.769000
31.740400 1.679200
31.765000 1.566900
31.789600 1.346300
31.814200 1.166500
31.838800 1.050300
31.863400 0.952400
31.888000 0.909400
31.912600 0.878800
31.937100 0.852900
31.961700 0.825100
31.986300 0.787400
32.010900 0.756400
32.035500 0.731500
32.060100 0.744800
32.084700 0.673900
32.109300 0.605100
32.133900 0.630700
32.158400 0.462800
32.183000 0.340700
32.207600 0.236100
32.232200 0.312200
32.256800 0.025600
32.281400 0.020800
32.306000 0.016400
32.330600 0.012200
32.355200 0.008500
32.379800 0.005500
32.404300 0.003100
32.428900 0.001400
32.453500 0.000400
32.478100 0.000000
32.502700 0.000000
32.527300 0.000000
32.551900 0.000000
32.576500 0.000000
32.601100 0.000000
32.625700 0.000000
32.650200 0.000000
32.674800 0.000000
32.699400 0.000000
32.724000 0.000000
32.748600 0.000000
32.773200 0.000000
32.797800 0.000000
32.822400 0.000000
32.847000 0.000000
32.871500 0.000000
32.896100 0.000000
32.920700 0.000000
32.945300 0.000000
32.969900 0.000000
32.994500 0.000000
33.019100 0.000000
33.043700 0.000000
33.068300 0.000000
33.092900 0.000000
33.117400 0.000000
33.142000 0.000000
33.166600 0.000000
33.191200 0.000000
33.215800 0.000000
33.240400 0.000000
33.265000 0.000000
33.289600 0.000000
33.314200 0.000000
33.338800 0.000000
33.363300 0.000000
33.387900 0.000000
33.412500 0.000000
33.437100 0.000000
33.461700 0.000000
33.486300 0.000000
33.510900 0.000000
33.535500 0.000000
33.560100 0.000000
33.584600 0.000000
33.609200 0.000000
33.633800 0.000000
33.658400 0.000000
33.683000 0.000000
33.707600 0.000000
33.732200 0.000000
33.756800 0.000000
33.781400 0.000000
33.806000 0.000000
33.830500 0.000000
33.855100 0.000000
33.879700 0.000000
33.904300 0.000000
33.928900 0.000000
33.953500 0.000000
33.978100 0.000000
34.002700 0.000000
34.027300 0.000000
34.051900 0.000000
34.076400 0.000000
34.101000 0.000000
34.125600 0.000000
34.150200 0.000000
34.174800 0.000000
34.199400 0.000000
34.224000 0.000000
34.248600 0.000000
34.273200 0.000000
34.297700 0.000000
34.322300 0.000000
34.346900 0.000000
34.371500 0.000000
34.396100 0.000000
34.420700 0.000000
34.445300 0.000000
34.469900 0.000000
34.494500 0.000000
34.519100 0.000000
34.543600 0.000000
34.568200 0.000000
34.592800 0.000000
34.617400 0.000000
34.642000 0.000000
34.666600 0.000000
34.691200 0.000000
34.715800 0.000000
e
