set title 'mp-1078845 - Density of States'
set xlabel 'Energy (eV)'
set ylabel 'DOS (states/eV)'
set grid
set xrange [-10:10]
set yrange [0:4.920]
set xzeroaxis lt -1
set terminal png size 800,600
set output 'mp-1078845_dos_gnuplot.png'
plot '-' using 1:2 with lines title 'DOS'
-14.763600 0.000000
-14.732100 0.000000
-14.700500 0.000000
-14.669000 0.000000
-14.637400 0.000000
-14.605800 0.000000
-14.574300 0.000000
-14.542700 0.000000
-14.511100 0.000000
-14.479600 0.000000
-14.448000 0.000000
-14.416400 0.000000
-14.384900 0.000000
-14.353300 0.000000
-14.321800 0.000000
-14.290200 0.000000
-14.258600 0.000000
-14.227100 0.000000
-14.195500 0.000000
-14.163900 0.000000
-14.132400 0.000000
-14.100800 0.000000
-14.069300 0.000000
-14.037700 0.000000
-14.006100 0.000000
-13.974600 0.000000
-13.943000 0.000000
-13.911400 0.000000
-13.879900 0.000000
-13.848300 0.000000
-13.816700 0.000000
-13.785200 0.000000
-13.753600 0.000000
-13.722100 0.000000
-13.690500 0.000000
-13.658900 0.000000
-13.627400 0.000000
-13.595800 0.000000
-13.564200 0.000000
-13.532700 0.000000
-13.501100 0.000000
-13.469500 0.000000
-13.438000 0.000000
-13.406400 0.000000
-13.374900 0.000000
-13.343300 0.000000
-13.311700 0.000000
-13.280200 0.000000
-13.248600 0.000000
-13.217000 0.000000
-13.185500 0.000000
-13.153900 0.000000
-13.122300 0.000000
-13.090800 0.000000
-13.059200 0.000000
-13.027700 0.000000
-12.996100 0.000000
-12.964500 0.000000
-12.933000 0.000000
-12.901400 0.000000
-12.869800 0.000000
-12.838300 0.000000
-12.806700 0.000000
-12.775100 0.000000
-12.743600 0.000000
-12.712000 0.000000
-12.680500 0.000000
-12.648900 0.000000
-12.617300 0.000000
-12.585800 0.000000
-12.554200 0.000000
-12.522600 0.000000
-12.491100 0.000000
-12.459500 0.000000
-12.427900 0.000000
-12.396400 0.000000
-12.364800 0.000000
-12.333300 0.000000
-12.301700 0.000000
-12.270100 0.000000
-12.238600 0.000000
-12.207000 0.000000
-12.175400 0.000000
-12.143900 0.000000
-12.112300 0.000000
-12.080700 0.000000
-12.049200 0.000000
-12.017600 0.000000
-11.986100 0.000000
-11.954500 0.000000
-11.922900 0.000000
-11.891400 0.073200
-11.859800 0.095400
-11.828200 0.118700
-11.796700 0.142900
-11.765100 0.168200
-11.733500 0.191700
-11.702000 0.215500
-11.670400 0.239700
-11.638900 0.263700
-11.607300 0.279600
-11.575700 0.282900
-11.544200 0.288300
-11.512600 0.299400
-11.481000 0.310400
-11.449500 0.321700
-11.417900 0.333100
-11.386300 0.344700
-11.354800 0.356400
-11.323200 0.368900
-11.291700 0.383200
-11.260100 0.397700
-11.228500 0.412500
-11.197000 0.422000
-11.165400 0.435600
-11.133800 0.449100
-11.102300 0.459600
-11.070700 0.468800
-11.039100 0.477500
-11.007600 0.485800
-10.976000 0.493800
-10.944500 0.501900
-10.912900 0.509800
-10.881300 0.537800
-10.849800 0.550800
-10.818200 0.564300
-10.786600 0.578400
-10.755100 0.592700
-10.723500 0.607200
-10.691900 0.621800
-10.660400 0.636700
-10.628800 0.649900
-10.597300 0.663000
-10.565700 0.676100
-10.534100 0.689300
-10.502600 0.702600
-10.471000 0.736800
-10.439400 0.801300
-10.407900 0.832200
-10.376300 0.822700
-10.344700 0.803800
-10.313200 0.968700
-10.281600 0.713900
-10.250100 0.694700
-10.218500 0.678800
-10.186900 0.659300
-10.155400 0.638000
-10.123800 0.623100
-10.092200 0.613500
-10.060700 0.595800
-10.029100 0.599900
-9.997600 0.609900
-9.966000 0.620500
-9.934400 0.631800
-9.902900 0.606400
-9.871300 0.605900
-9.839700 0.604900
-9.808200 0.603500
-9.776600 0.601600
-9.745000 0.599100
-9.713500 0.594900
-9.681900 0.588700
-9.650400 0.587100
-9.618800 0.587000
-9.587200 0.588800
-9.555700 0.587500
-9.524100 0.593500
-9.492500 0.599400
-9.461000 0.665000
-9.429400 0.728800
-9.397800 0.751900
-9.366300 0.773400
-9.334700 0.793600
-9.303200 0.812500
-9.271600 0.830300
-9.240000 0.846800
-9.208500 0.858000
-9.176900 0.860400
-9.145300 0.860900
-9.113800 0.860300
-9.082200 0.858800
-9.050600 0.856300
-9.019100 0.852600
-8.987500 0.846900
-8.956000 0.840000
-8.924400 0.834100
-8.892800 0.829700
-8.861300 0.824400
-8.829700 0.820800
-8.798100 0.818700
-8.766600 0.819100
-8.735000 0.819500
-8.703400 0.818600
-8.671900 0.816900
-8.640300 0.815600
-8.608800 1.184500
-8.577200 0.889300
-8.545600 0.899100
-8.514100 0.909300
-8.482500 0.920000
-8.450900 0.931300
-8.419400 0.943100
-8.387800 0.955400
-8.356200 0.958300
-8.324700 0.959600
-8.293100 0.969800
-8.261600 0.980500
-8.230000 1.072900
-8.198400 1.086100
-8.166900 1.099200
-8.135300 1.112200
-8.103700 1.116200
-8.072200 1.122400
-8.040600 1.128800
-8.009000 1.134700
-7.977500 1.125900
-7.945900 1.127900
-7.914400 1.133400
-7.882800 1.138800
-7.851200 1.138100
-7.819700 1.187900
-7.788100 1.358400
-7.756500 1.251700
-7.725000 1.258400
-7.693400 1.264800
-7.661800 1.269500
-7.630300 1.275900
-7.598700 1.282500
-7.567200 1.283700
-7.535600 1.263100
-7.504000 1.260100
-7.472500 1.292800
-7.440900 1.285500
-7.409300 1.281800
-7.377800 1.278500
-7.346200 1.274400
-7.314600 1.269200
-7.283100 1.263600
-7.251500 1.262900
-7.220000 1.276500
-7.188400 1.281300
-7.156800 1.459400
-7.125300 1.340100
-7.093700 1.051900
-7.062100 1.054200
-7.030600 1.063000
-6.999000 1.071100
-6.967400 1.083000
-6.935900 1.100100
-6.904300 1.538300
-6.872800 1.385400
-6.841200 1.464700
-6.809600 1.534000
-6.778100 1.526400
-6.746500 1.493800
-6.714900 1.412500
-6.683400 1.333000
-6.651800 1.318300
-6.620200 1.322400
-6.588700 1.329700
-6.557100 1.330800
-6.525600 1.329100
-6.494000 1.316900
-6.462400 1.308700
-6.430900 1.297300
-6.399300 1.280800
-6.367700 1.268900
-6.336200 1.312100
-6.304600 1.308300
-6.273100 1.303500
-6.241500 1.298600
-6.209900 1.292900
-6.178400 1.286900
-6.146800 1.322900
-6.115200 1.307900
-6.083700 1.270200
-6.052100 1.249100
-6.020500 1.228200
-5.989000 1.133600
-5.957400 1.099300
-5.925900 1.076400
-5.894300 1.081200
-5.862700 1.065800
-5.831200 1.028400
-5.799600 0.996200
-5.768000 0.969900
-5.736500 0.971700
-5.704900 0.994900
-5.673300 0.994300
-5.641800 0.961300
-5.610200 0.941400
-5.578700 1.030000
-5.547100 1.014800
-5.515500 1.002500
-5.484000 0.991900
-5.452400 0.980600
-5.420800 0.968500
-5.389300 0.958400
-5.357700 0.949200
-5.326100 0.940900
-5.294600 0.934000
-5.263000 0.919300
-5.231500 0.911700
-5.199900 0.905300
-5.168300 0.900400
-5.136800 0.893000
-5.105200 0.891500
-5.073600 0.892200
-5.042100 0.893500
-5.010500 0.896300
-4.978900 0.900900
-4.947400 0.906800
-4.915800 0.911100
-4.884300 0.916900
-4.852700 0.970300
-4.821100 0.987400
-4.789600 1.000800
-4.758000 1.010200
-4.726400 1.015600
-4.694900 1.017700
-4.663300 1.016900
-4.631700 1.021400
-4.600200 0.921100
-4.568600 1.141700
-4.537100 0.987700
-4.505500 0.996500
-4.473900 0.972100
-4.442400 0.938600
-4.410800 0.939500
-4.379200 0.957300
-4.347700 0.961600
-4.316100 0.934600
-4.284500 0.955100
-4.253000 0.991500
-4.221400 1.039200
-4.189900 1.206900
-4.158300 1.339000
-4.126700 1.512700
-4.095200 1.563000
-4.063600 1.858900
-4.032000 1.919400
-4.000500 1.954800
-3.968900 1.992500
-3.937300 1.868400
-3.905800 1.766100
-3.874200 1.648400
-3.842700 1.570000
-3.811100 1.505700
-3.779500 1.598900
-3.748000 1.496700
-3.716400 1.456700
-3.684800 1.413800
-3.653300 1.370900
-3.621700 1.361300
-3.590100 1.355400
-3.558600 1.410600
-3.527000 1.400200
-3.495500 1.394500
-3.463900 1.391500
-3.432300 1.389500
-3.400800 1.388600
-3.369200 1.402900
-3.337600 1.427400
-3.306100 1.453000
-3.274500 1.839400
-3.242900 1.592300
-3.211400 1.583300
-3.179800 1.580300
-3.148300 1.577700
-3.116700 1.548700
-3.085100 1.457500
-3.053600 1.424500
-3.022000 1.388100
-2.990400 1.349400
-2.958900 1.318900
-2.927300 1.301900
-2.895700 1.290300
-2.864200 1.279300
-2.832600 1.314800
-2.801100 1.318200
-2.769500 1.323600
-2.737900 1.332000
-2.706400 1.342000
-2.674800 1.353200
-2.643200 1.364500
-2.611700 1.375500
-2.580100 1.396800
-2.548600 1.410400
-2.517000 1.580700
-2.485400 1.553800
-2.453900 1.533000
-2.422300 1.516200
-2.390700 1.495500
-2.359200 1.380000
-2.327600 1.354800
-2.296000 1.329200
-2.264500 1.299700
-2.232900 1.268100
-2.201400 1.251200
-2.169800 1.267500
-2.138200 1.278300
-2.106700 1.377800
-2.075100 1.773100
-2.043500 1.607100
-2.012000 1.613300
-1.980400 1.600500
-1.948800 1.581000
-1.917300 1.563300
-1.885700 1.530800
-1.854200 1.454400
-1.822600 1.371200
-1.791000 1.245100
-1.759500 1.140800
-1.727900 1.119600
-1.696300 1.197300
-1.664800 1.080700
-1.633200 1.086400
-1.601600 1.107100
-1.570100 1.154900
-1.538500 1.162100
-1.507000 1.112900
-1.475400 1.104700
-1.443800 1.085200
-1.412300 1.054900
-1.380700 1.034100
-1.349100 1.056400
-1.317600 1.053900
-1.286000 1.053500
-1.254400 1.087900
-1.222900 1.137500
-1.191300 1.212400
-1.159800 1.229800
-1.128200 1.227900
-1.096600 1.283700
-1.065100 1.372500
-1.033500 1.410100
-1.001900 1.391000
-0.970400 1.328600
-0.938800 1.293700
-0.907200 1.269800
-0.875700 1.256200
-0.844100 1.248800
-0.812600 1.250800
-0.781000 1.257700
-0.749400 1.391300
-0.717900 1.703900
-0.686300 1.694800
-0.654700 1.777500
-0.623200 1.882600
-0.591600 2.162400
-0.560000 2.252500
-0.528500 2.046300
-0.496900 1.893000
-0.465400 1.821200
-0.433800 1.686000
-0.402200 1.569700
-0.370700 1.518300
-0.339100 1.506000
-0.307500 1.526200
-0.276000 1.542700
-0.244400 1.504700
-0.212800 1.437400
-0.181300 1.441400
-0.149700 1.444100
-0.118200 1.448600
-0.086600 1.455800
-0.055000 1.464700
-0.023500 1.475300
0.008100 1.519900
0.039700 1.673800
0.071200 1.752600
0.102800 2.062000
0.134400 2.171300
0.165900 2.092400
0.197500 1.983500
0.229000 1.946300
0.260600 1.969200
0.292200 2.165900
0.323700 2.321500
0.355300 2.279600
0.386900 2.328900
0.418400 2.359600
0.450000 2.390400
0.481600 2.403900
0.513100 2.408400
0.544700 2.313100
0.576200 2.253300
0.607800 2.214500
0.639400 2.168900
0.670900 1.967000
0.702500 1.899400
0.734100 1.833500
0.765600 1.784400
0.797200 1.762200
0.828800 1.754800
0.860300 1.752600
0.891900 1.740200
0.923400 1.757900
0.955000 1.757600
0.986600 1.778700
1.018100 1.772300
1.049700 1.768500
1.081300 1.774300
1.112800 1.800900
1.144400 1.836400
1.176000 1.805800
1.207500 1.885200
1.239100 1.923800
1.270600 1.946300
1.302200 1.948000
1.333800 1.965100
1.365300 1.962600
1.396900 1.954100
1.428500 1.941600
1.460000 1.965700
1.491600 1.995900
1.523100 2.023800
1.554700 2.048100
1.586300 2.073800
1.617800 1.980400
1.649400 1.851300
1.681000 1.836100
1.712500 1.835300
1.744100 1.829200
1.775700 1.829100
1.807200 1.817900
1.838800 1.799300
1.870300 1.790800
1.901900 1.788900
1.933500 1.794800
1.965000 1.810900
1.996600 1.839800
2.028200 1.883400
2.059700 1.942500
2.091300 2.003700
2.122900 2.050600
2.154400 2.187400
2.186000 2.325200
2.217500 2.218100
2.249100 2.293300
2.280700 2.348800
2.312200 2.412900
2.343800 2.479200
2.375400 2.530300
2.406900 2.510900
2.438500 2.494000
2.470100 2.695500
2.501600 2.892500
2.533200 2.923700
2.564700 3.022500
2.596300 2.878900
2.627900 2.704900
2.659400 2.613300
2.691000 2.345000
2.722600 2.265200
2.754100 2.294800
2.785700 2.283200
2.817300 2.337400
2.848800 2.326300
2.880400 2.340500
2.911900 2.376700
2.943500 2.467800
2.975100 2.305200
3.006600 2.279800
3.038200 2.331600
3.069800 2.357700
3.101300 2.334400
3.132900 2.300700
3.164500 2.281900
3.196000 2.335400
3.227600 2.273000
3.259100 2.262700
3.290700 2.274700
3.322300 2.375800
3.353800 2.482400
3.385400 2.622600
3.417000 2.390500
3.448500 2.414400
3.480100 2.456200
3.511700 2.517700
3.543200 2.588300
3.574800 2.662500
3.606300 2.739500
3.637900 2.790200
3.669500 2.901500
3.701000 2.979500
3.732600 2.932800
3.764200 2.913400
3.795700 3.057700
3.827300 3.114600
3.858900 3.114100
3.890400 2.969200
3.922000 3.021700
3.953500 3.023200
3.985100 3.036300
4.016700 3.050400
4.048200 3.142300
4.079800 3.300800
4.111400 3.125500
4.142900 3.055800
4.174500 2.707400
4.206100 2.644200
4.237600 2.569100
4.269200 2.508700
4.300700 2.495100
4.332300 2.506700
4.363900 2.574000
4.395400 2.796100
4.427000 3.019800
4.458600 3.031700
4.490100 2.952400
4.521700 3.021600
4.553300 3.125900
4.584800 3.726800
4.616400 4.473000
4.647900 3.867500
4.679500 3.663700
4.711100 3.191600
4.742600 2.866400
4.774200 2.696700
4.805800 3.988800
4.837300 2.837800
4.868900 2.874500
4.900500 3.114200
4.932000 2.887000
4.963600 2.860400
4.995100 2.841200
5.026700 2.830100
5.058300 2.803600
5.089800 2.836900
5.121400 3.311400
5.153000 3.630400
5.184500 3.584900
5.216100 3.434400
5.247600 3.243800
5.279200 3.070100
5.310800 2.897500
5.342300 2.849700
5.373900 2.826200
5.405500 2.787600
5.437000 2.806000
5.468600 2.759400
5.500200 2.734600
5.531700 2.711200
5.563300 2.682600
5.594800 2.648700
5.626400 2.621100
5.658000 2.658500
5.689500 2.694400
5.721100 2.735100
5.752700 2.743000
5.784200 2.786800
5.815800 2.796500
5.847400 2.829600
5.878900 2.832100
5.910500 2.787100
5.942000 2.763600
5.973600 2.720300
6.005200 2.695700
6.036700 2.619800
6.068300 2.700600
6.099900 2.759700
6.131400 2.811600
6.163000 2.843400
6.194600 2.922600
6.226100 2.999400
6.257700 3.067100
6.289200 3.471100
6.320800 3.891900
6.352400 3.504500
6.383900 2.784100
6.415500 2.435300
6.447100 2.223700
6.478600 2.084500
6.510200 2.017900
6.541800 1.978400
6.573300 1.957400
6.604900 1.929400
6.636400 1.897900
6.668000 1.840900
6.699600 1.785200
6.731100 1.754400
6.762700 1.722300
6.794300 1.704900
6.825800 1.684300
6.857400 1.667700
6.889000 1.655300
6.920500 1.646300
6.952100 1.643400
6.983600 1.660900
7.015200 1.695600
7.046800 1.786100
7.078300 1.743000
7.109900 1.708200
7.141500 1.689500
7.173000 1.694600
7.204600 1.692400
7.236200 1.685400
7.267700 1.720600
7.299300 1.710700
7.330800 1.746200
7.362400 1.658600
7.394000 1.576600
7.425500 1.449900
7.457100 1.386600
7.488700 1.331100
7.520200 1.280300
7.551800 1.234200
7.583400 1.194300
7.614900 1.168800
7.646500 1.150800
7.678000 1.134200
7.709600 1.117900
7.741200 1.101000
7.772700 1.083100
7.804300 1.063600
7.835900 0.977700
7.867400 0.934500
7.899000 0.906800
7.930600 0.888500
7.962100 0.870300
7.993700 0.849900
8.025200 0.830100
8.056800 0.808000
8.088400 0.785700
8.119900 0.762500
8.151500 0.739500
8.183100 0.716600
8.214600 0.693600
8.246200 0.669300
8.277800 0.630200
8.309300 0.606600
8.340900 0.574700
8.372400 0.552900
8.404000 0.532000
8.435600 0.513700
8.467100 0.495600
8.498700 0.477400
8.530300 0.457900
8.561800 0.439000
8.593400 0.420700
8.625000 0.402700
8.656500 0.385300
8.688100 0.368500
8.719600 0.350800
8.751200 0.333000
8.782800 0.313300
8.814300 0.294200
8.845900 0.275500
8.877500 0.257700
8.909000 0.240900
8.940600 0.221400
8.972200 0.188400
9.003700 0.171300
9.035300 0.154800
9.066800 0.138900
9.098400 0.123700
9.130000 0.114200
9.161500 0.104800
9.193100 0.072800
9.224700 0.067200
9.256200 0.000000
9.287800 0.000000
9.319300 0.000000
9.350900 0.000000
9.382500 0.000000
9.414000 0.000000
9.445600 0.000000
9.477200 0.000000
9.508700 0.000000
9.540300 0.000000
9.571900 0.000000
9.603400 0.000000
9.635000 0.000000
9.666500 0.000000
9.698100 0.000000
9.729700 0.000000
9.761200 0.000000
9.792800 0.000000
9.824400 0.000000
9.855900 0.000000
9.887500 0.000000
9.919100 0.000000
9.950600 0.000000
9.982200 0.000000
10.013700 0.000000
10.045300 0.000000
10.076900 0.000000
10.108400 0.000000
10.140000 0.000000
10.171600 0.000000
10.203100 0.000000
10.234700 0.000000
10.266300 0.000000
10.297800 0.000000
10.329400 0.000000
10.360900 0.000000
10.392500 0.000000
10.424100 0.000000
10.455600 0.000000
10.487200 0.000000
10.518800 0.000000
10.550300 0.000000
10.581900 0.000000
10.613500 0.000000
10.645000 0.000000
10.676600 0.000000
10.708100 0.000000
10.739700 0.000000
10.771300 0.000000
10.802800 0.000000
10.834400 0.000000
10.866000 0.000000
10.897500 0.000000
10.929100 0.000000
10.960700 0.000000
10.992200 0.000000
11.023800 0.000000
11.055300 0.000000
11.086900 0.000000
11.118500 0.000000
11.150000 0.000000
11.181600 0.000000
11.213200 0.000000
11.244700 0.000000
11.276300 0.000000
11.307900 0.000000
11.339400 0.000000
11.371000 0.000000
11.402500 0.000000
11.434100 0.000000
11.465700 0.000000
11.497200 0.000000
11.528800 0.000000
11.560400 0.000000
11.591900 0.000000
11.623500 0.000000
11.655100 0.000000
11.686600 0.000000
11.718200 0.000000
11.749700 0.000000
11.781300 0.000000
11.812900 0.000000
11.844400 0.000000
11.876000 0.000000
11.907600 0.000000
11.939100 0.000000
11.970700 0.000000
12.002300 0.000000
12.033800 0.000000
12.065400 0.000000
12.096900 0.000000
12.128500 0.000000
12.160100 0.000000
12.191600 0.000000
12.223200 0.000000
12.254800 0.000000
12.286300 0.000000
12.317900 0.000000
12.349500 0.000000
12.381000 0.000000
12.412600 0.000000
12.444100 0.000000
12.475700 0.000000
12.507300 0.000000
12.538800 0.000000
12.570400 0.000000
12.602000 0.000000
12.633500 0.000000
12.665100 0.000000
12.696700 0.000000
12.728200 0.000000
12.759800 0.000000
12.791300 0.000000
12.822900 0.000000
12.854500 0.003100
12.886000 0.011700
12.917600 0.022100
12.949200 0.034200
12.980700 0.048000
13.012300 0.063300
13.043800 0.076800
13.075400 0.091400
13.107000 0.107200
13.138500 0.124000
13.170100 0.142000
13.201700 0.161000
13.233200 0.180600
13.264800 0.200500
13.296400 0.219200
13.327900 0.237700
13.359500 0.256000
13.391000 0.274100
13.422600 0.291900
13.454200 0.309600
13.485700 0.327400
13.517300 0.372000
13.548900 0.382700
13.580400 0.397000
13.612000 0.412500
13.643600 0.429100
13.675100 0.446600
13.706700 0.465000
13.738200 0.484000
13.769800 0.503300
13.801400 0.522900
13.832900 0.542900
13.864500 0.563000
13.896100 0.583200
13.927600 0.607600
13.959200 0.692600
13.990800 0.800800
14.022300 0.876900
14.053900 0.959500
14.085400 1.048800
14.117000 1.148400
14.148600 1.250800
14.180100 1.352800
14.211700 1.484200
14.243300 1.622600
14.274800 1.785700
14.306400 2.227500
14.338000 2.548400
14.369500 2.581100
14.401100 2.663400
14.432600 2.697300
14.464200 2.492300
14.495800 2.247200
14.527300 2.246500
14.558900 2.322600
14.590500 2.279700
14.622000 2.558200
14.653600 2.184800
14.685200 2.293800
14.716700 2.524800
14.748300 2.513900
14.779800 2.913100
14.811400 2.427000
14.843000 2.447300
14.874500 2.412900
14.906100 2.337900
14.937700 2.279900
14.969200 2.245100
15.000800 2.330600
15.032400 2.442800
15.063900 2.296900
15.095500 2.359300
15.127000 2.448000
15.158600 2.735900
15.190200 2.780800
15.221700 2.858800
15.253300 2.946100
15.284900 3.003000
15.316400 3.061100
15.348000 3.088900
15.379600 2.984900
15.411100 2.771100
15.442700 2.696700
15.474200 2.609300
15.505800 2.571400
15.537400 2.652600
15.568900 2.645300
15.600500 2.634600
15.632100 2.758400
15.663600 2.727100
15.695200 3.026800
15.726800 3.011300
15.758300 3.027600
15.789900 2.783700
15.821400 2.836000
15.853000 2.829800
15.884600 2.688400
15.916100 2.607100
15.947700 2.490400
15.979300 2.441200
16.010800 2.474100
16.042400 2.746000
16.074000 2.600300
16.105500 2.647100
16.137100 2.709400
16.168600 2.782900
16.200200 2.830000
16.231800 2.843000
16.263300 2.795500
16.294900 2.804700
16.326500 2.644200
16.358000 2.495800
16.389600 2.109900
16.421200 1.962500
16.452700 1.914800
16.484300 1.890400
16.515800 1.836300
16.547400 2.187500
16.579000 2.361400
16.610500 2.639200
16.642100 2.747500
16.673700 2.751400
16.705200 2.821600
16.736800 2.912800
16.768300 3.273000
16.799900 3.251000
16.831500 3.372200
16.863000 3.566600
16.894600 3.286200
16.926200 3.308400
16.957700 3.752900
16.989300 3.360500
17.020900 3.186200
17.052400 3.024300
17.084000 2.964000
17.115500 2.894600
17.147100 2.936000
17.178700 3.245800
17.210200 2.840700
17.241800 2.820700
17.273400 2.864500
17.304900 2.899200
17.336500 3.000100
17.368100 3.190900
17.399600 3.231900
17.431200 3.211800
17.462700 3.228100
17.494300 3.327100
17.525900 3.404000
17.557400 3.432200
17.589000 3.475600
17.620600 3.428300
17.652100 3.453200
17.683700 3.396400
17.715300 3.353600
17.746800 3.304000
17.778400 3.344700
17.809900 3.388500
17.841500 3.427600
17.873100 3.464600
17.904600 3.567000
17.936200 3.510100
17.967800 3.430000
17.999300 3.262600
18.030900 3.099200
18.062500 2.995600
18.094000 2.959400
18.125600 3.047100
18.157100 3.173900
18.188700 3.139900
18.220300 3.073000
18.251800 3.046900
18.283400 3.118600
18.315000 3.141100
18.346500 3.545200
18.378100 3.087700
18.409700 3.011200
18.441200 3.033900
18.472800 2.969400
18.504300 2.973600
18.535900 3.148400
18.567500 3.080300
18.599000 3.092300
18.630600 3.025300
18.662200 2.844500
18.693700 2.770800
18.725300 2.708100
18.756900 2.685500
18.788400 2.663200
18.820000 2.661800
18.851500 2.654000
18.883100 2.628900
18.914700 2.575200
18.946200 2.675200
18.977800 2.689600
19.009400 2.689900
19.040900 2.666200
19.072500 2.652900
19.104100 2.648200
19.135600 2.681900
19.167200 2.767900
19.198700 2.864900
19.230300 2.990700
19.261900 3.225300
19.293400 2.930500
19.325000 2.575600
19.356600 2.608400
19.388100 2.598900
19.419700 2.524500
19.451300 2.457200
19.482800 2.421700
19.514400 2.399100
19.545900 2.376200
19.577500 2.388100
19.609100 2.419900
19.640600 2.418000
19.672200 2.445400
19.703800 2.477500
19.735300 2.503800
19.766900 2.572800
19.798500 2.662000
19.830000 2.762400
19.861600 2.837300
19.893100 3.212000
19.924700 3.383800
19.956300 3.433900
19.987800 3.445500
20.019400 3.422300
20.051000 3.390200
20.082500 3.291500
20.114100 3.334800
20.145700 3.258700
20.177200 3.084300
20.208800 2.897100
20.240300 2.735700
20.271900 2.595000
20.303500 2.465200
20.335000 2.426100
20.366600 2.335900
20.398200 2.234200
20.429700 2.163600
20.461300 2.100900
20.492900 2.099200
20.524400 2.162900
20.556000 2.984200
20.587500 2.992300
20.619100 3.048600
20.650700 2.820200
20.682200 2.881500
20.713800 3.054600
20.745400 3.043400
20.776900 3.035600
20.808500 3.001100
20.840000 2.956300
20.871600 2.851000
20.903200 2.797900
20.934700 2.775600
20.966300 2.586300
20.997900 2.496100
21.029400 2.427300
21.061000 2.361300
21.092600 2.293800
21.124100 2.228000
21.155700 2.136900
21.187200 2.060200
21.218800 1.991400
21.250400 1.921700
21.281900 1.855500
21.313500 1.738100
21.345100 1.616300
21.376600 1.544200
21.408200 1.495800
21.439800 1.428200
21.471300 1.352700
21.502900 1.318300
21.534400 1.313200
21.566000 1.282100
21.597600 1.280600
21.629100 1.299700
21.660700 1.327200
21.692300 1.361500
21.723800 1.459000
21.755400 1.598600
21.787000 1.916800
21.818500 2.363000
21.850100 2.717200
21.881600 2.900400
21.913200 2.991200
21.944800 2.611400
21.976300 2.621300
22.007900 2.551300
22.039500 2.571700
22.071000 2.622000
22.102600 2.578000
22.134200 2.590500
22.165700 2.588500
22.197300 2.538500
22.228800 2.451500
22.260400 2.261800
22.292000 2.234300
22.323500 2.016900
22.355100 1.837900
22.386700 1.777700
22.418200 1.765600
22.449800 2.048200
22.481400 1.919400
22.512900 1.877500
22.544500 1.912500
22.576000 2.047500
22.607600 1.859100
22.639200 1.744700
22.670700 1.790900
22.702300 1.827500
22.733900 1.797400
22.765400 1.937800
22.797000 2.108200
22.828600 2.238600
22.860100 2.492400
22.891700 2.751000
22.923200 2.591400
22.954800 2.493500
22.986400 2.416600
23.017900 2.585400
23.049500 2.603200
23.081100 2.483600
23.112600 2.386200
23.144200 2.401800
23.175800 2.415400
23.207300 2.412000
23.238900 2.438000
23.270400 2.536000
23.302000 2.692200
23.333600 2.832300
23.365100 3.099100
23.396700 3.229200
23.428300 3.383000
23.459800 3.386800
23.491400 3.306700
23.523000 2.876900
23.554500 2.764700
23.586100 2.641200
23.617600 2.497000
23.649200 2.382800
23.680800 2.300800
23.712300 2.269100
23.743900 2.331200
23.775500 2.443600
23.807000 2.587900
23.838600 2.775200
23.870200 2.974400
23.901700 2.935100
23.933300 2.939400
23.964800 2.985500
23.996400 3.123900
24.028000 2.945300
24.059500 2.827700
24.091100 2.681300
24.122700 2.656300
24.154200 2.707800
24.185800 2.425100
24.217400 2.412200
24.248900 2.397700
24.280500 2.373400
24.312000 2.346600
24.343600 2.332500
24.375200 2.338900
24.406700 2.231600
24.438300 2.182800
24.469900 2.099400
24.501400 2.125300
24.533000 2.164600
24.564500 2.226100
24.596100 2.288800
24.627700 2.437300
24.659200 2.911200
24.690800 2.685900
24.722400 2.758900
24.753900 2.779000
24.785500 2.873400
24.817100 2.967600
24.848600 2.994500
24.880200 2.964700
24.911700 2.887600
24.943300 2.950900
24.974900 3.400800
25.006400 3.055900
25.038000 3.196300
25.069600 3.102200
25.101100 2.773300
25.132700 2.577700
25.164300 2.463600
25.195800 2.341900
25.227400 2.246000
25.258900 2.264200
25.290500 2.292500
25.322100 2.286200
25.353600 2.328700
25.385200 2.390000
25.416800 2.442200
25.448300 2.501600
25.479900 2.551900
25.511500 2.417400
25.543000 2.347800
25.574600 2.166700
25.606100 2.148200
25.637700 2.121200
25.669300 2.143000
25.700800 2.153200
25.732400 2.160700
25.764000 2.187600
25.795500 2.208500
25.827100 2.260300
25.858700 2.341400
25.890200 2.396400
25.921800 2.463800
25.953300 2.474400
25.984900 2.343000
26.016500 2.203500
26.048000 2.094100
26.079600 2.043200
26.111200 2.167800
26.142700 2.305200
26.174300 2.458000
26.205900 2.732700
26.237400 3.007000
26.269000 3.373800
26.300500 3.383400
26.332100 3.365300
26.363700 3.238100
26.395200 3.070100
26.426800 2.950200
26.458400 2.838100
26.489900 2.787600
26.521500 2.850400
26.553100 2.859800
26.584600 2.798200
26.616200 2.739400
26.647700 2.884900
26.679300 2.430200
26.710900 2.367000
26.742400 2.348900
26.774000 2.450400
26.805600 2.435600
26.837100 2.419300
26.868700 2.399600
26.900300 2.452900
26.931800 2.628400
26.963400 2.790100
26.994900 2.845400
27.026500 2.877400
27.058100 3.152800
27.089600 2.685800
27.121200 2.653600
27.152800 2.657700
27.184300 2.822700
27.215900 2.549200
27.247500 2.605000
27.279000 2.682900
27.310600 2.768500
27.342100 3.010200
27.373700 3.159100
27.405300 3.234500
27.436800 2.922200
27.468400 2.696900
27.500000 2.547800
27.531500 2.404000
27.563100 2.294300
27.594700 2.278800
27.626200 2.160500
27.657800 2.187400
27.689300 2.163300
27.720900 1.995600
27.752500 1.958700
27.784000 1.942700
27.815600 1.952300
27.847200 1.985500
27.878700 1.980200
27.910300 2.006700
27.941900 1.893800
27.973400 1.811300
28.005000 1.807100
28.036500 1.892000
28.068100 1.977400
28.099700 2.001700
28.131200 2.031000
28.162800 2.063900
28.194400 2.101900
28.225900 2.140500
28.257500 2.205300
28.289100 2.310800
28.320600 2.428800
28.352200 2.549800
28.383700 2.702800
28.415300 2.878200
28.446900 3.119000
28.478400 2.639900
28.510000 2.262800
28.541600 2.201300
28.573100 2.156900
28.604700 2.118200
28.636200 2.043600
28.667800 2.034100
28.699400 2.102600
28.730900 2.004000
28.762500 1.977000
28.794100 2.002200
28.825600 2.026100
28.857200 2.048000
28.888800 1.889300
28.920300 1.874600
28.951900 1.993200
28.983400 1.621400
29.015000 1.620200
29.046600 1.624300
29.078100 1.623500
29.109700 1.627400
29.141300 1.638200
29.172800 1.648800
29.204400 1.690400
29.236000 1.728600
29.267500 1.804100
29.299100 1.845800
29.330600 1.884300
29.362200 1.922000
29.393800 1.960800
29.425300 2.001400
29.456900 2.051100
29.488500 2.104900
29.520000 2.189800
29.551600 2.319600
29.583200 2.477900
29.614700 2.475600
29.646300 2.462100
29.677800 2.476400
29.709400 2.484100
29.741000 2.500400
29.772500 2.526600
29.804100 2.956200
29.835700 2.641000
29.867200 2.668100
29.898800 2.690800
29.930400 2.706900
29.961900 2.723800
29.993500 2.745500
30.025000 2.746700
30.056600 2.728100
30.088200 2.682400
30.119700 2.645900
30.151300 2.619100
30.182900 2.680200
30.214400 2.670100
30.246000 2.659700
30.277600 2.673200
30.309100 2.628200
30.340700 2.592900
30.372200 2.575000
30.403800 2.478000
30.435400 2.379400
30.466900 2.341600
30.498500 2.241600
30.530100 2.246300
30.561600 2.245700
30.593200 2.281200
30.624800 2.222900
30.656300 2.222900
30.687900 2.177700
30.719400 2.142800
30.751000 2.146200
30.782600 2.129300
30.814100 2.023500
30.845700 1.995300
30.877300 2.018200
30.908800 2.045300
30.940400 2.059700
30.972000 2.063800
31.003500 2.054200
31.035100 2.061300
31.066600 2.097200
31.098200 2.118700
31.129800 2.161400
31.161300 2.209600
31.192900 2.184900
31.224500 2.244000
31.256000 2.448600
31.287600 2.723000
31.319200 2.591300
31.350700 2.806300
31.382300 3.077100
31.413800 3.982800
31.445400 3.835000
31.477000 3.289100
31.508500 2.842100
31.540100 2.427400
31.571700 2.186800
31.603200 2.136900
31.634800 2.033100
31.666400 1.750000
31.697900 1.907100
31.729500 2.037000
31.761000 2.174200
31.792600 2.321200
31.824200 2.418500
31.855700 2.425800
31.887300 2.364700
31.918900 2.128500
31.950400 2.031900
31.982000 1.900600
32.013600 1.762800
32.045100 2.096100
32.076700 1.674800
32.108200 1.531800
32.139800 1.400800
32.171400 1.281700
32.202900 1.180800
32.234500 1.111600
32.266100 1.209500
32.297600 1.322800
32.329200 1.430000
32.360700 1.560700
32.392300 1.676200
32.423900 1.853700
32.455400 1.980300
32.487000 1.951600
32.518600 1.968400
32.550100 1.987800
32.581700 2.009900
32.613300 2.034600
32.644800 2.018500
32.676400 1.963000
32.707900 1.941700
32.739500 1.935400
32.771100 1.935800
32.802600 1.943400
32.834200 1.971000
32.865800 2.050400
32.897300 2.080600
32.928900 2.039800
32.960500 1.969700
32.992000 1.884200
33.023600 1.809100
33.055100 1.746800
33.086700 1.708700
33.118300 1.686000
33.149800 1.663900
33.181400 1.613500
33.213000 1.565100
33.244500 1.513500
33.276100 1.456800
33.307700 1.395100
33.339200 1.328700
33.370800 1.260000
33.402300 1.180900
33.433900 1.172200
33.465500 1.127800
33.497000 1.092900
33.528600 1.088700
33.560200 1.090400
33.591700 1.098600
33.623300 1.112500
33.654900 1.131100
33.686400 1.156800
33.718000 1.340800
33.749500 1.414900
33.781100 1.476900
33.812700 1.538000
33.844200 1.590400
33.875800 1.670500
33.907400 1.812600
33.938900 1.910000
33.970500 2.088600
34.002100 2.222200
34.033600 2.308700
34.065200 2.352000
34.096700 2.428700
34.128300 2.564800
34.159900 3.454300
34.191400 2.384000
34.223000 2.176100
34.254600 2.118000
34.286100 2.292400
34.317700 2.555400
34.349300 2.247700
34.380800 1.941000
34.412400 1.840600
34.443900 1.871900
34.475500 1.878700
34.507100 1.797700
34.538600 1.940400
34.570200 2.058500
34.601800 2.039700
34.633300 2.027600
34.664900 2.021300
34.696500 2.020200
34.728000 2.100200
34.759600 2.129500
34.791100 2.176600
34.822700 2.232400
34.854300 2.284500
34.885800 2.379600
34.917400 2.486400
34.949000 2.536300
34.980500 2.273200
35.012100 2.058800
35.043700 1.841100
35.075200 1.750200
35.106800 1.677300
35.138300 1.646900
35.169900 1.428400
35.201500 1.321300
35.233000 1.252200
35.264600 1.196200
35.296200 1.142000
35.327700 1.105300
35.359300 1.066600
35.390900 1.031700
35.422400 1.997000
35.454000 1.237100
35.485500 1.275400
35.517100 1.355100
35.548700 1.278100
35.580200 1.207000
35.611800 1.191700
35.643400 1.176100
35.674900 1.152700
35.706500 1.135200
35.738100 1.126100
35.769600 1.156900
35.801200 1.167000
35.832700 1.132700
35.864300 1.044300
35.895900 1.082300
35.927400 1.123000
35.959000 1.229500
35.990600 1.394100
36.022100 1.419500
36.053700 1.441600
36.085200 1.482300
36.116800 1.627500
36.148400 2.024600
36.179900 1.554500
36.211500 1.581000
36.243100 1.616600
36.274600 1.670400
36.306200 1.902900
36.337800 1.897700
36.369300 2.030100
36.400900 2.204300
36.432400 2.267400
36.464000 2.415000
36.495600 2.512200
36.527100 2.698800
36.558700 2.711600
36.590300 2.760400
36.621800 2.744600
36.653400 2.690200
36.685000 2.504800
36.716500 1.910300
36.748100 1.788200
36.779600 1.720400
36.811200 1.668100
36.842800 1.657600
36.874300 1.635400
36.905900 1.631000
36.937500 1.629200
36.969000 1.640700
37.000600 1.667000
37.032200 1.690100
37.063700 1.737500
37.095300 1.815900
37.126800 1.922800
37.158400 2.041300
37.190000 2.191300
37.221500 2.353000
37.253100 2.461300
37.284700 2.516800
37.316200 2.569100
37.347800 2.610100
37.379400 2.661600
37.410900 2.615300
37.442500 2.550800
37.474000 2.462500
37.505600 2.251000
37.537200 2.115800
37.568700 1.996300
37.600300 1.934100
37.631900 1.919400
37.663400 2.349800
37.695000 2.055000
37.726600 2.002600
37.758100 1.937800
37.789700 1.881100
37.821200 1.809100
37.852800 1.781400
37.884400 1.831200
37.915900 1.996500
37.947500 2.061700
37.979100 2.137000
38.010600 2.263500
38.042200 2.325100
38.073800 2.388800
38.105300 2.460000
38.136900 2.531600
38.168400 2.526400
38.200000 2.271500
38.231600 2.176400
38.263100 2.106000
38.294700 2.055800
38.326300 2.034700
38.357800 1.990400
38.389400 1.950100
38.421000 1.917600
38.452500 1.891100
38.484100 1.871300
38.515600 1.858000
38.547200 1.886800
38.578800 1.884500
38.610300 1.888100
38.641900 1.895000
38.673500 1.916600
38.705000 1.911100
38.736600 1.858700
38.768200 1.784300
38.799700 1.733500
38.831300 1.712200
38.862800 1.698600
38.894400 1.690500
38.926000 1.743100
38.957500 1.702700
38.989100 1.635900
39.020700 1.608200
39.052200 1.592500
39.083800 1.566000
39.115400 1.543000
39.146900 1.520500
39.178500 1.539400
39.210000 1.515400
39.241600 1.507200
39.273200 1.509000
39.304700 1.518400
39.336300 1.536000
39.367900 1.566500
39.399400 1.603800
39.431000 1.628400
39.462600 1.639100
39.494100 1.670500
39.525700 1.651500
39.557200 1.622400
39.588800 1.550400
39.620400 1.435400
39.651900 1.353200
39.683500 1.313500
39.715100 1.292300
39.746600 1.270300
39.778200 1.251500
39.809800 1.235600
39.841300 1.224900
39.872900 1.214500
39.904400 1.196400
39.936000 1.181700
39.967600 1.171600
39.999100 1.167400
40.030700 1.167900
40.062300 1.169200
40.093800 1.171500
40.125400 1.174800
40.156900 1.179700
40.188500 1.188700
40.220100 1.198900
40.251600 1.209200
40.283200 1.222200
40.314800 1.239400
40.346300 1.272600
40.377900 1.319500
40.409500 1.361700
40.441000 1.375200
40.472600 1.377500
40.504100 1.366300
40.535700 1.361400
40.567300 1.379600
40.598800 1.427400
40.630400 1.485600
40.662000 1.577700
40.693500 1.647000
40.725100 1.640500
40.756700 1.548900
40.788200 1.513600
40.819800 1.496100
40.851300 1.479200
40.882900 1.464700
40.914500 1.454800
40.946000 1.449600
40.977600 1.456000
41.009200 1.469800
41.040700 1.554300
41.072300 1.594200
41.103900 1.598900
41.135400 1.599000
41.167000 1.593700
41.198500 1.581000
41.230100 1.543400
41.261700 1.519800
41.293200 1.482800
41.324800 1.447200
41.356400 1.423100
41.387900 1.397000
41.419500 1.379900
41.451100 1.365000
41.482600 1.349700
41.514200 1.334000
41.545700 1.317700
41.577300 1.296000
41.608900 1.339600
41.640400 1.310300
41.672000 1.259200
41.703600 1.228000
41.735100 1.206300
41.766700 1.170000
41.798300 1.158500
41.829800 1.154500
41.861400 1.146700
41.892900 1.129200
41.924500 1.090100
41.956100 1.067900
41.987600 1.038500
42.019200 1.017800
42.050800 1.010200
42.082300 1.005900
42.113900 1.002000
42.145500 0.998700
42.177000 0.937700
42.208600 1.034000
42.240100 0.992600
42.271700 0.948500
42.303300 0.901700
42.334800 0.871500
42.366400 0.848900
42.398000 0.820100
42.429500 0.791300
42.461100 0.777200
42.492700 0.766800
42.524200 0.758700
42.555800 0.752400
42.587300 0.745900
42.618900 0.739300
42.650500 0.732400
42.682000 0.725300
42.713600 0.718000
42.745200 0.695200
42.776700 0.657200
42.808300 0.628500
42.839900 0.609300
42.871400 0.598500
42.903000 0.589300
42.934500 0.580500
42.966100 0.571900
42.997700 0.554800
43.029200 0.546000
43.060800 0.537500
43.092400 0.527200
43.123900 0.519300
43.155500 0.511500
43.187100 0.505200
43.218600 0.500900
43.250200 0.498900
43.281700 0.499200
43.313300 0.494600
43.344900 0.481900
43.376400 0.465700
43.408000 0.452000
43.439600 0.439000
43.471100 0.432100
43.502700 0.425600
43.534300 0.417400
43.565800 0.407100
43.597400 0.394800
43.628900 0.383700
43.660500 0.358300
43.692100 0.334900
43.723600 0.310900
43.755200 0.286500
43.786800 0.266700
43.818300 0.260100
43.849900 0.254000
43.881400 0.248400
43.913000 0.243300
43.944600 0.243000
43.976100 0.244500
44.007700 0.246200
44.039300 0.248200
44.070800 0.250400
44.102400 0.257600
44.134000 0.253100
44.165500 0.247900
44.197100 0.241900
44.228600 0.235000
44.260200 0.228200
44.291800 0.221700
44.323300 0.215600
44.354900 0.202700
44.386500 0.189500
44.418000 0.175800
44.449600 0.161800
44.481200 0.148400
44.512700 0.136400
44.544300 0.125100
44.575800 0.114600
44.607400 0.104700
44.639000 0.095600
44.670500 0.087300
44.702100 0.079700
44.733700 0.072900
44.765200 0.066900
44.796800 0.061500
44.828400 0.056400
44.859900 0.051500
44.891500 0.046800
44.923000 0.042300
44.954600 0.038000
44.986200 0.034000
45.017700 0.030100
45.049300 0.026500
45.080900 0.023100
45.112400 0.019900
45.144000 0.017500
45.175600 0.015300
45.207100 0.013200
45.238700 0.011300
45.270200 0.009400
45.301800 0.007700
45.333400 0.006100
45.364900 0.004700
45.396500 0.003400
45.428100 0.002100
45.459600 0.001100
45.491200 0.000100
45.522800 0.000000
45.554300 0.000000
45.585900 0.000000
45.617400 0.000000
45.649000 0.000000
45.680600 0.000000
45.712100 0.000000
45.743700 0.000000
45.775300 0.000000
45.806800 0.000000
45.838400 0.000000
45.870000 0.000000
45.901500 0.000000
45.933100 0.000000
45.964600 0.000000
45.996200 0.000000
46.027800 0.000000
46.059300 0.000000
46.090900 0.000000
46.122500 0.000000
46.154000 0.000000
46.185600 0.000000
46.217200 0.000000
46.248700 0.000000
46.280300 0.000000
46.311800 0.000000
46.343400 0.000000
46.375000 0.000000
46.406500 0.000000
46.438100 0.000000
46.469700 0.000000
46.501200 0.000000
46.532800 0.000000
46.564400 0.000000
46.595900 0.000000
46.627500 0.000000
46.659000 0.000000
46.690600 0.000000
46.722200 0.000000
46.753700 0.000000
46.785300 0.000000
46.816900 0.000000
46.848400 0.000000
46.880000 0.000000
46.911600 0.000000
46.943100 0.000000
46.974700 0.000000
47.006200 0.000000
47.037800 0.000000
47.069400 0.000000
47.100900 0.000000
47.132500 0.000000
47.164100 0.000000
47.195600 0.000000
47.227200 0.000000
47.258800 0.000000
47.290300 0.000000
47.321900 0.000000
47.353400 0.000000
47.385000 0.000000
47.416600 0.000000
47.448100 0.000000
47.479700 0.000000
47.511300 0.000000
47.542800 0.000000
47.574400 0.000000
47.605900 0.000000
47.637500 0.000000
47.669100 0.000000
47.700600 0.000000
47.732200 0.000000
47.763800 0.000000
47.795300 0.000000
47.826900 0.000000
47.858500 0.000000
47.890000 0.000000
47.921600 0.000000
47.953100 0.000000
47.984700 0.000000
48.016300 0.000000
48.047800 0.000000
48.079400 0.000000
48.111000 0.000000
48.142500 0.000000
48.174100 0.000000
48.205700 0.000000
48.237200 0.000000
48.268800 0.000000
48.300300 0.000000
48.331900 0.000000
48.363500 0.000000
e
