set title 'mp-1008395 - Density of States'
set xlabel 'Energy (eV)'
set ylabel 'DOS (states/eV)'
set grid
set xrange [-10:10]
set yrange [0:2.713]
set xzeroaxis lt -1
set terminal png size 800,600
set output 'mp-1008395_dos_gnuplot.png'
plot '-' using 1:2 with lines title 'DOS'
-16.716900 0.000000
-16.665900 0.000000
-16.614900 0.000000
-16.563900 0.000000
-16.512900 0.000000
-16.462000 0.000000
-16.411000 0.000000
-16.360000 0.000000
-16.309000 0.000000
-16.258000 0.000000
-16.207000 0.000000
-16.156000 0.000000
-16.105000 0.000000
-16.054100 0.000000
-16.003100 0.000000
-15.952100 0.000000
-15.901100 0.000000
-15.850100 0.000000
-15.799100 0.000000
-15.748100 0.000000
-15.697200 0.000000
-15.646200 0.000000
-15.595200 0.000000
-15.544200 0.000000
-15.493200 0.000000
-15.442200 0.000000
-15.391200 0.000000
-15.340200 0.000000
-15.289300 0.000000
-15.238300 0.000000
-15.187300 0.000000
-15.136300 0.000000
-15.085300 0.000000
-15.034300 0.000000
-14.983300 0.000000
-14.932400 0.000000
-14.881400 0.000000
-14.830400 0.000000
-14.779400 0.000000
-14.728400 0.000000
-14.677400 0.000000
-14.626400 0.000000
-14.575500 0.000000
-14.524500 0.000000
-14.473500 0.000000
-14.422500 0.000000
-14.371500 0.000000
-14.320500 0.000000
-14.269500 0.000000
-14.218500 0.000000
-14.167600 0.000000
-14.116600 0.000000
-14.065600 0.000000
-14.014600 0.000000
-13.963600 0.000000
-13.912600 0.000000
-13.861600 0.000000
-13.810700 0.000000
-13.759700 0.000000
-13.708700 0.000000
-13.657700 0.000000
-13.606700 0.000000
-13.555700 0.000000
-13.504700 0.000000
-13.453700 0.000000
-13.402800 0.000000
-13.351800 0.000000
-13.300800 0.000000
-13.249800 0.000000
-13.198800 0.000000
-13.147800 0.000000
-13.096800 0.000000
-13.045900 0.000000
-12.994900 0.000000
-12.943900 0.000000
-12.892900 0.000000
-12.841900 0.000000
-12.790900 0.000000
-12.739900 0.000000
-12.688900 0.000000
-12.638000 0.000000
-12.587000 0.000000
-12.536000 0.000000
-12.485000 0.000000
-12.434000 0.000000
-12.383000 0.000000
-12.332000 0.000000
-12.281100 0.000000
-12.230100 0.000000
-12.179100 0.000500
-12.128100 0.014400
-12.077100 0.071800
-12.026100 0.063500
-11.975100 0.032600
-11.924100 0.049300
-11.873200 0.145500
-11.822200 0.332700
-11.771200 0.176300
-11.720200 0.159400
-11.669200 0.126800
-11.618200 0.081800
-11.567200 0.075500
-11.516300 0.101000
-11.465300 0.176300
-11.414300 0.268400
-11.363300 0.632300
-11.312300 0.355100
-11.261300 0.039600
-11.210300 0.038300
-11.159300 0.288000
-11.108400 0.465900
-11.057400 0.236400
-11.006400 0.182100
-10.955400 0.175300
-10.904400 0.310600
-10.853400 0.297600
-10.802400 0.366300
-10.751500 0.296700
-10.700500 0.437500
-10.649500 0.413100
-10.598500 0.102900
-10.547500 0.100900
-10.496500 0.486800
-10.445500 0.833900
-10.394500 0.464000
-10.343600 0.140800
-10.292600 0.179100
-10.241600 0.171500
-10.190600 0.173200
-10.139600 0.211400
-10.088600 0.631200
-10.037600 0.966900
-9.986700 0.914700
-9.935700 0.513600
-9.884700 0.234500
-9.833700 0.308500
-9.782700 0.679500
-9.731700 0.577100
-9.680700 0.250000
-9.629700 0.293000
-9.578800 0.316400
-9.527800 0.216000
-9.476800 0.196500
-9.425800 0.436400
-9.374800 0.735700
-9.323800 0.851200
-9.272800 0.531500
-9.221900 0.425100
-9.170900 0.527400
-9.119900 0.823100
-9.068900 0.760300
-9.017900 0.230100
-8.966900 0.026200
-8.915900 0.128000
-8.864900 0.332600
-8.814000 0.286000
-8.763000 0.417500
-8.712000 0.586900
-8.661000 1.013200
-8.610000 0.717200
-8.559000 0.250000
-8.508000 0.274800
-8.457100 0.835500
-8.406100 0.587900
-8.355100 0.199800
-8.304100 0.140500
-8.253100 0.026100
-8.202100 0.013000
-8.151100 0.179200
-8.100100 0.513200
-8.049200 0.567000
-7.998200 0.880900
-7.947200 1.036600
-7.896200 0.793400
-7.845200 0.590400
-7.794200 0.530300
-7.743200 0.363100
-7.692300 0.230400
-7.641300 0.330200
-7.590300 0.968000
-7.539300 0.910700
-7.488300 0.542100
-7.437300 0.603200
-7.386300 0.623900
-7.335300 0.944900
-7.284400 1.465900
-7.233400 0.839000
-7.182400 0.647200
-7.131400 1.133700
-7.080400 0.852700
-7.029400 0.646900
-6.978400 0.465600
-6.927500 0.319800
-6.876500 0.479800
-6.825500 0.813500
-6.774500 0.748700
-6.723500 0.635900
-6.672500 0.511700
-6.621500 0.358300
-6.570500 0.317400
-6.519600 0.413100
-6.468600 0.520400
-6.417600 0.346200
-6.366600 0.083700
-6.315600 0.169700
-6.264600 0.394100
-6.213600 0.476000
-6.162700 0.318700
-6.111700 0.246100
-6.060700 0.528400
-6.009700 0.701300
-5.958700 0.880900
-5.907700 0.768600
-5.856700 0.807200
-5.805700 0.727900
-5.754800 0.212100
-5.703800 0.320300
-5.652800 0.518100
-5.601800 0.457400
-5.550800 0.269100
-5.499800 0.275200
-5.448800 0.417900
-5.397900 0.543000
-5.346900 0.305700
-5.295900 0.299000
-5.244900 0.508700
-5.193900 0.362700
-5.142900 0.148800
-5.091900 0.353500
-5.040900 0.394300
-4.990000 0.379300
-4.939000 0.519500
-4.888000 0.644400
-4.837000 0.803100
-4.786000 1.143900
-4.735000 1.482300
-4.684000 1.199600
-4.633100 0.907300
-4.582100 1.395300
-4.531100 1.301100
-4.480100 1.133300
-4.429100 1.024900
-4.378100 0.366800
-4.327100 0.492800
-4.276100 0.851000
-4.225200 0.815100
-4.174200 0.864300
-4.123200 0.536700
-4.072200 0.233900
-4.021200 0.302000
-3.970200 0.493500
-3.919200 0.308400
-3.868300 0.366900
-3.817300 0.668700
-3.766300 0.947900
-3.715300 0.917700
-3.664300 1.005200
-3.613300 0.779900
-3.562300 0.455600
-3.511300 0.524700
-3.460400 0.774500
-3.409400 0.726600
-3.358400 1.163500
-3.307400 1.214600
-3.256400 0.802600
-3.205400 0.265200
-3.154400 0.334000
-3.103500 0.770700
-3.052500 0.574000
-3.001500 0.544900
-2.950500 0.871500
-2.899500 0.770800
-2.848500 0.540100
-2.797500 0.800200
-2.746500 1.069000
-2.695600 1.001900
-2.644600 1.291200
-2.593600 0.887600
-2.542600 0.620700
-2.491600 0.488000
-2.440600 0.336900
-2.389600 0.142200
-2.338700 0.191300
-2.287700 0.487000
-2.236700 0.549400
-2.185700 0.460800
-2.134700 0.437700
-2.083700 0.395100
-2.032700 0.365800
-1.981800 0.597800
-1.930800 0.571000
-1.879800 0.255700
-1.828800 0.540700
-1.777800 0.925700
-1.726800 0.818100
-1.675800 1.116700
-1.624800 1.116400
-1.573900 1.106000
-1.522900 1.505200
-1.471900 1.260300
-1.420900 0.782000
-1.369900 0.244100
-1.318900 0.246600
-1.267900 0.834100
-1.217000 1.044100
-1.166000 0.933200
-1.115000 0.739000
-1.064000 0.204900
-1.013000 0.048100
-0.962000 0.413100
-0.911000 1.113300
-0.860000 1.303000
-0.809100 1.006100
-0.758100 0.666200
-0.707100 0.197800
-0.656100 0.319300
-0.605100 0.780200
-0.554100 0.869000
-0.503100 1.340400
-0.452200 1.327300
-0.401200 1.171200
-0.350200 1.256600
-0.299200 1.090200
-0.248200 0.803800
-0.197200 0.633300
-0.146200 0.856800
-0.095200 0.594200
-0.044300 0.765400
0.006700 1.086500
0.057700 1.387100
0.108700 1.540100
0.159700 0.897900
0.210700 0.581600
0.261700 0.940700
0.312600 1.155000
0.363600 0.974500
0.414600 0.697800
0.465600 0.553100
0.516600 0.554100
0.567600 0.927700
0.618600 1.253500
0.669600 0.807000
0.720500 0.622400
0.771500 1.011700
0.822500 1.213400
0.873500 1.190600
0.924500 1.072900
0.975500 0.959600
1.026500 1.156200
1.077400 1.186900
1.128400 1.034600
1.179400 1.067200
1.230400 0.730000
1.281400 0.660200
1.332400 1.117900
1.383400 1.325300
1.434400 1.038400
1.485300 0.867400
1.536300 0.719000
1.587300 0.677200
1.638300 0.527800
1.689300 0.620600
1.740300 1.493200
1.791300 1.333300
1.842200 1.019300
1.893200 0.907800
1.944200 1.144400
1.995200 1.214600
2.046200 1.006500
2.097200 1.151200
2.148200 1.163900
2.199200 0.910100
2.250100 0.881600
2.301100 1.337700
2.352100 1.423000
2.403100 1.141200
2.454100 1.469000
2.505100 1.380600
2.556100 1.318500
2.607000 0.876400
2.658000 0.913500
2.709000 1.490500
2.760000 1.335100
2.811000 1.152700
2.862000 1.685300
2.913000 1.239200
2.964000 0.964500
3.014900 1.015700
3.065900 1.403600
3.116900 1.624800
3.167900 1.729200
3.218900 0.946300
3.269900 0.766300
3.320900 1.166700
3.371800 1.325200
3.422800 0.727100
3.473800 1.141200
3.524800 2.104400
3.575800 2.316700
3.626800 1.920600
3.677800 1.750600
3.728800 2.140800
3.779700 2.139600
3.830700 1.514200
3.881700 0.817000
3.932700 0.396600
3.983700 0.286500
4.034700 0.649900
4.085700 0.795300
4.136600 0.848300
4.187600 1.115000
4.238600 1.560500
4.289600 2.338400
4.340600 2.414600
4.391600 1.495500
4.442600 0.751900
4.493600 0.508900
4.544500 0.965300
4.595500 1.159800
4.646500 1.755400
4.697500 2.235100
4.748500 2.115200
4.799500 2.180800
4.850500 1.478500
4.901400 0.760600
4.952400 1.021500
5.003400 1.725500
5.054400 1.631500
5.105400 1.174000
5.156400 1.732700
5.207400 1.577100
5.258400 0.985100
5.309300 1.309900
5.360300 1.223900
5.411300 0.871700
5.462300 1.548000
5.513300 2.337300
5.564300 2.466200
5.615300 1.734100
5.666200 1.431900
5.717200 1.276300
5.768200 0.762100
5.819200 1.007300
5.870200 1.985900
5.921200 2.204000
5.972200 1.899000
6.023200 1.270900
6.074100 0.919800
6.125100 1.017200
6.176100 1.098900
6.227100 1.055600
6.278100 1.572000
6.329100 1.274700
6.380100 0.667000
6.431000 1.060800
6.482000 1.169300
6.533000 1.130200
6.584000 1.151400
6.635000 0.886500
6.686000 0.963300
6.737000 1.509700
6.788000 1.725300
6.838900 1.311600
6.889900 0.545000
6.940900 0.246300
6.991900 0.253200
7.042900 0.192400
7.093900 0.114200
7.144900 0.238700
7.195800 0.617500
7.246800 0.900700
7.297800 0.815000
7.348800 0.921200
7.399800 0.889400
7.450800 0.694200
7.501800 0.654100
7.552800 0.478300
7.603700 0.448100
7.654700 0.327200
7.705700 0.080100
7.756700 0.185300
7.807700 0.429600
7.858700 0.220500
7.909700 0.168900
7.960600 0.646500
8.011600 0.903800
8.062600 0.486400
8.113600 0.208500
8.164600 0.139500
8.215600 0.288400
8.266600 0.274000
8.317600 0.104200
8.368500 0.028400
8.419500 0.115600
8.470500 0.314200
8.521500 0.282700
8.572500 0.054300
8.623500 0.027500
8.674500 0.164900
8.725400 0.271400
8.776400 0.145500
8.827400 0.026000
8.878400 0.066900
8.929400 0.143900
8.980400 0.085300
9.031400 0.033600
9.082400 0.079500
9.133300 0.049600
9.184300 0.005200
9.235300 0.000100
9.286300 0.000000
9.337300 0.000000
9.388300 0.000000
9.439300 0.000000
9.490200 0.000000
9.541200 0.000000
9.592200 0.000000
9.643200 0.000000
9.694200 0.000000
9.745200 0.000000
9.796200 0.000000
9.847200 0.000000
9.898100 0.000000
9.949100 0.000000
10.000100 0.000000
10.051100 0.000000
10.102100 0.000000
10.153100 0.000000
10.204100 0.000000
10.255000 0.000000
10.306000 0.000000
10.357000 0.000000
10.408000 0.000000
10.459000 0.000000
10.510000 0.000000
10.561000 0.000000
10.612000 0.000000
10.662900 0.000000
10.713900 0.000000
10.764900 0.000000
10.815900 0.000000
10.866900 0.000000
10.917900 0.000000
10.968900 0.000000
11.019800 0.000000
11.070800 0.000000
11.121800 0.000000
11.172800 0.000000
11.223800 0.000000
11.274800 0.000000
11.325800 0.000000
11.376700 0.000000
11.427700 0.000000
11.478700 0.000000
11.529700 0.000000
11.580700 0.000300
11.631700 0.007900
11.682700 0.036700
11.733700 0.029500
11.784600 0.004000
11.835600 0.000100
11.886600 0.000000
11.937600 0.000000
11.988600 0.000300
12.039600 0.016000
12.090600 0.123200
12.141500 0.221800
12.192500 0.197400
12.243500 0.064900
12.294500 0.004000
12.345500 0.000000
12.396500 0.001900
12.447500 0.057100
12.498500 0.283700
12.549400 0.246800
12.600400 0.037300
12.651400 0.000900
12.702400 0.000000
12.753400 0.000000
12.804400 0.000100
12.855400 0.007400
12.906300 0.119700
12.957300 0.359400
13.008300 0.200000
13.059300 0.025000
13.110300 0.076900
13.161300 0.213600
13.212300 0.343900
13.263300 0.363700
13.314200 0.205600
13.365200 0.096300
13.416200 0.175300
13.467200 0.292300
13.518200 0.645400
13.569200 0.551000
13.620200 0.638200
13.671100 0.825100
13.722100 0.747100
13.773100 0.983400
13.824100 1.145100
13.875100 0.566300
13.926100 1.053300
13.977100 1.759300
14.028100 1.899800
14.079000 1.695900
14.130000 1.356600
14.181000 1.118200
14.232000 0.872200
14.283000 1.191100
14.334000 1.470700
14.385000 1.324600
14.435900 1.294100
14.486900 0.734900
14.537900 1.304400
14.588900 1.806300
14.639900 1.475800
14.690900 1.023400
14.741900 1.111700
14.792900 1.592300
14.843800 1.544200
14.894800 1.365700
14.945800 1.833000
14.996800 1.905100
15.047800 1.276800
15.098800 1.307200
15.149800 1.672600
15.200700 2.100600
15.251700 1.120500
15.302700 0.611100
15.353700 1.209600
15.404700 1.637900
15.455700 1.492500
15.506700 1.404800
15.557700 1.668900
15.608600 1.975700
15.659600 1.823000
15.710600 2.437700
15.761600 3.217200
15.812600 2.250700
15.863600 1.506900
15.914600 1.348600
15.965500 1.174800
16.016500 1.629300
16.067500 2.118200
16.118500 1.837400
16.169500 1.502900
16.220500 0.879100
16.271500 1.046600
16.322500 1.833100
16.373400 1.733100
16.424400 1.502800
16.475400 1.535300
16.526400 0.861700
16.577400 0.399700
16.628400 0.923100
16.679400 1.583900
16.730300 1.227400
16.781300 0.843300
16.832300 0.951800
16.883300 1.152800
16.934300 1.268500
16.985300 0.755600
17.036300 0.751100
17.087300 1.091500
17.138200 1.220400
17.189200 0.984600
17.240200 0.751800
17.291200 0.995100
17.342200 1.785300
17.393200 2.281300
17.444200 1.948100
17.495100 1.403300
17.546100 1.263400
17.597100 1.073600
17.648100 1.294300
17.699100 1.813800
17.750100 1.735200
17.801100 0.871600
17.852100 0.863700
17.903000 0.917200
17.954000 0.552300
18.005000 0.712400
18.056000 0.722600
18.107000 0.514200
18.158000 0.494800
18.209000 0.879100
18.259900 1.238300
18.310900 0.979200
18.361900 1.290200
18.412900 1.007800
18.463900 0.563800
18.514900 0.672400
18.565900 0.928600
18.616900 1.155300
18.667800 0.859100
18.718800 1.022000
18.769800 1.441200
18.820800 1.283500
18.871800 1.659200
18.922800 1.745600
18.973800 1.190200
19.024700 1.701600
19.075700 2.618700
19.126700 2.093800
19.177700 1.162000
19.228700 0.573100
19.279700 0.768800
19.330700 0.742600
19.381700 1.120900
19.432600 1.520900
19.483600 2.044100
19.534600 1.630800
19.585600 1.215700
19.636600 1.316300
19.687600 1.026600
19.738600 0.792300
19.789500 1.170500
19.840500 1.129400
19.891500 1.291500
19.942500 1.271700
19.993500 1.705800
20.044500 2.550700
20.095500 2.147400
20.146500 1.696200
20.197400 2.148900
20.248400 2.083800
20.299400 1.928200
20.350400 1.332200
20.401400 0.437600
20.452400 0.639300
20.503400 0.991700
20.554300 0.890100
20.605300 1.092000
20.656300 1.239500
20.707300 1.427800
20.758300 1.322600
20.809300 0.744400
20.860300 0.552100
20.911300 1.295300
20.962200 1.923700
21.013200 1.944200
21.064200 1.791400
21.115200 1.983100
21.166200 1.821900
21.217200 1.090200
21.268200 1.096800
21.319100 0.678000
21.370100 0.837800
21.421100 0.726000
21.472100 0.534400
21.523100 1.007600
21.574100 0.870000
21.625100 0.652000
21.676100 1.339600
21.727000 1.596000
21.778000 1.036600
21.829000 0.953900
21.880000 1.298300
21.931000 1.513200
21.982000 1.246000
22.033000 0.921200
22.083900 0.818200
22.134900 0.903400
22.185900 1.087400
22.236900 0.899000
22.287900 0.797700
22.338900 0.865000
22.389900 0.766700
22.440900 0.749100
22.491800 1.097700
22.542800 1.053700
22.593800 0.706000
22.644800 0.868100
22.695800 0.905400
22.746800 0.891100
22.797800 1.083800
22.848700 0.934900
22.899700 0.728400
22.950700 0.750800
23.001700 0.857800
23.052700 1.363300
23.103700 1.459200
23.154700 1.351700
23.205700 1.777100
23.256600 2.133400
23.307600 1.534700
23.358600 1.505000
23.409600 2.337600
23.460600 2.471800
23.511600 2.024900
23.562600 1.114100
23.613500 0.792600
23.664500 1.318400
23.715500 1.401300
23.766500 1.033400
23.817500 1.241900
23.868500 1.716300
23.919500 2.093400
23.970400 2.223400
24.021400 2.117100
24.072400 2.550900
24.123400 3.450700
24.174400 2.719500
24.225400 1.010500
24.276400 0.735700
24.327400 0.942700
24.378300 1.205300
24.429300 1.622500
24.480300 1.704100
24.531300 1.384700
24.582300 1.211700
24.633300 1.205400
24.684300 1.409600
24.735200 1.691400
24.786200 1.539800
24.837200 1.451900
24.888200 1.642100
24.939200 1.905500
24.990200 1.470000
25.041200 1.401400
25.092200 1.513700
25.143100 1.136800
25.194100 1.432200
25.245100 1.775600
25.296100 1.168200
25.347100 0.619700
25.398100 0.692200
25.449100 0.860300
25.500000 1.159100
25.551000 1.838300
25.602000 2.576600
25.653000 2.400000
25.704000 1.635800
25.755000 0.766900
25.806000 1.003500
25.857000 1.258200
25.907900 1.139700
25.958900 1.557300
26.009900 1.938500
26.060900 2.824400
26.111900 2.344500
26.162900 0.934300
26.213900 0.543700
26.264800 1.034000
26.315800 1.079400
26.366800 0.855300
26.417800 1.552900
26.468800 2.316400
26.519800 1.975200
26.570800 1.139500
26.621800 1.188300
26.672700 1.541900
26.723700 1.090700
26.774700 1.084900
26.825700 1.405300
26.876700 1.586200
26.927700 1.480600
26.978700 1.291700
27.029600 0.906000
27.080600 0.655000
27.131600 1.162200
27.182600 1.341100
27.233600 0.999100
27.284600 1.281700
27.335600 1.876500
27.386600 2.458800
27.437500 1.766800
27.488500 1.327100
27.539500 1.122800
27.590500 1.000800
27.641500 0.853100
27.692500 1.197200
27.743500 1.395400
27.794400 1.532400
27.845400 0.969000
27.896400 0.915300
27.947400 0.718900
27.998400 0.917500
28.049400 2.033200
28.100400 1.517400
28.151400 0.631700
28.202300 1.079100
28.253300 1.469000
28.304300 1.052200
28.355300 1.207700
28.406300 1.575300
28.457300 1.379100
28.508300 1.090000
28.559200 1.208100
28.610200 0.881700
28.661200 0.782600
28.712200 0.878300
28.763200 0.452200
28.814200 0.196700
28.865200 0.322800
28.916200 0.685900
28.967100 1.188500
29.018100 1.332100
29.069100 1.017200
29.120100 0.675500
29.171100 0.800300
29.222100 1.125700
29.273100 0.815700
29.324000 1.116000
29.375000 2.024000
29.426000 1.861100
29.477000 1.191700
29.528000 0.660300
29.579000 0.530000
29.630000 1.185500
29.681000 0.992100
29.731900 0.888000
29.782900 0.888900
29.833900 0.336500
29.884900 0.174000
29.935900 0.570100
29.986900 0.856500
30.037900 0.708400
30.088800 0.902400
30.139800 0.980600
30.190800 0.783500
30.241800 0.838800
30.292800 0.779000
30.343800 0.533400
30.394800 0.889400
30.445800 1.523000
30.496700 0.953800
30.547700 0.225400
30.598700 0.075200
30.649700 0.345900
30.700700 1.058400
30.751700 0.906700
30.802700 0.407300
30.853600 0.280100
30.904600 0.509900
30.955600 0.991600
31.006600 1.150100
31.057600 0.488600
31.108600 0.168100
31.159600 0.469400
31.210600 0.539900
31.261500 0.755400
31.312500 0.798300
31.363500 0.567400
31.414500 0.619500
31.465500 1.008900
31.516500 1.405300
31.567500 1.725300
31.618400 1.617600
31.669400 1.568000
31.720400 1.480400
31.771400 1.298800
31.822400 1.212200
31.873400 1.568000
31.924400 1.375600
31.975400 0.903900
32.026300 0.913400
32.077300 1.119200
32.128300 1.132500
32.179300 0.938700
32.230300 1.632500
32.281300 2.398900
32.332300 1.662800
32.383200 1.225200
32.434200 1.343100
32.485200 1.467800
32.536200 1.362400
32.587200 1.487200
32.638200 1.102900
32.689200 0.715300
32.740200 0.885700
32.791100 0.792900
32.842100 0.732000
32.893100 1.174500
32.944100 1.154500
32.995100 1.152600
33.046100 1.305500
33.097100 1.059800
33.148000 0.594000
33.199000 0.694500
33.250000 0.966600
33.301000 0.799900
33.352000 0.461700
33.403000 0.408100
33.454000 0.510900
33.505000 0.642100
33.555900 0.953400
33.606900 1.263800
33.657900 1.451400
33.708900 1.507400
33.759900 0.900600
33.810900 0.784600
33.861900 0.987400
33.912800 1.518800
33.963800 2.421500
34.014800 1.960000
34.065800 1.578500
34.116800 1.027400
34.167800 1.430400
34.218800 1.498300
34.269800 0.938900
34.320700 0.611000
34.371700 0.943900
34.422700 1.460600
34.473700 1.108100
34.524700 0.890100
34.575700 0.883200
34.626700 1.012700
34.677600 1.107300
34.728600 0.765600
34.779600 1.193100
34.830600 1.560900
34.881600 0.948300
34.932600 0.979900
34.983600 1.088600
35.034600 1.020800
35.085500 0.687300
35.136500 1.022200
35.187500 0.736200
35.238500 0.621100
35.289500 0.718300
35.340500 0.615900
35.391500 0.560000
35.442400 0.935900
35.493400 1.348100
35.544400 1.257100
35.595400 0.715300
35.646400 0.774100
35.697400 1.479000
35.748400 1.431200
35.799400 1.344500
35.850300 1.049000
35.901300 0.549100
35.952300 0.970700
36.003300 1.536600
36.054300 1.434900
36.105300 0.737600
36.156300 0.442000
36.207200 0.400900
36.258200 0.449000
36.309200 0.325700
36.360200 0.237300
36.411200 0.367400
36.462200 0.332700
36.513200 0.138600
36.564100 0.016500
36.615100 0.004800
36.666100 0.094200
36.717100 0.347500
36.768100 0.408000
36.819100 0.362500
36.870100 0.122100
36.921100 0.131000
36.972000 0.427900
37.023000 0.475800
37.074000 0.257600
37.125000 0.127600
37.176000 0.261600
37.227000 0.790100
37.278000 1.156900
37.328900 0.922100
37.379900 0.768000
37.430900 1.136300
37.481900 0.961600
37.532900 0.381300
37.583900 0.845700
37.634900 0.923400
37.685900 0.766700
37.736800 0.918500
37.787800 0.517500
37.838800 0.802500
37.889800 1.728700
37.940800 2.447000
37.991800 1.555900
38.042800 0.761900
38.093700 0.582800
38.144700 0.679900
38.195700 0.714800
38.246700 0.368400
38.297700 0.241800
38.348700 0.289900
38.399700 0.438300
38.450700 0.242000
38.501600 0.348000
38.552600 0.769400
38.603600 1.281100
38.654600 1.352800
38.705600 1.165500
38.756600 0.944700
38.807600 0.783600
38.858500 0.444400
38.909500 0.699800
38.960500 1.165600
39.011500 1.408300
39.062500 1.241000
39.113500 0.602200
39.164500 0.329700
39.215500 0.932800
39.266400 1.237100
39.317400 0.682800
39.368400 0.375300
39.419400 0.426900
39.470400 0.753800
39.521400 0.500400
39.572400 0.409100
39.623300 0.945700
39.674300 1.527100
39.725300 1.202900
39.776300 0.610000
39.827300 0.467700
39.878300 0.694200
39.929300 0.823700
39.980300 1.300800
40.031200 0.878400
40.082200 0.431700
40.133200 0.634400
40.184200 0.723700
40.235200 0.328500
40.286200 0.233100
40.337200 0.723600
40.388100 0.727500
40.439100 0.551700
40.490100 0.323100
40.541100 0.431500
40.592100 0.618800
40.643100 0.360200
40.694100 0.239300
40.745100 0.700400
40.796000 1.213300
40.847000 1.121000
40.898000 0.806800
40.949000 0.880900
41.000000 0.869900
41.051000 1.089700
41.102000 0.960700
41.152900 0.559000
41.203900 0.874800
41.254900 1.396700
41.305900 2.386600
41.356900 1.754100
41.407900 0.752400
41.458900 0.424700
41.509900 0.492500
41.560800 0.471100
41.611800 0.625700
41.662800 1.035500
41.713800 1.051200
41.764800 0.898000
41.815800 1.138500
41.866800 1.358200
41.917700 0.976100
41.968700 0.800300
42.019700 0.961500
42.070700 1.362800
42.121700 1.593300
42.172700 2.715800
42.223700 2.790400
42.274700 2.056200
42.325600 1.742700
42.376600 1.328800
42.427600 0.954800
42.478600 0.514400
42.529600 0.759900
42.580600 1.225800
42.631600 1.303200
42.682500 0.951700
42.733500 1.012600
42.784500 1.129700
42.835500 1.891800
42.886500 2.080000
42.937500 1.425600
42.988500 0.880000
43.039500 1.552500
43.090400 1.552000
43.141400 1.137300
43.192400 1.391900
43.243400 2.234800
43.294400 2.223000
43.345400 1.835200
43.396400 0.776600
43.447300 0.189900
43.498300 0.643300
43.549300 1.202300
43.600300 1.421200
43.651300 1.217300
43.702300 0.924100
43.753300 1.345900
43.804300 1.053400
43.855200 0.802900
43.906200 1.154200
43.957200 1.507400
44.008200 1.731800
44.059200 1.572300
44.110200 1.577800
44.161200 1.592500
44.212100 1.673300
44.263100 1.433000
44.314100 1.077200
44.365100 0.547400
44.416100 0.410200
44.467100 0.352200
44.518100 0.493200
44.569100 1.054300
44.620000 1.809700
44.671000 1.798400
44.722000 1.508700
44.773000 1.521800
44.824000 1.090800
44.875000 0.781800
44.926000 0.830500
44.976900 1.327500
45.027900 2.145900
45.078900 1.841500
45.129900 1.065400
45.180900 1.016900
45.231900 1.388400
45.282900 1.543300
45.333900 0.899200
45.384800 1.044100
45.435800 1.616600
45.486800 1.396300
45.537800 1.558600
45.588800 1.813500
45.639800 1.721800
45.690800 2.067900
45.741700 1.129500
45.792700 0.504900
45.843700 0.622800
45.894700 0.841500
45.945700 1.209800
45.996700 1.488000
46.047700 1.440700
46.098700 1.444700
46.149600 0.923100
46.200600 1.208000
46.251600 1.452900
46.302600 1.368200
46.353600 1.162600
46.404600 1.148700
46.455600 1.630100
46.506500 1.753600
46.557500 0.906500
46.608500 1.162200
46.659500 2.032200
46.710500 1.692500
46.761500 0.967900
46.812500 0.677600
46.863500 0.751300
46.914400 0.948500
46.965400 1.344600
47.016400 0.969400
47.067400 0.768200
47.118400 0.719600
47.169400 0.922700
47.220400 0.964300
47.271300 1.348800
47.322300 1.646600
47.373300 1.617200
47.424300 1.792900
47.475300 1.362400
47.526300 1.080700
47.577300 1.348600
47.628300 1.361900
47.679200 0.857800
47.730200 0.578800
47.781200 0.694800
47.832200 0.913300
47.883200 1.136900
47.934200 0.891100
47.985200 0.228200
48.036100 0.391300
48.087100 0.462200
48.138100 0.377000
48.189100 0.906600
48.240100 1.101600
48.291100 1.235600
48.342100 0.869900
48.393100 0.655700
48.444000 0.716000
48.495000 0.398800
48.546000 0.639700
48.597000 0.932800
48.648000 1.109700
48.699000 0.916200
48.750000 1.040100
48.800900 1.017400
48.851900 0.953500
48.902900 1.358800
48.953900 1.091500
49.004900 0.883000
49.055900 1.319600
49.106900 2.105600
49.157900 2.010000
49.208800 0.876200
49.259800 0.716700
49.310800 1.343900
49.361800 1.436100
49.412800 1.067000
49.463800 0.872000
49.514800 0.918600
49.565700 1.339400
49.616700 1.777700
49.667700 1.714200
49.718700 1.415500
49.769700 1.646000
49.820700 1.861300
49.871700 1.906500
49.922600 1.716900
49.973600 1.523600
50.024600 1.547000
50.075600 1.154100
50.126600 1.421300
50.177600 1.614600
50.228600 1.789200
50.279600 1.506100
50.330500 0.772200
50.381500 0.934100
50.432500 1.563700
50.483500 1.141300
50.534500 0.652100
50.585500 1.182400
50.636500 1.548100
50.687400 1.047100
50.738400 1.051700
50.789400 1.243900
50.840400 0.978300
50.891400 1.030600
50.942400 1.444900
50.993400 1.225600
51.044400 0.697200
51.095300 1.338800
51.146300 2.446000
51.197300 2.346700
51.248300 1.365100
51.299300 0.896400
51.350300 1.646500
51.401300 2.297900
51.452200 1.458900
51.503200 0.974600
51.554200 0.646300
51.605200 0.767400
51.656200 1.772100
51.707200 2.374200
51.758200 1.608800
51.809200 1.050600
51.860100 1.251200
51.911100 1.640600
51.962100 1.833500
52.013100 1.960100
52.064100 1.840000
52.115100 1.485400
52.166100 1.480100
52.217000 1.059900
52.268000 0.878000
52.319000 2.287700
52.370000 2.663500
52.421000 1.715500
52.472000 1.348200
52.523000 1.460100
52.574000 1.898200
52.624900 2.164900
52.675900 1.445400
52.726900 1.426300
52.777900 1.788000
52.828900 1.842400
52.879900 1.775100
52.930900 1.508400
52.981800 1.821500
53.032800 2.026900
53.083800 1.155900
53.134800 1.107200
53.185800 1.197800
53.236800 1.023800
53.287800 1.353600
53.338800 1.491200
53.389700 1.580200
53.440700 1.498400
53.491700 1.054600
53.542700 1.322000
53.593700 2.165300
53.644700 2.002500
53.695700 0.929600
53.746600 0.747000
53.797600 0.851200
53.848600 1.049800
53.899600 1.813600
53.950600 1.621400
54.001600 1.081400
54.052600 0.625500
54.103600 0.459700
54.154500 0.540700
54.205500 0.955000
54.256500 1.441200
54.307500 1.433000
54.358500 1.401400
54.409500 1.633100
54.460500 1.645100
54.511400 1.127200
54.562400 1.116300
54.613400 1.327500
54.664400 1.780500
54.715400 2.167600
54.766400 2.720100
54.817400 2.225300
54.868400 1.973800
54.919300 1.803800
54.970300 1.532500
55.021300 1.081800
55.072300 1.364700
55.123300 1.722000
55.174300 1.471500
55.225300 1.359400
55.276200 0.953100
55.327200 0.774300
55.378200 1.174400
55.429200 0.987400
55.480200 0.704200
55.531200 1.528800
55.582200 3.032600
55.633200 2.529000
55.684100 2.303300
55.735100 2.263800
55.786100 1.507400
55.837100 1.156900
55.888100 1.264300
55.939100 1.336900
55.990100 0.638700
56.041000 0.652200
56.092000 0.912800
56.143000 0.650000
56.194000 0.478500
56.245000 0.920600
56.296000 0.970500
56.347000 0.827800
56.398000 1.170600
56.448900 1.426600
56.499900 0.887300
56.550900 0.814700
56.601900 1.397900
56.652900 1.858500
56.703900 2.097900
56.754900 2.068800
56.805800 1.512400
56.856800 1.240500
56.907800 1.323700
56.958800 1.211600
57.009800 1.118400
57.060800 1.670400
57.111800 1.743900
57.162800 1.155800
57.213700 0.657400
57.264700 0.537900
57.315700 1.120700
57.366700 1.795700
57.417700 1.943000
57.468700 2.251800
57.519700 2.381700
57.570600 1.655800
57.621600 1.016000
57.672600 1.721000
57.723600 1.967000
57.774600 1.007800
57.825600 0.569800
57.876600 0.592600
57.927600 0.534500
57.978500 1.069900
58.029500 1.575100
58.080500 1.634200
58.131500 1.971300
58.182500 1.683800
58.233500 1.439600
58.284500 2.158900
58.335400 1.790800
58.386400 1.586100
58.437400 1.950100
58.488400 1.468200
58.539400 1.414300
58.590400 2.355400
58.641400 1.973900
58.692400 1.189300
58.743300 0.545000
58.794300 0.641700
58.845300 0.982700
58.896300 1.563700
58.947300 1.770800
58.998300 1.254300
59.049300 1.360000
59.100200 1.628700
59.151200 2.169600
59.202200 1.652800
59.253200 1.301900
59.304200 1.571700
59.355200 0.876200
59.406200 0.711000
59.457200 1.021600
59.508100 0.814000
59.559100 1.226900
59.610100 1.419100
59.661100 1.400800
59.712100 1.531500
59.763100 1.380900
59.814100 0.964200
59.865000 0.901400
59.916000 1.291800
59.967000 1.601600
60.018000 1.375900
60.069000 1.015100
60.120000 0.587200
60.171000 0.509600
60.222000 0.709700
60.272900 1.066900
60.323900 0.968100
60.374900 0.919800
60.425900 1.304600
60.476900 1.314600
60.527900 1.440300
60.578900 1.622900
60.629800 1.255200
60.680800 1.145200
60.731800 1.627600
60.782800 1.262600
60.833800 0.886100
60.884800 0.996700
60.935800 1.613500
60.986800 1.776900
61.037700 1.493900
61.088700 1.219300
61.139700 1.339200
61.190700 1.230700
61.241700 1.015900
61.292700 1.486400
61.343700 2.031100
61.394600 1.872300
61.445600 1.501600
61.496600 1.264500
61.547600 0.775700
61.598600 0.718100
61.649600 1.121000
61.700600 1.011600
61.751600 1.161500
61.802500 1.305700
61.853500 1.124700
61.904500 1.275600
61.955500 1.208100
62.006500 1.177600
62.057500 1.924900
62.108500 2.339700
62.159400 1.650400
62.210400 1.714700
62.261400 1.315600
62.312400 0.999800
62.363400 0.632000
62.414400 0.746300
62.465400 1.106900
62.516300 1.743300
62.567300 1.724700
62.618300 1.537900
62.669300 1.927100
62.720300 2.276500
62.771300 2.000600
62.822300 1.214500
62.873300 1.483400
62.924200 1.980400
62.975200 1.495700
63.026200 1.026600
63.077200 1.517000
63.128200 1.548700
63.179200 0.909400
63.230200 0.605600
63.281100 1.023600
63.332100 2.232100
63.383100 2.496500
63.434100 1.851600
63.485100 1.812800
63.536100 2.097500
63.587100 1.763600
63.638100 1.937800
63.689000 1.594400
63.740000 1.247900
63.791000 1.180900
63.842000 0.990800
63.893000 1.377800
63.944000 1.630900
63.995000 0.977500
64.045900 0.731100
64.096900 1.169200
64.147900 1.255600
64.198900 1.060600
64.249900 0.835700
64.300900 0.792700
64.351900 0.852200
64.402900 1.187700
64.453800 1.410500
64.504800 1.588400
64.555800 1.794100
64.606800 1.288400
64.657800 1.119400
64.708800 0.814300
64.759800 0.920100
64.810700 1.277700
64.861700 1.490400
64.912700 1.363200
64.963700 1.455700
65.014700 1.595900
65.065700 1.535600
65.116700 2.066900
65.167700 2.152600
65.218600 1.816200
65.269600 1.346500
65.320600 1.604300
65.371600 2.955600
65.422600 3.738200
65.473600 2.574300
65.524600 2.074500
65.575500 2.312400
65.626500 1.638700
65.677500 1.046000
65.728500 0.841100
65.779500 0.763500
65.830500 1.164300
65.881500 1.481900
65.932500 1.878500
65.983400 1.537800
66.034400 1.686700
66.085400 1.578700
66.136400 1.382600
66.187400 1.895900
66.238400 2.048000
66.289400 1.918500
66.340300 1.341100
66.391300 1.556600
66.442300 2.047600
66.493300 1.274900
66.544300 1.787100
66.595300 2.297100
66.646300 1.501300
66.697300 1.521800
66.748200 2.045300
66.799200 1.703900
66.850200 1.583700
66.901200 1.710600
66.952200 1.902500
67.003200 1.352000
67.054200 0.868300
67.105100 0.727800
67.156100 0.908400
67.207100 1.351500
67.258100 1.391400
67.309100 1.717500
67.360100 1.466500
67.411100 1.480400
67.462100 1.388400
67.513000 1.078000
67.564000 1.154900
67.615000 1.467400
67.666000 2.105000
67.717000 1.945900
67.768000 1.376900
67.819000 1.231100
67.869900 0.666300
67.920900 0.329800
67.971900 0.586500
68.022900 1.167600
68.073900 1.780400
68.124900 1.360400
68.175900 0.807800
68.226900 1.498300
68.277800 2.167000
68.328800 2.213300
68.379800 3.153800
68.430800 3.060900
68.481800 2.159500
68.532800 2.300800
68.583800 1.926800
68.634700 1.228500
68.685700 1.631200
68.736700 1.682700
68.787700 1.242400
68.838700 1.242900
68.889700 1.824400
68.940700 1.823500
68.991700 1.292400
69.042600 1.486300
69.093600 1.542000
69.144600 1.875800
69.195600 1.507700
69.246600 1.586000
69.297600 1.772400
69.348600 1.034600
69.399500 0.442800
69.450500 0.415200
69.501500 0.661200
69.552500 1.210800
69.603500 1.551400
69.654500 1.892000
69.705500 2.394600
69.756500 1.628500
69.807400 1.533200
69.858400 2.630300
69.909400 2.836000
69.960400 2.454300
70.011400 1.561600
70.062400 1.519100
70.113400 1.894000
70.164300 1.653700
70.215300 0.896600
70.266300 0.628100
70.317300 0.514200
70.368300 1.567100
70.419300 2.366600
70.470300 1.889000
70.521300 1.736400
70.572200 1.504400
70.623200 1.106600
70.674200 1.534200
70.725200 1.387700
70.776200 0.995800
70.827200 1.196900
70.878200 1.880800
70.929100 1.692000
70.980100 1.172400
71.031100 1.891100
71.082100 2.679800
71.133100 2.183600
71.184100 1.240500
71.235100 1.622700
71.286100 1.740200
71.337000 1.283500
71.388000 0.978600
71.439000 1.353900
71.490000 1.681500
71.541000 1.589000
71.592000 1.559900
71.643000 1.926600
71.693900 2.534500
71.744900 1.789600
71.795900 1.169200
71.846900 0.970400
71.897900 0.765200
71.948900 1.064600
71.999900 1.433900
72.050900 2.121400
72.101800 2.359000
72.152800 1.919600
72.203800 1.887000
72.254800 1.661000
72.305800 1.516800
72.356800 1.954200
72.407800 1.626700
72.458700 1.283500
72.509700 0.898300
72.560700 0.841300
72.611700 1.718200
72.662700 2.537300
72.713700 1.737200
72.764700 1.276200
72.815700 1.701700
72.866600 2.168300
72.917600 2.346500
72.968600 2.209000
73.019600 2.471600
73.070600 2.480500
73.121600 1.757100
73.172600 2.064700
73.223500 2.298100
73.274500 1.945500
73.325500 1.761200
73.376500 1.266600
73.427500 1.183000
73.478500 1.555100
73.529500 1.613000
73.580500 0.886000
73.631400 0.490400
73.682400 0.955800
73.733400 1.090400
73.784400 1.133900
73.835400 1.686100
73.886400 1.876000
73.937400 1.925400
73.988300 2.324700
74.039300 1.393100
74.090300 1.225600
74.141300 1.306700
74.192300 0.872800
74.243300 0.952600
74.294300 1.268300
74.345300 1.071200
74.396200 1.134400
74.447200 1.346600
74.498200 0.943600
74.549200 0.626700
74.600200 0.593200
74.651200 1.037900
74.702200 1.187900
74.753100 1.000800
74.804100 1.359500
74.855100 1.973100
74.906100 1.876100
74.957100 1.493300
75.008100 1.633500
75.059100 1.357900
75.110000 0.808900
75.161000 0.560200
75.212000 0.303800
75.263000 0.350200
75.314000 0.747900
75.365000 1.448200
75.416000 1.740100
75.467000 1.012500
75.517900 0.956100
75.568900 1.388200
75.619900 1.686300
75.670900 1.608400
75.721900 0.834800
75.772900 0.228500
75.823900 0.362300
75.874800 0.710100
75.925800 0.748900
75.976800 0.669600
76.027800 0.638200
76.078800 0.289200
76.129800 0.335200
76.180800 0.271500
76.231800 0.364600
76.282700 0.608200
76.333700 0.968200
76.384700 0.778200
76.435700 0.254500
76.486700 0.272900
76.537700 0.365500
76.588700 0.233700
76.639600 0.440900
76.690600 0.783700
76.741600 0.685000
76.792600 0.636300
76.843600 0.336300
76.894600 0.189000
76.945600 0.201400
76.996600 0.479900
77.047500 0.379400
77.098500 0.200100
77.149500 0.063900
77.200500 0.021800
77.251500 0.131900
77.302500 0.239200
77.353500 0.188900
77.404400 0.047200
77.455400 0.003000
77.506400 0.027300
77.557400 0.141200
77.608400 0.125500
77.659400 0.040000
77.710400 0.199800
77.761400 0.321300
77.812300 0.157600
77.863300 0.196300
77.914300 0.285500
77.965300 0.309900
78.016300 0.074800
78.067300 0.008500
78.118300 0.033100
78.169200 0.033700
78.220200 0.005900
78.271200 0.000200
78.322200 0.000200
78.373200 0.008300
78.424200 0.080400
78.475200 0.192400
78.526200 0.165300
78.577100 0.150800
78.628100 0.153200
78.679100 0.081400
78.730100 0.302300
78.781100 0.440900
78.832100 0.272400
78.883100 0.205800
78.934000 0.125600
78.985000 0.017600
79.036000 0.012300
79.087000 0.097500
79.138000 0.166800
79.189000 0.110400
79.240000 0.064800
79.291000 0.018000
79.341900 0.001100
79.392900 0.000000
79.443900 0.000000
79.494900 0.000200
79.545900 0.006000
79.596900 0.034000
79.647900 0.032700
79.698800 0.005400
79.749800 0.000100
79.800800 0.000000
79.851800 0.000000
79.902800 0.000000
79.953800 0.000000
80.004800 0.002400
80.055800 0.024100
80.106700 0.039900
80.157700 0.011500
80.208700 0.000500
80.259700 0.000000
80.310700 0.000300
80.361700 0.008000
80.412700 0.041700
80.463600 0.061200
80.514600 0.038900
80.565600 0.011100
80.616600 0.030800
80.667600 0.035900
80.718600 0.007200
80.769600 0.000200
80.820600 0.000000
80.871500 0.000000
80.922500 0.000000
80.973500 0.000000
81.024500 0.000000
81.075500 0.000000
81.126500 0.000000
81.177500 0.000000
81.228400 0.000000
81.279400 0.000000
81.330400 0.000000
81.381400 0.000000
81.432400 0.000000
81.483400 0.000000
81.534400 0.000000
81.585400 0.000000
81.636300 0.000000
81.687300 0.000000
81.738300 0.000000
81.789300 0.000000
81.840300 0.000000
81.891300 0.000000
81.942300 0.000000
81.993200 0.000000
82.044200 0.000000
82.095200 0.000000
82.146200 0.000000
82.197200 0.000000
82.248200 0.000000
82.299200 0.000000
82.350200 0.000000
82.401100 0.000000
82.452100 0.000000
82.503100 0.000000
82.554100 0.000000
82.605100 0.000000
82.656100 0.000000
82.707100 0.000000
82.758000 0.000000
82.809000 0.000000
82.860000 0.000000
82.911000 0.000000
82.962000 0.000000
83.013000 0.000000
83.064000 0.000000
83.115000 0.000000
83.165900 0.000000
83.216900 0.000000
83.267900 0.000000
83.318900 0.000000
83.369900 0.000000
83.420900 0.000000
83.471900 0.000000
83.522800 0.000000
83.573800 0.000000
83.624800 0.000000
83.675800 0.000000
83.726800 0.000000
83.777800 0.000000
83.828800 0.000000
83.879800 0.000000
83.930700 0.000000
83.981700 0.000000
84.032700 0.000000
84.083700 0.000000
84.134700 0.000000
84.185700 0.000000
84.236700 0.000000
84.287600 0.000000
84.338600 0.000000
84.389600 0.000000
84.440600 0.000000
84.491600 0.000000
84.542600 0.000000
84.593600 0.000000
84.644600 0.000000
84.695500 0.000000
84.746500 0.000000
84.797500 0.000000
84.848500 0.000000
84.899500 0.000000
84.950500 0.000000
85.001500 0.000000
85.052400 0.000000
85.103400 0.000000
85.154400 0.000000
85.205400 0.000000
85.256400 0.000000
e
