set title 'mp-1078935 - Density of States'
set xlabel 'Energy (eV)'
set ylabel 'DOS (states/eV)'
set grid
set xrange [-10:10]
set yrange [0:3.412]
set xzeroaxis lt -1
set terminal png size 800,600
set output 'mp-1078935_dos_gnuplot.png'
plot '-' using 1:2 with lines title 'DOS'
-14.848800 0.000000
-14.818500 0.000000
-14.788100 0.000000
-14.757800 0.000000
-14.727400 0.000000
-14.697100 0.000000
-14.666800 0.000000
-14.636400 0.000000
-14.606100 0.000000
-14.575700 0.000000
-14.545400 0.000000
-14.515100 0.000000
-14.484700 0.000000
-14.454400 0.000000
-14.424000 0.000000
-14.393700 0.000000
-14.363400 0.000000
-14.333000 0.000000
-14.302700 0.000000
-14.272300 0.000000
-14.242000 0.000000
-14.211700 0.000000
-14.181300 0.000000
-14.151000 0.000000
-14.120700 0.000000
-14.090300 0.000000
-14.060000 0.000000
-14.029600 0.000000
-13.999300 0.000000
-13.969000 0.000000
-13.938600 0.000000
-13.908300 0.000000
-13.877900 0.000000
-13.847600 0.000000
-13.817300 0.000000
-13.786900 0.000000
-13.756600 0.000000
-13.726200 0.000000
-13.695900 0.000000
-13.665600 0.000000
-13.635200 0.000000
-13.604900 0.000000
-13.574500 0.000000
-13.544200 0.000000
-13.513900 0.000000
-13.483500 0.000000
-13.453200 0.000000
-13.422900 0.000000
-13.392500 0.000000
-13.362200 0.000000
-13.331800 0.000000
-13.301500 0.000000
-13.271200 0.000000
-13.240800 0.000000
-13.210500 0.000000
-13.180100 0.000000
-13.149800 0.000000
-13.119500 0.000000
-13.089100 0.000000
-13.058800 0.000000
-13.028400 0.000000
-12.998100 0.000000
-12.967800 0.000000
-12.937400 0.000000
-12.907100 0.000000
-12.876700 0.000000
-12.846400 0.000000
-12.816100 0.000000
-12.785700 0.000000
-12.755400 0.000000
-12.725000 0.000000
-12.694700 0.000000
-12.664400 0.000000
-12.634000 0.000000
-12.603700 0.000000
-12.573400 0.000000
-12.543000 0.000000
-12.512700 0.000000
-12.482300 0.000000
-12.452000 0.000000
-12.421700 0.000000
-12.391300 0.000000
-12.361000 0.000000
-12.330600 0.000000
-12.300300 0.000000
-12.270000 0.000000
-12.239600 0.000000
-12.209300 0.000000
-12.178900 0.000000
-12.148600 0.000000
-12.118300 0.000000
-12.087900 0.000500
-12.057600 0.069000
-12.027200 0.192800
-11.996900 0.277500
-11.966600 0.341800
-11.936200 0.334600
-11.905900 0.328900
-11.875600 0.353300
-11.845200 0.357200
-11.814900 0.350200
-11.784500 0.336500
-11.754200 0.328200
-11.723900 0.333100
-11.693500 0.338900
-11.663200 0.345300
-11.632800 0.353200
-11.602500 0.355400
-11.572200 0.351100
-11.541800 0.345000
-11.511500 0.337500
-11.481100 0.336200
-11.450800 0.336900
-11.420500 0.337600
-11.390100 0.339600
-11.359800 0.342500
-11.329400 0.346700
-11.299100 0.351300
-11.268800 0.355400
-11.238400 0.354300
-11.208100 0.350300
-11.177700 0.344900
-11.147400 0.340700
-11.117100 0.340000
-11.086700 0.339800
-11.056400 0.340100
-11.026100 0.341000
-10.995700 0.342400
-10.965400 0.344500
-10.935000 0.346600
-10.904700 0.348800
-10.874400 0.350900
-10.844000 0.353000
-10.813700 0.354800
-10.783300 0.353400
-10.753000 0.350700
-10.722700 0.347300
-10.692300 0.345000
-10.662000 0.344600
-10.631600 0.344200
-10.601300 0.344000
-10.571000 0.348800
-10.540600 0.379500
-10.510300 0.422800
-10.479900 0.456300
-10.449600 0.476900
-10.419300 0.490500
-10.388900 0.511900
-10.358600 0.534100
-10.328300 0.550600
-10.297900 0.565100
-10.267600 0.579800
-10.237200 0.599900
-10.206900 0.626800
-10.176600 0.652300
-10.146200 0.677700
-10.115900 0.701100
-10.085500 0.704100
-10.055200 0.699500
-10.024900 0.700300
-9.994500 0.701400
-9.964200 0.701300
-9.933800 0.699400
-9.903500 0.699000
-9.873200 0.702000
-9.842800 0.705800
-9.812500 0.709600
-9.782100 0.712800
-9.751800 0.714000
-9.721500 0.713600
-9.691100 0.712000
-9.660800 0.711200
-9.630500 0.712300
-9.600100 0.712300
-9.569800 0.711600
-9.539400 0.710800
-9.509100 0.710800
-9.478800 0.712000
-9.448400 0.712900
-9.418100 0.713400
-9.387700 0.713800
-9.357400 0.714200
-9.327100 0.714300
-9.296700 0.714600
-9.266400 0.714800
-9.236000 0.715300
-9.205700 0.716200
-9.175400 0.717300
-9.145000 0.718600
-9.114700 0.719900
-9.084300 0.721400
-9.054000 0.722900
-9.023700 0.724300
-8.993300 0.725500
-8.963000 0.726500
-8.932600 0.727500
-8.902300 0.728300
-8.872000 0.728700
-8.841600 0.729000
-8.811300 0.729200
-8.781000 0.729300
-8.750600 0.729700
-8.720300 0.730000
-8.689900 0.730700
-8.659600 0.731500
-8.629300 0.732400
-8.598900 0.733400
-8.568600 0.734500
-8.538200 0.738600
-8.507900 0.753800
-8.477600 0.771100
-8.447200 0.785300
-8.416900 0.800100
-8.386500 0.816400
-8.356200 0.834200
-8.325900 0.851200
-8.295500 0.866200
-8.265200 0.876000
-8.234800 0.883600
-8.204500 0.893300
-8.174200 0.903000
-8.143800 0.912300
-8.113500 1.041000
-8.083200 1.160200
-8.052800 1.179600
-8.022500 1.153500
-7.992100 1.036400
-7.961800 1.033900
-7.931500 1.027900
-7.901100 1.002900
-7.870800 0.987300
-7.840400 0.971800
-7.810100 0.975300
-7.779800 0.978900
-7.749400 0.983600
-7.719100 0.990600
-7.688700 0.995500
-7.658400 0.992200
-7.628100 0.992800
-7.597700 0.994400
-7.567400 1.007700
-7.537000 1.026800
-7.506700 1.049100
-7.476400 1.075000
-7.446000 1.104100
-7.415700 1.135700
-7.385300 1.163100
-7.355000 1.186500
-7.324700 1.372000
-7.294300 1.751300
-7.264000 1.677000
-7.233700 1.435200
-7.203300 1.319400
-7.173000 1.292600
-7.142600 1.263000
-7.112300 1.182600
-7.082000 1.126200
-7.051600 1.111000
-7.021300 1.100200
-6.990900 1.089200
-6.960600 1.117100
-6.930300 1.176400
-6.899900 1.186100
-6.869600 1.154100
-6.839200 1.148300
-6.808900 1.171500
-6.778600 1.194200
-6.748200 1.228800
-6.717900 1.297300
-6.687500 1.360200
-6.657200 1.353100
-6.626900 1.356900
-6.596500 1.378200
-6.566200 1.396700
-6.535900 1.436100
-6.505500 1.462300
-6.475200 1.447700
-6.444800 1.451200
-6.414500 1.448700
-6.384200 1.430700
-6.353800 1.395700
-6.323500 1.364800
-6.293100 1.348100
-6.262800 1.332300
-6.232500 1.317200
-6.202100 1.300900
-6.171800 1.285100
-6.141400 1.264600
-6.111100 1.237200
-6.080800 1.215900
-6.050400 1.200300
-6.020100 1.188200
-5.989700 1.154900
-5.959400 1.102000
-5.929100 1.047000
-5.898700 1.007500
-5.868400 0.977100
-5.838100 0.952600
-5.807700 0.934100
-5.777400 0.913500
-5.747000 0.897700
-5.716700 0.883700
-5.686400 0.872500
-5.656000 0.860900
-5.625700 0.846200
-5.595300 0.831700
-5.565000 0.822900
-5.534700 0.817200
-5.504300 0.812600
-5.474000 0.808500
-5.443600 0.804600
-5.413300 0.800500
-5.383000 0.794600
-5.352600 0.786600
-5.322300 0.778400
-5.291900 0.771500
-5.261600 0.764900
-5.231300 0.759100
-5.200900 0.753700
-5.170600 0.748900
-5.140200 0.858900
-5.109900 0.927000
-5.079600 0.938700
-5.049200 1.047800
-5.018900 1.271000
-4.988600 1.483900
-4.958200 1.329600
-4.927900 1.267800
-4.897500 1.287200
-4.867200 1.295700
-4.836900 1.285200
-4.806500 1.275300
-4.776200 1.310000
-4.745800 1.344400
-4.715500 1.360300
-4.685200 1.372700
-4.654800 1.381800
-4.624500 1.382500
-4.594100 1.404000
-4.563800 1.462600
-4.533500 1.459100
-4.503100 1.454200
-4.472800 1.457500
-4.442400 1.452600
-4.412100 1.433000
-4.381800 1.411200
-4.351400 1.487300
-4.321100 1.380900
-4.290800 1.275900
-4.260400 1.258800
-4.230100 1.246500
-4.199700 1.243400
-4.169400 1.233600
-4.139100 1.206700
-4.108700 1.189900
-4.078400 1.180600
-4.048000 1.183000
-4.017700 1.182500
-3.987400 1.180100
-3.957000 1.176800
-3.926700 1.182100
-3.896300 1.199800
-3.866000 1.167100
-3.835700 1.143200
-3.805300 1.122500
-3.775000 1.104700
-3.744600 1.082800
-3.714300 1.056600
-3.684000 1.031200
-3.653600 1.131100
-3.623300 1.097900
-3.593000 1.067600
-3.562600 1.135900
-3.532300 1.004300
-3.501900 1.011200
-3.471600 1.022800
-3.441300 1.031100
-3.410900 1.039200
-3.380600 1.047000
-3.350200 1.065900
-3.319900 1.105400
-3.289600 1.278000
-3.259200 1.343800
-3.228900 1.517200
-3.198500 1.610000
-3.168200 1.519500
-3.137900 1.423600
-3.107500 1.247800
-3.077200 1.080900
-3.046800 1.013500
-3.016500 0.983800
-2.986200 0.972300
-2.955800 0.946400
-2.925500 0.916500
-2.895100 0.888600
-2.864800 0.863000
-2.834500 0.963800
-2.804100 0.893200
-2.773800 0.848100
-2.743500 0.835500
-2.713100 0.869000
-2.682800 0.902800
-2.652400 0.910700
-2.622100 0.941800
-2.591800 0.979200
-2.561400 1.035900
-2.531100 1.079500
-2.500700 1.120700
-2.470400 1.167000
-2.440100 1.237500
-2.409700 1.358600
-2.379400 1.563100
-2.349000 1.699700
-2.318700 2.120100
-2.288400 2.257700
-2.258000 2.330400
-2.227700 2.520400
-2.197300 2.367600
-2.167000 2.230900
-2.136700 2.220600
-2.106300 2.132300
-2.076000 2.125100
-2.045700 2.155900
-2.015300 2.281700
-1.985000 2.173300
-1.954600 2.158400
-1.924300 2.133300
-1.894000 2.110700
-1.863600 2.129800
-1.833300 2.186100
-1.802900 2.148400
-1.772600 2.064600
-1.742300 1.966800
-1.711900 1.802700
-1.681600 1.676200
-1.651200 1.532100
-1.620900 1.508900
-1.590600 1.497400
-1.560200 1.488300
-1.529900 1.481600
-1.499500 1.495900
-1.469200 1.511100
-1.438900 1.520500
-1.408500 1.513300
-1.378200 1.497500
-1.347800 1.472800
-1.317500 1.449200
-1.287200 1.462200
-1.256800 1.441800
-1.226500 1.367300
-1.196200 1.306000
-1.165800 1.243300
-1.135500 1.196000
-1.105100 1.173300
-1.074800 1.151700
-1.044500 1.130500
-1.014100 1.112300
-0.983800 1.097500
-0.953400 1.092800
-0.923100 1.096100
-0.892800 1.092800
-0.862400 1.073400
-0.832100 1.077500
-0.801700 1.086800
-0.771400 1.100600
-0.741100 1.119100
-0.710700 1.144700
-0.680400 1.187100
-0.650000 1.241600
-0.619700 1.300200
-0.589400 1.334700
-0.559000 1.372900
-0.528700 1.406500
-0.498400 1.449300
-0.468000 1.488100
-0.437700 1.508000
-0.407300 1.519000
-0.377000 1.486600
-0.346700 1.475300
-0.316300 1.459200
-0.286000 1.438000
-0.255600 1.417500
-0.225300 1.396200
-0.195000 1.374500
-0.164600 1.351700
-0.134300 1.292500
-0.103900 1.270700
-0.073600 1.254700
-0.043300 1.255200
-0.012900 1.256800
0.017400 1.271500
0.047800 1.289400
0.078100 1.286900
0.108400 1.250300
0.138800 1.203200
0.169100 1.217000
0.199400 1.256400
0.229800 1.307800
0.260100 1.493800
0.290500 1.537300
0.320800 1.533600
0.351100 1.626500
0.381500 1.705400
0.411800 1.687600
0.442200 1.637400
0.472500 1.665100
0.502800 1.695200
0.533200 1.732600
0.563500 1.788300
0.593900 1.841900
0.624200 1.936900
0.654500 2.101800
0.684900 2.298900
0.715200 2.647000
0.745600 2.780600
0.775900 2.895700
0.806200 2.686200
0.836600 2.540300
0.866900 2.755900
0.897300 2.274400
0.927600 2.232200
0.957900 2.173000
0.988300 2.111500
1.018600 2.059800
1.048900 2.030500
1.079300 2.018700
1.109600 1.995600
1.140000 1.975100
1.170300 1.957400
1.200600 1.973700
1.231000 1.970900
1.261300 1.950900
1.291700 1.938800
1.322000 1.916600
1.352300 2.003100
1.382700 2.057700
1.413000 2.122500
1.443400 2.136400
1.473700 2.031600
1.504000 2.059700
1.534400 2.033300
1.564700 2.066000
1.595100 2.053200
1.625400 1.985000
1.655700 1.970500
1.686100 2.023400
1.716400 1.966200
1.746700 2.000700
1.777100 2.089600
1.807400 2.163300
1.837800 2.211800
1.868100 2.113100
1.898400 2.155000
1.928800 2.174900
1.959100 2.164100
1.989500 2.180900
2.019800 2.236900
2.050100 2.230200
2.080500 2.246800
2.110800 2.289800
2.141200 2.314300
2.171500 2.373700
2.201800 2.382500
2.232200 2.342200
2.262500 2.362200
2.292900 2.385800
2.323200 2.382900
2.353500 2.371300
2.383900 2.520600
2.414200 2.886300
2.444500 2.684100
2.474900 2.746000
2.505200 2.806800
2.535600 2.876400
2.565900 2.768100
2.596200 2.805700
2.626600 2.737900
2.656900 2.714000
2.687300 2.697800
2.717600 2.698100
2.747900 2.716900
2.778300 2.689900
2.808600 2.751900
2.839000 2.724900
2.869300 2.711700
2.899600 2.698500
2.930000 2.712300
2.960300 2.690800
2.990700 2.718700
3.021000 2.680500
3.051300 2.725300
3.081700 2.742200
3.112000 2.759300
3.142400 2.847400
3.172700 2.816000
3.203000 2.957100
3.233400 2.859900
3.263700 2.701700
3.294000 2.580000
3.324400 2.512500
3.354700 2.484100
3.385100 2.498500
3.415400 2.594100
3.445700 2.771900
3.476100 2.811300
3.506400 2.976900
3.536800 2.996200
3.567100 2.988000
3.597400 2.816000
3.627800 2.804600
3.658100 2.837600
3.688500 2.781400
3.718800 2.753000
3.749100 2.738200
3.779500 2.761200
3.809800 2.799100
3.840200 2.807900
3.870500 2.799300
3.900800 2.809400
3.931200 2.839000
3.961500 2.860000
3.991800 2.936400
4.022200 3.008700
4.052500 3.068000
4.082900 3.094400
4.113200 3.045400
4.143500 3.021200
4.173900 2.991100
4.204200 2.978500
4.234600 2.957400
4.264900 3.002300
4.295200 3.007100
4.325600 2.975600
4.355900 2.925000
4.386300 2.936000
4.416600 2.945200
4.446900 2.942900
4.477300 2.918100
4.507600 2.880700
4.538000 2.873100
4.568300 2.853900
4.598600 2.822800
4.629000 2.793000
4.659300 2.794900
4.689700 2.800200
4.720000 2.835800
4.750300 2.862800
4.780700 2.884500
4.811000 2.931900
4.841300 3.015600
4.871700 3.031100
4.902000 3.101600
4.932400 2.931800
4.962700 2.869000
4.993000 2.824900
5.023400 2.821300
5.053700 2.891500
5.084100 2.965100
5.114400 2.970100
5.144700 2.967500
5.175100 2.969100
5.205400 2.959100
5.235800 2.926400
5.266100 2.884400
5.296400 2.837500
5.326800 2.803000
5.357100 2.755500
5.387500 2.725500
5.417800 2.701000
5.448100 2.705500
5.478500 2.722700
5.508800 2.758200
5.539100 2.781800
5.569500 2.802900
5.599800 2.860100
5.630200 2.842100
5.660500 2.763200
5.690800 2.720800
5.721200 2.724400
5.751500 2.704500
5.781900 2.692100
5.812200 2.671000
5.842500 2.673100
5.872900 2.697900
5.903200 2.696900
5.933600 2.668400
5.963900 2.626000
5.994200 2.571700
6.024600 2.528200
6.054900 2.496100
6.085300 2.457500
6.115600 2.421800
6.145900 2.377600
6.176300 2.314100
6.206600 2.260300
6.236900 2.242800
6.267300 2.185900
6.297600 2.144200
6.328000 2.147000
6.358300 2.181100
6.388600 2.233300
6.419000 2.325300
6.449300 2.341000
6.479700 2.296600
6.510000 2.251300
6.540300 2.220300
6.570700 2.202300
6.601000 2.189600
6.631400 2.154800
6.661700 2.101600
6.692000 2.058100
6.722400 2.049500
6.752700 1.965500
6.783100 1.905000
6.813400 1.824300
6.843700 1.737500
6.874100 1.657100
6.904400 1.591700
6.934800 1.536600
6.965100 1.488300
6.995400 1.439000
7.025800 1.407400
7.056100 1.327400
7.086400 1.250200
7.116800 1.188700
7.147100 1.116900
7.177500 1.063300
7.207800 1.038700
7.238100 1.019500
7.268500 0.997000
7.298800 0.979600
7.329200 0.962500
7.359500 0.934900
7.389800 0.908100
7.420200 0.889800
7.450500 0.873000
7.480900 0.862700
7.511200 0.862100
7.541500 0.851800
7.571900 0.841400
7.602200 0.827400
7.632600 0.816100
7.662900 0.810800
7.693200 0.807600
7.723600 0.804900
7.753900 0.803300
7.784200 0.801900
7.814600 0.801200
7.844900 0.827300
7.875300 0.841300
7.905600 0.844900
7.935900 0.803100
7.966300 0.753000
7.996600 0.726000
8.027000 0.703000
8.057300 0.683400
8.087600 0.669000
8.118000 0.657800
8.148300 0.649100
8.178700 0.643800
8.209000 0.640400
8.239300 0.625900
8.269700 0.619800
8.300000 0.616400
8.330400 0.614200
8.360700 0.611400
8.391000 0.607700
8.421400 0.603400
8.451700 0.599100
8.482100 0.595600
8.512400 0.592800
8.542700 0.590500
8.573100 0.588800
8.603400 0.587300
8.633700 0.582900
8.664100 0.579100
8.694400 0.574800
8.724800 0.570000
8.755100 0.564500
8.785400 0.583000
8.815800 0.589700
8.846100 0.595800
8.876500 0.601900
8.906800 0.608300
8.937100 0.615900
8.967500 0.624900
8.997800 0.635200
9.028200 0.644700
9.058500 0.654700
9.088800 0.665100
9.119200 0.674500
9.149500 0.679000
9.179900 0.677600
9.210200 0.693100
9.240500 0.699000
9.270900 0.704600
9.301200 0.714800
9.331500 0.729700
9.361900 0.736800
9.392200 0.742600
9.422600 0.853300
9.452900 0.981200
9.483200 1.190300
9.513600 1.438900
9.543900 1.554600
9.574300 1.584700
9.604600 1.570300
9.634900 1.549600
9.665300 1.357400
9.695600 1.055300
9.726000 0.772700
9.756300 0.616000
9.786600 0.534100
9.817000 0.475800
9.847300 0.433800
9.877700 0.398500
9.908000 0.359900
9.938300 0.312500
9.968700 0.270400
9.999000 0.231800
10.029300 0.189000
10.059700 0.150900
10.090000 0.114100
10.120400 0.081900
10.150700 0.054400
10.181000 0.031600
10.211400 0.015500
10.241700 0.000000
10.272100 0.000000
10.302400 0.000000
10.332700 0.000000
10.363100 0.000000
10.393400 0.000000
10.423800 0.000000
10.454100 0.000000
10.484400 0.000000
10.514800 0.000000
10.545100 0.000000
10.575500 0.000000
10.605800 0.000000
10.636100 0.000000
10.666500 0.000000
10.696800 0.000000
10.727200 0.000000
10.757500 0.000000
10.787800 0.000000
10.818200 0.000000
10.848500 0.000000
10.878800 0.000000
10.909200 0.000000
10.939500 0.000000
10.969900 0.000000
11.000200 0.000000
11.030500 0.000000
11.060900 0.000000
11.091200 0.000000
11.121600 0.000000
11.151900 0.000000
11.182200 0.000000
11.212600 0.000000
11.242900 0.000000
11.273300 0.000000
11.303600 0.000000
11.333900 0.000000
11.364300 0.000000
11.394600 0.000000
11.425000 0.000000
11.455300 0.000000
11.485600 0.000000
11.516000 0.000000
11.546300 0.000000
11.576600 0.000000
11.607000 0.000000
11.637300 0.000000
11.667700 0.000000
11.698000 0.000000
11.728300 0.000000
11.758700 0.000000
11.789000 0.000000
11.819400 0.000000
11.849700 0.000000
11.880000 0.000000
11.910400 0.000000
11.940700 0.000000
11.971100 0.000000
12.001400 0.000000
12.031700 0.000000
12.062100 0.000000
12.092400 0.000000
12.122800 0.000000
12.153100 0.000000
12.183400 0.000000
12.213800 0.000000
12.244100 0.000000
12.274400 0.000000
12.304800 0.000000
12.335100 0.000000
12.365500 0.000000
12.395800 0.000000
12.426100 0.000000
12.456500 0.000000
12.486800 0.000000
12.517200 0.000000
12.547500 0.000000
12.577800 0.000000
12.608200 0.000000
12.638500 0.000000
12.668900 0.000000
12.699200 0.000000
12.729500 0.000000
12.759900 0.000000
12.790200 0.000000
12.820600 0.000000
12.850900 0.000000
12.881200 0.000000
12.911600 0.000000
12.941900 0.000000
12.972300 0.000000
13.002600 0.000000
13.032900 0.000000
13.063300 0.000000
13.093600 0.000000
13.123900 0.000000
13.154300 0.000000
13.184600 0.014700
13.215000 0.045200
13.245300 0.088300
13.275600 0.125500
13.306000 0.166900
13.336300 0.272700
13.366700 0.322100
13.397000 0.352800
13.427300 0.361900
13.457700 0.372000
13.488000 0.377300
13.518400 0.393800
13.548700 0.419600
13.579000 0.455100
13.609400 0.506500
13.639700 0.559600
13.670100 0.599100
13.700400 0.628000
13.730700 0.656800
13.761100 0.696700
13.791400 0.732900
13.821700 0.764900
13.852100 0.800900
13.882400 0.833400
13.912800 0.871500
13.943100 0.902700
13.973400 0.934300
14.003800 0.975200
14.034100 1.034600
14.064500 1.078100
14.094800 0.994400
14.125100 0.988800
14.155500 0.987700
14.185800 0.992900
14.216200 1.000800
14.246500 1.060500
14.276800 1.062900
14.307200 1.052500
14.337500 1.052000
14.367900 1.075700
14.398200 1.105500
14.428500 1.140900
14.458900 1.179200
14.489200 1.220700
14.519600 1.264400
14.549900 1.309900
14.580200 1.370100
14.610600 1.457300
14.640900 1.451400
14.671200 1.463500
14.701600 1.469600
14.731900 1.482400
14.762300 1.494700
14.792600 1.440100
14.822900 1.420200
14.853300 1.415100
14.883600 1.424600
14.914000 1.451400
14.944300 1.481200
14.974600 1.515600
15.005000 1.560300
15.035300 1.613200
15.065700 1.675200
15.096000 1.734400
15.126300 1.800800
15.156700 1.867900
15.187000 1.930900
15.217400 1.996400
15.247700 2.064600
15.278000 2.136000
15.308400 2.187500
15.338700 2.219300
15.369000 2.234200
15.399400 2.248200
15.429700 2.247200
15.460100 2.248400
15.490400 2.236100
15.520700 2.215300
15.551100 2.202900
15.581400 2.203900
15.611800 2.208300
15.642100 2.228800
15.672400 2.248900
15.702800 2.269100
15.733100 2.299700
15.763500 2.336200
15.793800 2.380800
15.824100 2.403500
15.854500 2.393200
15.884800 2.426700
15.915200 2.456500
15.945500 2.456300
15.975800 2.498500
16.006200 2.561700
16.036500 2.637400
16.066800 2.722200
16.097200 2.738900
16.127500 2.813700
16.157900 2.889000
16.188200 2.885400
16.218500 2.926100
16.248900 2.976600
16.279200 3.024600
16.309600 3.104900
16.339900 3.309600
16.370200 3.421000
16.400600 3.260100
16.430900 3.161500
16.461300 3.252200
16.491600 3.244900
16.521900 3.335400
16.552300 3.352900
16.582600 3.349000
16.613000 3.352600
16.643300 3.382500
16.673600 3.425700
16.704000 3.486900
16.734300 3.521700
16.764700 3.398300
16.795000 3.307000
16.825300 3.301500
16.855700 3.292400
16.886000 3.297600
16.916300 3.312400
16.946700 3.344900
16.977000 3.396800
17.007400 3.468500
17.037700 3.484700
17.068000 3.544500
17.098400 3.594000
17.128700 3.647400
17.159100 3.686700
17.189400 3.751100
17.219700 3.653500
17.250100 3.667700
17.280400 3.696500
17.310800 4.263800
17.341100 3.532300
17.371400 3.277800
17.401800 3.216100
17.432100 3.406000
17.462500 3.496000
17.492800 3.537400
17.523100 3.749400
17.553500 3.885400
17.583800 3.942000
17.614100 3.701500
17.644500 3.457400
17.674800 3.452400
17.705200 3.486300
17.735500 3.567200
17.765800 3.697000
17.796200 3.728500
17.826500 3.704100
17.856900 3.606800
17.887200 3.501700
17.917500 3.516300
17.947900 3.598700
17.978200 3.896500
18.008600 4.108700
18.038900 3.988700
18.069200 3.812000
18.099600 3.576900
18.129900 3.505300
18.160300 3.534200
18.190600 3.584800
18.220900 3.597800
18.251300 3.501800
18.281600 3.372500
18.311900 3.284900
18.342300 3.166800
18.372600 3.099600
18.403000 3.076100
18.433300 3.053000
18.463600 3.010500
18.494000 2.994700
18.524300 3.016900
18.554700 2.989500
18.585000 2.940200
18.615300 2.969700
18.645700 3.019300
18.676000 3.056900
18.706400 3.065100
18.736700 3.125700
18.767000 3.210700
18.797400 3.264200
18.827700 3.305100
18.858100 3.373800
18.888400 3.447400
18.918700 3.490700
18.949100 3.455100
18.979400 3.365000
19.009800 3.250000
19.040100 3.150600
19.070400 3.043800
19.100800 2.998300
19.131100 2.995400
19.161400 3.017900
19.191800 3.107500
19.222100 3.247200
19.252500 3.273400
19.282800 3.237600
19.313100 3.175400
19.343500 3.130400
19.373800 3.069400
19.404200 3.020700
19.434500 2.964900
19.464800 2.903200
19.495200 2.892900
19.525500 2.850300
19.555900 2.800700
19.586200 2.788500
19.616500 2.792200
19.646900 2.818000
19.677200 2.870400
19.707600 2.820500
19.737900 2.795700
19.768200 2.713000
19.798600 2.679300
19.828900 2.646600
19.859200 2.621600
19.889600 2.602500
19.919900 2.585800
19.950300 2.568700
19.980600 2.525900
20.010900 2.474000
20.041300 2.461000
20.071600 2.542600
20.102000 2.587400
20.132300 2.570100
20.162600 2.582100
20.193000 2.599200
20.223300 2.627000
20.253700 2.623300
20.284000 2.531300
20.314300 2.495400
20.344700 2.489000
20.375000 2.542600
20.405400 2.600800
20.435700 2.614900
20.466000 2.565300
20.496400 2.541900
20.526700 2.510300
20.557100 2.457700
20.587400 2.452900
20.617700 2.414600
20.648100 2.442800
20.678400 2.483200
20.708700 2.538200
20.739100 2.585900
20.769400 2.545200
20.799800 2.497100
20.830100 2.459400
20.860400 2.462900
20.890800 2.540900
20.921100 2.702000
20.951500 2.872800
20.981800 2.923500
21.012100 2.978200
21.042500 2.971000
21.072800 2.949500
21.103200 2.879500
21.133500 2.838000
21.163800 2.840900
21.194200 2.827600
21.224500 2.780800
21.254900 2.752700
21.285200 2.710700
21.315500 2.686600
21.345900 2.702400
21.376200 2.770100
21.406500 2.816700
21.436900 2.865200
21.467200 2.888600
21.497600 2.947800
21.527900 2.978100
21.558200 3.075500
21.588600 3.181700
21.618900 3.248800
21.649300 3.285500
21.679600 3.291300
21.709900 3.290200
21.740300 3.287300
21.770600 3.253000
21.801000 3.281900
21.831300 3.306900
21.861600 3.295600
21.892000 3.273700
21.922300 3.221700
21.952700 3.173500
21.983000 3.154600
22.013300 3.180500
22.043700 3.241400
22.074000 3.399200
22.104300 3.396800
22.134700 3.316500
22.165000 3.236600
22.195400 3.155100
22.225700 3.009900
22.256000 2.916100
22.286400 2.861500
22.316700 2.834400
22.347100 2.748800
22.377400 2.589400
22.407700 2.495800
22.438100 2.516800
22.468400 2.594000
22.498800 2.731300
22.529100 2.844400
22.559400 2.901200
22.589800 3.016900
22.620100 2.992100
22.650500 2.979000
22.680800 2.937700
22.711100 2.917700
22.741500 2.901100
22.771800 2.863300
22.802200 2.887500
22.832500 2.886000
22.862800 2.961500
22.893200 3.079300
22.923500 3.276900
22.953800 3.529600
22.984200 3.690100
23.014500 3.618100
23.044900 3.607800
23.075200 3.631200
23.105500 3.686100
23.135900 3.716300
23.166200 3.720600
23.196600 3.680400
23.226900 3.605400
23.257200 3.493400
23.287600 3.387400
23.317900 3.401600
23.348300 3.567100
23.378600 3.706400
23.408900 3.818800
23.439300 3.900900
23.469600 3.832700
23.500000 3.883800
23.530300 4.095600
23.560600 4.085700
23.591000 4.124900
23.621300 3.963500
23.651600 3.629200
23.682000 3.172400
23.712300 2.884000
23.742700 2.683000
23.773000 2.501100
23.803300 2.306500
23.833700 2.159000
23.864000 2.110200
23.894400 2.020200
23.924700 1.915400
23.955000 1.826000
23.985400 1.714400
24.015700 1.672100
24.046100 1.702700
24.076400 1.750700
24.106700 1.785300
24.137100 1.841600
24.167400 1.893300
24.197800 1.970100
24.228100 2.070600
24.258400 2.182000
24.288800 2.375400
24.319100 2.341200
24.349500 2.521900
24.379800 2.743100
24.410100 3.070400
24.440500 3.534800
24.470800 3.626200
24.501100 3.599800
24.531500 3.523100
24.561800 3.617700
24.592200 3.849100
24.622500 3.819900
24.652800 3.479100
24.683200 3.286600
24.713500 2.640700
24.743900 2.264700
24.774200 2.055000
24.804500 1.970200
24.834900 1.934800
24.865200 1.828600
24.895600 1.775900
24.925900 1.726500
24.956200 1.679100
24.986600 1.678900
25.016900 1.648200
25.047300 1.616400
25.077600 1.620500
25.107900 1.643900
25.138300 1.940300
25.168600 1.903100
25.198900 1.600000
25.229300 1.410000
25.259600 1.230200
25.290000 1.081000
25.320300 1.009100
25.350600 0.943200
25.381000 0.901000
25.411300 0.872700
25.441700 0.850300
25.472000 0.829600
25.502300 0.828500
25.532700 0.857000
25.563000 0.908300
25.593400 0.847400
25.623700 0.653700
25.654000 0.521900
25.684400 0.402900
25.714700 0.303100
25.745100 0.220100
25.775400 0.153900
25.805700 0.110900
25.836100 0.106700
25.866400 0.101000
25.896700 0.082500
25.927100 0.177400
25.957400 0.145300
25.987800 0.161500
26.018100 0.184600
26.048400 0.211100
26.078800 0.227400
26.109100 0.249100
26.139500 0.269500
26.169800 0.278300
26.200100 0.280100
26.230500 0.282300
26.260800 0.291600
26.291200 0.306200
26.321500 0.324600
26.351800 0.344000
26.382200 0.364500
26.412500 0.389000
26.442900 0.420200
26.473200 0.447800
26.503500 0.468200
26.533900 0.485800
26.564200 0.510400
26.594600 0.536900
26.624900 0.565900
26.655200 0.600700
26.685600 0.650600
26.715900 0.736400
26.746200 0.816500
26.776600 0.864100
26.806900 0.888300
26.837300 0.910100
26.867600 0.938100
26.897900 0.971000
26.928300 1.014100
26.958600 1.056400
26.989000 1.113800
27.019300 1.172000
27.049600 1.223600
27.080000 1.266100
27.110300 1.315900
27.140700 1.370900
27.171000 1.419900
27.201300 1.449700
27.231700 1.479100
27.262000 1.513400
27.292400 1.556600
27.322700 1.583000
27.353000 1.606300
27.383400 1.619700
27.413700 1.646300
27.444000 1.687600
27.474400 1.702400
27.504700 1.706200
27.535100 1.568200
27.565400 1.477200
27.595700 1.405800
27.626100 1.338900
27.656400 1.283800
27.686800 1.236700
27.717100 1.204300
27.747400 1.197500
27.777800 1.177400
27.808100 1.155300
27.838500 1.132500
27.868800 1.112800
27.899100 1.100000
27.929500 1.101200
27.959800 1.111100
27.990200 1.122300
28.020500 1.136500
28.050800 1.152800
28.081200 1.172800
28.111500 1.212200
28.141800 1.245200
28.172200 1.261400
28.202500 1.257200
28.232900 1.219500
28.263200 1.187600
28.293500 1.163400
28.323900 1.135000
28.354200 1.118200
28.384600 1.118400
28.414900 1.099400
28.445200 1.094600
28.475600 1.100300
28.505900 1.114700
28.536300 1.131700
28.566600 1.181700
28.596900 1.241000
28.627300 1.341700
28.657600 1.407700
28.688000 1.525500
28.718300 1.628900
28.748600 1.743100
28.779000 1.824500
28.809300 1.892200
28.839700 1.951800
28.870000 2.035800
28.900300 2.161900
28.930700 2.456600
28.961000 2.638100
28.991300 2.819500
29.021700 2.904000
29.052000 2.792700
29.082400 2.851700
29.112700 2.971700
29.143000 3.104000
29.173400 3.225400
29.203700 3.320600
29.234100 3.481100
29.264400 3.666800
29.294700 3.372900
29.325100 3.061600
29.355400 3.422800
29.385800 4.110500
29.416100 4.466800
29.446400 4.579900
29.476800 4.894000
29.507100 5.135700
29.537500 4.301500
29.567800 4.027300
29.598100 3.962700
29.628500 3.336700
29.658800 3.187300
29.689100 3.022500
29.719500 3.106300
29.749800 3.418700
29.780200 3.769900
29.810500 3.900100
29.840800 4.012100
29.871200 4.318900
29.901500 4.491500
29.931900 4.406700
29.962200 4.124700
29.992500 4.016600
30.022900 3.957600
30.053200 3.782900
30.083600 3.613600
30.113900 3.466000
30.144200 3.350100
30.174600 3.005200
30.204900 2.914200
30.235300 2.860800
30.265600 2.804800
30.295900 2.778100
30.326300 2.786800
30.356600 2.828100
30.387000 2.806000
30.417300 3.022700
30.447600 2.711600
30.478000 2.681600
30.508300 2.642300
30.538600 2.635200
30.569000 2.693500
30.599300 2.737500
30.629700 2.820800
30.660000 3.144000
30.690300 3.017700
30.720700 2.938400
30.751000 2.717400
30.781400 2.630700
30.811700 2.631000
30.842000 2.804600
30.872400 2.875700
30.902700 2.810700
30.933100 2.651300
30.963400 2.568400
30.993700 2.431600
31.024100 2.444900
31.054400 2.505800
31.084800 2.645300
31.115100 2.707800
31.145400 2.770900
31.175800 2.738500
31.206100 3.014000
31.236400 3.022200
31.266800 3.234600
31.297100 3.391400
31.327500 3.564900
31.357800 3.846900
31.388100 4.060700
31.418500 3.559800
31.448800 3.494900
31.479200 3.740100
31.509500 3.849100
31.539800 3.682200
31.570200 3.568500
31.600500 3.565500
31.630900 3.607100
31.661200 3.383300
31.691500 3.280500
31.721900 2.771300
31.752200 2.704500
31.782600 2.689100
31.812900 2.731900
31.843200 2.694500
31.873600 2.650600
31.903900 2.795500
31.934200 2.987100
31.964600 3.027300
31.994900 3.055700
32.025300 3.119300
32.055600 3.203300
32.085900 3.257200
32.116300 3.285300
32.146600 3.275100
32.177000 3.298400
32.207300 3.283100
32.237600 3.334000
32.268000 3.472400
32.298300 3.495100
32.328700 3.612400
32.359000 3.500300
32.389300 3.422300
32.419700 3.407800
32.450000 3.566100
32.480400 3.404400
32.510700 3.616600
32.541000 4.816000
32.571400 3.128500
32.601700 2.817900
32.632100 2.425900
32.662400 2.426900
32.692700 2.457700
32.723100 2.471200
32.753400 2.468700
32.783700 2.499500
32.814100 2.607200
32.844400 2.658100
32.874800 2.788700
32.905100 2.947900
32.935400 3.208200
32.965800 3.930600
32.996100 3.859300
33.026500 3.936400
33.056800 3.517500
33.087100 3.311900
33.117500 2.637300
33.147800 2.397600
33.178200 2.185100
33.208500 1.989900
33.238800 1.692200
33.269200 1.534200
33.299500 1.523300
33.329900 1.582000
33.360200 1.607300
33.390500 1.615900
33.420900 1.509500
33.451200 1.273700
33.481500 1.262500
33.511900 1.279800
33.542200 1.312200
33.572600 1.336500
33.602900 1.397600
33.633200 1.463600
33.663600 1.538100
33.693900 1.603800
33.724300 1.661100
33.754600 1.716200
33.784900 1.811100
33.815300 1.838800
33.845600 1.861500
33.876000 1.882400
33.906300 1.892500
33.936600 1.895900
33.967000 1.907900
33.997300 1.903700
34.027700 1.892300
34.058000 1.806900
34.088300 1.753500
34.118700 1.751700
34.149000 1.769300
34.179400 1.806300
34.209700 1.878300
34.240000 1.962400
34.270400 2.045400
34.300700 2.087700
34.331000 2.090100
34.361400 2.093200
34.391700 2.054800
34.422100 1.888600
34.452400 1.744300
34.482700 1.683000
34.513100 1.643400
34.543400 1.600700
34.573800 1.583200
34.604100 1.593400
34.634400 1.624200
34.664800 1.684600
34.695100 1.783700
34.725500 1.896400
34.755800 2.006200
34.786100 2.079900
34.816500 2.151300
34.846800 2.174700
34.877200 2.183800
34.907500 2.185200
34.937800 2.166300
34.968200 2.184700
34.998500 2.197000
35.028800 2.180400
35.059200 2.153600
35.089500 2.023300
35.119900 1.990900
35.150200 1.969000
35.180500 1.960000
35.210900 1.956000
35.241200 1.951100
35.271600 1.948100
35.301900 1.933500
35.332200 1.941400
35.362600 1.951600
35.392900 1.967200
35.423300 1.987700
35.453600 1.995000
35.483900 1.973400
35.514300 1.966800
35.544600 1.956300
35.575000 1.919600
35.605300 1.912000
35.635600 1.911300
35.666000 1.945800
35.696300 1.991700
35.726600 2.028200
35.757000 2.047800
35.787300 1.983300
35.817700 1.999800
35.848000 2.006000
35.878300 2.010700
35.908700 2.011700
35.939000 2.006900
35.969400 2.000700
35.999700 2.000100
36.030000 1.999400
36.060400 1.970800
36.090700 1.951400
36.121100 1.934400
36.151400 1.920600
36.181700 1.913600
36.212100 1.895800
36.242400 1.875700
36.272800 1.853500
36.303100 1.803200
36.333400 1.784700
36.363800 1.760900
36.394100 1.728200
36.424500 1.726100
36.454800 1.725800
36.485100 1.723800
36.515500 1.721300
36.545800 1.717200
36.576100 1.711700
36.606500 1.707800
36.636800 1.707300
36.667200 1.708700
36.697500 1.713200
36.727800 1.718100
36.758200 1.724000
36.788500 1.729500
36.818900 1.734700
36.849200 1.741500
36.879500 1.749000
36.909900 1.756300
36.940200 1.756900
36.970600 1.756700
37.000900 1.755100
37.031200 1.748800
37.061600 1.740000
37.091900 1.731700
37.122300 1.723700
37.152600 1.717500
37.182900 1.711500
37.213300 1.708600
37.243600 1.714000
37.273900 1.711200
37.304300 1.711800
37.334600 1.702700
37.365000 1.691200
37.395300 1.678400
37.425600 1.669600
37.456000 1.659800
37.486300 1.651100
37.516700 1.641700
37.547000 1.631200
37.577300 1.621000
37.607700 1.613100
37.638000 1.609300
37.668400 1.611700
37.698700 1.614300
37.729000 1.623100
37.759400 1.636100
37.789700 1.650500
37.820100 1.745000
37.850400 1.669300
37.880700 1.693000
37.911100 1.572300
37.941400 1.568000
37.971700 1.565200
38.002100 1.563300
38.032400 1.561800
38.062800 1.561200
38.093100 1.561900
38.123400 1.566600
38.153800 1.573100
38.184100 1.571000
38.214500 1.566400
38.244800 1.559400
38.275100 1.546600
38.305500 1.532800
38.335800 1.519300
38.366200 1.511200
38.396500 1.508300
38.426800 1.512000
38.457200 1.500800
38.487500 1.476200
38.517900 1.463000
38.548200 1.449800
38.578500 1.443800
38.608900 1.450400
38.639200 1.453800
38.669600 1.455300
38.699900 1.458100
38.730200 1.461100
38.760600 1.465700
38.790900 1.472300
38.821200 1.480700
38.851600 1.491900
38.881900 1.497800
38.912300 1.507100
38.942600 1.535200
38.972900 1.549000
39.003300 1.564100
39.033600 1.572200
39.064000 1.572500
39.094300 1.585700
39.124600 1.584200
39.155000 1.582800
39.185300 1.582700
39.215700 1.582600
39.246000 1.568800
39.276300 1.561300
39.306700 1.555400
39.337000 1.550900
39.367400 1.550300
39.397700 1.552600
39.428000 1.559100
39.458400 1.565200
39.488700 1.569600
39.519000 1.580000
39.549400 1.589400
39.579700 1.615900
39.610100 1.613500
39.640400 1.582300
39.670700 1.581200
39.701100 1.585800
39.731400 1.595300
39.761800 1.611300
39.792100 1.630600
39.822400 1.638700
39.852800 1.650800
39.883100 1.671100
39.913500 1.693200
39.943800 1.716700
39.974100 1.751200
40.004500 1.798400
40.034800 1.832700
40.065200 1.852900
40.095500 1.850400
40.125800 1.855500
40.156200 1.857600
40.186500 1.864100
40.216900 1.867300
40.247200 1.907900
40.277500 1.884600
40.307900 1.861200
40.338200 1.769900
40.368500 1.764900
40.398900 1.759000
40.429200 1.795400
40.459600 1.867600
40.489900 1.912900
40.520200 1.840800
40.550600 1.854100
40.580900 1.863800
40.611300 1.877000
40.641600 1.908600
40.671900 1.949600
40.702300 1.936400
40.732600 1.883400
40.763000 1.784100
40.793300 1.732400
40.823600 1.711300
40.854000 1.711800
40.884300 1.743900
40.914700 1.811600
40.945000 1.962600
40.975300 1.680100
41.005700 1.657800
41.036000 1.675300
41.066300 1.588400
41.096700 1.568800
41.127000 1.418700
41.157400 1.376100
41.187700 1.389200
41.218000 1.375600
41.248400 1.222400
41.278700 1.107000
41.309100 1.037600
41.339400 1.003000
41.369700 0.977200
41.400100 0.967200
41.430400 0.934700
41.460800 0.938000
41.491100 0.917700
41.521400 0.876500
41.551800 0.810900
41.582100 0.793300
41.612500 0.792300
41.642800 0.784800
41.673100 0.777300
41.703500 0.776600
41.733800 0.798300
41.764100 0.834100
41.794500 0.851900
41.824800 0.885300
41.855200 0.881300
41.885500 0.843600
41.915800 0.802800
41.946200 0.791000
41.976500 0.784500
42.006900 0.785400
42.037200 0.884000
42.067500 0.832200
42.097900 0.825000
42.128200 0.807300
42.158600 0.798800
42.188900 0.791900
42.219200 0.778600
42.249600 0.754200
42.279900 0.716800
42.310300 0.663400
42.340600 0.611200
42.370900 0.570200
42.401300 0.614600
42.431600 0.627500
42.462000 0.606100
42.492300 0.568800
42.522600 0.518200
42.553000 0.472600
42.583300 0.426000
42.613600 0.376900
42.644000 0.290100
42.674300 0.204700
42.704700 0.173700
42.735000 0.149600
42.765300 0.130100
42.795700 0.114900
42.826000 0.101900
42.856400 0.089000
42.886700 0.076300
42.917000 0.064600
42.947400 0.054100
42.977700 0.044800
43.008100 0.032400
43.038400 0.009700
43.068700 0.000100
43.099100 0.000000
43.129400 0.000000
43.159800 0.000000
43.190100 0.000000
43.220400 0.000000
43.250800 0.000000
43.281100 0.000000
43.311400 0.000000
43.341800 0.000000
43.372100 0.000000
43.402500 0.000000
43.432800 0.000000
43.463100 0.000000
43.493500 0.000000
43.523800 0.000000
43.554200 0.000000
43.584500 0.000000
43.614800 0.000000
43.645200 0.000000
43.675500 0.000000
43.705900 0.000000
43.736200 0.000000
43.766500 0.000000
43.796900 0.000000
43.827200 0.000000
43.857600 0.000000
43.887900 0.000000
43.918200 0.000000
43.948600 0.000000
43.978900 0.000000
44.009200 0.000000
44.039600 0.000000
44.069900 0.000000
44.100300 0.000000
44.130600 0.000000
44.160900 0.000000
44.191300 0.000000
44.221600 0.000000
44.252000 0.000000
44.282300 0.000000
44.312600 0.000000
44.343000 0.000000
44.373300 0.000000
44.403700 0.000000
44.434000 0.000000
44.464300 0.000000
44.494700 0.000000
44.525000 0.000000
44.555400 0.000000
44.585700 0.000000
44.616000 0.000000
44.646400 0.000000
44.676700 0.000000
44.707100 0.000000
44.737400 0.000000
44.767700 0.000000
44.798100 0.000000
44.828400 0.000000
44.858700 0.000000
44.889100 0.000000
44.919400 0.000000
44.949800 0.000000
44.980100 0.000000
45.010400 0.000000
45.040800 0.000000
45.071100 0.000000
45.101500 0.000000
45.131800 0.000000
45.162100 0.000000
45.192500 0.000000
45.222800 0.000000
45.253200 0.000000
45.283500 0.000000
45.313800 0.000000
45.344200 0.000000
45.374500 0.000000
45.404900 0.000000
45.435200 0.000000
45.465500 0.000000
45.495900 0.000000
45.526200 0.000000
45.556500 0.000000
45.586900 0.000000
45.617200 0.000000
45.647600 0.000000
45.677900 0.000000
45.708200 0.000000
45.738600 0.000000
45.768900 0.000000
45.799300 0.000000
45.829600 0.000000
e
