set title 'mp-1183141 - Density of States'
set xlabel 'Energy (eV)'
set ylabel 'DOS (states/eV)'
set grid
set xrange [-10:10]
set yrange [0:21.346]
set xzeroaxis lt -1
set terminal png size 800,600
set output 'mp-1183141_dos_gnuplot.png'
plot '-' using 1:2 with lines title 'DOS'
-11.618500 0.000000
-11.591800 0.000000
-11.565100 0.000000
-11.538400 0.000000
-11.511600 0.000000
-11.484900 0.000000
-11.458200 0.000000
-11.431500 0.000000
-11.404800 0.000000
-11.378000 0.000000
-11.351300 0.000000
-11.324600 0.000000
-11.297900 0.000000
-11.271200 0.000000
-11.244500 0.000000
-11.217700 0.000000
-11.191000 0.000000
-11.164300 0.000000
-11.137600 0.000000
-11.110900 0.000000
-11.084100 0.000000
-11.057400 0.000000
-11.030700 0.000000
-11.004000 0.000000
-10.977300 0.000000
-10.950500 0.000000
-10.923800 0.000000
-10.897100 0.000000
-10.870400 0.000000
-10.843700 0.000000
-10.817000 0.000000
-10.790200 0.000000
-10.763500 0.000000
-10.736800 0.000000
-10.710100 0.000000
-10.683400 0.000000
-10.656600 0.000000
-10.629900 0.000000
-10.603200 0.000000
-10.576500 0.000000
-10.549800 0.000000
-10.523100 0.000000
-10.496300 0.000000
-10.469600 0.000000
-10.442900 0.000000
-10.416200 0.000000
-10.389500 0.000000
-10.362700 0.000000
-10.336000 0.000000
-10.309300 0.000000
-10.282600 0.000000
-10.255900 0.000000
-10.229200 0.000000
-10.202400 0.000000
-10.175700 0.000000
-10.149000 0.000000
-10.122300 0.000000
-10.095600 0.000000
-10.068800 0.000000
-10.042100 0.000000
-10.015400 0.000000
-9.988700 0.000000
-9.962000 0.000000
-9.935300 0.000000
-9.908500 0.000000
-9.881800 0.000000
-9.855100 0.000000
-9.828400 0.000000
-9.801700 0.000000
-9.774900 0.000000
-9.748200 0.000000
-9.721500 0.000000
-9.694800 0.000000
-9.668100 0.000000
-9.641400 0.000000
-9.614600 0.000000
-9.587900 0.000000
-9.561200 0.000000
-9.534500 0.000000
-9.507800 0.000000
-9.481000 0.000000
-9.454300 0.000000
-9.427600 0.000000
-9.400900 0.000000
-9.374200 0.000000
-9.347500 0.000000
-9.320700 0.000000
-9.294000 0.000000
-9.267300 0.000000
-9.240600 0.000000
-9.213900 0.000000
-9.187100 0.000500
-9.160400 0.077200
-9.133700 0.211800
-9.107000 0.235300
-9.080300 0.295700
-9.053600 0.360400
-9.026800 0.410600
-9.000100 0.436900
-8.973400 0.477700
-8.946700 0.521700
-8.920000 0.566300
-8.893200 0.613900
-8.866500 0.657100
-8.839800 0.697600
-8.813100 0.740200
-8.786400 0.784000
-8.759700 0.831400
-8.732900 0.882600
-8.706200 0.935800
-8.679500 1.048100
-8.652800 1.109800
-8.626100 1.152300
-8.599300 1.198400
-8.572600 1.234800
-8.545900 1.263600
-8.519200 1.304600
-8.492500 1.352400
-8.465800 1.599100
-8.439000 1.662200
-8.412300 1.788400
-8.385600 1.910700
-8.358900 2.029300
-8.332200 2.166900
-8.305400 2.337700
-8.278700 2.568000
-8.252000 2.826700
-8.225300 3.125600
-8.198600 3.480900
-8.171900 3.928400
-8.145100 4.887200
-8.118400 4.961400
-8.091700 5.197600
-8.065000 5.630500
-8.038300 5.837400
-8.011500 6.127500
-7.984800 6.299900
-7.958100 6.588200
-7.931400 6.583700
-7.904700 7.032600
-7.878000 10.071900
-7.851200 14.959000
-7.824500 5.146800
-7.797800 0.000000
-7.771100 0.000000
-7.744400 0.000000
-7.717600 0.000000
-7.690900 0.000000
-7.664200 0.000000
-7.637500 0.000000
-7.610800 0.000000
-7.584100 0.000000
-7.557300 0.000000
-7.530600 0.000000
-7.503900 0.000000
-7.477200 0.000000
-7.450500 0.000000
-7.423700 0.000000
-7.397000 0.000000
-7.370300 0.000000
-7.343600 0.000000
-7.316900 0.000000
-7.290100 0.000000
-7.263400 0.000000
-7.236700 0.000000
-7.210000 0.000000
-7.183300 0.000000
-7.156600 0.000000
-7.129800 0.000000
-7.103100 0.000000
-7.076400 0.000000
-7.049700 0.000000
-7.023000 0.000000
-6.996200 0.000000
-6.969500 0.000000
-6.942800 0.000000
-6.916100 0.000000
-6.889400 0.000000
-6.862700 0.000000
-6.835900 0.000000
-6.809200 0.000000
-6.782500 0.000000
-6.755800 0.000000
-6.729100 0.000000
-6.702300 0.000000
-6.675600 0.000000
-6.648900 0.000000
-6.622200 0.000000
-6.595500 0.000000
-6.568800 0.000000
-6.542000 0.000000
-6.515300 0.000000
-6.488600 0.000000
-6.461900 0.000000
-6.435200 0.000000
-6.408400 0.000000
-6.381700 0.000000
-6.355000 0.000000
-6.328300 0.000000
-6.301600 0.000000
-6.274900 0.000000
-6.248100 0.000000
-6.221400 0.000000
-6.194700 0.000000
-6.168000 0.000000
-6.141300 0.000000
-6.114500 0.000000
-6.087800 0.000000
-6.061100 0.000000
-6.034400 0.000000
-6.007700 0.000000
-5.981000 0.000000
-5.954200 0.000000
-5.927500 0.000000
-5.900800 0.000000
-5.874100 0.000000
-5.847400 0.000000
-5.820600 0.000000
-5.793900 0.000000
-5.767200 0.000000
-5.740500 0.000000
-5.713800 0.000000
-5.687100 0.000000
-5.660300 0.000000
-5.633600 0.000000
-5.606900 0.000000
-5.580200 0.000000
-5.553500 0.000000
-5.526700 0.000000
-5.500000 0.000000
-5.473300 0.000000
-5.446600 0.000000
-5.419900 0.000000
-5.393200 0.000000
-5.366400 0.000000
-5.339700 0.000000
-5.313000 0.000000
-5.286300 0.000000
-5.259600 0.000000
-5.232800 0.000000
-5.206100 0.000000
-5.179400 0.000000
-5.152700 0.000000
-5.126000 0.000000
-5.099300 0.000000
-5.072500 0.000000
-5.045800 0.000000
-5.019100 0.000000
-4.992400 0.000000
-4.965700 0.000000
-4.938900 0.000000
-4.912200 0.000000
-4.885500 0.000000
-4.858800 0.000000
-4.832100 0.000000
-4.805400 0.000000
-4.778600 0.000000
-4.751900 0.000000
-4.725200 0.000000
-4.698500 0.000000
-4.671800 0.000000
-4.645000 0.000000
-4.618300 0.000000
-4.591600 0.000000
-4.564900 0.000000
-4.538200 0.000000
-4.511500 0.000000
-4.484700 0.000000
-4.458000 0.000000
-4.431300 0.000000
-4.404600 0.000000
-4.377900 0.000000
-4.351100 0.000000
-4.324400 0.000000
-4.297700 0.000000
-4.271000 0.000000
-4.244300 0.000000
-4.217600 0.000000
-4.190800 0.000000
-4.164100 0.000000
-4.137400 0.000000
-4.110700 0.000000
-4.084000 0.000000
-4.057200 0.000000
-4.030500 0.000000
-4.003800 0.000000
-3.977100 0.000000
-3.950400 0.000000
-3.923700 0.000000
-3.896900 0.000000
-3.870200 0.000000
-3.843500 0.000000
-3.816800 0.000000
-3.790100 4.589600
-3.763300 19.405600
-3.736600 14.439700
-3.709900 11.067900
-3.683200 13.932100
-3.656500 12.804300
-3.629700 11.134700
-3.603000 10.595600
-3.576300 9.600900
-3.549600 10.354000
-3.522900 10.164600
-3.496200 9.874000
-3.469400 9.578800
-3.442700 10.623100
-3.416000 10.872300
-3.389300 13.215100
-3.362600 9.347300
-3.335800 8.502900
-3.309100 9.013400
-3.282400 10.064700
-3.255700 11.310400
-3.229000 10.445400
-3.202300 10.109400
-3.175500 9.418500
-3.148800 8.194600
-3.122100 7.689800
-3.095400 7.270800
-3.068700 7.205000
-3.041900 7.360700
-3.015200 7.592700
-2.988500 7.745500
-2.961800 7.322700
-2.935100 7.165900
-2.908400 6.779600
-2.881600 7.166100
-2.854900 9.175700
-2.828200 10.723600
-2.801500 9.534900
-2.774800 9.027700
-2.748000 7.730900
-2.721300 7.739200
-2.694600 8.307900
-2.667900 8.612200
-2.641200 8.141000
-2.614500 6.086500
-2.587700 4.491900
-2.561000 3.533800
-2.534300 5.160200
-2.507600 6.160600
-2.480900 5.379400
-2.454100 5.546700
-2.427400 5.761900
-2.400700 8.207400
-2.374000 6.126300
-2.347300 7.063700
-2.320600 7.667500
-2.293800 8.931100
-2.267100 8.736800
-2.240400 10.705800
-2.213700 11.406700
-2.187000 17.589400
-2.160200 12.367200
-2.133500 12.736500
-2.106800 13.085400
-2.080100 9.797300
-2.053400 6.471100
-2.026700 5.557200
-1.999900 5.206800
-1.973200 6.519000
-1.946500 7.694300
-1.919800 7.542400
-1.893100 6.695500
-1.866300 5.940600
-1.839600 4.214800
-1.812900 3.861200
-1.786200 3.455400
-1.759500 3.001900
-1.732800 2.726400
-1.706000 2.600400
-1.679300 2.540100
-1.652600 2.490000
-1.625900 2.442200
-1.599200 2.438300
-1.572400 2.430700
-1.545700 2.257700
-1.519000 2.190600
-1.492300 2.143700
-1.465600 2.104300
-1.438900 1.987200
-1.412100 1.965100
-1.385400 1.962200
-1.358700 2.000000
-1.332000 2.090700
-1.305300 2.117700
-1.278500 2.392500
-1.251800 2.604500
-1.225100 2.860700
-1.198400 2.982200
-1.171700 2.440600
-1.145000 2.400700
-1.118200 2.313700
-1.091500 2.164300
-1.064800 2.115300
-1.038100 2.076200
-1.011400 2.048700
-0.984600 2.016300
-0.957900 1.967300
-0.931200 1.920900
-0.904500 1.915200
-0.877800 1.891100
-0.851100 1.798700
-0.824300 1.702000
-0.797600 1.518500
-0.770900 1.354000
-0.744200 1.139200
-0.717500 0.911400
-0.690700 0.901500
-0.664000 0.839100
-0.637300 0.739400
-0.610600 0.589300
-0.583900 0.435300
-0.557200 0.357200
-0.530400 0.288000
-0.503700 0.227300
-0.477000 0.179800
-0.450300 0.184100
-0.423600 0.191700
-0.396800 0.199900
-0.370100 0.208700
-0.343400 0.218000
-0.316700 0.227800
-0.290000 0.238900
-0.263300 0.883600
-0.236500 1.329000
-0.209800 2.247400
-0.183100 2.406900
-0.156400 2.764700
-0.129700 3.256800
-0.102900 3.595700
-0.076200 3.375400
-0.049500 3.175700
-0.022800 2.933200
0.003900 2.535700
0.030700 2.410600
0.057400 2.345100
0.084100 2.299700
0.110800 2.151800
0.137500 2.040600
0.164200 1.847500
0.191000 1.685200
0.217700 1.591300
0.244400 1.514700
0.271100 1.493400
0.297800 1.498100
0.324600 1.525100
0.351300 1.559600
0.378000 1.566700
0.404700 1.596200
0.431400 1.660100
0.458100 1.727200
0.484900 1.772700
0.511600 1.795300
0.538300 1.816000
0.565000 1.735700
0.591700 1.627900
0.618500 1.602100
0.645200 1.626300
0.671900 1.643300
0.698600 1.627500
0.725300 1.605200
0.752000 1.673600
0.778800 1.765400
0.805500 1.784800
0.832200 1.836400
0.858900 1.908900
0.885600 1.957500
0.912400 1.974400
0.939100 1.924200
0.965800 1.867200
0.992500 1.788300
1.019200 1.729400
1.045900 1.684000
1.072700 1.651500
1.099400 1.625100
1.126100 1.618500
1.152800 1.612000
1.179500 1.607500
1.206300 1.632600
1.233000 1.629700
1.259700 1.626500
1.286400 1.627800
1.313100 1.630200
1.339800 1.632700
1.366600 1.671300
1.393300 1.728700
1.420000 1.748800
1.446700 1.732100
1.473400 1.645400
1.500200 1.618200
1.526900 1.587400
1.553600 1.556800
1.580300 1.572400
1.607000 1.553600
1.633700 1.537100
1.660500 1.522400
1.687200 1.502400
1.713900 1.694700
1.740600 1.805500
1.767300 1.919700
1.794100 2.033800
1.820800 2.138600
1.847500 2.228300
1.874200 2.288600
1.900900 2.297600
1.927600 2.279400
1.954400 2.301000
1.981100 2.313700
2.007800 2.307600
2.034500 2.308500
2.061200 2.371200
2.088000 2.467200
2.114700 2.510400
2.141400 2.513300
2.168100 2.512600
2.194800 2.515500
2.221500 2.521800
2.248300 2.514400
2.275000 2.502700
2.301700 2.517800
2.328400 2.538400
2.355100 2.619100
2.381900 2.574700
2.408600 2.499300
2.435300 2.485600
2.462000 2.363400
2.488700 2.057000
2.515400 2.040800
2.542200 2.034800
2.568900 2.123300
2.595600 2.117900
2.622300 2.153200
2.649000 2.204500
2.675800 2.220000
2.702500 2.227000
2.729200 2.227700
2.755900 2.229500
2.782600 2.298800
2.809300 2.387400
2.836100 2.319000
2.862800 2.286300
2.889500 2.268900
2.916200 2.236500
2.942900 2.259200
2.969700 2.281600
2.996400 2.362700
3.023100 2.511900
3.049800 2.660900
3.076500 2.667200
3.103200 2.758400
3.130000 2.775400
3.156700 2.697300
3.183400 2.620400
3.210100 2.522000
3.236800 2.528000
3.263600 2.604400
3.290300 3.201500
3.317000 3.692900
3.343700 4.112500
3.370400 3.483800
3.397100 3.257600
3.423900 3.238600
3.450600 3.173900
3.477300 3.122100
3.504000 3.059300
3.530700 2.940800
3.557500 2.999600
3.584200 3.031400
3.610900 3.281800
3.637600 3.967500
3.664300 5.434900
3.691100 5.006600
3.717800 4.923800
3.744500 4.829000
3.771200 4.752300
3.797900 4.008800
3.824600 3.838700
3.851400 3.711800
3.878100 3.632600
3.904800 3.520400
3.931500 3.393300
3.958200 3.287800
3.985000 3.147200
4.011700 3.020800
4.038400 2.888800
4.065100 2.717800
4.091800 2.589300
4.118500 2.480300
4.145300 2.390000
4.172000 2.333400
4.198700 2.273000
4.225400 2.183700
4.252100 2.109600
4.278900 2.046000
4.305600 1.982800
4.332300 1.932600
4.359000 1.900500
4.385700 1.863000
4.412400 1.814200
4.439200 1.760900
4.465900 1.674500
4.492600 1.602500
4.519300 1.550400
4.546000 1.503100
4.572800 1.481300
4.599500 1.414200
4.626200 1.358000
4.652900 1.301800
4.679600 1.270700
4.706300 1.248000
4.733100 1.211300
4.759800 1.172500
4.786500 1.135000
4.813200 1.130100
4.839900 1.071300
4.866700 1.009600
4.893400 0.944600
4.920100 0.898100
4.946800 0.839300
4.973500 0.786000
5.000200 0.740200
5.027000 0.695700
5.053700 0.655600
5.080400 0.595200
5.107100 0.550900
5.133800 0.515400
5.160600 0.480300
5.187300 0.444600
5.214000 0.414800
5.240700 0.381700
5.267400 0.335300
5.294100 0.285500
5.320900 0.237200
5.347600 0.193300
5.374300 0.179900
5.401000 0.133900
5.427700 0.041100
5.454500 0.000900
5.481200 0.000000
5.507900 0.000000
5.534600 0.000000
5.561300 0.000000
5.588000 0.000000
5.614800 0.000000
5.641500 0.000000
5.668200 0.000000
5.694900 0.000000
5.721600 0.000000
5.748400 0.000000
5.775100 0.000000
5.801800 0.000000
5.828500 0.000000
5.855200 0.000000
5.881900 0.000000
5.908700 0.000000
5.935400 0.000000
5.962100 0.000000
5.988800 0.000000
6.015500 0.000000
6.042300 0.000000
6.069000 0.000000
6.095700 0.000000
6.122400 0.000000
6.149100 0.000000
6.175800 0.000000
6.202600 0.000000
6.229300 0.000000
6.256000 0.000000
6.282700 0.000000
6.309400 0.000000
6.336200 0.000000
6.362900 0.000000
6.389600 0.000000
6.416300 0.000000
6.443000 0.000000
6.469700 0.000000
6.496500 0.000000
6.523200 0.000000
6.549900 0.000000
6.576600 0.000000
6.603300 0.000200
6.630100 0.001000
6.656800 0.002700
6.683500 0.005100
6.710200 0.008300
6.736900 0.012200
6.763600 0.017000
6.790400 0.022500
6.817100 0.029200
6.843800 0.037100
6.870500 0.043700
6.897200 0.047800
6.924000 0.051400
6.950700 0.054300
6.977400 0.056700
7.004100 0.059000
7.030800 0.063500
7.057500 0.068200
7.084300 0.073000
7.111000 0.078000
7.137700 0.083000
7.164400 0.088200
7.191100 0.093500
7.217900 0.098900
7.244600 0.104300
7.271300 0.109400
7.298000 0.114200
7.324700 0.118800
7.351500 0.123800
7.378200 0.130400
7.404900 0.136100
7.431600 0.141800
7.458300 0.147600
7.485000 0.153300
7.511800 0.159100
7.538500 0.164900
7.565200 0.170700
7.591900 0.176600
7.618600 0.182500
7.645400 0.188600
7.672100 0.195100
7.698800 0.202100
7.725500 0.209600
7.752200 0.217500
7.778900 0.225700
7.805700 0.233500
7.832400 0.241000
7.859100 0.248200
7.885800 0.255500
7.912500 0.262800
7.939300 0.270000
7.966000 0.277200
7.992700 0.284400
8.019400 0.291700
8.046100 0.299100
8.072800 0.309300
8.099600 0.318700
8.126300 0.328200
8.153000 0.337900
8.179700 0.356400
8.206400 0.374100
8.233200 0.390900
8.259900 0.406700
8.286600 0.421500
8.313300 0.411600
8.340000 0.420100
8.366700 0.428500
8.393500 0.436200
8.420200 0.442900
8.446900 0.451300
8.473600 0.460500
8.500300 0.470300
8.527100 0.485900
8.553800 0.504200
8.580500 0.523900
8.607200 0.545500
8.633900 0.569700
8.660600 0.595700
8.687400 0.598300
8.714100 0.615600
8.740800 0.633300
8.767500 0.653200
8.794200 0.678700
8.821000 0.706600
8.847700 0.735900
8.874400 0.768200
8.901100 0.802300
8.927800 0.838000
8.954500 0.878800
8.981300 0.924000
9.008000 0.980000
9.034700 1.037300
9.061400 1.094000
9.088100 1.149200
9.114900 1.217800
9.141600 1.306200
9.168300 1.419300
9.195000 1.574600
9.221700 1.762300
9.248400 1.760900
9.275200 1.719800
9.301900 1.646900
9.328600 1.560000
9.355300 1.481100
9.382000 1.375000
9.408800 1.375800
9.435500 1.383500
9.462200 1.457800
9.488900 1.573800
9.515600 1.753200
9.542300 1.813300
9.569100 1.861100
9.595800 1.884900
9.622500 1.872900
9.649200 1.758200
9.675900 1.754800
9.702700 1.748300
9.729400 1.748500
9.756100 1.757700
9.782800 1.762900
9.809500 1.781600
9.836200 1.801900
9.863000 1.823500
9.889700 1.853700
9.916400 1.887800
9.943100 1.956600
9.969800 2.029100
9.996600 2.092000
10.023300 2.144200
10.050000 2.182600
10.076700 2.288100
10.103400 2.449200
10.130100 2.755500
10.156900 2.694800
10.183600 2.592200
10.210300 2.446500
10.237000 2.304000
10.263700 2.114200
10.290500 1.949900
10.317200 1.881300
10.343900 1.845200
10.370600 1.829700
10.397300 1.820400
10.424000 1.819500
10.450800 1.868800
10.477500 2.203300
10.504200 2.903000
10.530900 2.316200
10.557600 1.782700
10.584400 1.537600
10.611100 1.430100
10.637800 1.241800
10.664500 1.086600
10.691200 0.986800
10.717900 0.931600
10.744700 0.882300
10.771400 0.818700
10.798100 0.763400
10.824800 0.678400
10.851500 0.702000
10.878300 0.827300
10.905000 0.937400
10.931700 0.987200
10.958400 1.039800
10.985100 1.063100
11.011900 1.093600
11.038600 1.030100
11.065300 1.036100
11.092000 1.052400
11.118700 1.085800
11.145400 1.119100
11.172200 1.151100
11.198900 1.184300
11.225600 1.225100
11.252300 1.286200
11.279000 1.365200
11.305800 1.450100
11.332500 1.589400
11.359200 1.748300
11.385900 2.010400
11.412600 2.095200
11.439300 2.130600
11.466100 2.327800
11.492800 2.438100
11.519500 2.605300
11.546200 2.805800
11.572900 2.862000
11.599700 2.775400
11.626400 2.760000
11.653100 2.706200
11.679800 2.631000
11.706500 2.523700
11.733200 2.840800
11.760000 2.807400
11.786700 2.369100
11.813400 3.147600
11.840100 2.697500
11.866800 2.622300
11.893600 2.602600
11.920300 3.147300
11.947000 3.781300
11.973700 4.293500
12.000400 4.562000
12.027100 4.888300
12.053900 5.286600
12.080600 5.527000
12.107300 6.280700
12.134000 6.855900
12.160700 9.792200
12.187500 5.769600
12.214200 3.153800
12.240900 2.861600
12.267600 1.032900
12.294300 0.898500
12.321000 0.822400
12.347800 0.779700
12.374500 0.742200
12.401200 0.705700
12.427900 0.741100
12.454600 0.588900
12.481400 0.462700
12.508100 0.405200
12.534800 0.373000
12.561500 0.359500
12.588200 0.346100
12.614900 0.333000
12.641700 0.320100
12.668400 0.553700
12.695100 0.582600
12.721800 0.605500
12.748500 0.642800
12.775300 0.680500
12.802000 0.710100
12.828700 0.729100
12.855400 0.743700
12.882100 0.767300
12.908800 0.787100
12.935600 0.797300
12.962300 0.814000
12.989000 0.840400
13.015700 0.868800
13.042400 0.900600
13.069200 0.936700
13.095900 0.975800
13.122600 1.022700
13.149300 1.071500
13.176000 1.122500
13.202700 1.175200
13.229500 1.229500
13.256200 1.287800
13.282900 1.444600
13.309600 1.651700
13.336300 1.843000
13.363100 2.053300
13.389800 2.265300
13.416500 2.525000
13.443200 2.828100
13.469900 3.266000
13.496600 3.655800
13.523400 4.085600
13.550100 3.709800
13.576800 3.084600
13.603500 3.138100
13.630200 3.212500
13.657000 3.302600
13.683700 3.386900
13.710400 3.517400
13.737100 3.627300
13.763800 3.731000
13.790500 3.740800
13.817300 3.766500
13.844000 3.723700
13.870700 3.569800
13.897400 3.444700
13.924100 3.326300
13.950900 3.205200
13.977600 3.049800
14.004300 3.020800
14.031000 3.008000
14.057700 3.128900
14.084400 3.234900
14.111200 3.365500
14.137900 3.204800
14.164600 2.945600
14.191300 2.370900
14.218000 2.383900
14.244800 2.073500
14.271500 1.935100
14.298200 1.822800
14.324900 1.786100
14.351600 1.900300
14.378300 2.226400
14.405100 2.556300
14.431800 2.733900
14.458500 2.855000
14.485200 2.917700
14.511900 2.793000
14.538700 2.888600
14.565400 2.887500
14.592100 2.860800
14.618800 2.841700
14.645500 2.896000
14.672300 2.954900
14.699000 3.070600
14.725700 3.158300
14.752400 3.273400
14.779100 3.933700
14.805800 3.581500
14.832600 3.421700
14.859300 3.366000
14.886000 3.324500
14.912700 3.330400
14.939400 3.454500
14.966200 2.699000
14.992900 2.098500
15.019600 1.947100
15.046300 1.872700
15.073000 1.795500
15.099700 1.722000
15.126500 1.655500
15.153200 1.591300
15.179900 1.518000
15.206600 1.470300
15.233300 1.435000
15.260100 1.402800
15.286800 1.374300
15.313500 1.352500
15.340200 1.382600
15.366900 1.373600
15.393600 1.358400
15.420400 1.337300
15.447100 1.406800
15.473800 1.134800
15.500500 1.073400
15.527200 1.007700
15.554000 0.959900
15.580700 0.937200
15.607400 0.933400
15.634100 0.935700
15.660800 0.941400
15.687500 0.947600
15.714300 0.963900
15.741000 0.984200
15.767700 0.997000
15.794400 1.063400
15.821100 1.153000
15.847900 1.059100
15.874600 1.071700
15.901300 1.085100
15.928000 1.076400
15.954700 1.064600
15.981400 1.049800
16.008200 1.046300
16.034900 1.047300
16.061600 1.021200
16.088300 1.032900
16.115000 1.040400
16.141800 1.042300
16.168500 1.036800
16.195200 1.028600
16.221900 1.020900
16.248600 1.016100
16.275300 1.011200
16.302100 0.999900
16.328800 0.999000
16.355500 1.001000
16.382200 1.006900
16.408900 1.018300
16.435700 1.033000
16.462400 1.048900
16.489100 1.064900
16.515800 1.187000
16.542500 1.340400
16.569200 1.414500
16.596000 1.522800
16.622700 1.729800
16.649400 2.229500
16.676100 2.589400
16.702800 2.292100
16.729600 1.855200
16.756300 1.581600
16.783000 1.338400
16.809700 1.155900
16.836400 1.060300
16.863100 0.994800
16.889900 0.963000
16.916600 0.942300
16.943300 0.951300
16.970000 0.955100
16.996700 0.975100
17.023500 1.071100
17.050200 1.071100
17.076900 1.086800
17.103600 1.125400
17.130300 1.164700
17.157000 1.202100
17.183800 1.258500
17.210500 1.349400
17.237200 1.351300
17.263900 1.340000
17.290600 1.359500
17.317400 1.323000
17.344100 1.279200
17.370800 1.385600
17.397500 1.415900
17.424200 1.424000
17.450900 1.434700
17.477700 1.443900
17.504400 1.460800
17.531100 1.468600
17.557800 1.485500
17.584500 1.458100
17.611300 1.464200
17.638000 1.473700
17.664700 1.485200
17.691400 1.515700
17.718100 1.560400
17.744800 1.650200
17.771600 1.796000
17.798300 1.790400
17.825000 1.811400
17.851700 1.822500
17.878400 1.827500
17.905200 1.834000
17.931900 1.851000
17.958600 1.865500
17.985300 1.879500
18.012000 1.935100
18.038700 1.970800
18.065500 1.972700
18.092200 1.980500
18.118900 1.997400
18.145600 2.008100
18.172300 2.199800
18.199100 2.195200
18.225800 2.118800
18.252500 1.888300
18.279200 1.690300
18.305900 1.516000
18.332700 1.277300
18.359400 1.243600
18.386100 1.236300
18.412800 1.192200
18.439500 1.183800
18.466200 1.290200
18.493000 1.286300
18.519700 1.332900
18.546400 1.343000
18.573100 1.376000
18.599800 1.513900
18.626600 1.417400
18.653300 1.396500
18.680000 1.358000
18.706700 1.371800
18.733400 1.398900
18.760100 1.401500
18.786900 1.411100
18.813600 1.436100
18.840300 1.427400
18.867000 1.473900
18.893700 1.546000
18.920500 1.636600
18.947200 1.729100
18.973900 1.825500
19.000600 1.904000
19.027300 1.985700
19.054000 2.036800
19.080800 2.059100
19.107500 2.025100
19.134200 1.796500
19.160900 1.668000
19.187600 1.591000
19.214400 2.095200
19.241100 1.093900
19.267800 1.002200
19.294500 0.899700
19.321200 0.836300
19.347900 0.790400
19.374700 0.758300
19.401400 0.737000
19.428100 0.725300
19.454800 0.720900
19.481500 0.722200
19.508300 0.732700
19.535000 0.752000
19.561700 0.779300
19.588400 0.813000
19.615100 0.841200
19.641800 0.874900
19.668600 0.913500
19.695300 0.954300
19.722000 0.996900
19.748700 1.042000
19.775400 1.089100
19.802200 1.193300
19.828900 1.233600
19.855600 1.421900
19.882300 1.478800
19.909000 1.497000
19.935700 1.510400
19.962500 1.449200
19.989200 1.405500
20.015900 1.397800
20.042600 1.390100
20.069300 1.380600
20.096100 1.369000
20.122800 1.356400
20.149500 1.345400
20.176200 1.335600
20.202900 1.314600
20.229600 1.320300
20.256400 1.290400
20.283100 1.239100
20.309800 1.222800
20.336500 1.330300
20.363200 1.462300
20.390000 1.621200
20.416700 1.674100
20.443400 1.640100
20.470100 1.625900
20.496800 1.635800
20.523500 1.644100
20.550300 1.732000
20.577000 1.769300
20.603700 1.740300
20.630400 1.742600
20.657100 1.771700
20.683900 1.879500
20.710600 2.055900
20.737300 2.154200
20.764000 2.199200
20.790700 2.267400
20.817400 2.327900
20.844200 2.304500
20.870900 2.223200
20.897600 2.092100
20.924300 1.916900
20.951000 1.935300
20.977800 2.074700
21.004500 2.002800
21.031200 1.921900
21.057900 1.855400
21.084600 1.775400
21.111300 1.791700
21.138100 1.739900
21.164800 1.751700
21.191500 1.804400
21.218200 1.750800
21.244900 1.728100
21.271700 1.701500
21.298400 1.668100
21.325100 1.524100
21.351800 1.501100
21.378500 1.478900
21.405200 1.463400
21.432000 1.461100
21.458700 1.470800
21.485400 1.489100
21.512100 1.518300
21.538800 1.558400
21.565600 1.612900
21.592300 1.701100
21.619000 1.832100
21.645700 2.043900
21.672400 2.341200
21.699100 2.678200
21.725900 2.976700
21.752600 2.972700
21.779300 2.990600
21.806000 3.106000
21.832700 2.643800
21.859500 2.160700
21.886200 1.980800
21.912900 1.831500
21.939600 1.699500
21.966300 1.594400
21.993100 1.504200
22.019800 1.430500
22.046500 1.381600
22.073200 1.352900
22.099900 1.347800
22.126600 1.357700
22.153400 1.368200
22.180100 1.369900
22.206800 1.370100
22.233500 1.372100
22.260200 1.379500
22.287000 1.392100
22.313700 1.407700
22.340400 1.421100
22.367100 1.406200
22.393800 1.400700
22.420500 1.397700
22.447300 1.467400
22.474000 1.449100
22.500700 1.451100
22.527400 1.448000
22.554100 1.447800
22.580900 1.459500
22.607600 1.475800
22.634300 1.496700
22.661000 1.528100
22.687700 1.561400
22.714400 1.599100
22.741200 1.635600
22.767900 1.670400
22.794600 1.705000
22.821300 1.738200
22.848000 1.771000
22.874800 1.923500
22.901500 2.006600
22.928200 2.019500
22.954900 2.044000
22.981600 2.021500
23.008300 1.967500
23.035100 1.959600
23.061800 1.965300
23.088500 1.983600
23.115200 1.987700
23.141900 1.922200
23.168700 1.882700
23.195400 1.970100
23.222100 2.097700
23.248800 2.256400
23.275500 2.398400
23.302200 3.008300
23.329000 2.651100
23.355700 2.740100
23.382400 2.692700
23.409100 2.877500
23.435800 3.092300
23.462600 3.322100
23.489300 3.539600
23.516000 3.745200
23.542700 3.819400
23.569400 3.931100
23.596100 4.123800
23.622900 4.419500
23.649600 4.882800
23.676300 5.090900
23.703000 5.132100
23.729700 4.938100
23.756500 4.969400
23.783200 4.457500
23.809900 4.302600
23.836600 3.917600
23.863300 3.430200
23.890000 2.942200
23.916800 2.535900
23.943500 2.172800
23.970200 1.890600
23.996900 1.685200
24.023600 1.408300
24.050400 1.470100
24.077100 1.556700
24.103800 1.647200
24.130500 1.971700
24.157200 2.223400
24.183900 2.468300
24.210700 2.653800
24.237400 2.697600
24.264100 3.006800
24.290800 3.249500
24.317500 3.372600
24.344300 3.479800
24.371000 3.615500
24.397700 3.784100
24.424400 4.347800
24.451100 4.600700
24.477800 4.034700
24.504600 3.658100
24.531300 2.974500
24.558000 2.893500
24.584700 3.199600
24.611400 3.261400
24.638200 3.462100
24.664900 3.381900
24.691600 3.242600
24.718300 3.064700
24.745000 3.002700
24.771700 2.959800
24.798500 2.929600
24.825200 3.067400
24.851900 3.131200
24.878600 3.160500
24.905300 3.161500
24.932100 3.043900
24.958800 3.029300
24.985500 2.712400
25.012200 2.739600
25.038900 2.757200
25.065600 2.814900
25.092400 2.788100
25.119100 2.788600
25.145800 2.808800
25.172500 2.885700
25.199200 2.907500
25.226000 2.846300
25.252700 2.820800
25.279400 2.805300
25.306100 2.805800
25.332800 2.804000
25.359500 2.796000
25.386300 2.797000
25.413000 2.823200
25.439700 2.515100
25.466400 2.321000
25.493100 2.121400
25.519900 2.053300
25.546600 2.012900
25.573300 2.001000
25.600000 1.991200
25.626700 2.037200
25.653500 2.195900
25.680200 2.445200
25.706900 2.655500
25.733600 2.882600
25.760300 3.119200
25.787000 3.566400
25.813800 3.607200
25.840500 3.502200
25.867200 3.353400
25.893900 3.345000
25.920600 3.191500
25.947400 2.937000
25.974100 2.738700
26.000800 2.572100
26.027500 2.404100
26.054200 2.218800
26.080900 2.054600
26.107700 2.100200
26.134400 2.532000
26.161100 2.428000
26.187800 2.352600
26.214500 2.497900
26.241300 2.252400
26.268000 2.816300
26.294700 4.026700
26.321400 4.237800
26.348100 3.901300
26.374800 3.074700
26.401600 2.557000
26.428300 2.540000
26.455000 2.532600
26.481700 2.488800
26.508400 2.340500
26.535200 2.191900
26.561900 2.036500
26.588600 1.934100
26.615300 1.748000
26.642000 1.689000
26.668700 1.659700
26.695500 1.661600
26.722200 1.653500
26.748900 1.654400
26.775600 1.646900
26.802300 1.631500
26.829100 1.629800
26.855800 1.697300
26.882500 1.654900
26.909200 1.632300
26.935900 1.628600
26.962600 1.645600
26.989400 1.713700
27.016100 2.036000
27.042800 2.162900
27.069500 2.064200
27.096200 1.971500
27.123000 1.696400
27.149700 1.575400
27.176400 1.575900
27.203100 1.618700
27.229800 1.746800
27.256500 1.889000
27.283300 2.030900
27.310000 2.178700
27.336700 2.302200
27.363400 2.431300
27.390100 2.407800
27.416900 2.304600
27.443600 2.157000
27.470300 2.036200
27.497000 1.969000
27.523700 1.980300
27.550400 2.021500
27.577200 2.088900
27.603900 2.120900
27.630600 2.187000
27.657300 2.387800
27.684000 2.551200
27.710800 2.905000
27.737500 3.242300
27.764200 3.725600
27.790900 4.075000
27.817600 3.175800
27.844300 3.071400
27.871100 2.969300
27.897800 2.864600
27.924500 2.765100
27.951200 2.744600
27.977900 2.756000
28.004700 2.701000
28.031400 2.617900
28.058100 2.507200
28.084800 2.462800
28.111500 2.444700
28.138200 2.430600
28.165000 2.351100
28.191700 2.255300
28.218400 2.200100
28.245100 2.131000
28.271800 2.068000
28.298600 2.025700
28.325300 2.045900
28.352000 2.319000
28.378700 2.287400
28.405400 2.229500
28.432100 2.183200
28.458900 2.202100
28.485600 2.242500
28.512300 2.264000
28.539000 2.298200
28.565700 2.430600
28.592500 2.568600
28.619200 2.605300
28.645900 2.599600
28.672600 2.594500
28.699300 2.606700
28.726000 2.651900
28.752800 2.929800
28.779500 2.830700
28.806200 2.756400
28.832900 2.746000
28.859600 2.785200
28.886400 2.716100
28.913100 2.653700
28.939800 2.575800
28.966500 2.523900
28.993200 2.547600
29.019900 2.585500
29.046700 2.153000
29.073400 1.970700
29.100100 1.997900
29.126800 2.089300
29.153500 2.196700
29.180300 2.248200
29.207000 2.296100
29.233700 2.346900
29.260400 2.397500
29.287100 2.496500
29.313900 2.813200
29.340600 3.420300
29.367300 3.164300
29.394000 2.977600
29.420700 2.704800
29.447400 2.667500
29.474200 2.716600
29.500900 2.782700
29.527600 2.831500
29.554300 2.855700
29.581000 3.084400
29.607800 3.252000
29.634500 3.144400
29.661200 2.991700
29.687900 2.882800
29.714600 2.833600
29.741300 2.886300
29.768100 2.854300
29.794800 2.830000
29.821500 2.613200
29.848200 2.555600
29.874900 2.522700
29.901700 2.612700
29.928400 2.856100
29.955100 2.973900
29.981800 2.968900
30.008500 2.698500
30.035200 2.475900
30.062000 2.397200
30.088700 2.262700
30.115400 2.180000
30.142100 2.100400
30.168800 1.981300
30.195600 1.979500
30.222300 1.959800
30.249000 1.921800
30.275700 1.914900
30.302400 1.952100
30.329100 2.007000
30.355900 2.023600
30.382600 2.008900
30.409300 2.011100
30.436000 2.081800
30.462700 2.282900
30.489500 2.332200
30.516200 2.191100
30.542900 2.106100
30.569600 2.049300
30.596300 2.075100
30.623000 2.107000
30.649800 2.138200
30.676500 2.170700
30.703200 2.214500
30.729900 2.306400
30.756600 2.443500
30.783400 2.210600
30.810100 2.206600
30.836800 2.016600
30.863500 1.926000
30.890200 1.881200
30.916900 1.904600
30.943700 1.885000
30.970400 1.972300
30.997100 2.061300
31.023800 2.217400
31.050500 2.455500
31.077300 2.811900
31.104000 3.400500
31.130700 2.199600
31.157400 2.184700
31.184100 2.192100
31.210800 2.166100
31.237600 2.122800
31.264300 2.093200
31.291000 2.082800
31.317700 2.107100
31.344400 2.153900
31.371200 2.202600
31.397900 2.234000
31.424600 2.253600
31.451300 2.317400
31.478000 2.315200
31.504700 2.441300
31.531500 2.244400
31.558200 2.226000
31.584900 2.178700
31.611600 2.133400
31.638300 2.093800
31.665100 2.057500
31.691800 2.011900
31.718500 2.017700
31.745200 1.963800
31.771900 1.950700
31.798600 1.937400
31.825400 2.070500
31.852100 2.263400
31.878800 2.381100
31.905500 2.501100
31.932200 2.612900
31.959000 2.546200
31.985700 2.479200
32.012400 2.443300
32.039100 2.426200
32.065800 2.429900
32.092500 2.438700
32.119300 2.415500
32.146000 2.412300
32.172700 2.364300
32.199400 2.334700
32.226100 2.316800
32.252900 2.326000
32.279600 2.343000
32.306300 2.365600
32.333000 2.451000
32.359700 2.716400
32.386400 2.988800
32.413200 2.657000
32.439900 2.294100
32.466600 2.242000
32.493300 2.164800
32.520000 2.050000
32.546800 1.992100
32.573500 1.948100
32.600200 1.931300
32.626900 1.925100
32.653600 1.937600
32.680300 2.008000
32.707100 1.983800
32.733800 1.939500
32.760500 1.959800
32.787200 1.990500
32.813900 2.029300
32.840700 2.079900
32.867400 2.162700
32.894100 2.361300
32.920800 2.482000
32.947500 2.631200
32.974300 2.910800
33.001000 2.852900
33.027700 2.882800
33.054400 2.946600
33.081100 2.935100
33.107800 2.908900
33.134600 2.870700
33.161300 2.717100
33.188000 2.413400
33.214700 2.154200
33.241400 2.016900
33.268200 1.893800
33.294900 1.829300
33.321600 1.730200
33.348300 1.577300
33.375000 1.461900
33.401700 1.399100
33.428500 1.311300
33.455200 1.220700
33.481900 1.172400
33.508600 1.189400
33.535300 1.273400
33.562100 1.455600
33.588800 1.488900
33.615500 1.450700
33.642200 1.548600
33.668900 1.652500
33.695600 1.778700
33.722400 2.084500
33.749100 2.202000
33.775800 2.339800
33.802500 2.539200
33.829200 2.725600
33.856000 2.839600
33.882700 3.193800
33.909400 3.546100
33.936100 3.899700
33.962800 3.765700
33.989500 3.644900
34.016300 3.527900
34.043000 3.298200
34.069700 3.115500
34.096400 2.979600
34.123100 2.851000
34.149900 2.768800
34.176600 2.628100
34.203300 2.306800
34.230000 2.333200
34.256700 2.396900
34.283400 2.437500
34.310200 2.539000
34.336900 2.502700
34.363600 2.533800
34.390300 2.529900
34.417000 2.474100
34.443800 2.396300
34.470500 2.310300
34.497200 2.421100
34.523900 2.442400
34.550600 2.500200
34.577300 2.594600
34.604100 2.779200
34.630800 2.935900
34.657500 2.923400
34.684200 2.702800
34.710900 2.650700
34.737700 2.612300
34.764400 2.589800
34.791100 2.593300
34.817800 2.552400
34.844500 2.568900
34.871200 2.559200
34.898000 2.497600
34.924700 2.620800
34.951400 2.100700
34.978100 2.099300
35.004800 2.149200
35.031600 2.306000
35.058300 2.328900
35.085000 2.419100
35.111700 2.593400
35.138400 2.885500
35.165100 3.214300
35.191900 3.362200
35.218600 3.424000
35.245300 3.361800
35.272000 3.442700
35.298700 3.529100
35.325500 3.618200
35.352200 3.439800
35.378900 3.164900
35.405600 3.021500
35.432300 3.024400
35.459000 3.277700
35.485800 3.102700
35.512500 3.010200
35.539200 2.942600
35.565900 2.849300
35.592600 2.852000
35.619400 2.921500
35.646100 3.035100
35.672800 2.886900
35.699500 2.934600
35.726200 2.913300
35.752900 2.917100
35.779700 2.955600
35.806400 3.223700
35.833100 3.172900
35.859800 2.727300
35.886500 2.501800
35.913300 2.335000
35.940000 2.221300
35.966700 2.115700
35.993400 2.020700
36.020100 1.965600
36.046800 1.931200
36.073600 1.903800
36.100300 1.878100
36.127000 1.861700
36.153700 1.852300
36.180400 1.922200
36.207200 1.846100
36.233900 1.812700
36.260600 1.707900
36.287300 1.600000
36.314000 1.555100
36.340700 1.537900
36.367500 1.470400
36.394200 1.361700
36.420900 1.306900
36.447600 1.264600
36.474300 1.225300
36.501100 1.165300
36.527800 1.107900
36.554500 1.072700
36.581200 1.053700
36.607900 1.219100
36.634700 1.040500
36.661400 0.931300
36.688100 0.921200
36.714800 0.898600
36.741500 0.888500
36.768200 0.872400
36.795000 0.844200
36.821700 0.801500
36.848400 0.748000
36.875100 0.689700
36.901800 0.622800
36.928600 0.573200
36.955300 0.445400
36.982000 0.420000
37.008700 0.400900
37.035400 0.380600
37.062100 0.359100
37.088900 0.336600
37.115600 0.315000
37.142300 0.295100
37.169000 0.276900
37.195700 0.260300
37.222500 0.246100
37.249200 0.235200
37.275900 0.226100
37.302600 0.217900
37.329300 0.210500
37.356000 0.203300
37.382800 0.195600
37.409500 0.187900
37.436200 0.180300
37.462900 0.172800
37.489600 0.165500
37.516400 0.158200
37.543100 0.151100
37.569800 0.144100
37.596500 0.137300
37.623200 0.130500
37.649900 0.123600
37.676700 0.117300
37.703400 0.114500
37.730100 0.114900
37.756800 0.112400
37.783500 0.108200
37.810300 0.103800
37.837000 0.099500
37.863700 0.095200
37.890400 0.091000
37.917100 0.086900
37.943800 0.083000
37.970600 0.079100
37.997300 0.075400
38.024000 0.071700
38.050700 0.068200
38.077400 0.064800
38.104200 0.061500
38.130900 0.057200
38.157600 0.052300
38.184300 0.048000
38.211000 0.044400
38.237700 0.041400
38.264500 0.039100
38.291200 0.037400
38.317900 0.036200
38.344600 0.035000
38.371300 0.033800
38.398100 0.032700
38.424800 0.031600
38.451500 0.030500
38.478200 0.029400
38.504900 0.028400
38.531600 0.027300
38.558400 0.030700
38.585100 0.029300
38.611800 0.027800
38.638500 0.026500
38.665200 0.025100
38.692000 0.023800
38.718700 0.026200
38.745400 0.024600
38.772100 0.023100
38.798800 0.021600
38.825500 0.020100
38.852300 0.018700
38.879000 0.017300
38.905700 0.015900
38.932400 0.014600
38.959100 0.013300
38.985900 0.012100
39.012600 0.010900
39.039300 0.009700
39.066000 0.008600
39.092700 0.007500
39.119400 0.006400
39.146200 0.005400
39.172900 0.004400
39.199600 0.003500
39.226300 0.002700
39.253000 0.002200
39.279800 0.001700
39.306500 0.001300
39.333200 0.000900
39.359900 0.000400
39.386600 0.000000
39.413300 0.000000
39.440100 0.000000
39.466800 0.000000
39.493500 0.000000
39.520200 0.000000
39.546900 0.000000
39.573700 0.000000
39.600400 0.000000
39.627100 0.000000
39.653800 0.000000
39.680500 0.000000
39.707200 0.000000
39.734000 0.000000
39.760700 0.000000
39.787400 0.000000
39.814100 0.000000
39.840800 0.000000
39.867600 0.000000
39.894300 0.000000
39.921000 0.000000
39.947700 0.000000
39.974400 0.000000
40.001100 0.000000
40.027900 0.000000
40.054600 0.000000
40.081300 0.000000
40.108000 0.000000
40.134700 0.000000
40.161500 0.000000
40.188200 0.000000
40.214900 0.000000
40.241600 0.000000
40.268300 0.000000
40.295100 0.000000
40.321800 0.000000
40.348500 0.000000
40.375200 0.000000
40.401900 0.000000
40.428600 0.000000
40.455400 0.000000
40.482100 0.000000
40.508800 0.000000
40.535500 0.000000
40.562200 0.000000
40.589000 0.000000
40.615700 0.000000
40.642400 0.000000
40.669100 0.000000
40.695800 0.000000
40.722500 0.000000
40.749300 0.000000
40.776000 0.000000
40.802700 0.000000
40.829400 0.000000
40.856100 0.000000
40.882900 0.000000
40.909600 0.000000
40.936300 0.000000
40.963000 0.000000
40.989700 0.000000
41.016400 0.000000
41.043200 0.000000
41.069900 0.000000
41.096600 0.000000
41.123300 0.000000
41.150000 0.000000
41.176800 0.000000
41.203500 0.000000
41.230200 0.000000
41.256900 0.000000
41.283600 0.000000
41.310300 0.000000
41.337100 0.000000
41.363800 0.000000
41.390500 0.000000
41.417200 0.000000
41.443900 0.000000
41.470700 0.000000
41.497400 0.000000
41.524100 0.000000
41.550800 0.000000
41.577500 0.000000
41.604200 0.000000
41.631000 0.000000
41.657700 0.000000
41.684400 0.000000
41.711100 0.000000
41.737800 0.000000
41.764600 0.000000
41.791300 0.000000
41.818000 0.000000
e
