set title 'mp-9410 - Density of States'
set xlabel 'Energy (eV)'
set ylabel 'DOS (states/eV)'
set grid
set xrange [-10:10]
set yrange [0:53.327]
set xzeroaxis lt -1
set terminal png size 800,600
set output 'mp-9410_dos_gnuplot.png'
plot '-' using 1:2 with lines title 'DOS'
-18.019200 0.000000
-17.995600 0.000000
-17.972000 0.000000
-17.948400 0.000000
-17.924700 0.000000
-17.901100 0.000000
-17.877500 0.000000
-17.853900 0.000000
-17.830200 0.000000
-17.806600 0.000000
-17.783000 0.000000
-17.759400 0.000000
-17.735800 0.000000
-17.712100 0.000000
-17.688500 0.000000
-17.664900 0.000000
-17.641300 0.000000
-17.617700 0.000000
-17.594000 0.000000
-17.570400 0.000000
-17.546800 0.000000
-17.523200 0.000000
-17.499600 0.000000
-17.475900 0.000000
-17.452300 0.000000
-17.428700 0.000000
-17.405100 0.000000
-17.381400 0.000000
-17.357800 0.000000
-17.334200 0.000000
-17.310600 0.000000
-17.287000 0.000000
-17.263300 0.000000
-17.239700 0.000000
-17.216100 0.000000
-17.192500 0.000000
-17.168900 0.000000
-17.145200 0.000000
-17.121600 0.000000
-17.098000 0.000000
-17.074400 0.000000
-17.050800 0.000000
-17.027100 0.000000
-17.003500 0.000000
-16.979900 0.000000
-16.956300 0.000000
-16.932600 0.000000
-16.909000 0.000000
-16.885400 0.000000
-16.861800 0.000000
-16.838200 0.000000
-16.814500 0.000000
-16.790900 0.000000
-16.767300 0.000000
-16.743700 0.000000
-16.720100 0.000000
-16.696400 0.000000
-16.672800 0.000000
-16.649200 0.000000
-16.625600 0.000000
-16.602000 0.000000
-16.578300 0.000000
-16.554700 0.000000
-16.531100 0.000000
-16.507500 0.000000
-16.483800 0.000000
-16.460200 0.000000
-16.436600 0.000000
-16.413000 0.000000
-16.389400 0.000000
-16.365700 0.000000
-16.342100 0.000000
-16.318500 0.000000
-16.294900 0.000000
-16.271300 0.000000
-16.247600 0.000000
-16.224000 0.000000
-16.200400 0.000000
-16.176800 0.000000
-16.153200 0.000000
-16.129500 0.000000
-16.105900 0.000000
-16.082300 0.000000
-16.058700 0.000000
-16.035000 0.000000
-16.011400 0.000000
-15.987800 0.000000
-15.964200 0.000000
-15.940600 0.000000
-15.916900 0.000000
-15.893300 0.000000
-15.869700 0.000100
-15.846100 0.017300
-15.822500 0.063600
-15.798800 0.138900
-15.775200 0.243400
-15.751600 0.376900
-15.728000 0.533700
-15.704400 0.701500
-15.680700 0.879900
-15.657100 0.967200
-15.633500 1.015300
-15.609900 1.048300
-15.586200 1.066300
-15.562600 1.069300
-15.539000 1.102600
-15.515400 1.171700
-15.491800 1.242400
-15.468100 1.314600
-15.444500 1.388400
-15.420900 1.463700
-15.397300 1.540600
-15.373700 1.619000
-15.350000 1.696700
-15.326400 1.772000
-15.302800 1.844800
-15.279200 2.587700
-15.255600 2.922900
-15.231900 3.089000
-15.208300 3.086000
-15.184700 2.940700
-15.161100 2.395300
-15.137400 2.052500
-15.113800 1.812500
-15.090200 1.675100
-15.066600 1.634400
-15.043000 1.615600
-15.019300 1.596500
-14.995700 1.576900
-14.972100 1.556900
-14.948500 1.540400
-14.924900 1.538000
-14.901200 1.550400
-14.877600 1.577500
-14.854000 1.619400
-14.830400 1.671600
-14.806800 1.668900
-14.783100 1.703500
-14.759500 1.760100
-14.735900 1.837800
-14.712300 1.936300
-14.688600 2.044800
-14.665000 2.157100
-14.641400 2.273200
-14.617800 2.393200
-14.594200 2.525300
-14.570500 2.692500
-14.546900 3.169000
-14.523300 3.255300
-14.499700 3.328000
-14.476100 3.383500
-14.452400 3.839700
-14.428800 3.793100
-14.405200 4.000800
-14.381600 4.205100
-14.358000 4.406300
-14.334300 4.320600
-14.310700 4.452700
-14.287100 4.721400
-14.263500 4.749400
-14.239800 4.685900
-14.216200 4.600100
-14.192600 4.492000
-14.169000 4.361800
-14.145400 4.161600
-14.121700 3.918700
-14.098100 3.368900
-14.074500 3.398700
-14.050900 3.533200
-14.027300 3.678200
-14.003600 3.748200
-13.980000 3.682700
-13.956400 2.607900
-13.932800 2.681400
-13.909200 2.758900
-13.885500 2.838200
-13.861900 2.901300
-13.838300 2.944600
-13.814700 2.968200
-13.791000 2.971900
-13.767400 2.957300
-13.743800 2.948600
-13.720200 3.052900
-13.696600 3.200300
-13.672900 3.372100
-13.649300 3.445200
-13.625700 3.397300
-13.602100 3.286200
-13.578500 3.110300
-13.554800 2.869600
-13.531200 2.627400
-13.507600 2.495800
-13.484000 2.370900
-13.460400 2.252700
-13.436700 2.145900
-13.413100 2.061400
-13.389500 1.999900
-13.365900 1.961200
-13.342200 1.945500
-13.318600 1.947100
-13.295000 1.952900
-13.271400 1.962200
-13.247800 1.962300
-13.224100 4.262100
-13.200500 4.915200
-13.176900 3.809600
-13.153300 3.163400
-13.129700 3.155600
-13.106000 3.236400
-13.082400 3.413600
-13.058800 4.034400
-13.035200 4.237200
-13.011600 3.597000
-12.987900 3.465600
-12.964300 3.670900
-12.940700 3.720800
-12.917100 3.785900
-12.893400 3.866300
-12.869800 3.962000
-12.846200 4.073000
-12.822600 4.199200
-12.799000 4.340800
-12.775300 4.497600
-12.751700 4.665900
-12.728100 4.741100
-12.704500 5.491100
-12.680900 6.011600
-12.657200 5.624900
-12.633600 5.107900
-12.610000 4.838300
-12.586400 4.713800
-12.562800 4.653300
-12.539100 4.559800
-12.515500 4.435600
-12.491900 4.546000
-12.468300 4.323800
-12.444700 4.136200
-12.421000 3.507300
-12.397400 3.454300
-12.373800 3.447500
-12.350200 3.467200
-12.326500 3.556100
-12.302900 3.612500
-12.279300 3.676300
-12.255700 3.760900
-12.232100 3.839100
-12.208400 3.900500
-12.184800 3.945100
-12.161200 3.972800
-12.137600 3.668800
-12.114000 3.486200
-12.090300 3.520100
-12.066700 3.551100
-12.043100 3.536700
-12.019500 3.474000
-11.995900 3.416400
-11.972200 3.519900
-11.948600 3.465000
-11.925000 3.491600
-11.901400 3.601600
-11.877700 3.825800
-11.854100 4.128200
-11.830500 4.508700
-11.806900 5.954300
-11.783300 6.900500
-11.759600 6.750200
-11.736000 5.542800
-11.712400 5.349900
-11.688800 5.178500
-11.665200 4.882900
-11.641500 4.721200
-11.617900 4.762300
-11.594300 4.861700
-11.570700 5.002200
-11.547100 5.052300
-11.523400 4.981700
-11.499800 4.753300
-11.476200 4.729200
-11.452600 4.783700
-11.428900 4.787600
-11.405300 4.659700
-11.381700 4.859600
-11.358100 5.042700
-11.334500 5.426600
-11.310800 5.623100
-11.287200 5.941900
-11.263600 6.684200
-11.240000 4.443500
-11.216400 3.778700
-11.192700 3.380100
-11.169100 3.256500
-11.145500 3.150900
-11.121900 3.025100
-11.098300 2.879000
-11.074600 2.715700
-11.051000 2.576400
-11.027400 2.642400
-11.003800 2.583000
-10.980100 2.971100
-10.956500 3.205400
-10.932900 1.005600
-10.909300 1.387300
-10.885700 2.120400
-10.862000 2.714900
-10.838400 3.211900
-10.814800 3.613100
-10.791200 3.968800
-10.767600 4.303200
-10.743900 4.616400
-10.720300 4.902900
-10.696700 5.800600
-10.673100 6.252800
-10.649500 5.291600
-10.625800 8.355200
-10.602200 6.096600
-10.578600 6.093400
-10.555000 6.099700
-10.531300 6.071800
-10.507700 6.009400
-10.484100 5.912800
-10.460500 5.846200
-10.436900 5.667500
-10.413200 5.408500
-10.389600 5.143600
-10.366000 4.940300
-10.342400 4.776900
-10.318800 4.659000
-10.295100 4.586000
-10.271500 4.412800
-10.247900 4.587800
-10.224300 4.637500
-10.200700 4.579100
-10.177000 4.697400
-10.153400 5.385700
-10.129800 5.381700
-10.106200 3.990900
-10.082500 2.611700
-10.058900 2.421700
-10.035300 2.253600
-10.011700 2.129700
-9.988100 2.069800
-9.964400 2.052300
-9.940800 2.077200
-9.917200 2.143500
-9.893600 2.278600
-9.870000 3.134400
-9.846300 4.130800
-9.822700 5.162900
-9.799100 7.199400
-9.775500 5.631400
-9.751900 5.832300
-9.728200 6.012600
-9.704600 6.227900
-9.681000 6.314900
-9.657400 7.090700
-9.633700 6.117800
-9.610100 5.450100
-9.586500 5.649100
-9.562900 6.140900
-9.539300 6.624200
-9.515600 6.784900
-9.492000 6.790200
-9.468400 6.232800
-9.444800 5.862900
-9.421200 6.286100
-9.397500 5.738900
-9.373900 3.641600
-9.350300 3.044000
-9.326700 2.556100
-9.303100 2.339300
-9.279400 1.952900
-9.255800 1.576400
-9.232200 1.287800
-9.208600 1.179800
-9.184900 1.254800
-9.161300 1.509600
-9.137700 2.006100
-9.114100 2.033700
-9.090500 2.074700
-9.066800 2.172200
-9.043200 2.351400
-9.019600 2.739300
-8.996000 3.177700
-8.972400 4.752100
-8.948700 6.310300
-8.925100 7.407200
-8.901500 7.523700
-8.877900 8.775700
-8.854300 9.418900
-8.830600 11.842800
-8.807000 14.732400
-8.783400 15.954100
-8.759800 11.419300
-8.736100 10.775200
-8.712500 13.192200
-8.688900 12.791700
-8.665300 7.894300
-8.641700 7.514600
-8.618000 9.897300
-8.594400 16.677200
-8.570800 20.895300
-8.547200 20.205300
-8.523600 15.869100
-8.499900 15.578400
-8.476300 14.413800
-8.452700 12.955000
-8.429100 16.385300
-8.405500 7.778600
-8.381800 5.045800
-8.358200 3.527800
-8.334600 2.766100
-8.311000 2.116500
-8.287300 1.685800
-8.263700 1.344500
-8.240100 1.041500
-8.216500 0.777000
-8.192900 0.551900
-8.169200 0.366400
-8.145600 0.220400
-8.122000 0.111900
-8.098400 0.039800
-8.074800 0.004200
-8.051100 0.000000
-8.027500 0.000000
-8.003900 0.000000
-7.980300 0.000000
-7.956700 0.000000
-7.933000 0.000000
-7.909400 0.000000
-7.885800 0.000000
-7.862200 0.000000
-7.838500 0.000000
-7.814900 0.000000
-7.791300 0.000000
-7.767700 0.000000
-7.744100 0.000000
-7.720400 0.000000
-7.696800 0.000000
-7.673200 0.000000
-7.649600 0.000000
-7.626000 0.000000
-7.602300 0.000000
-7.578700 0.000000
-7.555100 0.000000
-7.531500 0.000000
-7.507900 0.000000
-7.484200 0.000000
-7.460600 0.000000
-7.437000 0.000000
-7.413400 0.000000
-7.389700 0.000000
-7.366100 0.000000
-7.342500 0.000000
-7.318900 0.000000
-7.295300 0.000000
-7.271600 0.000000
-7.248000 0.000200
-7.224400 0.003300
-7.200800 0.009800
-7.177200 0.019800
-7.153500 0.033200
-7.129900 0.050100
-7.106300 0.070400
-7.082700 0.094200
-7.059100 0.121500
-7.035400 0.152200
-7.011800 0.186400
-6.988200 0.224100
-6.964600 0.676400
-6.940900 1.120800
-6.917300 1.535200
-6.893700 1.988300
-6.870100 2.297100
-6.846500 2.505600
-6.822800 2.679000
-6.799200 2.817300
-6.775600 2.920500
-6.752000 2.988600
-6.728400 3.021600
-6.704700 3.219900
-6.681100 3.533900
-6.657500 3.682700
-6.633900 3.525500
-6.610300 3.563200
-6.586600 3.732400
-6.563000 3.783600
-6.539400 3.791500
-6.515800 3.760500
-6.492100 3.658200
-6.468500 3.642000
-6.444900 3.804900
-6.421300 3.867300
-6.397700 3.938300
-6.374000 3.985400
-6.350400 4.016300
-6.326800 4.031200
-6.303200 4.252100
-6.279600 4.306000
-6.255900 4.114400
-6.232300 4.450200
-6.208700 4.667800
-6.185100 4.695300
-6.161500 6.266600
-6.137800 4.901000
-6.114200 4.737600
-6.090600 4.641400
-6.067000 4.582700
-6.043300 4.520500
-6.019700 4.370900
-5.996100 4.271500
-5.972500 4.159800
-5.948900 4.050400
-5.925200 3.946000
-5.901600 3.859900
-5.878000 3.792000
-5.854400 3.742400
-5.830800 3.853600
-5.807100 4.014400
-5.783500 3.988300
-5.759900 4.017100
-5.736300 4.116400
-5.712700 4.601600
-5.689000 4.461900
-5.665400 4.389400
-5.641800 4.314000
-5.618200 4.236600
-5.594500 4.151300
-5.570900 4.055300
-5.547300 3.954300
-5.523700 3.859700
-5.500100 3.762200
-5.476400 3.661800
-5.452800 3.482100
-5.429200 3.348500
-5.405600 3.316100
-5.382000 3.309000
-5.358300 3.303500
-5.334700 3.299500
-5.311100 3.297000
-5.287500 3.296200
-5.263900 3.297900
-5.240200 3.372400
-5.216600 3.893700
-5.193000 4.461300
-5.169400 5.306800
-5.145700 6.126100
-5.122100 7.059500
-5.098500 7.639800
-5.074900 7.879600
-5.051300 7.831800
-5.027600 8.165200
-5.004000 7.174000
-4.980400 6.348200
-4.956800 5.930100
-4.933200 5.405200
-4.909500 5.920600
-4.885900 6.414900
-4.862300 4.318200
-4.838700 4.229700
-4.815100 4.132500
-4.791400 4.082100
-4.767800 4.106100
-4.744200 4.247700
-4.720600 4.203100
-4.696900 4.074700
-4.673300 4.090900
-4.649700 4.124400
-4.626100 4.175200
-4.602500 4.243300
-4.578800 4.328700
-4.555200 4.624200
-4.531600 4.424000
-4.508000 4.138300
-4.484400 4.151800
-4.460700 4.227500
-4.437100 4.306700
-4.413500 4.397500
-4.389900 4.517000
-4.366300 4.752800
-4.342600 5.005500
-4.319000 5.321900
-4.295400 5.729300
-4.271800 6.125500
-4.248200 6.321200
-4.224500 6.376200
-4.200900 6.318300
-4.177300 6.192700
-4.153700 6.040600
-4.130000 5.862000
-4.106400 5.657000
-4.082800 5.398800
-4.059200 4.837700
-4.035600 4.121400
-4.011900 3.943000
-3.988300 3.700000
-3.964700 3.481700
-3.941100 3.293700
-3.917500 3.137000
-3.893800 3.009900
-3.870200 2.931700
-3.846600 3.038700
-3.823000 2.883400
-3.799400 2.844500
-3.775700 2.886100
-3.752100 2.981200
-3.728500 3.082300
-3.704900 3.181400
-3.681200 3.349200
-3.657600 3.417900
-3.634000 3.693400
-3.610400 4.028600
-3.586800 4.197300
-3.563100 4.443100
-3.539500 4.971000
-3.515900 5.064000
-3.492300 7.671600
-3.468700 9.177600
-3.445000 5.444700
-3.421400 5.134000
-3.397800 5.103300
-3.374200 5.282700
-3.350600 5.963900
-3.326900 6.693500
-3.303300 7.646200
-3.279700 6.725300
-3.256100 5.712200
-3.232400 6.213600
-3.208800 6.251900
-3.185200 6.504400
-3.161600 5.897200
-3.138000 4.618600
-3.114300 4.564800
-3.090700 4.522400
-3.067100 5.506900
-3.043500 5.066800
-3.019900 4.064300
-2.996200 3.747600
-2.972600 4.045600
-2.949000 4.060900
-2.925400 4.248100
-2.901800 4.419700
-2.878100 4.442900
-2.854500 4.639200
-2.830900 4.973000
-2.807300 5.344800
-2.783600 6.407100
-2.760000 6.337300
-2.736400 5.827100
-2.712800 5.075100
-2.689200 4.844400
-2.665500 5.029800
-2.641900 5.049100
-2.618300 5.058200
-2.594700 5.201300
-2.571100 5.509500
-2.547400 6.023500
-2.523800 6.958800
-2.500200 8.136900
-2.476600 9.709300
-2.453000 12.657600
-2.429300 13.724900
-2.405700 11.242200
-2.382100 8.429400
-2.358500 6.199700
-2.334800 4.683400
-2.311200 3.936600
-2.287600 4.977500
-2.264000 5.035300
-2.240400 5.183600
-2.216700 6.180500
-2.193100 6.789400
-2.169500 7.289000
-2.145900 7.411900
-2.122300 6.911100
-2.098600 6.172000
-2.075000 5.390600
-2.051400 4.921200
-2.027800 4.418300
-2.004200 4.921700
-1.980500 6.341300
-1.956900 8.917100
-1.933300 10.591900
-1.909700 13.694400
-1.886000 10.129500
-1.862400 9.770300
-1.838800 9.738800
-1.815200 10.047700
-1.791600 10.589000
-1.767900 11.320800
-1.744300 11.482400
-1.720700 9.362600
-1.697100 7.589900
-1.673500 6.876100
-1.649800 6.489300
-1.626200 6.644300
-1.602600 7.290400
-1.579000 8.733300
-1.555400 9.824600
-1.531700 9.353400
-1.508100 9.190700
-1.484500 8.790600
-1.460900 8.599200
-1.437200 8.166500
-1.413600 7.520600
-1.390000 6.736000
-1.366400 6.340400
-1.342800 6.086500
-1.319100 7.665200
-1.295500 8.217600
-1.271900 7.622600
-1.248300 7.372700
-1.224700 7.162600
-1.201000 7.022900
-1.177400 8.545500
-1.153800 9.053000
-1.130200 9.301900
-1.106600 11.714200
-1.082900 10.442500
-1.059300 10.314700
-1.035700 8.143100
-1.012100 6.558700
-0.988400 5.438500
-0.964800 5.353900
-0.941200 5.032400
-0.917600 4.791700
-0.894000 4.636800
-0.870300 4.567600
-0.846700 4.571700
-0.823100 4.629800
-0.799500 4.707900
-0.775900 4.824900
-0.752200 6.314700
-0.728600 8.068300
-0.705000 8.191400
-0.681400 6.457600
-0.657800 6.051400
-0.634100 5.808600
-0.610500 5.660400
-0.586900 5.609900
-0.563300 5.680000
-0.539600 5.740000
-0.516000 5.830900
-0.492400 5.957200
-0.468800 6.581100
-0.445200 7.577900
-0.421500 10.481300
-0.397900 13.589100
-0.374300 16.005400
-0.350700 15.762300
-0.327100 14.727600
-0.303400 13.794000
-0.279800 12.239600
-0.256200 10.527200
-0.232600 9.979700
-0.209000 10.038800
-0.185300 11.765000
-0.161700 12.371000
-0.138100 11.340800
-0.114500 11.348400
-0.090800 11.582800
-0.067200 48.478700
-0.043600 9.391500
-0.020000 8.359500
0.003600 7.799800
0.027300 7.808200
0.050900 8.114400
0.074500 8.193300
0.098100 8.148400
0.121700 8.012300
0.145400 8.162300
0.169000 8.079100
0.192600 8.247000
0.216200 8.011400
0.239800 7.575600
0.263500 8.020800
0.287100 8.671400
0.310700 10.092900
0.334300 15.389400
0.358000 10.590200
0.381600 9.689500
0.405200 8.924700
0.428800 8.330000
0.452400 8.158200
0.476100 8.617000
0.499700 10.317200
0.523300 10.520000
0.546900 11.143600
0.570500 11.510300
0.594200 14.108200
0.617800 11.621000
0.641400 9.415900
0.665000 12.631200
0.688600 18.597000
0.712300 17.502400
0.735900 10.377500
0.759500 7.550300
0.783100 7.359300
0.806800 8.714500
0.830400 12.531600
0.854000 24.278200
0.877600 11.942300
0.901200 10.504900
0.924900 9.767300
0.948500 8.831000
0.972100 9.491600
0.995700 12.361000
1.019300 13.529900
1.043000 10.337500
1.066600 6.475500
1.090200 7.322700
1.113800 9.649400
1.137400 10.914500
1.161100 11.130600
1.184700 10.948700
1.208300 10.545600
1.231900 7.828700
1.255600 7.408100
1.279200 9.046900
1.302800 10.565800
1.326400 10.771400
1.350000 6.363400
1.373700 4.317100
1.397300 5.152400
1.420900 6.390500
1.444500 6.850200
1.468100 8.083600
1.491800 9.797700
1.515400 11.525100
1.539000 11.424200
1.562600 10.302700
1.586200 9.200000
1.609900 8.372500
1.633500 7.676600
1.657100 13.254800
1.680700 9.430000
1.704400 7.111300
1.728000 5.946200
1.751600 5.102000
1.775200 4.345000
1.798800 3.920800
1.822500 3.904300
1.846100 3.864700
1.869700 3.801800
1.893300 3.985700
1.916900 4.615800
1.940600 4.935900
1.964200 5.052100
1.987800 5.235900
2.011400 14.246100
2.035000 8.326300
2.058700 5.677200
2.082300 5.139700
2.105900 5.533800
2.129500 6.296000
2.153200 8.008100
2.176800 9.212800
2.200400 10.912100
2.224000 11.094100
2.247600 7.484400
2.271300 8.640500
2.294900 7.934800
2.318500 7.596700
2.342100 7.504900
2.365700 7.202100
2.389400 7.246300
2.413000 6.407100
2.436600 5.566300
2.460200 4.757700
2.483800 4.403900
2.507500 4.276700
2.531100 4.229200
2.554700 4.261500
2.578300 4.923600
2.602000 5.210800
2.625600 5.432200
2.649200 4.966500
2.672800 4.114200
2.696400 2.918700
2.720100 1.380000
2.743700 0.527000
2.767300 0.045400
2.790900 0.000000
2.814500 0.000000
2.838200 0.000000
2.861800 0.000000
2.885400 0.000000
2.909000 0.000000
2.932600 0.000000
2.956300 0.000000
2.979900 0.000000
3.003500 0.000000
3.027100 0.000000
3.050800 0.000000
3.074400 0.000000
3.098000 0.000000
3.121600 0.000000
3.145200 0.000000
3.168900 0.000000
3.192500 0.000000
3.216100 0.000000
3.239700 0.000300
3.263300 0.021000
3.287000 0.049800
3.310600 0.083500
3.334200 0.122400
3.357800 0.166300
3.381400 0.215000
3.405100 0.266000
3.428700 0.318400
3.452300 0.372500
3.475900 0.428100
3.499600 0.485300
3.523200 0.544000
3.546800 0.604300
3.570400 0.666100
3.594000 0.729600
3.617700 0.794500
3.641300 0.861100
3.664900 0.929200
3.688500 0.998900
3.712100 1.082100
3.735800 1.187100
3.759400 1.306100
3.783000 1.430700
3.806600 1.582100
3.830200 1.744000
3.853900 1.916800
3.877500 2.100500
3.901100 2.295100
3.924700 2.373200
3.948300 2.447600
3.972000 2.524900
3.995600 2.608000
4.019200 2.717000
4.042800 2.834000
4.066500 4.056800
4.090100 4.192600
4.113700 3.985200
4.137300 3.807600
4.160900 3.659200
4.184600 3.535300
4.208200 3.434800
4.231800 3.357700
4.255400 3.303900
4.279000 3.273500
4.302700 3.480700
4.326300 4.768700
4.349900 7.054900
4.373500 5.350000
4.397100 3.658600
4.420800 2.496900
4.444400 2.606100
4.468000 2.723400
4.491600 2.848600
4.515300 3.138500
4.538900 3.771000
4.562500 4.749800
4.586100 5.985700
4.609700 7.453600
4.633400 6.178700
4.657000 4.962800
4.680600 4.214000
4.704200 3.725400
4.727800 3.406600
4.751500 3.070100
4.775100 3.082300
4.798700 3.873200
4.822300 5.928800
4.845900 1.998100
4.869600 2.367500
4.893200 2.710600
4.916800 3.027500
4.940400 3.318100
4.964100 3.582400
4.987700 3.485700
5.011300 3.540200
5.034900 3.613500
5.058500 3.725600
5.082200 4.073500
5.105800 4.378600
5.129400 4.579400
5.153000 5.177300
5.176600 7.334600
5.200300 8.472900
5.223900 9.527200
5.247500 10.214500
5.271100 10.916500
5.294700 9.543100
5.318400 9.280900
5.342000 9.184900
5.365600 8.940500
5.389200 7.031800
5.412900 6.313800
5.436500 5.794100
5.460100 6.113800
5.483700 7.181300
5.507300 2.094400
5.531000 1.563600
5.554600 2.010200
5.578200 3.530500
5.601800 4.761500
5.625400 6.108400
5.649100 7.571300
5.672700 12.682300
5.696300 11.151600
5.719900 12.647900
5.743500 33.087200
5.767200 12.353400
5.790800 11.743100
5.814400 10.480800
5.838000 7.988500
5.861700 6.695800
5.885300 5.774600
5.908900 5.238900
5.932500 5.104600
5.956100 5.140100
5.979800 5.357600
6.003400 5.461700
6.027000 6.197600
6.050600 15.413800
6.074200 10.844700
6.097900 12.133400
6.121500 13.116900
6.145100 14.516900
6.168700 12.569200
6.192300 8.968100
6.216000 7.416000
6.239600 7.792200
6.263200 9.250600
6.286800 8.175200
6.310500 6.791100
6.334100 6.171500
6.357700 12.899000
6.381300 11.506100
6.404900 12.327500
6.428600 10.859600
6.452200 14.346500
6.475800 12.524500
6.499400 12.766200
6.523000 11.909400
6.546700 11.027800
6.570300 9.973400
6.593900 8.714400
6.617500 7.259400
6.641100 7.530400
6.664800 10.190700
6.688400 9.351900
6.712000 7.117400
6.735600 6.335400
6.759300 5.591500
6.782900 6.095500
6.806500 7.736500
6.830100 9.569000
6.853700 10.228600
6.877400 11.390600
6.901000 11.057800
6.924600 10.257800
6.948200 9.776400
6.971800 9.311000
6.995500 8.897700
7.019100 12.309200
7.042700 10.096500
7.066300 9.679000
7.089900 8.645400
7.113600 8.834700
7.137200 9.011100
7.160800 9.577900
7.184400 9.811200
7.208100 10.343000
7.231700 10.660300
7.255300 9.172000
7.278900 8.564500
7.302500 10.140500
7.326200 9.590600
7.349800 8.907000
7.373400 8.930600
7.397000 9.276500
7.420600 8.605400
7.444300 8.399000
7.467900 8.148400
7.491500 8.954800
7.515100 10.532800
7.538700 10.827700
7.562400 8.601200
7.586000 5.477200
7.609600 3.742700
7.633200 4.072100
7.656900 5.271200
7.680500 7.751300
7.704100 12.940100
7.727700 18.557800
7.751300 15.046800
7.775000 11.279600
7.798600 17.150100
7.822200 17.101900
7.845800 12.221300
7.869400 6.994600
7.893100 6.896300
7.916700 6.278300
7.940300 3.444700
7.963900 2.679700
7.987500 2.008300
8.011200 1.402600
8.034800 1.304100
8.058400 1.304200
8.082000 1.304400
8.105700 1.304600
8.129300 1.304900
8.152900 1.305200
8.176500 1.305500
8.200100 1.305900
8.223800 1.306300
8.247400 1.306700
8.271000 1.307200
8.294600 1.307800
8.318200 1.308300
8.341900 1.309000
8.365500 1.309600
8.389100 1.310300
8.412700 1.311000
8.436300 1.311800
8.460000 1.377700
8.483600 1.712000
8.507200 1.711300
8.530800 1.710600
8.554500 1.710000
8.578100 1.709500
8.601700 1.709100
8.625300 1.708700
8.648900 1.708400
8.672600 1.708200
8.696200 1.708100
8.719800 1.708000
8.743400 1.708000
8.767000 1.708100
8.790700 1.708200
8.814300 1.683600
8.837900 1.353700
8.861500 0.927600
8.885100 0.000000
8.908800 0.000000
8.932400 0.000000
8.956000 0.000000
8.979600 0.000000
9.003300 0.000000
9.026900 0.000000
9.050500 0.000000
9.074100 0.000000
9.097700 0.000000
9.121400 0.000000
9.145000 0.000000
9.168600 0.000000
9.192200 0.000000
9.215800 0.000000
9.239500 0.000000
9.263100 0.000000
9.286700 0.000000
9.310300 0.000000
9.333900 0.000000
9.357600 0.000000
9.381200 0.000000
9.404800 0.000000
9.428400 0.000000
9.452100 0.000000
9.475700 0.000000
9.499300 0.000000
9.522900 0.000000
9.546500 0.000000
9.570200 0.000000
9.593800 0.000000
9.617400 0.000000
9.641000 0.000000
9.664600 0.000000
9.688300 0.000000
9.711900 0.000000
9.735500 0.000000
9.759100 0.000000
9.782700 0.000000
9.806400 0.000000
9.830000 0.000000
9.853600 0.000000
9.877200 0.000000
9.900900 0.000000
9.924500 0.000000
9.948100 0.000000
9.971700 0.000000
9.995300 0.000000
10.019000 0.000000
10.042600 0.000000
10.066200 0.000000
10.089800 0.000000
10.113400 0.000000
10.137100 0.000000
10.160700 0.000000
10.184300 0.000000
10.207900 0.000000
10.231500 0.000000
10.255200 0.000000
10.278800 0.000000
10.302400 0.000000
10.326000 0.000000
10.349700 0.000000
10.373300 0.000000
10.396900 0.000000
10.420500 0.000000
10.444100 0.000000
10.467800 0.000000
10.491400 0.000000
10.515000 0.000000
10.538600 0.000000
10.562200 0.000000
10.585900 0.000000
10.609500 0.000000
10.633100 0.000000
10.656700 0.000000
10.680300 0.000000
10.704000 0.000000
10.727600 0.000000
10.751200 0.000000
10.774800 0.000000
10.798500 0.000000
10.822100 0.000000
10.845700 0.000000
10.869300 0.000000
10.892900 0.000000
10.916600 0.000000
10.940200 0.000000
10.963800 0.000000
10.987400 0.000000
11.011000 0.000000
11.034700 0.000000
11.058300 0.000000
11.081900 0.000000
11.105500 0.000000
11.129100 0.000000
11.152800 0.000000
11.176400 0.000000
11.200000 0.000000
11.223600 0.000000
11.247300 0.000000
11.270900 0.000000
11.294500 0.000000
11.318100 0.000000
11.341700 0.000000
11.365400 0.000000
11.389000 0.000000
11.412600 0.000000
11.436200 0.000000
11.459800 0.000000
11.483500 0.000000
11.507100 0.000000
11.530700 0.000000
11.554300 0.000000
11.577900 0.000000
11.601600 0.000000
11.625200 0.000000
11.648800 0.000000
11.672400 0.000000
11.696100 0.000000
11.719700 0.000000
11.743300 0.000000
11.766900 0.000000
11.790500 0.000000
11.814200 0.000000
11.837800 0.000000
11.861400 0.000000
11.885000 0.000000
11.908600 0.000000
11.932300 0.000000
11.955900 0.000000
11.979500 0.000000
12.003100 0.000000
12.026700 0.000000
12.050400 0.000000
12.074000 0.000000
12.097600 0.000000
12.121200 0.000000
12.144800 0.000000
12.168500 0.000000
12.192100 0.000000
12.215700 0.000000
12.239300 0.000000
12.263000 0.000000
12.286600 0.000000
12.310200 0.000000
12.333800 0.000000
12.357400 0.000000
12.381100 0.000000
12.404700 0.000000
12.428300 0.000000
12.451900 0.000000
12.475500 0.000000
12.499200 0.000000
12.522800 0.000000
12.546400 0.000000
12.570000 0.000000
12.593600 0.000000
12.617300 0.000000
12.640900 0.000000
12.664500 0.000000
12.688100 0.000000
12.711800 0.300100
12.735400 1.494400
12.759000 2.752200
12.782600 3.435700
12.806200 3.275100
12.829900 3.906800
12.853500 4.627400
12.877100 5.436900
12.900700 6.335300
12.924300 7.322600
12.948000 7.861300
12.971600 9.710400
12.995200 10.637900
13.018800 8.945800
13.042400 11.055600
13.066100 12.181700
13.089700 9.726600
13.113300 8.900300
13.136900 7.606400
13.160600 6.901400
13.184200 7.144800
13.207800 7.559700
13.231400 7.177300
13.255000 6.968600
13.278700 7.210400
13.302300 7.216800
13.325900 6.567500
13.349500 5.170700
13.373100 4.697000
13.396800 4.547500
13.420400 4.624100
13.444000 4.694500
13.467600 4.698800
13.491200 5.160700
13.514900 5.482600
13.538500 6.025200
13.562100 6.978700
13.585700 7.640600
13.609400 7.837400
13.633000 8.390800
13.656600 8.725000
13.680200 9.173200
13.703800 9.418800
13.727500 10.430800
13.751100 11.063700
13.774700 11.610400
13.798300 11.530400
13.821900 11.721300
13.845600 12.179800
13.869200 12.080800
13.892800 11.397600
13.916400 12.464800
13.940000 9.348500
13.963700 9.900200
13.987300 9.668900
14.010900 8.742700
14.034500 8.892800
14.058200 8.796200
14.081800 8.793700
14.105400 8.909700
14.129000 9.111500
14.152600 9.677600
14.176300 11.473600
14.199900 13.117800
14.223500 13.835700
14.247100 12.870200
14.270700 12.120700
14.294400 10.171100
14.318000 9.233500
14.341600 8.507100
14.365200 8.807800
14.388800 8.742900
14.412500 8.696800
14.436100 8.620900
14.459700 8.595600
14.483300 9.140200
14.507000 9.508900
14.530600 9.833600
14.554200 9.734800
14.577800 9.732800
14.601400 10.480100
14.625100 11.090000
14.648700 11.652900
14.672300 11.652400
14.695900 14.101500
14.719500 15.148600
14.743200 15.891600
14.766800 13.604600
14.790400 8.449700
14.814000 8.172700
14.837600 8.156400
14.861300 8.388500
14.884900 8.881800
14.908500 9.429100
14.932100 7.966300
14.955800 8.851100
14.979400 9.811900
15.003000 11.537700
15.026600 11.659800
15.050200 11.955000
15.073900 13.091500
15.097500 11.691200
15.121100 8.788900
15.144700 6.603500
15.168300 5.407300
15.192000 4.800200
15.215600 4.866900
15.239200 9.388900
15.262800 11.206300
15.286400 16.307100
15.310100 7.506000
15.333700 7.553200
15.357300 7.831000
15.380900 8.302100
15.404600 9.079500
15.428200 9.666100
15.451800 9.002100
15.475400 7.725500
15.499000 7.406900
15.522700 7.442600
15.546300 7.566600
15.569900 8.309000
15.593500 9.632400
15.617100 10.710300
15.640800 11.695000
15.664400 12.319400
15.688000 13.851100
15.711600 11.596900
15.735200 9.880900
15.758900 9.170200
15.782500 16.146500
15.806100 10.000200
15.829700 9.174200
15.853400 9.001200
15.877000 11.176900
15.900600 11.061100
15.924200 10.343800
15.947800 9.689300
15.971500 9.360800
15.995100 9.585100
16.018700 10.237700
16.042300 12.286700
16.065900 18.099500
16.089600 19.300600
16.113200 12.512500
16.136800 9.550300
16.160400 9.034700
16.184000 8.925700
16.207700 9.031500
16.231300 9.766600
16.254900 8.928700
16.278500 6.896300
16.302200 4.406200
16.325800 4.084200
16.349400 4.069200
16.373000 7.339800
16.396600 12.015800
16.420300 13.472900
16.443900 12.850300
16.467500 15.023300
16.491100 11.380400
16.514700 11.715300
16.538400 11.752300
16.562000 12.077200
16.585600 10.767800
16.609200 10.401800
16.632800 12.183600
16.656500 8.414200
16.680100 7.140200
16.703700 10.279400
16.727300 9.762200
16.751000 12.358600
16.774600 14.381800
16.798200 12.486100
16.821800 9.855400
16.845400 9.436100
16.869100 9.137000
16.892700 9.202100
16.916300 7.781300
16.939900 6.883200
16.963500 6.293400
16.987200 5.714100
17.010800 5.754700
17.034400 6.801600
17.058000 5.879200
17.081600 7.144100
17.105300 7.562400
17.128900 8.482200
17.152500 9.208600
17.176100 8.042500
17.199800 8.066100
17.223400 8.605100
17.247000 9.152300
17.270600 9.760000
17.294200 10.334400
17.317900 11.052100
17.341500 10.993300
17.365100 10.847600
17.388700 10.595700
17.412300 10.567400
17.436000 10.517600
17.459600 13.585400
17.483200 9.789100
17.506800 8.133200
17.530400 8.117400
17.554100 8.141800
17.577700 9.043100
17.601300 7.883200
17.624900 6.692100
17.648600 5.744500
17.672200 6.027900
17.695800 6.920300
17.719400 9.050000
17.743000 13.620900
17.766700 11.802700
17.790300 9.254300
17.813900 7.537000
17.837500 6.990400
17.861100 6.957200
17.884800 7.121100
17.908400 7.234600
17.932000 7.542300
17.955600 7.932500
17.979200 8.422100
18.002900 8.920400
18.026500 9.740600
18.050100 11.766400
18.073700 10.759100
18.097400 10.815600
18.121000 9.570700
18.144600 9.823200
18.168200 10.222300
18.191800 11.127600
18.215500 10.977400
18.239100 10.016600
18.262700 10.475500
18.286300 11.312900
18.309900 11.574400
18.333600 10.441000
18.357200 9.892000
18.380800 8.850200
18.404400 8.492000
18.428000 8.409500
18.451700 9.002400
18.475300 9.906300
18.498900 10.516900
18.522500 10.887700
18.546200 11.283800
18.569800 11.286300
18.593400 10.875400
18.617000 10.071700
18.640600 10.062000
18.664300 10.929000
18.687900 12.122900
18.711500 11.034800
18.735100 9.383600
18.758700 8.511800
18.782400 7.768100
18.806000 8.180900
18.829600 8.189200
18.853200 8.610100
18.876800 11.682300
18.900500 15.965000
18.924100 14.224200
18.947700 11.498900
18.971300 11.760300
18.995000 11.211700
19.018600 10.614200
19.042200 9.882300
19.065800 10.093800
19.089400 6.928200
19.113100 4.394600
19.136700 5.358200
19.160300 6.588200
19.183900 7.734400
19.207500 9.461300
19.231200 11.602900
19.254800 11.380900
19.278400 11.234300
19.302000 8.559500
19.325600 8.041100
19.349300 7.880600
19.372900 7.354400
19.396500 8.333200
19.420100 14.140200
19.443800 11.352200
19.467400 8.579300
19.491000 6.641100
19.514600 6.904400
19.538200 7.187800
19.561900 6.958800
19.585500 6.577200
19.609100 6.141900
19.632700 8.104400
19.656300 13.538600
19.680000 10.969300
19.703600 9.909900
19.727200 8.495600
19.750800 8.285500
19.774400 8.010200
19.798100 7.786100
19.821700 7.946700
19.845300 7.498600
19.868900 8.778100
19.892600 3.956000
19.916200 3.991900
19.939800 4.609300
19.963400 7.207700
19.987000 8.134600
20.010700 7.462300
20.034300 7.910300
20.057900 8.248300
20.081500 9.886600
20.105100 13.511600
20.128800 11.004200
20.152400 13.882900
20.176000 13.231400
20.199600 12.860300
20.223200 12.624400
20.246900 12.718600
20.270500 13.372300
20.294100 11.569000
20.317700 10.540800
20.341300 9.690600
20.365000 9.012100
20.388600 9.766400
20.412200 9.450900
20.435800 10.220800
20.459500 10.726300
20.483100 9.776000
20.506700 7.584800
20.530300 7.810700
20.553900 7.896300
20.577600 8.412200
20.601200 9.025400
20.624800 9.326100
20.648400 10.864900
20.672000 10.549700
20.695700 8.847400
20.719300 5.506700
20.742900 5.504300
20.766500 9.813800
20.790100 12.027400
20.813800 10.932800
20.837400 10.082400
20.861000 9.010600
20.884600 8.128000
20.908300 7.522400
20.931900 7.051800
20.955500 7.416800
20.979100 9.799000
21.002700 7.628200
21.026400 7.610100
21.050000 7.638200
21.073600 7.630500
21.097200 7.743400
21.120800 8.604900
21.144500 9.720000
21.168100 10.006500
21.191700 7.783200
21.215300 6.726400
21.238900 5.862200
21.262600 4.968800
21.286200 9.692200
21.309800 13.396900
21.333400 13.053000
21.357100 9.768600
21.380700 8.998400
21.404300 9.066700
21.427900 8.464600
21.451500 8.771700
21.475200 9.662500
21.498800 10.259000
21.522400 10.599900
21.546000 10.398400
21.569600 9.345000
21.593300 9.159300
21.616900 7.609500
21.640500 7.058500
21.664100 6.493400
21.687700 5.666300
21.711400 5.544100
21.735000 5.531700
21.758600 5.647700
21.782200 10.638000
21.805900 11.429700
21.829500 11.391900
21.853100 13.677900
21.876700 14.284200
21.900300 13.903300
21.924000 13.248100
21.947600 11.582400
21.971200 10.086900
21.994800 9.138200
22.018400 8.968000
22.042100 8.865700
22.065700 9.120200
22.089300 7.872200
22.112900 6.458600
22.136500 4.775700
22.160200 6.302700
22.183800 6.098100
22.207400 4.790400
22.231000 3.443300
22.254700 4.794600
22.278300 4.037700
22.301900 4.153000
22.325500 4.703300
22.349100 5.209600
22.372800 5.793200
22.396400 6.499300
22.420000 7.403800
22.443600 7.730200
22.467200 7.150700
22.490900 6.243700
22.514500 6.487500
22.538100 5.636300
22.561700 6.502900
22.585300 9.054500
22.609000 11.353000
22.632600 13.172200
22.656200 14.169100
22.679800 13.407100
22.703500 11.789900
22.727100 7.108900
22.750700 5.389700
22.774300 5.333100
22.797900 9.385200
22.821600 11.033900
22.845200 11.752600
22.868800 7.116200
22.892400 8.710100
22.916000 11.128000
22.939700 8.675400
22.963300 8.062200
22.986900 7.712100
23.010500 7.644300
23.034100 7.899100
23.057800 8.646100
23.081400 8.939300
23.105000 9.920500
23.128600 11.934300
23.152300 8.896700
23.175900 8.259500
23.199500 9.548700
23.223100 9.955300
23.246700 10.856900
23.270400 13.974500
23.294000 14.628800
23.317600 14.218700
23.341200 9.814000
23.364800 9.986400
23.388500 11.297300
23.412100 10.630600
23.435700 9.181300
23.459300 9.402100
23.482900 9.319700
23.506600 10.891600
23.530200 6.280200
23.553800 4.698000
23.577400 5.127900
23.601100 5.290600
23.624700 8.133100
23.648300 12.131900
23.671900 14.131400
23.695500 12.276500
23.719200 7.801200
23.742800 5.126400
23.766400 4.551600
23.790000 5.677300
23.813600 13.364000
23.837300 15.628200
23.860900 15.088800
23.884500 12.280800
23.908100 10.398200
23.931700 8.844800
23.955400 7.557300
23.979000 6.700300
24.002600 6.018000
24.026200 7.906300
24.049900 6.180800
24.073500 7.673000
24.097100 9.869400
24.120700 14.167800
24.144300 12.248100
24.168000 11.237300
24.191600 8.796600
24.215200 6.597900
24.238800 5.634500
24.262400 6.765500
24.286100 8.234000
24.309700 10.258000
24.333300 10.736100
24.356900 9.049400
24.380500 11.255400
24.404200 6.204400
24.427800 6.418600
24.451400 7.395900
24.475000 13.501700
24.498700 16.502500
24.522300 17.724700
24.545900 14.649000
24.569500 11.940500
24.593100 9.915100
24.616800 8.440700
24.640400 7.716800
24.664000 7.507000
24.687600 8.670300
24.711200 12.915300
24.734900 11.407100
24.758500 10.178900
24.782100 8.870000
24.805700 8.981200
24.829300 0.712000
24.853000 0.867900
24.876600 2.817400
24.900200 12.384200
24.923800 13.128500
24.947500 15.669100
24.971100 17.964100
24.994700 17.494900
25.018300 16.489500
25.041900 14.854200
25.065600 12.629500
25.089200 11.211500
25.112800 9.777300
25.136400 8.562400
25.160000 7.843400
25.183700 6.810200
25.207300 5.105500
25.230900 4.081600
25.254500 4.154700
25.278100 6.013600
25.301800 6.945100
25.325400 7.381600
25.349000 8.058300
25.372600 9.039500
25.396300 9.167400
25.419900 8.725500
25.443500 7.744100
25.467100 6.880200
25.490700 7.145400
25.514400 11.125900
25.538000 13.685500
25.561600 16.844600
25.585200 18.197400
25.608800 14.306100
25.632500 5.759700
25.656100 5.039100
25.679700 6.405300
25.703300 4.750300
25.726900 4.595900
25.750600 4.516000
25.774200 5.343600
25.797800 5.782600
25.821400 5.913300
25.845100 5.994500
25.868700 6.062300
25.892300 6.439600
25.915900 6.565800
25.939500 6.367100
25.963200 5.951500
25.986800 5.756600
26.010400 5.592400
26.034000 5.694800
26.057600 5.724800
26.081300 7.172600
26.104900 6.952500
26.128500 5.270000
26.152100 5.523500
26.175700 5.977200
26.199400 6.271800
26.223000 6.209900
26.246600 5.811900
26.270200 4.766800
26.293900 3.442300
26.317500 2.345900
26.341100 2.885100
26.364700 3.462400
26.388300 5.036100
26.412000 6.977100
26.435600 8.630300
26.459200 11.922200
26.482800 11.089400
26.506400 9.381200
26.530100 8.643700
26.553700 8.812400
26.577300 8.746700
26.600900 8.413800
26.624500 7.957800
26.648200 7.656200
26.671800 7.453600
26.695400 8.018200
26.719000 7.138700
26.742700 7.421500
26.766300 7.188500
26.789900 7.008100
26.813500 5.617600
26.837100 4.307700
26.860800 2.855600
26.884400 2.262000
26.908000 1.723400
26.931600 1.402300
26.955200 1.129900
26.978900 0.898900
27.002500 0.708700
27.026100 0.543900
27.049700 0.396000
27.073300 0.264900
27.097000 0.000000
27.120600 0.000000
27.144200 0.000000
27.167800 0.000000
27.191500 0.000000
27.215100 0.000000
27.238700 0.000000
27.262300 0.000000
27.285900 0.000000
27.309600 0.000000
27.333200 0.000000
27.356800 0.000000
27.380400 0.000000
27.404000 0.000000
27.427700 0.000000
27.451300 0.000000
27.474900 0.000000
27.498500 0.000000
27.522100 0.000000
27.545800 0.000000
27.569400 0.000000
27.593000 0.000000
27.616600 0.000000
27.640300 0.000000
27.663900 0.000000
27.687500 0.000000
27.711100 0.000000
27.734700 0.000000
27.758400 0.000000
27.782000 0.000000
27.805600 0.000000
27.829200 0.000000
27.852800 0.000000
27.876500 0.000000
27.900100 0.000000
27.923700 0.000000
27.947300 0.000000
27.970900 0.000000
27.994600 0.000000
28.018200 0.000000
28.041800 0.000000
28.065400 0.000000
28.089100 0.000000
28.112700 0.000000
28.136300 0.000000
28.159900 0.000000
28.183500 0.000000
28.207200 0.000000
28.230800 0.000000
28.254400 0.000000
28.278000 0.000000
28.301600 0.000000
28.325300 0.000000
28.348900 0.000000
28.372500 0.000000
28.396100 0.000000
28.419700 0.000000
28.443400 0.000000
28.467000 0.000000
28.490600 0.000000
28.514200 0.000000
28.537800 0.000000
28.561500 0.000000
28.585100 0.000000
28.608700 0.000000
28.632300 0.000000
28.656000 0.000000
28.679600 0.000000
28.703200 0.000000
28.726800 0.000000
28.750400 0.000000
28.774100 0.000000
28.797700 0.000000
28.821300 0.000000
28.844900 0.000000
28.868500 0.000000
28.892200 0.000000
28.915800 0.000000
28.939400 0.000000
28.963000 0.000000
28.986600 0.000000
29.010300 0.000000
29.033900 0.000000
29.057500 0.000000
29.081100 0.000000
29.104800 0.000000
29.128400 0.000000
29.152000 0.000000
29.175600 0.000000
29.199200 0.000000
29.222900 0.000000
e
