set title 'mp-8640 - Density of States'
set xlabel 'Energy (eV)'
set ylabel 'DOS (states/eV)'
set grid
set xrange [-10:10]
set yrange [0:1.966]
set xzeroaxis lt -1
set terminal png size 800,600
set output 'mp-8640_dos_gnuplot.png'
plot '-' using 1:2 with lines title 'DOS'
-31.596700 0.000000
-31.535300 0.000000
-31.473900 0.000000
-31.412500 0.000000
-31.351100 0.000000
-31.289700 0.000000
-31.228300 0.000000
-31.166900 0.000000
-31.105500 0.000000
-31.044100 0.000000
-30.982700 0.000000
-30.921300 0.000000
-30.859900 0.000000
-30.798400 0.000000
-30.737000 0.000000
-30.675600 0.000000
-30.614200 0.000000
-30.552800 0.000000
-30.491400 0.000000
-30.430000 0.000000
-30.368600 0.000000
-30.307200 0.000000
-30.245800 0.000000
-30.184400 0.000000
-30.123000 0.000000
-30.061600 0.000000
-30.000200 0.000000
-29.938800 0.000000
-29.877400 0.000000
-29.816000 0.000000
-29.754500 0.000000
-29.693100 0.000000
-29.631700 0.000000
-29.570300 0.000000
-29.508900 0.000000
-29.447500 0.000000
-29.386100 0.000000
-29.324700 0.000000
-29.263300 0.000000
-29.201900 0.000000
-29.140500 0.000000
-29.079100 0.000000
-29.017700 0.000000
-28.956300 0.000000
-28.894900 0.000000
-28.833500 0.000000
-28.772100 0.000000
-28.710600 0.000000
-28.649200 0.000000
-28.587800 0.000000
-28.526400 0.000000
-28.465000 0.000000
-28.403600 0.000000
-28.342200 0.000000
-28.280800 0.000000
-28.219400 0.000000
-28.158000 0.000000
-28.096600 0.000000
-28.035200 0.000000
-27.973800 0.000000
-27.912400 0.000000
-27.851000 0.000000
-27.789600 0.000000
-27.728200 0.000000
-27.666800 0.000000
-27.605300 0.000000
-27.543900 0.000000
-27.482500 0.000000
-27.421100 0.000000
-27.359700 0.000000
-27.298300 0.000000
-27.236900 0.000000
-27.175500 0.000000
-27.114100 0.000000
-27.052700 0.000000
-26.991300 0.000000
-26.929900 0.000000
-26.868500 0.000000
-26.807100 0.000000
-26.745700 0.000000
-26.684300 0.000000
-26.622900 0.000000
-26.561400 0.000000
-26.500000 0.000000
-26.438600 0.000000
-26.377200 0.000000
-26.315800 0.000000
-26.254400 0.000000
-26.193000 0.000000
-26.131600 0.000000
-26.070200 0.000000
-26.008800 0.646700
-25.947400 3.720300
-25.886000 8.813500
-25.824600 10.505400
-25.763200 2.561900
-25.701800 4.394500
-25.640400 5.159300
-25.579000 5.855700
-25.517500 6.546400
-25.456100 12.739400
-25.394700 13.646000
-25.333300 15.322600
-25.271900 6.593600
-25.210500 0.000000
-25.149100 0.000000
-25.087700 0.000000
-25.026300 0.000000
-24.964900 0.000000
-24.903500 0.000000
-24.842100 0.000000
-24.780700 0.000000
-24.719300 0.000000
-24.657900 0.000000
-24.596500 0.000000
-24.535100 0.000000
-24.473600 0.000000
-24.412200 0.000000
-24.350800 0.000000
-24.289400 0.000000
-24.228000 0.000000
-24.166600 0.000000
-24.105200 0.000000
-24.043800 0.000000
-23.982400 0.000000
-23.921000 0.000000
-23.859600 0.000000
-23.798200 0.000000
-23.736800 0.000000
-23.675400 0.000000
-23.614000 0.000000
-23.552600 0.000000
-23.491200 0.000000
-23.429700 0.000000
-23.368300 0.000000
-23.306900 0.000000
-23.245500 0.000000
-23.184100 0.000000
-23.122700 0.000000
-23.061300 0.000000
-22.999900 0.000000
-22.938500 0.000000
-22.877100 0.000000
-22.815700 0.000000
-22.754300 0.000000
-22.692900 0.000000
-22.631500 0.000000
-22.570100 0.000000
-22.508700 0.000000
-22.447300 0.000000
-22.385900 0.000000
-22.324400 0.000000
-22.263000 0.000000
-22.201600 0.000000
-22.140200 0.000000
-22.078800 0.000000
-22.017400 0.000000
-21.956000 0.000000
-21.894600 0.000000
-21.833200 0.000000
-21.771800 0.000000
-21.710400 0.000000
-21.649000 0.000000
-21.587600 0.000000
-21.526200 0.000000
-21.464800 0.000000
-21.403400 0.000000
-21.342000 0.000000
-21.280500 0.000000
-21.219100 0.000000
-21.157700 0.000000
-21.096300 0.000000
-21.034900 0.000000
-20.973500 0.000000
-20.912100 0.000000
-20.850700 0.000000
-20.789300 0.000000
-20.727900 0.000000
-20.666500 0.000000
-20.605100 0.000000
-20.543700 0.000000
-20.482300 0.000000
-20.420900 0.000000
-20.359500 0.000000
-20.298100 0.000000
-20.236600 0.000000
-20.175200 0.000000
-20.113800 0.000000
-20.052400 0.000000
-19.991000 0.000000
-19.929600 0.000000
-19.868200 0.000000
-19.806800 0.000000
-19.745400 0.000000
-19.684000 0.000000
-19.622600 0.000000
-19.561200 0.000000
-19.499800 0.000000
-19.438400 0.000000
-19.377000 0.000000
-19.315600 0.000000
-19.254200 0.000000
-19.192700 0.000000
-19.131300 0.000000
-19.069900 0.000000
-19.008500 0.000000
-18.947100 0.000000
-18.885700 0.000000
-18.824300 0.000000
-18.762900 0.000000
-18.701500 0.000000
-18.640100 0.000000
-18.578700 0.000000
-18.517300 0.000000
-18.455900 0.000000
-18.394500 0.000000
-18.333100 0.000000
-18.271700 0.000000
-18.210300 0.000000
-18.148800 0.000000
-18.087400 0.000000
-18.026000 0.000000
-17.964600 0.000000
-17.903200 0.000000
-17.841800 0.000000
-17.780400 0.000000
-17.719000 0.000000
-17.657600 0.000000
-17.596200 0.000000
-17.534800 0.000000
-17.473400 0.000000
-17.412000 0.000000
-17.350600 0.000000
-17.289200 0.000000
-17.227800 0.000000
-17.166400 0.000000
-17.105000 0.000000
-17.043500 0.000000
-16.982100 0.000000
-16.920700 0.000000
-16.859300 0.000000
-16.797900 0.000000
-16.736500 0.000000
-16.675100 0.000000
-16.613700 0.000000
-16.552300 0.000000
-16.490900 0.000000
-16.429500 0.000000
-16.368100 0.000000
-16.306700 0.000000
-16.245300 0.000000
-16.183900 0.000000
-16.122500 0.000000
-16.061100 0.000000
-15.999600 0.000000
-15.938200 0.000000
-15.876800 0.000000
-15.815400 0.000000
-15.754000 0.000000
-15.692600 0.000000
-15.631200 0.000000
-15.569800 0.000000
-15.508400 0.000000
-15.447000 0.000000
-15.385600 0.000000
-15.324200 0.000000
-15.262800 0.000000
-15.201400 0.000000
-15.140000 0.000000
-15.078600 0.000000
-15.017200 0.000000
-14.955700 0.000000
-14.894300 0.000000
-14.832900 0.000000
-14.771500 0.000000
-14.710100 0.000000
-14.648700 0.000000
-14.587300 0.000000
-14.525900 0.000000
-14.464500 0.000000
-14.403100 0.000000
-14.341700 0.000000
-14.280300 0.000000
-14.218900 0.000000
-14.157500 0.000000
-14.096100 0.000000
-14.034700 0.000000
-13.973300 0.000000
-13.911800 0.000000
-13.850400 0.000000
-13.789000 0.000000
-13.727600 0.000000
-13.666200 0.000000
-13.604800 0.000000
-13.543400 0.000000
-13.482000 0.000000
-13.420600 0.000000
-13.359200 0.000000
-13.297800 0.000000
-13.236400 0.000000
-13.175000 0.000000
-13.113600 0.000000
-13.052200 0.000000
-12.990800 0.000000
-12.929400 0.000000
-12.868000 0.000000
-12.806500 0.000000
-12.745100 0.000000
-12.683700 0.000000
-12.622300 0.000000
-12.560900 0.000000
-12.499500 0.000000
-12.438100 0.000000
-12.376700 0.000000
-12.315300 0.000000
-12.253900 0.000000
-12.192500 0.000000
-12.131100 0.000000
-12.069700 0.000000
-12.008300 0.000000
-11.946900 0.000000
-11.885500 0.000000
-11.824100 0.000000
-11.762600 0.000000
-11.701200 0.000000
-11.639800 0.000000
-11.578400 0.000000
-11.517000 0.000000
-11.455600 0.000000
-11.394200 0.000000
-11.332800 0.000000
-11.271400 0.000000
-11.210000 0.000000
-11.148600 0.000000
-11.087200 0.000000
-11.025800 0.000000
-10.964400 0.000000
-10.903000 0.000000
-10.841600 0.000000
-10.780200 0.000000
-10.718700 0.000000
-10.657300 0.000000
-10.595900 0.000000
-10.534500 0.000000
-10.473100 0.000000
-10.411700 0.000000
-10.350300 0.000000
-10.288900 0.000000
-10.227500 0.000000
-10.166100 0.000000
-10.104700 0.000000
-10.043300 0.000000
-9.981900 0.000000
-9.920500 0.000000
-9.859100 0.000000
-9.797700 0.000000
-9.736300 0.000000
-9.674800 0.000000
-9.613400 0.000000
-9.552000 0.000000
-9.490600 0.000000
-9.429200 0.000000
-9.367800 0.000000
-9.306400 0.000000
-9.245000 0.000000
-9.183600 0.000000
-9.122200 0.000000
-9.060800 0.000000
-8.999400 0.000000
-8.938000 0.000000
-8.876600 0.000000
-8.815200 0.000000
-8.753800 0.000000
-8.692400 0.000000
-8.630900 0.000000
-8.569500 0.000000
-8.508100 0.000000
-8.446700 0.000000
-8.385300 0.000000
-8.323900 0.000000
-8.262500 0.000000
-8.201100 0.000000
-8.139700 0.000000
-8.078300 0.000000
-8.016900 0.000000
-7.955500 0.000000
-7.894100 0.000000
-7.832700 0.000000
-7.771300 0.000000
-7.709900 0.000000
-7.648500 0.000000
-7.587100 0.000000
-7.525600 0.000000
-7.464200 0.000000
-7.402800 0.000000
-7.341400 0.000000
-7.280000 0.000000
-7.218600 0.000000
-7.157200 0.000000
-7.095800 0.000000
-7.034400 0.000000
-6.973000 0.000000
-6.911600 0.000000
-6.850200 0.000000
-6.788800 0.000000
-6.727400 0.000000
-6.666000 0.000000
-6.604600 0.000000
-6.543200 0.000000
-6.481700 0.000000
-6.420300 0.000000
-6.358900 0.000000
-6.297500 0.000000
-6.236100 0.000000
-6.174700 0.000000
-6.113300 0.000000
-6.051900 0.000000
-5.990500 0.000000
-5.929100 0.000000
-5.867700 0.000000
-5.806300 0.000000
-5.744900 0.000000
-5.683500 0.000000
-5.622100 0.000000
-5.560700 0.000000
-5.499300 0.000000
-5.437800 0.000000
-5.376400 0.000000
-5.315000 0.000000
-5.253600 0.000000
-5.192200 0.000000
-5.130800 0.000000
-5.069400 0.000000
-5.008000 0.000000
-4.946600 0.000000
-4.885200 0.000000
-4.823800 0.000000
-4.762400 0.000000
-4.701000 0.000000
-4.639600 0.000000
-4.578200 0.000000
-4.516800 0.000000
-4.455400 0.000000
-4.393900 0.000000
-4.332500 0.000000
-4.271100 0.000000
-4.209700 0.000000
-4.148300 0.000000
-4.086900 0.000000
-4.025500 0.000000
-3.964100 0.000000
-3.902700 0.000000
-3.841300 0.000000
-3.779900 0.000000
-3.718500 0.000000
-3.657100 0.000000
-3.595700 0.000000
-3.534300 0.000000
-3.472900 0.000000
-3.411500 0.000000
-3.350000 0.000000
-3.288600 0.000000
-3.227200 0.000000
-3.165800 0.000000
-3.104400 0.000000
-3.043000 0.000000
-2.981600 0.000000
-2.920200 0.000000
-2.858800 0.000000
-2.797400 0.000000
-2.736000 0.000000
-2.674600 0.000000
-2.613200 0.000000
-2.551800 0.000000
-2.490400 0.000000
-2.429000 0.000200
-2.367600 0.010700
-2.306200 0.027600
-2.244700 0.030200
-2.183300 0.037000
-2.121900 0.044300
-2.060500 0.050200
-1.999100 0.052600
-1.937700 0.056600
-1.876300 0.061200
-1.814900 0.065900
-1.753500 0.070800
-1.692100 0.075200
-1.630700 0.078300
-1.569300 0.081800
-1.507900 0.085300
-1.446500 0.089100
-1.385100 0.093100
-1.323700 0.097400
-1.262300 0.101700
-1.200800 0.106000
-1.139400 0.109400
-1.078000 0.112900
-1.016600 0.116800
-0.955200 0.120800
-0.893800 0.124900
-0.832400 0.129100
-0.771000 0.133600
-0.709600 0.138100
-0.648200 0.142800
-0.586800 0.147500
-0.525400 0.151800
-0.464000 0.156400
-0.402600 0.161200
-0.341200 0.166300
-0.279800 0.171600
-0.218400 0.177200
-0.156900 0.182900
-0.095500 0.188900
-0.034100 0.195200
0.027300 0.201700
0.088700 0.208400
0.150100 0.215100
0.211500 0.222500
0.272900 0.230300
0.334300 0.239000
0.395700 0.248300
0.457100 0.258200
0.518500 0.268800
0.579900 0.280300
0.641300 0.292500
0.702700 0.305400
0.764100 0.319100
0.825500 0.336500
0.887000 0.359500
0.948400 0.386100
1.009800 0.416700
1.071200 0.451000
1.132600 0.529300
1.194000 0.563000
1.255400 0.552100
1.316800 0.568700
1.378200 0.587200
1.439600 0.605000
1.501000 0.688900
1.562400 0.844200
1.623800 0.780500
1.685200 0.799800
1.746600 0.820700
1.808000 0.792100
1.869400 0.786600
1.930800 0.787400
1.992300 0.785100
2.053700 0.781600
2.115100 0.766900
2.176500 0.762800
2.237900 0.757200
2.299300 0.753100
2.360700 0.743100
2.422100 0.730700
2.483500 0.715300
2.544900 0.701200
2.606300 0.686900
2.667700 0.795300
2.729100 0.851700
2.790500 0.906800
2.851900 0.959100
2.913300 1.008000
2.974700 0.998500
3.036200 0.948100
3.097600 0.860800
3.159000 0.758200
3.220400 0.661200
3.281800 0.673700
3.343200 0.787500
3.404600 0.974600
3.466000 1.368000
3.527400 1.480600
3.588800 1.345400
3.650200 1.241900
3.711600 1.234600
3.773000 1.229500
3.834400 1.212700
3.895800 1.115400
3.957200 1.024400
4.018600 0.960700
4.080100 0.973200
4.141500 0.954200
4.202900 0.974500
4.264300 1.143000
4.325700 1.386700
4.387100 1.343700
4.448500 1.422500
4.509900 1.537700
4.571300 1.659600
4.632700 1.632500
4.694100 1.582000
4.755500 1.430200
4.816900 1.418200
4.878300 1.453800
4.939700 1.477400
5.001100 1.480100
5.062500 1.787700
5.124000 1.753400
5.185400 1.516200
5.246800 1.392300
5.308200 1.294500
5.369600 1.238300
5.431000 1.199600
5.492400 1.175500
5.553800 1.122400
5.615200 1.063800
5.676600 1.069800
5.738000 1.032600
5.799400 0.959600
5.860800 0.992600
5.922200 0.782300
5.983600 0.821300
6.045000 0.789400
6.106400 0.804900
6.167900 0.922600
6.229300 0.989400
6.290700 1.144800
6.352100 1.266300
6.413500 1.528600
6.474900 1.344900
6.536300 1.224600
6.597700 1.042800
6.659100 0.970000
6.720500 0.934700
6.781900 0.893400
6.843300 0.855000
6.904700 0.844900
6.966100 0.839400
7.027500 0.851100
7.088900 0.880900
7.150300 0.873600
7.211700 0.923200
7.273200 0.879100
7.334600 0.863200
7.396000 0.887700
7.457400 1.064900
7.518800 1.197100
7.580200 1.317400
7.641600 1.404500
7.703000 1.288900
7.764400 1.136500
7.825800 1.082100
7.887200 1.003500
7.948600 0.957700
8.010000 0.915400
8.071400 0.887100
8.132800 0.873000
8.194200 0.854300
8.255600 0.829800
8.317100 0.810300
8.378500 0.780900
8.439900 0.746700
8.501300 0.709600
8.562700 0.681700
8.624100 0.653800
8.685500 0.641100
8.746900 0.655000
8.808300 0.698800
8.869700 0.799200
8.931100 0.846100
8.992500 0.798100
9.053900 0.797000
9.115300 0.780700
9.176700 0.761200
9.238100 0.762400
9.299500 0.770200
9.361000 0.777300
9.422400 0.785700
9.483800 0.796100
9.545200 0.805900
9.606600 0.802800
9.668000 0.809100
9.729400 0.816300
9.790800 0.827300
9.852200 0.841300
9.913600 0.863900
9.975000 0.916500
10.036400 0.975200
10.097800 1.029600
10.159200 1.075200
10.220600 1.119700
10.282000 1.294200
10.343400 1.306200
10.404900 1.301800
10.466300 1.284200
10.527700 1.285900
10.589100 1.274200
10.650500 1.299100
10.711900 1.292900
10.773300 1.371400
10.834700 1.295300
10.896100 1.136200
10.957500 1.023600
11.018900 1.036800
11.080300 1.008500
11.141700 1.012200
11.203100 1.008600
11.264500 1.004700
11.325900 0.997000
11.387300 1.001700
11.448800 0.947700
11.510200 0.827200
11.571600 0.872000
11.633000 0.987000
11.694400 1.131700
11.755800 1.212800
11.817200 1.346400
11.878600 1.301000
11.940000 1.112900
12.001400 0.906400
12.062800 0.811800
12.124200 0.718800
12.185600 0.651300
12.247000 0.591400
12.308400 0.536100
12.369800 0.490500
12.431200 0.463000
12.492600 0.459900
12.554100 0.417900
12.615500 0.374100
12.676900 0.353900
12.738300 0.288300
12.799700 0.188900
12.861100 0.153700
12.922500 0.136500
12.983900 0.120000
13.045300 0.104200
13.106700 0.171900
13.168100 0.239300
13.229500 0.377800
13.290900 0.240400
13.352300 0.706600
13.413700 0.855900
13.475100 0.784000
13.536500 0.727500
13.598000 0.716900
13.659400 0.708700
13.720800 0.716600
13.782200 0.721800
13.843600 0.735700
13.905000 0.752600
13.966400 0.772600
14.027800 0.735900
14.089200 0.676800
14.150600 0.649900
14.212000 0.622100
14.273400 0.596300
14.334800 0.573500
14.396200 0.553000
14.457600 0.533700
14.519000 0.566400
14.580400 0.532500
14.641900 0.547000
14.703300 0.533000
14.764700 0.520800
14.826100 0.546800
14.887500 0.592300
14.948900 0.560300
15.010300 0.582500
15.071700 0.595700
15.133100 0.584700
15.194500 0.561900
15.255900 0.552200
15.317300 0.583000
15.378700 0.546300
15.440100 0.523400
15.501500 0.509400
15.562900 0.499500
15.624300 0.493300
15.685800 0.500000
15.747200 0.522100
15.808600 0.549700
15.870000 0.590500
15.931400 0.620600
15.992800 0.659900
16.054200 0.718900
16.115600 0.788300
16.177000 0.877900
16.238400 1.008800
16.299800 1.227000
16.361200 1.591400
16.422600 2.526400
16.484000 2.617800
16.545400 1.494700
16.606800 1.286000
16.668200 1.193800
16.729600 1.111000
16.791100 1.054600
16.852500 0.965100
16.913900 0.908300
16.975300 0.873400
17.036700 0.841700
17.098100 0.809100
17.159500 0.787700
17.220900 0.784600
17.282300 0.782600
17.343700 0.777000
17.405100 0.772000
17.466500 0.770000
17.527900 0.782600
17.589300 0.790800
17.650700 0.797100
17.712100 0.833700
17.773500 0.791200
17.835000 0.778900
17.896400 0.794900
17.957800 0.817000
18.019200 0.848700
18.080600 0.893100
18.142000 0.948000
18.203400 1.009200
18.264800 1.106000
18.326200 1.497700
18.387600 1.181800
18.449000 1.105100
18.510400 1.051700
18.571800 1.038200
18.633200 1.003600
18.694600 0.990500
18.756000 0.973700
18.817400 0.943200
18.878900 1.024400
18.940300 1.075400
19.001700 1.097700
19.063100 1.109000
19.124500 1.215400
19.185900 1.347200
19.247300 1.399200
19.308700 1.407400
19.370100 1.401700
19.431500 1.591800
19.492900 1.301000
19.554300 1.170600
19.615700 1.056000
19.677100 0.995800
19.738500 0.944200
19.799900 0.878300
19.861300 0.812900
19.922800 0.769100
19.984200 0.735800
20.045600 0.705300
20.107000 0.652600
20.168400 0.620100
20.229800 0.583700
20.291200 0.543400
20.352600 0.520800
20.414000 0.520600
20.475400 0.512200
20.536800 0.524200
20.598200 0.502400
20.659600 0.522700
20.721000 0.623800
20.782400 0.690900
20.843800 0.725400
20.905200 0.739900
20.966700 0.794800
21.028100 0.821600
21.089500 0.781500
21.150900 0.801600
21.212300 0.816200
21.273700 0.794900
21.335100 0.780300
21.396500 0.775900
21.457900 0.773400
21.519300 0.774000
21.580700 0.776400
21.642100 0.786600
21.703500 0.796800
21.764900 0.807700
21.826300 0.812400
21.887700 0.825400
21.949100 0.837100
22.010500 0.854700
22.072000 0.875300
22.133400 0.902900
22.194800 0.942000
22.256200 0.988600
22.317600 1.020400
22.379000 1.048400
22.440400 1.130400
22.501800 1.166400
22.563200 1.122700
22.624600 1.087900
22.686000 1.065200
22.747400 1.058200
22.808800 1.060700
22.870200 1.034200
22.931600 0.953500
22.993000 0.892800
23.054400 0.777700
23.115900 0.682000
23.177300 0.604000
23.238700 0.527300
23.300100 0.456800
23.361500 0.395100
23.422900 0.318600
23.484300 0.300300
23.545700 0.279700
23.607100 0.264900
23.668500 0.258500
23.729900 0.248700
23.791300 0.244700
23.852700 0.245800
23.914100 0.250100
23.975500 0.259300
24.036900 0.331500
24.098300 0.354300
24.159800 0.350900
24.221200 0.349900
24.282600 0.354700
24.344000 0.365100
24.405400 0.384200
24.466800 0.406400
24.528200 0.429400
24.589600 0.458800
24.651000 0.486600
24.712400 0.547000
24.773800 0.618000
24.835200 0.651100
24.896600 0.693800
24.958000 0.736600
25.019400 0.775000
25.080800 0.783400
25.142200 0.776600
25.203700 0.764700
25.265100 0.727400
25.326500 0.714900
25.387900 0.707800
25.449300 0.712500
25.510700 0.718700
25.572100 0.727900
25.633500 0.737700
25.694900 0.745600
25.756300 0.820700
25.817700 0.833300
25.879100 0.854900
25.940500 0.874700
26.001900 0.868000
26.063300 0.854100
26.124700 0.749300
26.186100 0.756000
26.247600 0.782600
26.309000 0.787100
26.370400 0.794100
26.431800 0.812100
26.493200 0.851300
26.554600 0.883200
26.616000 0.958700
26.677400 0.889700
26.738800 0.796200
26.800200 0.768000
26.861600 0.744600
26.923000 0.728400
26.984400 0.738400
27.045800 0.743200
27.107200 0.754100
27.168600 0.761800
27.230000 0.746400
27.291400 0.739600
27.352900 0.742300
27.414300 0.753900
27.475700 0.769600
27.537100 0.813600
27.598500 0.885800
27.659900 0.970600
27.721300 1.077700
27.782700 1.189500
27.844100 1.416300
27.905500 1.341700
27.966900 1.324100
28.028300 1.331900
28.089700 1.263800
28.151100 1.206800
28.212500 1.186900
28.273900 1.206500
28.335300 1.199000
28.396800 1.186100
28.458200 1.162200
28.519600 1.160800
28.581000 1.211300
28.642400 1.291700
28.703800 1.366700
28.765200 1.441700
28.826600 1.413300
28.888000 1.414300
28.949400 1.428800
29.010800 1.487300
29.072200 1.645300
29.133600 1.494900
29.195000 1.309500
29.256400 0.982600
29.317800 0.799600
29.379200 0.760400
29.440700 0.762300
29.502100 0.852200
29.563500 0.842900
29.624900 0.814500
29.686300 0.779300
29.747700 0.746200
29.809100 0.757500
29.870500 0.778700
29.931900 0.807800
29.993300 0.829700
30.054700 0.832100
30.116100 0.813200
30.177500 0.787500
30.238900 0.784800
30.300300 0.738100
30.361700 0.722000
30.423100 0.714300
30.484600 0.710600
30.546000 0.709900
30.607400 0.711400
30.668800 0.716600
30.730200 0.726000
30.791600 0.751300
30.853000 0.827000
30.914400 0.884000
30.975800 1.024600
31.037200 1.048200
31.098600 1.019100
31.160000 0.934300
31.221400 0.834500
31.282800 0.746300
31.344200 0.705200
31.405600 0.703800
31.467000 0.709600
31.528400 0.720000
31.589900 0.712100
31.651300 0.718900
31.712700 0.737700
31.774100 0.940100
31.835500 1.243700
31.896900 1.413000
31.958300 1.345800
32.019700 1.235700
32.081100 1.336900
32.142500 1.183400
32.203900 1.001700
32.265300 0.906800
32.326700 0.836200
32.388100 0.795800
32.449500 0.767200
32.510900 0.754800
32.572300 0.678400
32.633800 0.657500
32.695200 0.647300
32.756600 0.647800
32.818000 0.658400
32.879400 0.670700
32.940800 0.710900
33.002200 0.767500
33.063600 0.833600
33.125000 0.919600
33.186400 1.054800
33.247800 1.096800
33.309200 1.057100
33.370600 1.023200
33.432000 0.992100
33.493400 0.953000
33.554800 0.943300
33.616200 0.924200
33.677700 0.909700
33.739100 0.917900
33.800500 0.926300
33.861900 0.944900
33.923300 0.977800
33.984700 1.020000
34.046100 1.056700
34.107500 1.112700
34.168900 1.186600
34.230300 1.240000
34.291700 1.306900
34.353100 1.322700
34.414500 1.218400
34.475900 1.103900
34.537300 1.019900
34.598700 0.916900
34.660100 0.848800
34.721600 0.815900
34.783000 0.830200
34.844400 0.882500
34.905800 0.913200
34.967200 0.939600
35.028600 1.000800
35.090000 1.046100
35.151400 1.059400
35.212800 1.071700
35.274200 1.095200
35.335600 1.145200
35.397000 1.196000
35.458400 1.331300
35.519800 1.273700
35.581200 1.241200
35.642600 1.217700
35.704000 1.197900
35.765500 1.169800
35.826900 1.175100
35.888300 1.221000
35.949700 1.237400
36.011100 1.240800
36.072500 1.273200
36.133900 1.262200
36.195300 1.228800
36.256700 1.186500
36.318100 1.160900
36.379500 1.134100
36.440900 1.097200
36.502300 1.053500
36.563700 1.024000
36.625100 1.035900
36.686500 1.039200
36.747900 1.067700
36.809300 0.883400
36.870800 0.552700
36.932200 0.490800
36.993600 0.537700
37.055000 0.592600
37.116400 0.677200
37.177800 0.732800
37.239200 0.800800
37.300600 0.877300
37.362000 0.932800
37.423400 1.002500
37.484800 1.115600
37.546200 1.206300
37.607600 1.261100
37.669000 1.268700
37.730400 1.284800
37.791800 1.294400
37.853200 1.339800
37.914700 1.450600
37.976100 1.423300
38.037500 1.350900
38.098900 1.319700
38.160300 1.163400
38.221700 1.003600
38.283100 0.904800
38.344500 0.807200
38.405900 0.756700
38.467300 0.711800
38.528700 0.684400
38.590100 0.680400
38.651500 0.675900
38.712900 0.669800
38.774300 0.667800
38.835700 0.666400
38.897100 0.684400
38.958600 0.710000
39.020000 0.756100
39.081400 0.806500
39.142800 0.843700
39.204200 0.897400
39.265600 0.976000
39.327000 1.051000
39.388400 1.110200
39.449800 1.143000
39.511200 1.171300
39.572600 1.193200
39.634000 1.215300
39.695400 1.249900
39.756800 1.257800
39.818200 1.267800
39.879600 1.258100
39.941000 1.247000
40.002500 1.245100
40.063900 1.254000
40.125300 1.330700
40.186700 1.367200
40.248100 1.308200
40.309500 1.198200
40.370900 1.131800
40.432300 1.105900
40.493700 1.114600
40.555100 1.101000
40.616500 1.101000
40.677900 1.091900
40.739300 1.074300
40.800700 1.043600
40.862100 1.013300
40.923500 0.986100
40.984900 0.924600
41.046300 0.848900
41.107800 0.805700
41.169200 0.770600
41.230600 0.701500
41.292000 0.655500
41.353400 0.682700
41.414800 0.743800
41.476200 0.788800
41.537600 0.864500
41.599000 0.878000
41.660400 0.940000
41.721800 1.005400
41.783200 1.086300
41.844600 1.206900
41.906000 1.327200
41.967400 1.306600
42.028800 1.316700
42.090200 1.226000
42.151700 1.182300
42.213100 1.158200
42.274500 1.196200
42.335900 1.168700
42.397300 1.126100
42.458700 1.102800
42.520100 1.068700
42.581500 1.065700
42.642900 1.068100
42.704300 1.051400
42.765700 1.041500
42.827100 1.103200
42.888500 1.124700
42.949900 1.205900
43.011300 1.105600
43.072700 1.092000
43.134100 1.101500
43.195600 1.119600
43.257000 1.137500
43.318400 1.183000
43.379800 1.239200
43.441200 1.278700
43.502600 1.270600
43.564000 1.233000
43.625400 1.233300
43.686800 1.154500
43.748200 1.084200
43.809600 1.031600
43.871000 1.011700
43.932400 1.045500
43.993800 0.967000
44.055200 0.909300
44.116600 0.891300
44.178000 0.891500
44.239500 0.884000
44.300900 0.870400
44.362300 0.861500
44.423700 0.815000
44.485100 0.781000
44.546500 0.761300
44.607900 0.793800
44.669300 0.876000
44.730700 0.884900
44.792100 0.884600
44.853500 0.950300
44.914900 1.056300
44.976300 1.159400
45.037700 1.266000
45.099100 1.343900
45.160500 1.479400
45.221900 1.441300
45.283400 1.315900
45.344800 1.242100
45.406200 1.190100
45.467600 1.149900
45.529000 1.117400
45.590400 1.100400
45.651800 1.105500
45.713200 1.099800
45.774600 1.072800
45.836000 0.994300
45.897400 0.974900
45.958800 0.984700
46.020200 1.005300
46.081600 1.006000
46.143000 1.070300
46.204400 1.147700
46.265800 1.190500
46.327200 1.213400
46.388700 1.197900
46.450100 1.182200
46.511500 1.170100
46.572900 1.137500
46.634300 1.109500
46.695700 1.090400
46.757100 1.108100
46.818500 1.111100
46.879900 1.055700
46.941300 1.054600
47.002700 1.178900
47.064100 1.218800
47.125500 1.203000
47.186900 1.169700
47.248300 1.270000
47.309700 1.047700
47.371100 1.008900
47.432600 0.967700
47.494000 0.955200
47.555400 0.985100
47.616800 1.020800
47.678200 1.027000
47.739600 1.027300
47.801000 1.016100
47.862400 1.020400
47.923800 1.034000
47.985200 1.072900
48.046600 1.147100
48.108000 1.202400
48.169400 1.152300
48.230800 1.126200
48.292200 1.164300
48.353600 1.170000
48.415000 1.176300
48.476500 1.173200
48.537900 1.155000
48.599300 1.132000
48.660700 1.100800
48.722100 1.082100
48.783500 1.051700
48.844900 1.045500
48.906300 1.036200
48.967700 1.042000
49.029100 1.036000
49.090500 1.061800
49.151900 1.062000
49.213300 1.070600
49.274700 1.093900
49.336100 1.134700
49.397500 1.152000
49.458900 1.175800
49.520400 1.145700
49.581800 1.183900
49.643200 1.241900
49.704600 1.307500
49.766000 1.395700
49.827400 1.498000
49.888800 1.636200
49.950200 1.613800
50.011600 1.468800
50.073000 1.409600
50.134400 1.378600
50.195800 1.337300
50.257200 1.328500
50.318600 1.293900
50.380000 1.293500
50.441400 1.265900
50.502800 1.234600
50.564300 1.214900
50.625700 1.190100
50.687100 1.211000
50.748500 1.230300
50.809900 1.250800
50.871300 1.292800
50.932700 1.329600
50.994100 1.280100
51.055500 1.163200
51.116900 1.100900
51.178300 1.075500
51.239700 1.075600
51.301100 1.055800
51.362500 1.038100
51.423900 1.011700
51.485300 1.007200
51.546700 0.939100
51.608100 0.929100
51.669600 0.913500
51.731000 0.920800
51.792400 0.935500
51.853800 0.949400
51.915200 0.966700
51.976600 0.981700
52.038000 0.975100
52.099400 0.978200
52.160800 0.983500
52.222200 0.989900
52.283600 1.013400
52.345000 1.036000
52.406400 1.087000
52.467800 1.179300
52.529200 1.231200
52.590600 1.283800
52.652000 1.390300
52.713500 1.370000
52.774900 1.380300
52.836300 1.395500
52.897700 1.416400
52.959100 1.404200
53.020500 1.398200
53.081900 1.327900
53.143300 1.253400
53.204700 1.237000
53.266100 1.223600
53.327500 1.213300
53.388900 1.222000
53.450300 1.237100
53.511700 1.256100
53.573100 1.287400
53.634500 1.249300
53.695900 1.213500
53.757400 1.218100
53.818800 1.232000
53.880200 1.238600
53.941600 1.243300
54.003000 1.264200
54.064400 1.307900
54.125800 1.358700
54.187200 1.409100
54.248600 1.435600
54.310000 1.402700
54.371400 1.375900
54.432800 1.378100
54.494200 1.376700
54.555600 1.374700
54.617000 1.362800
54.678400 1.491100
54.739800 1.281300
54.801300 1.262900
54.862700 1.225900
54.924100 1.171900
54.985500 1.113600
55.046900 1.142600
55.108300 1.056500
55.169700 0.956000
55.231100 0.970300
55.292500 1.027000
55.353900 1.064200
55.415300 1.083800
55.476700 1.111200
55.538100 1.123700
55.599500 1.095900
55.660900 1.072200
55.722300 1.058400
55.783700 1.039300
55.845100 1.013500
55.906600 1.002200
55.968000 1.020800
56.029400 1.041600
56.090800 1.055400
56.152200 1.031300
56.213600 1.030300
56.275000 1.030900
56.336400 1.042700
56.397800 1.078000
56.459200 1.122000
56.520600 1.164100
56.582000 1.196800
56.643400 1.228600
56.704800 1.263400
56.766200 1.301500
56.827600 1.309700
56.889000 1.270200
56.950500 1.261600
57.011900 1.243100
57.073300 1.244700
57.134700 1.223200
57.196100 1.169000
57.257500 1.121500
57.318900 1.078700
57.380300 1.057900
57.441700 1.001100
57.503100 1.021000
57.564500 1.066400
57.625900 0.977900
57.687300 0.922000
57.748700 0.883200
57.810100 0.863100
57.871500 0.853700
57.932900 0.857100
57.994400 0.875700
58.055800 0.912700
58.117200 0.928500
58.178600 0.968500
58.240000 1.031000
58.301400 1.091300
58.362800 1.154300
58.424200 1.213200
58.485600 1.349000
58.547000 1.424900
58.608400 1.461300
58.669800 1.476100
58.731200 1.449900
58.792600 1.466300
58.854000 1.503400
58.915400 1.526800
58.976800 1.547800
59.038300 1.503700
59.099700 1.475100
59.161100 1.496000
59.222500 1.501500
59.283900 1.517900
59.345300 1.573400
59.406700 1.602900
59.468100 1.626100
59.529500 1.595900
59.590900 1.480000
59.652300 1.342000
59.713700 1.268200
59.775100 1.226300
59.836500 1.230800
59.897900 1.193100
59.959300 1.207400
60.020700 1.230200
60.082200 1.283800
60.143600 1.321700
60.205000 1.362300
60.266400 1.481400
60.327800 1.440500
60.389200 1.431700
60.450600 1.371200
60.512000 1.372000
60.573400 1.337700
60.634800 1.331300
60.696200 1.397800
60.757600 1.412900
60.819000 1.439300
60.880400 1.444800
60.941800 1.421200
61.003200 1.402700
61.064600 1.392200
61.126000 1.363900
61.187500 1.323600
61.248900 1.296500
61.310300 1.270400
61.371700 1.236100
61.433100 1.199200
61.494500 1.162600
61.555900 1.142800
61.617300 1.139200
61.678700 1.178200
61.740100 1.197100
61.801500 1.230300
61.862900 1.211700
61.924300 1.195600
61.985700 1.183400
62.047100 1.197900
62.108500 1.206900
62.169900 1.274300
62.231400 1.319300
62.292800 1.360000
62.354200 1.454300
62.415600 1.506900
62.477000 1.594900
62.538400 1.670800
62.599800 1.650400
62.661200 1.561300
62.722600 1.402900
62.784000 1.338000
62.845400 1.307100
62.906800 1.349600
62.968200 1.379200
63.029600 1.401100
63.091000 1.427900
63.152400 1.375500
63.213800 1.324600
63.275300 1.251600
63.336700 1.235300
63.398100 1.225800
63.459500 1.201600
63.520900 1.142700
63.582300 1.099100
63.643700 1.066400
63.705100 1.052300
63.766500 1.045300
63.827900 1.053200
63.889300 1.045000
63.950700 1.049000
64.012100 1.035000
64.073500 1.024800
64.134900 0.989000
64.196300 0.992900
64.257700 0.996400
64.319200 1.013600
64.380600 0.999600
64.442000 0.980700
64.503400 0.985400
64.564800 1.040100
64.626200 1.118100
64.687600 1.187300
64.749000 1.263800
64.810400 1.387500
64.871800 1.451900
64.933200 1.471800
64.994600 1.452100
65.056000 1.429400
65.117400 1.310200
65.178800 1.246400
65.240200 1.196700
65.301600 1.149200
65.363100 1.111900
65.424500 1.074600
65.485900 1.062000
65.547300 1.081700
65.608700 1.092600
65.670100 1.100500
65.731500 1.105300
65.792900 1.132700
65.854300 1.179600
65.915700 1.222300
65.977100 1.280600
66.038500 1.253500
66.099900 1.255400
66.161300 1.274100
66.222700 1.398800
66.284100 1.380700
66.345500 1.396500
66.406900 1.434100
66.468400 1.555600
66.529800 1.584100
66.591200 1.612300
66.652600 1.597500
66.714000 1.559900
66.775400 1.545100
66.836800 1.548000
66.898200 1.614400
66.959600 1.582600
67.021000 1.563200
67.082400 1.514300
67.143800 1.453400
67.205200 1.356100
67.266600 1.311400
67.328000 1.230100
67.389400 1.247800
67.450800 1.274200
67.512300 1.228000
67.573700 1.210000
67.635100 1.312900
67.696500 1.390000
67.757900 1.609200
67.819300 1.329600
67.880700 1.290300
67.942100 1.246800
68.003500 1.219700
68.064900 1.194200
68.126300 1.158500
68.187700 1.175200
68.249100 1.168200
68.310500 1.149600
68.371900 1.153600
68.433300 1.172700
68.494700 1.186700
68.556200 1.198200
68.617600 1.187900
68.679000 1.165100
68.740400 1.142800
68.801800 1.118200
68.863200 1.087500
68.924600 1.086100
68.986000 1.102800
69.047400 1.154700
69.108800 1.168100
69.170200 1.197500
69.231600 1.192500
69.293000 1.229700
69.354400 1.264400
69.415800 1.272700
69.477200 1.364800
69.538600 1.328400
69.600100 1.366800
69.661500 1.396900
69.722900 1.434500
69.784300 1.416600
69.845700 1.446700
69.907100 1.503800
69.968500 1.488300
70.029900 1.381800
70.091300 1.350000
70.152700 1.293300
70.214100 1.224800
70.275500 1.179900
70.336900 1.157700
70.398300 1.145800
70.459700 1.195100
70.521100 1.220600
70.582500 1.329500
70.643900 1.317700
70.705400 1.381500
70.766800 1.445000
70.828200 1.493400
70.889600 1.470500
70.951000 1.461400
71.012400 1.454400
71.073800 1.431100
71.135200 1.426900
71.196600 1.469300
71.258000 1.409200
71.319400 1.425400
71.380800 1.473200
71.442200 1.506700
71.503600 1.467600
71.565000 1.393100
71.626400 1.364600
71.687800 1.360800
71.749300 1.363000
71.810700 1.338400
71.872100 1.341500
71.933500 1.396800
71.994900 1.434200
72.056300 1.451200
72.117700 1.410500
72.179100 1.457600
72.240500 1.461200
72.301900 1.402600
72.363300 1.403200
72.424700 1.372800
72.486100 1.386700
72.547500 1.432000
72.608900 1.475300
72.670300 1.517300
72.731700 1.527700
72.793200 1.518400
72.854600 1.441800
72.916000 1.398800
72.977400 1.374600
73.038800 1.362000
73.100200 1.361800
73.161600 1.379800
73.223000 1.412800
73.284400 1.394400
73.345800 1.345900
73.407200 1.292300
73.468600 1.276100
73.530000 1.277800
73.591400 1.272800
73.652800 1.270400
73.714200 1.253600
73.775600 1.235900
73.837100 1.220300
73.898500 1.240100
73.959900 1.265400
74.021300 1.210500
74.082700 1.182900
74.144100 1.181200
74.205500 1.196800
74.266900 1.206900
74.328300 1.217000
74.389700 1.225200
74.451100 1.232100
74.512500 1.252100
74.573900 1.274600
74.635300 1.295000
74.696700 1.326100
74.758100 1.426500
74.819500 1.461200
74.881000 1.440000
74.942400 1.448700
75.003800 1.561000
75.065200 1.556600
75.126600 1.534700
75.188000 1.556600
75.249400 1.606000
75.310800 1.590900
75.372200 1.491500
75.433600 1.413100
75.495000 1.380500
75.556400 1.343100
75.617800 1.221200
75.679200 1.162100
75.740600 1.116800
75.802000 1.105500
75.863400 1.120100
75.924800 1.110900
75.986300 1.117700
76.047700 1.133500
76.109100 1.151500
76.170500 1.175200
76.231900 1.213200
76.293300 1.285600
76.354700 1.302500
76.416100 1.285900
76.477500 1.287300
76.538900 1.295800
76.600300 1.303400
76.661700 1.353100
76.723100 1.380000
76.784500 1.382700
76.845900 1.377600
76.907300 1.359500
76.968700 1.361300
77.030200 1.361600
77.091600 1.354400
77.153000 1.360100
77.214400 1.382700
77.275800 1.400400
77.337200 1.391800
77.398600 1.389700
77.460000 1.363000
77.521400 1.345600
77.582800 1.368300
77.644200 1.330900
77.705600 1.234700
77.767000 1.204700
77.828400 1.203800
77.889800 1.222300
77.951200 1.250000
78.012600 1.291600
78.074100 1.344700
78.135500 1.406000
78.196900 1.469800
78.258300 1.472600
78.319700 1.436700
78.381100 1.396000
78.442500 1.367700
78.503900 1.360300
78.565300 1.390600
78.626700 1.377600
78.688100 1.354700
78.749500 1.325100
78.810900 1.286600
78.872300 1.234800
78.933700 1.186400
78.995100 1.144100
79.056500 1.131400
79.118000 1.133600
79.179400 1.157000
79.240800 1.190800
79.302200 1.228100
79.363600 1.289700
79.425000 1.321700
79.486400 1.319700
79.547800 1.297400
79.609200 1.291100
79.670600 1.313000
79.732000 1.322700
79.793400 1.339900
79.854800 1.361900
79.916200 1.421100
79.977600 1.444000
80.039000 1.441000
80.100400 1.436500
80.161900 1.434600
80.223300 1.397000
80.284700 1.325600
80.346100 1.268000
80.407500 1.214300
80.468900 1.199700
80.530300 1.222200
80.591700 1.217300
80.653100 1.156400
80.714500 1.142100
80.775900 1.141800
80.837300 1.141500
80.898700 1.156400
80.960100 1.200100
81.021500 1.333700
81.082900 1.276100
81.144300 1.246600
81.205700 1.259000
81.267200 1.258500
81.328600 1.237000
81.390000 1.191500
81.451400 1.156600
81.512800 1.145300
81.574200 1.138700
81.635600 1.132100
81.697000 1.121100
81.758400 1.116900
81.819800 1.134900
81.881200 1.109200
81.942600 1.087300
82.004000 1.075200
82.065400 1.076900
82.126800 1.127900
82.188200 1.037300
82.249600 0.963700
82.311100 0.956700
82.372500 0.947400
82.433900 0.927900
82.495300 0.904300
82.556700 0.875300
82.618100 0.846100
82.679500 0.818300
82.740900 0.815100
82.802300 0.804000
82.863700 0.805000
82.925100 0.788900
82.986500 0.801900
83.047900 0.755100
83.109300 0.703400
83.170700 0.637600
83.232100 0.612700
83.293500 0.577900
83.355000 0.526500
83.416400 0.472800
83.477800 0.422200
83.539200 0.372800
83.600600 0.324900
83.662000 0.273400
83.723400 0.227300
83.784800 0.170200
83.846200 0.121300
83.907600 0.079500
83.969000 0.061400
84.030400 0.053000
84.091800 0.047000
84.153200 0.044200
84.214600 0.043300
84.276000 0.043200
84.337400 0.043400
84.398900 0.043700
84.460300 0.044100
84.521700 0.044700
84.583100 0.045300
84.644500 0.046200
84.705900 0.048000
84.767300 0.049600
84.828700 0.048700
84.890100 0.045300
84.951500 0.039300
85.012900 0.030700
85.074300 0.026000
85.135700 0.019100
85.197100 0.007700
85.258500 0.004900
85.319900 0.003400
85.381300 0.002200
85.442700 0.001200
85.504200 0.000500
85.565600 0.000100
85.627000 0.000000
85.688400 0.000000
85.749800 0.000000
85.811200 0.000000
85.872600 0.000000
85.934000 0.000000
85.995400 0.000000
86.056800 0.000000
86.118200 0.000000
86.179600 0.000000
86.241000 0.000000
86.302400 0.000000
86.363800 0.000000
86.425200 0.000000
86.486600 0.000000
86.548100 0.000000
86.609500 0.000000
86.670900 0.000000
86.732300 0.000000
86.793700 0.000000
86.855100 0.000000
86.916500 0.000000
86.977900 0.000000
87.039300 0.000000
87.100700 0.000000
87.162100 0.000000
87.223500 0.000000
87.284900 0.000000
87.346300 0.000000
87.407700 0.000000
87.469100 0.000000
87.530500 0.000000
87.592000 0.000000
87.653400 0.000000
87.714800 0.000000
87.776200 0.000000
87.837600 0.000000
87.899000 0.000000
87.960400 0.000000
88.021800 0.000000
88.083200 0.000000
88.144600 0.000000
88.206000 0.000000
88.267400 0.000000
88.328800 0.000000
88.390200 0.000000
88.451600 0.000000
88.513000 0.000000
88.574400 0.000000
88.635900 0.000000
88.697300 0.000000
88.758700 0.000000
88.820100 0.000000
88.881500 0.000000
88.942900 0.000000
89.004300 0.000000
89.065700 0.000000
89.127100 0.000000
89.188500 0.000000
89.249900 0.000000
89.311300 0.000000
89.372700 0.000000
89.434100 0.000000
89.495500 0.000000
89.556900 0.000000
89.618300 0.000000
89.679800 0.000000
89.741200 0.000000
89.802600 0.000000
89.864000 0.000000
89.925400 0.000000
89.986800 0.000000
90.048200 0.000000
90.109600 0.000000
90.171000 0.000000
90.232400 0.000000
90.293800 0.000000
90.355200 0.000000
90.416600 0.000000
90.478000 0.000000
90.539400 0.000000
90.600800 0.000000
90.662200 0.000000
90.723600 0.000000
90.785100 0.000000
90.846500 0.000000
90.907900 0.000000
90.969300 0.000000
91.030700 0.000000
91.092100 0.000000
91.153500 0.000000
91.214900 0.000000
e
