set title 'mp-8937 - Density of States'
set xlabel 'Energy (eV)'
set ylabel 'DOS (states/eV)'
set grid
set xrange [-10:10]
set yrange [0:6.242]
set xzeroaxis lt -1
set terminal png size 800,600
set output 'mp-8937_dos_gnuplot.png'
plot '-' using 1:2 with lines title 'DOS'
-36.771100 0.000000
-36.721200 0.000000
-36.671400 0.000000
-36.621500 0.000000
-36.571600 0.000000
-36.521800 0.000000
-36.471900 0.000000
-36.422000 0.000000
-36.372200 0.000000
-36.322300 0.000000
-36.272400 0.000000
-36.222600 0.000000
-36.172700 0.000000
-36.122800 0.000000
-36.073000 0.000000
-36.023100 0.000000
-35.973300 0.000000
-35.923400 0.000000
-35.873500 0.000000
-35.823700 0.000000
-35.773800 0.000000
-35.723900 0.000000
-35.674100 0.000000
-35.624200 0.000000
-35.574300 0.000000
-35.524500 0.000000
-35.474600 0.000000
-35.424700 0.000000
-35.374900 0.000000
-35.325000 0.000000
-35.275100 0.000000
-35.225300 0.000000
-35.175400 0.000000
-35.125500 0.000000
-35.075700 0.000000
-35.025800 0.000000
-34.976000 0.000000
-34.926100 0.000000
-34.876200 0.000000
-34.826400 0.000000
-34.776500 0.000000
-34.726600 0.000000
-34.676800 0.000000
-34.626900 0.000000
-34.577000 0.000000
-34.527200 0.000000
-34.477300 0.000000
-34.427400 0.000000
-34.377600 0.000000
-34.327700 0.000000
-34.277800 0.000000
-34.228000 0.000000
-34.178100 0.000000
-34.128200 0.000000
-34.078400 0.000000
-34.028500 0.000000
-33.978700 0.000000
-33.928800 0.000000
-33.878900 0.000000
-33.829100 0.000000
-33.779200 0.000000
-33.729300 0.000000
-33.679500 0.000000
-33.629600 0.000000
-33.579700 0.000000
-33.529900 0.000000
-33.480000 0.000000
-33.430100 0.000000
-33.380300 0.000000
-33.330400 0.000000
-33.280500 0.000000
-33.230700 0.000000
-33.180800 0.000000
-33.131000 0.000000
-33.081100 0.000000
-33.031200 0.000000
-32.981400 0.000000
-32.931500 0.000000
-32.881600 0.000000
-32.831800 0.000000
-32.781900 0.000000
-32.732000 0.000000
-32.682200 0.000000
-32.632300 0.000000
-32.582400 0.000000
-32.532600 0.000000
-32.482700 0.000000
-32.432800 0.000000
-32.383000 0.000000
-32.333100 0.000000
-32.283200 0.000000
-32.233400 47.411600
-32.183500 30.910300
-32.133700 0.000000
-32.083800 0.000000
-32.033900 0.000000
-31.984100 0.000000
-31.934200 0.000000
-31.884300 0.000000
-31.834500 0.000000
-31.784600 0.000000
-31.734700 0.000000
-31.684900 0.000000
-31.635000 0.000000
-31.585100 0.000000
-31.535300 0.000000
-31.485400 0.000000
-31.435500 0.000000
-31.385700 0.000000
-31.335800 0.000000
-31.285900 0.000000
-31.236100 0.000000
-31.186200 0.000000
-31.136400 0.000000
-31.086500 0.000000
-31.036600 0.000000
-30.986800 0.000000
-30.936900 0.000000
-30.887000 0.000000
-30.837200 0.000000
-30.787300 0.000000
-30.737400 0.000000
-30.687600 0.000000
-30.637700 0.000000
-30.587800 0.000000
-30.538000 0.000000
-30.488100 0.000000
-30.438200 0.000000
-30.388400 0.000000
-30.338500 0.000000
-30.288600 0.000000
-30.238800 0.000000
-30.188900 0.000000
-30.139100 0.000000
-30.089200 0.000000
-30.039300 0.000000
-29.989500 0.000000
-29.939600 0.000000
-29.889700 0.000000
-29.839900 0.000000
-29.790000 0.000000
-29.740100 0.000000
-29.690300 0.000000
-29.640400 0.000000
-29.590500 0.000000
-29.540700 0.000000
-29.490800 0.000000
-29.440900 0.000000
-29.391100 0.000000
-29.341200 0.000000
-29.291300 0.000000
-29.241500 0.000000
-29.191600 0.000000
-29.141800 0.000000
-29.091900 0.000000
-29.042000 0.000000
-28.992200 0.000000
-28.942300 0.000000
-28.892400 0.000000
-28.842600 0.000000
-28.792700 0.000000
-28.742800 0.000000
-28.693000 0.000000
-28.643100 0.000000
-28.593200 0.000000
-28.543400 0.000000
-28.493500 0.000000
-28.443600 0.000000
-28.393800 0.000000
-28.343900 0.000000
-28.294100 0.000000
-28.244200 0.000000
-28.194300 0.000000
-28.144500 0.000000
-28.094600 0.000000
-28.044700 0.000000
-27.994900 0.000000
-27.945000 0.000000
-27.895100 0.000000
-27.845300 0.000000
-27.795400 0.000000
-27.745500 0.000000
-27.695700 0.000000
-27.645800 0.000000
-27.595900 0.000000
-27.546100 0.000000
-27.496200 0.000000
-27.446300 0.000000
-27.396500 0.000000
-27.346600 0.000000
-27.296800 0.000000
-27.246900 0.000000
-27.197000 0.000000
-27.147200 0.000000
-27.097300 0.000000
-27.047400 0.000000
-26.997600 0.000000
-26.947700 0.000000
-26.897800 0.000000
-26.848000 0.000000
-26.798100 0.000000
-26.748200 0.000000
-26.698400 0.000000
-26.648500 0.000000
-26.598600 0.000000
-26.548800 0.000000
-26.498900 0.000000
-26.449000 0.000000
-26.399200 0.000000
-26.349300 0.000000
-26.299500 0.000000
-26.249600 0.000000
-26.199700 0.000000
-26.149900 0.000000
-26.100000 0.000000
-26.050100 0.000000
-26.000300 0.000000
-25.950400 0.000000
-25.900500 0.000000
-25.850700 0.000000
-25.800800 0.000000
-25.750900 0.000000
-25.701100 0.000000
-25.651200 0.000000
-25.601300 0.000000
-25.551500 0.000000
-25.501600 0.000000
-25.451700 0.000000
-25.401900 0.000000
-25.352000 0.000000
-25.302200 0.000000
-25.252300 0.000000
-25.202400 0.000000
-25.152600 0.000000
-25.102700 0.000000
-25.052800 0.000000
-25.003000 0.000000
-24.953100 0.000000
-24.903200 0.000000
-24.853400 0.000000
-24.803500 0.000000
-24.753600 0.000000
-24.703800 0.000000
-24.653900 0.000000
-24.604000 0.000000
-24.554200 0.000000
-24.504300 0.000000
-24.454500 0.000000
-24.404600 0.000000
-24.354700 0.000000
-24.304900 0.000000
-24.255000 0.000000
-24.205100 0.000000
-24.155300 0.000000
-24.105400 0.000000
-24.055500 0.000000
-24.005700 0.000000
-23.955800 0.000000
-23.905900 0.000000
-23.856100 0.000000
-23.806200 0.000000
-23.756300 0.000000
-23.706500 0.000000
-23.656600 0.000000
-23.606700 0.000000
-23.556900 0.000000
-23.507000 0.000000
-23.457200 0.000000
-23.407300 0.000000
-23.357400 0.000000
-23.307600 0.000000
-23.257700 0.000000
-23.207800 0.000000
-23.158000 0.000000
-23.108100 0.000000
-23.058200 0.000000
-23.008400 0.000000
-22.958500 0.000000
-22.908600 0.000000
-22.858800 0.000000
-22.808900 0.000000
-22.759000 0.000000
-22.709200 0.000000
-22.659300 0.000000
-22.609400 0.000000
-22.559600 0.000000
-22.509700 0.000000
-22.459900 0.000000
-22.410000 0.000000
-22.360100 0.000000
-22.310300 0.000000
-22.260400 0.000000
-22.210500 0.000000
-22.160700 0.000000
-22.110800 0.000000
-22.060900 0.000000
-22.011100 0.000000
-21.961200 0.000000
-21.911300 0.000000
-21.861500 0.000000
-21.811600 0.000000
-21.761700 0.000000
-21.711900 0.000000
-21.662000 0.000000
-21.612100 0.000000
-21.562300 0.000000
-21.512400 0.000000
-21.462600 0.000000
-21.412700 0.000000
-21.362800 0.000000
-21.313000 0.000000
-21.263100 0.000000
-21.213200 0.000000
-21.163400 0.000000
-21.113500 0.000000
-21.063600 0.000000
-21.013800 0.000000
-20.963900 0.000000
-20.914000 0.000000
-20.864200 0.000000
-20.814300 0.000000
-20.764400 0.000000
-20.714600 0.000000
-20.664700 0.000000
-20.614800 0.000000
-20.565000 0.000000
-20.515100 0.000000
-20.465300 0.000000
-20.415400 0.000000
-20.365500 0.000000
-20.315700 0.000000
-20.265800 0.000000
-20.215900 0.000000
-20.166100 0.000000
-20.116200 0.000000
-20.066300 0.000000
-20.016500 0.000000
-19.966600 0.000000
-19.916700 0.000000
-19.866900 0.000000
-19.817000 0.000000
-19.767100 0.000000
-19.717300 0.000000
-19.667400 0.000000
-19.617600 0.000000
-19.567700 0.000000
-19.517800 0.000000
-19.468000 0.000000
-19.418100 0.000000
-19.368200 0.000000
-19.318400 0.000000
-19.268500 0.000000
-19.218600 0.000000
-19.168800 0.000000
-19.118900 0.000000
-19.069000 0.000000
-19.019200 0.000000
-18.969300 0.000000
-18.919400 0.000000
-18.869600 0.000000
-18.819700 0.000000
-18.769800 0.000000
-18.720000 0.000000
-18.670100 0.000000
-18.620300 0.000000
-18.570400 0.000000
-18.520500 0.000000
-18.470700 0.000000
-18.420800 0.000000
-18.370900 0.000000
-18.321100 0.000000
-18.271200 0.000000
-18.221300 0.000000
-18.171500 0.000000
-18.121600 0.000000
-18.071700 0.000000
-18.021900 0.000000
-17.972000 0.000000
-17.922100 0.000000
-17.872300 0.000000
-17.822400 0.000000
-17.772500 0.000000
-17.722700 0.000000
-17.672800 0.000000
-17.623000 0.000000
-17.573100 0.000000
-17.523200 0.000000
-17.473400 0.000000
-17.423500 0.000000
-17.373600 0.000000
-17.323800 0.000000
-17.273900 0.000000
-17.224000 0.000000
-17.174200 0.000000
-17.124300 0.000000
-17.074400 0.000000
-17.024600 0.000000
-16.974700 0.000000
-16.924800 0.000000
-16.875000 0.000000
-16.825100 0.000000
-16.775200 0.000000
-16.725400 0.000000
-16.675500 0.000000
-16.625700 0.000000
-16.575800 0.000000
-16.525900 0.000000
-16.476100 0.000000
-16.426200 0.000000
-16.376300 0.000000
-16.326500 0.000000
-16.276600 0.000000
-16.226700 0.000000
-16.176900 0.000000
-16.127000 0.000000
-16.077100 0.000000
-16.027300 0.000000
-15.977400 0.000000
-15.927500 0.000000
-15.877700 0.000000
-15.827800 0.000000
-15.777900 0.000000
-15.728100 0.000000
-15.678200 0.000000
-15.628400 0.000000
-15.578500 0.000000
-15.528600 0.000000
-15.478800 0.000000
-15.428900 0.000000
-15.379000 0.000000
-15.329200 0.000000
-15.279300 0.000000
-15.229400 0.000000
-15.179600 0.000000
-15.129700 0.000000
-15.079800 0.000000
-15.030000 0.000000
-14.980100 0.000000
-14.930200 0.000000
-14.880400 0.000000
-14.830500 0.000000
-14.780700 0.000000
-14.730800 0.000000
-14.680900 0.000000
-14.631100 0.000000
-14.581200 0.000000
-14.531300 0.000000
-14.481500 0.000000
-14.431600 0.000000
-14.381700 0.000000
-14.331900 0.000000
-14.282000 0.000000
-14.232100 0.000000
-14.182300 0.000000
-14.132400 0.000000
-14.082500 0.000000
-14.032700 0.000000
-13.982800 0.000000
-13.932900 0.000000
-13.883100 0.000000
-13.833200 0.000000
-13.783400 0.000000
-13.733500 0.000000
-13.683600 0.000000
-13.633800 0.000000
-13.583900 0.000000
-13.534000 0.000000
-13.484200 0.000000
-13.434300 0.000000
-13.384400 0.000000
-13.334600 0.000000
-13.284700 0.000000
-13.234800 0.000000
-13.185000 0.000000
-13.135100 0.000000
-13.085200 0.000000
-13.035400 0.000000
-12.985500 0.000000
-12.935600 0.000000
-12.885800 0.000000
-12.835900 0.000000
-12.786100 0.000000
-12.736200 0.000000
-12.686300 0.000000
-12.636500 0.000000
-12.586600 0.000000
-12.536700 0.000000
-12.486900 0.000000
-12.437000 0.000000
-12.387100 0.000000
-12.337300 0.000000
-12.287400 0.000000
-12.237500 0.000000
-12.187700 0.000000
-12.137800 0.000000
-12.087900 0.000000
-12.038100 0.000000
-11.988200 0.000000
-11.938300 0.000000
-11.888500 0.000000
-11.838600 0.000000
-11.788800 0.000000
-11.738900 0.000000
-11.689000 0.000000
-11.639200 0.000000
-11.589300 0.000000
-11.539400 0.000000
-11.489600 0.000000
-11.439700 0.000000
-11.389800 0.000000
-11.340000 0.000000
-11.290100 0.000000
-11.240200 0.000000
-11.190400 0.000000
-11.140500 0.000000
-11.090600 0.000000
-11.040800 0.000000
-10.990900 0.000000
-10.941100 0.000000
-10.891200 0.000000
-10.841300 0.000000
-10.791500 0.000000
-10.741600 0.000000
-10.691700 0.000000
-10.641900 0.000000
-10.592000 0.000000
-10.542100 0.000000
-10.492300 0.000000
-10.442400 0.000000
-10.392500 0.000000
-10.342700 0.000000
-10.292800 0.000000
-10.242900 0.000000
-10.193100 0.000000
-10.143200 0.000000
-10.093300 0.000000
-10.043500 0.000000
-9.993600 0.000000
-9.943800 0.000000
-9.893900 0.000000
-9.844000 0.000000
-9.794200 0.000000
-9.744300 0.000000
-9.694400 0.000000
-9.644600 0.000000
-9.594700 0.000000
-9.544800 0.000000
-9.495000 0.000000
-9.445100 0.000000
-9.395200 0.000000
-9.345400 0.000000
-9.295500 0.000000
-9.245600 0.000000
-9.195800 0.000000
-9.145900 0.000000
-9.096000 0.000000
-9.046200 0.000000
-8.996300 0.000000
-8.946500 0.000000
-8.896600 0.000000
-8.846700 0.000000
-8.796900 0.000000
-8.747000 0.000000
-8.697100 0.000000
-8.647300 0.000000
-8.597400 0.000000
-8.547500 0.000000
-8.497700 0.000000
-8.447800 0.000000
-8.397900 0.000000
-8.348100 0.000000
-8.298200 0.000000
-8.248300 0.000000
-8.198500 0.000000
-8.148600 0.000000
-8.098700 0.000000
-8.048900 0.000000
-7.999000 0.000000
-7.949200 0.000000
-7.899300 0.000000
-7.849400 0.000000
-7.799600 0.000000
-7.749700 0.000000
-7.699800 0.000000
-7.650000 0.000000
-7.600100 0.000000
-7.550200 0.000000
-7.500400 0.000000
-7.450500 0.000000
-7.400600 0.000000
-7.350800 0.000000
-7.300900 0.000000
-7.251000 0.000000
-7.201200 0.000000
-7.151300 0.000000
-7.101400 0.000000
-7.051600 0.000000
-7.001700 0.000000
-6.951900 0.000000
-6.902000 0.000000
-6.852100 0.000000
-6.802300 0.000000
-6.752400 0.000000
-6.702500 0.000000
-6.652700 0.000000
-6.602800 0.000000
-6.552900 0.000000
-6.503100 0.000000
-6.453200 0.000000
-6.403300 0.000000
-6.353500 0.000000
-6.303600 0.000000
-6.253700 0.000000
-6.203900 0.000000
-6.154000 0.000000
-6.104200 0.000000
-6.054300 0.000000
-6.004400 0.000000
-5.954600 0.000000
-5.904700 0.000000
-5.854800 0.000000
-5.805000 0.000000
-5.755100 0.000000
-5.705200 0.000000
-5.655400 0.000000
-5.605500 0.000000
-5.555600 0.000000
-5.505800 0.000000
-5.455900 0.000000
-5.406000 0.000000
-5.356200 0.000000
-5.306300 0.000000
-5.256400 0.000000
-5.206600 0.000000
-5.156700 0.000000
-5.106900 0.000000
-5.057000 0.000000
-5.007100 0.000000
-4.957300 0.000000
-4.907400 0.000000
-4.857500 0.000000
-4.807700 0.000000
-4.757800 0.000000
-4.707900 0.000000
-4.658100 0.000000
-4.608200 0.000000
-4.558300 0.000000
-4.508500 0.000000
-4.458600 0.000000
-4.408700 0.000000
-4.358900 0.000000
-4.309000 0.000000
-4.259100 0.000000
-4.209300 0.000000
-4.159400 0.000000
-4.109600 0.000000
-4.059700 0.000000
-4.009800 0.000000
-3.960000 0.000000
-3.910100 0.000000
-3.860200 0.000000
-3.810400 0.000000
-3.760500 0.000000
-3.710600 0.000000
-3.660800 0.000000
-3.610900 0.000000
-3.561000 0.000000
-3.511200 0.000000
-3.461300 0.000500
-3.411400 0.036700
-3.361600 0.074000
-3.311700 0.090100
-3.261800 0.102300
-3.212000 0.121800
-3.162100 0.140100
-3.112300 0.146200
-3.062400 0.156300
-3.012500 0.165900
-2.962700 0.177300
-2.912800 0.188800
-2.862900 0.200000
-2.813100 0.209600
-2.763200 0.216700
-2.713300 0.224400
-2.663500 0.232700
-2.613600 0.240700
-2.563700 0.248100
-2.513900 0.256600
-2.464000 0.265700
-2.414100 0.275000
-2.364300 0.284300
-2.314400 0.291700
-2.264500 0.298600
-2.214700 0.305300
-2.164800 0.312900
-2.115000 0.320700
-2.065100 0.328800
-2.015200 0.337200
-1.965400 0.346100
-1.915500 0.355300
-1.865600 0.365500
-1.815800 0.376500
-1.765900 0.388800
-1.716000 0.404200
-1.666200 0.424600
-1.616300 0.435600
-1.566400 0.434300
-1.516600 0.441500
-1.466700 0.444000
-1.416800 0.441000
-1.367000 0.439900
-1.317100 0.441700
-1.267300 0.444300
-1.217400 0.446300
-1.167500 0.447500
-1.117700 0.448600
-1.067800 0.448700
-1.017900 0.450600
-0.968100 0.451200
-0.918200 0.452000
-0.868300 0.452900
-0.818500 0.454300
-0.768600 0.455700
-0.718700 0.456100
-0.668900 0.456500
-0.619000 0.458000
-0.569100 0.459500
-0.519300 0.460900
-0.469400 0.462800
-0.419500 0.465400
-0.369700 0.467900
-0.319800 0.470400
-0.270000 0.472500
-0.220100 0.474300
-0.170200 0.476300
-0.120400 0.478700
-0.070500 0.482700
-0.020600 0.487500
0.029200 0.494300
0.079100 0.502700
0.129000 0.513000
0.178800 0.537700
0.228700 0.587100
0.278600 0.612800
0.328400 0.632100
0.378300 0.634600
0.428200 0.643200
0.478000 0.657800
0.527900 0.671400
0.577800 0.675700
0.627600 0.648600
0.677500 0.591500
0.727300 0.562300
0.777200 0.533600
0.827100 0.515800
0.876900 0.505500
0.926800 0.496900
0.976700 0.489400
1.026500 0.479800
1.076400 0.477300
1.126300 0.504400
1.176100 0.547800
1.226000 0.610700
1.275900 0.704400
1.325700 0.785700
1.375600 0.821500
1.425500 0.866600
1.475300 0.911800
1.525200 0.898500
1.575100 0.874500
1.624900 0.883900
1.674800 0.899600
1.724600 0.912900
1.774500 0.901300
1.824400 0.894900
1.874200 0.889700
1.924100 0.910900
1.974000 0.976500
2.023800 0.914400
2.073700 0.860700
2.123600 0.673600
2.173400 0.645000
2.223300 0.634500
2.273200 0.627800
2.323000 0.622300
2.372900 0.618300
2.422800 0.614400
2.472600 0.610100
2.522500 0.604200
2.572300 0.597600
2.622200 0.595700
2.672100 0.590000
2.721900 0.585000
2.771800 0.580500
2.821700 0.575300
2.871500 0.569600
2.921400 0.562500
2.971300 0.553800
3.021100 0.544900
3.071000 0.539300
3.120900 0.535300
3.170700 0.531300
3.220600 0.527600
3.270500 0.524100
3.320300 0.511500
3.370200 0.510100
3.420100 0.498500
3.469900 0.510300
3.519800 0.522700
3.569600 0.538600
3.619500 0.557500
3.669400 0.574900
3.719200 0.590600
3.769100 0.606900
3.819000 0.617400
3.868800 0.626100
3.918700 0.633200
3.968600 0.662900
4.018400 0.687100
4.068300 0.680500
4.118200 0.668300
4.168000 0.662500
4.217900 0.663100
4.267800 0.669200
4.317600 0.679600
4.367500 0.698900
4.417400 1.010100
4.467200 1.121700
4.517100 1.336900
4.566900 1.410600
4.616800 1.484000
4.666700 1.257600
4.716500 1.253600
4.766400 1.245700
4.816300 1.230200
4.866100 1.233500
4.916000 1.225100
4.965900 1.194600
5.015700 1.158200
5.065600 1.136200
5.115500 1.079800
5.165300 1.060100
5.215200 1.065300
5.265100 1.059300
5.314900 1.089900
5.364800 1.088900
5.414700 1.061700
5.464500 1.037300
5.514400 1.058000
5.564200 1.010200
5.614100 0.810100
5.664000 0.666200
5.713800 0.615900
5.763700 0.585400
5.813600 0.479100
5.863400 0.445600
5.913300 0.426200
5.963200 0.432000
6.013000 0.451500
6.062900 0.472600
6.112800 0.524400
6.162600 0.553700
6.212500 0.575600
6.262400 0.584000
6.312200 0.630800
6.362100 0.656800
6.412000 0.689800
6.461800 0.718100
6.511700 0.736400
6.561500 0.764400
6.611400 0.790700
6.661300 0.801500
6.711100 0.855900
6.761000 0.893900
6.810900 0.942500
6.860700 0.984200
6.910600 1.039300
6.960500 1.112500
7.010300 1.209400
7.060200 1.385500
7.110100 1.443400
7.159900 1.528800
7.209800 1.623600
7.259700 1.594700
7.309500 1.503200
7.359400 1.420700
7.409200 1.401800
7.459100 1.376600
7.509000 1.370700
7.558800 1.384300
7.608700 1.427100
7.658600 1.579600
7.708400 1.685600
7.758300 1.710800
7.808200 1.737700
7.858000 1.752200
7.907900 1.635400
7.957800 1.508800
8.007600 1.612900
8.057500 1.804600
8.107400 1.896200
8.157200 1.902000
8.207100 2.266500
8.257000 2.322400
8.306800 2.712500
8.356700 3.227400
8.406500 3.795200
8.456400 4.317500
8.506300 4.852800
8.556100 4.772800
8.606000 4.659900
8.655900 4.958500
8.705700 5.383400
8.755600 5.674600
8.805500 5.440000
8.855300 5.100500
8.905200 4.048900
8.955100 3.527400
9.004900 3.071900
9.054800 2.799100
9.104700 2.557200
9.154500 2.228100
9.204400 1.979500
9.254300 1.841400
9.304100 1.755700
9.354000 1.673200
9.403800 1.646300
9.453700 1.620000
9.503600 1.590000
9.553400 1.522300
9.603300 1.479300
9.653200 1.442700
9.703000 1.434900
9.752900 1.421000
9.802800 1.406300
9.852600 1.383800
9.902500 1.396500
9.952400 1.423600
10.002200 1.474900
10.052100 1.489200
10.102000 1.538700
10.151800 1.704400
10.201700 1.679300
10.251600 1.639100
10.301400 1.058800
10.351300 0.369400
10.401100 0.265600
10.451000 0.259700
10.500900 0.268500
10.550700 0.286100
10.600600 0.236900
10.650500 0.183400
10.700300 0.167500
10.750200 0.202300
10.800100 0.243200
10.849900 0.284300
10.899800 0.334800
10.949700 0.398300
10.999500 0.447900
11.049400 0.509600
11.099300 0.575300
11.149100 0.647000
11.199000 0.724000
11.248800 0.803000
11.298700 0.905500
11.348600 1.405500
11.398400 1.810600
11.448300 1.906400
11.498200 1.913800
11.548000 1.949200
11.597900 2.228100
11.647800 2.586800
11.697600 3.181600
11.747500 4.928300
11.797400 5.701400
11.847200 2.939000
11.897100 2.679300
11.947000 2.504300
11.996800 2.266000
12.046700 2.083500
12.096600 1.923000
12.146400 1.841700
12.196300 1.761300
12.246100 1.752300
12.296000 1.479500
12.345900 1.371300
12.395700 1.340100
12.445600 1.299700
12.495500 1.256200
12.545300 1.373900
12.595200 1.349200
12.645100 1.951200
12.694900 2.256500
12.744800 2.354100
12.794700 2.350700
12.844500 2.159300
12.894400 2.225800
12.944300 2.533100
12.994100 2.230500
13.044000 1.930900
13.093900 1.803700
13.143700 1.831300
13.193600 2.053500
13.243400 2.291800
13.293300 2.717300
13.343200 2.646700
13.393000 2.451600
13.442900 2.711200
13.492800 2.492800
13.542600 2.359900
13.592500 2.205400
13.642400 2.100900
13.692200 2.034400
13.742100 1.855100
13.792000 1.814500
13.841800 1.775400
13.891700 1.794300
13.941600 1.730900
13.991400 1.693500
14.041300 1.657200
14.091200 1.683500
14.141000 1.663700
14.190900 1.651400
14.240700 1.694100
14.290600 1.589800
14.340500 1.546200
14.390300 1.511600
14.440200 1.458100
14.490100 1.409400
14.539900 1.527500
14.589800 1.370700
14.639700 1.381500
14.689500 1.392600
14.739400 1.422100
14.789300 1.456000
14.839100 1.534800
14.889000 1.490700
14.938900 1.458200
14.988700 1.434000
15.038600 1.423200
15.088500 1.427700
15.138300 1.509800
15.188200 1.462400
15.238000 1.477300
15.287900 1.481100
15.337800 1.489800
15.387600 1.515900
15.437500 1.505300
15.487400 1.492000
15.537200 1.491100
15.587100 1.499600
15.637000 1.518200
15.686800 1.542200
15.736700 1.575300
15.786600 1.597800
15.836400 1.624000
15.886300 1.622500
15.936200 1.617200
15.986000 1.643900
16.035900 1.626400
16.085700 1.611400
16.135600 1.601100
16.185500 1.592500
16.235300 1.579300
16.285200 1.598800
16.335100 1.559900
16.384900 1.528700
16.434800 1.494100
16.484700 1.459000
16.534500 1.335600
16.584400 1.227100
16.634300 1.149000
16.684100 1.097900
16.734000 1.078900
16.783900 1.074700
16.833700 1.085400
16.883600 1.097800
16.933500 1.092900
16.983300 1.112800
17.033200 1.139300
17.083000 1.192200
17.132900 1.216500
17.182800 1.280400
17.232600 1.302100
17.282500 1.334300
17.332400 1.273500
17.382200 1.219700
17.432100 1.184800
17.482000 1.171900
17.531800 1.167400
17.581700 1.176300
17.631600 1.192100
17.681400 1.179200
17.731300 1.126800
17.781200 1.054100
17.831000 1.027400
17.880900 1.073900
17.930800 1.145400
17.980600 1.211700
18.030500 1.341800
18.080300 1.518600
18.130200 1.718200
18.180100 1.768300
18.229900 1.503600
18.279800 1.337500
18.329700 1.291200
18.379500 1.278300
18.429400 1.242500
18.479300 1.234400
18.529100 1.258500
18.579000 1.286800
18.628900 1.344700
18.678700 1.459500
18.728600 1.486400
18.778500 1.556700
18.828300 1.662200
18.878200 1.831400
18.928100 1.888300
18.977900 1.993700
19.027800 2.061600
19.077600 2.119500
19.127500 2.099500
19.177400 1.764200
19.227200 1.427800
19.277100 1.251400
19.327000 1.143600
19.376800 1.100800
19.426700 1.037300
19.476600 0.930000
19.526400 0.901600
19.576300 0.930800
19.626200 1.023900
19.676000 1.159200
19.725900 1.359200
19.775800 1.371300
19.825600 1.214300
19.875500 1.199600
19.925400 1.186300
19.975200 1.164900
20.025100 1.144200
20.074900 1.130900
20.124800 1.098600
20.174700 1.081900
20.224500 1.067000
20.274400 1.083600
20.324300 1.115700
20.374100 1.146600
20.424000 1.174600
20.473900 1.210200
20.523700 1.242800
20.573600 1.266200
20.623500 1.295800
20.673300 1.326800
20.723200 1.324800
20.773100 1.326500
20.822900 1.320800
20.872800 1.324400
20.922600 1.330700
20.972500 1.372400
21.022400 1.424300
21.072200 1.493300
21.122100 1.548900
21.172000 1.604200
21.221800 1.664100
21.271700 1.689600
21.321600 1.734600
21.371400 1.607800
21.421300 1.603200
21.471200 1.536200
21.521000 1.497200
21.570900 1.483600
21.620800 1.450900
21.670600 1.430900
21.720500 1.415600
21.770400 1.404900
21.820200 1.409500
21.870100 1.433900
21.919900 1.453500
21.969800 1.494400
22.019700 1.473900
22.069500 1.462000
22.119400 1.460400
22.169300 1.395900
22.219100 1.353400
22.269000 1.315400
22.318900 1.340900
22.368700 1.258900
22.418600 1.246500
22.468500 1.263000
22.518300 1.291500
22.568200 1.308200
22.618100 1.337700
22.667900 1.418000
22.717800 1.468400
22.767700 1.483000
22.817500 1.451800
22.867400 1.435300
22.917200 1.381200
22.967100 1.326100
23.017000 1.308900
23.066800 1.272200
23.116700 1.273600
23.166600 1.336900
23.216400 1.351300
23.266300 1.339300
23.316200 1.339400
23.366000 1.338500
23.415900 1.351100
23.465800 1.356200
23.515600 1.391300
23.565500 1.446700
23.615400 1.532800
23.665200 1.561000
23.715100 1.603100
23.765000 1.618700
23.814800 1.720400
23.864700 1.743300
23.914500 1.655600
23.964400 1.605000
24.014300 1.578800
24.064100 1.510300
24.114000 1.459700
24.163900 1.417400
24.213700 1.371800
24.263600 1.371400
24.313500 1.358700
24.363300 1.327000
24.413200 1.317500
24.463100 1.321100
24.512900 1.296000
24.562800 1.293300
24.612700 1.287700
24.662500 1.285100
24.712400 1.295100
24.762200 1.326900
24.812100 1.358800
24.862000 1.386100
24.911800 1.389000
24.961700 1.314800
25.011600 1.333200
25.061400 1.361800
25.111300 1.410400
25.161200 1.445000
25.211000 1.497500
25.260900 1.572900
25.310800 1.681300
25.360600 1.653700
25.410500 1.633500
25.460400 1.685600
25.510200 1.748900
25.560100 1.719800
25.610000 1.627500
25.659800 1.528300
25.709700 1.483700
25.759500 1.455800
25.809400 1.428000
25.859300 1.433700
25.909100 1.465800
25.959000 1.452600
26.008900 1.391200
26.058700 1.387700
26.108600 1.384000
26.158500 1.356500
26.208300 1.295200
26.258200 1.282400
26.308100 1.266500
26.357900 1.295300
26.407800 1.344500
26.457700 1.405100
26.507500 1.400300
26.557400 1.397300
26.607300 1.400500
26.657100 1.376500
26.707000 1.358300
26.756800 1.335500
26.806700 1.304700
26.856600 1.281500
26.906400 1.309300
26.956300 1.265400
27.006200 1.236500
27.056000 1.229100
27.105900 1.223600
27.155800 1.241600
27.205600 1.256900
27.255500 1.256300
27.305400 1.263200
27.355200 1.273600
27.405100 1.282700
27.455000 1.313400
27.504800 1.342300
27.554700 1.400800
27.604600 1.352100
27.654400 1.334900
27.704300 1.331400
27.754100 1.352500
27.804000 1.384600
27.853900 1.440500
27.903700 1.537300
27.953600 1.634000
28.003500 1.685300
28.053300 1.659700
28.103200 1.637300
28.153100 1.639200
28.202900 1.607200
28.252800 1.536300
28.302700 1.480300
28.352500 1.478500
28.402400 1.515300
28.452300 1.543000
28.502100 1.511300
28.552000 1.512600
28.601900 1.535700
28.651700 1.565000
28.701600 1.597800
28.751400 1.715600
28.801300 1.775600
28.851200 1.736700
28.901000 1.676400
28.950900 1.610100
29.000800 1.588800
29.050600 1.572000
29.100500 1.487100
29.150400 1.473500
29.200200 1.471900
29.250100 1.452500
29.300000 1.462600
29.349800 1.482500
29.399700 1.493300
29.449600 1.492900
29.499400 1.499500
29.549300 1.548300
29.599100 1.555200
29.649000 1.553900
29.698900 1.558400
29.748700 1.560400
29.798600 1.461100
29.848500 1.520800
29.898300 1.507800
29.948200 1.522300
29.998100 1.560500
30.047900 1.582000
30.097800 1.593300
30.147700 1.586600
30.197500 1.582200
30.247400 1.603100
30.297300 1.607400
30.347100 1.666000
30.397000 1.668200
30.446900 1.657800
30.496700 1.620900
30.546600 1.605900
30.596400 1.576600
30.646300 1.470700
30.696200 1.347200
30.746000 1.255300
30.795900 1.213600
30.845800 1.194100
30.895600 1.183800
30.945500 1.177400
30.995400 1.188300
31.045200 1.352500
31.095100 1.449400
31.145000 1.420800
31.194800 1.361700
31.244700 1.404700
31.294600 1.332400
31.344400 1.327300
31.394300 1.285700
31.444200 1.310600
31.494000 1.426200
31.543900 1.505300
31.593700 1.593900
31.643600 1.594200
31.693500 1.625700
31.743300 1.672800
31.793200 1.738500
31.843100 1.870000
31.892900 1.832000
31.942800 1.779100
31.992700 1.646300
32.042500 1.521300
32.092400 1.475900
32.142300 1.454100
32.192100 1.411500
32.242000 1.385600
32.291900 1.372700
32.341700 1.367100
32.391600 1.359900
32.441500 1.359800
32.491300 1.367600
32.541200 1.367900
32.591000 1.414600
32.640900 1.474100
32.690800 1.513500
32.740600 1.555700
32.790500 1.603500
32.840400 1.621300
32.890200 1.615500
32.940100 1.621700
32.990000 1.648300
33.039800 1.749500
33.089700 1.738700
33.139600 1.771300
33.189400 1.797500
33.239300 1.803100
33.289200 1.822600
33.339000 1.829500
33.388900 1.767700
33.438800 1.721600
33.488600 1.698700
33.538500 1.664200
33.588300 1.589400
33.638200 1.585400
33.688100 1.615600
33.737900 1.650400
33.787800 1.624800
33.837700 1.623000
33.887500 1.606300
33.937400 1.600700
33.987300 1.613100
34.037100 1.567500
34.087000 1.561600
34.136900 1.572700
34.186700 1.618200
34.236600 1.639700
34.286500 1.649300
34.336300 1.662900
34.386200 1.662500
34.436000 1.701900
34.485900 1.746900
34.535800 1.792000
34.585600 1.805800
34.635500 1.878200
34.685400 1.935800
34.735200 1.958800
34.785100 1.998600
34.835000 2.070800
34.884800 2.172000
34.934700 2.248600
34.984600 2.255200
35.034400 2.202700
35.084300 2.167700
35.134200 2.038000
35.184000 1.928200
35.233900 1.800100
35.283800 1.666500
35.333600 1.620600
35.383500 1.627700
35.433300 1.680800
35.483200 1.711400
35.533100 1.759200
35.582900 1.715800
35.632800 1.586100
35.682700 1.502700
35.732500 1.448300
35.782400 1.431200
35.832300 1.451500
35.882100 1.511300
35.932000 1.553600
35.981900 1.523000
36.031700 1.577600
36.081600 1.574500
36.131500 1.612700
36.181300 1.568200
36.231200 1.565800
36.281100 1.575100
36.330900 1.611900
36.380800 1.626500
36.430600 1.700200
36.480500 1.675100
36.530400 1.629100
36.580200 1.473800
36.630100 1.415100
36.680000 1.370700
36.729800 1.326900
36.779700 1.291000
36.829600 1.263100
36.879400 1.287700
36.929300 1.333300
36.979200 1.206800
37.029000 1.159400
37.078900 1.149700
37.128800 1.180700
37.178600 1.180000
37.228500 1.139300
37.278400 1.126200
37.328200 1.134600
37.378100 1.145600
37.427900 1.197400
37.477800 1.251200
37.527700 1.250000
37.577500 1.311900
37.627400 1.371000
37.677300 1.398800
37.727100 1.435100
37.777000 1.462800
37.826900 1.495800
37.876700 1.561000
37.926600 1.624600
37.976500 1.738600
38.026300 1.762200
38.076200 1.715600
38.126100 1.685100
38.175900 1.733000
38.225800 1.666200
38.275600 1.654700
38.325500 1.682100
38.375400 1.712700
38.425200 1.748500
38.475100 1.592500
38.525000 1.501100
38.574800 1.454900
38.624700 1.463500
38.674600 1.464300
38.724400 1.507100
38.774300 1.570400
38.824200 1.721700
38.874000 1.900800
38.923900 1.982800
38.973800 1.923900
39.023600 1.882000
39.073500 1.888400
39.123400 1.875100
39.173200 1.855100
39.223100 1.840000
39.272900 1.841200
39.322800 1.806100
39.372700 1.751600
39.422500 1.700600
39.472400 1.621800
39.522300 1.566900
39.572100 1.569300
39.622000 1.646200
39.671900 1.661600
39.721700 1.675900
39.771600 1.772200
39.821500 1.773600
39.871300 1.793400
39.921200 1.930900
39.971100 1.966000
40.020900 1.973600
40.070800 1.994000
40.120700 1.991700
40.170500 2.013300
40.220400 2.046400
40.270200 1.985600
40.320100 1.908100
40.370000 1.844900
40.419800 1.819400
40.469700 1.784600
40.519600 1.754000
40.569400 1.753000
40.619300 1.707700
40.669200 1.638500
40.719000 1.685900
40.768900 1.731600
40.818800 1.734200
40.868600 1.762100
40.918500 1.765900
40.968400 1.757600
41.018200 1.721600
41.068100 1.638900
41.118000 1.618100
41.167800 1.660000
41.217700 1.637100
41.267500 1.648100
41.317400 1.669300
41.367300 1.706400
41.417100 1.736900
41.467000 1.786400
41.516900 1.904200
41.566700 1.972500
41.616600 1.969800
41.666500 1.915000
41.716300 1.844200
41.766200 1.758800
41.816100 1.687600
41.865900 1.607300
41.915800 1.533700
41.965700 1.524100
42.015500 1.501500
42.065400 1.428700
42.115300 1.415500
42.165100 1.442300
42.215000 1.453000
42.264800 1.517800
42.314700 1.555200
42.364600 1.604300
42.414400 1.646000
42.464300 1.726500
42.514200 1.837500
42.564000 2.216900
42.613900 2.037900
42.663800 2.122400
42.713600 2.207400
42.763500 2.402300
42.813400 2.386800
42.863200 2.390900
42.913100 2.365000
42.963000 2.290700
43.012800 2.308900
43.062700 2.199200
43.112500 2.079100
43.162400 2.011600
43.212300 2.055500
43.262100 2.130900
43.312000 2.211300
43.361900 2.200200
43.411700 2.198600
43.461600 2.225400
43.511500 2.279300
43.561300 2.347800
43.611200 2.431400
43.661100 2.420500
43.710900 2.383200
43.760800 2.510800
43.810700 2.795000
43.860500 2.840700
43.910400 3.054400
43.960300 3.266000
44.010100 3.648900
44.060000 4.318100
44.109800 4.472600
44.159700 4.520300
44.209600 4.087400
44.259400 4.628200
44.309300 5.749600
44.359200 3.591000
44.409000 3.015900
44.458900 2.661200
44.508800 2.542200
44.558600 2.564100
44.608500 2.498100
44.658400 2.380800
44.708200 2.134400
44.758100 1.959300
44.808000 1.829700
44.857800 1.778600
44.907700 1.863400
44.957600 1.875500
45.007400 1.950700
45.057300 2.128900
45.107100 2.152400
45.157000 2.262500
45.206900 2.084100
45.256700 2.012800
45.306600 2.021100
45.356500 2.008700
45.406300 1.992600
45.456200 1.998600
45.506100 2.127000
45.555900 2.006800
45.605800 1.963200
45.655700 1.957000
45.705500 1.949300
45.755400 1.935300
45.805300 1.830200
45.855100 1.825000
45.905000 1.870600
45.954900 1.897500
46.004700 1.831200
46.054600 1.722600
46.104400 1.672100
46.154300 1.683200
46.204200 1.683700
46.254000 1.679400
46.303900 1.610600
46.353800 1.573600
46.403600 1.656200
46.453500 1.671100
46.503400 1.700000
46.553200 1.797400
46.603100 1.792900
46.653000 1.802000
46.702800 1.765900
46.752700 1.773600
46.802600 1.767900
46.852400 1.758400
46.902300 1.828700
46.952200 1.923100
47.002000 2.027800
47.051900 2.116300
47.101700 2.176300
47.151600 2.230400
47.201500 2.166200
47.251300 2.057000
47.301200 1.815200
47.351100 1.754900
47.400900 1.752800
47.450800 1.821200
47.500700 1.833900
47.550500 1.885300
47.600400 1.675100
47.650300 1.504000
47.700100 1.417400
47.750000 1.444600
47.799900 1.451500
47.849700 1.440200
47.899600 1.472100
47.949400 1.520500
47.999300 1.578600
48.049200 1.501800
48.099000 1.476800
48.148900 1.500100
48.198800 1.491800
48.248600 1.464900
48.298500 1.437100
48.348400 1.405200
48.398200 1.378900
48.448100 1.396100
48.498000 1.457400
48.547800 1.503000
48.597700 1.591400
48.647600 1.684600
48.697400 1.773800
48.747300 1.837800
48.797200 1.920000
48.847000 1.993600
48.896900 1.963200
48.946700 2.018200
48.996600 2.004700
49.046500 1.947800
49.096300 1.877300
49.146200 1.857800
49.196100 1.819000
49.245900 1.867500
49.295800 1.899200
49.345700 1.927100
49.395500 1.974000
49.445400 2.013500
49.495300 2.008900
49.545100 1.954600
49.595000 1.793000
49.644900 1.724300
49.694700 1.773600
49.744600 1.953000
49.794500 2.006300
49.844300 1.983600
49.894200 2.076300
49.944000 2.288600
49.993900 2.220200
50.043800 2.007200
50.093600 1.942800
50.143500 1.780600
50.193400 1.768400
50.243200 1.802100
50.293100 1.894800
50.343000 1.980500
50.392800 1.939600
50.442700 1.850200
50.492600 1.769000
50.542400 1.683000
50.592300 1.625000
50.642200 1.643000
50.692000 1.618700
50.741900 1.555200
50.791800 1.579900
50.841600 1.571900
50.891500 1.640200
50.941300 1.764400
50.991200 1.950800
51.041100 2.239900
51.090900 2.389300
51.140800 2.367000
51.190700 2.333200
51.240500 2.357500
51.290400 2.350700
51.340300 2.350200
51.390100 2.311000
51.440000 2.233500
51.489900 2.194700
51.539700 2.117800
51.589600 2.111900
51.639500 2.107200
51.689300 2.114800
51.739200 2.134800
51.789000 2.087000
51.838900 2.033600
51.888800 1.914000
51.938600 1.881900
51.988500 1.851600
52.038400 1.851500
52.088200 1.793500
52.138100 1.777700
52.188000 1.834500
52.237800 2.000700
52.287700 2.145500
52.337600 1.999300
52.387400 1.911300
52.437300 1.899900
52.487200 1.953300
52.537000 2.132800
52.586900 2.047100
52.636800 2.035500
52.686600 2.010800
52.736500 2.050400
52.786300 2.093200
52.836200 2.146100
52.886100 2.210600
52.935900 2.239800
52.985800 2.095600
53.035700 2.049200
53.085500 2.060700
53.135400 2.146700
53.185300 2.195400
53.235100 2.235500
53.285000 2.277100
53.334900 2.344600
53.384700 2.386400
53.434600 2.380000
53.484500 2.385400
53.534300 2.364400
53.584200 2.244100
53.634100 2.113700
53.683900 1.976600
53.733800 1.814900
53.783600 1.784100
53.833500 1.784300
53.883400 1.834000
53.933200 1.923000
53.983100 1.998800
54.033000 2.122900
54.082800 2.198900
54.132700 2.268500
54.182600 2.288700
54.232400 2.253700
54.282300 2.183000
54.332200 2.087000
54.382000 1.986600
54.431900 1.852900
54.481800 1.751800
54.531600 1.655700
54.581500 1.563100
54.631400 1.482500
54.681200 1.417300
54.731100 1.400400
54.780900 1.519900
54.830800 1.411600
54.880700 1.507300
54.930500 1.641200
54.980400 1.642900
55.030300 1.640700
55.080100 1.650700
55.130000 1.621200
55.179900 1.509600
55.229700 1.430400
55.279600 1.346600
55.329500 1.245700
55.379300 1.143100
55.429200 1.005400
55.479100 0.886700
55.528900 0.783200
55.578800 0.666700
55.628700 0.633700
55.678500 0.605300
55.728400 0.583400
55.778200 0.567300
55.828100 0.559000
55.878000 0.567100
55.927800 0.578600
55.977700 0.554000
56.027600 0.499200
56.077400 0.460000
56.127300 0.425000
56.177200 0.399700
56.227000 0.376300
56.276900 0.358900
56.326800 0.354200
56.376600 0.334800
56.426500 0.315100
56.476400 0.296300
56.526200 0.278500
56.576100 0.262500
56.625900 0.248100
56.675800 0.233400
56.725700 0.219600
56.775500 0.208000
56.825400 0.198300
56.875300 0.189000
56.925100 0.182200
56.975000 0.204700
57.024900 0.161300
57.074700 0.156500
57.124600 0.120200
57.174500 0.097700
57.224300 0.088200
57.274200 0.082000
57.324100 0.076300
57.373900 0.072000
57.423800 0.068200
57.473700 0.064600
57.523500 0.061300
57.573400 0.058400
57.623200 0.056000
57.673100 0.053700
57.723000 0.051300
57.772800 0.049000
57.822700 0.044500
57.872600 0.040500
57.922400 0.037500
57.972300 0.035100
58.022200 0.034000
58.072000 0.033900
58.121900 0.034200
58.171800 0.033800
58.221600 0.029600
58.271500 0.025100
58.321400 0.020500
58.371200 0.020800
58.421100 0.000200
58.471000 0.000000
58.520800 0.000000
58.570700 0.000000
58.620500 0.000000
58.670400 0.000000
58.720300 0.000000
58.770100 0.000000
58.820000 0.000000
58.869900 0.000000
58.919700 0.000000
58.969600 0.000000
59.019500 0.000000
59.069300 0.000000
59.119200 0.000000
59.169100 0.000000
59.218900 0.000000
59.268800 0.000000
59.318700 0.000000
59.368500 0.000000
59.418400 0.000000
59.468300 0.000000
59.518100 0.000000
59.568000 0.000000
59.617800 0.000000
59.667700 0.000000
59.717600 0.000000
59.767400 0.000000
59.817300 0.000000
59.867200 0.000000
59.917000 0.000000
59.966900 0.000000
60.016800 0.000000
60.066600 0.000000
60.116500 0.000000
60.166400 0.000000
60.216200 0.000000
60.266100 0.000000
60.316000 0.000000
60.365800 0.000000
60.415700 0.000000
60.465500 0.000000
60.515400 0.000000
60.565300 0.000000
60.615100 0.000000
60.665000 0.000000
60.714900 0.000000
60.764700 0.000000
60.814600 0.000000
60.864500 0.000000
60.914300 0.000000
60.964200 0.000000
61.014100 0.000000
61.063900 0.000000
61.113800 0.000000
61.163700 0.000000
61.213500 0.000000
61.263400 0.000000
61.313300 0.000000
61.363100 0.000000
61.413000 0.000000
61.462800 0.000000
61.512700 0.000000
61.562600 0.000000
61.612400 0.000000
61.662300 0.000000
61.712200 0.000000
61.762000 0.000000
61.811900 0.000000
61.861800 0.000000
61.911600 0.000000
61.961500 0.000000
62.011400 0.000000
62.061200 0.000000
62.111100 0.000000
62.161000 0.000000
62.210800 0.000000
62.260700 0.000000
62.310600 0.000000
62.360400 0.000000
62.410300 0.000000
62.460100 0.000000
62.510000 0.000000
62.559900 0.000000
62.609700 0.000000
62.659600 0.000000
62.709500 0.000000
62.759300 0.000000
62.809200 0.000000
62.859100 0.000000
62.908900 0.000000
62.958800 0.000000
e
