set title 'mp-21400 - Density of States'
set xlabel 'Energy (eV)'
set ylabel 'DOS (states/eV)'
set grid
set xrange [-10:10]
set yrange [0:185.219]
set xzeroaxis lt -1
set terminal png size 800,600
set output 'mp-21400_dos_gnuplot.png'
plot '-' using 1:2 with lines title 'DOS'
-11.452200 0.000000
-11.435400 0.000000
-11.418700 0.000000
-11.401900 0.000000
-11.385200 0.000000
-11.368400 0.000000
-11.351600 0.000000
-11.334900 0.000000
-11.318100 0.000000
-11.301400 0.000000
-11.284600 0.000000
-11.267900 0.000000
-11.251100 0.000000
-11.234300 0.000000
-11.217600 0.000000
-11.200800 0.000000
-11.184100 0.000000
-11.167300 0.000000
-11.150600 0.000000
-11.133800 0.000000
-11.117000 0.000000
-11.100300 0.000000
-11.083500 0.000000
-11.066800 0.000000
-11.050000 0.000000
-11.033200 0.000000
-11.016500 0.000000
-10.999700 0.000000
-10.983000 0.000000
-10.966200 0.000000
-10.949500 0.000000
-10.932700 0.000000
-10.915900 0.000000
-10.899200 0.000000
-10.882400 0.000000
-10.865700 0.000000
-10.848900 0.000000
-10.832200 0.000000
-10.815400 0.000000
-10.798600 0.000000
-10.781900 0.000000
-10.765100 0.000000
-10.748400 0.000000
-10.731600 0.000000
-10.714900 0.000000
-10.698100 0.000000
-10.681300 0.000000
-10.664600 0.000000
-10.647800 0.000000
-10.631100 0.000000
-10.614300 0.000000
-10.597600 0.000000
-10.580800 0.000000
-10.564000 0.000000
-10.547300 0.000000
-10.530500 0.000000
-10.513800 0.000000
-10.497000 0.000000
-10.480300 0.000000
-10.463500 0.000000
-10.446700 0.000000
-10.430000 0.000000
-10.413200 0.000000
-10.396500 0.000000
-10.379700 0.000000
-10.363000 0.000000
-10.346200 0.000000
-10.329400 0.000000
-10.312700 0.000000
-10.295900 0.000000
-10.279200 0.000000
-10.262400 0.000000
-10.245700 0.000000
-10.228900 0.000000
-10.212100 0.000000
-10.195400 0.000000
-10.178600 0.000000
-10.161900 0.000000
-10.145100 0.000000
-10.128300 0.000000
-10.111600 0.000000
-10.094800 0.000000
-10.078100 0.000000
-10.061300 0.000000
-10.044600 0.000000
-10.027800 0.000000
-10.011000 0.000000
-9.994300 0.000000
-9.977500 0.000000
-9.960800 0.000000
-9.944000 0.000000
-9.927300 1.924600
-9.910500 42.786700
-9.893700 123.963200
-9.877000 109.866200
-9.860200 168.380900
-9.843500 167.865800
-9.826700 8.965900
-9.810000 47.021600
-9.793200 95.184400
-9.776400 141.447300
-9.759700 142.414300
-9.742900 128.367900
-9.726200 57.396500
-9.709400 67.747200
-9.692700 105.035600
-9.675900 127.025900
-9.659100 51.601900
-9.642400 20.957700
-9.625600 31.495900
-9.608900 48.169900
-9.592100 42.924600
-9.575400 20.145500
-9.558600 0.000000
-9.541800 0.000000
-9.525100 0.000000
-9.508300 0.000000
-9.491600 0.000000
-9.474800 0.000000
-9.458100 0.000000
-9.441300 0.000000
-9.424500 0.000000
-9.407800 0.000000
-9.391000 0.000000
-9.374300 0.000000
-9.357500 0.000000
-9.340800 0.000000
-9.324000 0.000000
-9.307200 0.000000
-9.290500 0.000000
-9.273700 0.000000
-9.257000 0.000000
-9.240200 0.000000
-9.223500 0.000000
-9.206700 0.000000
-9.189900 0.000000
-9.173200 0.000000
-9.156400 0.000000
-9.139700 0.000000
-9.122900 0.000000
-9.106100 0.000000
-9.089400 0.000000
-9.072600 0.000000
-9.055900 0.000000
-9.039100 0.000000
-9.022400 0.000000
-9.005600 0.000000
-8.988800 0.000000
-8.972100 0.000000
-8.955300 0.000000
-8.938600 0.000000
-8.921800 0.000000
-8.905100 0.000000
-8.888300 0.000000
-8.871500 0.000000
-8.854800 0.000000
-8.838000 0.000000
-8.821300 0.000000
-8.804500 0.000000
-8.787800 0.000000
-8.771000 0.000000
-8.754200 0.000000
-8.737500 0.000000
-8.720700 0.000000
-8.704000 0.000000
-8.687200 0.000000
-8.670500 0.000000
-8.653700 0.000000
-8.636900 0.000000
-8.620200 0.000000
-8.603400 0.000000
-8.586700 0.000000
-8.569900 0.000000
-8.553200 0.000000
-8.536400 0.000000
-8.519600 0.000000
-8.502900 0.000000
-8.486100 0.000000
-8.469400 0.000000
-8.452600 0.000000
-8.435900 0.000000
-8.419100 0.000000
-8.402300 0.000000
-8.385600 0.000000
-8.368800 0.000000
-8.352100 0.000000
-8.335300 0.000000
-8.318600 0.000000
-8.301800 0.000000
-8.285000 0.000000
-8.268300 0.000000
-8.251500 0.000000
-8.234800 0.000000
-8.218000 0.000000
-8.201200 0.000000
-8.184500 0.000000
-8.167700 0.000000
-8.151000 0.000000
-8.134200 0.000000
-8.117500 0.000000
-8.100700 0.000000
-8.083900 0.000000
-8.067200 0.000000
-8.050400 0.000000
-8.033700 0.000000
-8.016900 0.000000
-8.000200 0.000000
-7.983400 0.000000
-7.966600 0.000000
-7.949900 0.000000
-7.933100 0.000000
-7.916400 0.000000
-7.899600 0.000000
-7.882900 0.000000
-7.866100 0.000000
-7.849300 0.000000
-7.832600 0.000000
-7.815800 0.000000
-7.799100 0.000000
-7.782300 0.000000
-7.765600 0.000000
-7.748800 0.000000
-7.732000 0.000000
-7.715300 0.000000
-7.698500 0.000000
-7.681800 0.000000
-7.665000 0.000000
-7.648300 0.000000
-7.631500 0.000000
-7.614700 0.000000
-7.598000 0.000000
-7.581200 0.000000
-7.564500 0.000000
-7.547700 0.000000
-7.531000 0.000000
-7.514200 0.000000
-7.497400 0.000000
-7.480700 0.000000
-7.463900 0.000000
-7.447200 0.000000
-7.430400 0.000000
-7.413700 0.000000
-7.396900 0.000000
-7.380100 0.000000
-7.363400 0.000000
-7.346600 0.000000
-7.329900 0.000000
-7.313100 0.000000
-7.296300 0.000000
-7.279600 0.000000
-7.262800 0.000000
-7.246100 0.000000
-7.229300 0.000000
-7.212600 0.000000
-7.195800 0.000000
-7.179000 0.000000
-7.162300 0.000000
-7.145500 0.000000
-7.128800 0.000000
-7.112000 0.000000
-7.095300 0.000000
-7.078500 0.000000
-7.061700 0.000000
-7.045000 0.000000
-7.028200 0.000000
-7.011500 0.000000
-6.994700 0.000000
-6.978000 0.000000
-6.961200 0.000000
-6.944400 0.000000
-6.927700 0.000000
-6.910900 0.000000
-6.894200 0.000000
-6.877400 0.000000
-6.860700 0.000000
-6.843900 0.000000
-6.827100 0.000000
-6.810400 0.000000
-6.793600 0.000000
-6.776900 0.000000
-6.760100 0.000000
-6.743400 0.000000
-6.726600 0.000000
-6.709800 0.000000
-6.693100 0.000000
-6.676300 0.000000
-6.659600 0.000000
-6.642800 0.000000
-6.626100 0.000000
-6.609300 0.000000
-6.592500 0.000000
-6.575800 0.000000
-6.559000 0.000000
-6.542300 0.000000
-6.525500 0.000000
-6.508800 0.000000
-6.492000 0.000000
-6.475200 0.000000
-6.458500 0.000000
-6.441700 0.000000
-6.425000 0.000000
-6.408200 0.000000
-6.391400 0.000000
-6.374700 0.000000
-6.357900 0.000000
-6.341200 0.000000
-6.324400 0.000000
-6.307700 0.000000
-6.290900 0.000000
-6.274100 0.000000
-6.257400 0.000000
-6.240600 0.000000
-6.223900 0.000000
-6.207100 0.000000
-6.190400 0.000000
-6.173600 0.000000
-6.156800 0.000000
-6.140100 0.000000
-6.123300 0.000000
-6.106600 0.000000
-6.089800 0.000000
-6.073100 0.000000
-6.056300 0.000000
-6.039500 0.000000
-6.022800 0.000000
-6.006000 0.000000
-5.989300 0.000000
-5.972500 0.000000
-5.955800 0.012600
-5.939000 0.047500
-5.922200 0.100000
-5.905500 0.123500
-5.888700 0.128400
-5.872000 0.135600
-5.855200 0.152600
-5.838500 0.170400
-5.821700 0.188700
-5.804900 0.205900
-5.788200 0.217500
-5.771400 0.222800
-5.754700 0.227800
-5.737900 0.234600
-5.721200 0.243400
-5.704400 0.253400
-5.687600 0.263300
-5.670900 0.273300
-5.654100 0.283200
-5.637400 0.293600
-5.620600 0.303900
-5.603900 0.313500
-5.587100 0.320200
-5.570300 0.325500
-5.553600 0.331200
-5.536800 0.338100
-5.520100 0.344900
-5.503300 0.351400
-5.486500 0.357700
-5.469800 0.364100
-5.453000 0.371000
-5.436300 0.378400
-5.419500 0.386200
-5.402800 0.394200
-5.386000 0.402200
-5.369200 0.410200
-5.352500 0.417900
-5.335700 0.425700
-5.319000 0.433300
-5.302200 0.439900
-5.285500 0.445400
-5.268700 0.450700
-5.251900 0.456600
-5.235200 0.463100
-5.218400 0.469600
-5.201700 0.476200
-5.184900 0.482700
-5.168200 0.489300
-5.151400 0.496100
-5.134600 0.503000
-5.117900 0.511100
-5.101100 0.522000
-5.084400 0.535600
-5.067600 0.548500
-5.050900 0.560400
-5.034100 0.572500
-5.017300 0.584800
-5.000600 0.597400
-4.983800 0.609600
-4.967100 0.617300
-4.950300 0.618300
-4.933600 0.614200
-4.916800 0.616300
-4.900000 0.617700
-4.883300 0.618700
-4.866500 0.619300
-4.849800 0.619600
-4.833000 0.619700
-4.816300 0.619600
-4.799500 0.620100
-4.782700 0.621200
-4.766000 0.622900
-4.749200 0.624800
-4.732500 0.626300
-4.715700 0.627700
-4.699000 0.629000
-4.682200 0.630100
-4.665400 0.631100
-4.648700 0.631900
-4.631900 0.632700
-4.615200 0.633500
-4.598400 0.634400
-4.581600 0.636000
-4.564900 0.637700
-4.548100 0.639300
-4.531400 0.640500
-4.514600 0.641600
-4.497900 0.642900
-4.481100 0.644400
-4.464300 0.645900
-4.447600 0.647200
-4.430800 0.648300
-4.414100 0.649300
-4.397300 0.650300
-4.380600 0.651300
-4.363800 0.652300
-4.347000 0.653400
-4.330300 0.654500
-4.313500 0.655700
-4.296800 0.657100
-4.280000 0.658800
-4.263300 0.660600
-4.246500 0.662500
-4.229700 0.664400
-4.213000 0.666400
-4.196200 0.668400
-4.179500 0.670500
-4.162700 0.672600
-4.146000 0.674700
-4.129200 0.677000
-4.112400 0.679300
-4.095700 0.681500
-4.078900 0.683600
-4.062200 0.685500
-4.045400 0.687500
-4.028700 0.689500
-4.011900 0.691500
-3.995100 0.693500
-3.978400 0.697200
-3.961600 0.707200
-3.944900 0.723900
-3.928100 0.735800
-3.911400 0.748400
-3.894600 0.761600
-3.877800 0.775600
-3.861100 0.790200
-3.844300 0.805300
-3.827600 0.820600
-3.810800 0.835700
-3.794100 0.851300
-3.777300 0.865500
-3.760500 0.876800
-3.743800 0.887400
-3.727000 0.900300
-3.710300 0.913400
-3.693500 0.926500
-3.676700 0.939200
-3.660000 0.951600
-3.643200 0.986900
-3.626500 1.014300
-3.609700 1.030700
-3.593000 1.038100
-3.576200 1.043300
-3.559400 1.047500
-3.542700 1.051500
-3.525900 1.055000
-3.509200 1.057500
-3.492400 1.165100
-3.475700 1.140000
-3.458900 1.080400
-3.442100 1.075800
-3.425400 1.073400
-3.408600 1.071100
-3.391900 1.068800
-3.375100 1.065300
-3.358400 1.058900
-3.341600 1.051600
-3.324800 1.047700
-3.308100 1.045200
-3.291300 1.042200
-3.274600 1.038900
-3.257800 1.035400
-3.241100 1.031700
-3.224300 1.028100
-3.207500 1.024500
-3.190800 1.021800
-3.174000 1.023200
-3.157300 1.028900
-3.140500 1.036300
-3.123800 1.045100
-3.107000 1.055300
-3.090200 1.060600
-3.073500 1.044900
-3.056700 1.028300
-3.040000 1.025600
-3.023200 1.023800
-3.006500 1.021800
-2.989700 1.019700
-2.972900 1.017800
-2.956200 1.016300
-2.939400 1.016500
-2.922700 1.020500
-2.905900 1.027300
-2.889200 1.033200
-2.872400 1.038500
-2.855600 1.042700
-2.838900 1.045600
-2.822100 1.047400
-2.805400 1.068100
-2.788600 1.112400
-2.771900 1.166600
-2.755100 1.236200
-2.738300 1.312900
-2.721600 1.298500
-2.704800 1.333000
-2.688100 1.399500
-2.671300 1.500800
-2.654500 1.895200
-2.637800 1.789100
-2.621000 1.840000
-2.604300 1.884800
-2.587500 1.945100
-2.570800 1.994600
-2.554000 1.998500
-2.537200 1.960500
-2.520500 1.955600
-2.503700 1.968700
-2.487000 1.997300
-2.470200 2.033300
-2.453500 2.059600
-2.436700 2.038800
-2.419900 2.034100
-2.403200 2.031200
-2.386400 2.031800
-2.369700 2.028400
-2.352900 2.040400
-2.336200 2.071600
-2.319400 2.054200
-2.302600 2.054500
-2.285900 2.058800
-2.269100 2.065500
-2.252400 2.071200
-2.235600 2.083600
-2.218900 2.117900
-2.202100 2.153700
-2.185300 2.197900
-2.168600 2.251000
-2.151800 2.304400
-2.135100 2.379500
-2.118300 2.572800
-2.101600 2.584500
-2.084800 2.584700
-2.068000 2.553600
-2.051300 2.494100
-2.034500 2.407100
-2.017800 2.202000
-2.001000 1.980100
-1.984300 1.888500
-1.967500 1.811600
-1.950700 1.747300
-1.934000 1.706900
-1.917200 1.703800
-1.900500 1.725400
-1.883700 1.749000
-1.867000 1.751400
-1.850200 1.766300
-1.833400 1.797200
-1.816700 1.837100
-1.799900 1.904000
-1.783200 2.145200
-1.766400 2.364600
-1.749600 2.728000
-1.732900 3.493400
-1.716100 3.415400
-1.699400 3.360200
-1.682600 3.468900
-1.665900 3.617700
-1.649100 3.826400
-1.632300 4.185300
-1.615600 3.893400
-1.598800 3.913000
-1.582100 4.271700
-1.565300 3.641800
-1.548600 3.280000
-1.531800 3.453100
-1.515000 3.001600
-1.498300 2.669100
-1.481500 2.310500
-1.464800 2.155000
-1.448000 2.014500
-1.431300 1.895900
-1.414500 1.789100
-1.397700 1.690800
-1.381000 1.606700
-1.364200 1.533500
-1.347500 1.461900
-1.330700 1.398500
-1.314000 1.350400
-1.297200 1.309700
-1.280400 1.271000
-1.263700 1.233000
-1.246900 1.200000
-1.230200 1.169400
-1.213400 1.138100
-1.196700 1.113300
-1.179900 1.146800
-1.163100 1.230500
-1.146400 1.339400
-1.129600 1.462300
-1.112900 1.502200
-1.096100 1.510200
-1.079400 1.516700
-1.062600 1.486500
-1.045800 1.456200
-1.029100 1.418500
-1.012300 1.380700
-0.995600 1.348000
-0.978800 1.317800
-0.962100 1.289500
-0.945300 1.262200
-0.928500 1.238700
-0.911800 1.218800
-0.895000 1.204400
-0.878300 1.195100
-0.861500 1.189200
-0.844700 1.181400
-0.828000 1.158800
-0.811200 1.149500
-0.794500 1.140300
-0.777700 1.132300
-0.761000 1.127100
-0.744200 1.122800
-0.727400 1.119400
-0.710700 1.116200
-0.693900 1.112600
-0.677200 1.108900
-0.660400 1.105700
-0.643700 1.107900
-0.626900 1.112700
-0.610100 1.119100
-0.593400 1.126400
-0.576600 1.134900
-0.559900 1.144100
-0.543100 1.151900
-0.526400 1.160900
-0.509600 1.170100
-0.492800 1.180000
-0.476100 1.188800
-0.459300 1.196700
-0.442600 1.204900
-0.425800 1.215000
-0.409100 1.228600
-0.392300 1.245700
-0.375500 1.269500
-0.358800 1.289100
-0.342000 1.318700
-0.325300 1.339700
-0.308500 1.339800
-0.291800 1.375100
-0.275000 1.430200
-0.258200 1.704300
-0.241500 1.970200
-0.224700 2.273000
-0.208000 2.470200
-0.191200 2.715900
-0.174500 2.955500
-0.157700 3.233600
-0.140900 3.555200
-0.124200 4.081400
-0.107400 4.837000
-0.090700 5.131700
-0.073900 4.586000
-0.057200 4.231900
-0.040400 4.139200
-0.023600 4.223700
-0.006900 4.358300
0.009900 4.466700
0.026600 4.460000
0.043400 4.414200
0.060200 4.359900
0.076900 4.326800
0.093700 4.361900
0.110400 4.475500
0.127200 4.673500
0.143900 4.928600
0.160700 5.088800
0.177500 4.888300
0.194200 4.805200
0.211000 4.397900
0.227700 4.343900
0.244500 4.385200
0.261200 4.293900
0.278000 3.887700
0.294800 3.512400
0.311500 3.327500
0.328300 3.204100
0.345000 3.175600
0.361800 3.213100
0.378500 3.297900
0.395300 3.487600
0.412100 3.725000
0.428800 4.161400
0.445600 4.746000
0.462300 5.120500
0.479100 5.734300
0.495800 6.325900
0.512600 6.788000
0.529400 7.076500
0.546100 7.488200
0.562900 8.089500
0.579600 8.252900
0.596400 8.461100
0.613100 8.800300
0.629900 8.903900
0.646700 8.602600
0.663400 8.176000
0.680200 8.142200
0.696900 8.293300
0.713700 8.888400
0.730400 9.538900
0.747200 8.133300
0.764000 7.314500
0.780700 6.757500
0.797500 6.073100
0.814200 5.846900
0.831000 5.770500
0.847700 5.819800
0.864500 5.825600
0.881300 6.064700
0.898000 5.468600
0.914800 4.335200
0.931500 3.833600
0.948300 3.288200
0.965100 2.869100
0.981800 2.671300
0.998600 2.584000
1.015300 2.453100
1.032100 2.306400
1.048800 3.147600
1.065600 3.674700
1.082400 4.452900
1.099100 5.388200
1.115900 5.026300
1.132600 5.037400
1.149400 5.301200
1.166100 5.350500
1.182900 5.060600
1.199700 4.984300
1.216400 4.935900
1.233200 4.995500
1.249900 4.858300
1.266700 4.856700
1.283400 4.883300
1.300200 4.949100
1.317000 5.061000
1.333700 5.265900
1.350500 5.425200
1.367200 5.545800
1.384000 5.915500
1.400700 6.655000
1.417500 6.956000
1.434300 6.163100
1.451000 5.183400
1.467800 4.871200
1.484500 4.685100
1.501300 4.431100
1.518000 4.287700
1.534800 4.176400
1.551600 4.131400
1.568300 4.101700
1.585100 4.274500
1.601800 5.020100
1.618600 5.582800
1.635300 6.573600
1.652100 8.370800
1.668900 8.490900
1.685600 7.596700
1.702400 6.954600
1.719100 6.597300
1.735900 6.286600
1.752600 5.989000
1.769400 5.757900
1.786200 5.440200
1.802900 5.002200
1.819700 4.747100
1.836400 4.614100
1.853200 4.506700
1.870000 4.364900
1.886700 4.266400
1.903500 4.193500
1.920200 3.950900
1.937000 3.500800
1.953700 3.172800
1.970500 2.912900
1.987300 2.708000
2.004000 3.074200
2.020800 3.707600
2.037500 4.230800
2.054300 5.022800
2.071000 5.399300
2.087800 6.208800
2.104600 7.257100
2.121300 11.229200
2.138100 12.601600
2.154800 14.788900
2.171600 11.718700
2.188300 11.211100
2.205100 10.414400
2.221900 9.616300
2.238600 9.153900
2.255400 8.939400
2.272100 8.306200
2.288900 7.768600
2.305600 7.240200
2.322400 6.790500
2.339200 6.095000
2.355900 6.066200
2.372700 6.166700
2.389400 6.791600
2.406200 6.874600
2.422900 7.064500
2.439700 6.948000
2.456500 6.738500
2.473200 6.596200
2.490000 6.448500
2.506700 6.354200
2.523500 6.243200
2.540200 6.165800
2.557000 6.187700
2.573800 6.262400
2.590500 6.337800
2.607300 6.410300
2.624000 6.658900
2.640800 6.900200
2.657500 6.502000
2.674300 6.034100
2.691100 5.992200
2.707800 5.982900
2.724600 5.867500
2.741300 5.884800
2.758100 5.727800
2.774800 5.666600
2.791600 5.691800
2.808400 5.760400
2.825100 5.793700
2.841900 5.864900
2.858600 6.730800
2.875400 4.706700
2.892200 3.444700
2.908900 2.768400
2.925700 2.714500
2.942400 2.652200
2.959200 2.626400
2.975900 2.650200
2.992700 2.680600
3.009500 2.683000
3.026200 2.696300
3.043000 2.524500
3.059700 2.171600
3.076500 1.929900
3.093200 1.817500
3.110000 1.726900
3.126800 1.638800
3.143500 1.544800
3.160300 1.459700
3.177000 1.390900
3.193800 1.341800
3.210500 1.256900
3.227300 1.216400
3.244100 1.284700
3.260800 1.532000
3.277600 1.660400
3.294300 1.626500
3.311100 1.605900
3.327800 1.647400
3.344600 1.702600
3.361400 1.769800
3.378100 1.825000
3.394900 1.835200
3.411600 1.846500
3.428400 1.852000
3.445100 1.878600
3.461900 1.916700
3.478700 1.964600
3.495400 2.013900
3.512200 2.059200
3.528900 2.099300
3.545700 2.146200
3.562400 2.193200
3.579200 2.255200
3.596000 2.311900
3.612700 2.482900
3.629500 2.505800
3.646200 2.582000
3.663000 3.025000
3.679700 3.224000
3.696500 3.102100
3.713300 2.993900
3.730000 2.905600
3.746800 2.839700
3.763500 2.792400
3.780300 2.751900
3.797100 2.724500
3.813800 2.696700
3.830600 2.668200
3.847300 2.659800
3.864100 2.611100
3.880800 2.539000
3.897600 2.469300
3.914400 2.427600
3.931100 2.392000
3.947900 2.362200
3.964600 2.351200
3.981400 2.366400
3.998100 2.383200
4.014900 2.388300
4.031700 2.403800
4.048400 2.426000
4.065200 2.442700
4.081900 2.452500
4.098700 2.455500
4.115400 2.450000
4.132200 2.428800
4.149000 2.403900
4.165700 2.376800
4.182500 2.341200
4.199200 2.306500
4.216000 2.286100
4.232700 2.307400
4.249500 2.311400
4.266300 2.295700
4.283000 2.291100
4.299800 2.316000
4.316500 2.356200
4.333300 2.301100
4.350000 2.200600
4.366800 2.089100
4.383600 2.027000
4.400300 1.991300
4.417100 1.956300
4.433800 1.917400
4.450600 1.879800
4.467300 1.844000
4.484100 1.811600
4.500900 1.791500
4.517600 1.773400
4.534400 1.755900
4.551100 1.739400
4.567900 1.724500
4.584600 1.716800
4.601400 1.715600
4.618200 1.715100
4.634900 1.706500
4.651700 1.693500
4.668400 1.679700
4.685200 1.662200
4.702000 1.647800
4.718700 1.635700
4.735500 1.629100
4.752200 1.623700
4.769000 1.623100
4.785700 1.627000
4.802500 1.635400
4.819300 1.648700
4.836000 1.669700
4.852800 1.693700
4.869500 1.713400
4.886300 1.736900
4.903000 1.759700
4.919800 1.790000
4.936600 1.836600
4.953300 1.864300
4.970100 1.857700
4.986800 1.816600
5.003600 1.771400
5.020300 1.600100
5.037100 1.472900
5.053900 1.290400
5.070600 1.146500
5.087400 1.069200
5.104100 1.043900
5.120900 1.034000
5.137600 1.026200
5.154400 1.018100
5.171200 1.009600
5.187900 1.003500
5.204700 0.997700
5.221400 0.992900
5.238200 0.989200
5.254900 0.985300
5.271700 0.981500
5.288500 0.977700
5.305200 0.977200
5.322000 0.975900
5.338700 1.006100
5.355500 1.034800
5.372200 1.054900
5.389000 1.066700
5.405800 1.072800
5.422500 1.073200
5.439300 1.066100
5.456000 1.044600
5.472800 1.007800
5.489500 0.939200
5.506300 0.856300
5.523100 0.809300
5.539800 0.776000
5.556600 0.754800
5.573300 0.763600
5.590100 0.804000
5.606900 0.858800
5.623600 0.882500
5.640400 0.883000
5.657100 0.870500
5.673900 0.871000
5.690600 0.873900
5.707400 0.879700
5.724200 0.887800
5.740900 0.897700
5.757700 0.909200
5.774400 0.920600
5.791200 0.930200
5.807900 0.937300
5.824700 0.938100
5.841500 0.937200
5.858200 0.934700
5.875000 0.934000
5.891700 0.935000
5.908500 0.935400
5.925200 0.936300
5.942000 0.939100
5.958800 0.939900
5.975500 0.940800
5.992300 0.942200
6.009000 0.943600
6.025800 0.945900
6.042500 0.949400
6.059300 0.954900
6.076100 0.961700
6.092800 0.969500
6.109600 0.981000
6.126300 0.995600
6.143100 1.029900
6.159800 1.066400
6.176600 1.099700
6.193400 1.133200
6.210100 1.167400
6.226900 1.202900
6.243600 1.240600
6.260400 1.281700
6.277100 1.355200
6.293900 1.470900
6.310700 1.558700
6.327400 1.665100
6.344200 1.873900
6.360900 2.099000
6.377700 2.202700
6.394400 2.313900
6.411200 2.444900
6.428000 2.589400
6.444700 2.734200
6.461500 2.856700
6.478200 2.949400
6.495000 2.998600
6.511800 2.995100
6.528500 3.024000
6.545300 3.008600
6.562000 2.896200
6.578800 2.779500
6.595500 2.692100
6.612300 2.646900
6.629100 2.568400
6.645800 2.477400
6.662600 2.415100
6.679300 2.364500
6.696100 2.298800
6.712800 2.227100
6.729600 2.115400
6.746400 2.025800
6.763100 1.938900
6.779900 1.847500
6.796600 1.799700
6.813400 1.759700
6.830100 1.729800
6.846900 1.711100
6.863700 1.694200
6.880400 1.704600
6.897200 1.730100
6.913900 1.772300
6.930700 1.971900
6.947400 2.165000
6.964200 2.345400
6.981000 2.218100
6.997700 2.123500
7.014500 2.098900
7.031200 2.096900
7.048000 2.111600
7.064700 2.130300
7.081500 2.145900
7.098300 2.161100
7.115000 2.162300
7.131800 2.162300
7.148500 2.163300
7.165300 2.153300
7.182000 2.129400
7.198800 2.102400
7.215600 2.087800
7.232300 2.083600
7.249100 2.062700
7.265800 2.056700
7.282600 2.060900
7.299300 2.065100
7.316100 2.077200
7.332900 2.124500
7.349600 2.209100
7.366400 2.324400
7.383100 2.398200
7.399900 2.454300
7.416700 2.537900
7.433400 2.440600
7.450200 2.437200
7.466900 2.432100
7.483700 2.429700
7.500400 2.401000
7.517200 2.327700
7.534000 2.265600
7.550700 2.242500
7.567500 2.291800
7.584200 2.368400
7.601000 2.373400
7.617700 2.319400
7.634500 2.259200
7.651300 2.222700
7.668000 2.147200
7.684800 2.091400
7.701500 2.038100
7.718300 2.000600
7.735000 1.971500
7.751800 1.932900
7.768600 1.903700
7.785300 1.852800
7.802100 1.798400
7.818800 1.698700
7.835600 1.641800
7.852300 1.603900
7.869100 1.571500
7.885900 1.549200
7.902600 1.544200
7.919400 1.511600
7.936100 1.489800
7.952900 1.498800
7.969600 1.507900
7.986400 1.513600
8.003200 1.516400
8.019900 1.537100
8.036700 1.564000
8.053400 1.598600
8.070200 1.645400
8.086900 1.704500
8.103700 1.773100
8.120500 1.847100
8.137200 1.922500
8.154000 2.015700
8.170700 2.106600
8.187500 2.163600
8.204200 2.181600
8.221000 2.210900
8.237800 2.256100
8.254500 2.298600
8.271300 2.338300
8.288000 2.369900
8.304800 2.400600
8.321500 2.430700
8.338300 2.439800
8.355100 2.450600
8.371800 2.457000
8.388600 2.455200
8.405300 2.447000
8.422100 2.423500
8.438900 2.381900
8.455600 2.344900
8.472400 2.311100
8.489100 2.304000
8.505900 2.316600
8.522600 2.343000
8.539400 2.379700
8.556200 2.382700
8.572900 2.406700
8.589700 2.487100
8.606400 2.344600
8.623200 2.211100
8.639900 2.099300
8.656700 2.020400
8.673500 1.951500
8.690200 1.895800
8.707000 1.846400
8.723700 1.805800
8.740500 1.786000
8.757200 1.769100
8.774000 1.748800
8.790800 1.736300
8.807500 1.708300
8.824300 1.683400
8.841000 1.667900
8.857800 1.664700
8.874500 1.674900
8.891300 1.693900
8.908100 1.717000
8.924800 1.735200
8.941600 1.744400
8.958300 1.748500
8.975100 1.742800
8.991800 1.739200
9.008600 1.740400
9.025400 1.741200
9.042100 1.739200
9.058900 1.736300
9.075600 1.731700
9.092400 1.728500
9.109100 1.740300
9.125900 1.754200
9.142700 1.751800
9.159400 1.748100
9.176200 1.748000
9.192900 1.752800
9.209700 1.760800
9.226400 1.769900
9.243200 1.784800
9.260000 1.807500
9.276700 1.833100
9.293500 1.862500
9.310200 1.901400
9.327000 1.948500
9.343800 2.013200
9.360500 2.080600
9.377300 2.132400
9.394000 2.180700
9.410800 2.229400
9.427500 2.281100
9.444300 2.309400
9.461100 2.323500
9.477800 2.331800
9.494600 2.330900
9.511300 2.351300
9.528100 2.369900
9.544800 2.380900
9.561600 2.388600
9.578400 2.394400
9.595100 2.401500
9.611900 2.403000
9.628600 2.390100
9.645400 2.395700
9.662100 2.442600
9.678900 2.428000
9.695700 2.435200
9.712400 2.454900
9.729200 2.470600
9.745900 2.482200
9.762700 2.496900
9.779400 2.514900
9.796200 2.538500
9.813000 2.565700
9.829700 2.589800
9.846500 2.611100
9.863200 2.636500
9.880000 2.666400
9.896700 2.668100
9.913500 2.643400
9.930300 2.643300
9.947000 2.629600
9.963800 2.603300
9.980500 2.565100
9.997300 2.526100
10.014000 2.491900
10.030800 2.450800
10.047600 2.407600
10.064300 2.394400
10.081100 2.381000
10.097800 2.378900
10.114600 2.382800
10.131300 2.510300
10.148100 2.392200
10.164900 2.353600
10.181600 2.307200
10.198400 2.246900
10.215100 2.194400
10.231900 2.157000
10.248700 2.119800
10.265400 2.076500
10.282200 2.018300
10.298900 1.993500
10.315700 1.988800
10.332400 1.984900
10.349200 1.993500
10.366000 2.044900
10.382700 2.082300
10.399500 2.109700
10.416200 2.240200
10.433000 2.163300
10.449700 2.176400
10.466500 2.217700
10.483300 2.213400
10.500000 2.152600
10.516800 2.143000
10.533500 2.151300
10.550300 2.119400
10.567000 2.123900
10.583800 2.127400
10.600600 2.106600
10.617300 2.091900
10.634100 2.073200
10.650800 2.051300
10.667600 2.031800
10.684300 2.011800
10.701100 1.989300
10.717900 1.976400
10.734600 1.992100
10.751400 2.032000
10.768100 2.066000
10.784900 2.042600
10.801600 2.054400
10.818400 2.094300
10.835200 2.153400
10.851900 2.141900
10.868700 2.177900
10.885400 2.280300
10.902200 2.245600
10.918900 2.224700
10.935700 2.207500
10.952500 2.238300
10.969200 2.310800
10.986000 2.390500
11.002700 2.463600
11.019500 2.551800
11.036200 2.591900
11.053000 2.549600
11.069800 2.470700
11.086500 2.371000
11.103300 2.350500
11.120000 2.354100
11.136800 2.382000
11.153600 2.431100
11.170300 2.494400
11.187100 2.581200
11.203800 2.675400
11.220600 2.787400
11.237300 2.689800
11.254100 2.715700
11.270900 2.631100
11.287600 2.618500
11.304400 2.613500
11.321100 2.621900
11.337900 2.691500
11.354600 2.737800
11.371400 2.714600
11.388200 2.704500
11.404900 2.698600
11.421700 2.686400
11.438400 2.676800
11.455200 2.670600
11.471900 2.668800
11.488700 2.675100
11.505500 2.682300
11.522200 2.668100
11.539000 2.655000
11.555700 2.645000
11.572500 2.641900
11.589200 2.646900
11.606000 2.680400
11.622800 2.776000
11.639500 2.720100
11.656300 2.646300
11.673000 2.599000
11.689800 2.560200
11.706500 2.525900
11.723300 2.494600
11.740100 2.467400
11.756800 2.445200
11.773600 2.423200
11.790300 2.399200
11.807100 2.376700
11.823800 2.361000
11.840600 2.347700
11.857400 2.329600
11.874100 2.303100
11.890900 2.276600
11.907600 2.247900
11.924400 2.234600
11.941100 2.220400
11.957900 2.208300
11.974700 2.197700
11.991400 2.195100
12.008200 2.203500
12.024900 2.228500
12.041700 2.264200
12.058500 2.297800
12.075200 2.331500
12.092000 2.369100
12.108700 2.402600
12.125500 2.408400
12.142200 2.409900
12.159000 2.406800
12.175800 2.406400
12.192500 2.406800
12.209300 2.409000
12.226000 2.412100
12.242800 2.410700
12.259500 2.406200
12.276300 2.381300
12.293100 2.358400
12.309800 2.343200
12.326600 2.345000
12.343300 2.354400
12.360100 2.354900
12.376800 2.337200
12.393600 2.333300
12.410400 2.333000
12.427100 2.336200
12.443900 2.343100
12.460600 2.352800
12.477400 2.362100
12.494100 2.370200
12.510900 2.375500
12.527700 2.376200
12.544400 2.361200
12.561200 2.358000
12.577900 2.349200
12.594700 2.340100
12.611400 2.329700
12.628200 2.350100
12.645000 2.395200
12.661700 2.418400
12.678500 2.441400
12.695200 2.462100
12.712000 2.484000
12.728700 2.485700
12.745500 2.476700
12.762300 2.451100
12.779000 2.415500
12.795800 2.375500
12.812500 2.335600
12.829300 2.308300
12.846000 2.279000
12.862800 2.255100
12.879600 2.234700
12.896300 2.205900
12.913100 2.168700
12.929800 2.140300
12.946600 2.122500
12.963400 2.123000
12.980100 2.140000
12.996900 2.166000
13.013600 2.237700
13.030400 2.319200
13.047100 2.401500
13.063900 2.381800
13.080700 2.355200
13.097400 2.331700
13.114200 2.311300
13.130900 2.290300
13.147700 2.268100
13.164400 2.245100
13.181200 2.223000
13.198000 2.202400
13.214700 2.179500
13.231500 2.153700
13.248200 2.131300
13.265000 2.114800
13.281700 2.104700
13.298500 2.100700
13.315300 2.099100
13.332000 2.099800
13.348800 2.105300
13.365500 2.110700
13.382300 2.109600
13.399000 2.101300
13.415800 2.091000
13.432600 2.080300
13.449300 2.085400
13.466100 2.105700
13.482800 2.135300
13.499600 2.117200
13.516300 2.112300
13.533100 2.124600
13.549900 2.136600
13.566600 2.125700
13.583400 2.095300
13.600100 2.065700
13.616900 2.043500
13.633600 2.028800
13.650400 2.022300
13.667200 2.027500
13.683900 2.045900
13.700700 2.081300
13.717400 2.131700
13.734200 2.018700
13.750900 2.020200
13.767700 2.066400
13.784500 2.126100
13.801200 2.140300
13.818000 2.142800
13.834700 2.130800
13.851500 2.112100
13.868200 2.096000
13.885000 2.092200
13.901800 2.096300
13.918500 2.105900
13.935300 2.117300
13.952000 2.275900
13.968800 2.417200
13.985600 2.443600
14.002300 2.228000
14.019100 2.172500
14.035800 2.138600
14.052600 2.140300
14.069300 2.140900
14.086100 2.142200
14.102900 2.116900
14.119600 2.091400
14.136400 2.093200
14.153100 2.095400
14.169900 2.095200
14.186600 2.091900
14.203400 2.086000
14.220200 2.079100
14.236900 2.070700
14.253700 2.066300
14.270400 2.061400
14.287200 2.059700
14.303900 2.061500
14.320700 2.071300
14.337500 2.092100
14.354200 2.113000
14.371000 2.145600
14.387700 2.186800
14.404500 2.225100
14.421200 2.253400
14.438000 2.436000
14.454800 2.543600
14.471500 2.551300
14.488300 2.488600
14.505000 2.465300
14.521800 2.470300
14.538500 2.473000
14.555300 2.481100
14.572100 2.485600
14.588800 2.474600
14.605600 2.458700
14.622300 2.433800
14.639100 2.411000
14.655800 2.386000
14.672600 2.363300
14.689400 2.350800
14.706100 2.346500
14.722900 2.334400
14.739600 2.313900
14.756400 2.291100
14.773100 2.262300
14.789900 2.268900
14.806700 2.158800
14.823400 2.002300
14.840200 1.897100
14.856900 1.801200
14.873700 1.717000
14.890500 1.652700
14.907200 1.611000
14.924000 1.597000
14.940700 1.602500
14.957500 1.615000
14.974200 1.633300
14.991000 1.660100
15.007800 1.698700
15.024500 1.749800
15.041300 1.821500
15.058000 1.943500
15.074800 1.921300
15.091500 1.869200
15.108300 1.835900
15.125100 1.830400
15.141800 1.853100
15.158600 1.827500
15.175300 1.806400
15.192100 1.788500
15.208800 1.693800
15.225600 1.616300
15.242400 1.608600
15.259100 1.611200
15.275900 1.620400
15.292600 1.625800
15.309400 1.631500
15.326100 1.637800
15.342900 1.644600
15.359700 1.651000
15.376400 1.657100
15.393200 1.662800
15.409900 1.670900
15.426700 1.681200
15.443400 1.693200
15.460200 1.706800
15.477000 1.727500
15.493700 1.757600
15.510500 1.764600
15.527200 1.771500
15.544000 1.780600
15.560700 1.792500
15.577500 1.806700
15.594300 1.829400
15.611000 1.824000
15.627800 1.823000
15.644500 1.827800
15.661300 1.834800
15.678000 1.840500
15.694800 1.847600
15.711600 1.864600
15.728300 1.888400
15.745100 1.905100
15.761800 1.916200
15.778600 1.928400
15.795400 1.942700
15.812100 1.959400
15.828900 1.983500
15.845600 2.034400
15.862400 2.105200
15.879100 2.162900
15.895900 2.237500
15.912700 2.328000
15.929400 2.394500
15.946200 2.442400
15.962900 2.461400
15.979700 2.468500
15.996400 2.478700
16.013200 2.478900
16.030000 2.488900
16.046700 2.537500
16.063500 2.641700
16.080200 2.668900
16.097000 2.507700
16.113700 2.429300
16.130500 2.392700
16.147300 2.379000
16.164000 2.374500
16.180800 2.390000
16.197500 2.409200
16.214300 2.420000
16.231000 2.418600
16.247800 2.408400
16.264600 2.393200
16.281300 2.367400
16.298100 2.324000
16.314800 2.280900
16.331600 2.260500
16.348300 2.256800
16.365100 2.262300
16.381900 2.268700
16.398600 2.273100
16.415400 2.285500
16.432100 2.299600
16.448900 2.319800
16.465600 2.344200
16.482400 2.375700
16.499200 2.410700
16.515900 2.434100
16.532700 2.456900
16.549400 2.491600
16.566200 2.536800
16.582900 2.568000
16.599700 2.591600
16.616500 2.609100
16.633200 2.634800
16.650000 2.640800
16.666700 2.618500
16.683500 2.598400
16.700300 2.592200
16.717000 2.595500
16.733800 2.611800
16.750500 2.636400
16.767300 2.660700
16.784000 2.672300
16.800800 2.670700
16.817600 2.650300
16.834300 2.637700
16.851100 2.632100
16.867800 2.610400
16.884600 2.594700
16.901300 2.597800
16.918100 2.613800
16.934900 2.644000
16.951600 2.685300
16.968400 2.733000
16.985100 2.779100
17.001900 2.820700
17.018600 2.857200
17.035400 2.888000
17.052200 2.913000
17.068900 3.004600
17.085700 3.000700
17.102400 3.010200
17.119200 2.995700
17.135900 2.971200
17.152700 2.947500
17.169500 2.924400
17.186200 2.906000
17.203000 2.892500
17.219700 2.881800
17.236500 2.871900
17.253200 2.860800
17.270000 2.821500
17.286800 2.764300
17.303500 2.688200
17.320300 2.598100
17.337000 2.553000
17.353800 2.510900
17.370500 2.490800
17.387300 2.435800
17.404100 2.361100
17.420800 2.295100
17.437600 2.235200
17.454300 2.187900
17.471100 2.148500
17.487800 2.112500
17.504600 2.084900
17.521400 2.071300
17.538100 2.135000
17.554900 2.128000
17.571600 2.158900
17.588400 2.194100
17.605200 2.233800
17.621900 2.279400
17.638700 2.330900
17.655400 2.389800
17.672200 2.458000
17.688900 2.534100
17.705700 2.623900
17.722500 2.708200
17.739200 2.757400
17.756000 2.792600
17.772700 2.852900
17.789500 2.909800
17.806200 3.001800
17.823000 3.016900
17.839800 3.099500
17.856500 3.163600
17.873300 3.136400
17.890000 3.068000
17.906800 2.997700
17.923500 2.950200
17.940300 2.893800
17.957100 2.865200
17.973800 2.817300
17.990600 2.759200
18.007300 2.688900
18.024100 2.623800
18.040800 2.568200
18.057600 2.523500
18.074400 2.488800
18.091100 2.455200
18.107900 2.424300
18.124600 2.441500
18.141400 2.468500
18.158100 2.492800
18.174900 2.481800
18.191700 2.439300
18.208400 2.351000
18.225200 2.210000
18.241900 2.056100
18.258700 1.985600
18.275400 1.920300
18.292200 1.858000
18.309000 1.800400
18.325700 1.750200
18.342500 1.695800
18.359200 1.649000
18.376000 1.600400
18.392700 1.556500
18.409500 1.516500
18.426300 1.476200
18.443000 1.424300
18.459800 1.368700
18.476500 1.313700
18.493300 1.271700
18.510100 1.224100
18.526800 1.173400
18.543600 1.123600
18.560300 1.095600
18.577100 1.072100
18.593800 1.048300
18.610600 1.022400
18.627400 0.994400
18.644100 0.964500
18.660900 0.936000
18.677600 0.902600
18.694400 0.870900
18.711100 0.849300
18.727900 0.833900
18.744700 0.818400
18.761400 0.810300
18.778200 0.795700
18.794900 0.782800
18.811700 0.771600
18.828400 0.761200
18.845200 0.751400
18.862000 0.742100
18.878700 0.733100
18.895500 0.727300
18.912200 0.727500
18.929000 0.733200
18.945700 0.745500
18.962500 0.876900
18.979300 0.730800
18.996000 0.665900
19.012800 0.609500
19.029500 0.561300
19.046300 0.519500
19.063000 0.478400
19.079800 0.438200
19.096600 0.400400
19.113300 0.371000
19.130100 0.342700
19.146800 0.315500
19.163600 0.289200
19.180300 0.260500
19.197100 0.231800
19.213900 0.203500
19.230600 0.177200
19.247400 0.168200
19.264100 0.159200
19.280900 0.150200
19.297600 0.141600
19.314400 0.135600
19.331200 0.131700
19.347900 0.127800
19.364700 0.123900
19.381400 0.120100
19.398200 0.116200
19.415000 0.112400
19.431700 0.108600
19.448500 0.104900
19.465200 0.101100
19.482000 0.097500
19.498700 0.093800
19.515500 0.090200
19.532300 0.086600
19.549000 0.083100
19.565800 0.079600
19.582500 0.076100
19.599300 0.072700
19.616000 0.070500
19.632800 0.070700
19.649600 0.073300
19.666300 0.066700
19.683100 0.055800
19.699800 0.054000
19.716600 0.052400
19.733300 0.050900
19.750100 0.049400
19.766900 0.048000
19.783600 0.046500
19.800400 0.045100
19.817100 0.043800
19.833900 0.042500
19.850600 0.041200
19.867400 0.040000
19.884200 0.038700
19.900900 0.037600
19.917700 0.036400
19.934400 0.035300
19.951200 0.034200
19.967900 0.033100
19.984700 0.032000
20.001500 0.030800
20.018200 0.029700
20.035000 0.028500
20.051700 0.027300
20.068500 0.026100
20.085200 0.025000
20.102000 0.023800
20.118800 0.022700
20.135500 0.021600
20.152300 0.020500
20.169000 0.019500
20.185800 0.018400
20.202500 0.017300
20.219300 0.015600
20.236100 0.014000
20.252800 0.012500
20.269600 0.011100
20.286300 0.009800
20.303100 0.008500
20.319800 0.007400
20.336600 0.006300
20.353400 0.005300
20.370100 0.004400
20.386900 0.003500
20.403600 0.002800
20.420400 0.002200
20.437200 0.001600
20.453900 0.001100
20.470700 0.000700
20.487400 0.000400
20.504200 0.000200
20.520900 0.000100
20.537700 0.000000
20.554500 0.000000
20.571200 0.000000
20.588000 0.000000
20.604700 0.000000
20.621500 0.000000
20.638200 0.000000
20.655000 0.000000
20.671800 0.000000
20.688500 0.000000
20.705300 0.000000
20.722000 0.000000
20.738800 0.000000
20.755500 0.000000
20.772300 0.000000
20.789100 0.000000
20.805800 0.000000
20.822600 0.000000
20.839300 0.000000
20.856100 0.000000
20.872800 0.000000
20.889600 0.000000
20.906400 0.000000
20.923100 0.000000
20.939900 0.000000
20.956600 0.000000
20.973400 0.000000
20.990100 0.000000
21.006900 0.000000
21.023700 0.000000
21.040400 0.000000
21.057200 0.000000
21.073900 0.000000
21.090700 0.000000
21.107400 0.000000
21.124200 0.000000
21.141000 0.000000
21.157700 0.000000
21.174500 0.000000
21.191200 0.000000
21.208000 0.000000
21.224700 0.000000
21.241500 0.000000
21.258300 0.000000
21.275000 0.000000
21.291800 0.000000
21.308500 0.000000
21.325300 0.000000
21.342100 0.000000
21.358800 0.000000
21.375600 0.000000
21.392300 0.000000
21.409100 0.000000
21.425800 0.000000
21.442600 0.000000
21.459400 0.000000
21.476100 0.000000
21.492900 0.000000
21.509600 0.000000
21.526400 0.000000
21.543100 0.000000
21.559900 0.000000
21.576700 0.000000
21.593400 0.000000
21.610200 0.000000
21.626900 0.000000
21.643700 0.000000
21.660400 0.000000
21.677200 0.000000
21.694000 0.000000
21.710700 0.000000
21.727500 0.000000
21.744200 0.000000
21.761000 0.000000
21.777700 0.000000
21.794500 0.000000
21.811300 0.000000
21.828000 0.000000
21.844800 0.000000
21.861500 0.000000
21.878300 0.000000
21.895000 0.000000
21.911800 0.000000
21.928600 0.000000
21.945300 0.000000
21.962100 0.000000
21.978800 0.000000
21.995600 0.000000
22.012300 0.000000
22.029100 0.000000
22.045900 0.000000
22.062600 0.000000
e
