set title 'mp-1181998 - Density of States'
set xlabel 'Energy (eV)'
set ylabel 'DOS (states/eV)'
set grid
set xrange [-10:10]
set yrange [0:2.228]
set xzeroaxis lt -1
set terminal png size 800,600
set output 'mp-1181998_dos_gnuplot.png'
plot '-' using 1:2 with lines title 'DOS'
-21.736900 0.000000
-21.694700 0.000000
-21.652500 0.000000
-21.610200 0.000000
-21.568000 0.000000
-21.525800 0.000000
-21.483600 0.000000
-21.441300 0.000000
-21.399100 0.000000
-21.356900 0.000000
-21.314700 0.000000
-21.272400 0.000000
-21.230200 0.000000
-21.188000 0.000000
-21.145800 0.000000
-21.103500 0.000000
-21.061300 0.000000
-21.019100 0.000000
-20.976800 0.000000
-20.934600 0.000000
-20.892400 0.000000
-20.850200 0.000000
-20.807900 0.000000
-20.765700 0.000000
-20.723500 0.000000
-20.681300 0.000000
-20.639000 0.000000
-20.596800 0.000000
-20.554600 0.000000
-20.512400 0.000000
-20.470100 0.000000
-20.427900 0.000000
-20.385700 0.000000
-20.343500 0.000000
-20.301200 0.000000
-20.259000 0.000000
-20.216800 0.000000
-20.174600 0.000000
-20.132300 0.000000
-20.090100 0.000000
-20.047900 0.000000
-20.005700 0.000000
-19.963400 0.000000
-19.921200 0.000000
-19.879000 0.000000
-19.836800 0.000000
-19.794500 0.000000
-19.752300 0.000000
-19.710100 0.000000
-19.667900 0.000000
-19.625600 0.000000
-19.583400 0.000000
-19.541200 0.000000
-19.499000 0.000000
-19.456700 0.000000
-19.414500 0.000000
-19.372300 0.000000
-19.330100 0.000000
-19.287800 0.000000
-19.245600 0.000000
-19.203400 0.000000
-19.161200 0.000000
-19.118900 0.000000
-19.076700 0.000000
-19.034500 0.000000
-18.992300 0.000000
-18.950000 0.000000
-18.907800 0.000000
-18.865600 0.000000
-18.823400 0.000000
-18.781100 0.000000
-18.738900 0.000000
-18.696700 0.000000
-18.654500 0.000000
-18.612200 0.000000
-18.570000 0.000000
-18.527800 0.000000
-18.485600 0.000000
-18.443300 0.000000
-18.401100 0.000000
-18.358900 0.000000
-18.316700 0.000000
-18.274400 0.000000
-18.232200 0.000000
-18.190000 0.000000
-18.147800 0.000000
-18.105500 0.000000
-18.063300 0.000000
-18.021100 0.000000
-17.978800 0.000000
-17.936600 0.000000
-17.894400 0.008000
-17.852200 0.130400
-17.809900 0.198900
-17.767700 0.266700
-17.725500 0.321600
-17.683300 0.398900
-17.641000 0.537600
-17.598800 0.551500
-17.556600 0.569200
-17.514400 0.573100
-17.472100 0.594300
-17.429900 0.603300
-17.387700 0.615900
-17.345500 0.635200
-17.303200 0.655800
-17.261000 0.674200
-17.218800 0.700200
-17.176600 0.730000
-17.134300 0.763800
-17.092100 0.802900
-17.049900 0.848400
-17.007700 0.915700
-16.965400 1.001100
-16.923200 1.120100
-16.881000 1.303300
-16.838800 1.651500
-16.796500 2.005200
-16.754300 1.502400
-16.712100 1.165300
-16.669900 1.040400
-16.627600 0.994200
-16.585400 0.000000
-16.543200 0.000000
-16.501000 0.000000
-16.458700 0.000000
-16.416500 0.000000
-16.374300 0.000000
-16.332100 0.000000
-16.289800 0.000000
-16.247600 0.000000
-16.205400 0.000000
-16.163200 0.000000
-16.120900 0.000000
-16.078700 0.000000
-16.036500 0.000000
-15.994300 0.000000
-15.952000 0.000000
-15.909800 0.000000
-15.867600 0.000000
-15.825400 0.000000
-15.783100 0.000000
-15.740900 0.000000
-15.698700 0.000000
-15.656500 0.000000
-15.614200 0.000000
-15.572000 0.000000
-15.529800 0.000000
-15.487600 0.000000
-15.445300 0.000000
-15.403100 0.000000
-15.360900 0.000000
-15.318700 0.000000
-15.276400 0.000000
-15.234200 0.000000
-15.192000 0.000000
-15.149800 0.000000
-15.107500 0.000000
-15.065300 0.000000
-15.023100 0.000000
-14.980800 0.000000
-14.938600 0.000000
-14.896400 0.000000
-14.854200 0.000000
-14.811900 0.000000
-14.769700 0.000000
-14.727500 0.000000
-14.685300 0.000000
-14.643000 0.000000
-14.600800 0.000000
-14.558600 0.000000
-14.516400 0.000000
-14.474100 0.000000
-14.431900 0.000000
-14.389700 0.000000
-14.347500 0.000000
-14.305200 0.000000
-14.263000 0.000000
-14.220800 0.000000
-14.178600 0.000000
-14.136300 0.000000
-14.094100 0.517600
-14.051900 0.817800
-14.009700 0.795300
-13.967400 0.861700
-13.925200 1.305000
-13.883000 1.297300
-13.840800 1.240200
-13.798500 1.008500
-13.756300 0.898700
-13.714100 0.803200
-13.671900 0.732100
-13.629600 0.670200
-13.587400 0.608900
-13.545200 0.541600
-13.503000 0.522000
-13.460700 0.504300
-13.418500 0.486900
-13.376300 0.469800
-13.334100 0.452600
-13.291800 0.434300
-13.249600 0.414200
-13.207400 0.388800
-13.165200 0.380300
-13.122900 0.371700
-13.080700 0.363100
-13.038500 0.354300
-12.996300 0.345500
-12.954000 0.336600
-12.911800 0.327300
-12.869600 0.316600
-12.827400 0.308600
-12.785100 0.301800
-12.742900 0.294900
-12.700700 0.288100
-12.658500 0.281700
-12.616200 0.276300
-12.574000 0.271000
-12.531800 0.269300
-12.489600 0.264500
-12.447300 0.256300
-12.405100 0.248200
-12.362900 0.240000
-12.320700 0.233100
-12.278400 0.238600
-12.236200 0.245300
-12.194000 0.233100
-12.151700 0.216500
-12.109500 0.199900
-12.067300 0.249300
-12.025100 0.179000
-11.982800 0.030900
-11.940600 0.000000
-11.898400 0.000000
-11.856200 0.000000
-11.813900 0.000000
-11.771700 0.000000
-11.729500 0.000000
-11.687300 0.000000
-11.645000 0.000000
-11.602800 0.000000
-11.560600 0.000000
-11.518400 0.000000
-11.476100 0.000000
-11.433900 0.000000
-11.391700 0.000000
-11.349500 0.000000
-11.307200 0.000000
-11.265000 0.000000
-11.222800 0.000000
-11.180600 0.000000
-11.138300 0.000000
-11.096100 0.000000
-11.053900 0.000000
-11.011700 0.000000
-10.969400 0.000000
-10.927200 0.000000
-10.885000 0.000000
-10.842800 0.000000
-10.800500 0.000000
-10.758300 0.000000
-10.716100 0.000000
-10.673900 0.000000
-10.631600 0.000000
-10.589400 0.000000
-10.547200 0.000000
-10.505000 0.000000
-10.462700 0.000000
-10.420500 0.000000
-10.378300 0.000000
-10.336100 0.000000
-10.293800 0.000000
-10.251600 0.000000
-10.209400 0.000000
-10.167200 0.000000
-10.124900 0.000000
-10.082700 0.000000
-10.040500 0.000000
-9.998300 0.000000
-9.956000 0.000000
-9.913800 0.000000
-9.871600 0.000000
-9.829400 0.000000
-9.787100 0.000000
-9.744900 0.000000
-9.702700 0.000000
-9.660500 0.000000
-9.618200 0.000000
-9.576000 0.000000
-9.533800 0.000000
-9.491600 0.000000
-9.449300 0.000000
-9.407100 0.000000
-9.364900 0.000000
-9.322700 0.000000
-9.280400 0.000000
-9.238200 0.000000
-9.196000 0.000000
-9.153700 0.000000
-9.111500 0.000000
-9.069300 0.000000
-9.027100 0.000000
-8.984800 0.000000
-8.942600 0.000000
-8.900400 0.000000
-8.858200 0.000000
-8.815900 0.000000
-8.773700 0.000000
-8.731500 0.000000
-8.689300 0.000000
-8.647000 0.000000
-8.604800 0.000000
-8.562600 0.000000
-8.520400 0.000000
-8.478100 0.000000
-8.435900 0.000000
-8.393700 0.000000
-8.351500 0.000000
-8.309200 0.000000
-8.267000 0.000000
-8.224800 0.000000
-8.182600 0.000000
-8.140300 0.000000
-8.098100 0.000000
-8.055900 0.000000
-8.013700 0.000000
-7.971400 0.000000
-7.929200 0.000000
-7.887000 0.000000
-7.844800 0.000000
-7.802500 0.000000
-7.760300 0.000000
-7.718100 0.000000
-7.675900 0.000000
-7.633600 0.000000
-7.591400 0.000000
-7.549200 0.000000
-7.507000 0.000000
-7.464700 0.000000
-7.422500 0.000000
-7.380300 0.000000
-7.338100 0.000000
-7.295800 0.000000
-7.253600 0.000000
-7.211400 0.000000
-7.169200 0.000000
-7.126900 0.000000
-7.084700 0.000000
-7.042500 0.000000
-7.000300 0.000000
-6.958000 0.000000
-6.915800 0.000000
-6.873600 0.000000
-6.831400 0.000000
-6.789100 0.000000
-6.746900 0.000000
-6.704700 0.000000
-6.662500 0.000000
-6.620200 0.000000
-6.578000 0.000000
-6.535800 0.000000
-6.493600 0.000000
-6.451300 0.000000
-6.409100 0.000000
-6.366900 0.000000
-6.324700 0.000000
-6.282400 0.000000
-6.240200 0.000000
-6.198000 0.000000
-6.155700 0.000000
-6.113500 0.000000
-6.071300 0.000000
-6.029100 0.000000
-5.986800 0.000000
-5.944600 0.000000
-5.902400 0.000000
-5.860200 0.000000
-5.817900 0.000000
-5.775700 0.000000
-5.733500 0.000000
-5.691300 0.000000
-5.649000 0.000000
-5.606800 0.000000
-5.564600 0.000000
-5.522400 0.000000
-5.480100 0.000000
-5.437900 0.000000
-5.395700 0.000000
-5.353500 0.078500
-5.311200 0.495900
-5.269000 0.514600
-5.226800 0.516100
-5.184600 0.533400
-5.142300 0.548400
-5.100100 0.547800
-5.057900 0.562300
-5.015700 0.576400
-4.973400 0.595600
-4.931200 0.616500
-4.889000 0.636300
-4.846800 0.653100
-4.804500 0.681000
-4.762300 0.747200
-4.720100 0.817800
-4.677900 0.884700
-4.635600 0.881800
-4.593400 0.875300
-4.551200 0.875600
-4.509000 0.880800
-4.466700 0.867200
-4.424500 0.826500
-4.382300 0.766300
-4.340100 0.669200
-4.297800 0.622600
-4.255600 0.578600
-4.213400 0.548500
-4.171200 0.520400
-4.128900 0.490600
-4.086700 0.473000
-4.044500 0.484600
-4.002300 0.464000
-3.960000 0.473900
-3.917800 0.527600
-3.875600 0.698700
-3.833400 0.683600
-3.791100 0.692400
-3.748900 0.669100
-3.706700 0.658000
-3.664500 0.670700
-3.622200 0.533400
-3.580000 0.640100
-3.537800 0.634900
-3.495600 0.693400
-3.453300 0.712400
-3.411100 0.707400
-3.368900 0.721100
-3.326600 0.719500
-3.284400 0.719400
-3.242200 0.706100
-3.200000 0.710700
-3.157700 0.719100
-3.115500 0.726800
-3.073300 0.733800
-3.031100 0.736200
-2.988800 0.736300
-2.946600 0.745300
-2.904400 0.755300
-2.862200 0.762400
-2.819900 0.753000
-2.777700 0.712600
-2.735500 0.676900
-2.693300 0.639600
-2.651000 0.604000
-2.608800 0.572800
-2.566600 0.563900
-2.524400 0.555700
-2.482100 0.547800
-2.439900 0.542500
-2.397700 0.538100
-2.355500 0.533600
-2.313200 0.530500
-2.271000 0.528500
-2.228800 0.526100
-2.186600 0.526500
-2.144300 0.525600
-2.102100 0.524900
-2.059900 0.523000
-2.017700 0.523200
-1.975400 0.522800
-1.933200 0.524900
-1.891000 0.526800
-1.848800 0.529500
-1.806500 0.537900
-1.764300 0.544600
-1.722100 0.539800
-1.679900 0.472100
-1.637600 0.450400
-1.595400 0.475700
-1.553200 0.502800
-1.511000 0.532900
-1.468700 0.567700
-1.426500 0.616300
-1.384300 0.638300
-1.342100 0.691700
-1.299800 0.769400
-1.257600 0.982900
-1.215400 1.161900
-1.173200 1.376700
-1.130900 1.439000
-1.088700 1.438500
-1.046500 1.346800
-1.004300 1.279900
-0.962000 0.733500
-0.919800 0.416000
-0.877600 0.252000
-0.835400 0.130600
-0.793100 0.054600
-0.750900 0.035800
-0.708700 0.217200
-0.666500 0.330000
-0.624200 0.460600
-0.582000 0.707800
-0.539800 1.060100
-0.497600 1.449000
-0.455300 1.954900
-0.413100 1.616900
-0.370900 1.429800
-0.328600 1.157400
-0.286400 1.045000
-0.244200 0.956100
-0.202000 0.896600
-0.159700 0.850800
-0.117500 0.807500
-0.075300 0.666500
-0.033100 0.583300
0.009200 0.548600
0.051400 0.521100
0.093600 0.489600
0.135800 0.461600
0.178100 0.437900
0.220300 0.421400
0.262500 0.400400
0.304700 0.377300
0.347000 0.353900
0.389200 0.336100
0.431400 0.323400
0.473600 0.312700
0.515900 0.301500
0.558100 0.282700
0.600300 0.475800
0.642500 0.424300
0.684800 0.416200
0.727000 0.430400
0.769200 0.436600
0.811400 0.438300
0.853700 0.510800
0.895900 0.495600
0.938100 0.433600
0.980300 0.480100
1.022600 0.587500
1.064800 0.677700
1.107000 0.822900
1.149200 1.096600
1.191500 1.359400
1.233700 1.541100
1.275900 1.936400
1.318100 2.025900
1.360400 1.807900
1.402600 1.792200
1.444800 1.747200
1.487000 1.726700
1.529300 1.309900
1.571500 1.136700
1.613700 1.012400
1.655900 0.991100
1.698200 0.937100
1.740400 0.738600
1.782600 0.378600
1.824800 0.245600
1.867100 0.252400
1.909300 0.259300
1.951500 0.265900
1.993700 0.271600
2.036000 0.276700
2.078200 0.283800
2.120400 0.292600
2.162600 0.303300
2.204900 0.314200
2.247100 0.325400
2.289300 0.336700
2.331500 0.348200
2.373800 0.360600
2.416000 0.372800
2.458200 0.384800
2.500400 0.396700
2.542700 0.424900
2.584900 0.450800
2.627100 0.478800
2.669400 0.509600
2.711600 0.549500
2.753800 0.579900
2.796000 0.608600
2.838300 0.649700
2.880500 0.761500
2.922700 0.886900
2.964900 1.112200
3.007200 1.375300
3.049400 1.437800
3.091600 1.221100
3.133800 1.202200
3.176100 1.138200
3.218300 1.203000
3.260500 1.148500
3.302700 0.000000
3.345000 0.000000
3.387200 0.000000
3.429400 0.000000
3.471600 0.000000
3.513900 0.000000
3.556100 0.000000
3.598300 0.000000
3.640500 0.000000
3.682800 0.000000
3.725000 0.000000
3.767200 0.000000
3.809400 0.000000
3.851700 0.000000
3.893900 0.000000
3.936100 0.000000
3.978300 0.000000
4.020600 0.000000
4.062800 0.000000
4.105000 0.000000
4.147200 0.000000
4.189500 0.000000
4.231700 0.000000
4.273900 0.000000
4.316100 0.000000
4.358400 0.000000
4.400600 0.000000
4.442800 0.000000
4.485000 0.000000
4.527300 0.000000
4.569500 0.000000
4.611700 0.000000
4.653900 0.000000
4.696200 0.000000
4.738400 0.000000
4.780600 0.000000
4.822800 0.000000
4.865100 0.000000
4.907300 0.000000
4.949500 0.000000
4.991700 0.000000
5.034000 0.000000
5.076200 0.000000
5.118400 0.000000
5.160600 0.000000
5.202900 0.000000
5.245100 0.000000
5.287300 0.000000
5.329500 0.000000
5.371800 0.000000
5.414000 0.000000
5.456200 0.000000
5.498400 0.000000
5.540700 0.000000
5.582900 0.000000
5.625100 0.000000
5.667400 0.000000
5.709600 0.000000
5.751800 0.000000
5.794000 0.000000
5.836300 0.000000
5.878500 0.000000
5.920700 0.000000
5.962900 0.000000
6.005200 0.000000
6.047400 0.000000
6.089600 0.000000
6.131800 0.000000
6.174100 0.000000
6.216300 0.000000
6.258500 0.000000
6.300700 0.000000
6.343000 0.000000
6.385200 0.000000
6.427400 0.000000
6.469600 0.000000
6.511900 0.000000
6.554100 0.000000
6.596300 0.000000
6.638500 0.000000
6.680800 0.000000
6.723000 0.000000
6.765200 0.000000
6.807400 0.000000
6.849700 0.000000
6.891900 0.000000
6.934100 0.000000
6.976300 0.000000
7.018600 0.000000
7.060800 0.000000
7.103000 0.000000
7.145200 0.000000
7.187500 0.000000
7.229700 0.000000
7.271900 0.000000
7.314100 0.000000
7.356400 0.000000
7.398600 0.000000
7.440800 0.000000
7.483000 0.000000
7.525300 0.000000
7.567500 0.000000
7.609700 0.000000
7.651900 0.000000
7.694200 0.000000
7.736400 0.000000
7.778600 0.000000
7.820800 0.012700
7.863100 0.012700
7.905300 0.015700
7.947500 0.018900
7.989700 0.022300
8.032000 0.025800
8.074200 0.028700
8.116400 0.030800
8.158600 0.032600
8.200900 0.035000
8.243100 0.037500
8.285300 0.040200
8.327500 0.043000
8.369800 0.045900
8.412000 0.048800
8.454200 0.051900
8.496500 0.055300
8.538700 0.058600
8.580900 0.062000
8.623100 0.065700
8.665400 0.069600
8.707600 0.073700
8.749800 0.077900
8.792000 0.082300
8.834300 0.086800
8.876500 0.092500
8.918700 0.099000
8.960900 0.107900
9.003200 0.119100
9.045400 0.131800
9.087600 0.242600
9.129800 0.308900
9.172100 0.370000
9.214300 0.385100
9.256500 0.388600
9.298700 0.387300
9.341000 0.397600
9.383200 0.403400
9.425400 0.411300
9.467600 0.427400
9.509900 0.450000
9.552100 0.465900
9.594300 0.482300
9.636500 0.495600
9.678800 0.691200
9.721000 0.553300
9.763200 0.560700
9.805400 0.563900
9.847700 0.607500
9.889900 0.681200
9.932100 1.261900
9.974300 0.648300
10.016600 0.604200
10.058800 0.560900
10.101000 0.509800
10.143200 0.467000
10.185500 0.437500
10.227700 0.412200
10.269900 0.385300
10.312100 0.364400
10.354400 0.355400
10.396600 0.347700
10.438800 0.352700
10.481000 0.360100
10.523300 0.365300
10.565500 0.338400
10.607700 0.446800
10.649900 0.620700
10.692200 0.884000
10.734400 0.986600
10.776600 1.003500
10.818800 1.031500
10.861100 0.997100
10.903300 0.996300
10.945500 1.041600
10.987700 1.071200
11.030000 1.085700
11.072200 1.081500
11.114400 1.214600
11.156600 1.102400
11.198900 1.090100
11.241100 1.082100
11.283300 1.068700
11.325500 1.065200
11.367800 1.030100
11.410000 0.812700
11.452200 0.809100
11.494500 0.810800
11.536700 1.024800
11.578900 1.252800
11.621100 1.219400
11.663400 1.343100
11.705600 1.303000
11.747800 1.044400
11.790000 0.969600
11.832300 0.924600
11.874500 0.857700
11.916700 0.779700
11.958900 0.729300
12.001200 0.694400
12.043400 0.667600
12.085600 0.644800
12.127800 0.622300
12.170100 0.600100
12.212300 0.581800
12.254500 0.562700
12.296700 0.541900
12.339000 0.512500
12.381200 0.481100
12.423400 0.462200
12.465600 0.448200
12.507900 0.434400
12.550100 0.422500
12.592300 0.413500
12.634500 0.406600
12.676800 0.401300
12.719000 0.394400
12.761200 0.389200
12.803400 0.389300
12.845700 0.380900
12.887900 0.348100
12.930100 0.343300
12.972300 0.343400
13.014600 0.350700
13.056800 0.363400
13.099000 0.376300
13.141200 0.382000
13.183500 0.385500
13.225700 0.387400
13.267900 0.388500
13.310100 0.392600
13.352400 0.393500
13.394600 0.394400
13.436800 0.395700
13.479000 0.398700
13.521300 0.402500
13.563500 0.405500
13.605700 0.407200
13.647900 0.409100
13.690200 0.408300
13.732400 0.409400
13.774600 0.413800
13.816800 0.419400
13.859100 0.422000
13.901300 0.422500
13.943500 0.424200
13.985700 0.430100
14.028000 0.437700
14.070200 0.442700
14.112400 0.445100
14.154600 0.444200
14.196900 0.439400
14.239100 0.431700
14.281300 0.426100
14.323500 0.427300
14.365800 0.428800
14.408000 0.430300
14.450200 0.431200
14.492500 0.432600
14.534700 0.435800
14.576900 0.442600
14.619100 0.450700
14.661400 0.436800
14.703600 0.402900
14.745800 0.366000
14.788000 0.368600
14.830300 0.374000
14.872500 0.393100
14.914700 0.407300
14.956900 0.422000
14.999200 0.431800
15.041400 0.439600
15.083600 0.448000
15.125800 0.456500
15.168100 0.449200
15.210300 0.451300
15.252500 0.452200
15.294700 0.542000
15.337000 0.507700
15.379200 0.544200
15.421400 0.588200
15.463600 0.536500
15.505900 0.506700
15.548100 0.486200
15.590300 0.478400
15.632500 0.413600
15.674800 0.383500
15.717000 0.358200
15.759200 0.337000
15.801400 0.318100
15.843700 0.298500
15.885900 0.320100
15.928100 0.389700
15.970300 0.416800
16.012600 0.497600
16.054800 0.533600
16.097000 0.591100
16.139200 0.619900
16.181500 0.724200
16.223700 0.841700
16.265900 0.946600
16.308100 0.900800
16.350400 0.807500
16.392600 0.761800
16.434800 0.879800
16.477000 0.959100
16.519300 0.926100
16.561500 0.833900
16.603700 0.789600
16.645900 0.803500
16.688200 0.836000
16.730400 0.878900
16.772600 0.950300
16.814800 1.011000
16.857100 1.014400
16.899300 1.063900
16.941500 1.091300
16.983700 1.065000
17.026000 1.092600
17.068200 1.146400
17.110400 1.132500
17.152600 1.125300
17.194900 1.103800
17.237100 1.119800
17.279300 1.072600
17.321500 0.984900
17.363800 0.927600
17.406000 0.859700
17.448200 0.752400
17.490500 0.662500
17.532700 0.621100
17.574900 0.606900
17.617100 0.573800
17.659400 0.544500
17.701600 0.551800
17.743800 0.542100
17.786000 0.535900
17.828300 0.490000
17.870500 0.449300
17.912700 0.477200
17.954900 0.524900
17.997200 0.558100
18.039400 0.575100
18.081600 0.591800
18.123800 0.603200
18.166100 0.611100
18.208300 0.622900
18.250500 0.630500
18.292700 0.641300
18.335000 0.666100
18.377200 0.690400
18.419400 0.641800
18.461600 0.629100
18.503900 0.625600
18.546100 0.619900
18.588300 0.614000
18.630500 0.607800
18.672800 0.844200
18.715000 0.707100
18.757200 0.716600
18.799400 0.753000
18.841700 0.764400
18.883900 0.762600
18.926100 0.767300
18.968300 0.812000
19.010600 0.753100
19.052800 0.745700
19.095000 0.716300
19.137200 0.725900
19.179500 0.672700
19.221700 0.677000
19.263900 0.694800
19.306100 0.675900
19.348400 0.650800
19.390600 0.609700
19.432800 0.585400
19.475000 0.610600
19.517300 0.576400
19.559500 0.550200
19.601700 0.534400
19.643900 0.523400
19.686200 0.520400
19.728400 0.526000
19.770600 0.535000
19.812800 0.543900
19.855100 0.544700
19.897300 0.545600
19.939500 0.544100
19.981700 0.546800
20.024000 0.574000
20.066200 0.597100
20.108400 0.590000
20.150600 0.563300
20.192900 0.560200
20.235100 0.558700
20.277300 0.565500
20.319600 0.576500
20.361800 0.588200
20.404000 0.608300
20.446200 0.626800
20.488500 0.616400
20.530700 0.584400
20.572900 0.579500
20.615100 0.583100
20.657400 0.581500
20.699600 0.589300
20.741800 0.604000
20.784000 0.619300
20.826300 0.658500
20.868500 0.708700
20.910700 0.736300
20.952900 0.770000
20.995200 0.798600
21.037400 0.783000
21.079600 0.805900
21.121800 0.808800
21.164100 0.811100
21.206300 0.823400
21.248500 0.884100
21.290700 0.910000
21.333000 0.949600
21.375200 0.952100
21.417400 0.956800
21.459600 0.922500
21.501900 0.850900
21.544100 0.678700
21.586300 0.614100
21.628500 0.538300
21.670800 0.468600
21.713000 0.416900
21.755200 0.379300
21.797400 0.372400
21.839700 0.385000
21.881900 0.352300
21.924100 0.350200
21.966300 0.334200
22.008600 0.319100
22.050800 0.318300
22.093000 0.328600
22.135200 0.343900
22.177500 0.385000
22.219700 0.465500
22.261900 0.577800
22.304100 0.692100
22.346400 0.869700
22.388600 1.029100
22.430800 1.061700
22.473000 1.071100
22.515300 1.135800
22.557500 1.144200
22.599700 1.036400
22.641900 0.978000
22.684200 0.918100
22.726400 0.868100
22.768600 0.797100
22.810800 0.737700
22.853100 0.708900
22.895300 0.749300
22.937500 0.740200
22.979700 0.917300
23.022000 0.914800
23.064200 0.890000
23.106400 0.782300
23.148600 0.560100
23.190900 0.556700
23.233100 0.593600
23.275300 0.635200
23.317600 0.690400
23.359800 0.783500
23.402000 0.992600
23.444200 0.990700
23.486500 1.023500
23.528700 1.078900
23.570900 1.063200
23.613100 1.112500
23.655400 1.133700
23.697600 1.138200
23.739800 0.975900
23.782000 0.913500
23.824300 0.866100
23.866500 0.799400
23.908700 0.773800
23.950900 0.757300
23.993200 0.747500
24.035400 0.751100
24.077600 0.751300
24.119800 0.758500
24.162100 0.771400
24.204300 0.789500
24.246500 0.804500
24.288700 0.790200
24.331000 0.776100
24.373200 0.762900
24.415400 0.754000
24.457600 0.702200
24.499900 0.632100
24.542100 0.622600
24.584300 0.626400
24.626500 0.634500
24.668800 0.788700
24.711000 0.623400
24.753200 0.591400
24.795400 0.566300
24.837700 0.554300
24.879900 0.550100
24.922100 0.561100
24.964300 0.564800
25.006600 0.556900
25.048800 0.580900
25.091000 0.569900
25.133200 0.603900
25.175500 0.668600
25.217700 0.670600
25.259900 0.703000
25.302100 0.733200
25.344400 0.723100
25.386600 0.711000
25.428800 0.696200
25.471000 0.677800
25.513300 0.649400
25.555500 0.662300
25.597700 0.675800
25.639900 0.670500
25.682200 0.650700
25.724400 0.624700
25.766600 0.609700
25.808800 0.603300
25.851100 0.600000
25.893300 0.567500
25.935500 0.546700
25.977700 0.536800
26.020000 0.528300
26.062200 0.518100
26.104400 0.514300
26.146600 0.521800
26.188900 0.530700
26.231100 0.549800
26.273300 0.584100
26.315600 0.588700
26.357800 0.602000
26.400000 0.661100
26.442200 0.701000
26.484500 0.755900
26.526700 0.783100
26.568900 0.833200
26.611100 0.801800
26.653400 0.796700
26.695600 0.798900
26.737800 0.818000
26.780000 0.882800
26.822300 0.952500
26.864500 0.989100
26.906700 0.994600
26.948900 0.956300
26.991200 0.851400
27.033400 0.782300
27.075600 0.742400
27.117800 0.718300
27.160100 0.718100
27.202300 0.707400
27.244500 0.729400
27.286700 0.785500
27.329000 0.826500
27.371200 0.843400
27.413400 0.869600
27.455600 0.872400
27.497900 0.870700
27.540100 0.853500
27.582300 0.825100
27.624500 0.916900
27.666800 0.868000
27.709000 0.866100
27.751200 0.818700
27.793400 0.807800
27.835700 0.855300
27.877900 0.907500
27.920100 0.804900
27.962300 0.814700
28.004600 0.834600
28.046800 0.792600
28.089000 0.822800
28.131200 0.801400
28.173500 0.763400
28.215700 0.717800
28.257900 0.669500
28.300100 0.694900
28.342400 0.716300
28.384600 0.760200
28.426800 0.766900
28.469000 0.790500
28.511300 0.808300
28.553500 0.833300
28.595700 0.880200
28.637900 0.944700
28.680200 1.008300
28.722400 1.015100
28.764600 1.010200
28.806800 1.010400
28.849100 1.060900
28.891300 1.027800
28.933500 1.018500
28.975700 1.047800
29.018000 1.006200
29.060200 0.849900
29.102400 0.755700
29.144700 0.713600
29.186900 0.672100
29.229100 0.639800
29.271300 0.608600
29.313600 0.572500
29.355800 0.601900
29.398000 0.635400
29.440200 0.640500
29.482500 0.631700
29.524700 0.646500
29.566900 0.671100
29.609100 0.664700
29.651400 0.681400
29.693600 0.713300
29.735800 0.806200
29.778000 0.783700
29.820300 0.790200
29.862500 0.791200
29.904700 0.805700
29.946900 0.815800
29.989200 0.850600
30.031400 0.902500
30.073600 0.901200
30.115800 0.887600
30.158100 0.881100
30.200300 0.885000
30.242500 0.896100
30.284700 0.898400
30.327000 0.897400
30.369200 0.881200
30.411400 0.904600
30.453600 0.916100
30.495900 0.926500
30.538100 0.909700
30.580300 0.906300
30.622500 0.866700
30.664800 0.859700
30.707000 0.848900
30.749200 0.838000
30.791400 0.840000
30.833700 0.848800
30.875900 0.860500
30.918100 0.868100
30.960300 0.864500
31.002600 0.821600
31.044800 0.815300
31.087000 0.769400
31.129200 0.743900
31.171500 0.724800
31.213700 0.695200
31.255900 0.661500
31.298100 0.628400
31.340400 0.596200
31.382600 0.585600
31.424800 0.588500
31.467000 0.619200
31.509300 0.648100
31.551500 0.694000
31.593700 0.763700
31.635900 0.849300
31.678200 0.839700
31.720400 0.883700
31.762600 0.830500
31.804800 0.801200
31.847100 0.775000
31.889300 0.754600
31.931500 0.749300
31.973700 0.783500
32.016000 0.823300
32.058200 0.814300
32.100400 0.761100
32.142700 0.733900
32.184900 0.695400
32.227100 0.655200
32.269300 0.653600
32.311600 0.642900
32.353800 0.633400
32.396000 0.652100
32.438200 0.667200
32.480500 0.701300
32.522700 0.759300
32.564900 0.800000
32.607100 0.840900
32.649400 0.848200
32.691600 0.828900
32.733800 0.800800
32.776000 0.784600
32.818300 0.780900
32.860500 0.798600
32.902700 0.816200
32.944900 0.851700
32.987200 0.892000
33.029400 0.840200
33.071600 0.843900
33.113800 0.865300
33.156100 0.852600
33.198300 0.826000
33.240500 0.820600
33.282700 0.791500
33.325000 0.755700
33.367200 0.715800
33.409400 0.670800
33.451600 0.657800
33.493900 0.698300
33.536100 0.745500
33.578300 0.809000
33.620500 0.882900
33.662800 0.918300
33.705000 0.942000
33.747200 0.965300
33.789400 0.991900
33.831700 1.035200
33.873900 1.082800
33.916100 1.098300
33.958300 0.991900
34.000600 0.840800
34.042800 0.814500
34.085000 0.799400
34.127200 0.790800
34.169500 0.780100
34.211700 0.788800
34.253900 0.795000
34.296100 0.795500
34.338400 0.805000
34.380600 0.828400
34.422800 0.864900
34.465000 0.941700
34.507300 1.038000
34.549500 1.066700
34.591700 1.051400
34.633900 1.059500
34.676200 1.056400
34.718400 1.054100
34.760600 1.049300
34.802800 1.021200
34.845100 0.933000
34.887300 0.859200
34.929500 0.850500
34.971700 0.850200
35.014000 0.860100
35.056200 0.855000
35.098400 0.838400
35.140700 0.839900
35.182900 0.844400
35.225100 0.856200
35.267300 0.903500
35.309600 0.960300
35.351800 0.984600
35.394000 0.980500
35.436200 0.967000
35.478500 0.958300
35.520700 0.946900
35.562900 0.938700
35.605100 0.982300
35.647400 1.012100
35.689600 0.998200
35.731800 1.012800
35.774000 1.002000
35.816300 1.003000
35.858500 0.971200
35.900700 0.953900
35.942900 0.971600
35.985200 1.029900
36.027400 1.035200
36.069600 1.072100
36.111800 1.075000
36.154100 1.078500
36.196300 1.079700
36.238500 1.084100
36.280700 1.055200
36.323000 1.013900
36.365200 0.969000
36.407400 0.950300
36.449600 0.921400
36.491900 0.908300
36.534100 0.910600
36.576300 0.915100
36.618500 0.906700
36.660800 0.900700
36.703000 0.900000
36.745200 0.892300
36.787400 0.881000
36.829700 0.881900
36.871900 0.900300
36.914100 0.895300
36.956300 0.892700
36.998600 0.892200
37.040800 0.900100
37.083000 0.910500
37.125200 0.910600
37.167500 0.923200
37.209700 0.939000
37.251900 0.942000
37.294100 0.933700
37.336400 0.936800
37.378600 0.937600
37.420800 0.957500
37.463000 0.976100
37.505300 0.999900
37.547500 1.020800
37.589700 1.036500
37.631900 1.027500
37.674200 1.035800
37.716400 1.062300
37.758600 1.054200
37.800800 1.027700
37.843100 1.001100
37.885300 1.029300
37.927500 1.066500
37.969700 1.091600
38.012000 0.977300
38.054200 0.949900
38.096400 0.900700
38.138700 0.877700
38.180900 0.903600
38.223100 0.908300
38.265300 0.903700
38.307600 0.856700
38.349800 0.903200
38.392000 0.907200
38.434200 0.918200
38.476500 0.923800
38.518700 0.931500
38.560900 1.003600
38.603100 1.035700
38.645400 1.043300
38.687600 1.044200
38.729800 1.090400
38.772000 1.244000
38.814300 1.190500
38.856500 1.135300
38.898700 1.168800
38.940900 1.196300
38.983200 1.071000
39.025400 1.055400
39.067600 1.088400
39.109800 1.124600
39.152100 1.111400
39.194300 1.073800
39.236500 1.021100
39.278700 0.956100
39.321000 0.884300
39.363200 0.783800
39.405400 0.713000
39.447600 0.685400
39.489900 0.673600
39.532100 0.672700
39.574300 0.644600
39.616500 0.626400
39.658800 0.608800
39.701000 0.614200
39.743200 0.640000
39.785400 0.694100
39.827700 0.741700
39.869900 0.779500
39.912100 0.814200
39.954300 0.844200
39.996600 0.887400
40.038800 0.934200
40.081000 0.992500
40.123200 1.057300
40.165500 1.058200
40.207700 1.104200
40.249900 1.144200
40.292100 1.165100
40.334400 1.179100
40.376600 1.166800
40.418800 1.114700
40.461000 1.068300
40.503300 0.978700
40.545500 0.925000
40.587700 0.884600
40.629900 0.850700
40.672200 0.842800
40.714400 0.868800
40.756600 0.894200
40.798800 0.840200
40.841100 0.822600
40.883300 0.816600
40.925500 0.855100
40.967800 0.871800
41.010000 0.863900
41.052200 0.873600
41.094400 0.941800
41.136700 0.885200
41.178900 0.872400
41.221100 0.832400
41.263300 0.826000
41.305600 0.846100
41.347800 0.894500
41.390000 1.040000
41.432200 1.313700
41.474500 1.399500
41.516700 1.417900
41.558900 1.474100
41.601100 1.329600
41.643400 1.160300
41.685600 1.080100
41.727800 1.010100
41.770000 0.948500
41.812300 0.944300
41.854500 0.951300
41.896700 0.976500
41.938900 1.012000
41.981200 0.968800
42.023400 0.927900
42.065600 0.942000
42.107800 0.914700
42.150100 0.930900
42.192300 0.945000
42.234500 0.987100
42.276700 1.018400
42.319000 1.004200
42.361200 0.938300
42.403400 0.957900
42.445600 0.972600
42.487900 1.005500
42.530100 1.066100
42.572300 1.088800
42.614500 1.088600
42.656800 1.094400
42.699000 0.999500
42.741200 0.945800
42.783400 0.885200
42.825700 0.825400
42.867900 0.789800
42.910100 0.769600
42.952300 0.749100
42.994600 0.759500
43.036800 0.720600
43.079000 0.735600
43.121200 0.785100
43.163500 0.837800
43.205700 0.905400
43.247900 0.981000
43.290100 0.985100
43.332400 0.971000
43.374600 0.963800
43.416800 0.994600
43.459000 1.047000
43.501300 1.032700
43.543500 0.935700
43.585700 0.902900
43.627900 0.868800
43.670200 0.830300
43.712400 0.805000
43.754600 0.779500
43.796800 0.764400
43.839100 0.730400
43.881300 0.713300
43.923500 0.743600
43.965800 0.778200
44.008000 0.839600
44.050200 0.903900
44.092400 0.958400
44.134700 0.970000
44.176900 0.972000
44.219100 1.069700
44.261300 1.064400
44.303600 1.062600
44.345800 1.076200
44.388000 1.080100
44.430200 1.098900
44.472500 1.127600
44.514700 1.054400
44.556900 0.978100
44.599100 0.920200
44.641400 0.890700
44.683600 0.811900
44.725800 0.761700
44.768000 0.718200
44.810300 0.688900
44.852500 0.682400
44.894700 0.720300
44.936900 0.753700
44.979200 0.844900
45.021400 0.897800
45.063600 0.931900
45.105800 0.944700
45.148100 0.958500
45.190300 0.977900
45.232500 0.997200
45.274700 1.010700
45.317000 1.011000
45.359200 1.007000
45.401400 0.995500
45.443600 0.987700
45.485900 0.983600
45.528100 0.965700
45.570300 0.966600
45.612500 0.983100
45.654800 0.984600
45.697000 0.960800
45.739200 0.919300
45.781400 0.861500
45.823700 0.884900
45.865900 0.900900
45.908100 0.929700
45.950300 0.977800
45.992600 1.063300
46.034800 1.097100
46.077000 1.048600
46.119200 1.038800
46.161500 1.040900
46.203700 1.063600
46.245900 1.097600
46.288100 1.069600
46.330400 1.079400
46.372600 1.016000
46.414800 0.985300
46.457000 0.962100
46.499300 0.929900
46.541500 0.852800
46.583700 0.820900
46.625900 0.838300
46.668200 0.839000
46.710400 0.854300
46.752600 0.866900
46.794800 0.856300
46.837100 0.865600
46.879300 0.910100
46.921500 0.920500
46.963800 0.915200
47.006000 0.942200
47.048200 0.956900
47.090400 0.966500
47.132700 0.952100
47.174900 0.925100
47.217100 0.908700
47.259300 0.927200
47.301600 0.965700
47.343800 0.957900
47.386000 0.969900
47.428200 0.989900
47.470500 0.997000
47.512700 1.001100
47.554900 1.000900
47.597100 1.019700
47.639400 1.051200
47.681600 1.073200
47.723800 1.089900
47.766000 1.067300
47.808300 1.044200
47.850500 1.026800
47.892700 1.023300
47.934900 1.035000
47.977200 1.032000
48.019400 1.033300
48.061600 1.036500
48.103800 1.037800
48.146100 1.045100
48.188300 0.986300
48.230500 0.928000
48.272700 0.926700
48.315000 0.908700
48.357200 0.892400
48.399400 0.885900
48.441600 0.885700
48.483900 0.880100
48.526100 0.880700
48.568300 0.882300
48.610500 0.902300
48.652800 0.897700
48.695000 0.912500
48.737200 0.946900
48.779400 0.971300
48.821700 0.987600
48.863900 0.967800
48.906100 0.945800
48.948300 0.946200
48.990600 0.961900
49.032800 1.016800
49.075000 1.079700
49.117200 1.091500
49.159500 1.090900
49.201700 1.100000
49.243900 1.119200
49.286100 1.138900
49.328400 1.156900
49.370600 1.041100
49.412800 1.032400
49.455000 1.024500
49.497300 1.018800
49.539500 1.061800
49.581700 1.023400
49.623900 1.052900
49.666200 1.030100
49.708400 1.026700
49.750600 1.011800
49.792900 1.062900
49.835100 1.077500
49.877300 1.076000
49.919500 1.075800
49.961800 1.073900
50.004000 1.072800
50.046200 1.066600
50.088400 1.090100
50.130700 1.016900
50.172900 0.981800
50.215100 0.980200
50.257300 1.017500
50.299600 0.983000
50.341800 0.971200
50.384000 0.984500
50.426200 1.016800
50.468500 1.021500
50.510700 1.028200
50.552900 1.022700
50.595100 1.011400
50.637400 1.007500
50.679600 1.021500
50.721800 0.991400
50.764000 0.957700
50.806300 0.943100
50.848500 0.926000
50.890700 0.918200
50.932900 0.881800
50.975200 0.941000
51.017400 0.957500
51.059600 0.969400
51.101800 0.985100
51.144100 1.006000
51.186300 1.069600
51.228500 1.139900
51.270700 1.127800
51.313000 1.097100
51.355200 1.081200
51.397400 1.064200
51.439600 1.049200
51.481900 1.026100
51.524100 0.995300
51.566300 0.974300
51.608500 0.988100
51.650800 1.005700
51.693000 1.029400
51.735200 1.020100
51.777400 1.010800
51.819700 1.028200
51.861900 1.086600
51.904100 1.139800
51.946300 1.157900
51.988600 1.181900
52.030800 1.077400
52.073000 1.054400
52.115200 1.067600
52.157500 1.097700
52.199700 1.070300
52.241900 1.047500
52.284100 1.040800
52.326400 1.075300
52.368600 1.114600
52.410800 1.165100
52.453000 1.222400
52.495300 1.205900
52.537500 1.160100
52.579700 1.115700
52.621900 1.064200
52.664200 1.009800
52.706400 0.949200
52.748600 0.945200
52.790900 0.928300
52.833100 0.941300
52.875300 0.939900
52.917500 0.940900
52.959800 0.966400
53.002000 0.975800
53.044200 1.000500
53.086400 1.002200
53.128700 0.972900
53.170900 0.969500
53.213100 0.987300
53.255300 0.997600
53.297600 1.029100
53.339800 1.049100
53.382000 1.072300
53.424200 1.082500
53.466500 1.094900
53.508700 1.082400
53.550900 1.069200
53.593100 1.063300
53.635400 1.098500
53.677600 1.106500
53.719800 1.124100
53.762000 1.128600
53.804300 1.100700
53.846500 1.060300
53.888700 1.024300
53.930900 1.004000
53.973200 0.986700
54.015400 0.981800
54.057600 0.982800
54.099800 0.985500
54.142100 0.993900
54.184300 0.996700
54.226500 1.008500
54.268700 1.017100
54.311000 1.022500
54.353200 1.025300
54.395400 1.030600
54.437600 1.025900
54.479900 1.048600
54.522100 1.080500
54.564300 1.047600
54.606500 1.066400
54.648800 1.072300
54.691000 1.061700
54.733200 0.992000
54.775400 0.966900
54.817700 0.955200
54.859900 0.951500
54.902100 0.970000
54.944300 0.992800
54.986600 1.035500
55.028800 1.069700
55.071000 1.081200
55.113200 1.085000
55.155500 1.073000
55.197700 1.088700
55.239900 1.063300
55.282100 1.041200
55.324400 1.025800
55.366600 1.007900
55.408800 0.978400
55.451000 0.990100
55.493300 0.986300
55.535500 0.923200
55.577700 0.898300
55.619900 0.902700
55.662200 0.918800
55.704400 0.921600
55.746600 0.867300
55.788900 0.826600
55.831100 0.809200
55.873300 0.888400
55.915500 1.005000
55.957800 1.014800
56.000000 1.035800
56.042200 1.047700
56.084400 1.054600
56.126700 1.006700
56.168900 0.987200
56.211100 0.913000
56.253300 0.866000
56.295600 0.837700
56.337800 0.823400
56.380000 0.804600
56.422200 0.839300
56.464500 0.877700
56.506700 0.889000
56.548900 0.832100
56.591100 0.762100
56.633400 0.745100
56.675600 0.778200
56.717800 0.822700
56.760000 0.843700
56.802300 0.860200
56.844500 0.871600
56.886700 0.895100
56.928900 0.936800
56.971200 0.893400
57.013400 0.825000
57.055600 0.737000
57.097800 0.656300
57.140100 0.583600
57.182300 0.514000
57.224500 0.467900
57.266700 0.429600
57.309000 0.393600
57.351200 0.358500
57.393400 0.323100
57.435600 0.289600
57.477900 0.255300
57.520100 0.221600
57.562300 0.184400
57.604500 0.142500
57.646800 0.114300
57.689000 0.096000
57.731200 0.080700
57.773400 0.067300
57.815700 0.055000
57.857900 0.043700
57.900100 0.033400
57.942300 0.025800
57.984600 0.021000
58.026800 0.016900
58.069000 0.013500
58.111200 0.010700
58.153500 0.008200
58.195700 0.006200
58.237900 0.004500
58.280100 0.003200
58.322400 0.002200
58.364600 0.001500
58.406800 0.001000
58.449000 0.000500
58.491300 0.000100
58.533500 0.000000
58.575700 0.000000
58.617900 0.000000
58.660200 0.000000
58.702400 0.000000
58.744600 0.000000
58.786900 0.000000
58.829100 0.000000
58.871300 0.000000
58.913500 0.000000
58.955800 0.000000
58.998000 0.000000
59.040200 0.000000
59.082400 0.000000
59.124700 0.000000
59.166900 0.000000
59.209100 0.000000
59.251300 0.000000
59.293600 0.000000
59.335800 0.000000
59.378000 0.000000
59.420200 0.000000
59.462500 0.000000
59.504700 0.000000
59.546900 0.000000
59.589100 0.000000
59.631400 0.000000
59.673600 0.000000
59.715800 0.000000
59.758000 0.000000
59.800300 0.000000
59.842500 0.000000
59.884700 0.000000
59.926900 0.000000
59.969200 0.000000
60.011400 0.000000
60.053600 0.000000
60.095800 0.000000
60.138100 0.000000
60.180300 0.000000
60.222500 0.000000
60.264700 0.000000
60.307000 0.000000
60.349200 0.000000
60.391400 0.000000
60.433600 0.000000
60.475900 0.000000
60.518100 0.000000
60.560300 0.000000
60.602500 0.000000
60.644800 0.000000
60.687000 0.000000
60.729200 0.000000
60.771400 0.000000
60.813700 0.000000
60.855900 0.000000
60.898100 0.000000
60.940300 0.000000
60.982600 0.000000
61.024800 0.000000
61.067000 0.000000
61.109200 0.000000
61.151500 0.000000
61.193700 0.000000
61.235900 0.000000
61.278100 0.000000
61.320400 0.000000
61.362600 0.000000
61.404800 0.000000
61.447000 0.000000
61.489300 0.000000
61.531500 0.000000
61.573700 0.000000
61.616000 0.000000
61.658200 0.000000
61.700400 0.000000
61.742600 0.000000
61.784900 0.000000
61.827100 0.000000
61.869300 0.000000
61.911500 0.000000
61.953800 0.000000
61.996000 0.000000
62.038200 0.000000
62.080400 0.000000
62.122700 0.000000
62.164900 0.000000
62.207100 0.000000
62.249300 0.000000
62.291600 0.000000
62.333800 0.000000
62.376000 0.000000
62.418200 0.000000
62.460500 0.000000
62.502700 0.000000
62.544900 0.000000
62.587100 0.000000
62.629400 0.000000
62.671600 0.000000
62.713800 0.000000
e
