set title 'mp-569360 - Density of States'
set xlabel 'Energy (eV)'
set ylabel 'DOS (states/eV)'
set grid
set xrange [-10:10]
set yrange [0:44.347]
set xzeroaxis lt -1
set terminal png size 800,600
set output 'mp-569360_dos_gnuplot.png'
plot '-' using 1:2 with lines title 'DOS'
-8.681100 0.000000
-8.653300 0.000000
-8.625500 0.000000
-8.597700 0.000000
-8.570000 0.000000
-8.542200 0.000000
-8.514400 0.000000
-8.486600 0.000000
-8.458800 0.000000
-8.431100 0.000000
-8.403300 0.000000
-8.375500 0.000000
-8.347700 0.000000
-8.319900 0.000000
-8.292100 0.000000
-8.264400 0.000000
-8.236600 0.000000
-8.208800 0.000000
-8.181000 0.000000
-8.153200 0.000000
-8.125400 0.000000
-8.097700 0.000000
-8.069900 0.000000
-8.042100 0.000000
-8.014300 0.000000
-7.986500 0.000000
-7.958700 0.000000
-7.931000 0.000000
-7.903200 0.000000
-7.875400 0.000000
-7.847600 0.000000
-7.819800 0.000000
-7.792100 0.000000
-7.764300 0.000000
-7.736500 0.000000
-7.708700 0.000000
-7.680900 0.000000
-7.653100 0.000000
-7.625400 0.000000
-7.597600 0.000000
-7.569800 0.000000
-7.542000 0.000000
-7.514200 0.000000
-7.486400 0.000000
-7.458700 0.000000
-7.430900 0.000000
-7.403100 0.000000
-7.375300 0.000000
-7.347500 0.000000
-7.319700 0.000000
-7.292000 0.000000
-7.264200 0.000000
-7.236400 0.000000
-7.208600 0.000000
-7.180800 0.000000
-7.153100 0.000000
-7.125300 0.000000
-7.097500 0.000000
-7.069700 0.000000
-7.041900 0.000000
-7.014100 0.000000
-6.986400 0.000000
-6.958600 0.000000
-6.930800 0.000000
-6.903000 0.000000
-6.875200 0.000000
-6.847400 0.000000
-6.819700 0.000000
-6.791900 0.000000
-6.764100 0.000000
-6.736300 0.000000
-6.708500 0.000000
-6.680700 0.000000
-6.653000 0.000000
-6.625200 0.000000
-6.597400 0.000000
-6.569600 0.000000
-6.541800 0.000000
-6.514000 0.000000
-6.486300 0.000000
-6.458500 0.000000
-6.430700 0.000000
-6.402900 0.000000
-6.375100 0.000000
-6.347400 0.000000
-6.319600 0.000000
-6.291800 0.000000
-6.264000 0.000000
-6.236200 0.000000
-6.208400 0.000000
-6.180700 0.000000
-6.152900 0.000100
-6.125100 0.019000
-6.097300 0.069700
-6.069500 0.151900
-6.041700 0.185400
-6.014000 0.217200
-5.986200 0.261500
-5.958400 0.310900
-5.930600 0.521900
-5.902800 6.000800
-5.875000 9.658100
-5.847300 12.366600
-5.819500 18.405400
-5.791700 27.057500
-5.763900 30.802900
-5.736100 32.575700
-5.708400 24.239600
-5.680600 24.726800
-5.652800 25.146100
-5.625000 23.923400
-5.597200 20.522600
-5.569400 26.123000
-5.541700 25.883300
-5.513900 34.681900
-5.486100 40.315500
-5.458300 36.245400
-5.430500 25.287600
-5.402700 20.961800
-5.375000 33.140600
-5.347200 30.102600
-5.319400 15.912600
-5.291600 23.332500
-5.263800 29.132300
-5.236000 25.283800
-5.208300 28.262200
-5.180500 28.518200
-5.152700 31.639300
-5.124900 34.633800
-5.097100 27.500100
-5.069400 21.824100
-5.041600 24.840300
-5.013800 25.653000
-4.986000 28.520600
-4.958200 29.790400
-4.930400 29.981700
-4.902700 36.940100
-4.874900 30.458200
-4.847100 33.166400
-4.819300 32.171400
-4.791500 29.898400
-4.763700 5.761800
-4.736000 0.928300
-4.708200 0.869300
-4.680400 0.825100
-4.652600 0.783000
-4.624800 0.744200
-4.597000 0.726200
-4.569300 0.718300
-4.541500 0.714200
-4.513700 0.708200
-4.485900 0.701900
-4.458100 0.694800
-4.430400 0.687500
-4.402600 0.678900
-4.374800 0.671400
-4.347000 0.667600
-4.319200 0.663400
-4.291400 0.663300
-4.263700 0.667000
-4.235900 0.671900
-4.208100 0.677200
-4.180300 0.682700
-4.152500 0.688300
-4.124700 0.693300
-4.097000 0.699000
-4.069200 0.704500
-4.041400 0.709400
-4.013600 0.714500
-3.985800 0.719300
-3.958000 0.724600
-3.930300 0.730100
-3.902500 0.736600
-3.874700 0.743500
-3.846900 0.750700
-3.819100 0.758000
-3.791400 0.765300
-3.763600 0.772200
-3.735800 0.777800
-3.708000 0.784400
-3.680200 0.797000
-3.652400 0.823100
-3.624700 0.847700
-3.596900 0.847900
-3.569100 0.837400
-3.541300 0.828900
-3.513500 0.816900
-3.485700 0.816800
-3.458000 0.818500
-3.430200 0.820100
-3.402400 0.821600
-3.374600 0.823200
-3.346800 0.824900
-3.319000 0.826800
-3.291300 0.829500
-3.263500 0.832900
-3.235700 0.836800
-3.207900 0.841100
-3.180100 0.846800
-3.152400 0.850900
-3.124600 0.853200
-3.096800 0.855900
-3.069000 0.859700
-3.041200 0.864300
-3.013400 0.869400
-2.985700 0.874800
-2.957900 0.880600
-2.930100 0.887200
-2.902300 0.893400
-2.874500 0.900000
-2.846700 0.906800
-2.819000 0.913900
-2.791200 0.921300
-2.763400 0.928900
-2.735600 0.937800
-2.707800 0.947900
-2.680000 0.964700
-2.652300 0.985600
-2.624500 0.998100
-2.596700 1.004000
-2.568900 1.011600
-2.541100 1.018400
-2.513400 1.017600
-2.485600 1.021200
-2.457800 1.030200
-2.430000 1.040600
-2.402200 1.052000
-2.374400 1.063800
-2.346700 1.075600
-2.318900 1.087800
-2.291100 1.100700
-2.263300 1.114500
-2.235500 1.126700
-2.207700 1.138200
-2.180000 1.146400
-2.152200 1.155100
-2.124400 1.164800
-2.096600 1.175400
-2.068800 1.188100
-2.041000 1.204200
-2.013300 1.225600
-1.985500 1.253800
-1.957700 1.301000
-1.929900 1.354600
-1.902100 1.398700
-1.874300 1.422600
-1.846600 1.434100
-1.818800 1.437500
-1.791000 1.433300
-1.763200 1.420200
-1.735400 1.397000
-1.707700 1.363200
-1.679900 1.337300
-1.652100 1.311400
-1.624300 1.293600
-1.596500 1.318900
-1.568700 1.407800
-1.541000 1.407000
-1.513200 1.349300
-1.485400 1.338000
-1.457600 1.375800
-1.429800 1.273900
-1.402000 1.258400
-1.374300 1.260000
-1.346500 1.265900
-1.318700 1.277200
-1.290900 1.480400
-1.263100 1.361800
-1.235300 1.360100
-1.207600 1.370300
-1.179800 1.380600
-1.152000 1.403500
-1.124200 1.427100
-1.096400 1.448600
-1.068700 1.463400
-1.040900 1.479400
-1.013100 1.505000
-0.985300 1.579600
-0.957500 1.587900
-0.929700 1.552700
-0.902000 1.475800
-0.874200 1.466300
-0.846400 1.481800
-0.818600 1.456300
-0.790800 1.423600
-0.763000 1.387500
-0.735300 1.362500
-0.707500 1.341000
-0.679700 1.406200
-0.651900 1.487900
-0.624100 1.580800
-0.596300 1.757200
-0.568600 1.872900
-0.540800 2.025900
-0.513000 2.098400
-0.485200 2.049000
-0.457400 1.917500
-0.429700 1.854400
-0.401900 1.803400
-0.374100 1.792500
-0.346300 1.864600
-0.318500 2.173100
-0.290700 2.183100
-0.263000 2.146600
-0.235200 1.998900
-0.207400 1.851100
-0.179600 1.758200
-0.151800 1.732900
-0.124000 1.788200
-0.096300 1.728400
-0.068500 1.610400
-0.040700 1.462300
-0.012900 1.320800
0.014900 1.261700
0.042700 0.989100
0.070400 0.746300
0.098200 0.643800
0.126000 0.572500
0.153800 0.518100
0.181600 0.482400
0.209300 0.432900
0.237100 0.384400
0.264900 0.340700
0.292700 0.301900
0.320500 0.271600
0.348300 0.300600
0.376000 0.109200
0.403800 0.006200
0.431600 0.000000
0.459400 0.000000
0.487200 0.000000
0.515000 0.000000
0.542700 0.000000
0.570500 0.000000
0.598300 0.000000
0.626100 0.000000
0.653900 0.000000
0.681700 0.000300
0.709400 0.001600
0.737200 0.006700
0.765000 0.016200
0.792800 0.035900
0.820600 0.076800
0.848300 0.114400
0.876100 0.112000
0.903900 0.140800
0.931700 0.170800
0.959500 0.204200
0.987300 0.240300
1.015000 0.279600
1.042800 0.344000
1.070600 0.417800
1.098400 0.500200
1.126200 0.522900
1.154000 0.527600
1.181700 0.524900
1.209500 0.517100
1.237300 0.514300
1.265100 0.526600
1.292900 0.541400
1.320700 0.559900
1.348400 0.582100
1.376200 0.606300
1.404000 0.631800
1.431800 0.661100
1.459600 0.690300
1.487300 0.717000
1.515100 0.739100
1.542900 0.759600
1.570700 0.778000
1.598500 0.793900
1.626300 0.807100
1.654000 0.813900
1.681800 0.829900
1.709600 0.859000
1.737400 0.898000
1.765200 0.941000
1.793000 0.983600
1.820700 1.026300
1.848500 1.071300
1.876300 1.123800
1.904100 1.172600
1.931900 1.216200
1.959700 1.257600
1.987400 1.305100
2.015200 1.367600
2.043000 1.438100
2.070800 1.512300
2.098600 1.715500
2.126300 1.695500
2.154100 1.717300
2.181900 1.731600
2.209700 1.756900
2.237500 1.793400
2.265300 1.759000
2.293000 1.630900
2.320800 1.629700
2.348600 1.669300
2.376400 1.745200
2.404200 1.844800
2.432000 1.960100
2.459700 2.109500
2.487500 2.214400
2.515300 2.258300
2.543100 2.261200
2.570900 2.118100
2.598700 1.986800
2.626400 1.797800
2.654200 1.673300
2.682000 1.627200
2.709800 1.598600
2.737600 1.578900
2.765400 1.573600
2.793100 1.572000
2.820900 1.492200
2.848700 1.432800
2.876500 1.398300
2.904300 1.374800
2.932000 1.356100
2.959800 1.343500
2.987600 1.328200
3.015400 1.319200
3.043200 1.326000
3.071000 1.347600
3.098700 1.353400
3.126500 1.358300
3.154300 1.431000
3.182100 1.482100
3.209900 1.549800
3.237700 1.572600
3.265400 1.586000
3.293200 1.576600
3.321000 1.612900
3.348800 1.654100
3.376600 1.666800
3.404400 1.661400
3.432100 1.665100
3.459900 1.679000
3.487700 1.702300
3.515500 1.709000
3.543300 1.700200
3.571000 1.683800
3.598800 1.670400
3.626600 1.676000
3.654400 1.675600
3.682200 1.616000
3.710000 1.533800
3.737700 1.494000
3.765500 1.470800
3.793300 1.465100
3.821100 1.477800
3.848900 1.494700
3.876700 1.550900
3.904400 1.548500
3.932200 1.493400
3.960000 1.411900
3.987800 1.373600
4.015600 1.377900
4.043400 1.338800
4.071100 1.280100
4.098900 1.240700
4.126700 1.209100
4.154500 1.184600
4.182300 1.161900
4.210000 1.143700
4.237800 1.135000
4.265600 1.154100
4.293400 1.195300
4.321200 1.195000
4.349000 1.194400
4.376700 1.199200
4.404500 1.228000
4.432300 1.257000
4.460100 1.264600
4.487900 1.295400
4.515700 1.324600
4.543400 1.358900
4.571200 1.394300
4.599000 1.426400
4.626800 1.456300
4.654600 1.492900
4.682400 1.551800
4.710100 1.610300
4.737900 1.665000
4.765700 1.707700
4.793500 1.748200
4.821300 1.780700
4.849000 1.776100
4.876800 1.742300
4.904600 1.735300
4.932400 1.747000
4.960200 1.718900
4.988000 1.714100
5.015700 1.703200
5.043500 1.695700
5.071300 1.672200
5.099100 1.656100
5.126900 1.642900
5.154700 1.632600
5.182400 1.626600
5.210200 1.631400
5.238000 1.654000
5.265800 1.678600
5.293600 1.691900
5.321400 1.696600
5.349100 1.687700
5.376900 1.678400
5.404700 1.674100
5.432500 1.677700
5.460300 1.684500
5.488000 1.699200
5.515800 1.715300
5.543600 1.729600
5.571400 1.739700
5.599200 1.748300
5.627000 1.751000
5.654700 1.749000
5.682500 1.744400
5.710300 1.737400
5.738100 1.730000
5.765900 1.728800
5.793700 1.733000
5.821400 1.742200
5.849200 1.753700
5.877000 1.768400
5.904800 1.783700
5.932600 1.795200
5.960400 1.796100
5.988100 1.784700
6.015900 1.766000
6.043700 1.741700
6.071500 1.726400
6.099300 1.728600
6.127000 1.735600
6.154800 1.730000
6.182600 1.722800
6.210400 1.715500
6.238200 1.698900
6.266000 1.681400
6.293700 1.666200
6.321500 1.654000
6.349300 1.651700
6.377100 1.662900
6.404900 1.677500
6.432700 1.690200
6.460400 1.701900
6.488200 1.719900
6.516000 1.744400
6.543800 1.772300
6.571600 1.807900
6.599400 1.842900
6.627100 1.871100
6.654900 1.893600
6.682700 1.913000
6.710500 1.936900
6.738300 1.955000
6.766100 1.968200
6.793800 1.994000
6.821600 2.028300
6.849400 2.017800
6.877200 2.012900
6.905000 2.023400
6.932700 2.041000
6.960500 2.063000
6.988300 2.082700
7.016100 2.097000
7.043900 2.109700
7.071700 2.122000
7.099400 2.103800
7.127200 2.081500
7.155000 2.054400
7.182800 2.024400
7.210600 2.004800
7.238400 1.994900
7.266100 2.003300
7.293900 1.999800
7.321700 1.983700
7.349500 1.989800
7.377300 1.981700
7.405100 1.991900
7.432800 1.993300
7.460600 1.996300
7.488400 1.999200
7.516200 1.968500
7.544000 1.927000
7.571700 1.867600
7.599500 1.808100
7.627300 1.775000
7.655100 1.743500
7.682900 1.712800
7.710700 1.689500
7.738400 1.712700
7.766200 1.711800
7.794000 1.712700
7.821800 1.699700
7.849600 1.671600
7.877400 1.686900
7.905100 1.707300
7.932900 1.732000
7.960700 1.763300
7.988500 1.806900
8.016300 1.849000
8.044100 1.938700
8.071800 1.999900
8.099600 1.998900
8.127400 2.006100
8.155200 2.025400
8.183000 2.058300
8.210700 2.081000
8.238500 2.097000
8.266300 2.118000
8.294100 2.153700
8.321900 2.199400
8.349700 2.223500
8.377400 2.240300
8.405200 2.261300
8.433000 2.270000
8.460800 2.257900
8.488600 2.254100
8.516400 2.252500
8.544100 2.231400
8.571900 2.198400
8.599700 2.217700
8.627500 2.168500
8.655300 2.155700
8.683100 2.142100
8.710800 2.137700
8.738600 2.136500
8.766400 2.130400
8.794200 2.105300
8.822000 2.070600
8.849700 2.040800
8.877500 2.017300
8.905300 1.998600
8.933100 1.990400
8.960900 1.984400
8.988700 1.977500
9.016400 1.971200
9.044200 1.965100
9.072000 1.953600
9.099800 1.961900
9.127600 1.976400
9.155400 1.991700
9.183100 2.004600
9.210900 2.008400
9.238700 2.007800
9.266500 2.036600
9.294300 2.048400
9.322100 2.021700
9.349800 2.009400
9.377600 2.001200
9.405400 1.990800
9.433200 1.975900
9.461000 1.966900
9.488700 1.968800
9.516500 1.989800
9.544300 2.018300
9.572100 2.055800
9.599900 2.059100
9.627700 2.037000
9.655400 1.992700
9.683200 1.981400
9.711000 1.957100
9.738800 1.943500
9.766600 1.936100
9.794400 1.926500
9.822100 1.917700
9.849900 1.915800
9.877700 1.914200
9.905500 1.913000
9.933300 1.913800
9.961100 1.920400
9.988800 1.935500
10.016600 1.957400
10.044400 2.006500
10.072200 2.112300
10.100000 2.107200
10.127700 2.124600
10.155500 2.151400
10.183300 2.163200
10.211100 2.160700
10.238900 2.157600
10.266700 2.143800
10.294400 2.105800
10.322200 2.136900
10.350000 2.136300
10.377800 1.918000
10.405600 1.872800
10.433400 1.833200
10.461100 1.802400
10.488900 1.759700
10.516700 1.722000
10.544500 1.687600
10.572300 1.664500
10.600100 1.645100
10.627800 1.626700
10.655600 1.608300
10.683400 1.583300
10.711200 1.564000
10.739000 1.542500
10.766700 1.512200
10.794500 1.504100
10.822300 1.507800
10.850100 1.505900
10.877900 1.507300
10.905700 1.512900
10.933400 1.530500
10.961200 1.556700
10.989000 1.584700
11.016800 1.612400
11.044600 1.637600
11.072400 1.657500
11.100100 1.679800
11.127900 1.699100
11.155700 1.712000
11.183500 1.723200
11.211300 1.740100
11.239100 1.746600
11.266800 1.820400
11.294600 1.866100
11.322400 1.858200
11.350200 1.833000
11.378000 1.849100
11.405800 1.866300
11.433500 1.880200
11.461300 1.901600
11.489100 1.925000
11.516900 1.933400
11.544700 1.941700
11.572400 1.960000
11.600200 1.999500
11.628000 2.060000
11.655800 2.115700
11.683600 2.162000
11.711400 2.215800
11.739100 2.289200
11.766900 2.365700
11.794700 2.421900
11.822500 2.426300
11.850300 2.351000
11.878100 2.348000
11.905800 2.351300
11.933600 2.352800
11.961400 2.354900
11.989200 2.343700
12.017000 2.335200
12.044800 2.336800
12.072500 2.353000
12.100300 2.370700
12.128100 2.384900
12.155900 2.385200
12.183700 2.359500
12.211400 2.327000
12.239200 2.304100
12.267000 2.280400
12.294800 2.254700
12.322600 2.233600
12.350400 2.239100
12.378100 2.245800
12.405900 2.257100
12.433700 2.268800
12.461500 2.259100
12.489300 2.284700
12.517100 2.307100
12.544800 2.322400
12.572600 2.351900
12.600400 2.381400
12.628200 2.410400
12.656000 2.442100
12.683800 2.491200
12.711500 2.524200
12.739300 2.528900
12.767100 2.540200
12.794900 2.518100
12.822700 2.493400
12.850400 2.543900
12.878200 2.626100
12.906000 2.620100
12.933800 2.548700
12.961600 2.502600
12.989400 2.415500
13.017100 2.322800
13.044900 2.281200
13.072700 2.280100
13.100500 2.300300
13.128300 2.383600
13.156100 2.550700
13.183800 2.686400
13.211600 2.716600
13.239400 2.780200
13.267200 2.728400
13.295000 2.715700
13.322800 2.596100
13.350500 2.455000
13.378300 2.350200
13.406100 2.274400
13.433900 2.244000
13.461700 2.231800
13.489400 2.227600
13.517200 2.216900
13.545000 2.260400
13.572800 2.359100
13.600600 2.411200
13.628400 2.334600
13.656100 2.303800
13.683900 2.223700
13.711700 2.122900
13.739500 2.052800
13.767300 1.987300
13.795100 1.954500
13.822800 1.952700
13.850600 1.965200
13.878400 1.997900
13.906200 1.965200
13.934000 1.887000
13.961800 1.802100
13.989500 1.770900
14.017300 1.750900
14.045100 1.747300
14.072900 1.752700
14.100700 1.770000
14.128400 1.818800
14.156200 1.791600
14.184000 1.735500
14.211800 1.661200
14.239600 1.599600
14.267400 1.541200
14.295100 1.497000
14.322900 1.467400
14.350700 1.447900
14.378500 1.444900
14.406300 1.455100
14.434100 1.452700
14.461800 1.462400
14.489600 1.511400
14.517400 1.558800
14.545200 1.609500
14.573000 1.638900
14.600800 1.663300
14.628500 1.682000
14.656300 1.743100
14.684100 1.885200
14.711900 1.893500
14.739700 1.888100
14.767400 1.899100
14.795200 1.884300
14.823000 1.875200
14.850800 1.873900
14.878600 1.883100
14.906400 1.907500
14.934100 1.941300
14.961900 2.018600
14.989700 2.077800
15.017500 2.113800
15.045300 2.189000
15.073100 2.128700
15.100800 1.993000
15.128600 1.898300
15.156400 1.848800
15.184200 1.810200
15.212000 1.787200
15.239800 1.785100
15.267500 1.807500
15.295300 1.859700
15.323100 1.915900
15.350900 2.045700
15.378700 2.182500
15.406400 2.297400
15.434200 2.448600
15.462000 2.597500
15.489800 2.703300
15.517600 2.751200
15.545400 2.842900
15.573100 2.890000
15.600900 2.905600
15.628700 2.804500
15.656500 2.671800
15.684300 2.546000
15.712100 2.448600
15.739800 2.398400
15.767600 2.425500
15.795400 2.497400
15.823200 2.566300
15.851000 2.626500
15.878800 2.697700
15.906500 2.757900
15.934300 2.790800
15.962100 2.815200
15.989900 2.765400
16.017700 2.685500
16.045500 2.663100
16.073200 2.645400
16.101000 2.625300
16.128800 2.610400
16.156600 2.601400
16.184400 2.602500
16.212100 2.634400
16.239900 2.710300
16.267700 2.685100
16.295500 2.658800
16.323300 2.647500
16.351100 2.633400
16.378800 2.613400
16.406600 2.635500
16.434400 2.661800
16.462200 2.706100
16.490000 2.759900
16.517800 2.757000
16.545500 2.780100
16.573300 2.798700
16.601100 2.842100
16.628900 2.842000
16.656700 2.834200
16.684500 2.834300
16.712200 2.758700
16.740000 2.701300
16.767800 2.713400
16.795600 2.731600
16.823400 2.776700
16.851100 2.804400
16.878900 2.853000
16.906700 3.010200
16.934500 3.158100
16.962300 3.395300
16.990100 3.575400
17.017800 3.636100
17.045600 3.585000
17.073400 3.636500
17.101200 3.693100
17.129000 3.726600
17.156800 3.736600
17.184500 3.611200
17.212300 3.509800
17.240100 3.353200
17.267900 3.208600
17.295700 3.124000
17.323500 3.052100
17.351200 3.019900
17.379000 2.982100
17.406800 2.953000
17.434600 2.939100
17.462400 2.941100
17.490100 2.928200
17.517900 2.928300
17.545700 2.927900
17.573500 2.954200
17.601300 3.000100
17.629100 3.054500
17.656800 3.129500
17.684600 3.107900
17.712400 2.962600
17.740200 2.829800
17.768000 2.838600
17.795800 2.786600
17.823500 2.798600
17.851300 2.822800
17.879100 2.843500
17.906900 2.870200
17.934700 2.877900
17.962500 2.850500
17.990200 2.896100
18.018000 2.893300
18.045800 2.914000
18.073600 2.936500
18.101400 3.000600
18.129100 3.066000
18.156900 3.114400
18.184700 3.127800
18.212500 3.125700
18.240300 3.114500
18.268100 3.131000
18.295800 3.184100
18.323600 3.238100
18.351400 3.276500
18.379200 3.317400
18.407000 3.351100
18.434800 3.363500
18.462500 3.333700
18.490300 3.260900
18.518100 3.234500
18.545900 3.259400
18.573700 3.262100
18.601500 3.265900
18.629200 3.270400
18.657000 3.276600
18.684800 3.285600
18.712600 3.304600
18.740400 3.338400
18.768100 3.350000
18.795900 3.304500
18.823700 3.247900
18.851500 3.205400
18.879300 3.171700
18.907100 3.139600
18.934800 3.128500
18.962600 3.146000
18.990400 3.161400
19.018200 3.202400
19.046000 3.224200
19.073800 3.272400
19.101500 3.329900
19.129300 3.295800
19.157100 3.251700
19.184900 3.232400
19.212700 3.220100
19.240500 3.235000
19.268200 3.268500
19.296000 3.297100
19.323800 3.348200
19.351600 3.388100
19.379400 3.454900
19.407100 3.504900
19.434900 3.517200
19.462700 3.576800
19.490500 3.602600
19.518300 3.563100
19.546100 3.523700
19.573800 3.495700
19.601600 3.538900
19.629400 3.552600
19.657200 3.586100
19.685000 3.610100
19.712800 3.620900
19.740500 3.646100
19.768300 3.660300
19.796100 3.704600
19.823900 3.624800
19.851700 3.586400
19.879500 3.578600
19.907200 3.598200
19.935000 3.622900
19.962800 3.613600
19.990600 3.600500
20.018400 3.611300
20.046100 3.619100
20.073900 3.616200
20.101700 3.636500
20.129500 3.672000
20.157300 3.689200
20.185100 3.632700
20.212800 3.630900
20.240600 3.631400
20.268400 3.636900
20.296200 3.644400
20.324000 3.668100
20.351800 3.677100
20.379500 3.668400
20.407300 3.659800
20.435100 3.657900
20.462900 3.631600
20.490700 3.616500
20.518500 3.655100
20.546200 3.635700
20.574000 3.668000
20.601800 3.689000
20.629600 3.676200
20.657400 3.653300
20.685200 3.626000
20.712900 3.591100
20.740700 3.549600
20.768500 3.543500
20.796300 3.541300
20.824100 3.532300
20.851800 3.614200
20.879600 3.555100
20.907400 3.546200
20.935200 3.522800
20.963000 3.505000
20.990800 3.501400
21.018500 3.548500
21.046300 3.670500
21.074100 3.893800
21.101900 3.607700
21.129700 3.564400
21.157500 3.602200
21.185200 3.614000
21.213000 3.581700
21.240800 3.586600
21.268600 3.588600
21.296400 3.595600
21.324200 3.613200
21.351900 3.621200
21.379700 3.634700
21.407500 3.648000
21.435300 3.658000
21.463100 3.667500
21.490800 3.678300
21.518600 3.674000
21.546400 3.642700
21.574200 3.617100
21.602000 3.583700
21.629800 3.554000
21.657500 3.532500
21.685300 3.524800
21.713100 3.518800
21.740900 3.512600
21.768700 3.500900
21.796500 3.484300
21.824200 3.460200
21.852000 3.453400
21.879800 3.441300
21.907600 3.420300
21.935400 3.394100
21.963200 3.401100
21.990900 3.413100
22.018700 3.433900
22.046500 3.448900
22.074300 3.469700
22.102100 3.495400
22.129800 3.502800
22.157600 3.533100
22.185400 3.545600
22.213200 3.559800
22.241000 3.577000
22.268800 3.589400
22.296500 3.599600
22.324300 3.601900
22.352100 3.593200
22.379900 3.585300
22.407700 3.581700
22.435500 3.582000
22.463200 3.577800
22.491000 3.580900
22.518800 3.592300
22.546600 3.603800
22.574400 3.610100
22.602200 3.618400
22.629900 3.607700
22.657700 3.561900
22.685500 3.524200
22.713300 3.464900
22.741100 3.519500
22.768800 3.564400
22.796600 3.556700
22.824400 3.507600
22.852200 3.511000
22.880000 3.493300
22.907800 3.465400
22.935500 3.446600
22.963300 3.442600
22.991100 3.464100
23.018900 3.509000
23.046700 3.580400
23.074500 3.639900
23.102200 3.693100
23.130000 3.709800
23.157800 3.661400
23.185600 3.635300
23.213400 3.612600
23.241200 3.584900
23.268900 3.565100
23.296700 3.557200
23.324500 3.571400
23.352300 3.587000
23.380100 3.598800
23.407800 3.616400
23.435600 3.634400
23.463400 3.674200
23.491200 3.684200
23.519000 3.661800
23.546800 3.670900
23.574500 3.655400
23.602300 3.592900
23.630100 3.553500
23.657900 3.550300
23.685700 3.674300
23.713500 3.675500
23.741200 3.657400
23.769000 3.618300
23.796800 3.607700
23.824600 3.560100
23.852400 3.516500
23.880200 3.472800
23.907900 3.448500
23.935700 3.372400
23.963500 3.303000
23.991300 3.300000
24.019100 3.353000
24.046800 3.368900
24.074600 3.363700
24.102400 3.400900
24.130200 3.471300
24.158000 3.573600
24.185800 3.651900
24.213500 3.742400
24.241300 3.822200
24.269100 3.726400
24.296900 3.678600
24.324700 3.653500
24.352500 3.591300
24.380200 3.573000
24.408000 3.582600
24.435800 3.651600
24.463600 3.681200
24.491400 3.707100
24.519200 3.666600
24.546900 3.641500
24.574700 3.638400
24.602500 3.625200
24.630300 3.605800
24.658100 3.592900
24.685900 3.551500
24.713600 3.528200
24.741400 3.525800
24.769200 3.551800
24.797000 3.500100
24.824800 3.416700
24.852500 3.430400
24.880300 3.433600
24.908100 3.439200
24.935900 3.446500
24.963700 3.487900
24.991500 3.541900
25.019200 3.598700
25.047000 3.665100
25.074800 3.678800
25.102600 3.522900
25.130400 3.454300
25.158200 3.427800
25.185900 3.379800
25.213700 3.309800
25.241500 3.285900
25.269300 3.233300
25.297100 3.141400
25.324900 3.077100
25.352600 3.053600
25.380400 3.040800
25.408200 3.018100
25.436000 2.991100
25.463800 2.976700
25.491500 2.974200
25.519300 2.988500
25.547100 3.021200
25.574900 3.105000
25.602700 3.195300
25.630500 3.222200
25.658200 3.235100
25.686000 3.273600
25.713800 3.319100
25.741600 3.333700
25.769400 3.336400
25.797200 3.350500
25.824900 3.358000
25.852700 3.346000
25.880500 3.304800
25.908300 3.306100
25.936100 3.334500
25.963900 3.349100
25.991600 3.256400
26.019400 3.242900
26.047200 3.253000
26.075000 3.310100
26.102800 3.320900
26.130500 3.330200
26.158300 3.310300
26.186100 3.275700
26.213900 3.261300
26.241700 3.238600
26.269500 3.149900
26.297200 3.071900
26.325000 3.026100
26.352800 3.008200
26.380600 3.005900
26.408400 3.027700
26.436200 3.061500
26.463900 3.085900
26.491700 3.180900
26.519500 3.093900
26.547300 3.119600
26.575100 3.145800
26.602900 3.183300
26.630600 3.228500
26.658400 3.249200
26.686200 3.246800
26.714000 3.214100
26.741800 3.234500
26.769500 3.274200
26.797300 3.304100
26.825100 3.400100
26.852900 3.492500
26.880700 3.561000
26.908500 3.649200
26.936200 3.573600
26.964000 3.586100
26.991800 3.625600
27.019600 3.656200
27.047400 3.742700
27.075200 3.707300
27.102900 3.605300
27.130700 3.503900
27.158500 3.482200
27.186300 3.566700
27.214100 3.666700
27.241900 3.818100
27.269600 3.906500
27.297400 4.006100
27.325200 4.055600
27.353000 3.937200
27.380800 3.692900
27.408500 3.614200
27.436300 3.599500
27.464100 3.587300
27.491900 3.574900
27.519700 3.543000
27.547500 3.525300
27.575200 3.610900
27.603000 3.643400
27.630800 3.517200
27.658600 3.445100
27.686400 3.400800
27.714200 3.412900
27.741900 3.422400
27.769700 3.437700
27.797500 3.442700
27.825300 3.497900
27.853100 3.448600
27.880900 3.403300
27.908600 3.362100
27.936400 3.347600
27.964200 3.380500
27.992000 3.328200
28.019800 3.389600
28.047500 3.453800
28.075300 3.524000
28.103100 3.595000
28.130900 3.677800
28.158700 3.858200
28.186500 3.876300
28.214200 3.849500
28.242000 3.776700
28.269800 3.710500
28.297600 3.694400
28.325400 3.699800
28.353200 3.730500
28.380900 3.782000
28.408700 3.791800
28.436500 3.798200
28.464300 3.746300
28.492100 3.690600
28.519900 3.659800
28.547600 3.636800
28.575400 3.630700
28.603200 3.614300
28.631000 3.616000
28.658800 3.602200
28.686500 3.623500
28.714300 3.626900
28.742100 3.598400
28.769900 3.530000
28.797700 3.445400
28.825500 3.384300
28.853200 3.355900
28.881000 3.319600
28.908800 3.325900
28.936600 3.306400
28.964400 3.358000
28.992200 3.437000
29.019900 3.518900
29.047700 3.811800
29.075500 3.990300
29.103300 4.117400
29.131100 4.051400
29.158900 3.903700
29.186600 3.786600
29.214400 3.761800
29.242200 3.728700
29.270000 3.683100
29.297800 3.557000
29.325600 3.505200
29.353300 3.440800
29.381100 3.410200
29.408900 3.421100
29.436700 3.441900
29.464500 3.459800
29.492200 3.525200
29.520000 3.624700
29.547800 3.803200
29.575600 3.878700
29.603400 4.252800
29.631200 4.112100
29.658900 4.036500
29.686700 4.029900
29.714500 4.016400
29.742300 3.973800
29.770100 3.918200
29.797900 3.883200
29.825600 3.896400
29.853400 3.906100
29.881200 3.923500
29.909000 3.957200
29.936800 4.035900
29.964600 4.024300
29.992300 4.006800
30.020100 3.957100
30.047900 3.792600
30.075700 3.732500
30.103500 3.758700
30.131200 3.878700
30.159000 3.949700
30.186800 3.976400
30.214600 3.959600
30.242400 4.021100
30.270200 4.145800
30.297900 4.274200
30.325700 4.207600
30.353500 4.137200
30.381300 4.101400
30.409100 4.056900
30.436900 4.060700
30.464600 4.121100
30.492400 4.169900
30.520200 4.302200
30.548000 4.355300
30.575800 4.253500
30.603600 4.171900
30.631300 4.072600
30.659100 3.995500
30.686900 3.990100
30.714700 3.925600
30.742500 3.611900
30.770200 3.559900
30.798000 3.588500
30.825800 3.602200
30.853600 3.644100
30.881400 3.688300
30.909200 3.777000
30.936900 3.885000
30.964700 3.927200
30.992500 3.881800
31.020300 3.807100
31.048100 3.730800
31.075900 3.789200
31.103600 4.016700
31.131400 3.829300
31.159200 3.792700
31.187000 3.773900
31.214800 3.717300
31.242600 3.693900
31.270300 3.672500
31.298100 3.711100
31.325900 3.727900
31.353700 3.790600
31.381500 3.889300
31.409200 3.979500
31.437000 4.026800
31.464800 4.136500
31.492600 4.253900
31.520400 4.343300
31.548200 4.393400
31.575900 4.428800
31.603700 4.384000
31.631500 4.367700
31.659300 4.320600
31.687100 4.335200
31.714900 4.269900
31.742600 4.171300
31.770400 4.065400
31.798200 4.058400
31.826000 4.046600
31.853800 4.082400
31.881600 4.160300
31.909300 4.262600
31.937100 4.375300
31.964900 4.616000
31.992700 4.792000
32.020500 4.749500
32.048200 4.358000
32.076000 4.054100
32.103800 3.939300
32.131600 3.899200
32.159400 3.899400
32.187200 3.951800
32.214900 3.950500
32.242700 3.915900
32.270500 3.832000
32.298300 3.775100
32.326100 3.718000
32.353900 3.696400
32.381600 3.735500
32.409400 3.822700
32.437200 3.934500
32.465000 4.008800
32.492800 4.037700
32.520600 4.010300
32.548300 4.049400
32.576100 4.179000
32.603900 4.275300
32.631700 4.410300
32.659500 4.479300
32.687200 4.487600
32.715000 4.418900
32.742800 4.328900
32.770600 4.249600
32.798400 4.200800
32.826200 4.179800
32.853900 4.164300
32.881700 4.160800
32.909500 4.108300
32.937300 4.061600
32.965100 4.072200
32.992900 4.119300
33.020600 4.137000
33.048400 4.130800
33.076200 4.052100
33.104000 4.071300
33.131800 4.079900
33.159600 4.063200
33.187300 4.081300
33.215100 4.073000
33.242900 4.023700
33.270700 3.950600
33.298500 3.925700
33.326200 3.979300
33.354000 4.065100
33.381800 4.108800
33.409600 4.141200
33.437400 4.087200
33.465200 4.098700
33.492900 4.034500
33.520700 3.959200
33.548500 3.861100
33.576300 3.958600
33.604100 3.997700
33.631900 3.983600
33.659600 3.959000
33.687400 3.950700
33.715200 3.997600
33.743000 4.176000
33.770800 4.261600
33.798600 4.080400
33.826300 4.105300
33.854100 4.090600
33.881900 4.076500
33.909700 4.044500
33.937500 4.025500
33.965300 3.986300
33.993000 3.956100
34.020800 3.928100
34.048600 3.881200
34.076400 3.864500
34.104200 3.866400
34.131900 3.860200
34.159700 4.008600
34.187500 3.908700
34.215300 3.813700
34.243100 3.818300
34.270900 3.808500
34.298600 3.704300
34.326400 3.659100
34.354200 3.632300
34.382000 3.670200
34.409800 3.726200
34.437600 3.758000
34.465300 3.811400
34.493100 3.869200
34.520900 3.916200
34.548700 3.935300
34.576500 3.908800
34.604300 3.973300
34.632000 3.995800
34.659800 4.027400
34.687600 3.981600
34.715400 4.014600
34.743200 4.027400
34.770900 4.091700
34.798700 4.140900
34.826500 4.118200
34.854300 4.168500
34.882100 4.262200
34.909900 4.071300
34.937600 3.936400
34.965400 3.918400
34.993200 3.890200
35.021000 3.924900
35.048800 4.045900
35.076600 3.996500
35.104300 3.973200
35.132100 4.198300
35.159900 4.366700
35.187700 4.418600
35.215500 4.391300
35.243300 4.383700
35.271000 4.358600
35.298800 4.247600
35.326600 4.120700
35.354400 4.059600
35.382200 4.061500
35.409900 4.101100
35.437700 4.219900
35.465500 4.185900
35.493300 4.208600
35.521100 4.026900
35.548900 4.029000
35.576600 4.047100
35.604400 4.131400
35.632200 4.300200
35.660000 4.369000
35.687800 4.377700
35.715600 4.394700
35.743300 4.479700
35.771100 4.452800
35.798900 4.302900
35.826700 4.286200
35.854500 4.283100
35.882300 4.444200
35.910000 4.303700
35.937800 4.250700
35.965600 4.289700
35.993400 4.386800
36.021200 4.355600
36.048900 4.351300
36.076700 4.265600
36.104500 4.169100
36.132300 4.143000
36.160100 4.201800
36.187900 4.259200
36.215600 4.339800
36.243400 4.378600
36.271200 4.381500
36.299000 4.359300
36.326800 4.369800
36.354600 4.510600
36.382300 4.381400
36.410100 4.386400
36.437900 4.378600
36.465700 4.424800
36.493500 4.498300
36.521300 4.587200
36.549000 4.613000
36.576800 4.702900
36.604600 4.658300
36.632400 4.759000
36.660200 4.764700
36.687900 4.679600
36.715700 4.583400
36.743500 4.525100
36.771300 4.264900
36.799100 4.124600
36.826900 4.073500
36.854600 4.055900
36.882400 4.155500
36.910200 4.136700
36.938000 4.156300
36.965800 4.272400
36.993600 4.325200
37.021300 4.478300
37.049100 4.617900
37.076900 4.708100
37.104700 4.804300
37.132500 4.768700
37.160300 4.702000
37.188000 4.707000
37.215800 4.597700
37.243600 4.448400
37.271400 4.333700
37.299200 4.295100
37.326900 4.344100
37.354700 4.375200
37.382500 4.345800
37.410300 4.298000
37.438100 4.284500
37.465900 4.369500
37.493600 4.374100
37.521400 4.353900
37.549200 4.379900
37.577000 4.434200
37.604800 4.426500
37.632600 4.418100
37.660300 4.439400
37.688100 4.436900
37.715900 4.454700
37.743700 4.482800
37.771500 4.496000
37.799300 4.499500
37.827000 4.503100
37.854800 4.542400
37.882600 4.505000
37.910400 4.476600
37.938200 4.411900
37.966000 4.279800
37.993700 4.184200
38.021500 4.144700
38.049300 4.132800
38.077100 4.144100
38.104900 4.156400
38.132600 4.278700
38.160400 4.366700
38.188200 4.396200
38.216000 4.533000
38.243800 4.618900
38.271600 4.656500
38.299300 4.721400
38.327100 4.787400
38.354900 4.831300
38.382700 4.784800
38.410500 4.747100
38.438300 4.713400
38.466000 4.648700
38.493800 4.633400
38.521600 4.634900
38.549400 4.638200
38.577200 4.650300
38.605000 4.672500
38.632700 4.687500
38.660500 4.629200
38.688300 4.520200
38.716100 4.509600
38.743900 4.395700
38.771600 4.302400
38.799400 4.301500
38.827200 4.292000
38.855000 4.262800
38.882800 4.260700
38.910600 4.212500
38.938300 4.194400
38.966100 4.180900
38.993900 4.161300
39.021700 4.162200
39.049500 4.217100
39.077300 4.240300
39.105000 4.247700
39.132800 4.287400
39.160600 4.289300
39.188400 4.318900
39.216200 4.288400
39.244000 4.247900
39.271700 4.197900
39.299500 4.213800
39.327300 4.200000
39.355100 4.153600
39.382900 4.103700
39.410600 4.064900
39.438400 4.030900
39.466200 4.005200
39.494000 4.022500
39.521800 4.045200
39.549600 4.035900
39.577300 3.981500
39.605100 3.948300
39.632900 3.965800
39.660700 4.015800
39.688500 4.067300
39.716300 4.125600
39.744000 4.129600
39.771800 4.103300
39.799600 4.126600
39.827400 4.164900
39.855200 4.151500
39.883000 4.139100
39.910700 4.130400
39.938500 4.112900
39.966300 4.071700
39.994100 4.127200
40.021900 4.071400
40.049600 3.951100
40.077400 3.899500
40.105200 3.876400
40.133000 3.833600
40.160800 3.791100
40.188600 3.753500
40.216300 3.740500
40.244100 3.755400
40.271900 3.784500
40.299700 3.816300
40.327500 3.836500
40.355300 3.871500
40.383000 3.957600
40.410800 4.046200
40.438600 4.046900
40.466400 3.990700
40.494200 3.911200
40.522000 3.854900
40.549700 3.750800
40.577500 3.591900
40.605300 3.480900
40.633100 3.418000
40.660900 3.386400
40.688600 3.386500
40.716400 3.290600
40.744200 3.233900
40.772000 3.214000
40.799800 3.224500
40.827600 3.319100
40.855300 3.369900
40.883100 3.410200
40.910900 3.197400
40.938700 3.115500
40.966500 3.036900
40.994300 2.977100
41.022000 2.920100
41.049800 2.869100
41.077600 2.833700
41.105400 2.796500
41.133200 2.765100
41.161000 2.702700
41.188700 2.614300
41.216500 2.564800
41.244300 2.511600
41.272100 2.473500
41.299900 2.443500
41.327600 2.408300
41.355400 2.330000
41.383200 2.200800
41.411000 2.093100
41.438800 2.031600
41.466600 1.955600
41.494300 1.897200
41.522100 1.844100
41.549900 1.790500
41.577700 1.747700
41.605500 1.719900
41.633300 1.703600
41.661000 1.703500
41.688800 1.713200
41.716600 1.702800
41.744400 1.640900
41.772200 1.610900
41.800000 1.603400
41.827700 1.528900
41.855500 1.458000
41.883300 1.385700
41.911100 1.335100
41.938900 1.308400
41.966600 1.257800
41.994400 1.220500
42.022200 1.193300
42.050000 1.169400
42.077800 1.149700
42.105600 1.130600
42.133300 1.109400
42.161100 1.084700
42.188900 1.059000
42.216700 1.031700
42.244500 1.004600
42.272300 0.977700
42.300000 0.952900
42.327800 0.929600
42.355600 0.908900
42.383400 0.890100
42.411200 0.866600
42.439000 0.841900
42.466700 0.816600
42.494500 0.788100
42.522300 0.758000
42.550100 0.731900
42.577900 0.710600
42.605700 0.693000
42.633400 0.680100
42.661200 0.668800
42.689000 0.654400
42.716800 0.639200
42.744600 0.625300
42.772300 0.603400
42.800100 0.587900
42.827900 0.572600
42.855700 0.555400
42.883500 0.546700
42.911300 0.543500
42.939000 0.538400
42.966800 0.521400
42.994600 0.501500
43.022400 0.469100
43.050200 0.437000
43.078000 0.404500
43.105700 0.394700
43.133500 0.385800
43.161300 0.377100
43.189100 0.369200
43.216900 0.361700
43.244700 0.354600
43.272400 0.347700
43.300200 0.335700
43.328000 0.329600
43.355800 0.322700
43.383600 0.316700
43.411300 0.310600
43.439100 0.305800
43.466900 0.302100
43.494700 0.293700
43.522500 0.281700
43.550300 0.267700
43.578000 0.255400
43.605800 0.242600
43.633600 0.229700
43.661400 0.217800
43.689200 0.205600
43.717000 0.194200
43.744700 0.183800
43.772500 0.173700
43.800300 0.164000
43.828100 0.155300
43.855900 0.147100
43.883700 0.139300
43.911400 0.132000
43.939200 0.125100
43.967000 0.118600
43.994800 0.112700
44.022600 0.107200
44.050300 0.102100
44.078100 0.097700
44.105900 0.093400
44.133700 0.087400
44.161500 0.079400
44.189300 0.069500
44.217000 0.058200
44.244800 0.045700
44.272600 0.032100
44.300400 0.017500
44.328200 0.005800
44.356000 0.000100
44.383700 0.000000
44.411500 0.000000
44.439300 0.000000
44.467100 0.000000
44.494900 0.000000
44.522700 0.000000
44.550400 0.000000
44.578200 0.000000
44.606000 0.000000
44.633800 0.000000
44.661600 0.000000
44.689300 0.000000
44.717100 0.000000
44.744900 0.000000
44.772700 0.000000
44.800500 0.000000
44.828300 0.000000
44.856000 0.000000
44.883800 0.000000
44.911600 0.000000
44.939400 0.000000
44.967200 0.000000
44.995000 0.000000
45.022700 0.000000
45.050500 0.000000
45.078300 0.000000
45.106100 0.000000
45.133900 0.000000
45.161700 0.000000
45.189400 0.000000
45.217200 0.000000
45.245000 0.000000
45.272800 0.000000
45.300600 0.000000
45.328300 0.000000
45.356100 0.000000
45.383900 0.000000
45.411700 0.000000
45.439500 0.000000
45.467300 0.000000
45.495000 0.000000
45.522800 0.000000
45.550600 0.000000
45.578400 0.000000
45.606200 0.000000
45.634000 0.000000
45.661700 0.000000
45.689500 0.000000
45.717300 0.000000
45.745100 0.000000
45.772900 0.000000
45.800700 0.000000
45.828400 0.000000
45.856200 0.000000
45.884000 0.000000
45.911800 0.000000
45.939600 0.000000
45.967300 0.000000
45.995100 0.000000
46.022900 0.000000
46.050700 0.000000
46.078500 0.000000
46.106300 0.000000
46.134000 0.000000
46.161800 0.000000
46.189600 0.000000
46.217400 0.000000
46.245200 0.000000
46.273000 0.000000
46.300700 0.000000
46.328500 0.000000
46.356300 0.000000
46.384100 0.000000
46.411900 0.000000
46.439700 0.000000
46.467400 0.000000
46.495200 0.000000
46.523000 0.000000
46.550800 0.000000
46.578600 0.000000
46.606300 0.000000
46.634100 0.000000
46.661900 0.000000
46.689700 0.000000
46.717500 0.000000
46.745300 0.000000
46.773000 0.000000
46.800800 0.000000
46.828600 0.000000
46.856400 0.000000
46.884200 0.000000
e
