set title 'mp-974558 - Density of States'
set xlabel 'Energy (eV)'
set ylabel 'DOS (states/eV)'
set grid
set xrange [-10:10]
set yrange [0:4.972]
set xzeroaxis lt -1
set terminal png size 800,600
set output 'mp-974558_dos_gnuplot.png'
plot '-' using 1:2 with lines title 'DOS'
-28.916700 0.000000
-28.866900 0.000000
-28.817000 0.000000
-28.767200 0.000000
-28.717400 0.000000
-28.667600 0.000000
-28.617800 0.000000
-28.567900 0.000000
-28.518100 0.000000
-28.468300 0.000000
-28.418500 0.000000
-28.368600 0.000000
-28.318800 0.000000
-28.269000 0.000000
-28.219200 0.000000
-28.169300 0.000000
-28.119500 0.000000
-28.069700 0.000000
-28.019900 0.000000
-27.970000 0.000000
-27.920200 0.000000
-27.870400 0.000000
-27.820600 0.000000
-27.770800 0.000000
-27.720900 0.000000
-27.671100 0.000000
-27.621300 0.000000
-27.571500 0.000000
-27.521600 0.000000
-27.471800 0.000000
-27.422000 0.000000
-27.372200 0.000000
-27.322300 0.000000
-27.272500 0.000000
-27.222700 0.000000
-27.172900 0.000000
-27.123100 0.000000
-27.073200 0.000000
-27.023400 0.000000
-26.973600 0.000000
-26.923800 0.000000
-26.873900 0.000000
-26.824100 0.000000
-26.774300 0.000000
-26.724500 0.000000
-26.674600 0.000000
-26.624800 0.000000
-26.575000 0.000000
-26.525200 0.000000
-26.475400 0.000000
-26.425500 0.000000
-26.375700 0.000000
-26.325900 0.000000
-26.276100 0.000000
-26.226200 0.000000
-26.176400 0.000000
-26.126600 0.000000
-26.076800 0.000000
-26.026900 0.000000
-25.977100 0.000000
-25.927300 0.000000
-25.877500 0.000000
-25.827700 0.000000
-25.777800 0.000000
-25.728000 0.000000
-25.678200 0.000000
-25.628400 0.000000
-25.578500 0.000000
-25.528700 0.000000
-25.478900 0.000000
-25.429100 0.000000
-25.379200 0.000000
-25.329400 0.000000
-25.279600 0.000000
-25.229800 0.000000
-25.180000 0.000000
-25.130100 0.000000
-25.080300 0.000000
-25.030500 0.000000
-24.980700 0.000000
-24.930800 0.000000
-24.881000 0.000000
-24.831200 0.000000
-24.781400 0.000000
-24.731500 0.000000
-24.681700 0.000000
-24.631900 0.000000
-24.582100 0.000000
-24.532300 0.000000
-24.482400 0.000000
-24.432600 0.000000
-24.382800 115.731700
-24.333000 0.000000
-24.283100 0.000000
-24.233300 0.000000
-24.183500 0.000000
-24.133700 0.000000
-24.083800 0.000000
-24.034000 0.000000
-23.984200 0.000000
-23.934400 0.000000
-23.884600 0.000000
-23.834700 0.000000
-23.784900 0.000000
-23.735100 0.000000
-23.685300 0.000000
-23.635400 0.000000
-23.585600 0.000000
-23.535800 0.000000
-23.486000 0.000000
-23.436100 0.000000
-23.386300 0.000000
-23.336500 0.000000
-23.286700 0.000000
-23.236900 0.000000
-23.187000 0.000000
-23.137200 0.000000
-23.087400 0.000000
-23.037600 0.000000
-22.987700 0.000000
-22.937900 0.000000
-22.888100 0.000000
-22.838300 0.000000
-22.788400 0.000000
-22.738600 0.000000
-22.688800 0.000000
-22.639000 0.000000
-22.589200 0.000000
-22.539300 0.000000
-22.489500 0.000000
-22.439700 0.000000
-22.389900 0.000000
-22.340000 0.000000
-22.290200 0.000000
-22.240400 0.000000
-22.190600 0.000000
-22.140700 0.000000
-22.090900 0.000000
-22.041100 0.000000
-21.991300 0.000000
-21.941500 0.000000
-21.891600 0.000000
-21.841800 0.000000
-21.792000 0.000000
-21.742200 0.000000
-21.692300 0.000000
-21.642500 0.000000
-21.592700 0.000000
-21.542900 0.000000
-21.493000 0.000000
-21.443200 0.000000
-21.393400 0.000000
-21.343600 0.000000
-21.293800 0.000000
-21.243900 0.000000
-21.194100 0.000000
-21.144300 0.000000
-21.094500 0.000000
-21.044600 0.000000
-20.994800 0.000000
-20.945000 0.000000
-20.895200 0.000000
-20.845300 0.000000
-20.795500 0.000000
-20.745700 0.000000
-20.695900 0.000000
-20.646100 0.000000
-20.596200 0.000000
-20.546400 0.000000
-20.496600 0.000000
-20.446800 0.000000
-20.396900 0.000000
-20.347100 0.000000
-20.297300 0.000000
-20.247500 0.000000
-20.197600 0.000000
-20.147800 0.000000
-20.098000 0.000000
-20.048200 0.000000
-19.998400 0.000000
-19.948500 0.000000
-19.898700 0.000000
-19.848900 0.000000
-19.799100 0.000000
-19.749200 0.000000
-19.699400 0.000000
-19.649600 0.000000
-19.599800 0.000000
-19.549900 0.000000
-19.500100 0.000000
-19.450300 0.000000
-19.400500 0.000000
-19.350700 0.000000
-19.300800 0.000000
-19.251000 0.000000
-19.201200 0.000000
-19.151400 0.000000
-19.101500 0.000000
-19.051700 0.000000
-19.001900 0.000000
-18.952100 0.000000
-18.902200 0.000000
-18.852400 0.000000
-18.802600 0.000000
-18.752800 0.000000
-18.703000 0.000000
-18.653100 0.000000
-18.603300 0.000000
-18.553500 0.000000
-18.503700 0.000000
-18.453800 0.000000
-18.404000 0.000000
-18.354200 0.000000
-18.304400 0.000000
-18.254500 0.000000
-18.204700 0.000000
-18.154900 0.000000
-18.105100 0.000000
-18.055300 0.000000
-18.005400 0.000000
-17.955600 0.000000
-17.905800 0.000000
-17.856000 0.000000
-17.806100 0.000000
-17.756300 0.000000
-17.706500 0.000000
-17.656700 0.000000
-17.606800 0.000000
-17.557000 0.000000
-17.507200 0.000000
-17.457400 0.000000
-17.407600 0.000000
-17.357700 0.000000
-17.307900 0.000000
-17.258100 0.000000
-17.208300 0.000000
-17.158400 0.000000
-17.108600 0.000000
-17.058800 0.000000
-17.009000 0.000000
-16.959100 0.000000
-16.909300 0.000000
-16.859500 0.000000
-16.809700 0.000000
-16.759900 0.000000
-16.710000 0.000000
-16.660200 0.000000
-16.610400 0.000000
-16.560600 0.000000
-16.510700 0.000000
-16.460900 0.000000
-16.411100 0.000000
-16.361300 0.000000
-16.311400 0.000000
-16.261600 0.000000
-16.211800 0.000000
-16.162000 0.000000
-16.112200 0.000000
-16.062300 0.000000
-16.012500 0.000000
-15.962700 0.000000
-15.912900 0.000000
-15.863000 0.000000
-15.813200 0.000000
-15.763400 0.000000
-15.713600 0.000000
-15.663700 0.000000
-15.613900 0.000000
-15.564100 0.000000
-15.514300 0.000000
-15.464500 0.000000
-15.414600 0.000000
-15.364800 0.000000
-15.315000 0.000000
-15.265200 0.000000
-15.215300 0.000000
-15.165500 0.000000
-15.115700 0.000000
-15.065900 0.000000
-15.016000 0.000000
-14.966200 0.000000
-14.916400 0.000000
-14.866600 0.000000
-14.816800 0.000000
-14.766900 0.000000
-14.717100 0.000000
-14.667300 0.000000
-14.617500 0.000000
-14.567600 0.000000
-14.517800 0.000000
-14.468000 0.000000
-14.418200 0.000000
-14.368300 0.000000
-14.318500 0.000000
-14.268700 0.000000
-14.218900 0.000000
-14.169100 0.000000
-14.119200 0.000000
-14.069400 0.000000
-14.019600 0.000000
-13.969800 0.000000
-13.919900 0.000000
-13.870100 0.000000
-13.820300 0.000000
-13.770500 0.000000
-13.720600 0.000000
-13.670800 0.000000
-13.621000 0.000000
-13.571200 0.000000
-13.521400 0.000000
-13.471500 0.000000
-13.421700 0.000000
-13.371900 0.000000
-13.322100 0.000000
-13.272200 0.000000
-13.222400 0.000000
-13.172600 0.000000
-13.122800 0.000000
-13.072900 0.000000
-13.023100 0.000000
-12.973300 0.000000
-12.923500 0.000000
-12.873700 0.000000
-12.823800 0.000000
-12.774000 0.000000
-12.724200 0.000000
-12.674400 0.000000
-12.624500 0.000000
-12.574700 0.000000
-12.524900 0.000000
-12.475100 0.000000
-12.425200 0.000000
-12.375400 0.000000
-12.325600 0.000000
-12.275800 0.000000
-12.226000 0.000000
-12.176100 0.000000
-12.126300 0.000000
-12.076500 0.000000
-12.026700 0.000000
-11.976800 0.000000
-11.927000 0.000000
-11.877200 0.000000
-11.827400 0.000000
-11.777500 0.000000
-11.727700 0.000000
-11.677900 0.000000
-11.628100 0.000000
-11.578300 0.000000
-11.528400 0.000000
-11.478600 0.000000
-11.428800 0.000000
-11.379000 0.000000
-11.329100 0.000000
-11.279300 0.000000
-11.229500 0.000000
-11.179700 0.000000
-11.129800 0.000000
-11.080000 0.000000
-11.030200 0.000000
-10.980400 0.000000
-10.930600 0.000000
-10.880700 0.000000
-10.830900 0.000000
-10.781100 0.000000
-10.731300 0.000000
-10.681400 0.000000
-10.631600 0.000000
-10.581800 0.000000
-10.532000 0.000000
-10.482100 0.000000
-10.432300 0.000000
-10.382500 0.000000
-10.332700 0.000000
-10.282900 0.000000
-10.233000 0.000000
-10.183200 0.000000
-10.133400 0.000000
-10.083600 0.000000
-10.033700 0.000000
-9.983900 0.000000
-9.934100 0.000000
-9.884300 0.000000
-9.834400 0.000000
-9.784600 0.000000
-9.734800 0.000000
-9.685000 0.000000
-9.635200 0.000000
-9.585300 0.000000
-9.535500 0.000000
-9.485700 0.000000
-9.435900 0.000000
-9.386000 0.000000
-9.336200 0.000000
-9.286400 0.000000
-9.236600 0.000000
-9.186700 0.000000
-9.136900 0.000000
-9.087100 0.000000
-9.037300 0.000000
-8.987500 0.000000
-8.937600 0.000000
-8.887800 0.000000
-8.838000 0.000000
-8.788200 0.000000
-8.738300 0.000000
-8.688500 0.000000
-8.638700 0.000000
-8.588900 0.000000
-8.539000 0.000000
-8.489200 0.000000
-8.439400 0.000000
-8.389600 0.000000
-8.339800 0.000000
-8.289900 0.000000
-8.240100 0.000000
-8.190300 0.000000
-8.140500 0.000000
-8.090600 0.000000
-8.040800 0.000000
-7.991000 0.000000
-7.941200 0.000000
-7.891300 0.000000
-7.841500 0.000000
-7.791700 0.000000
-7.741900 0.000000
-7.692100 0.000000
-7.642200 0.000000
-7.592400 0.000000
-7.542600 0.000000
-7.492800 0.000000
-7.442900 0.000000
-7.393100 0.000000
-7.343300 0.000000
-7.293500 0.000000
-7.243600 0.000000
-7.193800 0.000000
-7.144000 0.000000
-7.094200 0.000000
-7.044400 0.000000
-6.994500 0.000000
-6.944700 0.000000
-6.894900 0.000000
-6.845100 0.000000
-6.795200 0.000000
-6.745400 0.000000
-6.695600 0.000000
-6.645800 0.000000
-6.595900 0.000000
-6.546100 0.000000
-6.496300 0.000000
-6.446500 0.000000
-6.396700 0.000000
-6.346800 0.000000
-6.297000 0.000000
-6.247200 0.000000
-6.197400 0.000000
-6.147500 0.000000
-6.097700 0.000000
-6.047900 0.000000
-5.998100 0.000000
-5.948200 0.000000
-5.898400 0.000000
-5.848600 0.000000
-5.798800 0.000000
-5.749000 0.000000
-5.699100 0.000000
-5.649300 0.000000
-5.599500 0.000000
-5.549700 0.000000
-5.499800 0.000000
-5.450000 0.000000
-5.400200 0.000000
-5.350400 0.000000
-5.300500 0.000000
-5.250700 0.000000
-5.200900 0.000000
-5.151100 0.000000
-5.101200 0.000000
-5.051400 0.000000
-5.001600 0.000000
-4.951800 0.000000
-4.902000 0.000000
-4.852100 0.000000
-4.802300 0.000000
-4.752500 0.000000
-4.702700 0.000000
-4.652800 0.000000
-4.603000 0.000000
-4.553200 0.000000
-4.503400 0.000000
-4.453500 0.000000
-4.403700 0.000000
-4.353900 0.000000
-4.304100 0.000000
-4.254300 0.000000
-4.204400 0.000000
-4.154600 0.000000
-4.104800 0.000000
-4.055000 0.000000
-4.005100 0.000000
-3.955300 0.000000
-3.905500 0.000000
-3.855700 0.000000
-3.805800 0.000000
-3.756000 0.000000
-3.706200 0.000000
-3.656400 0.000000
-3.606600 0.000000
-3.556700 0.000000
-3.506900 0.000000
-3.457100 0.000000
-3.407300 0.000000
-3.357400 0.000000
-3.307600 0.000000
-3.257800 0.000000
-3.208000 0.000000
-3.158100 0.000000
-3.108300 0.000000
-3.058500 0.000000
-3.008700 0.000000
-2.958900 0.000000
-2.909000 0.000000
-2.859200 0.000000
-2.809400 0.000000
-2.759600 0.016400
-2.709700 0.062200
-2.659900 0.074300
-2.610100 0.094400
-2.560300 0.112500
-2.510400 0.118000
-2.460600 0.128800
-2.410800 0.140700
-2.361000 0.152900
-2.311200 0.163100
-2.261300 0.169600
-2.211500 0.176600
-2.161700 0.183500
-2.111900 0.191600
-2.062000 0.200500
-2.012200 0.209600
-1.962400 0.217500
-1.912600 0.221700
-1.862700 0.227600
-1.812900 0.233600
-1.763100 0.239700
-1.713300 0.245900
-1.663500 0.252700
-1.613600 0.259600
-1.563800 0.266700
-1.514000 0.272400
-1.464200 0.277300
-1.414300 0.281900
-1.364500 0.286600
-1.314700 0.291800
-1.264900 0.297300
-1.215000 0.302800
-1.165200 0.308300
-1.115400 0.313800
-1.065600 0.319600
-1.015800 0.325600
-0.965900 0.330500
-0.916100 0.334400
-0.866300 0.338900
-0.816500 0.343300
-0.766600 0.347600
-0.716800 0.352200
-0.667000 0.357000
-0.617200 0.361900
-0.567300 0.366800
-0.517500 0.371900
-0.467700 0.376900
-0.417900 0.382000
-0.368100 0.387100
-0.318200 0.391000
-0.268400 0.395000
-0.218600 0.398900
-0.168800 0.403100
-0.118900 0.407500
-0.069100 0.411900
-0.019300 0.416200
0.030500 0.420600
0.080400 0.425200
0.130200 0.429900
0.180000 0.434700
0.229800 0.439500
0.279600 0.444500
0.329500 0.449500
0.379300 0.453900
0.429100 0.458200
0.478900 0.462900
0.528800 0.467800
0.578600 0.473300
0.628400 0.479600
0.678200 0.486900
0.728100 0.495100
0.777900 0.507800
0.827700 0.521300
0.877500 0.532900
0.927300 0.544500
0.977200 0.597800
1.027000 0.608500
1.076800 0.569400
1.126600 0.541500
1.176500 0.528100
1.226300 0.518100
1.276100 0.517800
1.325900 0.555500
1.375800 0.516900
1.425600 0.495800
1.475400 0.552600
1.525200 0.485400
1.575000 0.469300
1.624900 0.456200
1.674700 0.462000
1.724500 0.477600
1.774300 0.490900
1.824200 0.502100
1.874000 0.515400
1.923800 0.544500
1.973600 0.589400
2.023500 0.613500
2.073300 0.599300
2.123100 0.577900
2.172900 0.586100
2.222700 0.596400
2.272600 0.605600
2.322400 0.609000
2.372200 0.615900
2.422000 0.631400
2.471900 0.636200
2.521700 0.593100
2.571500 0.571500
2.621300 0.563100
2.671200 0.557000
2.721000 0.549700
2.770800 0.528000
2.820600 0.507800
2.870400 0.476900
2.920300 0.472200
2.970100 0.486700
3.019900 0.506700
3.069700 0.679400
3.119600 0.799700
3.169400 0.732900
3.219200 0.729100
3.269000 0.745600
3.318900 0.757700
3.368700 0.770200
3.418500 0.842200
3.468300 0.782700
3.518100 0.726500
3.568000 0.684800
3.617800 0.647900
3.667600 0.627700
3.717400 0.620100
3.767300 0.590300
3.817100 0.564500
3.866900 0.542700
3.916700 0.524700
3.966600 0.511000
4.016400 0.569400
4.066200 0.578000
4.116000 0.611400
4.165800 0.656900
4.215700 0.696600
4.265500 0.754500
4.315300 0.751600
4.365100 0.755200
4.415000 0.711600
4.464800 0.717900
4.514600 0.722300
4.564400 0.716500
4.614300 0.718700
4.664100 0.728500
4.713900 0.727500
4.763700 0.713400
4.813500 0.712400
4.863400 0.716600
4.913200 0.726400
4.963000 0.740500
5.012800 0.754600
5.062700 0.775600
5.112500 0.801400
5.162300 0.830500
5.212100 0.864900
5.262000 0.928400
5.311800 0.983800
5.361600 1.059300
5.411400 1.181200
5.461200 1.536400
5.511100 1.865900
5.560900 2.551500
5.610700 4.519600
5.660500 2.602900
5.710400 1.859200
5.760200 1.527700
5.810000 1.277300
5.859800 1.138900
5.909700 1.063900
5.959500 1.003400
6.009300 0.950600
6.059100 0.917100
6.108900 0.896000
6.158800 0.883300
6.208600 0.868700
6.258400 0.845100
6.308200 0.839900
6.358100 0.824500
6.407900 0.815300
6.457700 0.807000
6.507500 0.796400
6.557400 0.794400
6.607200 0.781700
6.657000 0.769700
6.706800 0.763200
6.756600 0.759500
6.806500 0.758600
6.856300 0.760000
6.906100 0.763200
6.955900 0.767900
7.005800 0.771600
7.055600 0.781200
7.105400 0.791900
7.155200 0.810000
7.205100 0.820700
7.254900 0.830300
7.304700 0.834400
7.354500 0.838700
7.404300 0.841300
7.454200 0.850800
7.504000 0.871400
7.553800 0.879300
7.603600 0.889000
7.653500 0.901000
7.703300 0.909800
7.753100 0.921400
7.802900 0.936100
7.852800 0.935300
7.902600 0.960800
7.952400 0.916900
8.002200 0.916400
8.052000 0.921900
8.101900 0.929000
8.151700 0.939200
8.201500 0.922300
8.251300 0.912600
8.301200 0.908800
8.351000 0.906000
8.400800 0.900800
8.450600 0.894700
8.500500 0.889400
8.550300 0.884700
8.600100 0.880100
8.649900 0.875400
8.699700 0.873900
8.749600 0.876100
8.799400 0.879500
8.849200 0.885900
8.899000 0.893100
8.948900 0.899500
8.998700 0.906800
9.048500 0.911100
9.098300 0.908700
9.148200 0.905700
9.198000 0.902300
9.247800 0.898100
9.297600 0.893200
9.347400 0.887700
9.397300 0.881600
9.447100 0.876300
9.496900 0.874200
9.546700 0.874700
9.596600 0.879700
9.646400 0.884200
9.696200 0.888700
9.746000 0.893000
9.795900 0.896900
9.845700 0.902700
9.895500 0.905400
9.945300 0.906700
9.995100 0.906400
10.045000 0.906200
10.094800 0.905800
10.144600 0.905400
10.194400 0.902900
10.244300 0.905400
10.294100 0.910900
10.343900 0.917000
10.393700 0.923800
10.443600 0.931100
10.493400 0.934900
10.543200 0.937100
10.593000 0.937800
10.642800 0.939000
10.692700 0.941200
10.742500 0.941500
10.792300 0.910800
10.842100 0.910100
10.892000 0.909900
10.941800 0.910500
10.991600 0.912400
11.041400 0.915700
11.091300 0.920600
11.141100 0.928500
11.190900 0.938400
11.240700 0.954900
11.290500 0.971100
11.340400 0.990500
11.390200 1.017300
11.440000 1.069600
11.489800 1.126700
11.539700 1.163800
11.589500 1.187400
11.639300 1.202300
11.689100 1.201100
11.739000 1.168700
11.788800 1.113000
11.838600 1.036000
11.888400 0.983600
11.938200 0.983700
11.988100 0.968400
12.037900 0.964100
12.087700 0.953800
12.137500 0.939400
12.187400 0.926000
12.237200 0.972000
12.287000 0.981600
12.336800 0.962000
12.386700 0.910200
12.436500 0.834200
12.486300 0.815800
12.536100 0.805800
12.585900 0.789000
12.635800 0.812800
12.685600 0.846900
12.735400 0.896400
12.785200 0.956600
12.835100 1.016400
12.884900 1.079200
12.934700 1.131400
12.984500 1.116500
13.034400 1.055300
13.084200 1.074400
13.134000 1.089400
13.183800 1.128900
13.233600 1.169000
13.283500 1.203700
13.333300 1.237000
13.383100 1.270400
13.432900 1.287300
13.482800 1.271600
13.532600 1.336600
13.582400 1.470600
13.632200 1.431700
13.682100 1.228000
13.731900 1.081900
13.781700 1.015100
13.831500 0.943700
13.881300 0.882600
13.931200 0.898800
13.981000 0.927500
14.030800 0.961100
14.080600 0.996500
14.130500 1.025400
14.180300 1.056400
14.230100 1.090600
14.279900 1.004600
14.329800 0.954200
14.379600 0.962000
14.429400 1.060700
14.479200 1.065400
14.529000 0.987300
14.578900 0.990900
14.628700 1.015800
14.678500 1.047200
14.728300 1.112400
14.778200 1.238400
14.828000 1.289900
14.877800 1.330900
14.927600 1.384100
14.977500 1.328000
15.027300 1.287000
15.077100 1.283500
15.126900 1.258100
15.176700 1.250400
15.226600 1.240800
15.276400 1.227500
15.326200 1.216700
15.376000 1.209900
15.425900 1.218800
15.475700 1.237700
15.525500 1.249400
15.575300 1.246000
15.625200 1.224700
15.675000 1.177700
15.724800 1.167700
15.774600 1.184700
15.824400 1.219300
15.874300 1.269600
15.924100 1.315200
15.973900 1.320100
16.023700 1.263200
16.073600 1.213000
16.123400 1.209600
16.173200 1.204300
16.223000 1.187600
16.272900 1.154700
16.322700 1.107600
16.372500 1.067800
16.422300 1.038800
16.472100 1.014600
16.522000 1.015700
16.571800 1.042200
16.621600 1.063100
16.671400 1.099600
16.721300 1.133400
16.771100 1.154800
16.820900 1.177400
16.870700 1.251900
16.920600 1.337700
16.970400 1.371700
17.020200 1.396900
17.070000 1.382200
17.119900 1.367500
17.169700 1.344100
17.219500 1.315800
17.269300 1.294200
17.319100 1.279000
17.369000 1.272700
17.418800 1.257000
17.468600 1.239500
17.518400 1.234700
17.568300 1.260500
17.618100 1.292300
17.667900 1.321000
17.717700 1.347200
17.767600 1.360300
17.817400 1.418600
17.867200 1.335000
17.917000 1.285600
17.966800 1.243400
18.016700 1.208300
18.066500 1.180400
18.116300 1.160800
18.166100 1.141400
18.216000 1.114700
18.265800 1.086900
18.315600 1.082300
18.365400 1.084800
18.415300 1.095100
18.465100 1.126200
18.514900 1.148900
18.564700 1.172600
18.614500 1.185500
18.664400 1.209000
18.714200 1.296200
18.764000 1.378200
18.813800 1.365800
18.863700 1.357500
18.913500 1.350200
18.963300 1.354000
19.013100 1.372600
19.063000 1.447800
19.112800 1.373700
19.162600 1.380600
19.212400 1.397700
19.262200 1.424500
19.312100 1.420800
19.361900 1.426800
19.411700 1.430900
19.461500 1.445600
19.511400 1.451400
19.561200 1.450700
19.611000 1.520900
19.660800 1.467800
19.710700 1.441600
19.760500 1.380500
19.810300 1.307800
19.860100 1.260900
19.909900 1.221500
19.959800 1.209000
20.009600 1.178500
20.059400 1.139200
20.109200 1.126600
20.159100 1.123000
20.208900 1.078100
20.258700 1.066000
20.308500 1.055700
20.358400 1.047400
20.408200 1.042400
20.458000 1.039600
20.507800 1.031300
20.557600 1.023000
20.607500 1.025600
20.657300 1.028600
20.707100 1.033300
20.756900 1.039900
20.806800 1.027800
20.856600 1.066400
20.906400 1.088400
20.956200 1.254800
21.006100 1.282500
21.055900 1.298900
21.105700 1.246900
21.155500 1.176800
21.205300 1.157900
21.255200 1.149500
21.305000 1.144400
21.354800 1.123200
21.404600 1.114300
21.454500 1.084300
21.504300 1.044400
21.554100 1.028000
21.603900 1.011000
21.653800 1.018400
21.703600 0.964700
21.753400 0.957600
21.803200 0.953100
21.853000 0.954500
21.902900 0.957200
21.952700 0.961200
22.002500 0.977800
22.052300 1.038600
22.102200 1.099700
22.152000 1.156800
22.201800 1.127600
22.251600 1.071000
22.301500 1.068400
22.351300 1.059600
22.401100 1.054900
22.450900 1.036500
22.500700 1.020700
22.550600 1.020100
22.600400 1.011900
22.650200 1.000500
22.700000 0.990700
22.749900 0.989200
22.799700 1.018600
22.849500 1.224400
22.899300 1.444800
22.949200 1.220300
22.999000 1.223300
23.048800 1.229100
23.098600 1.262100
23.148400 1.310500
23.198300 1.359900
23.248100 1.403500
23.297900 1.438900
23.347700 1.471400
23.397600 1.476200
23.447400 1.441200
23.497200 1.406400
23.547000 1.379200
23.596900 1.379900
23.646700 1.373000
23.696500 1.372300
23.746300 1.391200
23.796100 1.361400
23.846000 1.355700
23.895800 1.324300
23.945600 1.266300
23.995400 1.196900
24.045300 1.175400
24.095100 1.195800
24.144900 1.224200
24.194700 1.261800
24.244600 1.055900
24.294400 1.019200
24.344200 1.015800
24.394000 1.218200
24.443800 1.614200
24.493700 1.398000
24.543500 1.341700
24.593300 1.337900
24.643100 1.352500
24.693000 1.394900
24.742800 1.436400
24.792600 1.370000
24.842400 1.329500
24.892300 1.358000
24.942100 1.496000
24.991900 1.737700
25.041700 1.920300
25.091500 1.988200
25.141400 2.080500
25.191200 2.026200
25.241000 1.826800
25.290800 1.711400
25.340700 1.576200
25.390500 1.469800
25.440300 1.336400
25.490100 1.196600
25.540000 1.147800
25.589800 1.127700
25.639600 1.116900
25.689400 1.137300
25.739200 1.115600
25.789100 1.098500
25.838900 1.077200
25.888700 1.078700
25.938500 1.101000
25.988400 1.159300
26.038200 1.281100
26.088000 1.382400
26.137800 1.417200
26.187700 1.501000
26.237500 1.566900
26.287300 1.554500
26.337100 1.540500
26.386900 1.613500
26.436800 1.585500
26.486600 1.572900
26.536400 1.736800
26.586200 1.796700
26.636100 1.715600
26.685900 1.640600
26.735700 1.593400
26.785500 1.567200
26.835400 1.549100
26.885200 1.534500
26.935000 1.524000
26.984800 1.516300
27.034600 1.505200
27.084500 1.494000
27.134300 1.488900
27.184100 1.504800
27.233900 1.562800
27.283800 1.658900
27.333600 1.784900
27.383400 1.738900
27.433200 1.694600
27.483100 1.650000
27.532900 1.593800
27.582700 1.493500
27.632500 1.405300
27.682300 1.386700
27.732200 1.416300
27.782000 1.459400
27.831800 1.486900
27.881600 1.433100
27.931500 1.418700
27.981300 1.424400
28.031100 1.441700
28.080900 1.461700
28.130800 1.471000
28.180600 1.457100
28.230400 1.445600
28.280200 1.436700
28.330000 1.458700
28.379900 1.469200
28.429700 1.444100
28.479500 2.293700
28.529300 1.921100
28.579200 1.896400
28.629000 1.834100
28.678800 1.759500
28.728600 1.564600
28.778500 1.460000
28.828300 1.376000
28.878100 1.316100
28.927900 1.272000
28.977700 1.241200
29.027600 1.275700
29.077400 1.264000
29.127200 1.271100
29.177000 1.279600
29.226900 1.284400
29.276700 1.276200
29.326500 1.273200
29.376300 1.223900
29.426200 1.214100
29.476000 1.195900
29.525800 1.137600
29.575600 1.121900
29.625400 1.135200
29.675300 1.208900
29.725100 1.244900
29.774900 1.294200
29.824700 1.341300
29.874600 1.412500
29.924400 1.462700
29.974200 1.468700
30.024000 1.480100
30.073900 1.487900
30.123700 1.489700
30.173500 1.496500
30.223300 1.456600
30.273100 1.413400
30.323000 1.394200
30.372800 1.381200
30.422600 1.398400
30.472400 1.418200
30.522300 1.476800
30.572100 1.715500
30.621900 1.796900
30.671700 1.863900
30.721600 1.891400
30.771400 1.823100
30.821200 1.766800
30.871000 1.773500
30.920800 1.698600
30.970700 1.651800
31.020500 1.586500
31.070300 1.571100
31.120100 1.649900
31.170000 1.616200
31.219800 1.454700
31.269600 1.380400
31.319400 1.335900
31.369300 1.355800
31.419100 1.384100
31.468900 1.443800
31.518700 1.499900
31.568500 1.543300
31.618400 1.543100
31.668200 1.522400
31.718000 1.498000
31.767800 1.473900
31.817700 1.481500
31.867500 1.540000
31.917300 1.703900
31.967100 1.545300
32.017000 1.442900
32.066800 1.413100
32.116600 1.446000
32.166400 1.454000
32.216200 1.514100
32.266100 1.572200
32.315900 1.616400
32.365700 1.655700
32.415500 1.686000
32.465400 1.722000
32.515200 1.721200
32.565000 1.692600
32.614800 1.589600
32.664700 1.396500
32.714500 1.273600
32.764300 1.240700
32.814100 1.248700
32.863900 1.284500
32.913800 1.334800
32.963600 1.334700
33.013400 1.350900
33.063200 1.370600
33.113100 1.388200
33.162900 1.410100
33.212700 1.387200
33.262500 1.409700
33.312400 1.435300
33.362200 1.504500
33.412000 1.595100
33.461800 1.707500
33.511600 1.539600
33.561500 1.515600
33.611300 1.518700
33.661100 1.532000
33.710900 1.548900
33.760800 1.580400
33.810600 1.620900
33.860400 1.664200
33.910200 1.706600
33.960100 1.681800
34.009900 1.641600
34.059700 1.707800
34.109500 1.675500
34.159300 1.511200
34.209200 1.449600
34.259000 1.401000
34.308800 1.335000
34.358600 1.349300
34.408500 1.345000
34.458300 1.368500
34.508100 1.394400
34.557900 1.417800
34.607800 1.427600
34.657600 1.437600
34.707400 1.361500
34.757200 1.411400
34.807000 1.442900
34.856900 1.462900
34.906700 1.473100
34.956500 1.533500
35.006300 1.594500
35.056200 1.632900
35.106000 1.717300
35.155800 1.761300
35.205600 1.847900
35.255500 1.924400
35.305300 1.941500
35.355100 1.942200
35.404900 1.898200
35.454700 1.754300
35.504600 1.722900
35.554400 1.760200
35.604200 1.809800
35.654000 1.779500
35.703900 1.796600
35.753700 1.823100
35.803500 1.835400
35.853300 1.830500
35.903200 1.860900
35.953000 1.923800
36.002800 1.997400
36.052600 2.086400
36.102400 2.218500
36.152300 2.327800
36.202100 2.132600
36.251900 2.029900
36.301700 1.965200
36.351600 1.819700
36.401400 1.694200
36.451200 1.623100
36.501000 1.585600
36.550900 1.553500
36.600700 1.552200
36.650500 1.611400
36.700300 1.830900
36.750100 1.867800
36.800000 1.861300
36.849800 1.866800
36.899600 1.807100
36.949400 1.744900
36.999300 1.679900
37.049100 1.639100
37.098900 1.587400
37.148700 1.565700
37.198600 1.582100
37.248400 1.622900
37.298200 1.653800
37.348000 1.568000
37.397800 1.515100
37.447700 1.479100
37.497500 1.462700
37.547300 1.456500
37.597100 1.456400
37.647000 1.465500
37.696800 1.489200
37.746600 1.536200
37.796400 1.588600
37.846300 1.765400
37.896100 1.763800
37.945900 1.761100
37.995700 1.790600
38.045500 1.778400
38.095400 1.733400
38.145200 1.722600
38.195000 1.789300
38.244800 1.886900
38.294700 1.914700
38.344500 1.891600
38.394300 1.888500
38.444100 1.905000
38.494000 2.031500
38.543800 2.100500
38.593600 2.096000
38.643400 2.103500
38.693200 1.915000
38.743100 1.793100
38.792900 1.717500
38.842700 1.697700
38.892500 1.723700
38.942400 1.775800
38.992200 1.829200
39.042000 1.856000
39.091800 1.830100
39.141700 1.781100
39.191500 1.802400
39.241300 1.673400
39.291100 1.680800
39.341000 1.685100
39.390800 1.676600
39.440600 1.649400
39.490400 1.611300
39.540200 1.564500
39.590100 1.519900
39.639900 1.485000
39.689700 1.450900
39.739500 1.434500
39.789400 1.404500
39.839200 1.384700
39.889000 1.374100
39.938800 1.372400
39.988700 1.375100
40.038500 1.392200
40.088300 1.503800
40.138100 1.393800
40.187900 1.398800
40.237800 1.398200
40.287600 1.437800
40.337400 1.532900
40.387200 1.505100
40.437100 1.462900
40.486900 1.450900
40.536700 1.457600
40.586500 1.471200
40.636400 1.504100
40.686200 1.556900
40.736000 1.581400
40.785800 1.581000
40.835600 1.602300
40.885500 1.623000
40.935300 1.646500
40.985100 1.643900
41.034900 1.606000
41.084800 1.577800
41.134600 1.579600
41.184400 1.615900
41.234200 1.920600
41.284100 1.871500
41.333900 1.769700
41.383700 1.774200
41.433500 1.779500
41.483300 1.784300
41.533200 1.788600
41.583000 1.805800
41.632800 1.833100
41.682600 1.850300
41.732500 1.839300
41.782300 1.833100
41.832100 1.836600
41.881900 1.858300
41.931800 1.839200
41.981600 1.849500
42.031400 1.852100
42.081200 1.892400
42.131000 2.049300
42.180900 2.038500
42.230700 2.025200
42.280500 2.037300
42.330300 2.034500
42.380200 1.877600
42.430000 1.676800
42.479800 1.603300
42.529600 1.527700
42.579500 1.486300
42.629300 1.507600
42.679100 1.484600
42.728900 1.431800
42.778700 1.411100
42.828600 1.389400
42.878400 1.341500
42.928200 1.282200
42.978000 1.268400
43.027900 1.254000
43.077700 1.249800
43.127500 1.267400
43.177300 1.320500
43.227200 1.385900
43.277000 1.369800
43.326800 1.340800
43.376600 1.324900
43.426400 1.324800
43.476300 1.332200
43.526100 1.340700
43.575900 1.363200
43.625700 1.413300
43.675600 1.398000
43.725400 1.420500
43.775200 1.436800
43.825000 1.463500
43.874900 1.615800
43.924700 1.448000
43.974500 1.330500
44.024300 1.251200
44.074100 1.229600
44.124000 1.265400
44.173800 1.278200
44.223600 1.299400
44.273400 1.344800
44.323300 1.404900
44.373100 1.493800
44.422900 1.612600
44.472700 1.766300
44.522600 1.480400
44.572400 1.490300
44.622200 1.452100
44.672000 1.484100
44.721800 1.509700
44.771700 1.543500
44.821500 1.639400
44.871300 1.696500
44.921100 1.711800
44.971000 1.674900
45.020800 1.601300
45.070600 1.554200
45.120400 1.543000
45.170300 1.512500
45.220100 1.463400
45.269900 1.411000
45.319700 1.468200
45.369500 1.429100
45.419400 1.363600
45.469200 1.513800
45.519000 1.680100
45.568800 1.789400
45.618700 1.852200
45.668500 1.716900
45.718300 1.589100
45.768100 1.582800
45.818000 1.611500
45.867800 1.706900
45.917600 1.866700
45.967400 2.032300
46.017200 2.216800
46.067100 2.346600
46.116900 2.461600
46.166700 2.372500
46.216500 2.354000
46.266400 2.269800
46.316200 2.499500
46.366000 2.393700
46.415800 2.201600
46.465700 2.109500
46.515500 1.860700
46.565300 1.635300
46.615100 1.524300
46.664900 1.653900
46.714800 1.760400
46.764600 2.011700
46.814400 2.342600
46.864200 2.342900
46.914100 2.573100
46.963900 2.549100
47.013700 2.490300
47.063500 2.303000
47.113400 2.089100
47.163200 1.927900
47.213000 1.854700
47.262800 1.839500
47.312600 1.860500
47.362500 1.919800
47.412300 1.985600
47.462100 2.074100
47.511900 2.164600
47.561800 2.112200
47.611600 2.106900
47.661400 2.095800
47.711200 1.956900
47.761100 1.912800
47.810900 1.773200
47.860700 1.766400
47.910500 1.786700
47.960300 1.798400
48.010200 1.805700
48.060000 1.824600
48.109800 1.843400
48.159600 1.850500
48.209500 1.826300
48.259300 1.794500
48.309100 1.672800
48.358900 1.600900
48.408800 1.500400
48.458600 1.437100
48.508400 1.408200
48.558200 1.405800
48.608000 1.419700
48.657900 1.450600
48.707700 1.518200
48.757500 1.599700
48.807300 1.691300
48.857200 1.725700
48.907000 1.799300
48.956800 1.874400
49.006600 2.017800
49.056500 2.024800
49.106300 2.000900
49.156100 2.041700
49.205900 2.109400
49.255700 2.110600
49.305600 2.028400
49.355400 1.901800
49.405200 1.739800
49.455000 1.642600
49.504900 1.603900
49.554700 1.566500
49.604500 1.536300
49.654300 1.574100
49.704200 1.580300
49.754000 1.627200
49.803800 1.582200
49.853600 1.599800
49.903400 1.687800
49.953300 1.746500
50.003100 1.844200
50.052900 1.954300
50.102700 2.024700
50.152600 2.064500
50.202400 2.080900
50.252200 2.054800
50.302000 1.898100
50.351900 1.758000
50.401700 1.648000
50.451500 1.556000
50.501300 1.533100
50.551100 1.514100
50.601000 1.502100
50.650800 1.518300
50.700600 1.576700
50.750400 1.649500
50.800300 1.669700
50.850100 1.705000
50.899900 1.734600
50.949700 1.790500
50.999600 1.859700
51.049400 1.916400
51.099200 2.039400
51.149000 2.150600
51.198800 2.302400
51.248700 2.364000
51.298500 2.294200
51.348300 2.103800
51.398100 1.950500
51.448000 1.882400
51.497800 1.838400
51.547600 1.819700
51.597400 1.821600
51.647300 1.828800
51.697100 1.834600
51.746900 1.834500
51.796700 1.847000
51.846500 1.861900
51.896400 1.866900
51.946200 1.927500
51.996000 2.039300
52.045800 2.227700
52.095700 2.425700
52.145500 2.411600
52.195300 2.389700
52.245100 2.363000
52.295000 2.330100
52.344800 2.303700
52.394600 2.272800
52.444400 2.283800
52.494200 2.257800
52.544100 2.097100
52.593900 2.010000
52.643700 1.964600
52.693500 1.956600
52.743400 1.976100
52.793200 1.878300
52.843000 1.764800
52.892800 1.652100
52.942700 1.636300
52.992500 1.624000
53.042300 1.616200
53.092100 1.571900
53.141900 1.586700
53.191800 1.616000
53.241600 1.710600
53.291400 1.860100
53.341200 1.854100
53.391100 1.884400
53.440900 1.901600
53.490700 1.819300
53.540500 1.775700
53.590400 1.740600
53.640200 1.734200
53.690000 1.758600
53.739800 1.894700
53.789600 1.882500
53.839500 1.909700
53.889300 1.927700
53.939100 2.045400
53.988900 2.026800
54.038800 1.969700
54.088600 1.937800
54.138400 1.927200
54.188200 1.904300
54.238100 1.986800
54.287900 2.058000
54.337700 1.861100
54.387500 1.759200
54.437300 1.702200
54.487200 1.698700
54.537000 1.699800
54.586800 1.677500
54.636600 1.672000
54.686500 1.691500
54.736300 1.725000
54.786100 1.755300
54.835900 1.787500
54.885800 1.794100
54.935600 1.787300
54.985400 1.853900
55.035200 1.938300
55.085000 2.017700
55.134900 2.021200
55.184700 1.850700
55.234500 1.766900
55.284300 1.766100
55.334200 1.787500
55.384000 1.842300
55.433800 1.904800
55.483600 1.929600
55.533500 1.955600
55.583300 1.858500
55.633100 1.810900
55.682900 1.754300
55.732700 1.715100
55.782600 1.693500
55.832400 1.741100
55.882200 1.793000
55.932000 1.863200
55.981900 1.953100
56.031700 2.061400
56.081500 2.095400
56.131300 2.212300
56.181200 2.334700
56.231000 2.388500
56.280800 2.310600
56.330600 2.293700
56.380400 2.253600
56.430300 2.228700
56.480100 2.189700
56.529900 2.143600
56.579700 2.058800
56.629600 2.033600
56.679400 2.025900
56.729200 2.016000
56.779000 2.028500
56.828900 1.942200
56.878700 1.927000
56.928500 1.893000
56.978300 1.891600
57.028100 1.895300
57.078000 1.944300
57.127800 1.975200
57.177600 1.921000
57.227400 1.889900
57.277300 1.837300
57.327100 1.806800
57.376900 1.773800
57.426700 1.736300
57.476600 1.714700
57.526400 1.670900
57.576200 1.641200
57.626000 1.662600
57.675800 1.666800
57.725700 1.677500
57.775500 1.703500
57.825300 1.717700
57.875100 1.726400
57.925000 1.724300
57.974800 1.793000
58.024600 1.798000
58.074400 1.771800
58.124300 1.746800
58.174100 1.832300
58.223900 1.907900
58.273700 1.889500
58.323500 1.899100
58.373400 1.935800
58.423200 1.916000
58.473000 1.907400
58.522800 1.790900
58.572700 1.653300
58.622500 1.675400
58.672300 1.709300
58.722100 1.785200
58.772000 1.889400
58.821800 1.912700
58.871600 1.876800
58.921400 1.851900
58.971200 1.865100
59.021100 1.885800
59.070900 1.889100
59.120700 1.910400
59.170500 1.945700
59.220400 1.979000
59.270200 1.973800
59.320000 1.972900
59.369800 1.976000
59.419700 2.000300
59.469500 2.015400
59.519300 2.008000
59.569100 2.041700
59.618900 2.032700
59.668800 1.992100
59.718600 1.946100
59.768400 1.877700
59.818200 1.831900
59.868100 1.833500
59.917900 1.824500
59.967700 1.734700
60.017500 1.659100
60.067400 1.615800
60.117200 1.594900
60.167000 1.582900
60.216800 1.655800
60.266600 1.683900
60.316500 1.718000
60.366300 1.756300
60.416100 1.771400
60.465900 1.734200
60.515800 1.695900
60.565600 1.665800
60.615400 1.633200
60.665200 1.648300
60.715100 1.686200
60.764900 1.654300
60.814700 1.656200
60.864500 1.679600
60.914300 1.720000
60.964200 1.774100
61.014000 1.610800
61.063800 1.493700
61.113600 1.366300
61.163500 1.215300
61.213300 1.214500
61.263100 1.169900
61.312900 1.136200
61.362800 1.121100
61.412600 1.164300
61.462400 1.086000
61.512200 1.019700
61.562100 1.066800
61.611900 1.145500
61.661700 1.201700
61.711500 1.189200
61.761300 1.154500
61.811200 1.090400
61.861000 0.965100
61.910800 0.710500
61.960600 0.671900
62.010500 0.664000
62.060300 0.658300
62.110100 0.647800
62.159900 0.631800
62.209800 0.610500
62.259600 0.578900
62.309400 0.522200
62.359200 0.499800
62.409000 0.481300
62.458900 0.266200
62.508700 0.203500
62.558500 0.187300
62.608300 0.173600
62.658200 0.161400
62.708000 0.150000
62.757800 0.138900
62.807600 0.127900
62.857500 0.117200
62.907300 0.106700
62.957100 0.096400
63.006900 0.090600
63.056700 0.088100
63.106600 0.084500
63.156400 0.081000
63.206200 0.077600
63.256000 0.082700
63.305900 0.077500
63.355700 0.072500
63.405500 0.067600
63.455300 0.062800
63.505200 0.058100
63.555000 0.053500
63.604800 0.049000
63.654600 0.044600
63.704400 0.040400
63.754300 0.036100
63.804100 0.032000
63.853900 0.028600
63.903700 0.071100
63.953600 0.024900
64.003400 0.023500
64.053200 0.022500
64.103000 0.021500
64.152900 0.020500
64.202700 0.019500
64.252500 0.018600
64.302300 0.017700
64.352100 0.016900
64.402000 0.016000
64.451800 0.015200
64.501600 0.014500
64.551400 0.013700
64.601300 0.013000
64.651100 0.012300
64.700900 0.011700
64.750700 0.011000
64.800600 0.010400
64.850400 0.009900
64.900200 0.009300
64.950000 0.008800
64.999800 0.008300
65.049700 0.007900
65.099500 0.007500
65.149300 0.007100
65.199100 0.006700
65.249000 0.006400
65.298800 0.006100
65.348600 0.005800
65.398400 0.005600
65.448300 0.005300
65.498100 0.005000
65.547900 0.004700
65.597700 0.004400
65.647500 0.004100
65.697400 0.003800
65.747200 0.003500
65.797000 0.003100
65.846800 0.002800
65.896700 0.002400
65.946500 0.002100
65.996300 0.001700
66.046100 0.001300
66.096000 0.000900
66.145800 0.000500
66.195600 0.000000
66.245400 0.000000
66.295200 0.000000
66.345100 0.000000
66.394900 0.000000
66.444700 0.000000
66.494500 0.000000
66.544400 0.000000
66.594200 0.000000
66.644000 0.000000
66.693800 0.000000
66.743700 0.000000
66.793500 0.000000
66.843300 0.000000
66.893100 0.000000
66.942900 0.000000
66.992800 0.000000
67.042600 0.000000
67.092400 0.000000
67.142200 0.000000
67.192100 0.000000
67.241900 0.000000
67.291700 0.000000
67.341500 0.000000
67.391400 0.000000
67.441200 0.000000
67.491000 0.000000
67.540800 0.000000
67.590600 0.000000
67.640500 0.000000
67.690300 0.000000
67.740100 0.000000
67.789900 0.000000
67.839800 0.000000
67.889600 0.000000
67.939400 0.000000
67.989200 0.000000
68.039100 0.000000
68.088900 0.000000
68.138700 0.000000
68.188500 0.000000
68.238300 0.000000
68.288200 0.000000
68.338000 0.000000
68.387800 0.000000
68.437600 0.000000
68.487500 0.000000
68.537300 0.000000
68.587100 0.000000
68.636900 0.000000
68.686800 0.000000
68.736600 0.000000
68.786400 0.000000
68.836200 0.000000
68.886000 0.000000
68.935900 0.000000
68.985700 0.000000
69.035500 0.000000
69.085300 0.000000
69.135200 0.000000
69.185000 0.000000
69.234800 0.000000
69.284600 0.000000
69.334500 0.000000
69.384300 0.000000
69.434100 0.000000
69.483900 0.000000
69.533700 0.000000
69.583600 0.000000
69.633400 0.000000
69.683200 0.000000
69.733000 0.000000
69.782900 0.000000
69.832700 0.000000
69.882500 0.000000
69.932300 0.000000
69.982200 0.000000
70.032000 0.000000
70.081800 0.000000
70.131600 0.000000
70.181400 0.000000
70.231300 0.000000
70.281100 0.000000
70.330900 0.000000
70.380700 0.000000
70.430600 0.000000
70.480400 0.000000
70.530200 0.000000
70.580000 0.000000
70.629900 0.000000
70.679700 0.000000
70.729500 0.000000
e
