set title 'mp-1183658 - Density of States'
set xlabel 'Energy (eV)'
set ylabel 'DOS (states/eV)'
set grid
set xrange [-10:10]
set yrange [0:52.128]
set xzeroaxis lt -1
set terminal png size 800,600
set output 'mp-1183658_dos_gnuplot.png'
plot '-' using 1:2 with lines title 'DOS'
-9.707500 0.000000
-9.689300 0.000000
-9.671100 0.000000
-9.652900 0.000000
-9.634600 0.000000
-9.616400 0.000000
-9.598200 0.000000
-9.580000 0.000000
-9.561700 0.000000
-9.543500 0.000000
-9.525300 0.000000
-9.507100 0.000000
-9.488800 0.000000
-9.470600 0.000000
-9.452400 0.000000
-9.434200 0.000000
-9.415900 0.000000
-9.397700 0.000000
-9.379500 0.000000
-9.361300 0.000000
-9.343000 0.000000
-9.324800 0.000000
-9.306600 0.000000
-9.288400 0.000000
-9.270100 0.000000
-9.251900 0.000000
-9.233700 0.000000
-9.215500 0.000000
-9.197200 0.000000
-9.179000 0.000000
-9.160800 0.000000
-9.142600 0.000000
-9.124300 0.000000
-9.106100 0.000000
-9.087900 0.000000
-9.069700 0.000000
-9.051500 0.000000
-9.033200 0.000000
-9.015000 0.000000
-8.996800 0.000000
-8.978600 0.000000
-8.960300 0.000000
-8.942100 0.000000
-8.923900 0.000000
-8.905700 0.000000
-8.887400 0.000000
-8.869200 0.000000
-8.851000 0.000000
-8.832800 0.000000
-8.814500 0.000000
-8.796300 0.000000
-8.778100 0.000000
-8.759900 0.000000
-8.741600 0.000000
-8.723400 0.000000
-8.705200 0.000000
-8.687000 0.000000
-8.668700 0.000000
-8.650500 0.000000
-8.632300 0.000000
-8.614100 0.000000
-8.595800 0.000000
-8.577600 0.000000
-8.559400 0.000000
-8.541200 0.000000
-8.522900 0.000000
-8.504700 0.000000
-8.486500 0.000000
-8.468300 0.000000
-8.450000 0.000000
-8.431800 0.000000
-8.413600 0.000000
-8.395400 0.000000
-8.377100 0.000000
-8.358900 0.000000
-8.340700 0.000000
-8.322500 0.000000
-8.304200 0.000000
-8.286000 0.000000
-8.267800 0.000000
-8.249600 0.000000
-8.231300 0.000000
-8.213100 0.000000
-8.194900 0.000000
-8.176700 0.000000
-8.158400 0.000200
-8.140200 0.001200
-8.122000 0.004800
-8.103800 0.015300
-8.085500 0.040500
-8.067300 0.090100
-8.049100 0.173100
-8.030900 0.288700
-8.012600 0.418600
-7.994400 0.532200
-7.976200 0.617900
-7.958000 0.706700
-7.939700 0.840200
-7.921500 1.013500
-7.903300 1.174000
-7.885100 1.281100
-7.866800 1.352600
-7.848600 1.449900
-7.830400 1.620800
-7.812200 1.864600
-7.793900 2.157800
-7.775700 2.490900
-7.757500 2.853200
-7.739300 3.208300
-7.721000 3.540600
-7.702800 3.923500
-7.684600 4.490300
-7.666400 5.344700
-7.648200 6.547500
-7.629900 8.122400
-7.611700 9.882900
-7.593500 11.188600
-7.575300 11.135000
-7.557000 9.316000
-7.538800 6.363000
-7.520600 3.485000
-7.502400 1.514000
-7.484100 0.518100
-7.465900 0.139100
-7.447700 0.029200
-7.429500 0.004800
-7.411200 0.000600
-7.393000 0.000100
-7.374800 0.000000
-7.356600 0.000000
-7.338300 0.000000
-7.320100 0.000000
-7.301900 0.000000
-7.283700 0.000000
-7.265400 0.000000
-7.247200 0.000000
-7.229000 0.000000
-7.210800 0.000000
-7.192500 0.000000
-7.174300 0.000000
-7.156100 0.000000
-7.137900 0.000000
-7.119600 0.000000
-7.101400 0.000000
-7.083200 0.000000
-7.065000 0.000000
-7.046700 0.000000
-7.028500 0.000000
-7.010300 0.000000
-6.992100 0.000000
-6.973800 0.000000
-6.955600 0.000000
-6.937400 0.000000
-6.919200 0.000000
-6.900900 0.000000
-6.882700 0.000000
-6.864500 0.000000
-6.846300 0.000000
-6.828000 0.000000
-6.809800 0.000000
-6.791600 0.000000
-6.773400 0.000000
-6.755100 0.000000
-6.736900 0.000000
-6.718700 0.000000
-6.700500 0.000000
-6.682200 0.000000
-6.664000 0.000000
-6.645800 0.000000
-6.627600 0.000000
-6.609300 0.000000
-6.591100 0.000000
-6.572900 0.000000
-6.554700 0.000000
-6.536400 0.000000
-6.518200 0.000000
-6.500000 0.000000
-6.481800 0.000000
-6.463500 0.000000
-6.445300 0.000000
-6.427100 0.000000
-6.408900 0.000000
-6.390600 0.000000
-6.372400 0.000000
-6.354200 0.000000
-6.336000 0.000000
-6.317700 0.000000
-6.299500 0.000000
-6.281300 0.000000
-6.263100 0.000000
-6.244900 0.000000
-6.226600 0.000000
-6.208400 0.000000
-6.190200 0.000000
-6.172000 0.000000
-6.153700 0.000000
-6.135500 0.000000
-6.117300 0.000000
-6.099100 0.000000
-6.080800 0.000000
-6.062600 0.000000
-6.044400 0.000000
-6.026200 0.000000
-6.007900 0.000000
-5.989700 0.000000
-5.971500 0.000000
-5.953300 0.000000
-5.935000 0.000000
-5.916800 0.000000
-5.898600 0.000000
-5.880400 0.000000
-5.862100 0.000000
-5.843900 0.000000
-5.825700 0.000000
-5.807500 0.000000
-5.789200 0.000000
-5.771000 0.000000
-5.752800 0.000100
-5.734600 0.000500
-5.716300 0.003900
-5.698100 0.021900
-5.679900 0.097000
-5.661700 0.343100
-5.643400 0.977800
-5.625200 2.278700
-5.607000 4.433900
-5.588800 7.404300
-5.570500 10.974700
-5.552300 14.971300
-5.534100 19.413700
-5.515900 24.441700
-5.497600 30.045700
-5.479400 35.776100
-5.461200 40.748300
-5.443000 44.130000
-5.424700 45.719600
-5.406500 45.950000
-5.388300 45.309100
-5.370100 43.910700
-5.351800 41.687800
-5.333600 38.853200
-5.315400 36.011300
-5.297200 33.839600
-5.278900 32.724100
-5.260700 32.614500
-5.242500 33.106000
-5.224300 33.684800
-5.206000 34.005200
-5.187800 34.022100
-5.169600 33.999700
-5.151400 34.521400
-5.133100 36.290500
-5.114900 39.505600
-5.096700 43.353500
-5.078500 46.364700
-5.060200 47.389100
-5.042000 46.298900
-5.023800 44.003200
-5.005600 41.848300
-4.987300 40.658400
-4.969100 40.136700
-4.950900 39.342300
-4.932700 37.774400
-4.914500 35.789900
-4.896200 34.054400
-4.878000 32.988900
-4.859800 32.774800
-4.841600 33.312200
-4.823300 33.721000
-4.805100 32.280200
-4.786900 27.671900
-4.768700 20.441100
-4.750400 12.766500
-4.732200 6.714500
-4.714000 2.988400
-4.695800 1.133300
-4.677500 0.366900
-4.659300 0.100800
-4.641100 0.023200
-4.622900 0.004400
-4.604600 0.000700
-4.586400 0.000100
-4.568200 0.000000
-4.550000 0.000000
-4.531700 0.000000
-4.513500 0.000000
-4.495300 0.000000
-4.477100 0.000000
-4.458800 0.000000
-4.440600 0.000000
-4.422400 0.000000
-4.404200 0.000000
-4.385900 0.000000
-4.367700 0.000000
-4.349500 0.000000
-4.331300 0.000000
-4.313000 0.000000
-4.294800 0.000000
-4.276600 0.000000
-4.258400 0.000000
-4.240100 0.000000
-4.221900 0.000000
-4.203700 0.000000
-4.185500 0.000000
-4.167200 0.000000
-4.149000 0.000000
-4.130800 0.000000
-4.112600 0.000000
-4.094300 0.000000
-4.076100 0.000000
-4.057900 0.000000
-4.039700 0.000000
-4.021400 0.000000
-4.003200 0.000000
-3.985000 0.000000
-3.966800 0.000000
-3.948500 0.000000
-3.930300 0.000000
-3.912100 0.000000
-3.893900 0.000000
-3.875600 0.000000
-3.857400 0.000000
-3.839200 0.000000
-3.821000 0.000000
-3.802700 0.000000
-3.784500 0.000000
-3.766300 0.000000
-3.748100 0.000000
-3.729800 0.000000
-3.711600 0.000000
-3.693400 0.000000
-3.675200 0.000000
-3.656900 0.000000
-3.638700 0.000000
-3.620500 0.000000
-3.602300 0.000000
-3.584000 0.000000
-3.565800 0.000000
-3.547600 0.000000
-3.529400 0.000000
-3.511200 0.000000
-3.492900 0.000000
-3.474700 0.000000
-3.456500 0.000000
-3.438300 0.000000
-3.420000 0.000000
-3.401800 0.000000
-3.383600 0.000000
-3.365400 0.000000
-3.347100 0.000000
-3.328900 0.000000
-3.310700 0.000000
-3.292500 0.000000
-3.274200 0.000000
-3.256000 0.000000
-3.237800 0.000000
-3.219600 0.000000
-3.201300 0.000000
-3.183100 0.000000
-3.164900 0.000000
-3.146700 0.000000
-3.128400 0.000000
-3.110200 0.000000
-3.092000 0.000000
-3.073800 0.000000
-3.055500 0.000000
-3.037300 0.000000
-3.019100 0.000000
-3.000900 0.000000
-2.982600 0.000000
-2.964400 0.000000
-2.946200 0.000000
-2.928000 0.000000
-2.909700 0.000000
-2.891500 0.000000
-2.873300 0.000000
-2.855100 0.000300
-2.836800 0.001300
-2.818600 0.004900
-2.800400 0.014300
-2.782200 0.033500
-2.763900 0.063000
-2.745700 0.096300
-2.727500 0.119500
-2.709300 0.120300
-2.691000 0.099500
-2.672800 0.073700
-2.654600 0.066400
-2.636400 0.092800
-2.618100 0.149200
-2.599900 0.213800
-2.581700 0.261300
-2.563500 0.277600
-2.545200 0.260800
-2.527000 0.219000
-2.508800 0.175900
-2.490600 0.168400
-2.472300 0.223600
-2.454100 0.337000
-2.435900 0.471700
-2.417700 0.576100
-2.399400 0.613600
-2.381200 0.592900
-2.363000 0.580000
-2.344800 0.670700
-2.326500 0.921300
-2.308300 1.276900
-2.290100 1.573100
-2.271900 1.653700
-2.253600 1.508400
-2.235400 1.281400
-2.217200 1.143300
-2.199000 1.177300
-2.180700 1.371900
-2.162500 1.662600
-2.144300 1.958700
-2.126100 2.174900
-2.107900 2.271900
-2.089600 2.274800
-2.071400 2.262300
-2.053200 2.321400
-2.035000 2.462200
-2.016700 2.570700
-1.998500 2.504200
-1.980300 2.254500
-1.962100 1.970900
-1.943800 1.796600
-1.925600 1.726700
-1.907400 1.654600
-1.889200 1.523500
-1.870900 1.399800
-1.852700 1.418500
-1.834500 1.662400
-1.816300 2.064900
-1.798000 2.433500
-1.779800 2.608000
-1.761600 2.572500
-1.743400 2.379000
-1.725100 2.053400
-1.706900 1.659600
-1.688700 1.359900
-1.670500 1.311400
-1.652200 1.522700
-1.634000 1.839100
-1.615800 2.063000
-1.597600 2.101600
-1.579300 2.000500
-1.561100 1.843400
-1.542900 1.663100
-1.524700 1.453700
-1.506400 1.226100
-1.488200 1.028400
-1.470000 0.924000
-1.451800 0.953800
-1.433500 1.114700
-1.415300 1.356000
-1.397100 1.584400
-1.378900 1.702100
-1.360600 1.684600
-1.342400 1.604500
-1.324200 1.542600
-1.306000 1.502800
-1.287700 1.441300
-1.269500 1.327000
-1.251300 1.145800
-1.233100 0.897800
-1.214800 0.625900
-1.196600 0.417800
-1.178400 0.357500
-1.160200 0.465600
-1.141900 0.671900
-1.123700 0.849600
-1.105500 0.907500
-1.087300 0.854900
-1.069000 0.759600
-1.050800 0.661200
-1.032600 0.558600
-1.014400 0.464100
-0.996100 0.421100
-0.977900 0.459200
-0.959700 0.559000
-0.941500 0.669900
-0.923200 0.754400
-0.905000 0.815500
-0.886800 0.883600
-0.868600 0.968900
-0.850300 1.032100
-0.832100 1.024500
-0.813900 0.958600
-0.795700 0.913800
-0.777400 0.965300
-0.759200 1.120500
-0.741000 1.317300
-0.722800 1.461700
-0.704600 1.474600
-0.686300 1.337700
-0.668100 1.112000
-0.649900 0.900900
-0.631700 0.784000
-0.613400 0.785200
-0.595200 0.891600
-0.577000 1.071400
-0.558800 1.268200
-0.540500 1.412800
-0.522300 1.454500
-0.504100 1.372500
-0.485900 1.172100
-0.467600 0.897500
-0.449400 0.632000
-0.431200 0.446400
-0.413000 0.355500
-0.394700 0.350300
-0.376500 0.464300
-0.358300 0.768800
-0.340100 1.274500
-0.321800 1.839800
-0.303600 2.216400
-0.285400 2.227400
-0.267200 1.916800
-0.248900 1.517600
-0.230700 1.268300
-0.212500 1.243800
-0.194300 1.333700
-0.176000 1.366100
-0.157800 1.255000
-0.139600 1.052800
-0.121400 0.888000
-0.103100 0.861700
-0.084900 0.979800
-0.066700 1.154700
-0.048500 1.270200
-0.030200 1.276300
-0.012000 1.231200
0.006200 1.235300
0.024400 1.340700
0.042700 1.534600
0.060900 1.761400
0.079100 1.926300
0.097300 1.938000
0.115600 1.789000
0.133800 1.567700
0.152000 1.387900
0.170200 1.322700
0.188500 1.377200
0.206700 1.490500
0.224900 1.579300
0.243100 1.595100
0.261400 1.530300
0.279600 1.394600
0.297800 1.218000
0.316000 1.059700
0.334300 0.983300
0.352500 1.031300
0.370700 1.220200
0.388900 1.530500
0.407200 1.882700
0.425400 2.131000
0.443600 2.119500
0.461800 1.801000
0.480100 1.313500
0.498300 0.901800
0.516500 0.740200
0.534700 0.832000
0.553000 1.052300
0.571200 1.253200
0.589400 1.336300
0.607600 1.271900
0.625800 1.090500
0.644100 0.865500
0.662300 0.685100
0.680500 0.621200
0.698700 0.711700
0.717000 0.950500
0.735200 1.270800
0.753400 1.553900
0.771600 1.699300
0.789900 1.706200
0.808100 1.672300
0.826300 1.699300
0.844500 1.795700
0.862800 1.871500
0.881000 1.830700
0.899200 1.673100
0.917400 1.504700
0.935700 1.442600
0.953900 1.507900
0.972100 1.623200
0.990300 1.707800
1.008600 1.738700
1.026800 1.731000
1.045000 1.723000
1.063200 1.796900
1.081500 2.045000
1.099700 2.443700
1.117900 2.783000
1.136100 2.800600
1.154400 2.423700
1.172600 1.849300
1.190800 1.364300
1.209000 1.111900
1.227300 1.034200
1.245500 0.997300
1.263700 0.943000
1.281900 0.939500
1.300200 1.114600
1.318400 1.533300
1.336600 2.114700
1.354800 2.658200
1.373100 2.970500
1.391300 2.987700
1.409500 2.782600
1.427700 2.460800
1.446000 2.074300
1.464200 1.653600
1.482400 1.288400
1.500600 1.105200
1.518900 1.148600
1.537100 1.323100
1.555300 1.469100
1.573500 1.484800
1.591800 1.387600
1.610000 1.275600
1.628200 1.236100
1.646400 1.296200
1.664700 1.443900
1.682900 1.636900
1.701100 1.782800
1.719300 1.784300
1.737600 1.650800
1.755800 1.509900
1.774000 1.461700
1.792200 1.464800
1.810500 1.412100
1.828700 1.277200
1.846900 1.133500
1.865100 1.064700
1.883400 1.100000
1.901600 1.217700
1.919800 1.373000
1.938000 1.521700
1.956300 1.639100
1.974500 1.731900
1.992700 1.830300
2.010900 1.948700
2.029100 2.048100
2.047400 2.062500
2.065600 1.968700
2.083800 1.816000
2.102000 1.685700
2.120300 1.624600
2.138500 1.610000
2.156700 1.569100
2.174900 1.440300
2.193200 1.224900
2.211400 0.979000
2.229600 0.770400
2.247800 0.668400
2.266100 0.752200
2.284300 1.061700
2.302500 1.512000
2.320700 1.899600
2.339000 2.044700
2.357200 1.935700
2.375400 1.719800
2.393600 1.569500
2.411900 1.575600
2.430100 1.734100
2.448300 1.979400
2.466500 2.215600
2.484800 2.343700
2.503000 2.310300
2.521200 2.153500
2.539400 1.974000
2.557700 1.856300
2.575900 1.842700
2.594100 1.955500
2.612300 2.175800
2.630600 2.408300
2.648800 2.543900
2.667000 2.564700
2.685200 2.522000
2.703500 2.412100
2.721700 2.164200
2.739900 1.775100
2.758100 1.380800
2.776400 1.140200
2.794600 1.088200
2.812800 1.150400
2.831000 1.271700
2.849300 1.462300
2.867500 1.708800
2.885700 1.895700
2.903900 1.882800
2.922200 1.670800
2.940400 1.440900
2.958600 1.399100
2.976800 1.605200
2.995100 1.953900
3.013300 2.277200
3.031500 2.443200
3.049700 2.400500
3.068000 2.184200
3.086200 1.896700
3.104400 1.667500
3.122600 1.591900
3.140900 1.663400
3.159100 1.761500
3.177300 1.750000
3.195500 1.608200
3.213800 1.427300
3.232000 1.271100
3.250200 1.107700
3.268400 0.909000
3.286700 0.745200
3.304900 0.717300
3.323100 0.838600
3.341300 1.030400
3.359600 1.208900
3.377800 1.329100
3.396000 1.371800
3.414200 1.345600
3.432400 1.295000
3.450700 1.272600
3.468900 1.301200
3.487100 1.380400
3.505300 1.520900
3.523600 1.738900
3.541800 1.998600
3.560000 2.185500
3.578200 2.180400
3.596500 1.967600
3.614700 1.657500
3.632900 1.401900
3.651100 1.291600
3.669400 1.318600
3.687600 1.408500
3.705800 1.473200
3.724000 1.444500
3.742300 1.299800
3.760500 1.083000
3.778700 0.890000
3.796900 0.817400
3.815200 0.920800
3.833400 1.191700
3.851600 1.531200
3.869800 1.760200
3.888100 1.729400
3.906300 1.455800
3.924500 1.126600
3.942700 0.947600
3.961000 0.994300
3.979200 1.189900
3.997400 1.394500
4.015600 1.527800
4.033900 1.635000
4.052100 1.831100
4.070300 2.163800
4.088500 2.540600
4.106800 2.816800
4.125000 2.933100
4.143200 2.928700
4.161400 2.840300
4.179700 2.670500
4.197900 2.482100
4.216100 2.438700
4.234300 2.665900
4.252600 3.089900
4.270800 3.459900
4.289000 3.518400
4.307200 3.170300
4.325500 2.574400
4.343700 2.073100
4.361900 1.926500
4.380100 2.083200
4.398400 2.254300
4.416600 2.209700
4.434800 1.955900
4.453000 1.652300
4.471300 1.439200
4.489500 1.362800
4.507700 1.399900
4.525900 1.513800
4.544200 1.704500
4.562400 1.993100
4.580600 2.315200
4.598800 2.479100
4.617100 2.325200
4.635300 1.913500
4.653500 1.472900
4.671700 1.180700
4.690000 1.056700
4.708200 1.039900
4.726400 1.071800
4.744600 1.096500
4.762900 1.078800
4.781100 1.081000
4.799300 1.271800
4.817500 1.757500
4.835700 2.382600
4.854000 2.788100
4.872200 2.750800
4.890400 2.409200
4.908600 2.087300
4.926900 1.975800
4.945100 2.056400
4.963300 2.242400
4.981500 2.470400
4.999800 2.673600
5.018000 2.756400
5.036200 2.647600
5.054400 2.373400
5.072700 2.068300
5.090900 1.885100
5.109100 1.858900
5.127300 1.864900
5.145600 1.745900
5.163800 1.472600
5.182000 1.154100
5.200200 0.920700
5.218500 0.842400
5.236700 0.929400
5.254900 1.141600
5.273100 1.387200
5.291400 1.562800
5.309600 1.616700
5.327800 1.568400
5.346000 1.468200
5.364300 1.351200
5.382500 1.228000
5.400700 1.108300
5.418900 1.021100
5.437200 1.002600
5.455400 1.066300
5.473600 1.188400
5.491800 1.314500
5.510100 1.385500
5.528300 1.385900
5.546500 1.379400
5.564700 1.478800
5.583000 1.748900
5.601200 2.110800
5.619400 2.357800
5.637600 2.329600
5.655900 2.081100
5.674100 1.827300
5.692300 1.734900
5.710500 1.822100
5.728800 2.026200
5.747000 2.281500
5.765200 2.528400
5.783400 2.719700
5.801700 2.854400
5.819900 2.975000
5.838100 3.105100
5.856300 3.212300
5.874600 3.249600
5.892800 3.191300
5.911000 3.012500
5.929200 2.704200
5.947500 2.343600
5.965700 2.086600
5.983900 2.040900
6.002100 2.165700
6.020400 2.313600
6.038600 2.352900
6.056800 2.258200
6.075000 2.105200
6.093300 1.970900
6.111500 1.843100
6.129700 1.675500
6.147900 1.527700
6.166100 1.566900
6.184400 1.888100
6.202600 2.375900
6.220800 2.776000
6.239000 2.882400
6.257300 2.655900
6.275500 2.213900
6.293700 1.745900
6.311900 1.407500
6.330200 1.242900
6.348400 1.195800
6.366600 1.205900
6.384800 1.287400
6.403100 1.505000
6.421300 1.877200
6.439500 2.313900
6.457700 2.658400
6.476000 2.796400
6.494200 2.730900
6.512400 2.544600
6.530600 2.299900
6.548900 2.004500
6.567100 1.673200
6.585300 1.378100
6.603500 1.208200
6.621800 1.185500
6.640000 1.232000
6.658200 1.240000
6.676400 1.174000
6.694700 1.087900
6.712900 1.048000
6.731100 1.076000
6.749300 1.170200
6.767600 1.330500
6.785800 1.540700
6.804000 1.770500
6.822200 2.021300
6.840500 2.321000
6.858700 2.638000
6.876900 2.861700
6.895100 2.923100
6.913400 2.874900
6.931600 2.793700
6.949800 2.677900
6.968000 2.501500
6.986300 2.295300
7.004500 2.104900
7.022700 1.930000
7.040900 1.760100
7.059200 1.623600
7.077400 1.562600
7.095600 1.591700
7.113800 1.704700
7.132100 1.891400
7.150300 2.112100
7.168500 2.276800
7.186700 2.325300
7.205000 2.335000
7.223200 2.482000
7.241400 2.859100
7.259600 3.346800
7.277900 3.676800
7.296100 3.636600
7.314300 3.242000
7.332500 2.733900
7.350800 2.416300
7.369000 2.456700
7.387200 2.789300
7.405400 3.185400
7.423700 3.408900
7.441900 3.316900
7.460100 2.895000
7.478300 2.275500
7.496600 1.687400
7.514800 1.314200
7.533000 1.185800
7.551200 1.216700
7.569400 1.312100
7.587700 1.417700
7.605900 1.507100
7.624100 1.576900
7.642300 1.659600
7.660600 1.802600
7.678800 2.002700
7.697000 2.183400
7.715200 2.275100
7.733500 2.299800
7.751700 2.334400
7.769900 2.395800
7.788100 2.407700
7.806400 2.296200
7.824600 2.089200
7.842800 1.892200
7.861000 1.782300
7.879300 1.752200
7.897500 1.750200
7.915700 1.756600
7.933900 1.807000
7.952200 1.935700
7.970400 2.110800
7.988600 2.265900
8.006800 2.387200
8.025100 2.496700
8.043300 2.545900
8.061500 2.442000
8.079700 2.204900
8.098000 1.976700
8.116200 1.865900
8.134400 1.891500
8.152600 2.055700
8.170900 2.333400
8.189100 2.592800
8.207300 2.656300
8.225500 2.493700
8.243800 2.281300
8.262000 2.219600
8.280200 2.347000
8.298400 2.568400
8.316700 2.783300
8.334900 2.918900
8.353100 2.911000
8.371300 2.751700
8.389600 2.536700
8.407800 2.411200
8.426000 2.466300
8.444200 2.695600
8.462500 3.014600
8.480700 3.295000
8.498900 3.421600
8.517100 3.380300
8.535400 3.285200
8.553600 3.275000
8.571800 3.387400
8.590000 3.540600
8.608300 3.611700
8.626500 3.533700
8.644700 3.333200
8.662900 3.081400
8.681200 2.827100
8.699400 2.585200
8.717600 2.357900
8.735800 2.145900
8.754100 1.966700
8.772300 1.866200
8.790500 1.877300
8.808700 1.974100
8.827000 2.099700
8.845200 2.226700
8.863400 2.359300
8.881600 2.494200
8.899900 2.609200
8.918100 2.684400
8.936300 2.724300
8.954500 2.763300
8.972700 2.826100
8.991000 2.861000
9.009200 2.748300
9.027400 2.421000
9.045600 1.963300
9.063900 1.555900
9.082100 1.318700
9.100300 1.228300
9.118500 1.197400
9.136800 1.204300
9.155000 1.318800
9.173200 1.620300
9.191400 2.106600
9.209700 2.650900
9.227900 3.049900
9.246100 3.171600
9.264300 3.062000
9.282600 2.866500
9.300800 2.664800
9.319000 2.436000
9.337200 2.172300
9.355500 1.948900
9.373700 1.858300
9.391900 1.931200
9.410100 2.127300
9.428400 2.346100
9.446600 2.464000
9.464800 2.430800
9.483000 2.315900
9.501300 2.209500
9.519500 2.120200
9.537700 2.013900
9.555900 1.902400
9.574200 1.834600
9.592400 1.821600
9.610600 1.818800
9.628800 1.777300
9.647100 1.692300
9.665300 1.618100
9.683500 1.640100
9.701700 1.802900
9.720000 2.054000
9.738200 2.287300
9.756400 2.453300
9.774600 2.594700
9.792900 2.767200
9.811100 2.960100
9.829300 3.095900
9.847500 3.086500
9.865800 2.899900
9.884000 2.593700
9.902200 2.264000
9.920400 1.961800
9.938700 1.690000
9.956900 1.476500
9.975100 1.397600
9.993300 1.502000
10.011600 1.747400
10.029800 2.056600
10.048000 2.421700
10.066200 2.876700
10.084500 3.339400
10.102700 3.576800
10.120900 3.413300
10.139100 2.936000
10.157400 2.425500
10.175600 2.118200
10.193800 2.078900
10.212000 2.244900
10.230300 2.500000
10.248500 2.708600
10.266700 2.757900
10.284900 2.628700
10.303200 2.407900
10.321400 2.217100
10.339600 2.151200
10.357800 2.264500
10.376000 2.534100
10.394300 2.829200
10.412500 2.990700
10.430700 2.976200
10.448900 2.883000
10.467200 2.832700
10.485400 2.872200
10.503600 2.959100
10.521800 2.989300
10.540100 2.867200
10.558300 2.595700
10.576500 2.283000
10.594700 2.051000
10.613000 1.970800
10.631200 2.056700
10.649400 2.233800
10.667600 2.335700
10.685900 2.232600
10.704100 1.964200
10.722300 1.698100
10.740500 1.569500
10.758800 1.585400
10.777000 1.657800
10.795200 1.703800
10.813400 1.716000
10.831700 1.742200
10.849900 1.812600
10.868100 1.906700
10.886300 1.986500
10.904600 2.046600
10.922800 2.126800
10.941000 2.273000
10.959200 2.474100
10.977500 2.645200
10.995700 2.695900
11.013900 2.620300
11.032100 2.508200
11.050400 2.459900
11.068600 2.483500
11.086800 2.470500
11.105000 2.289800
11.123300 1.932400
11.141500 1.551000
11.159700 1.331900
11.177900 1.333900
11.196200 1.469900
11.214400 1.631700
11.232600 1.793200
11.250800 1.974000
11.269100 2.135000
11.287300 2.162900
11.305500 1.978600
11.323700 1.640400
11.342000 1.315600
11.360200 1.146200
11.378400 1.158500
11.396600 1.281800
11.414900 1.412700
11.433100 1.469400
11.451300 1.435200
11.469500 1.367000
11.487800 1.344500
11.506000 1.396200
11.524200 1.477200
11.542400 1.532000
11.560700 1.557100
11.578900 1.572800
11.597100 1.575200
11.615300 1.566900
11.633600 1.589200
11.651800 1.666000
11.670000 1.753300
11.688200 1.781900
11.706400 1.718400
11.724700 1.577700
11.742900 1.427900
11.761100 1.380000
11.779300 1.511700
11.797600 1.783900
11.815800 2.068400
11.834000 2.256500
11.852200 2.319700
11.870500 2.288800
11.888700 2.214200
11.906900 2.137500
11.925100 2.068900
11.943400 1.992600
11.961600 1.910100
11.979800 1.858400
11.998000 1.876700
12.016300 1.979900
12.034500 2.166900
12.052700 2.402300
12.070900 2.600100
12.089200 2.699100
12.107400 2.751700
12.125600 2.866100
12.143800 3.070400
12.162100 3.284600
12.180300 3.389200
12.198500 3.278600
12.216700 2.902500
12.235000 2.324300
12.253200 1.734100
12.271400 1.349800
12.289600 1.271000
12.307900 1.427500
12.326100 1.662300
12.344300 1.858500
12.362500 2.012500
12.380800 2.205400
12.399000 2.490800
12.417200 2.821400
12.435400 3.113800
12.453700 3.353100
12.471900 3.573500
12.490100 3.746800
12.508300 3.745500
12.526600 3.450100
12.544800 2.887200
12.563000 2.249200
12.581200 1.778900
12.599500 1.634400
12.617700 1.817400
12.635900 2.167200
12.654100 2.436100
12.672400 2.441700
12.690600 2.202100
12.708800 1.924700
12.727000 1.838300
12.745300 2.022200
12.763500 2.384600
12.781700 2.750000
12.799900 2.951200
12.818200 2.924100
12.836400 2.774900
12.854600 2.708300
12.872800 2.848300
12.891100 3.137800
12.909300 3.399000
12.927500 3.470300
12.945700 3.302700
12.964000 2.966800
12.982200 2.592100
13.000400 2.296300
13.018600 2.149800
13.036900 2.189500
13.055100 2.436400
13.073300 2.851600
13.091500 3.294800
13.109700 3.610400
13.128000 3.768400
13.146200 3.857500
13.164400 3.943800
13.182600 3.995700
13.200900 3.948000
13.219100 3.783800
13.237300 3.533900
13.255500 3.254400
13.273800 3.037200
13.292000 2.979800
13.310200 3.083900
13.328400 3.222100
13.346700 3.247000
13.364900 3.109400
13.383100 2.848600
13.401300 2.506200
13.419600 2.109300
13.437800 1.727700
13.456000 1.489300
13.474200 1.510600
13.492500 1.821400
13.510700 2.350400
13.528900 2.963500
13.547100 3.533100
13.565400 3.994300
13.583600 4.347400
13.601800 4.617700
13.620000 4.812200
13.638300 4.903400
13.656500 4.848600
13.674700 4.623400
13.692900 4.249000
13.711200 3.807500
13.729400 3.418900
13.747600 3.156200
13.765800 2.987700
13.784100 2.844100
13.802300 2.706700
13.820500 2.573300
13.838700 2.391600
13.857000 2.114200
13.875200 1.797000
13.893400 1.592300
13.911600 1.647700
13.929900 2.002500
13.948100 2.553700
13.966300 3.111200
13.984500 3.497300
14.002800 3.635300
14.021000 3.598300
14.039200 3.562100
14.057400 3.650100
14.075700 3.813300
14.093900 3.901700
14.112100 3.844300
14.130300 3.712700
14.148600 3.609500
14.166800 3.558700
14.185000 3.518400
14.203200 3.448700
14.221500 3.333800
14.239700 3.177300
14.257900 3.015100
14.276100 2.918200
14.294400 2.948100
14.312600 3.112300
14.330800 3.377600
14.349000 3.703200
14.367300 4.031600
14.385500 4.285600
14.403700 4.415400
14.421900 4.425600
14.440200 4.330300
14.458400 4.130100
14.476600 3.855400
14.494800 3.577500
14.513000 3.358800
14.531300 3.234700
14.549500 3.230400
14.567700 3.350000
14.585900 3.543500
14.604200 3.700400
14.622400 3.702700
14.640600 3.517400
14.658800 3.231800
14.677100 2.991300
14.695300 2.927800
14.713500 3.130000
14.731700 3.597100
14.750000 4.176100
14.768200 4.609400
14.786400 4.703300
14.804600 4.447700
14.822900 3.969000
14.841100 3.431800
14.859300 3.013900
14.877500 2.882200
14.895800 3.078700
14.914000 3.431800
14.932200 3.643600
14.950400 3.514300
14.968700 3.099600
14.986900 2.649000
15.005100 2.399900
15.023300 2.440400
15.041600 2.707100
15.059800 3.034900
15.078000 3.244000
15.096200 3.263100
15.114500 3.181400
15.132700 3.151000
15.150900 3.244500
15.169100 3.424400
15.187400 3.613900
15.205600 3.732600
15.223800 3.687200
15.242000 3.439800
15.260300 3.104500
15.278500 2.873500
15.296700 2.813400
15.314900 2.824400
15.333200 2.818600
15.351400 2.843900
15.369600 2.999000
15.387800 3.293900
15.406100 3.615500
15.424300 3.807400
15.442500 3.796100
15.460700 3.643500
15.479000 3.481000
15.497200 3.410500
15.515400 3.438800
15.533600 3.459100
15.551900 3.342700
15.570100 3.088900
15.588300 2.833400
15.606500 2.690200
15.624800 2.648800
15.643000 2.627900
15.661200 2.577000
15.679400 2.522600
15.697700 2.554700
15.715900 2.737600
15.734100 2.980200
15.752300 3.038400
15.770600 2.722800
15.788800 2.099500
15.807000 1.453500
15.825200 1.078600
15.843500 1.101700
15.861700 1.436200
15.879900 1.839900
15.898100 2.057600
15.916300 1.990500
15.934600 1.753200
15.952800 1.540700
15.971000 1.457400
15.989200 1.493800
16.007500 1.606700
16.025700 1.756600
16.043900 1.906100
16.062100 2.039800
16.080400 2.150400
16.098600 2.187100
16.116800 2.084400
16.135000 1.866900
16.153300 1.659200
16.171500 1.566400
16.189700 1.596100
16.207900 1.704600
16.226200 1.861000
16.244400 2.068300
16.262600 2.372600
16.280800 2.814000
16.299100 3.303100
16.317300 3.600200
16.335500 3.519100
16.353700 3.130300
16.372000 2.694800
16.390200 2.417800
16.408400 2.330800
16.426600 2.383900
16.444900 2.543100
16.463100 2.754400
16.481300 2.916700
16.499500 2.993900
16.517800 3.108300
16.536000 3.400900
16.554200 3.791600
16.572400 3.984700
16.590700 3.763500
16.608900 3.225800
16.627100 2.686500
16.645300 2.388800
16.663600 2.359300
16.681800 2.503900
16.700000 2.742500
16.718200 3.003900
16.736500 3.164600
16.754700 3.107300
16.772900 2.860000
16.791100 2.605600
16.809400 2.523600
16.827600 2.636700
16.845800 2.800000
16.864000 2.832200
16.882300 2.685200
16.900500 2.479100
16.918700 2.354900
16.936900 2.342400
16.955200 2.407300
16.973400 2.554600
16.991600 2.809800
17.009800 3.138400
17.028100 3.463700
17.046300 3.741200
17.064500 3.944600
17.082700 4.015500
17.101000 3.912100
17.119200 3.694900
17.137400 3.485800
17.155600 3.338800
17.173900 3.208700
17.192100 3.035100
17.210300 2.802300
17.228500 2.528100
17.246700 2.247400
17.265000 2.008600
17.283200 1.854400
17.301400 1.789200
17.319600 1.770100
17.337900 1.754200
17.356100 1.767600
17.374300 1.894200
17.392500 2.164600
17.410800 2.467400
17.429000 2.612100
17.447200 2.522400
17.465400 2.348800
17.483700 2.331700
17.501900 2.541400
17.520100 2.801600
17.538300 2.893000
17.556600 2.782200
17.574800 2.604900
17.593000 2.478700
17.611200 2.413900
17.629500 2.383100
17.647700 2.393800
17.665900 2.479900
17.684100 2.673000
17.702400 2.980000
17.720600 3.336000
17.738800 3.592900
17.757000 3.628500
17.775300 3.468700
17.793500 3.270400
17.811700 3.215900
17.829900 3.424400
17.848200 3.872800
17.866400 4.372400
17.884600 4.692900
17.902800 4.741800
17.921100 4.604100
17.939300 4.435800
17.957500 4.329700
17.975700 4.251600
17.994000 4.098800
18.012200 3.830000
18.030400 3.521100
18.048600 3.289700
18.066900 3.202700
18.085100 3.268600
18.103300 3.456600
18.121500 3.666500
18.139800 3.732100
18.158000 3.540300
18.176200 3.144100
18.194400 2.709900
18.212700 2.377800
18.230900 2.206900
18.249100 2.213500
18.267300 2.399300
18.285600 2.741900
18.303800 3.180200
18.322000 3.608800
18.340200 3.901100
18.358500 3.968900
18.376700 3.825200
18.394900 3.580600
18.413100 3.343400
18.431400 3.131800
18.449600 2.927300
18.467800 2.776400
18.486000 2.755400
18.504300 2.842200
18.522500 2.910600
18.540700 2.865400
18.558900 2.716300
18.577200 2.527300
18.595400 2.385100
18.613600 2.413200
18.631800 2.693800
18.650000 3.118100
18.668300 3.398000
18.686500 3.309500
18.704700 2.921000
18.722900 2.538900
18.741200 2.430000
18.759400 2.628000
18.777600 3.001800
18.795800 3.444600
18.814100 3.946700
18.832300 4.488900
18.850500 4.919300
18.868700 5.018800
18.887000 4.713700
18.905200 4.172800
18.923400 3.664400
18.941600 3.368100
18.959900 3.332700
18.978100 3.503800
18.996300 3.724300
19.014500 3.812600
19.032800 3.742500
19.051000 3.680700
19.069200 3.782500
19.087400 4.020500
19.105700 4.242900
19.123900 4.318800
19.142100 4.204300
19.160300 3.952700
19.178600 3.687600
19.196800 3.524500
19.215000 3.506200
19.233200 3.593500
19.251500 3.688200
19.269700 3.687500
19.287900 3.560300
19.306100 3.359100
19.324400 3.143500
19.342600 2.916400
19.360800 2.658600
19.379000 2.418600
19.397300 2.331900
19.415500 2.523800
19.433700 2.987700
19.451900 3.559500
19.470200 4.017100
19.488400 4.224700
19.506600 4.200800
19.524800 4.069200
19.543100 3.960800
19.561300 3.932900
19.579500 3.930800
19.597700 3.826700
19.616000 3.533800
19.634200 3.095000
19.652400 2.672300
19.670600 2.471400
19.688900 2.639000
19.707100 3.131100
19.725300 3.661500
19.743500 3.873300
19.761800 3.629900
19.780000 3.130300
19.798200 2.730200
19.816400 2.654700
19.834700 2.844000
19.852900 3.041000
19.871100 3.046900
19.889300 2.918900
19.907600 2.899300
19.925800 3.144900
19.944000 3.578100
19.962200 4.002300
19.980500 4.281700
19.998700 4.383900
20.016900 4.337300
20.035100 4.204200
20.053300 4.069000
20.071600 4.020400
20.089800 4.123700
20.108000 4.364200
20.126200 4.604000
20.144500 4.650000
20.162700 4.416700
20.180900 4.017000
20.199100 3.672900
20.217400 3.532800
20.235600 3.575200
20.253800 3.667500
20.272000 3.693700
20.290300 3.632300
20.308500 3.541500
20.326700 3.488700
20.344900 3.507100
20.363200 3.619600
20.381400 3.844100
20.399600 4.116900
20.417800 4.259200
20.436100 4.110800
20.454300 3.710300
20.472500 3.293100
20.490700 3.103300
20.509000 3.212900
20.527200 3.505900
20.545400 3.807600
20.563600 4.006600
20.581900 4.068500
20.600100 3.999300
20.618300 3.838500
20.636500 3.664000
20.654800 3.570300
20.673000 3.627100
20.691200 3.829700
20.709400 4.080000
20.727700 4.267100
20.745900 4.382100
20.764100 4.507600
20.782300 4.682300
20.800600 4.812500
20.818800 4.733800
20.837000 4.359600
20.855200 3.790200
20.873500 3.280300
20.891700 3.065600
20.909900 3.192400
20.928100 3.508100
20.946400 3.810400
20.964600 4.007600
20.982800 4.158500
21.001000 4.372400
21.019300 4.673700
21.037500 4.969400
21.055700 5.122600
21.073900 5.027300
21.092200 4.654600
21.110400 4.090700
21.128600 3.545800
21.146800 3.285600
21.165100 3.462500
21.183300 3.962000
21.201500 4.472300
21.219700 4.739800
21.238000 4.724300
21.256200 4.540200
21.274400 4.326900
21.292600 4.161100
21.310900 4.038900
21.329100 3.945600
21.347300 3.942000
21.365500 4.145000
21.383800 4.606900
21.402000 5.215000
21.420200 5.704000
21.438400 5.813900
21.456600 5.504200
21.474900 5.010200
21.493100 4.647600
21.511300 4.552000
21.529500 4.587000
21.547800 4.483700
21.566000 4.107300
21.584200 3.617200
21.602400 3.332800
21.620700 3.428800
21.638900 3.788000
21.657100 4.134200
21.675300 4.269700
21.693600 4.202000
21.711800 4.087100
21.730000 4.051100
21.748200 4.046400
21.766500 3.922400
21.784700 3.666600
21.802900 3.486800
21.821100 3.575100
21.839400 3.881100
21.857600 4.223600
21.875800 4.538900
21.894000 4.868200
21.912300 5.153900
21.930500 5.229200
21.948700 5.019200
21.966900 4.622200
21.985200 4.183200
22.003400 3.800700
22.021600 3.551800
22.039800 3.479100
22.058100 3.516200
22.076300 3.519800
22.094500 3.412700
22.112700 3.250100
22.131000 3.136200
22.149200 3.114200
22.167400 3.133800
22.185600 3.089300
22.203900 2.901300
22.222100 2.607700
22.240300 2.358100
22.258500 2.287700
22.276800 2.430500
22.295000 2.749600
22.313200 3.161000
22.331400 3.518900
22.349700 3.666400
22.367900 3.544600
22.386100 3.235000
22.404300 2.917100
22.422600 2.798400
22.440800 3.012100
22.459000 3.515200
22.477200 4.109600
22.495500 4.588700
22.513700 4.835100
22.531900 4.801100
22.550100 4.487300
22.568400 3.978200
22.586600 3.456000
22.604800 3.125200
22.623000 3.096300
22.641300 3.317800
22.659500 3.597900
22.677700 3.718500
22.695900 3.571500
22.714200 3.195500
22.732400 2.710200
22.750600 2.257100
22.768800 1.970800
22.787000 1.930600
22.805300 2.117800
22.823500 2.440700
22.841700 2.803500
22.859900 3.138800
22.878200 3.380500
22.896400 3.450700
22.914600 3.309600
22.932800 3.006500
22.951100 2.658900
22.969300 2.390300
22.987500 2.272300
23.005700 2.286800
23.024000 2.328100
23.042200 2.263700
23.060400 2.028200
23.078600 1.682400
23.096900 1.384200
23.115100 1.296300
23.133300 1.492100
23.151500 1.890300
23.169800 2.265900
23.188000 2.398300
23.206200 2.245100
23.224400 1.936700
23.242700 1.619300
23.260900 1.359800
23.279100 1.164000
23.297300 1.021700
23.315600 0.937600
23.333800 0.933400
23.352000 1.011400
23.370200 1.132300
23.388500 1.244900
23.406700 1.314900
23.424900 1.319600
23.443100 1.263100
23.461400 1.210900
23.479600 1.252300
23.497800 1.398700
23.516000 1.572000
23.534300 1.712300
23.552500 1.835200
23.570700 1.957100
23.588900 2.020100
23.607200 1.934000
23.625400 1.682900
23.643600 1.362800
23.661800 1.096100
23.680100 0.919500
23.698300 0.792300
23.716500 0.711300
23.734700 0.754000
23.753000 0.968700
23.771200 1.254900
23.789400 1.409300
23.807600 1.307700
23.825900 1.018200
23.844100 0.723200
23.862300 0.557100
23.880500 0.531200
23.898800 0.578700
23.917000 0.631900
23.935200 0.656400
23.953400 0.641200
23.971700 0.584500
23.989900 0.491200
24.008100 0.374800
24.026300 0.256000
24.044600 0.158500
24.062800 0.097200
24.081000 0.068700
24.099200 0.059400
24.117500 0.065100
24.135700 0.099500
24.153900 0.181900
24.172100 0.309900
24.190300 0.443200
24.208600 0.524100
24.226800 0.529100
24.245000 0.499300
24.263200 0.497600
24.281500 0.537900
24.299700 0.578600
24.317900 0.586600
24.336100 0.577100
24.354400 0.579700
24.372600 0.588100
24.390800 0.564900
24.409000 0.489500
24.427300 0.386200
24.445500 0.305000
24.463700 0.278500
24.481900 0.294800
24.500200 0.315100
24.518400 0.321200
24.536600 0.338200
24.554800 0.399600
24.573100 0.495100
24.591300 0.567300
24.609500 0.562000
24.627700 0.483100
24.646000 0.391900
24.664200 0.345300
24.682400 0.343400
24.700600 0.340600
24.718900 0.297900
24.737100 0.216500
24.755300 0.127500
24.773500 0.060000
24.791800 0.022300
24.810000 0.006600
24.828200 0.001800
24.846400 0.001800
24.864700 0.005000
24.882900 0.012700
24.901100 0.025000
24.919300 0.038000
24.937600 0.044600
24.955800 0.040300
24.974000 0.028200
24.992200 0.015800
25.010500 0.009100
25.028700 0.010300
25.046900 0.019100
25.065100 0.032200
25.083400 0.042700
25.101600 0.043700
25.119800 0.034500
25.138000 0.021000
25.156300 0.009900
25.174500 0.003600
25.192700 0.001000
25.210900 0.000200
25.229200 0.000000
25.247400 0.000000
25.265600 0.000000
25.283800 0.000000
25.302100 0.000000
25.320300 0.000000
25.338500 0.000000
25.356700 0.000000
25.375000 0.000000
25.393200 0.000000
25.411400 0.000000
25.429600 0.000000
25.447900 0.000000
25.466100 0.000000
25.484300 0.000000
25.502500 0.000000
25.520800 0.000000
25.539000 0.000000
25.557200 0.000000
25.575400 0.000000
25.593600 0.000000
25.611900 0.000000
25.630100 0.000000
25.648300 0.000000
25.666500 0.000000
25.684800 0.000000
25.703000 0.000000
25.721200 0.000000
25.739400 0.000000
25.757700 0.000000
25.775900 0.000000
25.794100 0.000000
25.812300 0.000000
25.830600 0.000000
25.848800 0.000000
25.867000 0.000000
25.885200 0.000000
25.903500 0.000000
25.921700 0.000000
25.939900 0.000000
25.958100 0.000000
25.976400 0.000000
25.994600 0.000000
26.012800 0.000000
26.031000 0.000000
26.049300 0.000000
26.067500 0.000000
26.085700 0.000000
26.103900 0.000000
26.122200 0.000000
26.140400 0.000000
26.158600 0.000000
26.176800 0.000000
26.195100 0.000000
26.213300 0.000000
26.231500 0.000000
26.249700 0.000000
26.268000 0.000000
26.286200 0.000000
26.304400 0.000000
26.322600 0.000000
26.340900 0.000000
26.359100 0.000000
26.377300 0.000000
26.395500 0.000000
26.413800 0.000000
26.432000 0.000000
26.450200 0.000000
26.468400 0.000000
26.486700 0.000000
26.504900 0.000000
26.523100 0.000000
26.541300 0.000000
26.559600 0.000000
26.577800 0.000000
26.596000 0.000000
26.614200 0.000000
26.632500 0.000000
26.650700 0.000000
26.668900 0.000000
26.687100 0.000000
26.705400 0.000000
26.723600 0.000000
26.741800 0.000000
e
