set title 'mp-1216530 - Density of States'
set xlabel 'Energy (eV)'
set ylabel 'DOS (states/eV)'
set grid
set xrange [-10:10]
set yrange [0:58.751]
set xzeroaxis lt -1
set terminal png size 800,600
set output 'mp-1216530_dos_gnuplot.png'
plot '-' using 1:2 with lines title 'DOS'
-13.616600 0.000000
-13.587600 0.000000
-13.558500 0.000000
-13.529500 0.000000
-13.500500 0.000000
-13.471500 0.000000
-13.442500 0.000000
-13.413400 0.000000
-13.384400 0.000000
-13.355400 0.000000
-13.326400 0.000000
-13.297400 0.000000
-13.268300 0.000000
-13.239300 0.000000
-13.210300 0.000000
-13.181300 0.000000
-13.152300 0.000000
-13.123200 0.000000
-13.094200 0.000000
-13.065200 0.000000
-13.036200 0.000000
-13.007200 0.000000
-12.978100 0.000000
-12.949100 0.000000
-12.920100 0.000000
-12.891100 0.000000
-12.862100 0.000000
-12.833000 0.000000
-12.804000 0.000000
-12.775000 0.000000
-12.746000 0.000000
-12.716900 0.000000
-12.687900 0.000000
-12.658900 0.000000
-12.629900 0.000000
-12.600900 0.000000
-12.571800 0.000000
-12.542800 0.000000
-12.513800 0.000000
-12.484800 0.000000
-12.455800 0.000000
-12.426700 0.000000
-12.397700 0.000000
-12.368700 0.000000
-12.339700 0.000000
-12.310700 0.000000
-12.281600 0.000000
-12.252600 0.000000
-12.223600 0.000000
-12.194600 0.000000
-12.165600 0.000000
-12.136500 0.000000
-12.107500 0.000000
-12.078500 0.000000
-12.049500 0.000000
-12.020500 0.000000
-11.991400 0.000000
-11.962400 0.000000
-11.933400 0.000000
-11.904400 0.000000
-11.875400 0.000000
-11.846300 0.000000
-11.817300 0.000000
-11.788300 0.000000
-11.759300 0.000000
-11.730300 0.000000
-11.701200 0.000000
-11.672200 0.000000
-11.643200 0.000000
-11.614200 0.000000
-11.585200 0.000000
-11.556100 0.000000
-11.527100 0.000000
-11.498100 0.000000
-11.469100 0.000000
-11.440100 0.000000
-11.411000 0.000000
-11.382000 0.000000
-11.353000 0.000000
-11.324000 0.000000
-11.295000 0.000000
-11.265900 0.000000
-11.236900 0.000000
-11.207900 0.000000
-11.178900 0.000000
-11.149900 0.000000
-11.120800 0.000000
-11.091800 0.000000
-11.062800 0.000000
-11.033800 0.000000
-11.004700 0.000000
-10.975700 4.520900
-10.946700 16.954600
-10.917700 41.963200
-10.888700 25.910300
-10.859600 64.468600
-10.830600 69.467900
-10.801600 143.455900
-10.772600 26.028900
-10.743600 17.240900
-10.714500 19.435700
-10.685500 4.722800
-10.656500 0.000000
-10.627500 0.000000
-10.598500 0.000000
-10.569400 0.000000
-10.540400 0.000000
-10.511400 0.000000
-10.482400 0.000000
-10.453400 0.000000
-10.424300 0.000000
-10.395300 0.000000
-10.366300 0.000000
-10.337300 0.000000
-10.308300 0.000000
-10.279200 0.000000
-10.250200 0.000000
-10.221200 0.000000
-10.192200 0.000000
-10.163200 0.000000
-10.134100 0.000000
-10.105100 0.000000
-10.076100 0.000000
-10.047100 0.000000
-10.018100 0.000000
-9.989000 0.000000
-9.960000 0.000000
-9.931000 0.000000
-9.902000 0.000000
-9.873000 0.000000
-9.843900 0.000000
-9.814900 0.000000
-9.785900 0.000000
-9.756900 0.000000
-9.727900 0.000000
-9.698800 0.000000
-9.669800 0.000000
-9.640800 0.000000
-9.611800 0.000000
-9.582800 0.000000
-9.553700 0.000000
-9.524700 0.000000
-9.495700 0.000000
-9.466700 0.000000
-9.437700 0.000000
-9.408600 0.000000
-9.379600 0.000000
-9.350600 0.000000
-9.321600 0.000000
-9.292600 0.000000
-9.263500 0.000000
-9.234500 0.000000
-9.205500 0.000000
-9.176500 0.000000
-9.147400 0.000000
-9.118400 0.000000
-9.089400 0.000000
-9.060400 0.000000
-9.031400 0.000000
-9.002300 0.000000
-8.973300 0.000000
-8.944300 0.000000
-8.915300 0.000000
-8.886300 0.000000
-8.857200 0.000000
-8.828200 0.000000
-8.799200 0.000000
-8.770200 0.000000
-8.741200 0.000000
-8.712100 0.000000
-8.683100 0.000000
-8.654100 0.000000
-8.625100 0.000000
-8.596100 0.000000
-8.567000 0.000000
-8.538000 0.000000
-8.509000 0.000000
-8.480000 0.000000
-8.451000 0.000000
-8.421900 0.000000
-8.392900 0.000000
-8.363900 0.000000
-8.334900 0.000000
-8.305900 0.000000
-8.276800 0.000000
-8.247800 0.000000
-8.218800 0.000000
-8.189800 0.000000
-8.160800 0.000000
-8.131700 0.000000
-8.102700 0.000000
-8.073700 0.000000
-8.044700 0.000000
-8.015700 0.000000
-7.986600 0.000000
-7.957600 0.000000
-7.928600 0.000000
-7.899600 0.000000
-7.870600 0.000000
-7.841500 0.000000
-7.812500 0.000000
-7.783500 0.000000
-7.754500 0.000000
-7.725500 0.000000
-7.696400 0.000000
-7.667400 0.000000
-7.638400 0.000000
-7.609400 0.000000
-7.580400 0.000000
-7.551300 0.000000
-7.522300 0.000000
-7.493300 0.000000
-7.464300 0.000000
-7.435200 0.000000
-7.406200 0.000000
-7.377200 0.000000
-7.348200 0.000000
-7.319200 0.000000
-7.290100 0.000000
-7.261100 0.000000
-7.232100 0.000000
-7.203100 0.000000
-7.174100 0.000000
-7.145000 0.000000
-7.116000 0.000000
-7.087000 0.000000
-7.058000 0.000000
-7.029000 0.000000
-6.999900 0.000000
-6.970900 0.000000
-6.941900 0.000000
-6.912900 0.000000
-6.883900 0.000000
-6.854800 0.000000
-6.825800 0.000000
-6.796800 0.000000
-6.767800 0.000000
-6.738800 0.000000
-6.709700 0.000000
-6.680700 0.000000
-6.651700 0.000000
-6.622700 0.000000
-6.593700 0.000000
-6.564600 0.000000
-6.535600 0.000000
-6.506600 0.000000
-6.477600 0.000000
-6.448600 0.000000
-6.419500 0.000000
-6.390500 0.000000
-6.361500 0.000000
-6.332500 0.000000
-6.303500 0.000000
-6.274400 0.000000
-6.245400 0.000000
-6.216400 0.000000
-6.187400 0.000000
-6.158400 0.000000
-6.129300 0.000000
-6.100300 0.000000
-6.071300 0.000000
-6.042300 0.000000
-6.013300 0.000000
-5.984200 0.000000
-5.955200 0.000000
-5.926200 0.000000
-5.897200 0.000000
-5.868200 0.000000
-5.839100 0.000000
-5.810100 0.000000
-5.781100 0.000000
-5.752100 0.000000
-5.723000 0.000000
-5.694000 0.000000
-5.665000 0.000000
-5.636000 0.000000
-5.607000 0.000000
-5.577900 0.000000
-5.548900 0.000000
-5.519900 0.000000
-5.490900 7.019600
-5.461900 8.720700
-5.432800 11.275000
-5.403800 18.555600
-5.374800 21.402000
-5.345800 19.818700
-5.316800 33.135100
-5.287700 21.367600
-5.258700 5.505800
-5.229700 32.607300
-5.200700 16.075800
-5.171700 53.410300
-5.142600 16.306900
-5.113600 25.182800
-5.084600 10.249900
-5.055600 16.725000
-5.026600 9.128600
-4.997500 6.756400
-4.968500 1.296000
-4.939500 0.000000
-4.910500 0.000000
-4.881500 0.000000
-4.852400 0.000000
-4.823400 0.000000
-4.794400 0.000000
-4.765400 0.000000
-4.736400 0.000000
-4.707300 0.000000
-4.678300 0.000000
-4.649300 0.000000
-4.620300 0.000000
-4.591300 0.000000
-4.562200 0.000000
-4.533200 0.000000
-4.504200 0.000000
-4.475200 0.000000
-4.446200 0.003600
-4.417100 0.035500
-4.388100 0.085300
-4.359100 0.143300
-4.330100 0.162500
-4.301100 0.174100
-4.272000 0.189900
-4.243000 0.205700
-4.214000 0.225300
-4.185000 0.245500
-4.156000 0.264200
-4.126900 0.283900
-4.097900 0.302700
-4.068900 0.317800
-4.039900 0.332000
-4.010900 0.347500
-3.981800 0.364700
-3.952800 0.391300
-3.923800 0.418300
-3.894800 0.441200
-3.865700 0.447300
-3.836700 0.424400
-3.807700 0.430900
-3.778700 0.437100
-3.749700 0.443100
-3.720600 0.448700
-3.691600 0.453800
-3.662600 0.455400
-3.633600 0.454400
-3.604600 0.453100
-3.575500 0.450500
-3.546500 0.448400
-3.517500 0.447100
-3.488500 0.447800
-3.459500 0.449800
-3.430400 0.451900
-3.401400 0.454200
-3.372400 0.456600
-3.343400 0.459000
-3.314400 0.461400
-3.285300 0.463600
-3.256300 0.465800
-3.227300 0.467700
-3.198300 0.469300
-3.169300 0.469700
-3.140200 0.470000
-3.111200 0.472300
-3.082200 0.473700
-3.053200 0.474600
-3.024200 0.475300
-2.995100 0.476200
-2.966100 0.477700
-2.937100 0.479700
-2.908100 0.481900
-2.879100 0.484200
-2.850000 0.486500
-2.821000 0.488800
-2.792000 0.491000
-2.763000 0.493300
-2.734000 0.495600
-2.704900 0.497800
-2.675900 0.499900
-2.646900 0.502100
-2.617900 0.504100
-2.588900 0.506100
-2.559800 0.508400
-2.530800 0.511200
-2.501800 0.514500
-2.472800 0.517800
-2.443800 0.521200
-2.414700 0.524500
-2.385700 0.528200
-2.356700 0.532100
-2.327700 0.536200
-2.298700 0.540500
-2.269600 0.545000
-2.240600 0.549700
-2.211600 0.554600
-2.182600 0.560000
-2.153500 0.565800
-2.124500 0.571800
-2.095500 0.578200
-2.066500 0.592200
-2.037500 0.622400
-2.008400 0.649900
-1.979400 0.672900
-1.950400 0.689100
-1.921400 0.706600
-1.892400 0.725100
-1.863300 0.741200
-1.834300 0.756800
-1.805300 0.775500
-1.776300 0.795300
-1.747300 0.815800
-1.718200 0.836000
-1.689200 0.854900
-1.660200 0.878400
-1.631200 0.906900
-1.602200 0.939300
-1.573100 0.975600
-1.544100 1.016700
-1.515100 1.063400
-1.486100 1.114600
-1.457100 1.300300
-1.428000 1.471900
-1.399000 1.449300
-1.370000 1.418500
-1.341000 1.426300
-1.312000 1.466700
-1.282900 1.550800
-1.253900 1.436000
-1.224900 1.105500
-1.195900 1.032400
-1.166900 0.964100
-1.137800 0.934400
-1.108800 0.933800
-1.079800 0.962400
-1.050800 0.990900
-1.021800 1.003100
-0.992700 0.998400
-0.963700 0.944300
-0.934700 0.875800
-0.905700 0.777000
-0.876700 0.626100
-0.847600 0.473900
-0.818600 0.320500
-0.789600 0.301500
-0.760600 0.307300
-0.731600 0.313900
-0.702500 0.320600
-0.673500 0.327300
-0.644500 0.333600
-0.615500 0.340000
-0.586500 0.346400
-0.557400 0.352900
-0.528400 0.359700
-0.499400 0.366700
-0.470400 0.373900
-0.441300 0.381200
-0.412300 0.388700
-0.383300 0.396300
-0.354300 0.404000
-0.325300 0.412100
-0.296200 0.425100
-0.267200 0.440400
-0.238200 0.457100
-0.209200 0.486100
-0.180200 0.506300
-0.151100 0.514400
-0.122100 0.510500
-0.093100 0.507200
-0.064100 0.514600
-0.035100 0.521000
-0.006000 0.526300
0.023000 0.530600
0.052000 0.529000
0.081000 0.527300
0.110000 0.528500
0.139100 0.532500
0.168100 0.538400
0.197100 0.544600
0.226100 0.550800
0.255100 0.556700
0.284200 0.562000
0.313200 0.566900
0.342200 0.571800
0.371200 0.576700
0.400200 0.581900
0.429300 0.589900
0.458300 0.598600
0.487300 0.607800
0.516300 0.617600
0.545300 0.628700
0.574400 0.641300
0.603400 0.655300
0.632400 0.670800
0.661400 0.688700
0.690400 0.709300
0.719500 0.732600
0.748500 0.761600
0.777500 0.811600
0.806500 0.893000
0.835500 1.016600
0.864600 1.104500
0.893600 1.068000
0.922600 1.078800
0.951600 1.140000
0.980600 1.184700
1.009700 1.201600
1.038700 1.195100
1.067700 1.191100
1.096700 1.182500
1.125700 1.187900
1.154800 1.205700
1.183800 1.259100
1.212800 1.270100
1.241800 1.277600
1.270900 1.309300
1.299900 1.322500
1.328900 1.292400
1.357900 1.221600
1.386900 1.251800
1.416000 1.314600
1.445000 1.451800
1.474000 1.258600
1.503000 1.164200
1.532000 1.053900
1.561100 0.886600
1.590100 0.826000
1.619100 0.231500
1.648100 0.106200
1.677100 0.022400
1.706200 0.000000
1.735200 0.000000
1.764200 0.000000
1.793200 0.000000
1.822200 0.000000
1.851300 0.000000
1.880300 0.000000
1.909300 0.000000
1.938300 0.000000
1.967300 0.000000
1.996400 0.000000
2.025400 0.000000
2.054400 0.000000
2.083400 0.000000
2.112400 0.000000
2.141500 0.000000
2.170500 0.000000
2.199500 0.000000
2.228500 0.000000
2.257500 0.000000
2.286600 0.000000
2.315600 0.000000
2.344600 0.000000
2.373600 0.000000
2.402600 0.000000
2.431700 0.000000
2.460700 0.000000
2.489700 0.000000
2.518700 0.000000
2.547700 0.000000
2.576800 0.000000
2.605800 0.000000
2.634800 0.000000
2.663800 0.000000
2.692800 0.000000
2.721900 0.000000
2.750900 0.000000
2.779900 0.005800
2.808900 0.014600
2.837900 0.025300
2.867000 0.038100
2.896000 0.052800
2.925000 0.069500
2.954000 0.088500
2.983000 0.126300
3.012100 0.178000
3.041100 0.214400
3.070100 0.239200
3.099100 0.255800
3.128200 0.262800
3.157200 0.264900
3.186200 0.282300
3.215200 0.303800
3.244200 0.324300
3.273300 0.334900
3.302300 0.340500
3.331300 0.348000
3.360300 0.360200
3.389300 0.379700
3.418400 0.398500
3.447400 0.417600
3.476400 0.436300
3.505400 0.454200
3.534400 0.471400
3.563500 0.488600
3.592500 0.507800
3.621500 0.531700
3.650500 0.555400
3.679500 0.574800
3.708600 0.590700
3.737600 0.607400
3.766600 0.633400
3.795600 0.667200
3.824600 0.701800
3.853700 0.725000
3.882700 0.746900
3.911700 0.767000
3.940700 0.783400
3.969700 0.797400
3.998800 0.811100
4.027800 0.829400
4.056800 0.849500
4.085800 0.871500
4.114800 0.895900
4.143900 0.922600
4.172900 0.951500
4.201900 0.981300
4.230900 1.019100
4.259900 1.069800
4.289000 1.123100
4.318000 1.175600
4.347000 1.200500
4.376000 1.198100
4.405000 1.193800
4.434100 1.204000
4.463100 1.219400
4.492100 1.251100
4.521100 1.285000
4.550100 1.321200
4.579200 1.358800
4.608200 1.417700
4.637200 1.395000
4.666200 1.370500
4.695200 1.359000
4.724300 1.359400
4.753300 1.426300
4.782300 1.477500
4.811300 1.514300
4.840400 1.574600
4.869400 1.624900
4.898400 1.645500
4.927400 1.638800
4.956400 1.650300
4.985500 1.617600
5.014500 1.559000
5.043500 1.484100
5.072500 1.413400
5.101500 1.350900
5.130600 1.293300
5.159600 1.262300
5.188600 1.219400
5.217600 1.179700
5.246600 1.157800
5.275700 1.116400
5.304700 1.053300
5.333700 1.012600
5.362700 1.010900
5.391700 1.021400
5.420800 1.025500
5.449800 1.026200
5.478800 1.023200
5.507800 1.016500
5.536800 1.006300
5.565900 1.192800
5.594900 1.003300
5.623900 1.014700
5.652900 1.072100
5.681900 1.072400
5.711000 1.135200
5.740000 0.910600
5.769000 0.904100
5.798000 0.908000
5.827000 0.918000
5.856100 0.929500
5.885100 0.941100
5.914100 0.952300
5.943100 0.963100
5.972100 0.973600
6.001200 1.008500
6.030200 1.039200
6.059200 1.047800
6.088200 1.074600
6.117200 1.023800
6.146300 0.967600
6.175300 0.928800
6.204300 0.906600
6.233300 0.893500
6.262300 0.886700
6.291400 0.895000
6.320400 0.916800
6.349400 0.926100
6.378400 0.945800
6.407400 0.969800
6.436500 0.968300
6.465500 0.927400
6.494500 0.950700
6.523500 0.979600
6.552600 0.992300
6.581600 0.997100
6.610600 1.002200
6.639600 1.007500
6.668600 1.015000
6.697700 1.029400
6.726700 1.050200
6.755700 1.076500
6.784700 1.102300
6.813700 1.116000
6.842800 1.127000
6.871800 1.136900
6.900800 1.144200
6.929800 1.150300
6.958800 1.159100
6.987900 1.172000
7.016900 1.213300
7.045900 1.166300
7.074900 1.140800
7.103900 1.137200
7.133000 1.134400
7.162000 1.133400
7.191000 1.136300
7.220000 1.139400
7.249000 1.138800
7.278100 1.139400
7.307100 1.141500
7.336100 1.144600
7.365100 1.146600
7.394100 1.147900
7.423200 1.148500
7.452200 1.148700
7.481200 1.149000
7.510200 1.158100
7.539200 1.177300
7.568300 1.177800
7.597300 1.171700
7.626300 1.159100
7.655300 1.140600
7.684300 1.118200
7.713400 1.106700
7.742400 1.103700
7.771400 1.100800
7.800400 1.096900
7.829400 1.091300
7.858500 1.081000
7.887500 1.068700
7.916500 1.057000
7.945500 1.048600
7.974500 1.042900
8.003600 1.039700
8.032600 1.038800
8.061600 1.059400
8.090600 1.087500
8.119600 1.092200
8.148700 1.114000
8.177700 1.135200
8.206700 1.154300
8.235700 1.174700
8.264700 1.196100
8.293800 1.216600
8.322800 1.238900
8.351800 1.259000
8.380800 1.278400
8.409900 1.301500
8.438900 1.320800
8.467900 1.337700
8.496900 1.386100
8.525900 1.418800
8.555000 1.380200
8.584000 1.380700
8.613000 1.387200
8.642000 1.397900
8.671000 1.412200
8.700100 1.424200
8.729100 1.422000
8.758100 1.425900
8.787100 1.433700
8.816100 1.443500
8.845200 1.454500
8.874200 1.472200
8.903200 1.494800
8.932200 1.528100
8.961200 1.563000
8.990300 1.593400
9.019300 1.616000
9.048300 1.637700
9.077300 1.668300
9.106300 1.680100
9.135400 1.683500
9.164400 1.690700
9.193400 1.705100
9.222400 1.695400
9.251400 1.629200
9.280500 1.632100
9.309500 1.636900
9.338500 1.654900
9.367500 1.662700
9.396500 1.659400
9.425600 1.647800
9.454600 1.626200
9.483600 1.590000
9.512600 1.556600
9.541600 1.524700
9.570700 1.499500
9.599700 1.481500
9.628700 1.453100
9.657700 1.421200
9.686700 1.390000
9.715800 1.365500
9.744800 1.344500
9.773800 1.328400
9.802800 1.321600
9.831800 1.365500
9.860900 1.417200
9.889900 1.436100
9.918900 1.325500
9.947900 1.314500
9.976900 1.301500
10.006000 1.288000
10.035000 1.284400
10.064000 1.292500
10.093000 1.284100
10.122100 1.278500
10.151100 1.280400
10.180100 1.281700
10.209100 1.294700
10.238100 1.302800
10.267200 1.297400
10.296200 1.260500
10.325200 1.367000
10.354200 1.222400
10.383200 1.220500
10.412300 1.225000
10.441300 1.235100
10.470300 1.250700
10.499300 1.270200
10.528300 1.294100
10.557400 1.325000
10.586400 1.348200
10.615400 1.357900
10.644400 1.358400
10.673400 1.356700
10.702500 1.346700
10.731500 1.327500
10.760500 1.319900
10.789500 1.328900
10.818500 1.356900
10.847600 1.376400
10.876600 1.385500
10.905600 1.358800
10.934600 1.328000
10.963600 1.305100
10.992700 1.298900
11.021700 1.300800
11.050700 1.307400
11.079700 1.312600
11.108700 1.317100
11.137800 1.320400
11.166800 1.322100
11.195800 1.322300
11.224800 1.321600
11.253800 1.319500
11.282900 1.311900
11.311900 1.302600
11.340900 1.290700
11.369900 1.274900
11.398900 1.257100
11.428000 1.239700
11.457000 1.224300
11.486000 1.206500
11.515000 1.190800
11.544000 1.178300
11.573100 1.169300
11.602100 1.162600
11.631100 1.159100
11.660100 1.154100
11.689100 1.150400
11.718200 1.149700
11.747200 1.152400
11.776200 1.157100
11.805200 1.168400
11.834300 1.181700
11.863300 1.192100
11.892300 1.200000
11.921300 1.205200
11.950300 1.200800
11.979400 1.188500
12.008400 1.171000
12.037400 1.151300
12.066400 1.130500
12.095400 1.107000
12.124500 1.084600
12.153500 1.067100
12.182500 1.053200
12.211500 1.041100
12.240500 1.029300
12.269600 1.013100
12.298600 1.007000
12.327600 0.999300
12.356600 0.987400
12.385600 0.983500
12.414700 0.984900
12.443700 0.972300
12.472700 0.943200
12.501700 0.927000
12.530700 0.916100
12.559800 0.904700
12.588800 0.895000
12.617800 0.897500
12.646800 0.877000
12.675800 0.862800
12.704900 0.854400
12.733900 0.853000
12.762900 0.859600
12.791900 1.012300
12.820900 1.002700
12.850000 0.987500
12.879000 0.978500
12.908000 0.975300
12.937000 0.976300
12.966000 0.980600
12.995100 0.987300
13.024100 1.006100
13.053100 1.049700
13.082100 1.002200
13.111100 1.007100
13.140200 1.022000
13.169200 1.040400
13.198200 1.058000
13.227200 1.071000
13.256200 1.072100
13.285300 1.075800
13.314300 1.082600
13.343300 1.091600
13.372300 1.101100
13.401300 1.108200
13.430400 1.112900
13.459400 1.115200
13.488400 1.120000
13.517400 1.135600
13.546500 1.153400
13.575500 1.170800
13.604500 1.185900
13.633500 1.199800
13.662500 1.219100
13.691600 1.290600
13.720600 1.271300
13.749600 1.292900
13.778600 1.312800
13.807600 1.330300
13.836700 1.343300
13.865700 1.348100
13.894700 1.349100
13.923700 1.351100
13.952700 1.355500
13.981800 1.349100
14.010800 1.347000
14.039800 1.357900
14.068800 1.378700
14.097800 1.402000
14.126900 1.422300
14.155900 1.438600
14.184900 1.450900
14.213900 1.467100
14.242900 1.491900
14.272000 1.549700
14.301000 1.632200
14.330000 1.634000
14.359000 1.659600
14.388000 1.658500
14.417100 1.657900
14.446100 1.659700
14.475100 1.664900
14.504100 1.687900
14.533100 1.636900
14.562200 1.624200
14.591200 1.612700
14.620200 1.598200
14.649200 1.577600
14.678200 1.561800
14.707300 1.551600
14.736300 1.542800
14.765300 1.541700
14.794300 1.548300
14.823300 1.556000
14.852400 1.558900
14.881400 1.555800
14.910400 1.567700
14.939400 1.583100
14.968400 1.624200
14.997500 1.671200
15.026500 1.685300
15.055500 1.671800
15.084500 1.645300
15.113500 1.677500
15.142600 1.682200
15.171600 1.632400
15.200600 1.652100
15.229600 1.722300
15.258600 1.762200
15.287700 1.791500
15.316700 1.820100
15.345700 1.849000
15.374700 1.878400
15.403800 1.909100
15.432800 1.934800
15.461800 1.961700
15.490800 1.984800
15.519800 1.997200
15.548900 2.001500
15.577900 2.006500
15.606900 2.025700
15.635900 2.047300
15.664900 2.066400
15.694000 2.081500
15.723000 2.144700
15.752000 2.095000
15.781000 1.961300
15.810000 1.824000
15.839100 1.793100
15.868100 1.804200
15.897100 1.808500
15.926100 1.812200
15.955100 1.756100
15.984200 1.698700
16.013200 1.710200
16.042200 1.750300
16.071200 1.783000
16.100200 1.807500
16.129300 1.816400
16.158300 1.814000
16.187300 1.778500
16.216300 1.740000
16.245300 1.703500
16.274400 1.612200
16.303400 1.519600
16.332400 1.541400
16.361400 1.445100
16.390400 1.236600
16.419500 1.131700
16.448500 1.073000
16.477500 1.019100
16.506500 0.977200
16.535500 0.937000
16.564600 0.900700
16.593600 0.870700
16.622600 0.847100
16.651600 0.826200
16.680600 0.808200
16.709700 0.793300
16.738700 0.795300
16.767700 0.772000
16.796700 0.768600
16.825700 0.794200
16.854800 0.811300
16.883800 0.831000
16.912800 0.850000
16.941800 0.869800
16.970800 0.890700
16.999900 0.910900
17.028900 0.930100
17.057900 0.949100
17.086900 0.968000
17.116000 0.985400
17.145000 1.005800
17.174000 1.038200
17.203000 1.076400
17.232000 1.111900
17.261100 1.146200
17.290100 1.178500
17.319100 1.198700
17.348100 1.226000
17.377100 1.254500
17.406200 1.278100
17.435200 1.306800
17.464200 1.336900
17.493200 1.379000
17.522200 1.443000
17.551300 1.520700
17.580300 1.603600
17.609300 1.604900
17.638300 1.591700
17.667300 1.581900
17.696400 1.586100
17.725400 1.595600
17.754400 1.650500
17.783400 1.686300
17.812400 1.713900
17.841500 1.725100
17.870500 1.730800
17.899500 1.743600
17.928500 1.807600
17.957500 1.908100
17.986600 2.001800
18.015600 2.087500
18.044600 1.797300
18.073600 1.706000
18.102600 1.698700
18.131700 1.720100
18.160700 1.819700
18.189700 1.979800
18.218700 1.886000
18.247700 1.887100
18.276800 1.867200
18.305800 1.839500
18.334800 1.839200
18.363800 1.804500
18.392800 1.745400
18.421900 1.674200
18.450900 1.620100
18.479900 1.583400
18.508900 1.572000
18.537900 1.549800
18.567000 1.508600
18.596000 1.462000
18.625000 1.441700
18.654000 1.444100
18.683000 1.477300
18.712100 1.523300
18.741100 1.581100
18.770100 1.670400
18.799100 1.775200
18.828200 1.824500
18.857200 1.829000
18.886200 1.840500
18.915200 1.870100
18.944200 1.985900
18.973300 2.099500
19.002300 2.159900
19.031300 2.178400
19.060300 2.205800
19.089300 2.244500
19.118400 2.255800
19.147400 2.256500
19.176400 2.147200
19.205400 2.138800
19.234400 2.133300
19.263500 2.047900
19.292500 1.989600
19.321500 1.966400
19.350500 1.929200
19.379500 1.893700
19.408600 1.884200
19.437600 1.889400
19.466600 1.906100
19.495600 1.974500
19.524600 2.047100
19.553700 2.009800
19.582700 2.049400
19.611700 2.069500
19.640700 2.115400
19.669700 2.220600
19.698800 2.263000
19.727800 2.395000
19.756800 2.398900
19.785800 2.471200
19.814800 2.429800
19.843900 2.344900
19.872900 2.209600
19.901900 2.203500
19.930900 2.216300
19.959900 2.213300
19.989000 2.208500
20.018000 2.210100
20.047000 2.218200
20.076000 2.241100
20.105000 2.282100
20.134100 2.556100
20.163100 2.627600
20.192100 2.755600
20.221100 2.773600
20.250100 2.774200
20.279200 2.705000
20.308200 2.710700
20.337200 2.718800
20.366200 2.737600
20.395200 2.783300
20.424300 2.750700
20.453300 2.679200
20.482300 2.626200
20.511300 2.600100
20.540300 2.598400
20.569400 2.623900
20.598400 2.663400
20.627400 2.674000
20.656400 2.638000
20.685500 2.610500
20.714500 2.531600
20.743500 2.486400
20.772500 2.448600
20.801500 2.422600
20.830600 2.396100
20.859600 2.370800
20.888600 2.356600
20.917600 2.349400
20.946600 2.354000
20.975700 2.371500
21.004700 2.364500
21.033700 2.389400
21.062700 2.428000
21.091700 2.508100
21.120800 2.582500
21.149800 2.649400
21.178800 2.740700
21.207800 2.809300
21.236800 2.799700
21.265900 2.793300
21.294900 2.765700
21.323900 2.722700
21.352900 2.662400
21.381900 2.618300
21.411000 2.600800
21.440000 2.585300
21.469000 2.580400
21.498000 2.607100
21.527000 2.672500
21.556100 2.510400
21.585100 2.465600
21.614100 2.434900
21.643100 2.419100
21.672100 2.407300
21.701200 2.402300
21.730200 2.381000
21.759200 2.346700
21.788200 2.327600
21.817200 2.315500
21.846300 2.308100
21.875300 2.302400
21.904300 2.300600
21.933300 2.306500
21.962300 2.318700
21.991400 2.348500
22.020400 2.430300
22.049400 2.377400
22.078400 2.389900
22.107400 2.406300
22.136500 2.409700
22.165500 2.397000
22.194500 2.394600
22.223500 2.390800
22.252500 2.390700
22.281600 2.365900
22.310600 2.329600
22.339600 2.311500
22.368600 2.342900
22.397700 2.396900
22.426700 2.438300
22.455700 2.482400
22.484700 2.482000
22.513700 2.463400
22.542800 2.479400
22.571800 2.484700
22.600800 2.514100
22.629800 2.568500
22.658800 2.622200
22.687900 2.672400
22.716900 2.670600
22.745900 2.696300
22.774900 2.672100
22.803900 2.655500
22.833000 2.655400
22.862000 2.661700
22.891000 2.668700
22.920000 2.642100
22.949000 2.481500
22.978100 2.467000
23.007100 2.458300
23.036100 2.446700
23.065100 2.443600
23.094100 2.446400
23.123200 2.453400
23.152200 2.473400
23.181200 2.517600
23.210200 2.575800
23.239200 2.633800
23.268300 2.680600
23.297300 2.717100
23.326300 2.688900
23.355300 2.710100
23.384300 2.650000
23.413400 2.629200
23.442400 2.615700
23.471400 2.583200
23.500400 2.566600
23.529400 2.569800
23.558500 2.557300
23.587500 2.504900
23.616500 2.491700
23.645500 2.543300
23.674500 2.519800
23.703600 2.471800
23.732600 2.421500
23.761600 2.373700
23.790600 2.332600
23.819600 2.300400
23.848700 2.270300
23.877700 2.245700
23.906700 2.247500
23.935700 2.240100
23.964700 2.218200
23.993800 2.219200
24.022800 2.236500
24.051800 2.255300
24.080800 2.268200
24.109900 2.278900
24.138900 2.283900
24.167900 2.285700
24.196900 2.307300
24.225900 2.318100
24.255000 2.312300
24.284000 2.325500
24.313000 2.352400
24.342000 2.365600
24.371000 2.412800
24.400100 2.480500
24.429100 2.575000
24.458100 2.501200
24.487100 2.405700
24.516100 2.432400
24.545200 2.467000
24.574200 2.384000
24.603200 2.382000
24.632200 2.390900
24.661200 2.392200
24.690300 2.341800
24.719300 2.320500
24.748300 2.338800
24.777300 2.388300
24.806300 2.361500
24.835400 2.288000
24.864400 2.307300
24.893400 2.313700
24.922400 2.343100
24.951400 2.380000
24.980500 2.416700
25.009500 2.464800
25.038500 2.516400
25.067500 2.608500
25.096500 2.739700
25.125600 2.742700
25.154600 2.629800
25.183600 2.591300
25.212600 2.593200
25.241600 2.598100
25.270700 2.615500
25.299700 2.664000
25.328700 2.767400
25.357700 2.877100
25.386700 2.948900
25.415800 2.977000
25.444800 2.988500
25.473800 3.013300
25.502800 3.005900
25.531800 2.979800
25.560900 2.980400
25.589900 3.008300
25.618900 3.030300
25.647900 2.964100
25.676900 2.923000
25.706000 2.911300
25.735000 2.881300
25.764000 2.876900
25.793000 2.892100
25.822100 2.925500
25.851100 2.969500
25.880100 2.933700
25.909100 2.919000
25.938100 2.919500
25.967200 2.934400
25.996200 2.975200
26.025200 3.027300
26.054200 3.060000
26.083200 3.089100
26.112300 3.099400
26.141300 3.093800
26.170300 3.075900
26.199300 3.071800
26.228300 3.040900
26.257400 3.133600
26.286400 3.082700
26.315400 3.009400
26.344400 2.914300
26.373400 2.853300
26.402500 2.797900
26.431500 2.734900
26.460500 2.683100
26.489500 2.612100
26.518500 2.309400
26.547600 2.269700
26.576600 2.278300
26.605600 2.225700
26.634600 2.228300
26.663600 2.251800
26.692700 2.270400
26.721700 2.289800
26.750700 2.321700
26.779700 2.389200
26.808700 2.489700
26.837800 2.640200
26.866800 2.764700
26.895800 2.843600
26.924800 2.895400
26.953800 2.901500
26.982900 2.884500
27.011900 2.827600
27.040900 2.730200
27.069900 2.623900
27.098900 2.526300
27.128000 2.468800
27.157000 2.438500
27.186000 2.451100
27.215000 2.454000
27.244000 2.465400
27.273100 2.395800
27.302100 2.283100
27.331100 2.206400
27.360100 2.165400
27.389100 2.136400
27.418200 2.120900
27.447200 2.116500
27.476200 2.130800
27.505200 2.149500
27.534200 2.138800
27.563300 2.161400
27.592300 1.977100
27.621300 1.937300
27.650300 1.922300
27.679400 1.903500
27.708400 1.879900
27.737400 1.844200
27.766400 1.810200
27.795400 1.795300
27.824500 1.788200
27.853500 1.789300
27.882500 1.792900
27.911500 1.794700
27.940500 1.793300
27.969600 1.788600
27.998600 1.780500
28.027600 1.769600
28.056600 1.762500
28.085600 1.757600
28.114700 1.752200
28.143700 1.760700
28.172700 1.765000
28.201700 1.777900
28.230700 1.798700
28.259800 1.827100
28.288800 1.833500
28.317800 1.817200
28.346800 1.933800
28.375800 1.899100
28.404900 1.910500
28.433900 1.939500
28.462900 1.972200
28.491900 2.004900
28.520900 2.034000
28.550000 2.064700
28.579000 2.095900
28.608000 2.126800
28.637000 2.156000
28.666000 2.221500
28.695100 2.249500
28.724100 2.267000
28.753100 2.285700
28.782100 2.310900
28.811100 2.337600
28.840200 2.362900
28.869200 2.351200
28.898200 2.371300
28.927200 2.441600
28.956200 2.411800
28.985300 2.342500
29.014300 2.308800
29.043300 2.287700
29.072300 2.252300
29.101300 2.213400
29.130400 2.183500
29.159400 2.156100
29.188400 2.129800
29.217400 2.118600
29.246400 2.135100
29.275500 2.172000
29.304500 2.259900
29.333500 2.160400
29.362500 2.123100
29.391600 2.152500
29.420600 2.096500
29.449600 2.068500
29.478600 2.068800
29.507600 2.089100
29.536700 2.102900
29.565700 2.133700
29.594700 2.183700
29.623700 2.255500
29.652700 2.360600
29.681800 2.466800
29.710800 2.576200
29.739800 2.702300
29.768800 2.948800
29.797800 2.825800
29.826900 2.720600
29.855900 2.601700
29.884900 2.464100
29.913900 2.354400
29.942900 2.339300
29.972000 2.358100
30.001000 2.351000
30.030000 2.336300
30.059000 2.308500
30.088000 2.269900
30.117100 2.232400
30.146100 2.250000
30.175100 2.269600
30.204100 2.421700
30.233100 2.665300
30.262200 2.740300
30.291200 2.784300
30.320200 2.804300
30.349200 2.822200
30.378200 2.728600
30.407300 2.589700
30.436300 2.507200
30.465300 2.504900
30.494300 2.463900
30.523300 2.213200
30.552400 2.073900
30.581400 2.022100
30.610400 2.002300
30.639400 1.972500
30.668400 1.932900
30.697500 1.905800
30.726500 1.957800
30.755500 1.991000
30.784500 2.056400
30.813500 2.176100
30.842600 2.295200
30.871600 2.423400
30.900600 2.570600
30.929600 2.744700
30.958600 2.782700
30.987700 2.792000
31.016700 2.719100
31.045700 2.621200
31.074700 2.513300
31.103800 2.416500
31.132800 2.342600
31.161800 2.295300
31.190800 2.270900
31.219800 2.289900
31.248900 2.348100
31.277900 2.442800
31.306900 2.600700
31.335900 2.705100
31.364900 2.862500
31.394000 3.198500
31.423000 3.409700
31.452000 3.645500
31.481000 3.867100
31.510000 3.904600
31.539100 3.959600
31.568100 4.226900
31.597100 4.278900
31.626100 3.992500
31.655100 3.778900
31.684200 3.796200
31.713200 3.492700
31.742200 3.355600
31.771200 3.255700
31.800200 3.451000
31.829300 3.576100
31.858300 3.899500
31.887300 3.733000
31.916300 4.000500
31.945300 4.034100
31.974400 3.832500
32.003400 3.551000
32.032400 3.326700
32.061400 3.447700
32.090400 3.521900
32.119500 3.750000
32.148500 3.736600
32.177500 3.794200
32.206500 4.274400
32.235500 4.177900
32.264600 4.317000
32.293600 4.164300
32.322600 4.037400
32.351600 4.157800
32.380600 4.077700
32.409700 3.881800
32.438700 3.945300
32.467700 3.669300
32.496700 3.625500
32.525700 3.931000
32.554800 4.610000
32.583800 3.967400
32.612800 3.896300
32.641800 3.887700
32.670800 3.885500
32.699900 3.986500
32.728900 3.958800
32.757900 4.037300
32.786900 3.763100
32.815900 3.612200
32.845000 3.570100
32.874000 3.534200
32.903000 3.397900
32.932000 3.279600
32.961100 3.129000
32.990100 3.033100
33.019100 2.969200
33.048100 2.922200
33.077100 2.866900
33.106200 2.819700
33.135200 2.789500
33.164200 2.771200
33.193200 2.750500
33.222200 2.726600
33.251300 2.714900
33.280300 2.717500
33.309300 2.718800
33.338300 2.716700
33.367300 2.726900
33.396400 2.741400
33.425400 2.774600
33.454400 2.832100
33.483400 2.904700
33.512400 2.997300
33.541500 3.114800
33.570500 3.351600
33.599500 3.416400
33.628500 3.420300
33.657500 3.572600
33.686600 3.489200
33.715600 3.364800
33.744600 3.265000
33.773600 3.187200
33.802600 3.152700
33.831700 2.861000
33.860700 2.877300
33.889700 2.907900
33.918700 2.828400
33.947700 2.706300
33.976800 2.635900
34.005800 2.590200
34.034800 2.563100
34.063800 2.576900
34.092800 2.596600
34.121900 2.624200
34.150900 2.641800
34.179900 2.635700
34.208900 2.627300
34.237900 2.638700
34.267000 2.625100
34.296000 2.587000
34.325000 2.532700
34.354000 2.478400
34.383000 2.428000
34.412100 2.374000
34.441100 2.312500
34.470100 2.265300
34.499100 2.253000
34.528100 2.236800
34.557200 2.223900
34.586200 2.180600
34.615200 2.148700
34.644200 2.137600
34.673300 2.124900
34.702300 2.155000
34.731300 2.108400
34.760300 2.090100
34.789300 2.103800
34.818400 2.122900
34.847400 2.149700
34.876400 2.128600
34.905400 2.172800
34.934400 2.216200
34.963500 2.256800
34.992500 2.275700
35.021500 2.285900
35.050500 2.286200
35.079500 2.293400
35.108600 2.314000
35.137600 2.318700
35.166600 2.318900
35.195600 2.260700
35.224600 2.275100
35.253700 2.147300
35.282700 2.103800
35.311700 2.062200
35.340700 2.046500
35.369700 2.207600
35.398800 2.186300
35.427800 2.252000
35.456800 2.321900
35.485800 2.488600
35.514800 2.654000
35.543900 2.716900
35.572900 2.687100
35.601900 2.490400
35.630900 2.499800
35.659900 2.563700
35.689000 2.663600
35.718000 2.714200
35.747000 2.749300
35.776000 2.802600
35.805000 2.903200
35.834100 2.992300
35.863100 3.104600
35.892100 3.082900
35.921100 3.066500
35.950100 3.265000
35.979200 3.525000
36.008200 3.465200
36.037200 3.447700
36.066200 3.493200
36.095200 3.656500
36.124300 3.898000
36.153300 4.132200
36.182300 4.355600
36.211300 4.568400
36.240300 4.573900
36.269400 4.504200
36.298400 4.191100
36.327400 4.278400
36.356400 4.069200
36.385500 3.710900
36.414500 3.245700
36.443500 3.355900
36.472500 3.500600
36.501500 3.821300
36.530600 3.750300
36.559600 3.627600
36.588600 3.612000
36.617600 3.549600
36.646600 3.602800
36.675700 3.609900
36.704700 3.794900
36.733700 3.557600
36.762700 3.845300
36.791700 4.026600
36.820800 4.105500
36.849800 4.116100
36.878800 4.183000
36.907800 4.064400
36.936800 3.888200
36.965900 3.659800
36.994900 3.460200
37.023900 3.349000
37.052900 3.350500
37.081900 3.352500
37.111000 3.183300
37.140000 2.989000
37.169000 2.814100
37.198000 2.982300
37.227000 3.092700
37.256100 3.276500
37.285100 3.113100
37.314100 2.986600
37.343100 2.909300
37.372100 2.892300
37.401200 2.862400
37.430200 2.987800
37.459200 3.065700
37.488200 3.016300
37.517200 2.998700
37.546300 2.989000
37.575300 2.962800
37.604300 2.911000
37.633300 2.820900
37.662300 2.769700
37.691400 2.731400
37.720400 2.640100
37.749400 2.575700
37.778400 2.506300
37.807400 2.449500
37.836500 2.401900
37.865500 2.325800
37.894500 2.161400
37.923500 2.008100
37.952500 1.855800
37.981600 1.750400
38.010600 1.653800
38.039600 1.612000
38.068600 1.554300
38.097700 1.430400
38.126700 1.305800
38.155700 1.204300
38.184700 1.114800
38.213700 1.035400
38.242800 0.992000
38.271800 0.967600
38.300800 0.951700
38.329800 0.940700
38.358800 0.944300
38.387900 0.946900
38.416900 0.946500
38.445900 0.976300
38.474900 0.927700
38.503900 0.909500
38.533000 0.838700
38.562000 0.797200
38.591000 0.771800
38.620000 0.690300
38.649000 0.598100
38.678100 0.537800
38.707100 0.494800
38.736100 0.465800
38.765100 0.443200
38.794100 0.422400
38.823200 0.399500
38.852200 0.374000
38.881200 0.355600
38.910200 0.342500
38.939200 0.329900
38.968300 0.318000
38.997300 0.307000
39.026300 0.296800
39.055300 0.287600
39.084300 0.279400
39.113400 0.272200
39.142400 0.265800
39.171400 0.260300
39.200400 0.255300
39.229400 0.250700
39.258500 0.246500
39.287500 0.242600
39.316500 0.238700
39.345500 0.234600
39.374500 0.230400
39.403600 0.225900
39.432600 0.221200
39.461600 0.215200
39.490600 0.207500
39.519600 0.197200
39.548700 0.182200
39.577700 0.170800
39.606700 0.167600
39.635700 0.164600
39.664700 0.161600
39.693800 0.158600
39.722800 0.155400
39.751800 0.152300
39.780800 0.149100
39.809800 0.145800
39.838900 0.142500
39.867900 0.139100
39.896900 0.135700
39.925900 0.132500
39.955000 0.129500
39.984000 0.127200
40.013000 0.126100
40.042000 0.126200
40.071000 0.126900
40.100100 0.127700
40.129100 0.128900
40.158100 0.130400
40.187100 0.132000
40.216100 0.133600
40.245200 0.137100
40.274200 0.147400
40.303200 0.155800
40.332200 0.162400
40.361200 0.167000
40.390300 0.169700
40.419300 0.170300
40.448300 0.169000
40.477300 0.165600
40.506300 0.160300
40.535400 0.152900
40.564400 0.145200
40.593400 0.143200
40.622400 0.143000
40.651400 0.142500
40.680500 0.142200
40.709500 0.140500
40.738500 0.136900
40.767500 0.131500
40.796500 0.124300
40.825600 0.125800
40.854600 0.128400
40.883600 0.125900
40.912600 0.117800
40.941600 0.104100
40.970700 0.092600
40.999700 0.083500
41.028700 0.076700
41.057700 0.072300
41.086700 0.069200
41.115800 0.065900
41.144800 0.062500
41.173800 0.058800
41.202800 0.055000
41.231800 0.048800
41.260900 0.036900
41.289900 0.028300
41.318900 0.023300
41.347900 0.020500
41.376900 0.017800
41.406000 0.015400
41.435000 0.013100
41.464000 0.011000
41.493000 0.009100
41.522000 0.007400
41.551100 0.005900
41.580100 0.004500
41.609100 0.003300
41.638100 0.002300
41.667200 0.001500
41.696200 0.000900
41.725200 0.000400
41.754200 0.000100
41.783200 0.000000
41.812300 0.000000
41.841300 0.000000
41.870300 0.000000
41.899300 0.000000
41.928300 0.000000
41.957400 0.000000
41.986400 0.000000
42.015400 0.000000
42.044400 0.000000
42.073400 0.000000
42.102500 0.000000
42.131500 0.000000
42.160500 0.000000
42.189500 0.000000
42.218500 0.000000
42.247600 0.000000
42.276600 0.000000
42.305600 0.000000
42.334600 0.000000
42.363600 0.000000
42.392700 0.000000
42.421700 0.000000
42.450700 0.000000
42.479700 0.000000
42.508700 0.000000
42.537800 0.000000
42.566800 0.000000
42.595800 0.000000
42.624800 0.000000
42.653800 0.000000
42.682900 0.000000
42.711900 0.000000
42.740900 0.000000
42.769900 0.000000
42.798900 0.000000
42.828000 0.000000
42.857000 0.000000
42.886000 0.000000
42.915000 0.000000
42.944000 0.000000
42.973100 0.000000
43.002100 0.000000
43.031100 0.000000
43.060100 0.000000
43.089100 0.000000
43.118200 0.000000
43.147200 0.000000
43.176200 0.000000
43.205200 0.000000
43.234200 0.000000
43.263300 0.000000
43.292300 0.000000
43.321300 0.000000
43.350300 0.000000
43.379400 0.000000
43.408400 0.000000
43.437400 0.000000
43.466400 0.000000
43.495400 0.000000
43.524500 0.000000
43.553500 0.000000
43.582500 0.000000
43.611500 0.000000
43.640500 0.000000
43.669600 0.000000
43.698600 0.000000
43.727600 0.000000
43.756600 0.000000
43.785600 0.000000
43.814700 0.000000
43.843700 0.000000
43.872700 0.000000
43.901700 0.000000
43.930700 0.000000
43.959800 0.000000
43.988800 0.000000
44.017800 0.000000
44.046800 0.000000
44.075800 0.000000
44.104900 0.000000
44.133900 0.000000
44.162900 0.000000
44.191900 0.000000
44.220900 0.000000
44.250000 0.000000
44.279000 0.000000
44.308000 0.000000
44.337000 0.000000
44.366000 0.000000
44.395100 0.000000
44.424100 0.000000
e
