set title 'mp-165 - Density of States'
set xlabel 'Energy (eV)'
set ylabel 'DOS (states/eV)'
set grid
set xrange [-10:10]
set yrange [0:4.507]
set xzeroaxis lt -1
set terminal png size 800,600
set output 'mp-165_dos_gnuplot.png'
plot '-' using 1:2 with lines title 'DOS'
-7.293400 0.000000
-7.281400 0.000000
-7.269500 0.000000
-7.257600 0.000000
-7.245700 0.000000
-7.233800 0.000000
-7.221900 0.000000
-7.209900 0.000000
-7.198000 0.000000
-7.186100 0.000000
-7.174200 0.000000
-7.162300 0.000000
-7.150300 0.000000
-7.138400 0.000000
-7.126500 0.000000
-7.114600 0.000000
-7.102700 0.000000
-7.090800 0.000000
-7.078800 0.000000
-7.066900 0.000000
-7.055000 0.000000
-7.043100 0.000000
-7.031200 0.000000
-7.019200 0.000000
-7.007300 0.000000
-6.995400 0.000000
-6.983500 0.000000
-6.971600 0.000000
-6.959600 0.000000
-6.947700 0.000000
-6.935800 0.000000
-6.923900 0.000000
-6.912000 0.000000
-6.900100 0.000000
-6.888100 0.000000
-6.876200 0.000000
-6.864300 0.000000
-6.852400 0.000000
-6.840500 0.000000
-6.828500 0.000000
-6.816600 0.000000
-6.804700 0.000000
-6.792800 0.000000
-6.780900 0.000000
-6.769000 0.000000
-6.757000 0.000000
-6.745100 0.000000
-6.733200 0.000000
-6.721300 0.000000
-6.709400 0.000000
-6.697400 0.000000
-6.685500 0.000000
-6.673600 0.000000
-6.661700 0.000000
-6.649800 0.000000
-6.637800 0.000000
-6.625900 0.000000
-6.614000 0.000000
-6.602100 0.000000
-6.590200 0.000000
-6.578300 0.000000
-6.566300 0.000000
-6.554400 0.000000
-6.542500 0.000000
-6.530600 0.000000
-6.518700 0.000000
-6.506700 0.000000
-6.494800 0.000000
-6.482900 0.000000
-6.471000 0.000000
-6.459100 0.000000
-6.447200 0.000000
-6.435200 0.000000
-6.423300 0.000000
-6.411400 0.000000
-6.399500 0.000000
-6.387600 0.000000
-6.375600 0.000000
-6.363700 0.000000
-6.351800 0.000000
-6.339900 0.000000
-6.328000 0.000000
-6.316000 0.000000
-6.304100 0.000000
-6.292200 0.000000
-6.280300 0.000000
-6.268400 0.000000
-6.256500 0.000000
-6.244500 0.000000
-6.232600 0.000000
-6.220700 0.000000
-6.208800 0.000100
-6.196900 0.013900
-6.184900 0.050900
-6.173000 0.110000
-6.161100 0.144400
-6.149200 0.156300
-6.137300 0.156400
-6.125400 0.175200
-6.113400 0.194500
-6.101500 0.214500
-6.089600 0.235200
-6.077700 0.253700
-6.065800 0.266100
-6.053800 0.271800
-6.041900 0.274500
-6.030000 0.282700
-6.018100 0.292900
-6.006200 0.303900
-5.994200 0.314900
-5.982300 0.325800
-5.970400 0.336800
-5.958500 0.347700
-5.946600 0.359200
-5.934700 0.371100
-5.922700 0.380200
-5.910800 0.387300
-5.898900 0.392800
-5.887000 0.398800
-5.875100 0.405600
-5.863100 0.412500
-5.851200 0.419100
-5.839300 0.425900
-5.827400 0.432900
-5.815500 0.440100
-5.803600 0.447400
-5.791600 0.455300
-5.779700 0.463400
-5.767800 0.471800
-5.755900 0.480400
-5.744000 0.489100
-5.732000 0.497800
-5.720100 0.505500
-5.708200 0.512000
-5.696300 0.517400
-5.684400 0.522300
-5.672400 0.527100
-5.660500 0.532500
-5.648600 0.538200
-5.636700 0.544000
-5.624800 0.549800
-5.612900 0.555600
-5.600900 0.561300
-5.589000 0.567100
-5.577100 0.573100
-5.565200 0.579400
-5.553300 0.586000
-5.541300 0.592600
-5.529400 0.599400
-5.517500 0.606100
-5.505600 0.612900
-5.493700 0.619700
-5.481800 0.626600
-5.469800 0.633400
-5.457900 0.639100
-5.446000 0.644300
-5.434100 0.649400
-5.422200 0.655000
-5.410200 0.660200
-5.398300 0.664900
-5.386400 0.669600
-5.374500 0.674700
-5.362600 0.680000
-5.350600 0.685300
-5.338700 0.690600
-5.326800 0.696000
-5.314900 0.701400
-5.303000 0.706900
-5.291100 0.712500
-5.279100 0.718100
-5.267200 0.723800
-5.255300 0.729500
-5.243400 0.735200
-5.231500 0.740900
-5.219500 0.746700
-5.207600 0.752600
-5.195700 0.758600
-5.183800 0.764600
-5.171900 0.770700
-5.160000 0.776800
-5.148000 0.782400
-5.136100 0.787600
-5.124200 0.792700
-5.112300 0.797900
-5.100400 0.803300
-5.088400 0.808600
-5.076500 0.813700
-5.064600 0.818700
-5.052700 0.823800
-5.040800 0.828900
-5.028800 0.834000
-5.016900 0.839100
-5.005000 0.844400
-4.993100 0.849700
-4.981200 0.855100
-4.969300 0.860600
-4.957300 0.866200
-4.945400 0.871900
-4.933500 0.877600
-4.921600 0.883300
-4.909700 0.889100
-4.897700 0.894900
-4.885800 0.900700
-4.873900 0.906600
-4.862000 0.912500
-4.850100 0.918500
-4.838200 0.924400
-4.826200 0.930500
-4.814300 0.936700
-4.802400 0.942800
-4.790500 0.948500
-4.778600 0.954100
-4.766600 0.959700
-4.754700 0.965500
-4.742800 0.971300
-4.730900 0.977000
-4.719000 0.982900
-4.707000 0.988800
-4.695100 0.994800
-4.683200 1.000900
-4.671300 1.007100
-4.659400 1.013300
-4.647500 1.019600
-4.635500 1.025900
-4.623600 1.032300
-4.611700 1.038800
-4.599800 1.045400
-4.587900 1.052100
-4.575900 1.059000
-4.564000 1.065900
-4.552100 1.072900
-4.540200 1.079900
-4.528300 1.087000
-4.516400 1.094200
-4.504400 1.101500
-4.492500 1.108800
-4.480600 1.116200
-4.468700 1.123700
-4.456800 1.131200
-4.444800 1.138700
-4.432900 1.146300
-4.421000 1.154100
-4.409100 1.162000
-4.397200 1.169900
-4.385200 1.178000
-4.373300 1.186800
-4.361400 1.196200
-4.349500 1.206100
-4.337600 1.215700
-4.325700 1.225500
-4.313700 1.235700
-4.301800 1.246400
-4.289900 1.257500
-4.278000 1.268900
-4.266100 1.280600
-4.254100 1.292500
-4.242200 1.304500
-4.230300 1.316700
-4.218400 1.329300
-4.206500 1.343600
-4.194600 1.359700
-4.182600 1.377200
-4.170700 1.395400
-4.158800 1.414400
-4.146900 1.434100
-4.135000 1.454600
-4.123000 1.475800
-4.111100 1.504800
-4.099200 1.559200
-4.087300 1.602500
-4.075400 1.619700
-4.063400 1.629100
-4.051500 1.638300
-4.039600 1.640000
-4.027700 1.638500
-4.015800 1.652300
-4.003900 1.694300
-3.991900 1.751900
-3.980000 1.740300
-3.968100 1.713000
-3.956200 1.702700
-3.944300 1.700400
-3.932300 1.692600
-3.920400 1.684000
-3.908500 1.679800
-3.896600 1.671900
-3.884700 1.659800
-3.872800 1.648100
-3.860800 1.639700
-3.848900 1.629300
-3.837000 1.617400
-3.825100 1.606100
-3.813200 1.595600
-3.801200 1.585400
-3.789300 1.575300
-3.777400 1.565600
-3.765500 1.557700
-3.753600 1.550400
-3.741600 1.542000
-3.729700 1.535600
-3.717800 1.530400
-3.705900 1.525300
-3.694000 1.520400
-3.682100 1.515700
-3.670100 1.512000
-3.658200 1.508500
-3.646300 1.504100
-3.634400 1.487600
-3.622500 1.469700
-3.610500 1.458300
-3.598600 1.451600
-3.586700 1.445000
-3.574800 1.437700
-3.562900 1.429100
-3.551000 1.419800
-3.539000 1.412400
-3.527100 1.405500
-3.515200 1.398200
-3.503300 1.390400
-3.491400 1.382200
-3.479400 1.373700
-3.467500 1.365100
-3.455600 1.356600
-3.443700 1.348200
-3.431800 1.339700
-3.419800 1.331000
-3.407900 1.321600
-3.396000 1.313400
-3.384100 1.305500
-3.372200 1.297800
-3.360300 1.290100
-3.348300 1.282700
-3.336400 1.275500
-3.324500 1.268200
-3.312600 1.261800
-3.300700 1.302300
-3.288700 1.281300
-3.276800 1.229600
-3.264900 1.218400
-3.253000 1.207200
-3.241100 1.196100
-3.229200 1.185600
-3.217200 1.175500
-3.205300 1.159800
-3.193400 1.151700
-3.181500 1.143700
-3.169600 1.135700
-3.157600 1.127900
-3.145700 1.120100
-3.133800 1.112300
-3.121900 1.104900
-3.110000 1.097700
-3.098000 1.088700
-3.086100 1.082100
-3.074200 1.075900
-3.062300 1.070100
-3.050400 1.064600
-3.038500 1.069300
-3.026500 1.070400
-3.014600 1.070300
-3.002700 1.069700
-2.990800 1.068700
-2.978900 1.067600
-2.966900 1.063800
-2.955000 1.058700
-2.943100 1.053700
-2.931200 1.048800
-2.919300 1.043900
-2.907400 1.039600
-2.895400 1.142900
-2.883500 1.105400
-2.871600 1.116800
-2.859700 1.131100
-2.847800 1.174000
-2.835800 1.225000
-2.823900 1.276800
-2.812000 1.349700
-2.800100 1.570300
-2.788200 1.272700
-2.776300 1.275600
-2.764300 1.278200
-2.752400 1.278800
-2.740500 1.277700
-2.728600 1.274900
-2.716700 1.273000
-2.704700 1.273900
-2.692800 1.265200
-2.680900 1.236600
-2.669000 1.209000
-2.657100 1.183900
-2.645100 1.161200
-2.633200 1.142600
-2.621300 1.364800
-2.609400 1.388900
-2.597500 1.351600
-2.585600 1.299600
-2.573600 1.225400
-2.561700 1.193200
-2.549800 1.166200
-2.537900 1.141700
-2.526000 1.118800
-2.514000 1.111600
-2.502100 1.153800
-2.490200 1.233900
-2.478300 1.264600
-2.466400 1.181100
-2.454500 1.045100
-2.442500 0.973200
-2.430600 0.905700
-2.418700 0.868200
-2.406800 0.828100
-2.394900 0.785500
-2.382900 0.742800
-2.371000 0.709800
-2.359100 0.685700
-2.347200 0.670200
-2.335300 0.649000
-2.323300 0.597200
-2.311400 0.557500
-2.299500 0.504600
-2.287600 0.455300
-2.275700 0.409700
-2.263800 0.367900
-2.251800 0.330200
-2.239900 0.295600
-2.228000 0.262600
-2.216100 0.231400
-2.204200 0.201800
-2.192200 0.173900
-2.180300 0.147700
-2.168400 0.123200
-2.156500 0.100300
-2.144600 0.079200
-2.132700 0.059700
-2.120700 0.041800
-2.108800 0.024900
-2.096900 0.011800
-2.085000 0.003400
-2.073100 0.000000
-2.061100 0.000000
-2.049200 0.000000
-2.037300 0.000200
-2.025400 0.001500
-2.013500 0.003800
-2.001500 0.007700
-1.989600 0.014700
-1.977700 0.025100
-1.965800 0.038600
-1.953900 0.055500
-1.942000 0.075600
-1.930000 0.098900
-1.918100 0.125500
-1.906200 0.155400
-1.894300 0.188900
-1.882400 0.228600
-1.870400 0.275300
-1.858500 0.329000
-1.846600 0.389700
-1.834700 0.461600
-1.822800 0.546200
-1.810900 0.623900
-1.798900 0.694200
-1.787000 0.818300
-1.775100 1.081100
-1.763200 1.099700
-1.751300 1.112100
-1.739300 1.149700
-1.727400 1.225400
-1.715500 1.285700
-1.703600 1.333800
-1.691700 1.343300
-1.679700 1.436000
-1.667800 1.625000
-1.655900 1.584400
-1.644000 1.447300
-1.632100 1.447600
-1.620200 1.444400
-1.608200 1.433100
-1.596300 1.437000
-1.584400 1.463600
-1.572500 1.511700
-1.560600 1.560700
-1.548600 1.606600
-1.536700 1.650400
-1.524800 1.715000
-1.512900 1.787100
-1.501000 1.867800
-1.489100 2.017800
-1.477100 2.131900
-1.465200 1.996800
-1.453300 1.814000
-1.441400 1.718600
-1.429500 1.642700
-1.417500 1.586800
-1.405600 1.546200
-1.393700 1.510300
-1.381800 1.478500
-1.369900 1.446700
-1.357900 1.430300
-1.346000 1.414000
-1.334100 1.396500
-1.322200 1.367800
-1.310300 1.346500
-1.298400 1.326100
-1.286400 1.305900
-1.274500 1.289700
-1.262600 1.279700
-1.250700 1.276500
-1.238800 1.290500
-1.226800 1.302100
-1.214900 1.316500
-1.203000 1.334000
-1.191100 1.353700
-1.179200 1.374500
-1.167300 1.398000
-1.155300 1.423400
-1.143400 1.451000
-1.131500 1.482400
-1.119600 1.524300
-1.107700 1.583700
-1.095700 1.665500
-1.083800 1.793400
-1.071900 1.771400
-1.060000 1.743400
-1.048100 1.711500
-1.036100 1.684000
-1.024200 1.655300
-1.012300 1.625300
-1.000400 1.594700
-0.988500 1.563600
-0.976600 1.539600
-0.964600 1.504400
-0.952700 1.467000
-0.940800 1.421000
-0.928900 1.366600
-0.917000 1.282300
-0.905000 1.204300
-0.893100 1.201000
-0.881200 1.197700
-0.869300 1.194600
-0.857400 1.191500
-0.845500 1.188600
-0.833500 1.185800
-0.821600 1.183100
-0.809700 1.180400
-0.797800 1.177700
-0.785900 1.175000
-0.773900 1.171200
-0.762000 1.168600
-0.750100 1.166200
-0.738200 1.163800
-0.726300 1.161100
-0.714300 1.158500
-0.702400 1.156800
-0.690500 1.155500
-0.678600 1.154300
-0.666700 1.153100
-0.654800 1.152000
-0.642800 1.150900
-0.630900 1.149700
-0.619000 1.148500
-0.607100 1.147400
-0.595200 1.146200
-0.583200 1.144200
-0.571300 1.141100
-0.559400 1.138200
-0.547500 1.144500
-0.535600 1.142900
-0.523700 1.141100
-0.511700 1.138600
-0.499800 1.135800
-0.487900 1.132400
-0.476000 1.126800
-0.464100 1.120000
-0.452100 1.105100
-0.440200 1.104800
-0.428300 1.104600
-0.416400 1.104400
-0.404500 1.104300
-0.392500 1.104600
-0.380600 1.105600
-0.368700 1.107300
-0.356800 1.109700
-0.344900 1.112900
-0.333000 1.115100
-0.321000 1.116000
-0.309100 1.116700
-0.297200 1.117400
-0.285300 1.117900
-0.273400 1.118300
-0.261400 1.118400
-0.249500 1.118400
-0.237600 1.124500
-0.225700 1.134800
-0.213800 1.138900
-0.201900 1.139000
-0.189900 1.139500
-0.178000 1.140700
-0.166100 1.142500
-0.154200 1.145400
-0.142300 1.147600
-0.130300 1.139000
-0.118400 1.145300
-0.106500 1.164500
-0.094600 1.188300
-0.082700 1.202800
-0.070700 1.206500
-0.058800 1.208200
-0.046900 1.203400
-0.035000 1.190100
-0.023100 1.168300
-0.011200 1.137900
0.000800 1.099000
0.012700 1.061200
0.024600 1.042600
0.036500 1.028100
0.048400 1.013900
0.060400 1.000100
0.072300 0.986400
0.084200 0.972500
0.096100 0.959000
0.108000 0.945800
0.119900 0.932400
0.131900 0.918200
0.143800 0.904400
0.155700 0.894500
0.167600 0.885200
0.179500 0.876300
0.191500 0.867800
0.203400 0.859700
0.215300 0.851800
0.227200 0.844300
0.239100 0.836900
0.251100 0.829700
0.263000 0.822600
0.274900 0.815700
0.286800 0.809000
0.298700 0.802400
0.310600 0.795900
0.322600 0.789900
0.334500 0.784000
0.346400 0.778200
0.358300 0.772400
0.370200 0.766700
0.382200 0.761000
0.394100 0.755300
0.406000 0.749700
0.417900 0.744100
0.429800 0.738700
0.441700 0.733400
0.453700 0.728200
0.465600 0.723000
0.477500 0.718000
0.489400 0.713100
0.501300 0.707800
0.513300 0.703400
0.525200 0.699100
0.537100 0.694800
0.549000 0.690600
0.560900 0.686500
0.572900 0.682300
0.584800 0.678300
0.596700 0.674300
0.608600 0.670300
0.620500 0.666300
0.632400 0.662400
0.644400 0.658500
0.656300 0.654700
0.668200 0.650900
0.680100 0.647200
0.692000 0.643400
0.704000 0.639800
0.715900 0.636200
0.727800 0.632600
0.739700 0.629000
0.751600 0.625600
0.763500 0.622500
0.775500 0.619700
0.787400 0.617100
0.799300 0.614800
0.811200 0.612600
0.823100 0.669600
0.835100 0.701500
0.847000 0.733900
0.858900 0.716900
0.870800 0.728800
0.882700 0.741700
0.894700 0.754900
0.906600 0.768400
0.918500 0.782200
0.930400 0.796100
0.942300 0.801900
0.954200 0.811200
0.966200 0.820600
0.978100 0.830100
0.990000 0.839900
1.001900 0.849900
1.013800 0.860100
1.025800 0.870300
1.037700 0.881000
1.049600 0.893000
1.061500 0.907700
1.073400 0.925200
1.085300 0.943400
1.097300 0.968400
1.109200 1.006200
1.121100 1.058400
1.133000 1.125000
1.144900 1.195300
1.156900 1.263400
1.168800 1.327400
1.180700 1.388300
1.192600 1.449800
1.204500 1.521900
1.216500 1.606000
1.228400 1.688800
1.240300 1.778600
1.252200 1.894300
1.264100 2.000700
1.276000 2.105500
1.288000 2.180000
1.299900 2.225200
1.311800 2.186600
1.323700 2.142500
1.335600 2.077400
1.347600 2.000800
1.359500 1.933200
1.371400 1.875900
1.383300 1.847000
1.395200 1.840000
1.407100 1.817700
1.419100 1.778300
1.431000 1.700200
1.442900 1.675600
1.454800 1.657900
1.466700 1.642700
1.478700 1.640600
1.490600 1.655400
1.502500 1.659100
1.514400 1.653300
1.526300 1.643000
1.538300 1.631900
1.550200 1.619400
1.562100 1.610900
1.574000 1.611100
1.585900 1.612200
1.597800 1.614100
1.609800 1.616900
1.621700 1.617700
1.633600 1.619100
1.645500 1.619300
1.657400 1.615700
1.669400 1.617200
1.681300 1.608200
1.693200 1.599200
1.705100 1.589500
1.717000 1.580000
1.728900 1.576500
1.740900 1.575200
1.752800 1.575500
1.764700 1.577400
1.776600 1.580600
1.788500 1.583800
1.800500 1.591400
1.812400 1.601200
1.824300 1.614900
1.836200 1.629800
1.848100 1.639300
1.860100 1.646800
1.872000 1.652500
1.883900 1.660100
1.895800 1.670500
1.907700 1.682700
1.919600 1.697800
1.931600 1.716300
1.943500 1.738500
1.955400 1.764100
1.967300 1.799700
1.979200 1.841800
1.991200 1.869600
2.003100 1.885400
2.015000 1.895600
2.026900 1.904400
2.038800 1.911700
2.050700 1.915100
2.062700 1.915200
2.074600 1.914500
2.086500 1.913800
2.098400 1.891700
2.110300 1.897100
2.122300 1.906400
2.134200 1.917000
2.146100 1.922000
2.158000 1.928300
2.169900 1.939100
2.181900 1.954800
2.193800 1.977200
2.205700 1.987800
2.217600 1.998900
2.229500 2.010400
2.241400 2.022400
2.253400 2.034800
2.265300 2.047300
2.277200 2.057800
2.289100 2.067300
2.301000 2.077500
2.313000 2.087700
2.324900 2.099500
2.336800 2.161900
2.348700 2.194000
2.360600 2.160200
2.372500 2.155800
2.384500 2.142400
2.396400 2.117700
2.408300 2.079700
2.420200 2.028500
2.432100 1.964500
2.444100 1.937600
2.456000 1.921600
2.467900 1.907500
2.479800 1.892700
2.491700 1.878800
2.503600 1.878100
2.515600 1.882400
2.527500 1.930600
2.539400 1.957900
2.551300 1.991500
2.563200 2.002100
2.575200 2.021100
2.587100 2.043500
2.599000 2.068600
2.610900 2.094100
2.622800 2.115000
2.634800 2.131900
2.646700 2.235800
2.658600 2.274900
2.670500 2.199500
2.682400 2.200400
2.694300 2.225900
2.706300 2.262900
2.718200 2.293900
2.730100 2.321800
2.742000 2.351900
2.753900 2.380600
2.765900 2.404800
2.777800 2.427700
2.789700 2.482400
2.801600 2.531200
2.813500 2.554500
2.825400 2.573100
2.837400 2.598800
2.849300 2.628400
2.861200 2.658400
2.873100 2.688500
2.885000 2.699300
2.897000 2.699600
2.908900 2.701700
2.920800 2.709000
2.932700 2.712000
2.944600 2.721000
2.956600 2.757000
2.968500 2.833100
2.980400 2.883000
2.992300 2.902500
3.004200 2.920500
3.016100 2.937100
3.028100 2.950200
3.040000 2.969500
3.051900 3.016100
3.063800 3.076200
3.075700 3.019600
3.087700 2.918800
3.099600 2.883000
3.111500 2.864500
3.123400 2.855800
3.135300 2.853500
3.147200 2.856700
3.159200 2.868500
3.171100 2.891200
3.183000 2.917600
3.194900 2.943800
3.206800 2.970300
3.218800 2.991100
3.230700 2.996400
3.242600 3.033100
3.254500 2.999600
3.266400 2.964500
3.278400 2.931000
3.290300 2.904300
3.302200 2.882500
3.314100 2.862100
3.326000 2.843200
3.337900 2.826200
3.349900 2.818200
3.361800 2.797800
3.373700 2.751300
3.385600 2.735400
3.397500 2.720800
3.409500 2.707600
3.421400 2.696400
3.433300 2.688400
3.445200 2.690900
3.457100 2.703800
3.469000 2.722000
3.481000 2.748600
3.492900 2.784200
3.504800 2.828000
3.516700 2.878000
3.528600 2.934300
3.540600 3.000600
3.552500 3.090900
3.564400 3.207300
3.576300 3.169500
3.588200 3.166000
3.600200 3.193600
3.612100 3.216200
3.624000 3.237500
3.635900 3.261200
3.647800 3.294300
3.659700 3.337300
3.671700 3.374000
3.683600 3.391900
3.695500 3.387200
3.707400 3.369500
3.719300 3.359800
3.731300 3.342600
3.743200 3.298100
3.755100 3.290900
3.767000 3.294400
3.778900 3.311200
3.790800 3.350300
3.802800 3.414400
3.814700 3.512200
3.826600 3.666400
3.838500 3.817900
3.850400 3.932400
3.862400 4.026700
3.874300 4.093900
3.886200 4.097500
3.898100 4.008800
3.910000 3.837300
3.922000 3.635700
3.933900 3.493300
3.945800 3.383300
3.957700 3.233400
3.969600 3.063400
3.981500 2.957500
3.993500 2.863600
4.005400 2.781000
4.017300 2.710100
4.029200 2.650600
4.041100 2.600700
4.053100 2.560100
4.065000 2.529900
4.076900 2.504900
4.088800 2.485300
4.100700 2.471600
4.112600 2.461000
4.124600 2.445800
4.136500 2.425400
4.148400 2.406200
4.160300 2.382300
4.172200 2.356800
4.184200 2.330400
4.196100 2.298600
4.208000 2.276800
4.219900 2.262700
4.231800 2.247400
4.243800 2.229900
4.255700 2.217800
4.267600 2.217000
4.279500 2.209700
4.291400 2.188400
4.303300 2.184200
4.315300 2.171600
4.327200 2.160300
4.339100 2.105100
4.351000 2.045100
4.362900 1.978200
4.374900 1.924600
4.386800 1.875100
4.398700 1.836800
4.410600 1.801600
4.422500 1.765000
4.434400 1.726000
4.446400 1.684700
4.458300 1.641100
4.470200 1.602500
4.482100 1.565800
4.494000 1.530300
4.506000 1.496000
4.517900 1.463300
4.529800 1.432500
4.541700 1.403200
4.553600 1.375700
4.565600 1.349500
4.577500 1.324700
4.589400 1.302300
4.601300 1.280300
4.613200 1.258800
4.625100 1.238400
4.637100 1.220300
4.649000 1.204600
4.660900 1.188700
4.672800 1.173100
4.684700 1.148200
4.696700 1.122000
4.708600 1.098500
4.720500 1.077600
4.732400 1.058800
4.744300 1.041800
4.756200 1.026100
4.768200 1.011200
4.780100 0.996100
4.792000 0.980900
4.803900 0.965600
4.815800 0.950500
4.827800 0.936000
4.839700 0.920700
4.851600 0.906300
4.863500 0.892300
4.875400 0.878800
4.887400 0.890300
4.899300 0.870100
4.911200 0.850800
4.923100 0.831700
4.935000 0.813500
4.946900 0.796400
4.958900 0.780500
4.970800 0.765600
4.982700 0.751000
4.994600 0.736900
5.006500 0.723100
5.018500 0.709800
5.030400 0.696500
5.042300 0.683100
5.054200 0.669800
5.066100 0.656400
5.078000 0.643900
5.090000 0.632300
5.101900 0.619900
5.113800 0.607600
5.125700 0.595500
5.137600 0.583800
5.149600 0.572300
5.161500 0.560600
5.173400 0.548900
5.185300 0.537200
5.197200 0.525600
5.209200 0.514100
5.221100 0.502700
5.233000 0.491300
5.244900 0.479500
5.256800 0.467300
5.268700 0.454800
5.280700 0.442200
5.292600 0.429700
5.304500 0.418400
5.316400 0.408500
5.328300 0.399400
5.340300 0.391000
5.352200 0.383000
5.364100 0.374600
5.376000 0.365100
5.387900 0.355800
5.399800 0.346500
5.411800 0.337200
5.423700 0.327700
5.435600 0.318300
5.447500 0.308900
5.459400 0.299600
5.471400 0.290400
5.483300 0.277900
5.495200 0.266400
5.507100 0.255900
5.519000 0.246300
5.531000 0.236600
5.542900 0.221600
5.554800 0.210700
5.566700 0.204900
5.578600 0.200200
5.590500 0.195400
5.602500 0.189800
5.614400 0.182700
5.626300 0.174200
5.638200 0.164400
5.650100 0.154500
5.662100 0.144800
5.674000 0.135400
5.685900 0.126300
5.697800 0.117500
5.709700 0.109000
5.721600 0.100700
5.733600 0.095100
5.745500 0.092500
5.757400 0.088500
5.769300 0.083200
5.781200 0.076400
5.793200 0.066700
5.805100 0.048200
5.817000 0.031900
5.828900 0.018900
5.840800 0.009300
5.852800 0.003100
5.864700 0.000200
5.876600 0.000000
5.888500 0.000000
5.900400 0.000000
5.912300 0.000000
5.924300 0.000000
5.936200 0.000000
5.948100 0.000000
5.960000 0.000000
5.971900 0.000000
5.983900 0.000000
5.995800 0.000000
6.007700 0.000000
6.019600 0.000000
6.031500 0.000000
6.043400 0.000000
6.055400 0.000000
6.067300 0.000000
6.079200 0.000000
6.091100 0.000000
6.103000 0.000000
6.115000 0.000000
6.126900 0.000000
6.138800 0.000000
6.150700 0.000000
6.162600 0.000000
6.174600 0.000000
6.186500 0.000000
6.198400 0.000000
6.210300 0.000000
6.222200 0.000000
6.234100 0.000000
6.246100 0.000000
6.258000 0.000000
6.269900 0.000000
6.281800 0.000000
6.293700 0.000000
6.305700 0.000000
6.317600 0.000000
6.329500 0.000000
6.341400 0.009600
6.353300 0.024400
6.365200 0.041800
6.377200 0.054800
6.389100 0.069200
6.401000 0.085000
6.412900 0.102000
6.424800 0.119600
6.436800 0.136700
6.448700 0.154000
6.460600 0.173300
6.472500 0.193800
6.484400 0.215800
6.496400 0.239400
6.508300 0.267400
6.520200 0.312800
6.532100 0.369500
6.544000 0.427800
6.555900 0.485100
6.567900 0.541500
6.579800 0.598800
6.591700 0.677600
6.603600 0.721500
6.615500 0.755400
6.627500 0.788000
6.639400 0.816600
6.651300 0.841200
6.663200 0.862500
6.675100 0.882000
6.687000 0.901100
6.699000 0.920100
6.710900 0.938200
6.722800 0.955300
6.734700 0.971600
6.746600 0.979200
6.758600 0.970500
6.770500 0.956300
6.782400 0.944400
6.794300 0.937300
6.806200 0.963600
6.818200 0.992000
6.830100 1.024500
6.842000 1.098300
6.853900 1.120800
6.865800 1.139200
6.877700 1.158600
6.889700 1.178800
6.901600 1.199600
6.913500 1.220500
6.925400 1.241600
6.937300 1.263200
6.949300 1.276900
6.961200 1.294500
6.973100 1.312100
6.985000 1.329300
6.996900 1.347100
7.008800 1.366800
7.020800 1.386000
7.032700 1.405400
7.044600 1.425100
7.056500 1.445200
7.068400 1.465700
7.080400 1.486500
7.092300 1.506300
7.104200 1.526400
7.116100 1.546900
7.128000 1.567600
7.140000 1.588900
7.151900 1.611900
7.163800 1.636800
7.175700 1.663300
7.187600 1.691800
7.199500 1.721100
7.211500 1.752400
7.223400 1.789300
7.235300 1.828500
7.247200 1.865700
7.259100 1.904400
7.271100 1.944900
7.283000 1.987200
7.294900 2.031300
7.306800 2.077400
7.318700 2.125500
7.330600 2.174800
7.342600 2.224100
7.354500 2.317000
7.366400 2.457800
7.378300 2.563700
7.390200 2.735300
7.402200 2.873400
7.414100 2.942000
7.426000 2.985400
7.437900 3.077600
7.449800 3.123600
7.461800 3.114200
7.473700 3.073000
7.485600 3.207600
7.497500 3.262400
7.509400 3.153100
7.521300 2.964400
7.533300 2.918700
7.545200 2.869900
7.557100 2.815700
7.569000 2.764400
7.580900 2.766200
7.592900 2.755200
7.604800 2.663500
7.616700 2.636000
7.628600 2.610500
7.640500 2.586800
7.652400 2.564900
7.664400 2.537400
7.676300 2.496900
7.688200 2.448100
7.700100 2.381500
7.712000 2.288400
7.724000 2.239700
7.735900 2.202200
7.747800 2.170100
7.759700 2.149700
7.771600 2.131700
7.783500 2.116300
7.795500 2.102300
7.807400 2.077100
7.819300 2.048600
7.831200 2.027100
7.843100 2.025200
7.855100 2.024000
7.867000 2.029500
7.878900 2.023800
7.890800 2.038600
7.902700 2.123700
7.914700 2.420400
7.926600 2.062800
7.938500 2.010700
7.950400 2.027200
7.962300 2.049600
7.974200 2.074300
7.986200 2.098800
7.998100 2.124500
8.010000 2.151000
8.021900 2.174400
8.033800 2.195900
8.045800 2.217800
8.057700 2.241200
8.069600 2.267800
8.081500 2.302500
8.093400 2.342200
8.105300 2.386100
8.117300 2.437200
8.129200 2.494700
8.141100 2.521900
8.153000 2.546300
8.164900 2.568100
8.176900 2.588700
8.188800 2.611100
8.200700 2.640500
8.212600 2.677800
8.224500 2.722900
8.236500 2.773000
8.248400 2.821700
8.260300 2.809300
8.272200 2.871500
8.284100 2.940100
8.296000 3.014500
8.308000 3.107100
8.319900 3.267200
8.331800 3.429300
8.343700 3.562800
8.355600 3.668100
8.367600 3.704400
8.379500 3.665600
8.391400 3.616300
8.403300 3.639600
8.415200 3.648000
8.427100 3.654800
8.439100 3.651800
8.451000 3.640600
8.462900 3.620400
8.474800 3.564800
8.486700 3.444300
8.498700 3.300900
8.510600 3.177500
8.522500 3.023500
8.534400 2.869000
8.546300 2.753100
8.558300 2.682800
8.570200 2.650800
8.582100 2.639900
8.594000 2.633600
8.605900 2.636000
8.617800 2.647400
8.629800 2.670300
8.641700 2.710800
8.653600 2.758800
8.665500 2.819500
8.677400 2.886300
8.689400 2.964100
8.701300 3.055100
8.713200 3.158900
8.725100 3.262400
8.737000 3.329600
8.748900 3.376100
8.760900 3.419000
8.772800 3.496100
8.784700 3.491700
8.796600 3.491100
8.808500 3.485600
8.820500 3.479500
8.832400 3.466900
8.844300 3.452200
8.856200 3.431600
8.868100 3.392900
8.880100 3.353000
8.892000 3.288200
8.903900 3.191700
8.915800 3.067600
8.927700 2.926400
8.939600 2.792400
8.951600 2.690300
8.963500 2.633800
8.975400 2.609400
8.987300 2.577700
8.999200 2.550200
9.011200 2.520800
9.023100 2.536500
9.035000 2.583800
9.046900 2.639400
9.058800 2.705500
9.070700 2.781100
9.082700 2.860300
9.094600 2.869100
9.106500 2.952400
9.118400 3.033800
9.130300 3.108700
9.142300 3.165800
9.154200 3.213500
9.166100 3.253800
9.178000 3.273100
9.189900 3.287000
9.201900 3.289400
9.213800 3.280700
9.225700 3.266400
9.237600 3.255000
9.249500 3.237400
9.261400 3.237100
9.273400 3.254900
9.285300 3.270000
9.297200 3.293100
9.309100 3.300300
9.321000 3.292700
9.333000 3.290600
9.344900 3.293800
9.356800 3.302700
9.368700 3.248200
9.380600 3.224900
9.392500 3.196500
9.404500 3.210800
9.416400 3.166700
9.428300 3.147700
9.440200 3.130000
9.452100 3.090200
9.464100 3.100900
9.476000 3.096200
9.487900 3.083700
9.499800 3.045900
9.511700 2.977900
9.523700 2.911400
9.535600 2.814900
9.547500 2.779900
9.559400 2.742300
9.571300 2.701000
9.583200 2.660800
9.595200 2.616200
9.607100 2.571400
9.619000 2.528700
9.630900 2.484900
9.642800 2.506100
9.654800 2.564000
9.666700 2.462600
9.678600 2.296100
9.690500 2.183300
9.702400 2.095100
9.714300 2.123000
9.726300 2.065300
9.738200 2.031600
9.750100 2.012800
9.762000 1.997800
9.773900 1.984700
9.785900 1.978300
9.797800 2.013200
9.809700 2.062200
9.821600 2.100700
9.833500 2.131700
9.845500 2.158500
9.857400 2.187900
9.869300 2.230100
9.881200 2.348000
9.893100 2.500900
9.905000 2.536900
9.917000 2.535000
9.928900 2.494300
9.940800 2.413400
9.952700 2.403500
9.964600 2.407500
9.976600 2.417500
9.988500 2.433100
10.000400 2.448000
10.012300 2.471700
10.024200 2.487600
10.036100 2.503600
10.048100 2.513600
10.060000 2.477400
10.071900 2.493600
10.083800 2.518400
10.095700 2.545700
10.107700 2.572400
10.119600 2.596700
10.131500 2.619600
10.143400 2.623500
10.155300 2.635000
10.167300 2.633000
10.179200 2.667800
10.191100 2.705500
10.203000 2.746300
10.214900 2.785200
10.226800 2.822500
10.238800 2.856800
10.250700 2.864000
10.262600 2.865500
10.274500 2.872600
10.286400 2.885200
10.298400 2.907700
10.310300 2.941200
10.322200 2.973600
10.334100 3.004500
10.346000 3.022200
10.357900 3.023500
10.369900 3.018900
10.381800 2.996100
10.393700 2.976800
10.405600 2.945900
10.417500 2.908000
10.429500 2.867000
10.441400 2.830500
10.453300 2.788800
10.465200 2.722500
10.477100 2.699300
10.489100 2.683600
10.501000 2.665000
10.512900 2.641300
10.524800 2.615300
10.536700 2.590100
10.548600 2.570000
10.560600 2.550700
10.572500 2.485300
10.584400 2.402500
10.596300 2.368200
10.608200 2.332100
10.620200 2.280600
10.632100 2.221900
10.644000 2.171000
10.655900 2.175200
10.667800 2.219600
10.679700 2.303100
10.691700 2.336000
10.703600 2.348500
10.715500 2.296400
10.727400 2.185800
10.739300 2.138800
10.751300 2.084100
10.763200 2.022200
10.775100 1.929500
10.787000 1.885800
10.798900 1.841600
10.810900 1.797500
10.822800 1.762700
10.834700 1.736600
10.846600 1.737800
10.858500 1.740400
10.870400 1.742400
10.882400 1.751700
10.894300 1.762800
10.906200 1.775800
10.918100 1.791900
10.930000 1.812100
10.942000 1.827400
10.953900 1.858200
10.965800 1.833600
10.977700 1.822700
10.989600 1.833900
11.001500 1.855200
11.013500 1.870400
11.025400 1.871800
11.037300 1.871400
11.049200 1.876400
11.061100 1.909200
11.073100 1.990300
11.085000 2.101100
11.096900 2.116300
11.108800 2.058900
11.120700 2.082800
11.132700 2.111600
11.144600 2.145000
11.156500 2.181700
11.168400 2.231300
11.180300 2.306300
11.192200 2.406500
11.204200 2.507900
11.216100 2.503600
11.228000 2.531200
11.239900 2.506800
11.251800 2.524300
11.263800 2.554900
11.275700 2.599100
11.287600 2.656100
11.299500 2.711000
11.311400 2.767000
11.323300 2.814000
11.335300 2.809200
11.347200 2.794100
11.359100 2.794700
11.371000 2.783200
11.382900 2.765200
11.394900 2.721500
11.406800 2.692100
11.418700 2.695400
11.430600 2.708500
11.442500 2.720300
11.454500 2.731700
11.466400 2.744500
11.478300 2.754400
11.490200 2.766300
11.502100 2.775400
11.514000 2.763000
11.526000 2.759900
11.537900 2.757800
11.549800 2.735400
11.561700 2.705000
11.573600 2.684700
11.585600 2.630000
11.597500 2.553400
11.609400 2.476400
11.621300 2.446800
11.633200 2.436100
11.645100 2.436500
11.657100 2.435800
11.669000 2.410500
11.680900 2.387600
11.692800 2.398000
11.704700 2.439300
11.716700 2.476800
11.728600 2.501700
11.740500 2.509300
11.752400 2.473100
11.764300 2.470900
11.776300 2.465800
11.788200 2.459500
11.800100 2.455500
11.812000 2.454500
11.823900 2.458600
11.835800 2.490100
11.847800 2.582000
11.859700 2.450300
11.871600 2.422400
11.883500 2.483000
11.895400 2.425300
11.907400 2.381700
11.919300 2.348800
11.931200 2.326300
11.943100 2.307400
11.955000 2.287600
11.966900 2.261700
11.978900 2.246200
11.990800 2.259100
12.002700 2.281100
12.014600 2.301000
12.026500 2.313400
12.038500 2.320900
12.050400 2.331400
12.062300 2.338200
12.074200 2.335400
12.086100 2.329300
12.098100 2.325100
12.110000 2.321000
12.121900 2.309900
12.133800 2.295900
12.145700 2.274600
12.157600 2.238800
12.169600 2.195200
12.181500 2.149500
12.193400 2.106400
12.205300 2.060100
12.217200 2.014600
12.229200 1.971000
12.241100 1.932400
12.253000 1.901900
12.264900 1.881000
12.276800 1.870000
12.288700 1.864400
12.300700 1.864000
12.312600 1.866700
12.324500 1.870200
12.336400 1.876500
12.348300 1.885300
12.360300 1.903800
12.372200 1.892400
12.384100 1.879000
12.396000 1.917500
12.407900 1.900100
12.419900 1.809500
12.431800 1.821900
12.443700 1.850900
12.455600 1.826100
12.467500 1.849300
12.479400 1.820600
12.491400 1.702000
12.503300 1.685900
12.515200 1.670400
12.527100 1.657200
12.539000 1.643800
12.551000 1.629900
12.562900 1.615300
12.574800 1.603600
12.586700 1.597700
12.598600 1.591500
12.610500 1.585300
12.622500 1.578100
12.634400 1.570200
12.646300 1.561400
12.658200 1.551700
12.670100 1.541200
12.682100 1.530400
12.694000 1.519000
12.705900 1.508600
12.717800 1.498700
12.729700 1.489100
12.741700 1.479200
12.753600 1.488100
12.765500 1.503000
12.777400 1.510700
12.789300 1.523800
12.801200 1.536700
12.813200 1.516100
12.825100 1.481600
12.837000 1.453900
12.848900 1.434000
12.860800 1.427200
12.872800 1.426200
12.884700 1.424400
12.896600 1.422000
12.908500 1.418900
12.920400 1.415100
12.932300 1.410600
12.944300 1.404600
12.956200 1.391400
12.968100 1.370500
12.980000 1.361300
12.991900 1.350900
13.003900 1.338200
13.015800 1.321700
13.027700 1.301000
13.039600 1.282600
13.051500 1.263200
13.063400 1.241000
13.075400 1.217900
13.087300 1.193600
13.099200 1.167700
13.111100 1.142500
13.123000 1.118400
13.135000 1.095500
13.146900 1.073700
13.158800 1.053100
13.170700 1.033600
13.182600 0.995000
13.194600 0.977100
13.206500 0.959400
13.218400 0.942100
13.230300 0.926200
13.242200 0.913400
13.254100 0.903700
13.266100 0.895600
13.278000 0.889200
13.289900 0.886200
13.301800 0.883400
13.313700 0.873800
13.325700 0.862400
13.337600 0.850500
13.349500 0.839900
13.361400 0.831000
13.373300 0.822100
13.385200 0.812400
13.397200 0.802300
13.409100 0.792500
13.421000 0.782800
13.432900 0.773400
13.444800 0.764400
13.456800 0.755200
13.468700 0.747300
13.480600 0.739300
13.492500 0.727500
13.504400 0.714800
13.516400 0.702000
13.528300 0.689200
13.540200 0.676200
13.552100 0.663300
13.564000 0.650600
13.575900 0.637900
13.587900 0.628200
13.599800 0.618900
13.611700 0.609500
13.623600 0.600200
13.635500 0.590600
13.647500 0.580900
13.659400 0.571400
13.671300 0.562200
13.683200 0.553500
13.695100 0.545400
13.707000 0.537700
13.719000 0.530600
13.730900 0.524000
13.742800 0.518000
13.754700 0.512100
13.766600 0.506200
13.778600 0.500400
13.790500 0.494700
13.802400 0.489000
13.814300 0.483200
13.826200 0.477500
13.838200 0.471800
13.850100 0.466200
13.862000 0.460400
13.873900 0.454300
13.885800 0.448000
13.897700 0.441500
13.909700 0.434900
13.921600 0.428100
13.933500 0.421100
13.945400 0.414000
13.957300 0.406900
13.969300 0.399900
13.981200 0.395700
13.993100 0.405200
14.005000 0.395600
14.016900 0.386200
14.028800 0.376900
14.040800 0.367700
14.052700 0.358700
14.064600 0.349900
14.076500 0.341200
14.088400 0.332700
14.100400 0.324300
14.112300 0.316000
14.124200 0.308000
14.136100 0.301200
14.148000 0.294900
14.160000 0.288600
14.171900 0.282400
14.183800 0.276100
14.195700 0.269900
14.207600 0.264300
14.219500 0.259700
14.231500 0.256000
14.243400 0.252200
14.255300 0.246500
14.267200 0.240700
14.279100 0.234900
14.291100 0.229100
14.303000 0.223500
14.314900 0.218800
14.326800 0.214100
14.338700 0.209400
14.350600 0.204600
14.362600 0.199900
14.374500 0.195000
14.386400 0.190200
14.398300 0.185400
14.410200 0.180500
14.422200 0.175600
14.434100 0.170800
14.446000 0.165900
14.457900 0.161000
14.469800 0.155700
14.481800 0.139600
14.493700 0.136500
14.505600 0.134100
14.517500 0.131600
14.529400 0.128900
14.541300 0.126200
14.553300 0.123300
14.565200 0.120400
14.577100 0.117300
14.589000 0.114100
14.600900 0.110900
14.612900 0.107500
14.624800 0.104100
14.636700 0.100500
14.648600 0.096900
14.660500 0.093100
14.672400 0.089200
14.684400 0.085400
14.696300 0.081900
14.708200 0.079000
14.720100 0.076500
14.732000 0.074700
14.744000 0.073000
14.755900 0.071300
14.767800 0.069700
14.779700 0.068100
14.791600 0.066500
14.803600 0.065000
14.815500 0.063500
14.827400 0.062000
14.839300 0.060600
14.851200 0.059100
14.863100 0.057700
14.875100 0.056300
14.887000 0.054900
14.898900 0.053600
14.910800 0.052200
14.922700 0.050900
14.934700 0.049600
14.946600 0.048300
14.958500 0.047000
14.970400 0.045800
14.982300 0.044500
14.994200 0.043300
15.006200 0.042100
15.018100 0.040900
15.030000 0.039700
15.041900 0.038600
15.053800 0.037400
15.065800 0.036300
15.077700 0.035200
15.089600 0.034100
15.101500 0.033100
15.113400 0.032000
15.125400 0.031000
15.137300 0.029900
15.149200 0.028900
15.161100 0.027900
15.173000 0.027000
15.184900 0.026000
15.196900 0.025100
15.208800 0.024200
15.220700 0.023300
15.232600 0.022400
15.244500 0.021500
15.256500 0.020700
15.268400 0.019800
15.280300 0.019000
15.292200 0.018200
15.304100 0.017400
15.316000 0.016700
15.328000 0.015900
15.339900 0.015200
15.351800 0.014500
15.363700 0.013800
15.375600 0.013100
15.387600 0.012400
15.399500 0.011500
15.411400 0.010200
15.423300 0.008400
15.435200 0.006100
15.447200 0.003400
15.459100 0.000300
15.471000 0.000000
15.482900 0.000000
15.494800 0.000000
15.506700 0.000000
15.518700 0.000000
15.530600 0.000000
15.542500 0.000000
15.554400 0.000000
15.566300 0.000000
15.578300 0.000000
15.590200 0.000000
15.602100 0.000000
15.614000 0.000000
15.625900 0.000000
15.637800 0.000000
15.649800 0.000000
15.661700 0.000000
15.673600 0.000000
15.685500 0.000000
15.697400 0.000000
15.709400 0.000000
15.721300 0.000000
15.733200 0.000000
15.745100 0.000000
15.757000 0.000000
15.769000 0.000000
15.780900 0.000000
15.792800 0.000000
15.804700 0.000000
15.816600 0.000000
15.828500 0.000000
15.840500 0.000000
15.852400 0.000000
15.864300 0.000000
15.876200 0.000000
15.888100 0.000000
15.900100 0.000000
15.912000 0.000000
15.923900 0.000000
15.935800 0.000000
15.947700 0.000000
15.959600 0.000000
15.971600 0.000000
15.983500 0.000000
15.995400 0.000000
16.007300 0.000000
16.019200 0.000000
16.031200 0.000000
16.043100 0.000000
16.055000 0.000000
16.066900 0.000000
16.078800 0.000000
16.090800 0.000000
16.102700 0.000000
16.114600 0.000000
16.126500 0.000000
16.138400 0.000000
16.150300 0.000000
16.162300 0.000000
16.174200 0.000000
16.186100 0.000000
16.198000 0.000000
16.209900 0.000000
16.221900 0.000000
16.233800 0.000000
16.245700 0.000000
16.257600 0.000000
16.269500 0.000000
16.281400 0.000000
16.293400 0.000000
16.305300 0.000000
16.317200 0.000000
16.329100 0.000000
16.341000 0.000000
16.353000 0.000000
16.364900 0.000000
16.376800 0.000000
16.388700 0.000000
16.400600 0.000000
16.412600 0.000000
16.424500 0.000000
16.436400 0.000000
16.448300 0.000000
16.460200 0.000000
16.472100 0.000000
16.484100 0.000000
16.496000 0.000000
16.507900 0.000000
16.519800 0.000000
16.531700 0.000000
16.543700 0.000000
e
