set title 'mp-1183164 - Density of States'
set xlabel 'Energy (eV)'
set ylabel 'DOS (states/eV)'
set grid
set xrange [-10:10]
set yrange [0:13.061]
set xzeroaxis lt -1
set terminal png size 800,600
set output 'mp-1183164_dos_gnuplot.png'
plot '-' using 1:2 with lines title 'DOS'
-11.090000 0.000000
-11.063900 0.000000
-11.037800 0.000000
-11.011800 0.000000
-10.985700 0.000000
-10.959700 0.000000
-10.933600 0.000000
-10.907500 0.000000
-10.881500 0.000000
-10.855400 0.000000
-10.829300 0.000000
-10.803300 0.000000
-10.777200 0.000000
-10.751200 0.000000
-10.725100 0.000000
-10.699000 0.000000
-10.673000 0.000000
-10.646900 0.000000
-10.620800 0.000000
-10.594800 0.000000
-10.568700 0.000000
-10.542600 0.000000
-10.516600 0.000000
-10.490500 0.000000
-10.464500 0.000000
-10.438400 0.000000
-10.412300 0.000000
-10.386300 0.000000
-10.360200 0.000000
-10.334100 0.000000
-10.308100 0.000000
-10.282000 0.000000
-10.256000 0.000000
-10.229900 0.000000
-10.203800 0.000000
-10.177800 0.000000
-10.151700 0.000000
-10.125600 0.000000
-10.099600 0.000000
-10.073500 0.000000
-10.047500 0.000000
-10.021400 0.000000
-9.995300 0.000000
-9.969300 0.000000
-9.943200 0.000000
-9.917100 0.000000
-9.891100 0.000000
-9.865000 0.000000
-9.838900 0.000000
-9.812900 0.000000
-9.786800 0.000000
-9.760800 0.000000
-9.734700 0.000000
-9.708600 0.000000
-9.682600 0.000000
-9.656500 0.000000
-9.630400 0.000000
-9.604400 0.000000
-9.578300 0.000000
-9.552300 0.000000
-9.526200 0.000000
-9.500100 0.000000
-9.474100 0.000000
-9.448000 0.000000
-9.421900 0.000000
-9.395900 0.000000
-9.369800 0.000000
-9.343800 0.000000
-9.317700 0.000000
-9.291600 0.000000
-9.265600 0.000000
-9.239500 0.000000
-9.213400 0.000000
-9.187400 0.000000
-9.161300 0.000000
-9.135200 0.000000
-9.109200 0.000000
-9.083100 0.000000
-9.057100 0.000000
-9.031000 0.000000
-9.004900 0.000000
-8.978900 0.000000
-8.952800 0.000000
-8.926700 0.000000
-8.900700 0.000000
-8.874600 0.000000
-8.848600 0.000000
-8.822500 0.000000
-8.796400 0.000000
-8.770400 0.000000
-8.744300 0.000000
-8.718200 0.000300
-8.692200 0.040400
-8.666100 0.142000
-8.640000 0.184700
-8.614000 0.199000
-8.587900 0.237600
-8.561900 0.278300
-8.535800 0.312800
-8.509700 0.336100
-8.483700 0.354900
-8.457600 0.380400
-8.431500 0.407700
-8.405500 0.435300
-8.379400 0.463000
-8.353400 0.487700
-8.327300 0.513400
-8.301200 0.540700
-8.275200 0.565500
-8.249100 0.590400
-8.223000 0.616800
-8.197000 0.643800
-8.170900 0.673300
-8.144900 0.703600
-8.118800 0.734000
-8.092700 0.764800
-8.066700 0.796600
-8.040600 0.829000
-8.014500 0.861800
-7.988500 0.898400
-7.962400 0.936200
-7.936300 0.975000
-7.910300 1.014700
-7.884200 1.057200
-7.858200 1.103000
-7.832100 1.149700
-7.806000 1.198600
-7.780000 1.253600
-7.753900 1.314100
-7.727800 1.376400
-7.701800 1.440500
-7.675700 1.506900
-7.649700 1.576000
-7.623600 1.659200
-7.597500 1.752500
-7.571500 1.855500
-7.545400 1.972500
-7.519300 2.107800
-7.493300 2.247200
-7.467200 2.397800
-7.441200 2.560500
-7.415100 2.760700
-7.389000 3.155600
-7.363000 3.674900
-7.336900 4.128000
-7.310800 4.107900
-7.284800 4.279800
-7.258700 4.218200
-7.232600 4.399700
-7.206600 4.525400
-7.180500 4.594400
-7.154500 4.648000
-7.128400 4.737600
-7.102300 5.016700
-7.076300 5.145400
-7.050200 5.238600
-7.024100 5.486600
-6.998100 5.950200
-6.972000 6.782500
-6.946000 8.821000
-6.919900 10.377400
-6.893800 4.217000
-6.867800 0.000000
-6.841700 0.000000
-6.815600 0.000000
-6.789600 0.000000
-6.763500 0.000000
-6.737500 0.000000
-6.711400 0.000000
-6.685300 0.000000
-6.659300 0.000000
-6.633200 0.000000
-6.607100 0.000000
-6.581100 0.000000
-6.555000 0.000000
-6.528900 0.000000
-6.502900 0.000000
-6.476800 0.000000
-6.450800 0.000000
-6.424700 0.000000
-6.398600 0.000000
-6.372600 0.000000
-6.346500 0.000000
-6.320400 0.000000
-6.294400 0.000000
-6.268300 0.000000
-6.242300 0.000000
-6.216200 0.000000
-6.190100 0.000000
-6.164100 0.000000
-6.138000 0.000000
-6.111900 0.000000
-6.085900 0.000000
-6.059800 0.000000
-6.033800 0.000000
-6.007700 0.000000
-5.981600 0.000000
-5.955600 0.000000
-5.929500 0.000000
-5.903400 0.000000
-5.877400 0.000000
-5.851300 0.000000
-5.825200 0.000000
-5.799200 0.000000
-5.773100 0.000000
-5.747100 0.000000
-5.721000 0.000000
-5.694900 0.000000
-5.668900 0.000000
-5.642800 0.000000
-5.616700 0.000000
-5.590700 0.000000
-5.564600 0.000000
-5.538600 0.000000
-5.512500 0.000000
-5.486400 0.000000
-5.460400 0.000000
-5.434300 0.000000
-5.408200 0.000000
-5.382200 0.000000
-5.356100 0.000000
-5.330100 0.000000
-5.304000 0.000000
-5.277900 0.000000
-5.251900 0.000000
-5.225800 0.000000
-5.199700 0.000000
-5.173700 0.000000
-5.147600 0.000000
-5.121500 0.000000
-5.095500 0.000000
-5.069400 0.000000
-5.043400 0.000000
-5.017300 0.000000
-4.991200 0.000000
-4.965200 0.000000
-4.939100 0.000000
-4.913000 0.000000
-4.887000 0.000000
-4.860900 0.000000
-4.834900 0.000000
-4.808800 0.000000
-4.782700 0.000000
-4.756700 0.000000
-4.730600 0.000000
-4.704500 0.000000
-4.678500 0.000000
-4.652400 0.000000
-4.626400 0.000000
-4.600300 0.000000
-4.574200 0.000000
-4.548200 0.000000
-4.522100 0.000000
-4.496000 0.000000
-4.470000 0.000000
-4.443900 0.000000
-4.417800 0.000000
-4.391800 0.000000
-4.365700 0.000000
-4.339700 0.000000
-4.313600 0.000000
-4.287500 0.000000
-4.261500 0.000000
-4.235400 0.000000
-4.209300 0.000000
-4.183300 0.000000
-4.157200 0.000000
-4.131200 0.000000
-4.105100 0.000000
-4.079000 0.000000
-4.053000 0.000000
-4.026900 0.000000
-4.000800 0.000000
-3.974800 0.000000
-3.948700 0.000000
-3.922700 0.000000
-3.896600 0.000000
-3.870500 0.000000
-3.844500 0.000000
-3.818400 0.000000
-3.792300 0.000000
-3.766300 0.000000
-3.740200 0.000000
-3.714100 0.000000
-3.688100 0.000000
-3.662000 0.000000
-3.636000 0.000000
-3.609900 0.000000
-3.583800 0.000000
-3.557800 0.000000
-3.531700 0.000000
-3.505600 0.000000
-3.479600 0.000000
-3.453500 0.000000
-3.427500 0.000000
-3.401400 0.000000
-3.375300 0.000000
-3.349300 0.000000
-3.323200 0.000000
-3.297100 0.000000
-3.271100 0.000000
-3.245000 0.000000
-3.219000 0.000000
-3.192900 0.000000
-3.166800 0.000000
-3.140800 0.000000
-3.114700 0.000000
-3.088600 0.000000
-3.062600 0.000000
-3.036500 0.000000
-3.010400 0.000000
-2.984400 0.000000
-2.958300 0.000000
-2.932300 0.000000
-2.906200 0.000000
-2.880100 0.000000
-2.854100 0.609700
-2.828000 5.476400
-2.801900 7.564400
-2.775900 11.184200
-2.749800 11.873500
-2.723800 10.327900
-2.697700 9.414400
-2.671600 9.537400
-2.645600 10.576800
-2.619500 7.794500
-2.593400 6.504900
-2.567400 6.218300
-2.541300 4.880700
-2.515300 5.055400
-2.489200 6.562600
-2.463100 7.122000
-2.437100 5.502000
-2.411000 5.778000
-2.384900 6.429700
-2.358900 4.749400
-2.332800 5.702700
-2.306700 4.882500
-2.280700 5.126800
-2.254600 4.817800
-2.228600 4.986700
-2.202500 5.334500
-2.176400 5.922700
-2.150400 6.714100
-2.124300 10.624800
-2.098200 9.979900
-2.072200 9.101400
-2.046100 8.674800
-2.020100 8.305200
-1.994000 8.057200
-1.967900 8.131900
-1.941900 6.770800
-1.915800 6.419200
-1.889700 6.206400
-1.863700 6.048200
-1.837600 5.932800
-1.811500 5.874800
-1.785500 6.030600
-1.759400 6.340400
-1.733400 6.611300
-1.707300 6.979400
-1.681200 7.719200
-1.655200 8.141800
-1.629100 7.608900
-1.603000 7.211000
-1.577000 6.899800
-1.550900 6.578600
-1.524900 6.098400
-1.498800 5.496300
-1.472700 5.004600
-1.446700 5.047500
-1.420600 5.340000
-1.394500 5.552800
-1.368500 5.378400
-1.342400 5.372100
-1.316400 5.015500
-1.290300 4.833900
-1.264200 4.796600
-1.238200 4.672900
-1.212100 4.664300
-1.186000 4.761600
-1.160000 5.219600
-1.133900 3.751000
-1.107800 3.343300
-1.081800 3.103500
-1.055700 3.138900
-1.029700 2.933300
-1.003600 2.615400
-0.977500 2.989900
-0.951500 3.479200
-0.925400 3.489800
-0.899300 3.226100
-0.873300 3.243200
-0.847200 3.631400
-0.821200 3.702700
-0.795100 3.702000
-0.769000 3.896500
-0.743000 3.859200
-0.716900 3.671300
-0.690800 3.703000
-0.664800 4.200700
-0.638700 5.805000
-0.612700 5.058300
-0.586600 5.430500
-0.560500 5.823800
-0.534500 6.015700
-0.508400 6.057800
-0.482300 6.139900
-0.456300 6.270600
-0.430200 6.505200
-0.404100 6.694900
-0.378100 7.062400
-0.352000 6.126200
-0.326000 6.824000
-0.299900 7.052300
-0.273800 7.338300
-0.247800 7.649200
-0.221700 7.872400
-0.195600 6.866700
-0.169600 6.419800
-0.143500 6.703700
-0.117500 7.051700
-0.091400 8.640800
-0.065300 8.370400
-0.039300 6.921900
-0.013200 5.806100
0.012900 5.611000
0.038900 6.967500
0.065000 6.842200
0.091000 5.929700
0.117100 4.808100
0.143200 4.209000
0.169200 4.051000
0.195300 4.104500
0.221400 4.318900
0.247400 4.452500
0.273500 3.241300
0.299600 2.925800
0.325600 2.598600
0.351700 2.522200
0.377700 2.473700
0.403800 2.456700
0.429900 2.464100
0.455900 2.511300
0.482000 2.610600
0.508100 2.690100
0.534100 2.711600
0.560200 2.735600
0.586200 2.749700
0.612300 2.832800
0.638400 2.853600
0.664400 2.741600
0.690500 2.118900
0.716600 1.667500
0.742600 1.534800
0.768700 1.405000
0.794700 0.577200
0.820800 0.219600
0.846900 0.129500
0.872900 0.142900
0.899000 0.155800
0.925100 0.168400
0.951100 0.180900
0.977200 0.221100
1.003300 0.303600
1.029300 0.490100
1.055400 0.654700
1.081400 0.787600
1.107500 0.889800
1.133600 0.977400
1.159600 1.062800
1.185700 1.137200
1.211800 1.195900
1.237800 1.248300
1.263900 1.301500
1.289900 1.379800
1.316000 1.446100
1.342100 1.524900
1.368100 1.581800
1.394200 1.647600
1.420300 1.725300
1.446300 1.840500
1.472400 1.955700
1.498400 2.077200
1.524500 2.274200
1.550600 2.516100
1.576600 2.665700
1.602700 2.728200
1.628800 2.711400
1.654800 2.760400
1.680900 2.642200
1.707000 2.535100
1.733000 2.359400
1.759100 2.226200
1.785100 2.098800
1.811200 1.845100
1.837300 1.677600
1.863300 1.547200
1.889400 1.450900
1.915500 1.389200
1.941500 1.350000
1.967600 1.334900
1.993600 1.327800
2.019700 1.326800
2.045800 1.336000
2.071800 1.357400
2.097900 1.406700
2.124000 1.490000
2.150000 1.586300
2.176100 1.684600
2.202100 1.795400
2.228200 1.905500
2.254300 1.996000
2.280300 2.069500
2.306400 1.770900
2.332500 1.608600
2.358500 1.508200
2.384600 1.415700
2.410700 1.289100
2.436700 1.241400
2.462800 1.216500
2.488800 1.195400
2.514900 1.185900
2.541000 1.294100
2.567000 1.351100
2.593100 1.430200
2.619200 1.520900
2.645200 1.588100
2.671300 1.648100
2.697300 1.698800
2.723400 1.729700
2.749500 1.760400
2.775500 1.811800
2.801600 1.856100
2.827700 1.869200
2.853700 1.828200
2.879800 1.760900
2.905800 1.627400
2.931900 1.554200
2.958000 1.528100
2.984000 1.505700
3.010100 1.485000
3.036200 1.464700
3.062200 1.444700
3.088300 1.424800
3.114400 1.404400
3.140400 1.383800
3.166500 1.363600
3.192500 1.346600
3.218600 1.331900
3.244700 1.319600
3.270700 1.309900
3.296800 1.295300
3.322900 1.281600
3.348900 1.292300
3.375000 1.315500
3.401000 1.350200
3.427100 1.379400
3.453200 1.400300
3.479200 1.423300
3.505300 1.454600
3.531400 1.536200
3.557400 1.718700
3.583500 1.839700
3.609500 1.930400
3.635600 2.046200
3.661700 2.157700
3.687700 2.211500
3.713800 2.260600
3.739900 2.315000
3.765900 2.356700
3.792000 2.359700
3.818100 2.352900
3.844100 2.373500
3.870200 2.405200
3.896200 2.437000
3.922300 2.447800
3.948400 2.452100
3.974400 2.450000
4.000500 2.442600
4.026600 2.427300
4.052600 2.395400
4.078700 2.327400
4.104700 2.262600
4.130800 2.203800
4.156900 2.147900
4.182900 2.088200
4.209000 2.061700
4.235100 2.041000
4.261100 2.022800
4.287200 2.005600
4.313200 1.982600
4.339300 1.968100
4.365400 1.968100
4.391400 1.969000
4.417500 1.970000
4.443600 1.972300
4.469600 1.978300
4.495700 2.003000
4.521800 2.271900
4.547800 2.430100
4.573900 2.421300
4.599900 2.181200
4.626000 2.112900
4.652100 2.085100
4.678100 2.086300
4.704200 2.093300
4.730300 2.104300
4.756300 2.102100
4.782400 2.156200
4.808400 2.229900
4.834500 2.281900
4.860600 2.320400
4.886600 2.370500
4.912700 2.446500
4.938800 2.559600
4.964800 2.780400
4.990900 3.145500
5.016900 3.399800
5.043000 3.380200
5.069100 3.282800
5.095100 3.257900
5.121200 3.184500
5.147300 3.171800
5.173300 3.212600
5.199400 3.255600
5.225500 3.304600
5.251500 3.347200
5.277600 3.259700
5.303600 3.085700
5.329700 2.988000
5.355800 2.938500
5.381800 2.900000
5.407900 2.867400
5.434000 2.842700
5.460000 2.826600
5.486100 2.813400
5.512100 2.800700
5.538200 2.776300
5.564300 2.754000
5.590300 2.723400
5.616400 2.690900
5.642500 2.652100
5.668500 2.610900
5.694600 2.578300
5.720700 2.554200
5.746700 2.540700
5.772800 2.530300
5.798800 2.514400
5.824900 2.508500
5.851000 2.514100
5.877000 2.514000
5.903100 2.499800
5.929200 2.484600
5.955200 2.504600
5.981300 2.493300
6.007300 2.453200
6.033400 2.380000
6.059500 2.303800
6.085500 2.244200
6.111600 2.236100
6.137700 2.223400
6.163700 2.187100
6.189800 2.102000
6.215800 1.997500
6.241900 1.932500
6.268000 1.867100
6.294000 1.801600
6.320100 1.742700
6.346200 1.683900
6.372200 1.628400
6.398300 1.581400
6.424400 1.538100
6.450400 1.500700
6.476500 1.465900
6.502500 1.429100
6.528600 1.390700
6.554700 1.353000
6.580700 1.316300
6.606800 1.288200
6.632900 1.263500
6.658900 1.242200
6.685000 1.230900
6.711000 1.198400
6.737100 1.169100
6.763200 1.140000
6.789200 1.125400
6.815300 1.099900
6.841400 1.058900
6.867400 1.014700
6.893500 0.972100
6.919500 0.931300
6.945600 0.895300
6.971700 0.844700
6.997700 0.824100
7.023800 0.805400
7.049900 0.787900
7.075900 0.769100
7.102000 0.748800
7.128100 0.725200
7.154100 0.698900
7.180200 0.668400
7.206200 0.636600
7.232300 0.605100
7.258400 0.573100
7.284400 0.547400
7.310500 0.527000
7.336600 0.510200
7.362600 0.491700
7.388700 0.470700
7.414700 0.435700
7.440800 0.397600
7.466900 0.365800
7.492900 0.332400
7.519000 0.302900
7.545100 0.280900
7.571100 0.260500
7.597200 0.236700
7.623200 0.204100
7.649300 0.175800
7.675400 0.160100
7.701400 0.122400
7.727500 0.074400
7.753600 0.014400
7.779600 0.000300
7.805700 0.010100
7.831800 0.030500
7.857800 0.045900
7.883900 0.057000
7.909900 0.071600
7.936000 0.086000
7.962100 0.100300
7.988100 0.114400
8.014200 0.125400
8.040300 0.131200
8.066300 0.137100
8.092400 0.142200
8.118400 0.147400
8.144500 0.152600
8.170600 0.157900
8.196600 0.163400
8.222700 0.170000
8.248800 0.177900
8.274800 0.186500
8.300900 0.195100
8.326900 0.203700
8.353000 0.209600
8.379100 0.214700
8.405100 0.219400
8.431200 0.223700
8.457300 0.227500
8.483300 0.231000
8.509400 0.235700
8.535500 0.241000
8.561500 0.247000
8.587600 0.253600
8.613600 0.260700
8.639700 0.267900
8.665800 0.275000
8.691800 0.282100
8.717900 0.289300
8.744000 0.296700
8.770000 0.304200
8.796100 0.311700
8.822100 0.319400
8.848200 0.326100
8.874300 0.331700
8.900300 0.338500
8.926400 0.345800
8.952500 0.353800
8.978500 0.361700
9.004600 0.369400
9.030600 0.377100
9.056700 0.384700
9.082800 0.392300
9.108800 0.400100
9.134900 0.408300
9.161000 0.416600
9.187000 0.425100
9.213100 0.433800
9.239200 0.443000
9.265200 0.453300
9.291300 0.464200
9.317300 0.475600
9.343400 0.487500
9.369500 0.499800
9.395500 0.511900
9.421600 0.524200
9.447700 0.536500
9.473700 0.548100
9.499800 0.560100
9.525800 0.573400
9.551900 0.587200
9.578000 0.601400
9.604000 0.615900
9.630100 0.630700
9.656200 0.646000
9.682200 0.664800
9.708300 0.689400
9.734300 0.711400
9.760400 0.733700
9.786500 0.756400
9.812500 0.780200
9.838600 0.805200
9.864700 0.831300
9.890700 0.856900
9.916800 0.887200
9.942900 0.920600
9.968900 0.953000
9.995000 0.997400
10.021000 1.124800
10.047100 1.200300
10.073200 1.264700
10.099200 1.327800
10.125300 1.478300
10.151400 1.628500
10.177400 1.697500
10.203500 1.730700
10.229500 1.686800
10.255600 1.523700
10.281700 1.432700
10.307700 1.418400
10.333800 1.409500
10.359900 1.402200
10.385900 1.401700
10.412000 1.409000
10.438000 1.416300
10.464100 1.423400
10.490200 1.422200
10.516200 1.418300
10.542300 1.413400
10.568400 1.405900
10.594400 1.374300
10.620500 1.372000
10.646600 1.369800
10.672600 1.368600
10.698700 1.368500
10.724700 1.368900
10.750800 1.369700
10.776900 1.371400
10.802900 1.374700
10.829000 1.378600
10.855100 1.381600
10.881100 1.384200
10.907200 1.387200
10.933200 1.390600
10.959300 1.396300
10.985400 1.401600
11.011400 1.405200
11.037500 1.409900
11.063600 1.416500
11.089600 1.423300
11.115700 1.429700
11.141700 1.435800
11.167800 1.442000
11.193900 1.448800
11.219900 1.461100
11.246000 1.478700
11.272100 1.494000
11.298100 1.511400
11.324200 1.532300
11.350300 1.578300
11.376300 1.619900
11.402400 1.660400
11.428400 1.709400
11.454500 1.730200
11.480600 1.714200
11.506600 1.731900
11.532700 1.823700
11.558800 1.910200
11.584800 2.006300
11.610900 2.138000
11.636900 3.005600
11.663000 2.016800
11.689100 1.752900
11.715100 1.610900
11.741200 1.516800
11.767300 1.434900
11.793300 1.359300
11.819400 1.298900
11.845400 1.226600
11.871500 1.167800
11.897600 1.174600
11.923600 1.176400
11.949700 1.140300
11.975800 1.114800
12.001800 1.077000
12.027900 1.022600
12.054000 0.966000
12.080000 0.927200
12.106100 0.879600
12.132100 0.822600
12.158200 0.708100
12.184300 0.670600
12.210300 0.703800
12.236400 0.556500
12.262500 0.460200
12.288500 0.502600
12.314600 0.552600
12.340600 0.597600
12.366700 0.648500
12.392800 0.708200
12.418800 0.791800
12.444900 0.891500
12.471000 0.998500
12.497000 1.324400
12.523100 2.057900
12.549200 1.673600
12.575200 1.556800
12.601300 1.510100
12.627300 1.536500
12.653400 1.565500
12.679500 1.592200
12.705500 1.613400
12.731600 1.630100
12.757700 1.642700
12.783700 1.690200
12.809800 1.748100
12.835800 1.833300
12.861900 1.937600
12.888000 2.051200
12.914000 2.204700
12.940100 2.368200
12.966200 2.631800
12.992200 2.999800
13.018300 3.345400
13.044300 3.788000
13.070400 4.269300
13.096500 4.875700
13.122500 5.273700
13.148600 5.312100
13.174700 5.428000
13.200700 4.868400
13.226800 4.588100
13.252900 4.991800
13.278900 6.255300
13.305000 6.872900
13.331000 6.375800
13.357100 3.909400
13.383200 3.146700
13.409200 2.686600
13.435300 2.344700
13.461400 2.092900
13.487400 1.910800
13.513500 1.829900
13.539500 1.815900
13.565600 1.776900
13.591700 1.729800
13.617700 1.651900
13.643800 1.562300
13.669900 1.500600
13.695900 1.392000
13.722000 1.306000
13.748000 1.222100
13.774100 1.098400
13.800200 1.047300
13.826200 1.009100
13.852300 0.983800
13.878400 0.971800
13.904400 0.968900
13.930500 0.976600
13.956600 0.987000
13.982600 0.999500
14.008700 1.026000
14.034700 1.025400
14.060800 0.957600
14.086900 0.884200
14.112900 0.859600
14.139000 0.874700
14.165100 0.893100
14.191100 0.913500
14.217200 0.948500
14.243200 0.947900
14.269300 0.965600
14.295400 0.983300
14.321400 1.000500
14.347500 1.018000
14.373600 1.037300
14.399600 1.060100
14.425700 1.097900
14.451700 1.143300
14.477800 1.219000
14.503900 1.366200
14.529900 1.713900
14.556000 2.119000
14.582100 2.471400
14.608100 2.653000
14.634200 2.759900
14.660300 2.801800
14.686300 2.876900
14.712400 3.042500
14.738400 3.299800
14.764500 3.591500
14.790600 3.886200
14.816600 4.213300
14.842700 4.652200
14.868800 4.737500
14.894800 4.322700
14.920900 4.082000
14.946900 3.590700
14.973000 3.288200
14.999100 3.205600
15.025100 3.145000
15.051200 3.033800
15.077300 2.932200
15.103300 2.801300
15.129400 2.642300
15.155400 2.568200
15.181500 2.518600
15.207600 2.526100
15.233600 2.448100
15.259700 2.310900
15.285800 2.111100
15.311800 1.898100
15.337900 1.595700
15.364000 1.461500
15.390000 1.390200
15.416100 1.328400
15.442100 1.289700
15.468200 1.260400
15.494300 1.239400
15.520300 1.259700
15.546400 1.296500
15.572500 1.328300
15.598500 1.357200
15.624600 1.388300
15.650600 1.426400
15.676700 1.470800
15.702800 1.517500
15.728800 1.562800
15.754900 1.611500
15.781000 1.607900
15.807000 1.629000
15.833100 1.648200
15.859100 1.668100
15.885200 1.682100
15.911300 1.658300
15.937300 1.661000
15.963400 1.669000
15.989500 1.675400
16.015500 1.680500
16.041600 1.685000
16.067700 1.689600
16.093700 1.694700
16.119800 1.700800
16.145800 1.708700
16.171900 1.719600
16.198000 1.727900
16.224000 1.741400
16.250100 1.752000
16.276200 1.769300
16.302200 2.116500
16.328300 1.949400
16.354300 2.068500
16.380400 2.406400
16.406500 3.135100
16.432500 3.977300
16.458600 4.324200
16.484700 4.267100
16.510700 4.505900
16.536800 3.800100
16.562800 3.069400
16.588900 2.575500
16.615000 2.349900
16.641000 2.205000
16.667100 2.055600
16.693200 1.924000
16.719200 1.803200
16.745300 1.687300
16.771400 1.599600
16.797400 1.548900
16.823500 1.482500
16.849500 1.433900
16.875600 1.411000
16.901700 1.391300
16.927700 1.373500
16.953800 1.357500
16.979900 1.343000
17.005900 1.329800
17.032000 1.317400
17.058000 1.307600
17.084100 1.303600
17.110200 1.308900
17.136200 1.317600
17.162300 1.319400
17.188400 1.309300
17.214400 1.306200
17.240500 1.300100
17.266500 1.291500
17.292600 1.283700
17.318700 1.284200
17.344700 1.302400
17.370800 1.337400
17.396900 1.391800
17.422900 1.750300
17.449000 1.647100
17.475100 1.589900
17.501100 1.474700
17.527200 1.359300
17.553200 1.250200
17.579300 1.147600
17.605400 1.102200
17.631400 1.069800
17.657500 1.046200
17.683600 1.031500
17.709600 1.017400
17.735700 0.994600
17.761700 0.978400
17.787800 0.977800
17.813900 0.979800
17.839900 0.983900
17.866000 0.988600
17.892100 0.995300
17.918100 1.005900
17.944200 1.020400
17.970200 1.038700
17.996300 1.065200
18.022400 1.108500
18.048400 1.167400
18.074500 1.268700
18.100600 1.367500
18.126600 1.480300
18.152700 1.588500
18.178800 1.695600
18.204800 1.819900
18.230900 1.941900
18.256900 2.034600
18.283000 2.091200
18.309100 2.112200
18.335100 2.118200
18.361200 2.153300
18.387300 2.163100
18.413300 2.083800
18.439400 1.982400
18.465400 1.910200
18.491500 1.825200
18.517600 1.739400
18.543600 1.659200
18.569700 1.590900
18.595800 1.546000
18.621800 1.507900
18.647900 1.440200
18.673900 1.356300
18.700000 1.224200
18.726100 1.113600
18.752100 1.069800
18.778200 1.064400
18.804300 1.092600
18.830300 1.177500
18.856400 1.256700
18.882500 1.310000
18.908500 1.336000
18.934600 1.333300
18.960600 1.337500
18.986700 1.348000
19.012800 1.370500
19.038800 1.423300
19.064900 1.554600
19.091000 1.636700
19.117000 1.709700
19.143100 1.784300
19.169100 1.857500
19.195200 1.965200
19.221300 2.147500
19.247300 2.283700
19.273400 2.224000
19.299500 2.136000
19.325500 2.084100
19.351600 1.949000
19.377600 1.803200
19.403700 1.588900
19.429800 1.483400
19.455800 1.417100
19.481900 1.374300
19.508000 1.330900
19.534000 1.325700
19.560100 1.324100
19.586200 1.325900
19.612200 1.344400
19.638300 1.357800
19.664300 1.365300
19.690400 1.383600
19.716500 1.426200
19.742500 1.602100
19.768600 1.712100
19.794700 1.798800
19.820700 1.885500
19.846800 1.986200
19.872800 2.080800
19.898900 2.284900
19.925000 2.260000
19.951000 2.173200
19.977100 2.086500
20.003200 1.984100
20.029200 1.916800
20.055300 1.899400
20.081400 1.825400
20.107400 1.727800
20.133500 1.663500
20.159500 1.646600
20.185600 1.640400
20.211700 1.634200
20.237700 1.624200
20.263800 1.613300
20.289900 1.606100
20.315900 1.604600
20.342000 1.611200
20.368000 1.614700
20.394100 1.623100
20.420200 1.632300
20.446200 1.650800
20.472300 1.676100
20.498400 1.694300
20.524400 1.708400
20.550500 1.756400
20.576500 1.761000
20.602600 1.707300
20.628700 1.631600
20.654700 1.553800
20.680800 1.461700
20.706900 1.352700
20.732900 1.230700
20.759000 1.093200
20.785100 0.949700
20.811100 0.838100
20.837200 0.761600
20.863200 0.687500
20.889300 0.599400
20.915400 0.512400
20.941400 0.462100
20.967500 0.404500
20.993600 0.320100
21.019600 0.301600
21.045700 0.294800
21.071700 0.290500
21.097800 0.287800
21.123900 0.285500
21.149900 0.295200
21.176000 0.313200
21.202100 0.332000
21.228100 0.351200
21.254200 0.370800
21.280200 0.391700
21.306300 0.445300
21.332400 0.496000
21.358400 0.517000
21.384500 0.547300
21.410600 0.574400
21.436600 0.620000
21.462700 0.701600
21.488800 0.837600
21.514800 1.049900
21.540900 1.240400
21.566900 1.328600
21.593000 1.397100
21.619100 1.458600
21.645100 1.529700
21.671200 1.572000
21.697300 1.587100
21.723300 1.561200
21.749400 1.549200
21.775400 1.542700
21.801500 1.517200
21.827600 1.477300
21.853600 1.442000
21.879700 1.424700
21.905800 1.451800
21.931800 1.450800
21.957900 1.428400
21.983900 1.403500
22.010000 1.390100
22.036100 1.387400
22.062100 1.403800
22.088200 1.440000
22.114300 1.493800
22.140300 1.561600
22.166400 1.645500
22.192500 1.753400
22.218500 1.921500
22.244600 2.153300
22.270600 2.357400
22.296700 2.730200
22.322800 2.508500
22.348800 2.564900
22.374900 2.594400
22.401000 2.592100
22.427000 2.567500
22.453100 2.537700
22.479100 2.553800
22.505200 2.629800
22.531300 2.711600
22.557300 2.808800
22.583400 2.841600
22.609500 2.794000
22.635500 2.682300
22.661600 2.366300
22.687600 2.291100
22.713700 2.250100
22.739800 2.181500
22.765800 2.071900
22.791900 2.035700
22.818000 2.004600
22.844000 1.964000
22.870100 1.915700
22.896200 1.887600
22.922200 1.889800
22.948300 1.860400
22.974300 1.859100
23.000400 1.787300
23.026500 1.737800
23.052500 1.711200
23.078600 1.704000
23.104700 1.715600
23.130700 1.713400
23.156800 1.746500
23.182800 1.782500
23.208900 1.765000
23.235000 1.768100
23.261000 1.766100
23.287100 1.736600
23.313200 1.692400
23.339200 1.657500
23.365300 1.657900
23.391300 1.674100
23.417400 1.645000
23.443500 1.596200
23.469500 1.573400
23.495600 1.552300
23.521700 1.532200
23.547700 1.509500
23.573800 1.475800
23.599900 1.437600
23.625900 1.399700
23.652000 1.388300
23.678000 1.385600
23.704100 1.387000
23.730200 1.398400
23.756200 1.397000
23.782300 1.398100
23.808400 1.418800
23.834400 1.448700
23.860500 1.476900
23.886500 1.499400
23.912600 1.509700
23.938700 1.485900
23.964700 1.516100
23.990800 1.539700
24.016900 1.568800
24.042900 1.603800
24.069000 1.643700
24.095000 1.688100
24.121100 1.736900
24.147200 1.808700
24.173200 1.911700
24.199300 1.960200
24.225400 2.005600
24.251400 2.097700
24.277500 2.123800
24.303600 2.228300
24.329600 2.370500
24.355700 2.482200
24.381700 2.520100
24.407800 2.531800
24.433900 2.569200
24.459900 2.564300
24.486000 2.583400
24.512100 2.600900
24.538100 2.616500
24.564200 2.612300
24.590200 2.629600
24.616300 2.661000
24.642400 2.610700
24.668400 2.575900
24.694500 2.576500
24.720600 2.604900
24.746600 2.663700
24.772700 2.762200
24.798700 2.877800
24.824800 3.115300
24.850900 3.414500
24.876900 3.619900
24.903000 3.517800
24.929100 3.347800
24.955100 3.249700
24.981200 3.162100
25.007300 3.071600
25.033300 2.996100
25.059400 2.971400
25.085400 2.954500
25.111500 2.943300
25.137600 3.011600
25.163600 2.809000
25.189700 2.615000
25.215800 2.435700
25.241800 2.283800
25.267900 2.205000
25.293900 2.101800
25.320000 2.099300
25.346100 2.108300
25.372100 2.097600
25.398200 2.052200
25.424300 1.985300
25.450300 1.943000
25.476400 1.950700
25.502400 1.950400
25.528500 1.958800
25.554600 1.958200
25.580600 1.897700
25.606700 1.810300
25.632800 1.977700
25.658800 2.190200
25.684900 2.422500
25.711000 2.531800
25.737000 2.618000
25.763100 2.693800
25.789100 2.756200
25.815200 2.801100
25.841300 2.664800
25.867300 2.504100
25.893400 2.443900
25.919500 2.376800
25.945500 2.325800
25.971600 2.410900
25.997600 3.208000
26.023700 3.241200
26.049800 2.632500
26.075800 2.475100
26.101900 3.061600
26.128000 3.218700
26.154000 3.565700
26.180100 3.903800
26.206100 4.103200
26.232200 4.169200
26.258300 3.988200
26.284300 3.876300
26.310400 3.776100
26.336500 3.695800
26.362500 3.674600
26.388600 3.691000
26.414700 3.726400
26.440700 3.804700
26.466800 3.934000
26.492800 4.039800
26.518900 3.798900
26.545000 3.623200
26.571000 3.173700
26.597100 2.950900
26.623200 2.831600
26.649200 2.763000
26.675300 2.788200
26.701300 2.699800
26.727400 2.487000
26.753500 2.436400
26.779500 2.454500
26.805600 2.442500
26.831700 2.391700
26.857700 2.400300
26.883800 2.462600
26.909800 2.556400
26.935900 2.682400
26.962000 2.876900
26.988000 3.192100
27.014100 3.197100
27.040200 3.379300
27.066200 3.538800
27.092300 3.467800
27.118400 3.330100
27.144400 3.264600
27.170500 3.130400
27.196500 2.901300
27.222600 2.858600
27.248700 2.850200
27.274700 2.865500
27.300800 2.887400
27.326900 2.808600
27.352900 2.809700
27.379000 2.852300
27.405000 3.009200
27.431100 3.065900
27.457200 2.789900
27.483200 2.399500
27.509300 2.278900
27.535400 2.311200
27.561400 2.325000
27.587500 2.368400
27.613600 2.787000
27.639600 3.216200
27.665700 3.147900
27.691700 3.102600
27.717800 3.138600
27.743900 3.124000
27.769900 3.395000
27.796000 3.238400
27.822100 3.259500
27.848100 3.284200
27.874200 3.320400
27.900200 3.330500
27.926300 3.232300
27.952400 3.043200
27.978400 3.275300
28.004500 3.108500
28.030600 2.909800
28.056600 2.734000
28.082700 2.583100
28.108700 2.444100
28.134800 2.341700
28.160900 2.231800
28.186900 2.136700
28.213000 2.064800
28.239100 1.985100
28.265100 1.953300
28.291200 1.970900
28.317300 1.935900
28.343300 1.920200
28.369400 1.923300
28.395400 1.922600
28.421500 1.981100
28.447600 2.111200
28.473600 2.276800
28.499700 2.474000
28.525800 2.663800
28.551800 2.825300
28.577900 2.971700
28.603900 3.092300
28.630000 3.127100
28.656100 3.093600
28.682100 3.038800
28.708200 3.010200
28.734300 3.113300
28.760300 3.303600
28.786400 3.253900
28.812400 3.191700
28.838500 3.089200
28.864600 2.906400
28.890600 2.690900
28.916700 2.468900
28.942800 2.321600
28.968800 2.200600
28.994900 2.086900
29.021000 2.079400
29.047000 2.098200
29.073100 2.178200
29.099100 2.461600
29.125200 2.700700
29.151300 2.695300
29.177300 2.728300
29.203400 2.739100
29.229500 2.595900
29.255500 2.531900
29.281600 2.532000
29.307600 2.566700
29.333700 2.611300
29.359800 2.660900
29.385800 2.745500
29.411900 2.857600
29.438000 2.950800
29.464000 3.065900
29.490100 3.113100
29.516100 3.086500
29.542200 3.040900
29.568300 2.981100
29.594300 2.899300
29.620400 2.926800
29.646500 2.779700
29.672500 2.599500
29.698600 2.361900
29.724700 2.127900
29.750700 1.945700
29.776800 1.838000
29.802800 1.874600
29.828900 1.912000
29.855000 2.012000
29.881000 2.253300
29.907100 2.330300
29.933200 2.126200
29.959200 2.356400
29.985300 2.452400
30.011300 2.555500
30.037400 2.703700
30.063500 2.567900
30.089500 2.606500
30.115600 2.592000
30.141700 2.469400
30.167700 2.322200
30.193800 2.176400
30.219800 2.072800
30.245900 1.990200
30.272000 1.930100
30.298000 1.928100
30.324100 1.949800
30.350200 1.990600
30.376200 2.045800
30.402300 2.109800
30.428400 2.188000
30.454400 2.239700
30.480500 2.291100
30.506500 2.326500
30.532600 2.352100
30.558700 2.382500
30.584700 2.444500
30.610800 2.507700
30.636900 2.549500
30.662900 2.575700
30.689000 2.487100
30.715000 2.220100
30.741100 2.129000
30.767200 2.297000
30.793200 2.236600
30.819300 2.005700
30.845400 1.924800
30.871400 1.867900
30.897500 1.838600
30.923500 1.828300
30.949600 1.815300
30.975700 1.813400
31.001700 1.791200
31.027800 1.735000
31.053900 1.676800
31.079900 1.648400
31.106000 1.640400
31.132100 1.680200
31.158100 1.808500
31.184200 1.949300
31.210200 2.112700
31.236300 2.278700
31.262400 2.461600
31.288400 2.670600
31.314500 2.778300
31.340600 2.879400
31.366600 3.021400
31.392700 3.131500
31.418700 3.333500
31.444800 3.281800
31.470900 3.234000
31.496900 3.022600
31.523000 2.907300
31.549100 2.826500
31.575100 2.706400
31.601200 2.595200
31.627200 2.512800
31.653300 2.450900
31.679400 2.407400
31.705400 2.391000
31.731500 2.402700
31.757600 2.571700
31.783600 2.739700
31.809700 2.924400
31.835800 3.243000
31.861800 3.314200
31.887900 3.213100
31.913900 3.266500
31.940000 3.137900
31.966100 3.078900
31.992100 3.007600
32.018200 2.402900
32.044300 2.010300
32.070300 1.718500
32.096400 1.511000
32.122400 1.390700
32.148500 1.320100
32.174600 1.266800
32.200600 1.211200
32.226700 1.163700
32.252800 1.161500
32.278800 1.174500
32.304900 1.238100
32.330900 1.280600
32.357000 1.306500
32.383100 1.331100
32.409100 1.360100
32.435200 1.380200
32.461300 1.401000
32.487300 1.422600
32.513400 1.445700
32.539500 1.474800
32.565500 1.511000
32.591600 1.554800
32.617600 1.604900
32.643700 1.662100
32.669800 1.740000
32.695800 1.831700
32.721900 1.906600
32.748000 1.990800
32.774000 2.100900
32.800100 2.273300
32.826100 2.443100
32.852200 2.596400
32.878300 2.737700
32.904300 2.826200
32.930400 2.900400
32.956500 2.761700
32.982500 2.663900
33.008600 2.631100
33.034600 2.628300
33.060700 2.639300
33.086800 2.650500
33.112800 2.679000
33.138900 2.714300
33.165000 2.683200
33.191000 2.674400
33.217100 2.681600
33.243200 2.686400
33.269200 2.576900
33.295300 2.677600
33.321300 2.899800
33.347400 3.047200
33.373500 2.847000
33.399500 2.705400
33.425600 2.647700
33.451700 2.597800
33.477700 2.541400
33.503800 2.497600
33.529800 2.460400
33.555900 2.439400
33.582000 2.434700
33.608000 2.491400
33.634100 2.704100
33.660200 2.781500
33.686200 2.810200
33.712300 2.804100
33.738300 2.778900
33.764400 2.779200
33.790500 2.793300
33.816500 2.763700
33.842600 2.764600
33.868700 2.830000
33.894700 2.902300
33.920800 2.957900
33.946900 2.977200
33.972900 2.976300
33.999000 2.977200
34.025000 2.950200
34.051100 2.983900
34.077200 2.946200
34.103200 2.684000
34.129300 2.366900
34.155400 2.331700
34.181400 2.443800
34.207500 2.555900
34.233500 2.696400
34.259600 2.776000
34.285700 2.561700
34.311700 2.411900
34.337800 2.309200
34.363900 2.235600
34.389900 2.181800
34.416000 2.148700
34.442100 2.129900
34.468100 2.098300
34.494200 2.061900
34.520200 2.011700
34.546300 1.961600
34.572400 1.912800
34.598400 1.842200
34.624500 1.761100
34.650600 1.687800
34.676600 1.689900
34.702700 1.712800
34.728700 1.754900
34.754800 1.799300
34.780900 1.805800
34.806900 1.802700
34.833000 1.796200
34.859100 1.784200
34.885100 1.747000
34.911200 1.716600
34.937200 1.685000
34.963300 1.636900
34.989400 1.563900
35.015400 1.533100
35.041500 1.884000
35.067600 1.467100
35.093600 1.558200
35.119700 1.662800
35.145800 1.793800
35.171800 1.980200
35.197900 2.160900
35.223900 2.388500
35.250000 2.606900
35.276100 2.655300
35.302100 2.728200
35.328200 2.797100
35.354300 2.906100
35.380300 3.106800
35.406400 3.331900
35.432400 3.549700
35.458500 3.782600
35.484600 3.024200
35.510600 2.723500
35.536700 2.634300
35.562800 2.658400
35.588800 2.721100
35.614900 2.817800
35.640900 2.915800
35.667000 3.035200
35.693100 3.148000
35.719100 3.256900
35.745200 3.349600
35.771300 3.405900
35.797300 3.415900
35.823400 3.369300
35.849500 3.314700
35.875500 3.223200
35.901600 2.982000
35.927600 2.649000
35.953700 2.338200
35.979800 2.189500
36.005800 2.111900
36.031900 2.028400
36.058000 1.975800
36.084000 2.105900
36.110100 2.150700
36.136100 2.115700
36.162200 2.002400
36.188300 1.888800
36.214300 1.862000
36.240400 1.863600
36.266500 1.863300
36.292500 1.823200
36.318600 1.797600
36.344600 1.845600
36.370700 1.933500
36.396800 2.024500
36.422800 2.126100
36.448900 2.236600
36.475000 2.435300
36.501000 2.698100
36.527100 2.903600
36.553200 3.026900
36.579200 3.144700
36.605300 3.249800
36.631300 3.344600
36.657400 3.486700
36.683500 3.683300
36.709500 3.805400
36.735600 3.813200
36.761700 3.803300
36.787700 3.618900
36.813800 3.343500
36.839800 3.166900
36.865900 2.992100
36.892000 2.968600
36.918000 3.025300
36.944100 3.098200
36.970200 2.843200
36.996200 2.758700
37.022300 2.751400
37.048300 2.766400
37.074400 2.766400
37.100500 2.840100
37.126500 2.684400
37.152600 2.684600
37.178700 2.781500
37.204700 2.939600
37.230800 3.004500
37.256900 3.002100
37.282900 2.963200
37.309000 2.913300
37.335000 2.869400
37.361100 2.809700
37.387200 2.727000
37.413200 2.655100
37.439300 2.615200
37.465400 2.423800
37.491400 2.242900
37.517500 1.892900
37.543500 1.762000
37.569600 1.740500
37.595700 1.703700
37.621700 1.619000
37.647800 1.536200
37.673900 1.469600
37.699900 1.420700
37.726000 1.375400
37.752000 1.332800
37.778100 1.293200
37.804200 1.254500
37.830200 1.217700
37.856300 1.170100
37.882400 1.118300
37.908400 1.072200
37.934500 1.035000
37.960600 1.007000
37.986600 0.980100
38.012700 0.976500
38.038700 0.982000
38.064800 0.964000
38.090900 0.960500
38.116900 1.035000
38.143000 0.808000
38.169100 0.674200
38.195100 0.602400
38.221200 0.533200
38.247200 0.467400
38.273300 0.405100
38.299400 0.340700
38.325400 0.268800
38.351500 0.204300
38.377600 0.132900
38.403600 0.054700
38.429700 0.034900
38.455700 0.022600
38.481800 0.014800
38.507900 0.009100
38.533900 0.005200
38.560000 0.003100
38.586100 0.001800
38.612100 0.000800
38.638200 0.000200
38.664300 0.000000
38.690300 0.000000
38.716400 0.000000
38.742400 0.000000
38.768500 0.000000
38.794600 0.000000
38.820600 0.000000
38.846700 0.000000
38.872800 0.000000
38.898800 0.000000
38.924900 0.000000
38.950900 0.000000
38.977000 0.000000
39.003100 0.000000
39.029100 0.000000
39.055200 0.000000
39.081300 0.000000
39.107300 0.000000
39.133400 0.000000
39.159400 0.000000
39.185500 0.000000
39.211600 0.000000
39.237600 0.000000
39.263700 0.000000
39.289800 0.000000
39.315800 0.000000
39.341900 0.000000
39.368000 0.000000
39.394000 0.000000
39.420100 0.000000
39.446100 0.000000
39.472200 0.000000
39.498300 0.000000
39.524300 0.000000
39.550400 0.000000
39.576500 0.000000
39.602500 0.000000
39.628600 0.000000
39.654600 0.000000
39.680700 0.000000
39.706800 0.000000
39.732800 0.000000
39.758900 0.000000
39.785000 0.000000
39.811000 0.000000
39.837100 0.000000
39.863100 0.000000
39.889200 0.000000
39.915300 0.000000
39.941300 0.000000
39.967400 0.000000
39.993500 0.000000
40.019500 0.000000
40.045600 0.000000
40.071700 0.000000
40.097700 0.000000
40.123800 0.000000
40.149800 0.000000
40.175900 0.000000
40.202000 0.000000
40.228000 0.000000
40.254100 0.000000
40.280200 0.000000
40.306200 0.000000
40.332300 0.000000
40.358300 0.000000
40.384400 0.000000
40.410500 0.000000
40.436500 0.000000
40.462600 0.000000
40.488700 0.000000
40.514700 0.000000
40.540800 0.000000
40.566800 0.000000
40.592900 0.000000
40.619000 0.000000
40.645000 0.000000
40.671100 0.000000
40.697200 0.000000
40.723200 0.000000
40.749300 0.000000
40.775400 0.000000
40.801400 0.000000
40.827500 0.000000
40.853500 0.000000
40.879600 0.000000
40.905700 0.000000
40.931700 0.000000
40.957800 0.000000
40.983900 0.000000
41.009900 0.000000
41.036000 0.000000
e
