set title 'mp-721759 - Density of States'
set xlabel 'Energy (eV)'
set ylabel 'DOS (states/eV)'
set grid
set xrange [-10:10]
set yrange [0:1.002]
set xzeroaxis lt -1
set terminal png size 800,600
set output 'mp-721759_dos_gnuplot.png'
plot '-' using 1:2 with lines title 'DOS'
-23.068800 0.000000
-22.976200 0.000000
-22.883500 0.000000
-22.790900 0.000000
-22.698300 0.000000
-22.605600 0.000000
-22.513000 0.000000
-22.420300 0.000000
-22.327700 0.000000
-22.235100 0.000000
-22.142400 0.000000
-22.049800 0.000000
-21.957200 0.000000
-21.864500 0.000000
-21.771900 0.000000
-21.679300 0.000000
-21.586600 0.000000
-21.494000 0.000000
-21.401300 0.000000
-21.308700 0.000000
-21.216100 0.000000
-21.123400 0.000000
-21.030800 0.000000
-20.938200 0.000000
-20.845500 0.000000
-20.752900 0.000000
-20.660300 0.000000
-20.567600 0.000000
-20.475000 0.000000
-20.382300 0.000000
-20.289700 0.000000
-20.197100 0.000000
-20.104400 0.000000
-20.011800 0.000000
-19.919200 0.000000
-19.826500 0.000000
-19.733900 0.000000
-19.641200 0.000000
-19.548600 0.000000
-19.456000 0.000000
-19.363300 0.000000
-19.270700 0.000000
-19.178100 0.000000
-19.085400 0.000000
-18.992800 0.000000
-18.900200 0.000000
-18.807500 0.000000
-18.714900 0.000000
-18.622200 0.000000
-18.529600 0.000000
-18.437000 0.000000
-18.344300 0.000000
-18.251700 0.000000
-18.159100 0.000000
-18.066400 0.000000
-17.973800 0.000000
-17.881200 0.000000
-17.788500 0.000000
-17.695900 0.000000
-17.603200 0.000000
-17.510600 0.000000
-17.418000 0.000000
-17.325300 0.000000
-17.232700 0.000000
-17.140100 0.000000
-17.047400 0.000000
-16.954800 0.000000
-16.862200 0.000000
-16.769500 0.000000
-16.676900 0.000000
-16.584200 0.000000
-16.491600 0.000000
-16.399000 0.000000
-16.306300 0.000000
-16.213700 0.000000
-16.121100 0.000000
-16.028400 0.000000
-15.935800 0.000000
-15.843100 0.000000
-15.750500 0.000000
-15.657900 0.000000
-15.565200 0.000000
-15.472600 0.000000
-15.380000 0.000000
-15.287300 0.000000
-15.194700 0.000000
-15.102100 0.000000
-15.009400 0.000000
-14.916800 0.000000
-14.824100 0.000000
-14.731500 0.000000
-14.638900 0.000400
-14.546200 0.019000
-14.453600 0.030600
-14.361000 0.036000
-14.268300 0.043700
-14.175700 0.047600
-14.083100 0.052400
-13.990400 0.057800
-13.897800 0.061000
-13.805100 0.064700
-13.712500 0.068800
-13.619900 0.072800
-13.527200 0.075600
-13.434600 0.078800
-13.342000 0.082100
-13.249300 0.085500
-13.156700 0.088600
-13.064000 0.091200
-12.971400 0.093800
-12.878800 0.096800
-12.786100 0.099800
-12.693500 0.102900
-12.600900 0.105200
-12.508200 0.107600
-12.415600 0.110200
-12.323000 0.112800
-12.230300 0.115500
-12.137700 0.118300
-12.045000 0.120700
-11.952400 0.123000
-11.859800 0.125400
-11.767100 0.127800
-11.674500 0.130300
-11.581900 0.132900
-11.489200 0.135600
-11.396600 0.137900
-11.304000 0.140200
-11.211300 0.142500
-11.118700 0.145000
-11.026000 0.147500
-10.933400 0.150000
-10.840800 0.152500
-10.748100 0.155100
-10.655500 0.157500
-10.562900 0.159900
-10.470200 0.162400
-10.377600 0.165000
-10.285000 0.167600
-10.192300 0.170200
-10.099700 0.172900
-10.007000 0.175700
-9.914400 0.178400
-9.821800 0.181100
-9.729100 0.184000
-9.636500 0.186900
-9.543900 0.189800
-9.451200 0.192900
-9.358600 0.196000
-9.265900 0.199200
-9.173300 0.202500
-9.080700 0.205900
-8.988000 0.209500
-8.895400 0.213300
-8.802800 0.217200
-8.710100 0.221200
-8.617500 0.225500
-8.524900 0.229900
-8.432200 0.234700
-8.339600 0.239900
-8.246900 0.245600
-8.154300 0.251900
-8.061700 0.258900
-7.969000 0.266900
-7.876400 0.275900
-7.783800 0.286900
-7.691100 0.301400
-7.598500 0.329200
-7.505900 0.352300
-7.413200 0.339200
-7.320600 0.336700
-7.227900 0.340300
-7.135300 0.339100
-7.042700 0.329700
-6.950000 0.325900
-6.857400 0.323800
-6.764800 0.317200
-6.672100 0.321900
-6.579500 0.320700
-6.486800 0.315600
-6.394200 0.311300
-6.301600 0.309800
-6.208900 0.307500
-6.116300 0.305100
-6.023700 0.304700
-5.931000 0.304800
-5.838400 0.303700
-5.745800 0.301000
-5.653100 0.299500
-5.560500 0.299900
-5.467800 0.302900
-5.375200 0.305500
-5.282600 0.308600
-5.189900 0.313400
-5.097300 0.323400
-5.004700 0.344200
-4.912000 0.394900
-4.819400 0.395400
-4.726800 0.219200
-4.634100 0.137400
-4.541500 0.058000
-4.448800 0.000000
-4.356200 0.000000
-4.263600 0.000000
-4.170900 0.000000
-4.078300 0.000000
-3.985700 0.000000
-3.893000 0.000000
-3.800400 0.000000
-3.707800 0.000000
-3.615100 0.000000
-3.522500 0.000000
-3.429800 0.000000
-3.337200 0.000000
-3.244600 0.000000
-3.151900 0.000000
-3.059300 0.000000
-2.966700 0.000000
-2.874000 0.000000
-2.781400 0.000000
-2.688700 0.000000
-2.596100 0.000000
-2.503500 0.022400
-2.410800 0.033300
-2.318200 0.058700
-2.225600 0.061800
-2.132900 0.071600
-2.040300 0.084100
-1.947700 0.096000
-1.855000 0.100100
-1.762400 0.108000
-1.669700 0.115700
-1.577100 0.124400
-1.484500 0.134900
-1.391800 0.141300
-1.299200 0.148100
-1.206600 0.154400
-1.113900 0.162000
-1.021300 0.172500
-0.928700 0.199400
-0.836000 0.224300
-0.743400 0.238500
-0.650700 0.255400
-0.558100 0.277600
-0.465500 0.291700
-0.372800 0.308800
-0.280200 0.331400
-0.187600 0.354100
-0.094900 0.375600
-0.002300 0.403000
0.090400 0.439700
0.183000 0.491200
0.275600 0.541400
0.368300 0.568700
0.460900 0.544100
0.553500 0.533200
0.646200 0.525600
0.738800 0.513100
0.831400 0.506700
0.924100 0.498400
1.016700 0.490200
1.109400 0.485600
1.202000 0.471600
1.294600 0.410800
1.387300 0.331500
1.479900 0.302000
1.572500 0.278600
1.665200 0.267800
1.757800 0.277500
1.850400 0.293900
1.943100 0.313600
2.035700 0.354300
2.128400 0.344700
2.221000 0.348900
2.313600 0.356900
2.406300 0.362400
2.498900 0.367900
2.591500 0.368600
2.684200 0.366000
2.776800 0.367300
2.869400 0.373600
2.962100 0.379700
3.054700 0.382400
3.147400 0.384100
3.240000 0.386600
3.332600 0.383900
3.425300 0.383600
3.517900 0.387200
3.610500 0.389100
3.703200 0.392500
3.795800 0.394300
3.888500 0.395500
3.981100 0.396300
4.073700 0.394600
4.166400 0.395000
4.259000 0.398000
4.351600 0.398700
4.444300 0.399400
4.536900 0.400300
4.629500 0.431200
4.722200 0.437900
4.814800 0.452100
4.907500 0.475300
5.000100 0.475800
5.092700 0.486400
5.185400 0.497100
5.278000 0.509400
5.370600 0.525500
5.463300 0.550400
5.555900 0.558900
5.648500 0.578600
5.741200 0.602500
5.833800 0.624000
5.926500 0.672700
6.019100 0.737500
6.111700 0.789500
6.204400 0.780600
6.297000 0.786300
6.389600 0.785400
6.482300 0.785500
6.574900 0.788000
6.667500 0.785300
6.760200 0.787600
6.852800 0.790000
6.945500 0.791200
7.038100 0.795100
7.130700 0.795400
7.223400 0.802200
7.316000 0.801900
7.408600 0.801000
7.501300 0.804000
7.593900 0.811300
7.686600 0.819600
7.779200 0.822600
7.871800 0.826400
7.964500 0.829700
8.057100 0.836600
8.149700 0.843100
8.242400 0.850200
8.335000 0.856600
8.427600 0.865100
8.520300 0.872700
8.612900 0.882000
8.705600 0.886300
8.798200 0.910500
8.890800 0.886400
8.983500 0.727900
9.076100 0.659000
9.168700 0.611800
9.261400 0.565400
9.354000 0.527800
9.446600 0.488900
9.539300 0.457900
9.631900 0.424600
9.724600 0.387500
9.817200 0.356600
9.909800 0.309900
10.002500 0.262700
10.095100 0.120100
10.187700 0.000000
10.280400 0.000000
10.373000 0.000000
10.465700 0.000000
10.558300 0.000000
10.650900 0.000000
10.743600 0.000000
10.836200 0.000000
10.928800 0.000000
11.021500 0.000000
11.114100 0.000000
11.206700 0.000000
11.299400 0.000000
11.392000 0.000000
11.484700 0.000000
11.577300 0.000000
11.669900 0.000000
11.762600 0.000000
11.855200 0.000000
11.947800 0.000000
12.040500 0.000000
12.133100 0.000000
12.225700 0.000000
12.318400 0.000000
12.411000 0.000000
12.503700 0.000000
12.596300 0.000000
12.688900 0.000000
12.781600 0.000000
12.874200 0.000000
12.966800 0.000000
13.059500 0.000000
13.152100 0.000000
13.244700 0.000000
13.337400 0.000000
13.430000 0.000000
13.522700 0.000000
13.615300 0.000000
13.707900 0.000000
13.800600 0.000000
13.893200 0.000000
13.985800 0.000000
14.078500 0.000000
14.171100 0.000000
14.263800 0.000000
14.356400 0.000000
14.449000 0.000000
14.541700 0.000000
14.634300 0.000000
14.726900 0.000000
14.819600 0.000000
14.912200 0.000000
15.004800 0.000000
15.097500 0.000000
15.190100 0.000000
15.282800 0.000000
15.375400 0.000000
15.468000 0.000000
15.560700 0.000000
15.653300 0.000000
15.745900 0.000000
15.838600 0.000000
15.931200 0.000000
16.023800 0.000000
16.116500 0.000000
16.209100 0.000000
16.301800 0.000000
16.394400 0.000000
16.487000 0.000000
16.579700 0.000000
16.672300 0.000000
16.764900 0.000000
16.857600 0.000000
16.950200 0.000000
17.042900 0.000000
17.135500 0.000000
17.228100 0.000000
17.320800 0.000000
17.413400 0.000000
17.506000 0.000000
17.598700 0.000000
17.691300 0.000000
17.783900 0.000000
17.876600 0.000000
17.969200 0.000000
18.061900 0.000000
18.154500 0.000000
18.247100 0.000000
18.339800 0.000000
18.432400 0.000000
18.525000 0.000000
18.617700 0.000000
18.710300 0.000000
18.802900 0.000000
18.895600 0.000000
18.988200 0.000000
19.080900 0.000000
19.173500 0.000000
19.266100 0.000000
19.358800 0.000000
19.451400 0.000000
19.544000 0.000000
19.636700 0.000000
19.729300 0.000000
19.821900 0.000000
19.914600 0.000000
20.007200 0.000000
20.099900 0.000000
20.192500 0.000000
20.285100 0.000000
20.377800 0.000000
20.470400 0.000000
20.563000 0.000000
20.655700 0.000000
20.748300 0.000000
20.841000 0.000000
20.933600 0.000000
21.026200 0.000000
21.118900 0.000000
21.211500 0.000000
21.304100 0.013000
21.396800 0.022100
21.489400 0.027500
21.582000 0.032200
21.674700 0.037200
21.767300 0.042600
21.860000 0.047800
21.952600 0.051400
22.045200 0.055100
22.137900 0.059500
22.230500 0.064400
22.323100 0.069300
22.415800 0.074400
22.508400 0.077600
22.601000 0.081800
22.693700 0.086000
22.786300 0.090500
22.879000 0.095200
22.971600 0.099900
23.064200 0.104900
23.156900 0.109800
23.249500 0.114000
23.342100 0.118400
23.434800 0.123000
23.527400 0.127700
23.620000 0.132600
23.712700 0.138000
23.805300 0.143600
23.898000 0.149400
23.990600 0.154900
24.083200 0.160200
24.175900 0.165800
24.268500 0.171900
24.361100 0.178400
24.453800 0.185400
24.546400 0.193100
24.639100 0.201400
24.731700 0.210300
24.824300 0.226400
24.917000 0.250400
25.009600 0.271100
25.102200 0.295200
25.194900 0.345600
25.287500 0.344800
25.380100 0.340600
25.472800 0.341200
25.565400 0.332000
25.658100 0.334300
25.750700 0.322400
25.843300 0.320700
25.936000 0.321300
26.028600 0.319600
26.121200 0.317800
26.213900 0.312600
26.306500 0.311400
26.399100 0.310800
26.491800 0.311300
26.584400 0.312400
26.677100 0.309500
26.769700 0.307100
26.862300 0.306900
26.955000 0.307600
27.047600 0.309000
27.140200 0.310200
27.232900 0.310800
27.325500 0.310900
27.418200 0.310900
27.510800 0.310300
27.603400 0.311500
27.696100 0.313100
27.788700 0.314700
27.881300 0.317100
27.974000 0.319800
28.066600 0.322700
28.159200 0.325900
28.251900 0.328800
28.344500 0.330800
28.437200 0.334300
28.529800 0.338300
28.622400 0.343100
28.715100 0.373000
28.807700 0.416500
28.900300 0.452500
28.993000 0.493600
29.085600 0.542600
29.178200 0.616400
29.270900 0.609000
29.363500 0.666400
29.456200 0.533200
29.548800 0.510000
29.641400 0.495800
29.734100 0.489200
29.826700 0.484500
29.919300 0.507500
30.012000 0.541100
30.104600 0.601700
30.197200 0.698000
30.289900 0.815600
30.382500 1.033600
30.475200 0.947500
30.567800 0.957900
30.660400 1.016300
30.753100 0.981800
30.845700 1.023800
30.938300 0.801000
31.031000 0.696300
31.123600 0.641300
31.216300 0.567700
31.308900 0.535500
31.401500 0.529400
31.494200 0.530300
31.586800 0.525900
31.679400 0.497100
31.772100 0.456200
31.864700 0.435600
31.957300 0.419800
32.050000 0.400400
32.142600 0.380400
32.235300 0.363500
32.327900 0.343300
32.420500 0.329700
32.513200 0.289800
32.605800 0.222500
32.698400 0.183300
32.791100 0.141900
32.883700 0.110400
32.976300 0.079200
33.069000 0.059500
33.161600 0.045500
33.254300 0.045100
33.346900 0.093700
33.439500 0.183100
33.532200 0.211700
33.624800 0.231100
33.717400 0.255300
33.810100 0.257200
33.902700 0.271100
33.995400 0.287800
34.088000 0.304100
34.180600 0.319500
34.273300 0.337400
34.365900 0.353500
34.458500 0.369400
34.551200 0.384000
34.643800 0.399300
34.736400 0.418000
34.829100 0.440200
34.921700 0.461700
35.014400 0.479900
35.107000 0.496900
35.199600 0.517300
35.292300 0.544700
35.384900 0.584600
35.477500 0.612900
35.570200 0.647200
35.662800 0.698700
35.755400 0.845300
35.848100 0.770700
35.940700 0.756300
36.033400 0.795900
36.126000 0.878000
36.218600 0.671700
36.311300 0.473000
36.403900 0.446200
36.496500 0.436400
36.589200 0.431200
36.681800 0.420200
36.774400 0.411400
36.867100 0.406300
36.959700 0.407600
37.052400 0.406200
37.145000 0.403300
37.237600 0.400900
37.330300 0.405600
37.422900 0.399300
37.515500 0.381200
37.608200 0.373400
37.700800 0.371700
37.793500 0.369100
37.886100 0.366400
37.978700 0.363900
38.071400 0.361500
38.164000 0.360200
38.256600 0.359400
38.349300 0.372500
38.441900 0.406800
38.534500 0.436300
38.627200 0.455900
38.719800 0.507200
38.812500 0.496200
38.905100 0.451700
38.997700 0.417300
39.090400 0.441300
39.183000 0.414200
39.275600 0.424500
39.368300 0.410600
39.460900 0.400300
39.553500 0.388600
39.646200 0.388600
39.738800 0.382100
39.831500 0.381800
39.924100 0.378700
40.016700 0.376700
40.109400 0.372600
40.202000 0.373000
40.294600 0.368900
40.387300 0.363500
40.479900 0.369200
40.572500 0.371900
40.665200 0.364800
40.757800 0.359100
40.850500 0.376900
40.943100 0.410100
41.035700 0.488700
41.128400 0.455600
41.221000 0.387200
41.313600 0.356000
41.406300 0.347200
41.498900 0.333400
41.591600 0.326600
41.684200 0.322200
41.776800 0.311800
41.869500 0.307200
41.962100 0.303400
42.054700 0.298800
42.147400 0.290900
42.240000 0.283200
42.332600 0.276200
42.425300 0.272000
42.517900 0.268100
42.610600 0.265400
42.703200 0.262400
42.795800 0.259900
42.888500 0.258500
42.981100 0.256200
43.073700 0.253400
43.166400 0.250800
43.259000 0.251900
43.351600 0.255000
43.444300 0.259800
43.536900 0.265900
43.629600 0.267200
43.722200 0.264100
43.814800 0.263900
43.907500 0.264500
44.000100 0.265000
44.092700 0.265100
44.185400 0.265000
44.278000 0.265800
44.370700 0.266700
44.463300 0.268000
44.555900 0.269800
44.648600 0.271500
44.741200 0.274000
44.833800 0.278600
44.926500 0.282400
45.019100 0.284300
45.111700 0.284000
45.204400 0.283200
45.297000 0.281700
45.389700 0.278700
45.482300 0.275700
45.574900 0.290800
45.667600 0.277200
45.760200 0.271300
45.852800 0.273400
45.945500 0.277500
46.038100 0.289000
46.130700 0.289100
46.223400 0.286300
46.316000 0.283400
46.408700 0.286600
46.501300 0.294000
46.593900 0.302900
46.686600 0.310700
46.779200 0.316900
46.871800 0.319100
46.964500 0.329900
47.057100 0.339700
47.149700 0.349600
47.242400 0.358400
47.335000 0.366000
47.427700 0.373800
47.520300 0.380600
47.612900 0.385300
47.705600 0.400700
47.798200 0.424200
47.890800 0.465100
47.983500 0.449000
48.076100 0.427000
48.168800 0.415400
48.261400 0.408900
48.354000 0.406800
48.446700 0.402400
48.539300 0.396900
48.631900 0.393100
48.724600 0.387100
48.817200 0.382100
48.909800 0.379300
49.002500 0.374600
49.095100 0.370700
49.187800 0.368900
49.280400 0.367700
49.373000 0.365300
49.465700 0.363100
49.558300 0.362000
49.650900 0.360700
49.743600 0.359600
49.836200 0.361600
49.928800 0.361100
50.021500 0.358900
50.114100 0.356500
50.206800 0.355300
50.299400 0.356500
50.392000 0.359400
50.484700 0.365000
50.577300 0.377900
50.669900 0.394000
50.762600 0.383300
50.855200 0.360300
50.947900 0.336000
51.040500 0.301500
51.133100 0.274000
51.225800 0.260200
51.318400 0.282300
51.411000 0.253400
51.503700 0.255600
51.596300 0.266300
51.688900 0.280500
51.781600 0.292900
51.874200 0.299200
51.966900 0.301000
52.059500 0.340000
52.152100 0.356600
52.244800 0.367000
52.337400 0.379900
52.430000 0.387400
52.522700 0.402800
52.615300 0.412100
52.707900 0.405100
52.800600 0.397100
52.893200 0.388800
52.985900 0.381700
53.078500 0.376500
53.171100 0.373400
53.263800 0.371200
53.356400 0.370600
53.449000 0.368600
53.541700 0.366100
53.634300 0.362800
53.726900 0.358800
53.819600 0.357800
53.912200 0.355700
54.004900 0.335900
54.097500 0.330300
54.190100 0.327400
54.282800 0.327000
54.375400 0.322000
54.468000 0.315000
54.560700 0.306600
54.653300 0.308700
54.746000 0.299000
54.838600 0.296600
54.931200 0.295500
55.023900 0.294800
55.116500 0.294300
55.209100 0.294000
55.301800 0.296600
55.394400 0.293900
55.487000 0.296100
55.579700 0.298800
55.672300 0.301900
55.765000 0.306300
55.857600 0.312200
55.950200 0.321300
56.042900 0.336100
56.135500 0.350200
56.228100 0.360100
56.320800 0.372400
56.413400 0.380800
56.506000 0.394300
56.598700 0.410600
56.691300 0.418200
56.784000 0.410100
56.876600 0.406600
56.969200 0.402700
57.061900 0.399600
57.154500 0.398300
57.247100 0.401100
57.339800 0.411400
57.432400 0.405600
57.525000 0.408600
57.617700 0.387500
57.710300 0.367900
57.803000 0.354700
57.895600 0.345400
57.988200 0.340100
58.080900 0.337800
58.173500 0.337600
58.266100 0.328000
58.358800 0.322400
58.451400 0.318700
58.544100 0.316200
58.636700 0.313500
58.729300 0.308800
58.822000 0.304200
58.914600 0.300700
59.007200 0.298200
59.099900 0.294200
59.192500 0.292100
59.285100 0.290500
59.377800 0.286000
59.470400 0.282000
59.563100 0.278700
59.655700 0.275500
59.748300 0.272700
59.841000 0.272500
59.933600 0.273800
60.026200 0.274700
60.118900 0.271600
60.211500 0.267800
60.304100 0.264100
60.396800 0.261500
60.489400 0.259000
60.582100 0.256300
60.674700 0.255900
60.767300 0.255400
60.860000 0.254600
60.952600 0.252700
61.045200 0.250100
61.137900 0.249400
61.230500 0.247900
61.323200 0.245600
61.415800 0.244900
61.508400 0.242400
61.601100 0.242200
61.693700 0.238700
61.786300 0.277400
61.879000 0.277100
61.971600 0.277200
62.064200 0.292000
62.156900 0.286600
62.249500 0.291800
62.342200 0.302700
62.434800 0.313700
62.527400 0.319100
62.620100 0.322800
62.712700 0.336900
62.805300 0.345300
62.898000 0.351600
62.990600 0.364400
63.083200 0.381500
63.175900 0.401700
63.268500 0.395400
63.361200 0.400400
63.453800 0.418900
63.546400 0.444600
63.639100 0.475700
63.731700 0.497100
63.824300 0.512900
63.917000 0.526000
64.009600 0.531700
64.102200 0.541400
64.194900 0.558200
64.287500 0.582400
64.380200 0.644600
64.472800 0.627400
64.565400 0.600200
64.658100 0.639300
64.750700 0.673700
64.843300 0.708500
64.936000 0.649300
65.028600 0.647900
65.121300 0.654800
65.213900 0.657800
65.306500 0.653700
65.399200 0.641200
65.491800 0.643900
65.584400 0.655400
65.677100 0.653000
65.769700 0.658700
65.862300 0.712400
65.955000 0.773100
66.047600 0.758000
66.140300 0.749300
66.232900 0.760900
66.325500 0.762600
66.418200 0.785500
66.510800 0.764800
66.603400 0.827300
66.696100 0.684300
66.788700 0.696100
66.881300 0.685800
66.974000 0.735400
67.066600 0.759400
67.159300 0.765600
67.251900 0.807700
67.344500 0.861500
67.437200 0.873200
67.529800 0.837100
67.622400 0.787200
67.715100 0.686800
67.807700 0.625300
67.900400 0.572000
67.993000 0.532200
68.085600 0.503700
68.178300 0.486200
68.270900 0.439700
68.363500 0.420300
68.456200 0.401900
68.548800 0.391100
68.641400 0.371000
68.734100 0.359900
68.826700 0.352800
68.919400 0.356700
69.012000 0.353300
69.104600 0.349900
69.197300 0.345300
69.289900 0.343600
69.382500 0.342400
69.475200 0.347400
69.567800 0.353200
69.660400 0.366200
69.753100 0.376300
69.845700 0.402100
69.938400 0.428300
70.031000 0.405800
70.123600 0.412800
70.216300 0.410000
70.308900 0.370300
70.401500 0.333800
70.494200 0.305600
70.586800 0.288700
70.679400 0.292600
70.772100 0.293300
70.864700 0.313300
70.957400 0.323300
71.050000 0.359100
71.142600 0.390700
71.235300 0.441000
71.327900 0.454300
71.420500 0.474900
71.513200 0.482100
71.605800 0.523800
71.698500 0.563000
71.791100 0.665900
71.883700 0.803300
71.976400 0.727300
72.069000 0.640500
72.161600 0.599000
72.254300 0.576100
72.346900 0.557500
72.439500 0.562100
72.532200 0.557800
72.624800 0.530000
72.717500 0.495300
72.810100 0.471100
72.902700 0.461500
72.995400 0.463500
73.088000 0.474800
73.180600 0.487600
73.273300 0.500400
73.365900 0.514400
73.458500 0.530700
73.551200 0.562200
73.643800 0.530200
73.736500 0.524000
73.829100 0.519000
73.921700 0.518200
74.014400 0.502200
74.107000 0.498900
74.199600 0.500100
74.292300 0.503400
74.384900 0.500100
74.477500 0.495700
74.570200 0.484200
74.662800 0.476300
74.755500 0.475900
74.848100 0.473600
74.940700 0.476900
75.033400 0.499600
75.126000 0.485300
75.218600 0.497200
75.311300 0.560100
75.403900 0.569200
75.496600 0.572400
75.589200 0.574300
75.681800 0.563300
75.774500 0.554400
75.867100 0.541300
75.959700 0.535500
76.052400 0.527000
76.145000 0.533600
76.237600 0.545100
76.330300 0.555800
76.422900 0.570100
76.515600 0.585700
76.608200 0.588700
76.700800 0.572300
76.793500 0.525300
76.886100 0.501400
76.978700 0.466100
77.071400 0.466200
77.164000 0.478500
77.256600 0.488300
77.349300 0.491300
77.441900 0.489400
77.534600 0.489700
77.627200 0.480800
77.719800 0.457000
77.812500 0.446600
77.905100 0.429100
77.997700 0.420800
78.090400 0.413400
78.183000 0.407600
78.275700 0.405100
78.368300 0.403900
78.460900 0.411600
78.553600 0.415300
78.646200 0.421000
78.738800 0.432700
78.831500 0.430600
78.924100 0.421700
79.016700 0.421500
79.109400 0.427600
79.202000 0.438300
79.294700 0.416200
79.387300 0.409900
79.479900 0.401300
79.572600 0.390900
79.665200 0.386900
79.757800 0.383400
79.850500 0.382700
79.943100 0.393000
80.035700 0.387200
80.128400 0.390100
80.221000 0.389200
80.313700 0.390700
80.406300 0.393300
80.498900 0.396200
80.591600 0.398300
80.684200 0.402900
80.776800 0.412300
80.869500 0.428700
80.962100 0.426200
81.054700 0.434400
81.147400 0.445200
81.240000 0.457300
81.332700 0.472900
81.425300 0.495600
81.517900 0.532800
81.610600 0.592900
81.703200 0.656700
81.795800 0.638500
81.888500 0.497800
81.981100 0.461900
82.073800 0.446300
82.166400 0.434900
82.259000 0.422600
82.351700 0.419500
82.444300 0.418500
82.536900 0.418900
82.629600 0.420500
82.722200 0.422000
82.814800 0.424000
82.907500 0.426400
83.000100 0.428000
83.092800 0.431600
83.185400 0.437500
83.278000 0.437300
83.370700 0.431000
83.463300 0.427000
83.555900 0.422400
83.648600 0.419600
83.741200 0.418400
83.833800 0.417400
83.926500 0.423200
84.019100 0.420000
84.111800 0.416700
84.204400 0.415500
84.297000 0.416300
84.389700 0.419100
84.482300 0.421500
84.574900 0.428800
84.667600 0.434600
84.760200 0.439200
84.852900 0.447100
84.945500 0.457500
85.038100 0.465500
85.130800 0.468700
85.223400 0.469400
85.316000 0.470100
85.408700 0.471900
85.501300 0.474500
85.593900 0.499700
85.686600 0.474500
85.779200 0.472900
85.871900 0.481400
85.964500 0.477800
86.057100 0.477000
86.149800 0.482800
86.242400 0.492600
86.335000 0.485400
86.427700 0.491400
86.520300 0.487600
86.612900 0.503800
86.705600 0.525500
86.798200 0.552800
86.890900 0.575000
86.983500 0.588500
87.076100 0.620800
87.168800 0.634800
87.261400 0.609100
87.354000 0.626200
87.446700 0.592800
87.539300 0.640300
87.631900 0.661800
87.724600 0.586000
87.817200 0.554400
87.909900 0.513000
88.002500 0.459900
88.095100 0.426100
88.187800 0.400100
88.280400 0.377000
88.373000 0.365200
88.465700 0.329500
88.558300 0.323100
88.651000 0.325600
88.743600 0.327600
88.836200 0.340800
88.928900 0.336800
89.021500 0.348100
89.114100 0.360300
89.206800 0.387100
89.299400 0.414900
89.392000 0.479000
89.484700 0.505800
89.577300 0.528500
89.670000 0.543300
89.762600 0.557200
89.855200 0.565700
89.947900 0.581600
90.040500 0.666700
90.133100 0.669900
90.225800 0.644000
90.318400 0.624800
90.411000 0.601100
90.503700 0.587000
90.596300 0.574000
90.689000 0.573100
90.781600 0.562200
90.874200 0.564700
90.966900 0.565600
91.059500 0.553900
91.152100 0.538000
91.244800 0.492100
91.337400 0.446000
91.430000 0.424900
91.522700 0.415300
91.615300 0.410200
91.708000 0.398400
91.800600 0.390200
91.893200 0.384600
91.985900 0.382400
92.078500 0.378400
92.171100 0.373200
92.263800 0.370900
92.356400 0.373500
92.449100 0.388800
92.541700 0.403100
92.634300 0.413300
92.727000 0.426600
92.819600 0.441400
92.912200 0.451700
93.004900 0.455100
93.097500 0.454200
93.190100 0.459400
93.282800 0.449200
93.375400 0.435800
93.468100 0.440100
93.560700 0.458200
93.653300 0.414800
93.746000 0.413500
93.838600 0.412800
93.931200 0.414300
94.023900 0.427400
94.116500 0.449300
94.209100 0.486700
94.301800 0.554500
94.394400 0.589300
94.487100 0.619600
94.579700 0.641400
94.672300 0.652100
94.765000 0.639900
94.857600 0.650200
94.950200 0.655500
95.042900 0.630100
95.135500 0.613200
95.228200 0.592900
95.320800 0.596900
95.413400 0.607600
95.506100 0.600700
95.598700 0.617100
95.691300 0.631600
95.784000 0.650300
95.876600 0.670600
95.969200 0.685400
96.061900 0.675800
96.154500 0.715100
96.247200 0.696000
96.339800 0.658200
96.432400 0.616800
96.525100 0.598500
96.617700 0.585300
96.710300 0.566500
96.803000 0.544800
96.895600 0.523100
96.988200 0.502300
97.080900 0.481600
97.173500 0.476100
97.266200 0.470500
97.358800 0.487600
97.451400 0.489100
97.544100 0.478400
97.636700 0.466400
97.729300 0.465600
97.822000 0.465800
97.914600 0.462600
98.007200 0.475200
98.099900 0.496500
98.192500 0.519800
98.285200 0.541200
98.377800 0.548300
98.470400 0.561700
98.563100 0.524200
98.655700 0.502700
98.748300 0.500400
98.841000 0.496800
98.933600 0.496900
99.026300 0.496500
99.118900 0.492800
99.211500 0.501800
99.304200 0.498700
99.396800 0.500900
99.489400 0.509500
99.582100 0.517600
99.674700 0.541400
99.767300 0.581200
99.860000 0.627100
99.952600 0.665200
100.045300 0.766800
100.137900 0.702100
100.230500 0.639700
100.323200 0.592500
100.415800 0.557500
100.508400 0.514400
100.601100 0.480500
100.693700 0.463700
100.786300 0.451800
100.879000 0.448100
100.971600 0.443600
101.064300 0.429000
101.156900 0.416300
101.249500 0.416200
101.342200 0.432900
101.434800 0.445900
101.527400 0.424200
101.620100 0.400400
101.712700 0.394400
101.805400 0.398400
101.898000 0.410900
101.990600 0.423000
102.083300 0.439800
102.175900 0.446400
102.268500 0.445100
102.361200 0.449200
102.453800 0.454700
102.546400 0.458200
102.639100 0.472200
102.731700 0.485200
102.824400 0.478800
102.917000 0.481100
103.009600 0.486100
103.102300 0.495100
103.194900 0.507000
103.287500 0.508700
103.380200 0.507200
103.472800 0.512300
103.565400 0.524000
103.658100 0.537700
103.750700 0.547400
103.843400 0.558800
103.936000 0.547700
104.028600 0.562100
104.121300 0.549900
104.213900 0.522300
104.306500 0.502900
104.399200 0.499500
104.491800 0.498400
104.584400 0.496800
104.677100 0.516500
104.769700 0.553000
104.862400 0.587000
104.955000 0.616300
105.047600 0.639600
105.140300 0.626600
105.232900 0.602800
105.325500 0.604900
105.418200 0.628500
105.510800 0.642000
105.603500 0.632000
105.696100 0.627400
105.788700 0.631700
105.881400 0.641900
105.974000 0.662000
106.066600 0.675400
106.159300 0.705600
106.251900 0.704900
106.344500 0.710600
106.437200 0.714400
106.529800 0.715900
106.622500 0.715300
106.715100 0.722300
106.807700 0.727400
106.900400 0.699400
106.993000 0.668700
107.085600 0.633900
107.178300 0.594500
107.270900 0.574800
107.363500 0.553900
107.456200 0.540800
107.548800 0.531900
107.641500 0.525600
107.734100 0.522000
107.826700 0.524100
107.919400 0.527700
108.012000 0.527800
108.104600 0.526000
108.197300 0.516900
108.289900 0.529800
108.382500 0.535800
108.475200 0.526200
108.567800 0.517500
108.660500 0.482500
108.753100 0.461900
108.845700 0.464000
108.938400 0.460600
109.031000 0.455400
109.123600 0.454900
109.216300 0.456900
109.308900 0.459000
109.401600 0.460000
109.494200 0.467500
109.586800 0.464700
109.679500 0.466200
109.772100 0.471300
109.864700 0.471200
109.957400 0.463300
110.050000 0.465500
110.142600 0.462600
110.235300 0.468000
110.327900 0.482100
110.420600 0.489200
110.513200 0.491700
110.605800 0.492200
110.698500 0.492400
110.791100 0.491800
110.883700 0.489100
110.976400 0.487700
111.069000 0.488900
111.161600 0.489900
111.254300 0.492600
111.346900 0.495900
111.439600 0.497600
111.532200 0.495600
111.624800 0.492400
111.717500 0.493100
111.810100 0.485300
111.902700 0.482800
111.995400 0.480500
112.088000 0.476600
112.180700 0.470300
112.273300 0.463100
112.365900 0.458800
112.458600 0.460700
112.551200 0.498800
112.643800 0.506000
112.736500 0.508600
112.829100 0.508100
112.921700 0.509600
113.014400 0.504000
113.107000 0.495800
113.199700 0.484600
113.292300 0.476400
113.384900 0.462400
113.477600 0.454900
113.570200 0.449700
113.662800 0.447600
113.755500 0.451000
113.848100 0.459300
113.940700 0.467900
114.033400 0.478900
114.126000 0.494500
114.218700 0.551900
114.311300 0.556400
114.403900 0.553900
114.496600 0.561700
114.589200 0.571800
114.681800 0.577500
114.774500 0.583700
114.867100 0.563600
114.959700 0.544000
115.052400 0.538300
115.145000 0.538200
115.237700 0.530800
115.330300 0.515100
115.422900 0.513300
115.515600 0.513600
115.608200 0.517700
115.700800 0.524300
115.793500 0.529500
115.886100 0.525900
115.978800 0.518700
116.071400 0.518100
116.164000 0.521400
116.256700 0.530200
116.349300 0.544000
116.441900 0.574500
116.534600 0.569500
116.627200 0.568600
116.719800 0.572100
116.812500 0.578200
116.905100 0.603500
116.997800 0.588400
117.090400 0.581100
117.183000 0.573100
117.275700 0.569000
117.368300 0.552400
117.460900 0.533400
117.553600 0.520300
117.646200 0.509900
117.738800 0.509000
117.831500 0.507000
117.924100 0.504400
118.016800 0.502100
118.109400 0.497500
118.202000 0.493900
118.294700 0.495900
118.387300 0.490000
118.479900 0.491600
118.572600 0.500800
118.665200 0.513300
118.757900 0.528600
118.850500 0.553600
118.943100 0.572200
119.035800 0.577900
119.128400 0.583200
119.221000 0.591300
119.313700 0.616000
119.406300 0.578400
119.498900 0.572400
119.591600 0.582500
119.684200 0.592000
119.776900 0.595200
119.869500 0.600600
119.962100 0.614800
120.054800 0.620800
120.147400 0.618200
120.240000 0.624000
120.332700 0.623200
120.425300 0.603700
120.517900 0.594100
120.610600 0.593000
120.703200 0.588900
120.795900 0.574700
120.888500 0.560200
120.981100 0.552000
121.073800 0.555400
121.166400 0.574600
121.259000 0.577800
121.351700 0.564300
121.444300 0.552300
121.536900 0.553100
121.629600 0.535700
121.722200 0.525300
121.814900 0.517700
121.907500 0.511200
122.000100 0.512600
122.092800 0.523700
122.185400 0.540200
122.278000 0.540800
122.370700 0.544200
122.463300 0.567900
122.556000 0.589700
122.648600 0.591000
122.741200 0.598500
122.833900 0.618800
122.926500 0.636000
123.019100 0.643900
123.111800 0.650500
123.204400 0.662300
123.297000 0.665100
123.389700 0.657200
123.482300 0.645000
123.575000 0.639200
123.667600 0.639900
123.760200 0.633800
123.852900 0.612100
123.945500 0.600600
124.038100 0.592100
124.130800 0.582500
124.223400 0.570800
124.316000 0.559600
124.408700 0.551200
124.501300 0.544900
124.594000 0.535600
124.686600 0.531100
124.779200 0.525600
124.871900 0.521200
124.964500 0.509300
125.057100 0.503700
125.149800 0.511800
125.242400 0.522900
125.335000 0.532400
125.427700 0.538400
125.520300 0.529300
125.613000 0.534200
125.705600 0.542100
125.798200 0.551100
125.890900 0.554700
125.983500 0.561800
126.076100 0.566000
126.168800 0.567500
126.261400 0.564400
126.354100 0.583900
126.446700 0.565200
126.539300 0.562500
126.632000 0.561400
126.724600 0.563100
126.817200 0.569600
126.909900 0.577100
127.002500 0.582100
127.095100 0.589900
127.187800 0.600500
127.280400 0.626100
127.373100 0.644300
127.465700 0.653600
127.558300 0.652200
127.651000 0.659900
127.743600 0.650300
127.836200 0.634700
127.928900 0.610100
128.021500 0.596800
128.114100 0.582000
128.206800 0.577700
128.299400 0.584700
128.392100 0.590400
128.484700 0.595500
128.577300 0.615800
128.670000 0.638600
128.762600 0.636500
128.855200 0.643800
128.947900 0.638000
129.040500 0.622400
129.133200 0.620300
129.225800 0.617100
129.318400 0.623800
129.411100 0.625900
129.503700 0.632500
129.596300 0.648500
129.689000 0.652100
129.781600 0.651200
129.874200 0.647700
129.966900 0.641000
130.059500 0.634600
130.152200 0.637600
130.244800 0.621000
130.337400 0.614100
130.430100 0.613600
130.522700 0.612800
130.615300 0.580800
130.708000 0.575600
130.800600 0.563400
130.893200 0.564600
130.985900 0.572000
131.078500 0.601800
131.171200 0.620700
131.263800 0.585000
131.356400 0.588200
131.449100 0.613800
131.541700 0.599600
131.634300 0.618800
131.727000 0.624700
131.819600 0.617400
131.912200 0.606300
132.004900 0.601400
132.097500 0.595000
132.190200 0.592300
132.282800 0.594100
132.375400 0.592800
132.468100 0.584800
132.560700 0.582000
132.653300 0.587500
132.746000 0.586200
132.838600 0.581700
132.931300 0.575500
133.023900 0.568200
133.116500 0.564500
133.209200 0.561700
133.301800 0.558000
133.394400 0.548800
133.487100 0.545200
133.579700 0.543900
133.672300 0.555700
133.765000 0.552900
133.857600 0.570000
133.950300 0.580700
134.042900 0.604000
134.135500 0.606600
134.228200 0.616100
134.320800 0.625600
134.413400 0.629700
134.506100 0.644800
134.598700 0.648400
134.691300 0.645000
134.784000 0.629900
134.876600 0.625600
134.969300 0.648000
135.061900 0.600700
135.154500 0.583200
135.247200 0.564100
135.339800 0.551300
135.432400 0.540800
135.525100 0.536000
135.617700 0.527400
135.710400 0.525400
135.803000 0.517500
135.895600 0.509000
135.988300 0.497300
136.080900 0.490300
136.173500 0.484900
136.266200 0.484300
136.358800 0.482000
136.451400 0.463100
136.544100 0.452700
136.636700 0.441600
136.729400 0.428500
136.822000 0.425400
136.914600 0.416900
137.007300 0.413500
137.099900 0.407400
137.192500 0.409300
137.285200 0.417500
137.377800 0.443100
137.470400 0.514000
137.563100 0.546200
137.655700 0.568700
137.748400 0.577800
137.841000 0.583100
137.933600 0.596400
138.026300 0.591900
138.118900 0.601400
138.211500 0.632700
138.304200 0.640300
138.396800 0.667000
138.489400 0.675800
138.582100 0.684500
138.674700 0.696900
138.767400 0.712000
138.860000 0.710200
138.952600 0.702000
139.045300 0.698700
139.137900 0.702700
139.230500 0.692300
139.323200 0.689800
139.415800 0.667700
139.508500 0.634200
139.601100 0.585000
139.693700 0.545800
139.786400 0.521400
139.879000 0.495000
139.971600 0.460000
140.064300 0.434600
140.156900 0.413500
140.249500 0.393500
140.342200 0.364400
140.434800 0.340700
140.527500 0.324600
140.620100 0.310700
140.712700 0.297100
140.805400 0.283100
140.898000 0.268700
140.990600 0.247900
141.083300 0.235400
141.175900 0.225200
141.268500 0.214400
141.361200 0.218900
141.453800 0.205800
141.546500 0.182800
141.639100 0.178600
141.731700 0.177200
141.824400 0.174600
141.917000 0.167800
142.009600 0.163700
142.102300 0.158300
142.194900 0.150300
142.287500 0.142900
142.380200 0.136000
142.472800 0.131500
142.565500 0.127200
142.658100 0.125500
142.750700 0.112500
142.843400 0.100000
142.936000 0.087900
143.028600 0.076700
143.121300 0.068000
143.213900 0.059600
143.306600 0.053900
143.399200 0.049300
143.491800 0.045700
143.584500 0.043000
143.677100 0.041000
143.769700 0.038700
143.862400 0.037000
143.955000 0.031800
144.047600 0.027500
144.140300 0.024200
144.232900 0.022200
144.325600 0.020100
144.418200 0.018400
144.510800 0.017300
144.603500 0.016600
144.696100 0.016200
144.788700 0.015900
144.881400 0.015600
144.974000 0.015300
145.066600 0.015000
145.159300 0.014700
145.251900 0.014400
145.344600 0.014200
145.437200 0.013900
145.529800 0.013700
145.622500 0.013500
145.715100 0.013300
145.807700 0.013100
145.900400 0.013000
145.993000 0.012800
146.085700 0.012700
146.178300 0.012500
146.270900 0.012400
146.363600 0.012200
146.456200 0.012000
146.548800 0.011800
146.641500 0.011500
146.734100 0.011300
146.826700 0.011000
146.919400 0.010800
147.012000 0.010600
147.104700 0.010400
147.197300 0.010200
147.289900 0.010000
147.382600 0.009700
147.475200 0.009500
147.567800 0.009300
147.660500 0.009100
147.753100 0.008900
147.845700 0.008700
147.938400 0.008500
148.031000 0.008300
148.123700 0.008100
148.216300 0.007900
148.308900 0.007700
148.401600 0.007600
148.494200 0.007400
148.586800 0.007200
148.679500 0.007000
148.772100 0.006900
148.864700 0.006800
148.957400 0.006700
149.050000 0.006500
149.142700 0.006400
149.235300 0.006300
149.327900 0.006200
149.420600 0.006100
149.513200 0.006000
149.605800 0.005900
149.698500 0.005800
149.791100 0.005800
149.883800 0.005700
149.976400 0.005600
150.069000 0.005500
150.161700 0.005400
150.254300 0.005300
150.346900 0.005200
150.439600 0.005100
150.532200 0.005000
150.624800 0.005000
150.717500 0.004900
150.810100 0.004900
150.902800 0.004800
150.995400 0.004800
151.088000 0.004800
151.180700 0.004800
151.273300 0.004700
151.365900 0.004700
151.458600 0.004600
151.551200 0.004500
151.643800 0.004300
151.736500 0.004200
151.829100 0.004100
151.921800 0.003900
152.014400 0.003800
152.107000 0.003600
152.199700 0.003500
152.292300 0.003300
152.384900 0.003200
152.477600 0.003200
152.570200 0.003200
152.662900 0.003400
152.755500 0.003800
152.848100 0.004400
152.940800 0.005300
153.033400 0.003100
153.126000 0.002400
153.218700 0.001800
153.311300 0.001200
153.403900 0.000800
153.496600 0.000400
153.589200 0.000200
153.681900 0.000100
153.774500 0.000000
153.867100 0.000000
153.959800 0.000000
154.052400 0.000000
154.145000 0.000000
154.237700 0.000000
154.330300 0.000000
154.422900 0.000000
154.515600 0.000000
154.608200 0.000000
154.700900 0.000000
154.793500 0.000000
154.886100 0.000000
154.978800 0.000000
155.071400 0.000000
155.164000 0.000000
155.256700 0.000000
155.349300 0.000000
155.441900 0.000000
155.534600 0.000000
155.627200 0.000000
155.719900 0.000000
155.812500 0.000000
155.905100 0.000000
155.997800 0.000000
156.090400 0.000000
156.183000 0.000000
156.275700 0.000000
156.368300 0.000000
156.461000 0.000000
156.553600 0.000000
156.646200 0.000000
156.738900 0.000000
156.831500 0.000000
156.924100 0.000000
157.016800 0.000000
157.109400 0.000000
157.202000 0.000000
157.294700 0.000000
157.387300 0.000000
157.480000 0.000000
157.572600 0.000000
157.665200 0.000000
157.757900 0.000000
157.850500 0.000000
157.943100 0.000000
158.035800 0.000000
158.128400 0.000000
158.221000 0.000000
158.313700 0.000000
158.406300 0.000000
158.499000 0.000000
158.591600 0.000000
158.684200 0.000000
158.776900 0.000000
158.869500 0.000000
158.962100 0.000000
159.054800 0.000000
159.147400 0.000000
159.240000 0.000000
159.332700 0.000000
159.425300 0.000000
159.518000 0.000000
159.610600 0.000000
159.703200 0.000000
159.795900 0.000000
159.888500 0.000000
159.981100 0.000000
160.073800 0.000000
160.166400 0.000000
160.259100 0.000000
160.351700 0.000000
160.444300 0.000000
160.537000 0.000000
160.629600 0.000000
160.722200 0.000000
160.814900 0.000000
160.907500 0.000000
161.000100 0.000000
161.092800 0.000000
161.185400 0.000000
161.278100 0.000000
161.370700 0.000000
161.463300 0.000000
161.556000 0.000000
161.648600 0.000000
161.741200 0.000000
161.833900 0.000000
161.926500 0.000000
162.019100 0.000000
162.111800 0.000000
162.204400 0.000000
e
