set title 'mp-567144 - Density of States'
set xlabel 'Energy (eV)'
set ylabel 'DOS (states/eV)'
set grid
set xrange [-10:10]
set yrange [0:5.638]
set xzeroaxis lt -1
set terminal png size 800,600
set output 'mp-567144_dos_gnuplot.png'
plot '-' using 1:2 with lines title 'DOS'
-7.544700 0.000000
-7.533300 0.000000
-7.522000 0.000000
-7.510600 0.000000
-7.499200 0.000000
-7.487900 0.000000
-7.476500 0.000000
-7.465200 0.000000
-7.453800 0.000000
-7.442400 0.000000
-7.431100 0.000000
-7.419700 0.000000
-7.408300 0.000000
-7.397000 0.000000
-7.385600 0.000000
-7.374300 0.000000
-7.362900 0.000000
-7.351500 0.000000
-7.340200 0.000000
-7.328800 0.000000
-7.317400 0.000000
-7.306100 0.000000
-7.294700 0.000000
-7.283400 0.000000
-7.272000 0.000000
-7.260600 0.000000
-7.249300 0.000000
-7.237900 0.000000
-7.226600 0.000000
-7.215200 0.000000
-7.203800 0.000000
-7.192500 0.000000
-7.181100 0.000000
-7.169700 0.000000
-7.158400 0.000000
-7.147000 0.000000
-7.135700 0.000000
-7.124300 0.000000
-7.112900 0.000000
-7.101600 0.000000
-7.090200 0.000000
-7.078800 0.000000
-7.067500 0.000000
-7.056100 0.000000
-7.044800 0.000000
-7.033400 0.000000
-7.022000 0.000000
-7.010700 0.000000
-6.999300 0.000000
-6.988000 0.000000
-6.976600 0.000000
-6.965200 0.000000
-6.953900 0.000000
-6.942500 0.000000
-6.931100 0.000000
-6.919800 0.000000
-6.908400 0.000000
-6.897100 0.000000
-6.885700 0.000000
-6.874300 0.000000
-6.863000 0.000000
-6.851600 0.000000
-6.840200 0.000000
-6.828900 0.000000
-6.817500 0.000000
-6.806200 0.000000
-6.794800 0.000000
-6.783400 0.000000
-6.772100 0.000000
-6.760700 0.000000
-6.749400 0.000000
-6.738000 0.000000
-6.726600 0.000000
-6.715300 0.000000
-6.703900 0.000000
-6.692500 0.000000
-6.681200 0.000000
-6.669800 0.000000
-6.658500 0.000000
-6.647100 0.000000
-6.635700 0.000000
-6.624400 0.000000
-6.613000 0.000000
-6.601600 0.000000
-6.590300 0.000000
-6.578900 0.000000
-6.567600 0.000000
-6.556200 0.000000
-6.544800 0.000000
-6.533500 0.000000
-6.522100 0.000000
-6.510800 0.043400
-6.499400 0.158200
-6.488000 0.184500
-6.476700 0.225600
-6.465300 0.269200
-6.453900 0.315200
-6.442600 0.350100
-6.431200 0.376000
-6.419900 0.396600
-6.408500 0.409000
-6.397100 0.426600
-6.385800 0.447200
-6.374400 0.470100
-6.363000 0.494500
-6.351700 0.519400
-6.340300 0.544700
-6.329000 0.567900
-6.317600 0.587500
-6.306200 0.606200
-6.294900 0.622900
-6.283500 0.636900
-6.272200 0.653700
-6.260800 0.671500
-6.249400 0.689300
-6.238100 0.706600
-6.226700 0.725000
-6.215300 0.743700
-6.204000 0.762500
-6.192600 0.781900
-6.181300 0.801800
-6.169900 0.823000
-6.158500 0.845300
-6.147200 0.867900
-6.135800 0.891000
-6.124400 0.915200
-6.113100 0.940900
-6.101700 0.967100
-6.090400 0.993000
-6.079000 1.018600
-6.067600 1.043800
-6.056300 1.070100
-6.044900 1.096500
-6.033600 1.150500
-6.022200 1.300400
-6.010800 1.325400
-5.999500 1.303300
-5.988100 1.314800
-5.976700 1.319000
-5.965400 1.315400
-5.954000 1.305000
-5.942700 1.288900
-5.931300 1.268600
-5.919900 1.248900
-5.908600 1.237300
-5.897200 1.233100
-5.885800 1.232000
-5.874500 1.230300
-5.863100 1.228000
-5.851800 1.225400
-5.840400 1.222100
-5.829000 1.215900
-5.817700 1.205500
-5.806300 1.192600
-5.795000 1.179600
-5.783600 1.168800
-5.772200 1.158900
-5.760900 1.149900
-5.749500 1.141600
-5.738100 1.134400
-5.726800 1.127800
-5.715400 1.122600
-5.704100 1.117400
-5.692700 1.112200
-5.681300 1.107100
-5.670000 1.101900
-5.658600 1.096900
-5.647200 1.091700
-5.635900 1.086100
-5.624500 1.080100
-5.613200 1.072800
-5.601800 1.060300
-5.590400 1.051300
-5.579100 1.043800
-5.567700 1.036500
-5.556400 1.029300
-5.545000 1.021800
-5.533600 1.013900
-5.522300 1.005900
-5.510900 1.000100
-5.499500 0.995100
-5.488200 0.990500
-5.476800 0.986200
-5.465500 0.982000
-5.454100 0.977600
-5.442700 0.972700
-5.431400 0.967600
-5.420000 0.962500
-5.408600 0.957100
-5.397300 0.951600
-5.385900 0.945800
-5.374600 0.939700
-5.363200 0.933100
-5.351800 0.926100
-5.340500 0.919400
-5.329100 0.913300
-5.317800 0.907900
-5.306400 0.903800
-5.295000 0.898300
-5.283700 0.894600
-5.272300 0.889700
-5.260900 0.881000
-5.249600 0.868400
-5.238200 0.852200
-5.226900 0.832600
-5.215500 0.821700
-5.204100 0.813200
-5.192800 0.805100
-5.181400 0.797500
-5.170000 0.790400
-5.158700 0.783900
-5.147300 0.778100
-5.136000 0.772900
-5.124600 0.768400
-5.113200 0.764900
-5.101900 0.762600
-5.090500 0.756700
-5.079200 0.748400
-5.067800 0.740700
-5.056400 0.733600
-5.045100 0.727300
-5.033700 0.721600
-5.022300 0.715800
-5.011000 0.710600
-4.999600 0.705600
-4.988300 0.700500
-4.976900 0.695600
-4.965500 0.691400
-4.954200 0.687800
-4.942800 0.684600
-4.931400 0.681600
-4.920100 0.678800
-4.908700 0.674500
-4.897400 0.668800
-4.886000 0.661800
-4.874600 0.655900
-4.863300 0.651600
-4.851900 0.648900
-4.840500 0.646900
-4.829200 0.644900
-4.817800 0.642900
-4.806500 0.640900
-4.795100 0.638700
-4.783700 0.636500
-4.772400 0.634200
-4.761000 0.631800
-4.749700 0.629400
-4.738300 0.626800
-4.726900 0.624200
-4.715600 0.621600
-4.704200 0.619000
-4.692800 0.939000
-4.681500 1.163800
-4.670100 1.395200
-4.658800 1.999000
-4.647400 1.938100
-4.636000 1.852200
-4.624700 1.749400
-4.613300 1.674700
-4.601900 1.651100
-4.590600 1.675100
-4.579200 1.710000
-4.567900 1.743300
-4.556500 1.775100
-4.545100 1.805100
-4.533800 1.833500
-4.522400 1.859100
-4.511100 1.864200
-4.499700 1.830700
-4.488300 1.785400
-4.477000 1.768900
-4.465600 1.758600
-4.454200 1.749900
-4.442900 1.744600
-4.431500 1.742500
-4.420200 1.741100
-4.408800 1.738100
-4.397400 1.736700
-4.386100 1.740600
-4.374700 1.746700
-4.363300 1.755700
-4.352000 1.765600
-4.340600 1.776500
-4.329300 1.788900
-4.317900 1.805900
-4.306500 1.830100
-4.295200 1.840300
-4.283800 1.853000
-4.272500 1.867900
-4.261100 1.882500
-4.249700 1.911600
-4.238400 1.943200
-4.227000 1.977500
-4.215600 2.006700
-4.204300 2.025700
-4.192900 2.052100
-4.181600 2.086600
-4.170200 2.161400
-4.158800 2.211400
-4.147500 2.209100
-4.136100 2.117200
-4.124700 2.004400
-4.113400 1.868000
-4.102000 1.809500
-4.090700 1.771900
-4.079300 1.741500
-4.067900 1.714800
-4.056600 1.691700
-4.045200 1.671000
-4.033900 1.654000
-4.022500 1.639500
-4.011100 1.649800
-3.999800 1.721100
-3.988400 1.751500
-3.977000 1.680700
-3.965700 1.495300
-3.954300 1.395100
-3.943000 1.355100
-3.931600 1.321000
-3.920200 1.294000
-3.908900 1.286500
-3.897500 1.290000
-3.886100 1.295100
-3.874800 1.305400
-3.863400 1.321400
-3.852100 1.349300
-3.840700 1.385600
-3.829300 1.426700
-3.818000 1.472400
-3.806600 1.530400
-3.795300 1.573800
-3.783900 1.622400
-3.772500 1.677100
-3.761200 1.738500
-3.749800 1.804900
-3.738400 1.882100
-3.727100 1.961600
-3.715700 2.042700
-3.704400 2.122600
-3.693000 2.198500
-3.681600 2.281200
-3.670300 2.421300
-3.658900 2.530200
-3.647500 2.524300
-3.636200 2.411400
-3.624800 2.254200
-3.613500 2.200700
-3.602100 2.183100
-3.590700 2.172600
-3.579400 2.168000
-3.568000 2.167000
-3.556700 2.169700
-3.545300 2.176800
-3.533900 2.184400
-3.522600 2.192800
-3.511200 2.202400
-3.499800 2.212700
-3.488500 2.224000
-3.477100 2.236900
-3.465800 2.252300
-3.454400 2.269400
-3.443000 2.287700
-3.431700 2.307400
-3.420300 2.199900
-3.408900 1.981900
-3.397600 1.935800
-3.386200 1.914400
-3.374900 1.911400
-3.363500 1.892800
-3.352100 1.851600
-3.340800 1.804300
-3.329400 1.798000
-3.318100 1.792100
-3.306700 1.789200
-3.295300 1.771300
-3.284000 1.752600
-3.272600 1.738100
-3.261200 1.725700
-3.249900 1.719700
-3.238500 1.716000
-3.227200 1.715000
-3.215800 1.717100
-3.204400 1.721800
-3.193100 1.730500
-3.181700 1.751500
-3.170300 1.781800
-3.159000 1.816800
-3.147600 1.852800
-3.136300 1.897500
-3.124900 2.033500
-3.113500 2.105900
-3.102200 2.130900
-3.090800 2.143100
-3.079500 2.158000
-3.068100 2.285400
-3.056700 2.338300
-3.045400 2.362900
-3.034000 2.353400
-3.022600 2.468000
-3.011300 2.252800
-2.999900 2.215300
-2.988600 2.146900
-2.977200 2.116400
-2.965800 2.054200
-2.954500 2.040000
-2.943100 2.029700
-2.931700 2.002100
-2.920400 1.970500
-2.909000 1.973600
-2.897700 1.993000
-2.886300 2.017800
-2.874900 2.061500
-2.863600 2.121500
-2.852200 2.140200
-2.840900 2.121200
-2.829500 2.104800
-2.818100 2.123400
-2.806800 2.095900
-2.795400 2.061000
-2.784000 2.033400
-2.772700 2.046600
-2.761300 2.083500
-2.750000 2.179800
-2.738600 2.381900
-2.727200 2.600000
-2.715900 3.280300
-2.704500 4.273700
-2.693100 5.125500
-2.681800 4.760100
-2.670400 2.800200
-2.659100 2.623700
-2.647700 2.554100
-2.636300 2.517100
-2.625000 2.486200
-2.613600 2.455200
-2.602300 2.422900
-2.590900 2.389800
-2.579500 2.358200
-2.568200 2.330500
-2.556800 2.305600
-2.545400 2.284200
-2.534100 2.267300
-2.522700 2.243700
-2.511400 2.224300
-2.500000 2.210000
-2.488600 2.201900
-2.477300 2.191600
-2.465900 2.179500
-2.454500 2.170100
-2.443200 2.162700
-2.431800 2.156800
-2.420500 2.153600
-2.409100 2.178800
-2.397700 2.200300
-2.386400 2.199000
-2.375000 2.207100
-2.363700 2.220300
-2.352300 2.239600
-2.340900 2.259600
-2.329600 2.279600
-2.318200 2.303900
-2.306800 2.337400
-2.295500 2.373900
-2.284100 2.414000
-2.272800 2.459800
-2.261400 2.441500
-2.250000 2.453000
-2.238700 2.459000
-2.227300 2.458300
-2.215900 2.524100
-2.204600 2.611500
-2.193200 2.720400
-2.181900 2.774300
-2.170500 2.601700
-2.159100 2.028000
-2.147800 1.695500
-2.136400 1.450300
-2.125100 1.271900
-2.113700 1.172000
-2.102300 1.001500
-2.091000 0.987100
-2.079600 1.018300
-2.068200 1.039900
-2.056900 1.069700
-2.045500 1.094600
-2.034200 1.096200
-2.022800 1.069800
-2.011400 1.038200
-2.000100 1.017800
-1.988700 1.004900
-1.977300 0.994000
-1.966000 0.989900
-1.954600 0.986900
-1.943300 0.983100
-1.931900 0.979400
-1.920500 0.977900
-1.909200 0.978400
-1.897800 0.982000
-1.886500 0.985700
-1.875100 0.981600
-1.863700 0.978200
-1.852400 0.974500
-1.841000 0.971600
-1.829600 0.970300
-1.818300 0.972600
-1.806900 0.983500
-1.795600 1.002400
-1.784200 1.029900
-1.772800 1.050800
-1.761500 1.067700
-1.750100 1.080800
-1.738700 1.083000
-1.727400 1.068200
-1.716000 1.059100
-1.704700 1.060700
-1.693300 1.060800
-1.681900 1.053300
-1.670600 1.045200
-1.659200 1.036600
-1.647900 1.028400
-1.636500 1.021600
-1.625100 1.015400
-1.613800 1.009100
-1.602400 1.002400
-1.591000 1.009700
-1.579700 0.983100
-1.568300 0.957100
-1.557000 0.931700
-1.545600 0.907000
-1.534200 0.881700
-1.522900 0.855400
-1.511500 0.830600
-1.500100 0.808700
-1.488800 0.790200
-1.477400 0.775600
-1.466100 0.761800
-1.454700 0.748700
-1.443300 0.736600
-1.432000 0.725200
-1.420600 0.714400
-1.409300 0.704400
-1.397900 0.696000
-1.386500 0.687900
-1.375200 0.679600
-1.363800 0.671800
-1.352400 0.662400
-1.341100 0.652800
-1.329700 0.643500
-1.318400 0.634200
-1.307000 0.625000
-1.295600 0.615900
-1.284300 0.606800
-1.272900 0.597900
-1.261500 0.588800
-1.250200 0.579900
-1.238800 0.570900
-1.227500 0.563400
-1.216100 0.556100
-1.204700 0.548800
-1.193400 0.541600
-1.182000 0.534500
-1.170700 0.527300
-1.159300 0.520100
-1.147900 0.512800
-1.136600 0.505500
-1.125200 0.498300
-1.113800 0.491600
-1.102500 0.485600
-1.091100 0.480300
-1.079800 0.475200
-1.068400 0.470600
-1.057000 0.466200
-1.045700 0.461800
-1.034300 0.457500
-1.022900 0.453100
-1.011600 0.448700
-1.000200 0.444300
-0.988900 0.439900
-0.977500 0.435500
-0.966100 0.431000
-0.954800 0.426500
-0.943400 0.421900
-0.932100 0.417300
-0.920700 0.412700
-0.909300 0.408100
-0.898000 0.403400
-0.886600 0.398700
-0.875200 0.393800
-0.863900 0.388800
-0.852500 0.383700
-0.841200 0.378700
-0.829800 0.373700
-0.818400 0.368600
-0.807100 0.363500
-0.795700 0.358500
-0.784300 0.353600
-0.773000 0.348800
-0.761600 0.344000
-0.750300 0.339200
-0.738900 0.334500
-0.727500 0.329900
-0.716200 0.325500
-0.704800 0.321500
-0.693500 0.317800
-0.682100 0.314300
-0.670700 0.311000
-0.659400 0.307400
-0.648000 0.303600
-0.636600 0.299900
-0.625300 0.296300
-0.613900 0.292600
-0.602600 0.288900
-0.591200 0.285300
-0.579800 0.281600
-0.568500 0.278000
-0.557100 0.274400
-0.545700 0.270800
-0.534400 0.267200
-0.523000 0.263600
-0.511700 0.260000
-0.500300 0.256300
-0.488900 0.252700
-0.477600 0.249000
-0.466200 0.245300
-0.454900 0.241700
-0.443500 0.238000
-0.432100 0.234300
-0.420800 0.230600
-0.409400 0.227000
-0.398000 0.223300
-0.386700 0.219900
-0.375300 0.216700
-0.364000 0.213400
-0.352600 0.209800
-0.341200 0.206300
-0.329900 0.203000
-0.318500 0.199900
-0.307100 0.197200
-0.295800 0.194600
-0.284400 0.192200
-0.273100 0.189700
-0.261700 0.187200
-0.250300 0.184600
-0.239000 0.182000
-0.227600 0.179300
-0.216300 0.176600
-0.204900 0.173700
-0.193500 0.170700
-0.182200 0.167800
-0.170800 0.164800
-0.159400 0.161900
-0.148100 0.159000
-0.136700 0.156100
-0.125400 0.153400
-0.114000 0.150700
-0.102600 0.148200
-0.091300 0.145600
-0.079900 0.142800
-0.068500 0.139900
-0.057200 0.137100
-0.045800 0.134100
-0.034500 0.130800
-0.023100 0.127600
-0.011700 0.124400
-0.000400 0.121300
0.011000 0.118100
0.022400 0.115000
0.033700 0.112000
0.045100 0.109100
0.056400 0.106200
0.067800 0.103500
0.079200 0.101000
0.090500 0.098500
0.101900 0.096000
0.113200 0.093300
0.124600 0.090500
0.136000 0.087700
0.147300 0.084800
0.158700 0.082200
0.170100 0.079100
0.181400 0.075700
0.192800 0.072300
0.204100 0.068900
0.215500 0.065500
0.226900 0.062200
0.238200 0.058900
0.249600 0.055600
0.261000 0.052400
0.272300 0.049100
0.283700 0.045900
0.295000 0.043900
0.306400 0.044600
0.317800 0.051200
0.329100 0.053800
0.340500 0.028300
0.351800 0.000000
0.363200 0.000000
0.374600 0.000000
0.385900 0.000000
0.397300 0.000000
0.408700 0.000000
0.420000 0.000000
0.431400 0.000000
0.442700 0.000000
0.454100 0.000000
0.465500 0.000000
0.476800 0.000000
0.488200 0.000000
0.499600 0.000000
0.510900 0.000000
0.522300 0.000000
0.533600 0.000000
0.545000 0.056500
0.556400 0.176300
0.567700 0.201800
0.579100 0.184600
0.590400 0.170600
0.601800 0.175400
0.613200 0.193000
0.624500 0.218600
0.635900 0.247400
0.647300 0.278400
0.658600 0.311100
0.670000 0.345500
0.681300 0.381700
0.692700 0.421000
0.704100 0.464800
0.715400 0.515500
0.726800 0.578400
0.738200 0.660500
0.749500 0.758100
0.760900 0.731000
0.772200 0.713600
0.783600 0.716600
0.795000 0.724400
0.806300 0.753000
0.817700 0.777700
0.829000 0.811600
0.840400 0.855600
0.851800 0.909900
0.863100 0.973600
0.874500 1.040200
0.885900 1.101300
0.897200 1.160800
0.908600 1.232300
0.919900 1.350300
0.931300 1.479400
0.942700 1.372300
0.954000 1.250100
0.965400 1.205600
0.976800 1.177300
0.988100 1.195300
0.999500 1.284500
1.010800 1.433900
1.022200 1.626900
1.033600 1.821600
1.044900 2.068200
1.056300 2.404800
1.067600 2.510500
1.079000 2.388900
1.090400 2.300400
1.101700 2.238300
1.113100 2.177000
1.124500 2.055800
1.135800 1.914600
1.147200 1.818200
1.158500 1.731100
1.169900 1.654900
1.181300 1.622500
1.192600 1.567800
1.204000 1.543500
1.215400 1.513600
1.226700 1.484400
1.238100 1.478300
1.249400 1.483000
1.260800 1.491500
1.272200 1.499400
1.283500 1.518700
1.294900 1.532200
1.306200 1.544100
1.317600 1.544700
1.329000 1.555800
1.340300 1.578900
1.351700 1.601300
1.363100 1.621900
1.374400 1.641600
1.385800 1.663200
1.397100 1.685500
1.408500 1.710400
1.419900 1.734300
1.431200 1.754300
1.442600 1.770200
1.454000 1.799300
1.465300 1.813900
1.476700 1.793500
1.488000 1.830800
1.499400 1.862100
1.510800 1.881700
1.522100 1.884200
1.533500 1.863400
1.544800 1.809300
1.556200 1.707800
1.567600 1.653900
1.578900 1.628800
1.590300 1.614800
1.601700 1.603800
1.613000 1.666200
1.624400 1.840300
1.635700 1.843200
1.647100 1.857000
1.658500 1.982900
1.669800 2.019100
1.681200 2.066000
1.692600 2.100400
1.703900 2.117800
1.715300 2.186300
1.726600 2.202000
1.738000 2.220700
1.749400 2.246200
1.760700 2.284700
1.772100 2.328200
1.783400 2.375900
1.794800 2.429200
1.806200 2.474100
1.817500 2.593500
1.828900 2.464800
1.840300 2.462100
1.851600 2.451200
1.863000 2.398600
1.874300 2.349100
1.885700 2.324500
1.897100 2.316800
1.908400 2.315500
1.919800 2.314300
1.931200 2.317300
1.942500 2.320600
1.953900 2.323700
1.965200 2.326900
1.976600 2.331400
1.988000 2.336200
1.999300 2.341900
2.010700 2.351500
2.022000 2.364000
2.033400 2.380900
2.044800 2.402100
2.056100 2.430500
2.067500 2.464600
2.078900 2.503000
2.090200 2.545600
2.101600 2.590000
2.112900 2.635700
2.124300 2.679800
2.135700 2.724900
2.147000 2.774600
2.158400 2.825500
2.169800 2.876200
2.181100 2.926700
2.192500 2.974000
2.203800 3.001500
2.215200 2.984800
2.226600 2.966000
2.237900 2.938700
2.249300 2.904800
2.260600 2.835900
2.272000 2.724300
2.283400 2.662700
2.294700 2.612700
2.306100 2.577100
2.317500 2.434200
2.328800 2.220300
2.340200 2.114300
2.351500 2.043800
2.362900 2.006500
2.374300 1.978800
2.385600 1.953300
2.397000 1.930900
2.408400 1.916600
2.419700 1.913400
2.431100 1.918700
2.442400 1.932600
2.453800 1.964900
2.465200 2.007900
2.476500 2.058200
2.487900 2.105800
2.499200 2.290400
2.510600 2.431800
2.522000 2.594600
2.533300 2.776100
2.544700 2.904500
2.556100 2.957800
2.567400 2.954700
2.578800 2.961500
2.590100 2.945100
2.601500 2.925900
2.612900 2.905500
2.624200 2.891600
2.635600 2.892300
2.647000 2.891100
2.658300 2.869000
2.669700 2.815600
2.681000 2.747600
2.692400 2.680000
2.703800 2.582700
2.715100 2.596800
2.726500 2.635200
2.737800 2.682500
2.749200 2.740500
2.760600 2.824400
2.771900 2.911600
2.783300 2.957700
2.794700 2.994500
2.806000 3.047300
2.817400 3.110000
2.828700 3.187100
2.840100 3.236000
2.851500 3.248600
2.862800 3.273500
2.874200 3.278400
2.885600 3.227200
2.896900 3.182800
2.908300 3.140300
2.919600 3.107400
2.931000 3.091800
2.942400 3.086900
2.953700 3.090100
2.965100 3.058900
2.976400 3.049200
2.987800 3.027500
2.999200 2.993600
3.010500 2.991500
3.021900 2.988300
3.033300 2.968800
3.044600 2.939600
3.056000 2.913400
3.067300 2.888400
3.078700 2.848600
3.090100 2.807600
3.101400 2.767300
3.112800 2.766400
3.124200 2.787700
3.135500 3.152300
3.146900 3.289800
3.158200 3.167100
3.169600 2.942700
3.181000 2.827500
3.192300 2.678000
3.203700 2.544000
3.215000 2.451200
3.226400 2.357100
3.237800 2.465300
3.249100 2.296700
3.260500 2.270800
3.271900 2.235000
3.283200 2.250500
3.294600 2.275600
3.305900 2.314100
3.317300 2.366700
3.328700 2.438900
3.340000 2.492800
3.351400 2.532700
3.362800 2.565900
3.374100 2.587700
3.385500 2.605100
3.396800 2.644800
3.408200 2.623800
3.419600 2.653700
3.430900 2.693600
3.442300 2.675900
3.453600 2.713900
3.465000 2.744300
3.476400 2.784500
3.487700 2.835100
3.499100 3.081000
3.510500 3.183400
3.521800 3.198600
3.533200 3.146100
3.544500 3.002300
3.555900 2.894900
3.567300 2.756200
3.578600 2.680600
3.590000 2.633600
3.601400 2.605200
3.612700 2.588900
3.624100 2.574500
3.635400 2.564400
3.646800 2.553600
3.658200 2.513800
3.669500 2.458000
3.680900 2.447300
3.692200 2.476500
3.703600 2.536500
3.715000 2.591200
3.726300 2.642500
3.737700 2.682000
3.749100 2.696200
3.760400 2.708700
3.771800 2.719300
3.783100 2.791900
3.794500 2.787700
3.805900 2.766400
3.817200 2.700500
3.828600 2.633500
3.840000 2.621600
3.851300 2.632400
3.862700 2.633200
3.874000 2.625600
3.885400 2.634600
3.896800 2.709400
3.908100 2.876000
3.919500 2.890700
3.930800 2.862900
3.942200 2.846800
3.953600 2.836700
3.964900 2.830600
3.976300 2.839900
3.987700 2.858700
3.999000 2.878700
4.010400 2.894500
4.021700 2.895000
4.033100 2.873900
4.044500 2.888400
4.055800 2.906800
4.067200 2.928500
4.078600 2.953100
4.089900 2.978600
4.101300 3.010500
4.112600 3.045700
4.124000 3.106100
4.135400 3.163900
4.146700 3.186700
4.158100 3.188100
4.169400 3.178400
4.180800 3.149300
4.192200 3.106200
4.203500 3.016800
4.214900 2.905400
4.226300 2.853400
4.237600 2.824500
4.249000 2.804400
4.260300 2.794500
4.271700 2.782200
4.283100 2.775300
4.294400 2.793700
4.305800 2.844300
4.317200 2.913300
4.328500 2.927800
4.339900 2.753100
4.351200 2.709500
4.362600 2.654800
4.374000 2.594900
4.385300 2.545500
4.396700 2.516000
4.408000 2.503900
4.419400 2.465500
4.430800 2.412800
4.442100 2.393100
4.453500 2.371200
4.464900 2.345900
4.476200 2.314800
4.487600 2.280000
4.498900 2.243800
4.510300 2.197500
4.521700 2.151500
4.533000 2.105500
4.544400 2.086100
4.555800 2.047400
4.567100 2.001100
4.578500 1.955300
4.589800 1.946400
4.601200 2.003300
4.612600 2.059700
4.623900 2.071100
4.635300 2.031600
4.646600 1.977100
4.658000 1.936400
4.669400 1.894800
4.680700 1.867700
4.692100 1.747400
4.703500 1.660800
4.714800 1.624300
4.726200 1.654300
4.737500 1.681200
4.748900 1.726000
4.760300 1.804500
4.771600 1.925900
4.783000 2.079900
4.794400 2.527400
4.805700 2.525800
4.817100 2.548400
4.828400 2.588300
4.839800 2.671700
4.851200 2.845900
4.862500 2.996100
4.873900 3.107700
4.885300 3.190500
4.896600 3.239400
4.908000 3.254000
4.919300 3.288200
4.930700 3.316000
4.942100 3.320100
4.953400 3.265900
4.964800 3.124400
4.976100 2.942200
4.987500 2.750800
4.998900 2.549100
5.010200 2.368800
5.021600 2.241700
5.033000 2.151700
5.044300 2.086000
5.055700 2.037500
5.067000 2.006200
5.078400 1.997300
5.089800 2.006300
5.101100 2.036000
5.112500 2.072500
5.123900 2.080400
5.135200 2.090700
5.146600 2.099200
5.157900 2.181700
5.169300 2.143300
5.180700 2.090300
5.192000 2.071900
5.203400 2.053900
5.214700 2.036500
5.226100 1.994200
5.237500 1.955000
5.248800 1.919900
5.260200 1.887300
5.271600 1.849800
5.282900 1.804600
5.294300 1.778400
5.305600 1.767900
5.317000 1.755700
5.328400 1.753300
5.339700 1.759900
5.351100 1.773400
5.362500 1.790100
5.373800 1.817300
5.385200 1.848900
5.396500 1.879000
5.407900 1.904500
5.419300 1.955700
5.430600 2.029500
5.442000 2.124000
5.453300 2.207600
5.464700 2.367600
5.476100 2.481600
5.487400 2.549300
5.498800 2.576000
5.510200 2.594900
5.521500 2.626800
5.532900 2.675900
5.544200 2.743100
5.555600 2.810600
5.567000 2.895100
5.578300 3.012500
5.589700 3.189700
5.601100 3.249900
5.612400 3.314600
5.623800 3.517300
5.635100 3.583300
5.646500 3.598000
5.657900 3.599500
5.669200 3.065000
5.680600 2.895700
5.691900 2.777600
5.703300 2.702200
5.714700 2.647600
5.726000 2.613900
5.737400 2.594600
5.748800 2.581100
5.760100 2.568700
5.771500 2.573500
5.782800 2.590300
5.794200 2.579700
5.805600 2.556500
5.816900 2.546100
5.828300 2.566100
5.839700 2.630400
5.851000 2.520000
5.862400 2.467000
5.873700 2.451100
5.885100 2.441200
5.896500 2.437700
5.907800 2.440100
5.919200 2.439300
5.930500 2.434900
5.941900 2.429700
5.953300 2.425800
5.964600 2.424600
5.976000 2.427300
5.987400 2.440600
5.998700 2.462800
6.010100 2.497900
6.021400 2.534500
6.032800 2.614600
6.044200 2.631100
6.055500 2.647400
6.066900 2.663300
6.078300 2.677800
6.089600 2.695200
6.101000 2.714500
6.112300 2.734800
6.123700 2.752000
6.135100 2.770600
6.146400 2.793700
6.157800 2.817300
6.169100 2.892100
6.180500 3.180000
6.191900 2.940400
6.203200 2.921300
6.214600 2.910700
6.226000 2.894800
6.237300 2.866700
6.248700 2.842100
6.260000 2.830500
6.271400 2.830400
6.282800 2.821100
6.294100 2.814200
6.305500 2.806700
6.316900 2.803000
6.328200 2.794100
6.339600 2.754400
6.350900 2.736700
6.362300 2.737900
6.373700 2.704600
6.385000 2.773800
6.396400 2.895800
6.407700 2.989300
6.419100 3.052600
6.430500 3.096700
6.441800 3.151600
6.453200 3.288900
6.464600 2.850900
6.475900 2.590700
6.487300 2.499800
6.498600 2.472400
6.510000 2.426700
6.521400 2.362900
6.532700 2.284400
6.544100 2.266000
6.555500 2.258000
6.566800 2.264100
6.578200 2.293800
6.589500 2.317100
6.600900 2.352200
6.612300 2.379300
6.623600 2.399800
6.635000 2.547000
6.646300 2.440800
6.657700 2.450300
6.669100 2.443400
6.680400 2.442400
6.691800 2.462700
6.703200 2.481400
6.714500 2.510200
6.725900 2.525200
6.737200 2.491400
6.748600 2.484200
6.760000 2.491100
6.771300 2.508700
6.782700 2.538200
6.794100 2.578400
6.805400 2.590600
6.816800 2.589700
6.828100 2.564700
6.839500 2.542100
6.850900 2.487900
6.862200 2.443200
6.873600 2.419900
6.884900 2.421500
6.896300 2.345300
6.907700 2.244200
6.919000 2.159400
6.930400 2.117200
6.941800 2.075700
6.953100 2.036500
6.964500 2.005000
6.975800 1.984800
6.987200 1.958600
6.998600 1.897600
7.009900 1.855000
7.021300 1.847100
7.032700 1.856200
7.044000 1.876500
7.055400 1.891700
7.066700 1.902200
7.078100 1.916200
7.089500 1.937400
7.100800 1.965500
7.112200 1.994900
7.123500 2.024600
7.134900 2.054200
7.146300 2.082600
7.157600 2.113500
7.169000 2.153400
7.180400 2.194300
7.191700 2.234000
7.203100 2.279300
7.214400 2.321500
7.225800 2.343500
7.237200 2.378800
7.248500 2.436300
7.259900 2.613200
7.271300 2.764300
7.282600 3.058800
7.294000 3.327000
7.305300 3.497900
7.316700 3.651500
7.328100 3.822200
7.339400 3.956900
7.350800 4.033900
7.362100 3.876600
7.373500 3.605900
7.384900 3.396500
7.396200 3.192200
7.407600 3.092500
7.419000 3.044700
7.430300 2.975000
7.441700 2.953100
7.453000 2.897500
7.464400 2.765500
7.475800 2.677800
7.487100 2.635500
7.498500 2.640400
7.509900 2.718100
7.521200 2.855200
7.532600 2.987500
7.543900 3.126700
7.555300 3.266300
7.566700 3.405400
7.578000 3.446500
7.589400 3.493300
7.600700 3.472000
7.612100 3.500900
7.623500 3.544300
7.634800 3.573700
7.646200 3.500100
7.657600 3.415100
7.668900 3.417900
7.680300 3.297800
7.691600 3.417200
7.703000 3.252100
7.714400 3.042400
7.725700 2.774500
7.737100 2.548100
7.748500 2.374600
7.759800 2.218800
7.771200 2.112300
7.782500 2.028600
7.793900 1.899800
7.805300 1.810100
7.816600 1.751800
7.828000 1.802700
7.839300 1.663500
7.850700 1.565900
7.862100 1.527500
7.873400 1.451500
7.884800 1.382900
7.896200 1.321900
7.907500 1.274100
7.918900 1.234300
7.930200 1.198000
7.941600 1.181000
7.953000 1.187900
7.964300 1.240600
7.975700 1.219100
7.987100 1.274100
7.998400 1.363900
8.009800 1.435800
8.021100 1.501300
8.032500 1.560300
8.043900 1.616900
8.055200 1.874300
8.066600 1.757600
8.077900 1.817600
8.089300 1.941300
8.100700 1.928100
8.112000 1.938300
8.123400 2.002400
8.134800 2.061200
8.146100 2.104000
8.157500 2.143600
8.168800 2.173600
8.180200 2.193300
8.191600 2.212300
8.202900 2.232900
8.214300 2.236000
8.225700 2.232000
8.237000 2.245100
8.248400 2.307200
8.259700 2.475200
8.271100 2.755500
8.282500 3.038800
8.293800 3.309300
8.305200 3.639500
8.316500 3.822800
8.327900 3.877800
8.339300 3.952300
8.350600 3.877300
8.362000 4.012800
8.373400 4.038000
8.384700 4.068000
8.396100 4.104100
8.407400 4.180700
8.418800 4.414400
8.430200 4.444700
8.441500 4.166300
8.452900 4.207000
8.464300 4.259100
8.475600 4.320500
8.487000 4.401200
8.498300 4.521700
8.509700 4.500900
8.521100 4.477300
8.532400 4.194900
8.543800 3.921600
8.555100 3.743000
8.566500 3.577000
8.577900 3.427900
8.589200 3.193700
8.600600 2.786600
8.612000 2.501600
8.623300 2.278900
8.634700 2.178600
8.646000 2.149100
8.657400 2.120400
8.668800 2.107300
8.680100 2.111300
8.691500 2.127600
8.702900 2.172200
8.714200 2.226700
8.725600 2.133200
8.736900 2.149900
8.748300 2.186200
8.759700 2.040700
8.771000 2.015300
8.782400 2.047500
8.793700 2.132600
8.805100 2.217700
8.816500 2.304300
8.827800 2.367400
8.839200 2.426900
8.850600 2.512800
8.861900 2.623900
8.873300 2.729600
8.884600 2.685900
8.896000 2.737900
8.907400 2.781500
8.918700 2.732000
8.930100 2.700300
8.941500 2.672600
8.952800 2.653900
8.964200 2.647500
8.975500 2.644800
8.986900 2.651600
8.998300 2.673300
9.009600 2.720800
9.021000 2.712500
9.032300 2.693500
9.043700 2.694400
9.055100 2.706900
9.066400 2.730400
9.077800 2.759500
9.089200 2.792900
9.100500 2.830500
9.111900 2.876800
9.123200 2.967700
9.134600 3.085900
9.146000 3.100200
9.157300 3.124200
9.168700 3.139500
9.180100 3.165700
9.191400 3.204700
9.202800 3.224600
9.214100 3.271000
9.225500 3.419500
9.236900 3.461200
9.248200 3.388400
9.259600 3.353400
9.270900 3.341900
9.282300 3.308200
9.293700 3.257200
9.305000 3.228700
9.316400 3.201900
9.327800 3.170100
9.339100 3.154200
9.350500 3.175700
9.361800 3.259300
9.373200 3.414800
9.384600 3.506000
9.395900 3.550900
9.407300 3.545000
9.418700 3.391600
9.430000 3.164800
9.441400 3.010200
9.452700 2.924200
9.464100 2.829300
9.475500 2.689900
9.486800 2.608800
9.498200 2.553800
9.509500 2.557900
9.520900 2.518100
9.532300 2.469200
9.543600 2.435500
9.555000 2.401400
9.566400 2.348500
9.577700 2.294200
9.589100 2.203200
9.600400 2.247200
9.611800 2.332000
9.623200 2.460000
9.634500 2.660200
9.645900 2.826300
9.657300 2.959500
9.668600 3.112300
9.680000 3.239800
9.691300 3.279500
9.702700 3.320300
9.714100 3.302800
9.725400 3.260400
9.736800 3.257000
9.748100 3.128600
9.759500 2.952100
9.770900 2.820700
9.782200 2.713300
9.793600 2.609200
9.805000 2.514200
9.816300 2.431500
9.827700 2.362600
9.839000 2.306700
9.850400 2.256200
9.861800 2.213000
9.873100 2.186700
9.884500 2.174200
9.895900 2.204800
9.907200 2.263300
9.918600 2.367100
9.929900 2.522300
9.941300 2.724300
9.952700 2.876100
9.964000 2.960900
9.975400 2.962800
9.986800 2.924400
9.998100 2.926600
10.009500 2.961600
10.020800 3.035900
10.032200 3.222500
10.043600 3.487400
10.054900 3.495200
10.066300 3.379600
10.077600 3.458500
10.089000 3.539900
10.100400 3.599300
10.111700 3.661800
10.123100 3.742700
10.134500 3.865300
10.145800 4.099700
10.157200 4.352500
10.168500 4.604600
10.179900 4.765500
10.191300 4.789100
10.202600 4.693900
10.214000 4.685800
10.225400 4.041000
10.236700 3.497400
10.248100 3.134300
10.259400 2.805200
10.270800 2.429500
10.282200 2.125100
10.293500 1.697500
10.304900 1.463100
10.316200 1.375100
10.327600 1.312400
10.339000 1.255600
10.350300 1.210400
10.361700 1.178000
10.373100 1.157300
10.384400 1.143800
10.395800 1.130400
10.407100 1.114600
10.418500 1.094200
10.429900 1.072300
10.441200 1.055000
10.452600 1.045300
10.464000 1.038300
10.475300 1.033900
10.486700 1.032500
10.498000 1.034500
10.509400 1.039700
10.520800 1.048100
10.532100 1.060300
10.543500 1.077500
10.554800 1.099500
10.566200 1.125700
10.577600 1.152200
10.588900 1.115800
10.600300 1.084800
10.611700 1.092100
10.623000 1.149100
10.634400 1.183100
10.645700 1.156600
10.657100 1.136900
10.668500 1.123200
10.679800 1.114300
10.691200 1.107700
10.702600 1.102900
10.713900 1.099900
10.725300 1.099000
10.736600 1.099100
10.748000 1.100800
10.759400 1.103800
10.770700 1.109300
10.782100 1.115400
10.793400 1.112700
10.804800 1.101200
10.816200 1.086100
10.827500 1.088000
10.838900 1.090600
10.850300 1.094000
10.861600 1.098800
10.873000 1.104800
10.884300 1.111800
10.895700 1.118600
10.907100 1.125100
10.918400 1.131500
10.929800 1.138300
10.941200 1.145300
10.952500 1.152900
10.963900 1.161100
10.975200 1.170700
10.986600 1.195200
10.998000 1.233500
11.009300 1.267800
11.020700 1.301100
11.032000 1.338400
11.043400 1.382000
11.054800 1.448700
11.066100 1.526600
11.077500 1.584700
11.088900 1.620400
11.100200 1.635300
11.111600 1.628400
11.122900 1.594900
11.134300 1.632600
11.145700 1.682600
11.157000 1.718300
11.168400 1.706500
11.179800 1.687200
11.191100 1.714100
11.202500 1.746700
11.213800 1.790200
11.225200 1.840800
11.236600 1.898700
11.247900 1.961500
11.259300 2.030000
11.270600 2.109300
11.282000 2.219100
11.293400 2.367500
11.304700 2.631200
11.316100 2.847800
11.327500 2.741500
11.338800 2.797400
11.350200 2.795200
11.361500 2.733500
11.372900 2.735100
11.384300 2.621800
11.395600 2.592400
11.407000 2.583400
11.418400 2.592600
11.429700 2.606000
11.441100 2.616300
11.452400 2.627600
11.463800 2.642100
11.475200 2.651100
11.486500 2.652300
11.497900 2.661500
11.509200 2.674800
11.520600 2.678000
11.532000 2.658100
11.543300 2.633000
11.554700 2.643400
11.566100 2.667400
11.577400 2.678900
11.588800 2.686800
11.600100 2.689600
11.611500 2.683500
11.622900 2.676000
11.634200 2.667800
11.645600 2.643100
11.657000 2.595300
11.668300 2.557300
11.679700 2.544100
11.691000 2.562400
11.702400 2.584800
11.713800 2.600700
11.725100 2.625200
11.736500 2.642700
11.747800 2.663800
11.759200 2.690600
11.770600 2.727000
11.781900 2.791200
11.793300 2.789000
11.804700 2.784800
11.816000 2.797500
11.827400 2.846400
11.838700 2.923700
11.850100 3.014700
11.861500 3.147600
11.872800 3.193900
11.884200 3.218200
11.895600 3.310000
11.906900 3.249500
11.918300 3.211500
11.929600 3.042700
11.941000 3.012400
11.952400 2.776100
11.963700 2.708600
11.975100 2.756800
11.986400 2.860200
11.997800 2.957700
12.009200 3.065500
12.020500 3.235700
12.031900 3.478000
12.043300 3.868000
12.054600 4.074900
12.066000 4.060000
12.077300 3.948000
12.088700 3.839700
12.100100 3.733700
12.111400 3.573700
12.122800 3.360700
12.134200 3.338100
12.145500 3.317800
12.156900 3.268000
12.168200 3.192000
12.179600 3.145200
12.191000 3.109000
12.202300 3.117600
12.213700 3.127700
12.225000 3.101400
12.236400 2.900700
12.247800 2.874700
12.259100 2.879600
12.270500 2.885400
12.281900 2.892200
12.293200 2.903000
12.304600 2.922300
12.315900 2.943900
12.327300 2.967500
12.338700 2.995900
12.350000 3.036700
12.361400 3.050400
12.372800 3.035000
12.384100 3.013800
12.395500 2.992300
12.406800 2.974700
12.418200 2.850000
12.429600 2.801600
12.440900 2.822700
12.452300 2.829100
12.463600 2.738900
12.475000 2.680600
12.486400 2.632600
12.497700 2.604900
12.509100 2.620400
12.520500 2.687200
12.531800 2.759900
12.543200 2.881600
12.554500 3.034200
12.565900 3.016900
12.577300 3.073000
12.588600 3.132500
12.600000 3.265900
12.611400 3.423000
12.622700 3.541200
12.634100 3.629400
12.645400 3.821000
12.656800 3.902900
12.668200 3.863400
12.679500 3.844900
12.690900 3.689400
12.702200 3.711200
12.713600 3.718800
12.725000 3.742100
12.736300 3.774000
12.747700 3.641800
12.759100 3.461100
12.770400 3.350200
12.781800 3.293500
12.793100 3.257300
12.804500 3.086000
12.815900 3.007400
12.827200 2.989500
12.838600 2.978600
12.850000 2.968600
12.861300 2.979500
12.872700 2.982000
12.884000 2.965700
12.895400 2.941400
12.906800 2.907000
12.918100 2.860600
12.929500 2.801000
12.940800 2.722700
12.952200 2.654200
12.963600 2.610400
12.974900 2.540500
12.986300 2.445100
12.997700 2.360300
13.009000 2.276300
13.020400 2.198100
13.031700 2.111100
13.043100 2.051500
13.054500 1.998100
13.065800 1.945900
13.077200 1.896000
13.088600 1.850800
13.099900 1.803400
13.111300 1.757000
13.122600 1.713700
13.134000 1.667800
13.145400 1.609700
13.156700 1.573700
13.168100 1.551700
13.179400 1.547900
13.190800 1.549000
13.202200 1.553800
13.213500 1.552800
13.224900 1.547900
13.236300 1.547600
13.247600 1.553800
13.259000 1.557700
13.270300 1.529000
13.281700 1.474200
13.293100 1.452900
13.304400 1.470900
13.315800 1.470800
13.327200 1.447900
13.338500 1.435600
13.349900 1.430300
13.361200 1.428600
13.372600 1.436400
13.384000 1.469300
13.395300 1.520000
13.406700 1.630000
13.418000 1.815100
13.429400 1.819300
13.440800 1.791700
13.452100 1.778600
13.463500 1.760000
13.474900 1.748000
13.486200 1.727200
13.497600 1.702700
13.508900 1.674700
13.520300 1.837300
13.531700 1.585700
13.543000 1.571000
13.554400 1.536800
13.565800 1.503900
13.577100 1.446600
13.588500 1.369000
13.599800 1.284600
13.611200 1.198300
13.622600 1.108000
13.633900 1.017000
13.645300 0.946700
13.656600 0.876300
13.668000 0.851200
13.679400 0.696800
13.690700 0.636600
13.702100 0.564900
13.713500 0.490900
13.724800 0.423800
13.736200 0.365900
13.747500 0.316500
13.758900 0.272900
13.770300 0.242600
13.781600 0.227500
13.793000 0.217100
13.804400 0.206800
13.815700 0.196500
13.827100 0.186300
13.838400 0.176300
13.849800 0.166600
13.861200 0.157200
13.872500 0.148200
13.883900 0.139400
13.895200 0.132300
13.906600 0.127400
13.918000 0.122700
13.929300 0.118100
13.940700 0.113600
13.952100 0.109600
13.963400 0.105900
13.974800 0.102600
13.986100 0.101900
13.997500 0.104700
14.008900 0.111100
14.020200 0.121000
14.031600 0.115400
14.043000 0.105900
14.054300 0.094600
14.065700 0.081400
14.077000 0.067300
14.088400 0.058400
14.099800 0.054000
14.111100 0.050000
14.122500 0.046400
14.133800 0.065900
14.145200 0.013900
14.156600 0.000000
14.167900 0.000000
14.179300 0.000000
14.190700 0.000000
14.202000 0.000000
14.213400 0.000000
14.224700 0.000000
14.236100 0.000000
14.247500 0.000000
14.258800 0.000000
14.270200 0.000000
14.281600 0.000000
14.292900 0.000000
14.304300 0.000000
14.315600 0.000000
14.327000 0.000000
14.338400 0.000000
14.349700 0.000000
14.361100 0.000000
14.372400 0.000000
14.383800 0.000000
14.395200 0.000000
14.406500 0.000000
14.417900 0.000000
14.429300 0.000000
14.440600 0.000000
14.452000 0.000000
14.463300 0.000000
14.474700 0.000000
14.486100 0.000000
14.497400 0.000000
14.508800 0.000000
14.520200 0.000000
14.531500 0.000000
14.542900 0.000000
14.554200 0.000000
14.565600 0.000000
14.577000 0.000000
14.588300 0.000000
14.599700 0.000000
14.611000 0.000000
14.622400 0.000000
14.633800 0.000000
14.645100 0.000000
14.656500 0.000000
14.667900 0.000000
14.679200 0.000000
14.690600 0.000000
14.701900 0.000000
14.713300 0.000000
14.724700 0.000000
14.736000 0.000000
14.747400 0.000000
14.758800 0.000000
14.770100 0.000000
14.781500 0.000000
14.792800 0.000000
14.804200 0.000000
14.815600 0.000000
14.826900 0.000000
14.838300 0.000000
14.849700 0.000000
14.861000 0.000000
14.872400 0.000000
14.883700 0.000000
14.895100 0.000000
14.906500 0.000000
14.917800 0.000000
14.929200 0.000000
14.940500 0.000000
14.951900 0.000000
14.963300 0.000000
14.974600 0.000000
14.986000 0.000000
14.997400 0.000000
15.008700 0.000000
15.020100 0.000000
15.031400 0.000000
15.042800 0.000000
15.054200 0.000000
15.065500 0.000000
15.076900 0.000000
15.088300 0.000000
15.099600 0.000000
15.111000 0.000000
15.122300 0.000000
15.133700 0.000000
15.145100 0.000000
15.156400 0.000000
15.167800 0.000000
15.179100 0.000000
e
