set title 'mp-1184857 - Density of States'
set xlabel 'Energy (eV)'
set ylabel 'DOS (states/eV)'
set grid
set xrange [-10:10]
set yrange [0:96.243]
set xzeroaxis lt -1
set terminal png size 800,600
set output 'mp-1184857_dos_gnuplot.png'
plot '-' using 1:2 with lines title 'DOS'
-8.700200 0.000000
-8.679600 0.000000
-8.658900 0.000000
-8.638200 0.000000
-8.617600 0.000000
-8.596900 0.000000
-8.576200 0.000000
-8.555600 0.000000
-8.534900 0.000000
-8.514200 0.000000
-8.493600 0.000000
-8.472900 0.000000
-8.452200 0.000000
-8.431600 0.000000
-8.410900 0.000000
-8.390200 0.000000
-8.369600 0.000000
-8.348900 0.000000
-8.328200 0.000000
-8.307500 0.000000
-8.286900 0.000000
-8.266200 0.000000
-8.245500 0.000000
-8.224900 0.000000
-8.204200 0.000000
-8.183500 0.000000
-8.162900 0.000000
-8.142200 0.000000
-8.121500 0.000000
-8.100900 0.000000
-8.080200 0.000000
-8.059500 0.000000
-8.038900 0.000000
-8.018200 0.000000
-7.997500 0.000000
-7.976900 0.000000
-7.956200 0.000000
-7.935500 0.000000
-7.914900 0.000000
-7.894200 0.000000
-7.873500 0.000000
-7.852800 0.000000
-7.832200 0.000000
-7.811500 0.000000
-7.790800 0.000000
-7.770200 0.000000
-7.749500 0.000000
-7.728800 0.000000
-7.708200 0.000000
-7.687500 0.000000
-7.666800 0.000000
-7.646200 0.000000
-7.625500 0.000000
-7.604800 0.000000
-7.584200 0.000000
-7.563500 0.000000
-7.542800 0.000000
-7.522200 0.000000
-7.501500 0.000000
-7.480800 0.000000
-7.460200 0.000000
-7.439500 0.000000
-7.418800 0.000000
-7.398100 0.000000
-7.377500 0.000000
-7.356800 0.000000
-7.336100 0.000000
-7.315500 0.000000
-7.294800 0.000000
-7.274100 0.000000
-7.253500 0.000000
-7.232800 0.000000
-7.212100 0.000000
-7.191500 0.000000
-7.170800 0.000000
-7.150100 0.000000
-7.129500 0.000000
-7.108800 0.000000
-7.088100 0.000000
-7.067500 0.000000
-7.046800 0.000000
-7.026100 0.000000
-7.005400 0.000000
-6.984800 0.000000
-6.964100 0.000000
-6.943400 0.000000
-6.922800 0.000000
-6.902100 0.000000
-6.881400 0.000000
-6.860800 0.000000
-6.840100 0.000000
-6.819400 0.048300
-6.798800 2.392900
-6.778100 4.556200
-6.757400 5.710700
-6.736800 7.975300
-6.716100 13.737900
-6.695400 18.672300
-6.674800 23.710300
-6.654100 30.863400
-6.633400 52.106500
-6.612800 42.594400
-6.592100 42.001600
-6.571400 34.263800
-6.550700 41.212400
-6.530100 35.322100
-6.509400 41.552400
-6.488700 51.364900
-6.468100 42.042000
-6.447400 41.224300
-6.426700 49.941800
-6.406100 69.155100
-6.385400 45.946600
-6.364700 38.398700
-6.344100 36.105200
-6.323400 41.597100
-6.302700 64.741700
-6.282100 87.493600
-6.261400 55.780900
-6.240700 58.500500
-6.220100 75.472500
-6.199400 39.035000
-6.178700 35.971000
-6.158100 40.943600
-6.137400 35.200900
-6.116700 44.229200
-6.096000 33.002600
-6.075400 67.295400
-6.054700 32.288600
-6.034000 11.019300
-6.013400 4.791300
-5.992700 3.570000
-5.972000 1.598200
-5.951400 0.000000
-5.930700 0.000000
-5.910000 0.000000
-5.889400 0.000000
-5.868700 0.000000
-5.848000 0.000000
-5.827400 0.000000
-5.806700 0.000000
-5.786000 0.000000
-5.765400 0.000000
-5.744700 0.000000
-5.724000 0.000000
-5.703400 0.000000
-5.682700 0.000000
-5.662000 0.000000
-5.641300 0.000000
-5.620700 0.000000
-5.600000 0.000000
-5.579300 0.000000
-5.558700 0.000000
-5.538000 0.000000
-5.517300 0.000000
-5.496700 0.000000
-5.476000 0.000000
-5.455300 0.000000
-5.434700 0.000000
-5.414000 0.000000
-5.393300 0.000000
-5.372700 0.000000
-5.352000 0.000000
-5.331300 0.000000
-5.310700 0.000000
-5.290000 0.000000
-5.269300 0.000000
-5.248700 0.000000
-5.228000 0.000000
-5.207300 0.000000
-5.186600 0.000000
-5.166000 0.000000
-5.145300 0.000000
-5.124600 0.000000
-5.104000 0.000000
-5.083300 0.000000
-5.062600 0.000000
-5.042000 0.000000
-5.021300 0.000000
-5.000600 0.000000
-4.980000 0.000000
-4.959300 0.000000
-4.938600 0.000000
-4.918000 0.000000
-4.897300 0.000000
-4.876600 0.000000
-4.856000 0.000000
-4.835300 0.000000
-4.814600 0.000000
-4.794000 0.000000
-4.773300 0.000000
-4.752600 0.000000
-4.731900 0.000000
-4.711300 0.000000
-4.690600 0.000000
-4.669900 0.000000
-4.649300 0.000000
-4.628600 0.000000
-4.607900 0.000000
-4.587300 0.000000
-4.566600 0.000000
-4.545900 0.000000
-4.525300 0.000000
-4.504600 0.000000
-4.483900 0.000000
-4.463300 0.000000
-4.442600 0.000000
-4.421900 0.000000
-4.401300 0.000000
-4.380600 0.000000
-4.359900 0.000000
-4.339300 0.000000
-4.318600 0.000000
-4.297900 0.000000
-4.277200 0.000000
-4.256600 0.000000
-4.235900 0.000000
-4.215200 0.000000
-4.194600 0.000000
-4.173900 0.000000
-4.153200 0.000000
-4.132600 0.000000
-4.111900 0.000000
-4.091200 0.000000
-4.070600 0.000000
-4.049900 0.000000
-4.029200 0.000000
-4.008600 0.000000
-3.987900 0.000000
-3.967200 0.000000
-3.946600 0.000000
-3.925900 0.000000
-3.905200 0.000000
-3.884600 0.000000
-3.863900 0.000000
-3.843200 0.000000
-3.822500 0.000000
-3.801900 0.000000
-3.781200 0.000000
-3.760500 0.000000
-3.739900 0.000000
-3.719200 0.000000
-3.698500 0.000000
-3.677900 0.000000
-3.657200 0.000000
-3.636500 0.000000
-3.615900 0.000000
-3.595200 0.000000
-3.574500 0.000000
-3.553900 0.000000
-3.533200 0.000000
-3.512500 0.000000
-3.491900 0.000000
-3.471200 0.000000
-3.450500 0.000000
-3.429900 0.000000
-3.409200 0.000000
-3.388500 0.000000
-3.367800 0.000000
-3.347200 0.000000
-3.326500 0.000000
-3.305800 0.000000
-3.285200 0.000000
-3.264500 0.000000
-3.243800 0.000000
-3.223200 0.000000
-3.202500 0.000000
-3.181800 0.000000
-3.161200 0.000000
-3.140500 0.000000
-3.119800 0.000000
-3.099200 0.000000
-3.078500 0.000000
-3.057800 0.000000
-3.037200 0.000000
-3.016500 0.000000
-2.995800 0.000000
-2.975200 0.000000
-2.954500 0.000000
-2.933800 0.000000
-2.913100 0.000000
-2.892500 0.000000
-2.871800 0.000000
-2.851100 0.000000
-2.830500 0.000000
-2.809800 0.000000
-2.789100 0.000000
-2.768500 0.000000
-2.747800 0.000000
-2.727100 0.000000
-2.706500 0.000000
-2.685800 0.000000
-2.665100 0.000000
-2.644500 0.000000
-2.623800 0.000000
-2.603100 0.000000
-2.582500 0.000000
-2.561800 0.000000
-2.541100 0.000000
-2.520400 0.000000
-2.499800 0.000000
-2.479100 0.000000
-2.458400 0.000000
-2.437800 0.000000
-2.417100 0.000000
-2.396400 0.000000
-2.375800 0.000000
-2.355100 0.000000
-2.334400 0.000000
-2.313800 0.000000
-2.293100 0.000000
-2.272400 0.000000
-2.251800 0.000000
-2.231100 0.000000
-2.210400 0.000000
-2.189800 0.000000
-2.169100 0.000000
-2.148400 0.000000
-2.127800 0.000000
-2.107100 0.000000
-2.086400 0.000000
-2.065700 0.000000
-2.045100 0.000000
-2.024400 0.000000
-2.003700 0.000000
-1.983100 0.000000
-1.962400 0.000000
-1.941700 0.000000
-1.921100 0.000000
-1.900400 0.000000
-1.879700 0.000000
-1.859100 0.000000
-1.838400 0.000000
-1.817700 0.000000
-1.797100 0.000100
-1.776400 0.009700
-1.755700 0.035800
-1.735100 0.078500
-1.714400 0.119900
-1.693700 0.148000
-1.673100 0.155000
-1.652400 0.165200
-1.631700 0.177900
-1.611000 0.192400
-1.590400 0.208700
-1.569700 0.216900
-1.549000 0.230500
-1.528400 0.245100
-1.507700 0.260400
-1.487000 0.273400
-1.466400 0.282200
-1.445700 0.286800
-1.425000 0.289700
-1.404400 0.300000
-1.383700 0.309500
-1.363000 0.318500
-1.342400 0.326500
-1.321700 0.333500
-1.301000 0.339700
-1.280400 0.345900
-1.259700 0.352600
-1.239000 0.360100
-1.218400 0.368200
-1.197700 0.376600
-1.177000 0.385500
-1.156300 0.394900
-1.135700 0.404700
-1.115000 0.412000
-1.094300 0.418200
-1.073700 0.424200
-1.053000 0.430100
-1.032300 0.435500
-1.011700 0.439300
-0.991000 0.443600
-0.970300 0.448500
-0.949700 0.453700
-0.929000 0.458900
-0.908300 0.464000
-0.887700 0.469300
-0.867000 0.474800
-0.846300 0.480100
-0.825700 0.486800
-0.805000 0.492800
-0.784300 0.499000
-0.763700 0.505400
-0.743000 0.512000
-0.722300 0.518900
-0.701600 0.526000
-0.681000 0.533000
-0.660300 0.540200
-0.639600 0.547400
-0.619000 0.554100
-0.598300 0.558100
-0.577600 0.562100
-0.557000 0.565600
-0.536300 0.570000
-0.515600 0.574500
-0.495000 0.578900
-0.474300 0.583400
-0.453600 0.588000
-0.433000 0.592900
-0.412300 0.597900
-0.391600 0.603000
-0.371000 0.608700
-0.350300 0.614700
-0.329600 0.620900
-0.309000 0.627200
-0.288300 0.633600
-0.267600 0.640200
-0.246900 0.646800
-0.226300 0.653500
-0.205600 0.660300
-0.184900 0.667200
-0.164300 0.675600
-0.143600 0.686800
-0.122900 0.697100
-0.102300 0.706500
-0.081600 0.716000
-0.060900 0.724400
-0.040300 0.731800
-0.019600 0.747700
0.001100 0.760300
0.021700 0.767300
0.042400 0.766900
0.063100 0.760400
0.083700 0.757500
0.104400 0.751800
0.125100 0.751200
0.145700 0.750900
0.166400 0.751300
0.187100 0.752000
0.207800 0.753000
0.228400 0.754300
0.249100 0.756200
0.269800 0.758500
0.290400 0.761300
0.311100 0.764500
0.331800 0.781100
0.352400 0.791000
0.373100 0.796500
0.393800 0.810100
0.414400 0.824400
0.435100 0.834800
0.455800 0.843900
0.476400 0.851100
0.497100 0.856100
0.517800 0.859500
0.538400 0.863500
0.559100 0.867900
0.579800 0.872300
0.600400 0.875900
0.621100 0.878500
0.641800 0.887100
0.662500 0.878100
0.683100 0.885600
0.703800 0.889100
0.724500 0.898000
0.745100 0.916400
0.765800 0.941300
0.786500 0.970800
0.807100 1.003300
0.827800 1.036400
0.848500 1.025000
0.869100 0.954200
0.889800 0.891100
0.910500 0.881300
0.931100 0.845600
0.951800 0.825300
0.972500 0.803500
0.993100 0.780100
1.013800 0.755200
1.034500 0.731700
1.055100 0.726400
1.075800 0.727600
1.096500 0.713300
1.117200 0.698700
1.137800 0.685400
1.158500 0.699600
1.179200 0.718200
1.199800 0.739200
1.220500 0.762500
1.241200 0.788400
1.261800 0.821500
1.282500 0.853000
1.303200 0.876600
1.323800 0.893000
1.344500 0.908500
1.365200 0.927500
1.385800 0.948000
1.406500 0.970200
1.427200 0.994200
1.447800 1.025900
1.468500 1.085600
1.489200 1.116200
1.509800 1.190900
1.530500 1.386700
1.551200 1.215700
1.571900 1.217900
1.592500 1.219100
1.613200 1.205300
1.633900 1.202500
1.654500 1.204500
1.675200 1.204500
1.695900 1.202300
1.716500 1.194300
1.737200 1.223800
1.757900 1.237000
1.778500 1.216200
1.799200 1.197100
1.819900 1.181300
1.840500 1.168200
1.861200 1.157700
1.881900 1.151600
1.902500 1.145000
1.923200 1.137800
1.943900 1.115100
1.964600 1.086900
1.985200 1.017100
2.005900 0.971500
2.026600 0.935000
2.047200 0.919800
2.067900 0.913800
2.088600 0.908500
2.109200 0.903800
2.129900 0.898800
2.150600 0.895300
2.171200 0.894000
2.191900 0.894700
2.212600 0.897300
2.233200 0.935700
2.253900 0.955600
2.274600 0.975000
2.295200 0.993900
2.315900 1.012100
2.336600 1.029800
2.357200 1.039400
2.377900 1.037600
2.398600 1.034100
2.419300 1.026600
2.439900 1.021500
2.460600 1.019200
2.481300 1.020100
2.501900 1.025100
2.522600 1.032300
2.543300 1.040800
2.563900 1.049900
2.584600 1.059000
2.605300 1.067700
2.625900 1.076100
2.646600 1.084200
2.667300 1.091800
2.687900 1.099100
2.708600 1.121100
2.729300 1.138100
2.749900 1.160400
2.770600 1.207000
2.791300 1.256700
2.811900 1.229800
2.832600 1.239400
2.853300 1.260400
2.874000 1.290300
2.894600 1.367200
2.915300 1.430900
2.936000 1.511000
2.956600 1.581700
2.977300 1.621200
2.998000 1.681400
3.018600 1.584500
3.039300 1.580000
3.060000 1.577200
3.080600 1.569000
3.101300 1.554500
3.122000 1.555000
3.142600 1.568900
3.163300 1.584100
3.184000 1.590200
3.204600 1.585200
3.225300 1.579800
3.246000 1.573400
3.266600 1.562600
3.287300 1.548000
3.308000 1.565500
3.328700 1.545800
3.349300 1.520400
3.370000 1.492900
3.390700 1.501800
3.411300 1.489300
3.432000 1.469700
3.452700 1.433200
3.473300 1.407700
3.494000 1.397700
3.514700 1.395500
3.535300 1.390700
3.556000 1.386800
3.576700 1.382800
3.597300 1.377100
3.618000 1.372800
3.638700 1.368100
3.659300 1.361800
3.680000 1.357500
3.700700 1.352200
3.721300 1.349700
3.742000 1.349500
3.762700 1.363500
3.783400 1.406300
3.804000 1.341000
3.824700 1.364600
3.845400 1.358100
3.866000 1.362700
3.886700 1.440900
3.907400 1.452600
3.928000 1.426700
3.948700 1.438400
3.969400 1.447200
3.990000 1.511400
4.010700 1.537100
4.031400 1.579100
4.052000 1.585700
4.072700 1.605900
4.093400 1.617600
4.114000 1.613700
4.134700 1.594800
4.155400 1.540300
4.176000 1.530000
4.196700 1.525700
4.217400 1.524800
4.238100 1.529200
4.258700 1.537900
4.279400 1.544300
4.300100 1.532500
4.320700 1.533000
4.341400 1.505300
4.362100 1.514500
4.382700 1.502000
4.403400 1.485700
4.424100 1.496200
4.444700 1.518000
4.465400 1.544800
4.486100 1.574000
4.506700 1.628100
4.527400 1.700800
4.548100 1.807600
4.568700 1.898400
4.589400 2.131900
4.610100 2.316700
4.630700 2.420900
4.651400 2.532200
4.672100 2.668000
4.692800 2.843600
4.713400 2.733900
4.734100 2.643700
4.754800 2.745200
4.775400 2.993800
4.796100 2.909700
4.816800 2.637700
4.837400 2.429400
4.858100 2.256000
4.878800 2.211800
4.899400 2.256000
4.920100 2.222600
4.940800 2.180900
4.961400 2.146300
4.982100 2.091600
5.002800 2.178300
5.023400 2.442100
5.044100 2.909600
5.064800 3.251000
5.085400 3.873800
5.106100 4.147600
5.126800 4.238200
5.147500 4.443100
5.168100 6.504100
5.188800 5.398600
5.209500 5.196500
5.230100 5.045800
5.250800 4.869000
5.271500 4.489600
5.292100 4.310100
5.312800 4.668000
5.333500 4.476200
5.354100 5.265400
5.374800 6.114000
5.395500 9.465800
5.416100 9.537000
5.436800 8.683300
5.457500 9.003400
5.478100 9.620600
5.498800 9.438400
5.519500 8.467100
5.540100 8.101500
5.560800 8.595900
5.581500 9.323300
5.602200 8.403600
5.622800 6.741400
5.643500 6.717000
5.664200 7.191300
5.684800 6.386400
5.705500 4.987000
5.726200 4.243900
5.746800 3.743000
5.767500 3.655000
5.788200 4.234300
5.808800 4.293000
5.829500 4.427400
5.850200 4.735000
5.870800 5.070800
5.891500 6.474000
5.912200 7.265700
5.932800 8.331200
5.953500 8.476100
5.974200 5.459700
5.994800 4.719700
6.015500 4.155000
6.036200 3.658500
6.056900 3.419500
6.077500 3.263400
6.098200 3.064300
6.118900 2.557000
6.139500 2.218000
6.160200 3.479000
6.180900 5.624200
6.201500 5.289100
6.222200 5.156600
6.242900 5.730900
6.263500 6.542600
6.284200 6.249000
6.304900 5.330700
6.325500 4.530400
6.346200 4.142600
6.366900 3.774000
6.387500 3.471400
6.408200 3.259200
6.428900 3.149000
6.449600 3.433200
6.470200 3.128000
6.490900 2.980400
6.511600 2.832000
6.532200 2.557600
6.552900 2.425500
6.573600 2.306700
6.594200 2.206000
6.614900 2.131000
6.635600 2.067500
6.656200 2.014600
6.676900 2.020200
6.697600 2.064500
6.718200 2.122900
6.738900 2.331000
6.759600 2.352300
6.780200 2.355200
6.800900 2.226100
6.821600 2.180400
6.842200 2.119200
6.862900 2.031300
6.883600 1.967000
6.904300 1.924200
6.924900 1.878900
6.945600 1.820100
6.966300 1.764200
6.986900 1.709900
7.007600 1.656600
7.028300 1.607800
7.048900 1.573000
7.069600 1.543600
7.090300 1.517300
7.110900 1.492800
7.131600 1.470100
7.152300 1.448200
7.172900 1.432200
7.193600 1.401100
7.214300 1.377700
7.234900 1.355800
7.255600 1.335300
7.276300 1.314700
7.296900 1.294000
7.317600 1.274000
7.338300 1.255400
7.359000 1.235600
7.379600 1.218700
7.400300 1.205500
7.421000 1.221800
7.441600 1.206400
7.462300 1.192600
7.483000 1.190900
7.503600 1.196700
7.524300 1.209800
7.545000 1.229300
7.565600 1.458600
7.586300 1.252200
7.607000 1.274400
7.627600 1.416600
7.648300 2.087400
7.669000 3.177300
7.689600 3.927600
7.710300 3.519900
7.731000 3.602900
7.751600 4.450700
7.772300 4.947000
7.793000 4.238100
7.813700 3.994900
7.834300 3.544200
7.855000 3.182400
7.875700 2.950100
7.896300 2.734600
7.917000 2.660100
7.937700 2.389200
7.958300 2.292200
7.979000 2.143400
7.999700 2.144300
8.020300 2.142600
8.041000 2.094900
8.061700 2.022600
8.082300 1.973500
8.103000 1.917300
8.123700 1.860500
8.144300 1.851000
8.165000 1.827900
8.185700 1.703000
8.206300 1.666500
8.227000 1.632000
8.247700 1.600100
8.268400 1.571100
8.289000 1.543800
8.309700 1.528900
8.330400 1.505300
8.351000 1.448100
8.371700 1.439900
8.392400 1.441800
8.413000 1.449100
8.433700 1.460300
8.454400 1.460500
8.475000 1.478200
8.495700 1.506500
8.516400 1.539100
8.537000 1.540600
8.557700 1.571800
8.578400 1.613800
8.599000 1.665200
8.619700 1.710100
8.640400 1.793400
8.661000 1.882700
8.681700 1.966800
8.702400 2.014800
8.723100 2.063500
8.743700 2.114400
8.764400 2.163700
8.785100 2.205700
8.805700 2.223000
8.826400 2.215900
8.847100 2.202300
8.867700 2.195700
8.888400 2.175400
8.909100 2.173700
8.929700 2.177800
8.950400 2.207900
8.971100 2.200300
8.991700 2.061800
9.012400 2.044600
9.033100 2.070200
9.053700 2.068600
9.074400 1.984900
9.095100 1.960800
9.115700 1.937900
9.136400 1.903300
9.157100 1.879800
9.177800 1.860000
9.198400 1.844600
9.219100 1.833400
9.239800 1.826700
9.260400 1.825600
9.281100 1.834700
9.301800 1.839800
9.322400 1.831300
9.343100 1.821600
9.363800 1.815300
9.384400 1.812500
9.405100 1.809600
9.425800 1.801600
9.446400 1.790400
9.467100 1.782200
9.487800 1.752700
9.508400 1.707700
9.529100 1.678200
9.549800 1.651900
9.570400 1.631700
9.591100 1.621400
9.611800 1.617100
9.632500 1.652700
9.653100 1.645400
9.673800 1.622400
9.694500 1.611000
9.715100 1.626900
9.735800 1.609600
9.756500 1.613700
9.777100 1.605500
9.797800 1.585000
9.818500 1.607400
9.839100 1.669900
9.859800 1.667100
9.880500 1.663100
9.901100 1.653800
9.921800 1.648700
9.942500 1.651600
9.963100 1.657400
9.983800 1.667200
10.004500 1.684800
10.025100 1.709700
10.045800 1.715500
10.066500 1.733400
10.087200 1.796100
10.107800 1.781600
10.128500 1.697300
10.149200 1.664200
10.169800 1.637600
10.190500 1.617400
10.211200 1.603700
10.231800 1.600500
10.252500 1.608900
10.273200 1.618800
10.293800 1.622300
10.314500 1.618500
10.335200 1.585800
10.355800 1.574400
10.376500 1.576800
10.397200 1.579500
10.417800 1.581500
10.438500 1.584000
10.459200 1.587400
10.479800 1.591300
10.500500 1.593900
10.521200 1.593600
10.541900 1.601400
10.562500 1.610800
10.583200 1.618900
10.603900 1.627400
10.624500 1.612200
10.645200 1.603200
10.665900 1.606900
10.686500 1.615000
10.707200 1.624600
10.727900 1.635900
10.748500 1.647500
10.769200 1.656900
10.789900 1.667200
10.810500 1.685300
10.831200 1.705200
10.851900 1.726900
10.872500 1.751200
10.893200 1.779700
10.913900 1.812700
10.934600 1.851600
10.955200 1.877600
10.975900 1.904100
10.996600 1.928900
11.017200 1.951600
11.037900 1.976500
11.058600 1.998500
11.079200 2.113500
11.099900 2.236900
11.120600 2.338300
11.141200 2.425400
11.161900 2.498800
11.182600 2.561800
11.203200 2.448800
11.223900 2.356900
11.244600 2.260400
11.265200 2.209900
11.285900 2.144300
11.306600 2.069900
11.327200 2.057600
11.347900 2.021900
11.368600 1.906700
11.389300 1.839900
11.409900 1.782400
11.430600 1.746700
11.451300 1.714200
11.471900 1.684800
11.492600 1.656100
11.513300 1.628200
11.533900 1.604400
11.554600 1.599000
11.575300 1.551900
11.595900 1.513400
11.616600 1.511200
11.637300 1.512500
11.657900 1.520800
11.678600 1.535000
11.699300 1.547200
11.719900 1.557500
11.740600 1.577100
11.761300 1.604500
11.781900 1.661500
11.802600 1.668400
11.823300 1.655100
11.844000 1.646600
11.864600 1.638100
11.885300 1.629900
11.906000 1.622100
11.926600 1.621000
11.947300 1.624100
11.968000 1.647100
11.988600 1.625800
12.009300 1.608500
12.030000 1.609400
12.050600 1.615000
12.071300 1.624800
12.092000 1.638900
12.112600 1.671800
12.133300 1.705200
12.154000 1.732300
12.174600 1.793100
12.195300 1.910600
12.216000 1.859000
12.236600 1.841700
12.257300 1.869700
12.278000 1.888900
12.298700 1.899500
12.319300 1.901900
12.340000 1.829300
12.360700 1.787200
12.381300 1.771500
12.402000 1.789600
12.422700 1.817200
12.443300 1.851300
12.464000 1.859100
12.484700 1.862800
12.505300 1.861000
12.526000 1.825800
12.546700 1.801900
12.567300 1.772100
12.588000 1.748800
12.608700 1.716900
12.629300 1.696700
12.650000 1.698900
12.670700 1.722600
12.691300 1.760200
12.712000 1.818800
12.732700 1.896500
12.753400 2.004800
12.774000 2.101700
12.794700 2.185900
12.815400 2.246300
12.836000 2.274900
12.856700 2.311300
12.877400 2.347600
12.898000 2.384600
12.918700 2.422800
12.939400 2.456400
12.960000 2.489800
12.980700 2.515700
13.001400 2.531400
13.022000 2.540500
13.042700 2.534500
13.063400 2.512800
13.084000 2.494000
13.104700 2.474100
13.125400 2.371100
13.146000 2.318400
13.166700 2.293300
13.187400 2.286700
13.208100 2.290300
13.228700 2.288700
13.249400 2.321700
13.270100 2.284800
13.290700 2.304200
13.311400 2.402100
13.332100 2.488300
13.352700 2.366000
13.373400 2.342200
13.394100 2.342100
13.414700 2.343500
13.435400 2.342600
13.456100 2.339900
13.476700 2.341100
13.497400 2.349200
13.518100 2.366700
13.538700 2.385500
13.559400 2.400800
13.580100 2.426100
13.600700 2.485800
13.621400 2.564700
13.642100 2.654400
13.662800 2.740900
13.683400 2.823500
13.704100 2.903300
13.724800 2.964000
13.745400 2.999100
13.766100 3.046700
13.786800 3.124900
13.807400 2.936000
13.828100 2.793300
13.848800 2.497300
13.869400 2.297600
13.890100 2.091700
13.910800 1.989500
13.931400 1.898000
13.952100 1.827800
13.972800 1.785100
13.993400 1.766100
14.014100 1.762000
14.034800 1.761400
14.055400 1.771100
14.076100 1.789900
14.096800 1.822700
14.117500 1.865800
14.138100 1.930700
14.158800 2.025800
14.179500 2.128400
14.200100 2.227300
14.220800 2.298500
14.241500 2.495400
14.262100 2.549600
14.282800 2.596500
14.303500 2.945400
14.324100 2.735900
14.344800 2.672500
14.365500 2.602700
14.386100 2.551500
14.406800 2.489300
14.427500 2.445400
14.448100 2.407400
14.468800 2.401200
14.489500 2.344500
14.510100 2.290500
14.530800 2.219300
14.551500 2.171700
14.572200 2.142400
14.592800 2.139700
14.613500 2.168500
14.634200 2.222600
14.654800 2.342300
14.675500 2.429000
14.696200 2.502300
14.716800 2.517200
14.737500 2.539000
14.758200 2.569600
14.778800 2.684600
14.799500 2.665300
14.820200 2.543800
14.840800 2.432800
14.861500 2.338300
14.882200 2.284500
14.902800 2.181300
14.923500 2.140000
14.944200 2.101300
14.964800 2.069500
14.985500 2.042100
15.006200 2.024500
15.026900 2.017900
15.047500 2.015800
15.068200 2.016400
15.088900 2.003400
15.109500 2.003500
15.130200 1.996700
15.150900 1.994800
15.171500 1.997400
15.192200 2.004500
15.212900 2.018800
15.233500 2.045000
15.254200 2.067100
15.274900 2.092600
15.295500 2.117000
15.316200 2.124700
15.336900 2.116000
15.357500 2.116800
15.378200 2.127100
15.398900 2.115300
15.419600 2.404000
15.440200 2.325800
15.460900 2.326500
15.481600 2.313100
15.502200 2.275800
15.522900 2.197300
15.543600 2.071600
15.564200 1.969000
15.584900 1.944600
15.605600 1.934900
15.626200 1.948100
15.646900 1.951700
15.667600 1.963900
15.688200 1.982400
15.708900 2.010700
15.729600 2.032200
15.750200 2.053000
15.770900 2.094000
15.791600 2.125800
15.812200 2.153000
15.832900 2.178000
15.853600 2.202200
15.874300 2.400600
15.894900 2.239800
15.915600 2.253500
15.936300 2.271000
15.956900 2.300600
15.977600 2.382100
15.998300 2.259200
16.018900 2.184900
16.039600 2.164200
16.060300 2.144400
16.080900 2.127900
16.101600 2.105300
16.122300 2.087300
16.142900 2.071400
16.163600 2.056100
16.184300 2.059800
16.204900 2.074000
16.225600 2.080100
16.246300 2.088200
16.266900 2.094900
16.287600 2.116700
16.308300 2.112900
16.329000 2.064400
16.349600 2.020400
16.370300 2.019000
16.391000 2.057300
16.411600 2.035700
16.432300 2.051100
16.453000 2.029800
16.473600 2.001200
16.494300 1.989500
16.515000 1.982400
16.535600 1.988800
16.556300 1.995200
16.577000 1.926900
16.597600 1.916800
16.618300 1.917900
16.639000 1.908800
16.659600 1.895700
16.680300 1.880200
16.701000 1.866200
16.721600 1.853100
16.742300 1.838900
16.763000 1.821100
16.783700 1.823100
16.804300 1.830600
16.825000 1.840200
16.845700 1.839000
16.866300 1.832600
16.887000 1.825400
16.907700 1.853400
16.928300 1.829900
16.949000 1.812600
16.969700 1.796900
16.990300 1.781200
17.011000 1.769400
17.031700 1.758800
17.052300 1.757600
17.073000 1.775400
17.093700 1.811700
17.114300 1.861300
17.135000 1.888400
17.155700 1.828700
17.176300 1.756300
17.197000 1.702700
17.217700 1.667000
17.238400 1.650300
17.259000 1.655300
17.279700 1.666300
17.300400 1.664700
17.321000 1.663200
17.341700 1.668200
17.362400 1.674500
17.383000 1.679700
17.403700 1.679200
17.424400 1.690300
17.445000 1.778200
17.465700 1.669300
17.486400 1.640200
17.507000 1.636200
17.527700 1.637600
17.548400 1.643100
17.569000 1.641700
17.589700 1.642800
17.610400 1.651000
17.631000 1.657000
17.651700 1.664800
17.672400 1.676200
17.693100 1.699700
17.713700 1.735600
17.734400 1.772300
17.755100 1.812600
17.775700 1.870400
17.796400 1.915000
17.817100 1.952900
17.837700 1.985800
17.858400 2.011500
17.879100 2.031300
17.899700 2.046400
17.920400 2.057800
17.941100 2.068900
17.961700 2.082700
17.982400 2.096900
18.003100 2.105700
18.023700 2.101100
18.044400 2.113700
18.065100 2.119000
18.085700 2.123000
18.106400 2.126800
18.127100 2.224300
18.147800 2.106500
18.168400 2.014500
18.189100 1.984100
18.209800 1.960900
18.230400 1.943300
18.251100 1.925500
18.271800 1.907200
18.292400 1.889000
18.313100 1.872500
18.333800 1.852700
18.354400 1.827400
18.375100 1.800200
18.395800 1.771600
18.416400 1.745000
18.437100 1.722500
18.457800 1.704900
18.478400 1.691300
18.499100 1.680600
18.519800 1.682100
18.540400 1.696400
18.561100 1.699100
18.581800 1.698400
18.602500 1.700300
18.623100 1.705800
18.643800 1.739000
18.664500 1.792400
18.685100 1.827700
18.705800 1.852000
18.726500 1.863600
18.747100 1.875200
18.767800 1.852900
18.788500 1.831300
18.809100 1.852100
18.829800 1.893100
18.850500 1.850300
18.871100 1.693400
18.891800 1.723500
18.912500 1.748300
18.933100 1.784400
18.953800 1.837300
18.974500 1.969500
18.995100 2.047100
19.015800 2.075300
19.036500 2.061400
19.057200 1.961100
19.077800 1.917500
19.098500 1.950500
19.119200 1.995000
19.139800 2.108100
19.160500 2.217000
19.181200 2.357800
19.201800 2.544700
19.222500 2.779500
19.243200 2.900500
19.263800 3.061200
19.284500 3.095600
19.305200 3.065700
19.325800 3.027000
19.346500 2.911500
19.367200 2.869700
19.387800 2.843400
19.408500 2.830500
19.429200 2.831000
19.449900 2.828700
19.470500 2.774600
19.491200 2.848300
19.511900 2.947400
19.532500 3.002000
19.553200 3.442200
19.573900 2.902200
19.594500 2.995300
19.615200 3.175500
19.635900 3.284400
19.656500 3.330300
19.677200 3.157600
19.697900 2.999200
19.718500 2.961800
19.739200 2.947300
19.759900 2.929800
19.780500 2.927700
19.801200 2.950100
19.821900 3.118000
19.842500 3.323200
19.863200 3.344800
19.883900 3.346900
19.904600 3.325200
19.925200 3.283900
19.945900 3.248900
19.966600 3.242400
19.987200 3.251400
20.007900 3.224300
20.028600 3.239900
20.049200 3.348700
20.069900 3.558000
20.090600 3.787900
20.111200 4.047300
20.131900 4.338200
20.152600 4.587200
20.173200 4.825500
20.193900 4.742700
20.214600 4.443400
20.235200 4.103700
20.255900 3.998400
20.276600 3.900200
20.297200 3.796200
20.317900 3.810000
20.338600 3.537800
20.359300 3.562100
20.379900 3.554300
20.400600 3.565400
20.421300 3.584600
20.441900 3.590200
20.462600 3.569800
20.483300 3.552600
20.503900 3.470600
20.524600 3.431500
20.545300 3.402600
20.565900 3.411000
20.586600 3.562700
20.607300 3.425000
20.627900 3.443300
20.648600 3.459200
20.669300 3.492600
20.689900 3.415100
20.710600 3.277000
20.731300 3.184000
20.751900 3.108300
20.772600 3.042700
20.793300 2.924000
20.814000 2.815000
20.834600 2.742300
20.855300 2.680500
20.876000 2.637400
20.896600 2.597000
20.917300 2.615000
20.938000 2.711500
20.958600 2.759400
20.979300 2.800100
21.000000 2.822400
21.020600 2.827600
21.041300 2.881300
21.062000 2.945600
21.082600 2.992400
21.103300 3.020600
21.124000 3.016900
21.144600 2.992300
21.165300 2.979600
21.186000 2.962700
21.206600 2.977200
21.227300 2.991200
21.248000 2.995600
21.268700 3.008600
21.289300 3.036200
21.310000 3.110400
21.330700 3.230400
21.351300 3.233500
21.372000 3.239100
21.392700 3.236100
21.413300 3.209500
21.434000 3.164600
21.454700 3.111800
21.475300 3.061100
21.496000 3.001100
21.516700 2.936400
21.537300 2.956400
21.558000 2.982500
21.578700 2.986000
21.599300 3.054300
21.620000 3.129400
21.640700 3.149100
21.661300 3.170100
21.682000 3.070400
21.702700 3.047900
21.723400 3.058200
21.744000 3.073900
21.764700 3.113300
21.785400 3.179000
21.806000 3.136800
21.826700 3.075000
21.847400 2.983900
21.868000 2.926400
21.888700 2.845500
21.909400 2.840600
21.930000 2.846500
21.950700 2.840600
21.971400 2.801800
21.992000 2.723700
22.012700 2.604100
22.033400 2.548000
22.054000 2.497100
22.074700 2.463800
22.095400 2.437900
22.116000 2.421000
22.136700 2.411800
22.157400 2.395600
22.178100 2.397300
22.198700 2.387700
22.219400 2.376900
22.240100 2.372600
22.260700 2.376000
22.281400 2.391300
22.302100 2.417500
22.322700 2.430500
22.343400 2.414800
22.364100 2.392700
22.384700 2.362500
22.405400 2.327200
22.426100 2.300700
22.446700 2.274100
22.467400 2.299000
22.488100 2.376800
22.508700 2.317000
22.529400 2.243700
22.550100 2.139600
22.570700 2.010000
22.591400 1.880400
22.612100 1.757100
22.632800 1.666600
22.653400 1.619500
22.674100 1.605800
22.694800 1.605800
22.715400 1.615100
22.736100 1.632300
22.756800 1.653400
22.777400 1.671100
22.798100 1.683900
22.818800 1.691800
22.839400 1.694800
22.860100 1.688100
22.880800 1.659100
22.901400 1.617000
22.922100 1.585700
22.942800 1.589200
22.963400 1.679000
22.984100 1.637700
23.004800 1.628900
23.025400 1.631600
23.046100 1.642500
23.066800 1.695900
23.087500 1.684900
23.108100 1.796500
23.128800 1.749100
23.149500 1.771300
23.170100 1.811800
23.190800 1.856900
23.211500 1.905000
23.232100 1.965800
23.252800 2.036100
23.273500 2.070000
23.294100 2.089000
23.314800 2.124200
23.335500 2.118800
23.356100 2.108800
23.376800 2.079100
23.397500 2.051700
23.418100 2.032100
23.438800 2.013200
23.459500 2.005000
23.480100 2.011200
23.500800 2.001400
23.521500 1.988500
23.542200 1.975200
23.562800 1.961500
23.583500 1.902700
23.604200 1.872100
23.624800 1.855500
23.645500 1.849000
23.666200 1.852100
23.686800 1.828000
23.707500 1.841000
23.728200 1.857800
23.748800 1.877900
23.769500 1.900400
23.790200 1.926100
23.810800 2.015600
23.831500 2.056400
23.852200 2.100400
23.872800 2.147200
23.893500 2.212400
23.914200 2.395300
23.934900 2.534100
23.955500 2.589000
23.976200 2.751200
23.996900 2.797700
24.017500 2.873800
24.038200 3.076500
24.058900 3.275600
24.079500 3.210000
24.100200 3.178200
24.120900 3.162800
24.141500 3.117200
24.162200 3.130800
24.182900 3.145400
24.203500 3.151400
24.224200 3.134300
24.244900 3.090900
24.265500 3.121100
24.286200 3.133200
24.306900 3.363400
24.327500 3.119100
24.348200 3.090500
24.368900 3.061200
24.389600 3.053800
24.410200 3.044900
24.430900 2.975500
24.451600 2.875500
24.472200 2.767600
24.492900 2.736300
24.513600 2.736700
24.534200 2.729600
24.554900 2.717000
24.575600 2.587700
24.596200 2.622300
24.616900 2.638600
24.637600 2.682200
24.658200 2.717400
24.678900 2.744400
24.699600 2.764700
24.720200 2.770600
24.740900 2.787400
24.761600 2.776100
24.782200 2.794200
24.802900 2.868700
24.823600 2.955100
24.844300 2.998400
24.864900 2.771100
24.885600 2.740600
24.906300 2.702200
24.926900 2.735100
24.947600 2.909400
24.968300 2.549800
24.988900 2.561900
25.009600 2.592200
25.030300 2.622400
25.050900 2.614300
25.071600 2.608000
25.092300 2.601500
25.112900 2.590000
25.133600 2.630400
25.154300 2.871300
25.174900 2.778000
25.195600 2.801000
25.216300 2.820000
25.236900 2.865000
25.257600 2.915200
25.278300 2.932800
25.299000 2.879400
25.319600 2.846300
25.340300 2.796300
25.361000 2.796700
25.381600 2.845800
25.402300 3.191300
25.423000 2.902000
25.443600 3.017800
25.464300 3.050200
25.485000 2.952300
25.505600 2.881300
25.526300 2.847100
25.547000 2.809300
25.567600 2.749600
25.588300 2.701900
25.609000 2.707900
25.629600 2.755300
25.650300 2.738100
25.671000 2.744900
25.691600 2.782100
25.712300 2.796700
25.733000 2.840600
25.753700 2.846800
25.774300 2.815600
25.795000 2.742200
25.815700 2.683300
25.836300 2.640300
25.857000 2.602100
25.877700 2.576700
25.898300 2.592700
25.919000 2.618100
25.939700 2.676300
25.960300 2.764600
25.981000 2.823400
26.001700 2.738800
26.022300 2.649800
26.043000 2.677300
26.063700 2.699500
26.084300 2.762000
26.105000 2.795600
26.125700 2.718800
26.146300 2.640000
26.167000 2.540600
26.187700 2.467000
26.208400 2.375400
26.229000 2.314500
26.249700 2.262200
26.270400 2.206800
26.291000 2.181900
26.311700 2.165200
26.332400 2.158400
26.353000 2.162000
26.373700 2.182200
26.394400 2.204400
26.415000 2.214700
26.435700 2.232500
26.456400 2.298300
26.477000 2.330500
26.497700 2.348700
26.518400 2.368600
26.539000 2.423000
26.559700 2.529600
26.580400 2.636500
26.601000 2.788200
26.621700 2.974500
26.642400 3.216900
26.663100 3.365200
26.683700 3.508400
26.704400 3.641500
26.725100 3.752700
26.745700 3.899100
26.766400 3.912200
26.787100 3.905800
26.807700 3.978800
26.828400 4.038400
26.849100 4.065300
26.869700 4.106000
26.890400 4.112000
26.911100 4.106800
26.931700 4.128200
26.952400 4.194900
26.973100 4.236400
26.993700 3.857000
27.014400 3.700100
27.035100 3.616400
27.055700 3.626200
27.076400 3.585900
27.097100 3.535000
27.117800 3.306600
27.138400 3.329900
27.159100 3.269700
27.179800 3.514100
27.200400 3.504500
27.221100 3.382600
27.241800 3.254400
27.262400 3.220500
27.283100 3.270700
27.303800 3.351000
27.324400 3.323500
27.345100 3.291900
27.365800 3.249000
27.386400 3.157400
27.407100 3.097400
27.427800 3.062500
27.448400 3.060000
27.469100 3.064600
27.489800 3.074700
27.510400 3.088100
27.531100 3.090500
27.551800 3.073900
27.572500 3.047700
27.593100 3.005600
27.613800 2.960300
27.634500 2.944100
27.655100 2.827100
27.675800 2.681500
27.696500 2.551400
27.717100 2.443300
27.737800 2.358400
27.758500 2.295600
27.779100 2.241900
27.799800 2.216500
27.820500 2.238800
27.841100 2.254800
27.861800 2.309600
27.882500 2.376400
27.903100 2.462500
27.923800 2.558900
27.944500 2.619300
27.965100 2.625500
27.985800 2.566200
28.006500 2.438900
28.027200 2.375700
28.047800 2.362500
28.068500 2.317000
28.089200 2.232900
28.109800 2.142700
28.130500 2.050500
28.151200 1.955000
28.171800 1.876100
28.192500 1.765000
28.213200 1.660900
28.233800 1.553000
28.254500 1.450800
28.275200 1.354100
28.295800 1.254800
28.316500 1.156200
28.337200 1.060300
28.357800 0.965100
28.378500 0.899300
28.399200 0.844700
28.419900 0.789600
28.440500 0.734200
28.461200 0.684900
28.481900 0.639700
28.502500 0.599300
28.523200 0.564500
28.543900 0.535000
28.564500 0.510600
28.585200 0.487500
28.605900 0.475200
28.626500 0.464300
28.647200 0.454000
28.667900 0.444100
28.688500 0.434500
28.709200 0.425200
28.729900 0.416400
28.750500 0.408300
28.771200 0.405300
28.791900 0.403700
28.812500 0.403600
28.833200 0.404800
28.853900 0.398900
28.874600 0.388900
28.895200 0.377000
28.915900 0.363200
28.936600 0.347100
28.957200 0.329600
28.977900 0.315100
28.998600 0.304100
29.019200 0.297900
29.039900 0.292000
29.060600 0.286300
29.081200 0.280800
29.101900 0.275100
29.122600 0.269500
29.143200 0.263900
29.163900 0.258300
29.184600 0.252700
29.205200 0.247200
29.225900 0.241600
29.246600 0.236100
29.267200 0.230500
29.287900 0.225000
29.308600 0.219500
29.329300 0.214000
29.349900 0.208500
29.370600 0.203000
29.391300 0.197600
29.411900 0.192400
29.432600 0.187500
29.453300 0.182900
29.473900 0.178600
29.494600 0.174600
29.515300 0.171500
29.535900 0.168200
29.556600 0.164700
29.577300 0.163100
29.597900 0.161500
29.618600 0.157600
29.639300 0.151900
29.659900 0.145000
29.680600 0.139000
29.701300 0.137900
29.721900 0.137100
29.742600 0.136800
29.763300 0.137100
29.784000 0.137500
29.804600 0.137900
29.825300 0.138300
29.846000 0.138700
29.866600 0.140700
29.887300 0.141200
29.908000 0.139700
29.928600 0.136300
29.949300 0.129200
29.970000 0.117300
29.990600 0.107100
30.011300 0.098500
30.032000 0.100800
30.052600 0.095000
30.073300 0.082700
30.094000 0.079900
30.114600 0.077200
30.135300 0.074400
30.156000 0.071700
30.176600 0.068900
30.197300 0.066200
30.218000 0.063400
30.238700 0.060200
30.259300 0.055400
30.280000 0.048900
30.300700 0.040600
30.321300 0.036100
30.342000 0.034600
30.362700 0.033000
30.383300 0.031400
30.404000 0.029800
30.424700 0.028200
30.445300 0.026600
30.466000 0.024900
30.486700 0.023300
30.507300 0.021600
30.528000 0.019900
30.548700 0.018200
30.569300 0.016400
30.590000 0.014700
30.610700 0.012900
30.631300 0.011100
30.652000 0.009300
30.672700 0.007500
30.693400 0.005700
30.714000 0.003900
30.734700 0.002000
30.755400 0.000100
30.776000 0.000000
30.796700 0.000000
30.817400 0.000000
30.838000 0.000000
30.858700 0.000000
30.879400 0.000000
30.900000 0.000000
30.920700 0.000000
30.941400 0.000000
30.962000 0.000000
30.982700 0.000000
31.003400 0.000000
31.024000 0.000000
31.044700 0.000000
31.065400 0.000000
31.086000 0.000000
31.106700 0.000000
31.127400 0.000000
31.148100 0.000000
31.168700 0.000000
31.189400 0.000000
31.210100 0.000000
31.230700 0.000000
31.251400 0.000000
31.272100 0.000000
31.292700 0.000000
31.313400 0.000000
31.334100 0.000000
31.354700 0.000000
31.375400 0.000000
31.396100 0.000000
31.416700 0.000000
31.437400 0.000000
31.458100 0.000000
31.478700 0.000000
31.499400 0.000000
31.520100 0.000000
31.540700 0.000000
31.561400 0.000000
31.582100 0.000000
31.602800 0.000000
31.623400 0.000000
31.644100 0.000000
31.664800 0.000000
31.685400 0.000000
31.706100 0.000000
31.726800 0.000000
31.747400 0.000000
31.768100 0.000000
31.788800 0.000000
31.809400 0.000000
31.830100 0.000000
31.850800 0.000000
31.871400 0.000000
31.892100 0.000000
31.912800 0.000000
31.933400 0.000000
31.954100 0.000000
31.974800 0.000000
31.995400 0.000000
32.016100 0.000000
32.036800 0.000000
32.057500 0.000000
32.078100 0.000000
32.098800 0.000000
32.119500 0.000000
32.140100 0.000000
32.160800 0.000000
32.181500 0.000000
32.202100 0.000000
32.222800 0.000000
32.243500 0.000000
32.264100 0.000000
32.284800 0.000000
32.305500 0.000000
32.326100 0.000000
32.346800 0.000000
32.367500 0.000000
32.388100 0.000000
32.408800 0.000000
32.429500 0.000000
32.450100 0.000000
32.470800 0.000000
32.491500 0.000000
32.512200 0.000000
32.532800 0.000000
32.553500 0.000000
32.574200 0.000000
32.594800 0.000000
32.615500 0.000000
32.636200 0.000000
e
