set title 'mp-1216575 - Density of States'
set xlabel 'Energy (eV)'
set ylabel 'DOS (states/eV)'
set grid
set xrange [-10:10]
set yrange [0:128.379]
set xzeroaxis lt -1
set terminal png size 800,600
set output 'mp-1216575_dos_gnuplot.png'
plot '-' using 1:2 with lines title 'DOS'
-8.114800 0.000000
-8.097500 0.000000
-8.080200 0.000000
-8.062900 0.000000
-8.045700 0.000000
-8.028400 0.000000
-8.011100 0.000000
-7.993800 0.000000
-7.976500 0.000000
-7.959200 0.000000
-7.941900 0.000000
-7.924600 0.000000
-7.907400 0.000000
-7.890100 0.000000
-7.872800 0.000000
-7.855500 0.000000
-7.838200 0.000000
-7.820900 0.000000
-7.803600 0.000000
-7.786400 0.000000
-7.769100 0.000000
-7.751800 0.000000
-7.734500 0.000000
-7.717200 0.000000
-7.699900 0.000000
-7.682600 0.000000
-7.665400 0.000000
-7.648100 0.000000
-7.630800 0.000000
-7.613500 0.000000
-7.596200 0.000000
-7.578900 0.000000
-7.561600 0.000000
-7.544300 0.000000
-7.527100 0.000000
-7.509800 0.000000
-7.492500 0.000000
-7.475200 0.000000
-7.457900 0.000000
-7.440600 0.000000
-7.423300 0.000000
-7.406100 0.000000
-7.388800 0.000000
-7.371500 0.000000
-7.354200 0.000000
-7.336900 0.000000
-7.319600 0.000000
-7.302300 0.000000
-7.285100 0.000000
-7.267800 0.000000
-7.250500 0.000000
-7.233200 0.000000
-7.215900 0.000000
-7.198600 0.000000
-7.181300 0.000000
-7.164000 0.000000
-7.146800 0.000000
-7.129500 0.000000
-7.112200 0.000000
-7.094900 0.000000
-7.077600 0.000000
-7.060300 0.000000
-7.043000 0.000000
-7.025800 0.000000
-7.008500 0.000000
-6.991200 0.000000
-6.973900 0.000000
-6.956600 0.000000
-6.939300 0.000000
-6.922000 0.000000
-6.904800 0.000000
-6.887500 0.000000
-6.870200 0.000000
-6.852900 0.000000
-6.835600 0.000000
-6.818300 0.000000
-6.801000 0.000000
-6.783700 0.000000
-6.766500 0.000000
-6.749200 0.000000
-6.731900 0.000000
-6.714600 0.000000
-6.697300 0.000000
-6.680000 0.000000
-6.662700 0.000000
-6.645500 0.000000
-6.628200 0.000000
-6.610900 0.000000
-6.593600 0.000000
-6.576300 0.000000
-6.559000 0.000000
-6.541700 0.007900
-6.524500 0.106800
-6.507200 0.205600
-6.489900 0.304400
-6.472600 0.403300
-6.455300 0.502100
-6.438000 0.600900
-6.420700 0.699800
-6.403400 0.798600
-6.386200 0.897400
-6.368900 0.550500
-6.351600 0.566900
-6.334300 0.583200
-6.317000 0.599600
-6.299700 0.616000
-6.282400 0.632400
-6.265200 0.648800
-6.247900 0.665200
-6.230600 0.681600
-6.213300 0.697900
-6.196000 0.714300
-6.178700 0.730700
-6.161400 0.747100
-6.144200 0.763500
-6.126900 0.779900
-6.109600 0.796300
-6.092300 1.037100
-6.075000 1.322400
-6.057700 5.595900
-6.040400 8.184300
-6.023100 10.772700
-6.005900 14.285000
-5.988600 15.482000
-5.971300 16.943500
-5.954000 18.701300
-5.936700 35.573900
-5.919400 53.076700
-5.902100 53.212300
-5.884900 62.409600
-5.867600 116.707900
-5.850300 51.680300
-5.833000 67.610700
-5.815700 97.804500
-5.798400 72.215900
-5.781100 85.122600
-5.763900 75.964900
-5.746600 43.881300
-5.729300 54.689200
-5.712000 82.097200
-5.694700 56.389500
-5.677400 36.353400
-5.660100 41.293900
-5.642800 48.214700
-5.625600 68.185900
-5.608300 49.448400
-5.591000 52.061600
-5.573700 55.223400
-5.556400 74.134400
-5.539100 75.532300
-5.521800 71.540500
-5.504600 96.312400
-5.487300 57.947300
-5.470000 69.893100
-5.452700 81.290800
-5.435400 73.983700
-5.418100 73.262300
-5.400800 41.963000
-5.383600 49.310700
-5.366300 26.568000
-5.349000 18.054500
-5.331700 14.257800
-5.314400 0.874800
-5.297100 0.878600
-5.279800 0.882400
-5.262600 0.886100
-5.245300 0.889900
-5.228000 0.893600
-5.210700 0.897400
-5.193400 0.901100
-5.176100 0.904900
-5.158800 0.908600
-5.141500 0.912400
-5.124300 0.916200
-5.107000 0.919900
-5.089700 0.923700
-5.072400 0.927400
-5.055100 0.881300
-5.037800 0.756600
-5.020500 0.753600
-5.003300 0.750700
-4.986000 0.747700
-4.968700 0.744800
-4.951400 0.741800
-4.934100 0.738900
-4.916800 0.736000
-4.899500 0.733000
-4.882300 0.730100
-4.865000 0.727100
-4.847700 0.724200
-4.830400 0.721200
-4.813100 0.718300
-4.795800 0.723000
-4.778500 0.728500
-4.761200 0.734000
-4.744000 0.739500
-4.726700 0.745000
-4.709400 0.750500
-4.692100 0.756000
-4.674800 0.761500
-4.657500 0.766900
-4.640200 0.772400
-4.623000 0.777900
-4.605700 0.783400
-4.588400 0.788900
-4.571100 0.794400
-4.553800 0.799900
-4.536500 0.805300
-4.519200 0.810800
-4.502000 0.816300
-4.484700 0.821800
-4.467400 0.827300
-4.450100 0.832800
-4.432800 0.838300
-4.415500 0.856900
-4.398200 0.882300
-4.380900 0.907700
-4.363700 0.933100
-4.346400 0.958500
-4.329100 0.990200
-4.311800 1.027500
-4.294500 1.064700
-4.277200 1.102000
-4.259900 1.139300
-4.242700 1.176600
-4.225400 1.213900
-4.208100 1.251200
-4.190800 1.288500
-4.173500 1.325800
-4.156200 1.363100
-4.138900 1.400400
-4.121700 2.174100
-4.104400 2.062800
-4.087100 1.951400
-4.069800 1.840100
-4.052500 1.728700
-4.035200 1.617400
-4.017900 1.506000
-4.000600 1.394700
-3.983400 1.283300
-3.966100 1.172000
-3.948800 1.060600
-3.931500 0.949300
-3.914200 1.001400
-3.896900 1.225000
-3.879600 1.448600
-3.862400 1.672200
-3.845100 1.895700
-3.827800 1.282700
-3.810500 1.177600
-3.793200 1.072500
-3.775900 0.967400
-3.758600 0.862300
-3.741400 0.757200
-3.724100 0.652000
-3.706800 0.546900
-3.689500 0.441800
-3.672200 0.336700
-3.654900 0.231600
-3.637600 0.126500
-3.620300 0.021400
-3.603100 0.000000
-3.585800 0.000000
-3.568500 0.000000
-3.551200 0.000000
-3.533900 0.000000
-3.516600 0.000000
-3.499300 0.000000
-3.482100 0.000000
-3.464800 0.001400
-3.447500 0.016100
-3.430200 0.039500
-3.412900 0.070000
-3.395600 0.107100
-3.378300 0.153800
-3.361100 0.206200
-3.343800 0.258600
-3.326500 0.310900
-3.309200 0.363300
-3.291900 0.415700
-3.274600 0.468100
-3.257300 0.520400
-3.240000 0.489500
-3.222800 0.468100
-3.205500 0.452900
-3.188200 0.434100
-3.170900 0.400600
-3.153600 0.343600
-3.136300 0.347900
-3.119000 0.352100
-3.101800 0.356300
-3.084500 0.360500
-3.067200 0.364700
-3.049900 0.368900
-3.032600 0.373100
-3.015300 0.377300
-2.998000 0.381600
-2.980800 0.385800
-2.963500 0.390000
-2.946200 0.394200
-2.928900 0.401900
-2.911600 0.416200
-2.894300 0.434500
-2.877000 0.455300
-2.859700 0.478400
-2.842500 0.503900
-2.825200 0.531800
-2.807900 0.561600
-2.790600 0.592300
-2.773300 0.622400
-2.756000 0.652700
-2.738700 0.683600
-2.721500 0.695400
-2.704200 0.683000
-2.686900 0.685300
-2.669600 0.689600
-2.652300 0.696400
-2.635000 0.707500
-2.617700 0.721700
-2.600500 0.734600
-2.583200 0.746000
-2.565900 0.756400
-2.548600 0.766900
-2.531300 0.776700
-2.514000 0.785600
-2.496700 0.793400
-2.479400 0.800800
-2.462200 0.804600
-2.444900 0.800500
-2.427600 0.784100
-2.410300 0.761400
-2.393000 0.767400
-2.375700 0.773400
-2.358400 0.779400
-2.341200 0.785300
-2.323900 0.791300
-2.306600 0.797300
-2.289300 0.803200
-2.272000 0.808800
-2.254700 0.813100
-2.237400 0.816600
-2.220200 0.819600
-2.202900 0.822200
-2.185600 0.824300
-2.168300 0.826000
-2.151000 0.827300
-2.133700 0.828200
-2.116400 0.828800
-2.099200 0.829000
-2.081900 0.828900
-2.064600 0.828400
-2.047300 0.827800
-2.030000 0.830900
-2.012700 0.839700
-1.995400 0.850100
-1.978100 0.861300
-1.960900 0.874500
-1.943600 0.889500
-1.926300 0.906600
-1.909000 0.925600
-1.891700 0.942500
-1.874400 0.956300
-1.857100 0.973700
-1.839900 0.988600
-1.822600 0.981800
-1.805300 0.977900
-1.788000 0.982000
-1.770700 0.989000
-1.753400 0.998700
-1.736100 1.009100
-1.718900 1.019600
-1.701600 1.030400
-1.684300 1.041200
-1.667000 1.052300
-1.649700 1.063500
-1.632400 1.074900
-1.615100 1.086600
-1.597800 1.098600
-1.580600 1.110700
-1.563300 1.123100
-1.546000 1.137000
-1.528700 1.152700
-1.511400 1.170000
-1.494100 1.189000
-1.476800 1.209400
-1.459600 1.228800
-1.442300 1.246400
-1.425000 1.262600
-1.407700 1.277300
-1.390400 1.287000
-1.373100 1.294000
-1.355800 1.299700
-1.338600 1.303600
-1.321300 1.300900
-1.304000 1.265600
-1.286700 1.263200
-1.269400 1.265700
-1.252100 1.268000
-1.234800 1.270000
-1.217500 1.271700
-1.200300 1.273100
-1.183000 1.274500
-1.165700 1.275900
-1.148400 1.276600
-1.131100 1.276500
-1.113800 1.278900
-1.096500 1.281500
-1.079300 1.284000
-1.062000 1.286500
-1.044700 1.288900
-1.027400 1.291200
-1.010100 1.293400
-0.992800 1.295500
-0.975500 1.297600
-0.958300 1.299300
-0.941000 1.300800
-0.923700 1.301900
-0.906400 1.302600
-0.889100 1.303200
-0.871800 1.306300
-0.854500 1.313100
-0.837200 1.323700
-0.820000 1.338000
-0.802700 1.356000
-0.785400 1.375900
-0.768100 1.397100
-0.750800 1.419700
-0.733500 1.444000
-0.716200 1.470300
-0.699000 1.498200
-0.681700 1.512500
-0.664400 1.511100
-0.647100 1.524500
-0.629800 1.538700
-0.612500 1.553500
-0.595200 1.568900
-0.578000 1.585000
-0.560700 1.601400
-0.543400 1.618200
-0.526100 1.636100
-0.508800 1.655200
-0.491500 1.674600
-0.474200 1.695600
-0.456900 1.718700
-0.439700 1.744000
-0.422400 1.771400
-0.405100 1.800700
-0.387800 1.838000
-0.370500 1.872700
-0.353200 1.904700
-0.335900 1.934300
-0.318700 1.961500
-0.301400 1.986500
-0.284100 2.008700
-0.266800 2.021100
-0.249500 2.016700
-0.232200 1.988400
-0.214900 1.983200
-0.197700 1.994800
-0.180400 2.006300
-0.163100 2.017900
-0.145800 2.028300
-0.128500 2.041600
-0.111200 2.055300
-0.093900 2.069600
-0.076600 2.084600
-0.059400 2.099800
-0.042100 2.115300
-0.024800 2.130900
-0.007500 2.146700
0.009800 2.272000
0.027100 2.373300
0.044400 2.441500
0.061600 2.438300
0.078900 2.434500
0.096200 2.430400
0.113500 2.424900
0.130800 2.419100
0.148100 2.413800
0.165400 2.408900
0.182600 2.404600
0.199900 2.401100
0.217200 2.398200
0.234500 2.395700
0.251800 2.394000
0.269100 2.393000
0.286400 2.393600
0.303700 2.394300
0.320900 2.445400
0.338200 2.480900
0.355500 2.502800
0.372800 2.520900
0.390100 2.537400
0.407400 2.552100
0.424700 2.564700
0.441900 2.575900
0.459200 2.629200
0.476500 2.641200
0.493800 2.596700
0.511100 2.553100
0.528400 3.965400
0.545700 6.651000
0.562900 2.401200
0.580200 2.370600
0.597500 2.343000
0.614800 2.317100
0.632100 2.293200
0.649400 2.272000
0.666700 2.257300
0.684000 2.247500
0.701200 2.244200
0.718500 2.266400
0.735800 2.307800
0.753100 2.371900
0.770400 2.507600
0.787700 2.703900
0.805000 4.140800
0.822200 3.372600
0.839500 2.990600
0.856800 2.902700
0.874100 2.891700
0.891400 2.892000
0.908700 2.865400
0.926000 2.863400
0.943200 2.887400
0.960500 2.910600
0.977800 2.885200
0.995100 2.799800
1.012400 2.631000
1.029700 2.398900
1.047000 2.157400
1.064300 2.051300
1.081500 1.999700
1.098800 1.962900
1.116100 1.930300
1.133400 1.901900
1.150700 1.879100
1.168000 1.881300
1.185300 1.915200
1.202500 2.067100
1.219800 2.489800
1.237100 2.078600
1.254400 1.829300
1.271700 1.791400
1.289000 1.759500
1.306300 1.739400
1.323500 1.738900
1.340800 1.761300
1.358100 1.857300
1.375400 1.952900
1.392700 2.089200
1.410000 2.086200
1.427300 2.134700
1.444500 2.155200
1.461800 2.444400
1.479100 2.890600
1.496400 3.225800
1.513700 3.021400
1.531000 2.822400
1.548300 2.802200
1.565600 2.775300
1.582800 2.711500
1.600100 2.592000
1.617400 2.455100
1.634700 2.306600
1.652000 2.280400
1.669300 2.353400
1.686600 2.285200
1.703800 2.441100
1.721100 2.268500
1.738400 1.297100
1.755700 0.946000
1.773000 0.616400
1.790300 0.251400
1.807600 0.000000
1.824800 0.000000
1.842100 0.000000
1.859400 0.000000
1.876700 0.000000
1.894000 0.000000
1.911300 0.000000
1.928600 0.000000
1.945900 0.000000
1.963100 0.000000
1.980400 0.000000
1.997700 0.000000
2.015000 0.000000
2.032300 0.000000
2.049600 0.000000
2.066900 0.000000
2.084100 0.000000
2.101400 0.000000
2.118700 0.000000
2.136000 0.000000
2.153300 0.000000
2.170600 0.000000
2.187900 0.000000
2.205100 0.000000
2.222400 0.000000
2.239700 0.000000
2.257000 0.000000
2.274300 0.000000
2.291600 0.000000
2.308900 0.091300
2.326200 0.481700
2.343400 1.291800
2.360700 1.602500
2.378000 1.321300
2.395300 0.610600
2.412600 0.612500
2.429900 0.628700
2.447200 0.644900
2.464400 0.661100
2.481700 0.677300
2.499000 0.693700
2.516300 0.715600
2.533600 0.738600
2.550900 0.762700
2.568200 0.788100
2.585400 0.814500
2.602700 0.842200
2.620000 0.871000
2.637300 0.900900
2.654600 0.931300
2.671900 0.962200
2.689200 0.993500
2.706500 1.025200
2.723700 1.057400
2.741000 1.083600
2.758300 1.096300
2.775600 1.111300
2.792900 1.128700
2.810200 1.148300
2.827500 1.169900
2.844700 1.192000
2.862000 1.210400
2.879300 1.216900
2.896600 1.209000
2.913900 1.399000
2.931200 1.635500
2.948500 1.668800
2.965700 1.641200
2.983000 1.613900
3.000300 1.586800
3.017600 1.560000
3.034900 1.533300
3.052200 1.506600
3.069500 1.480000
3.086800 1.453500
3.104000 1.427000
3.121300 1.400500
3.138600 1.374100
3.155900 1.347900
3.173200 1.322600
3.190500 1.298200
3.207800 1.274300
3.225000 1.250600
3.242300 1.226800
3.259600 1.202600
3.276900 1.178400
3.294200 1.154200
3.311500 1.129900
3.328800 1.105700
3.346000 1.081400
3.363300 1.056900
3.380600 1.032500
3.397900 1.008100
3.415200 0.983700
3.432500 0.959300
3.449800 0.939800
3.467100 0.928600
3.484300 0.927900
3.501600 0.943900
3.518900 0.982100
3.536200 1.020800
3.553500 1.052100
3.570800 1.068100
3.588100 1.081900
3.605300 1.092400
3.622600 1.101200
3.639900 1.108600
3.657200 1.114500
3.674500 1.119000
3.691800 1.122100
3.709100 1.123700
3.726300 1.124000
3.743600 1.123400
3.760900 1.122300
3.778200 1.296400
3.795500 2.121700
3.812800 2.390000
3.830100 2.471300
3.847400 2.137200
3.864600 1.747700
3.881900 1.619200
3.899200 1.590800
3.916500 1.614700
3.933800 1.641500
3.951100 1.669800
3.968400 1.699600
3.985600 1.730900
4.002900 1.763700
4.020200 1.797800
4.037500 1.833000
4.054800 1.872500
4.072100 1.918000
4.089400 2.038600
4.106600 2.118200
4.123900 2.204200
4.141200 2.333700
4.158500 2.476100
4.175800 2.482100
4.193100 2.352000
4.210400 2.261600
4.227700 2.196500
4.244900 2.156700
4.262200 2.144500
4.279500 2.165400
4.296800 2.187400
4.314100 2.209600
4.331400 2.179500
4.348700 2.092700
4.365900 2.069800
4.383200 2.012700
4.400500 1.917400
4.417800 1.946000
4.435100 1.967900
4.452400 2.040500
4.469700 2.171900
4.486900 2.436900
4.504200 2.653200
4.521500 2.816900
4.538800 2.967200
4.556100 3.113100
4.573400 3.807800
4.590700 4.723700
4.608000 6.027800
4.625200 5.855900
4.642500 5.539200
4.659800 4.880400
4.677100 4.503100
4.694400 4.083600
4.711700 3.769500
4.729000 3.522600
4.746200 3.383700
4.763500 3.360600
4.780800 3.249600
4.798100 3.154200
4.815400 3.100500
4.832700 3.033200
4.850000 2.947700
4.867200 2.894800
4.884500 2.890900
4.901800 2.849600
4.919100 2.820400
4.936400 2.814700
4.953700 2.795500
4.971000 2.742000
4.988200 2.671300
5.005500 2.611500
5.022800 2.563000
5.040100 2.522300
5.057400 2.480400
5.074700 2.437400
5.092000 2.395500
5.109300 2.355200
5.126500 2.315600
5.143800 2.276800
5.161100 2.238900
5.178400 2.203100
5.195700 2.169500
5.213000 2.138800
5.230300 2.114000
5.247500 2.094900
5.264800 2.083100
5.282100 2.073400
5.299400 2.058000
5.316700 2.047100
5.334000 2.056800
5.351300 2.099800
5.368500 2.191100
5.385800 2.332400
5.403100 2.524400
5.420400 2.754200
5.437700 2.912700
5.455000 3.055600
5.472300 3.067300
5.489600 2.914500
5.506800 2.796600
5.524100 2.714000
5.541400 2.660100
5.558700 2.593500
5.576000 2.506100
5.593300 2.397900
5.610600 2.314200
5.627800 2.242900
5.645100 2.138900
5.662400 2.128700
5.679700 2.267400
5.697000 2.801700
5.714300 3.658300
5.731600 3.005800
5.748800 2.873500
5.766100 2.858600
5.783400 2.838600
5.800700 2.809600
5.818000 2.770700
5.835300 2.720400
5.852600 2.684400
5.869900 2.649500
5.887100 2.609200
5.904400 2.572900
5.921700 2.534500
5.939000 2.494100
5.956300 2.451700
5.973600 2.413400
5.990900 2.374000
6.008100 2.332100
6.025400 2.287800
6.042700 2.244200
6.060000 2.212900
6.077300 2.180300
6.094600 2.145900
6.111900 2.112800
6.129100 2.098900
6.146400 2.094600
6.163700 2.095600
6.181000 2.101500
6.198300 2.096000
6.215600 2.097400
6.232900 2.107700
6.250200 2.115300
6.267400 2.135800
6.284700 2.159900
6.302000 2.192300
6.319300 2.255700
6.336600 2.355800
6.353900 2.459900
6.371200 2.633700
6.388400 2.762700
6.405700 2.926200
6.423000 3.151300
6.440300 3.334400
6.457600 3.556400
6.474900 3.580600
6.492200 3.267100
6.509400 3.349400
6.526700 3.462800
6.544000 3.260300
6.561300 3.210000
6.578600 3.189900
6.595900 3.180300
6.613200 3.158700
6.630500 3.124900
6.647700 3.071300
6.665000 2.971800
6.682300 2.885800
6.699600 2.820600
6.716900 2.777700
6.734200 2.758600
6.751500 2.759900
6.768700 2.763700
6.786000 2.771500
6.803300 2.784500
6.820600 2.797800
6.837900 2.814700
6.855200 2.838400
6.872500 2.868600
6.889700 2.903700
6.907000 2.945400
6.924300 3.006800
6.941600 3.068700
6.958900 3.115200
6.976200 3.119600
6.993500 3.086800
7.010800 3.029500
7.028000 2.971600
7.045300 2.914500
7.062600 2.865900
7.079900 2.835000
7.097200 2.826300
7.114500 2.830200
7.131800 2.816200
7.149000 2.782100
7.166300 2.754200
7.183600 2.740100
7.200900 2.742000
7.218200 2.767800
7.235500 2.802500
7.252800 2.837600
7.270000 2.869900
7.287300 2.891400
7.304600 2.904300
7.321900 2.917400
7.339200 2.930800
7.356500 2.944400
7.373800 2.958200
7.391100 2.969700
7.408300 2.960400
7.425600 2.942900
7.442900 2.938200
7.460200 2.935700
7.477500 2.933500
7.494800 2.931500
7.512100 2.930100
7.529300 2.929900
7.546600 2.933400
7.563900 2.938200
7.581200 2.941200
7.598500 2.944100
7.615800 2.947500
7.633100 2.951300
7.650300 2.955700
7.667600 2.959900
7.684900 2.961300
7.702200 2.961200
7.719500 2.962000
7.736800 2.962500
7.754100 2.959500
7.771400 2.945000
7.788600 2.917900
7.805900 2.712000
7.823200 2.708600
7.840500 2.708400
7.857800 2.725600
7.875100 2.767300
7.892400 2.829100
7.909600 2.893700
7.926900 2.959400
7.944200 3.021200
7.961500 3.063600
7.978800 3.081300
7.996100 3.084900
8.013400 3.088700
8.030600 3.091900
8.047900 3.081900
8.065200 3.056900
8.082500 3.043000
8.099800 3.034000
8.117100 3.029800
8.134400 3.029400
8.151600 3.031200
8.168900 3.035000
8.186200 3.040500
8.203500 3.047000
8.220800 3.054600
8.238100 3.121600
8.255400 3.173800
8.272700 3.138100
8.289900 3.087500
8.307200 3.027700
8.324500 2.960600
8.341800 2.852100
8.359100 2.713100
8.376400 2.600500
8.393700 2.534900
8.410900 2.515000
8.428200 2.562700
8.445500 2.663100
8.462800 2.780400
8.480100 2.839500
8.497400 2.847600
8.514700 2.836100
8.531900 2.787900
8.549200 2.791700
8.566500 2.818700
8.583800 2.850900
8.601100 2.888000
8.618400 2.929500
8.635700 2.961200
8.653000 3.071300
8.670200 3.225900
8.687500 3.137700
8.704800 3.133600
8.722100 3.125300
8.739400 3.115100
8.756700 3.105100
8.774000 3.095600
8.791200 3.107800
8.808500 3.147700
8.825800 3.195200
8.843100 3.249800
8.860400 3.311300
8.877700 3.379000
8.895000 3.452700
8.912200 3.532500
8.929500 3.618300
8.946800 3.720200
8.964100 3.838400
8.981400 4.055300
8.998700 4.352500
9.016000 4.394100
9.033300 4.313200
9.050500 4.134800
9.067800 3.972500
9.085100 3.821800
9.102400 3.702100
9.119700 3.611100
9.137000 3.525800
9.154300 3.440800
9.171500 3.458400
9.188800 3.480900
9.206100 3.502600
9.223400 3.525600
9.240700 3.549300
9.258000 3.612400
9.275300 3.670300
9.292500 3.710800
9.309800 3.734100
9.327100 3.745400
9.344400 3.692800
9.361700 3.597000
9.379000 3.527500
9.396300 3.460400
9.413600 3.396900
9.430800 3.330200
9.448100 3.252900
9.465400 3.209000
9.482700 3.202500
9.500000 3.208500
9.517300 3.215800
9.534600 3.230000
9.551800 3.247600
9.569100 3.263200
9.586400 3.276700
9.603700 3.293400
9.621000 3.313200
9.638300 3.330200
9.655600 3.345200
9.672800 3.362800
9.690100 3.382800
9.707400 3.401100
9.724700 3.417800
9.742000 3.432200
9.759300 3.444100
9.776600 3.453100
9.793900 3.459800
9.811100 3.464200
9.828400 3.450000
9.845700 3.451000
9.863000 3.474100
9.880300 3.488300
9.897600 3.493500
9.914900 3.490400
9.932100 3.483400
9.949400 3.474400
9.966700 3.464500
9.984000 3.451400
10.001300 3.446300
10.018600 3.490300
10.035900 3.443000
10.053100 3.388300
10.070400 3.325100
10.087700 3.263800
10.105000 3.228600
10.122300 3.203300
10.139600 3.182700
10.156900 3.162300
10.174200 3.142000
10.191400 3.121400
10.208700 3.100600
10.226000 3.062800
10.243300 3.029700
10.260600 2.999200
10.277900 2.958800
10.295200 2.927500
10.312400 2.927900
10.329700 2.949700
10.347000 2.977300
10.364300 3.016400
10.381600 3.094800
10.398900 3.209700
10.416200 3.258900
10.433400 3.247400
10.450700 3.256500
10.468000 3.265800
10.485300 3.270100
10.502600 3.285300
10.519900 3.302300
10.537200 3.317100
10.554500 3.327600
10.571700 3.321800
10.589000 3.298800
10.606300 3.261500
10.623600 3.261500
10.640900 3.277200
10.658200 3.306700
10.675500 3.393900
10.692700 3.466900
10.710000 3.516500
10.727300 3.542500
10.744600 3.435200
10.761900 3.338800
10.779200 3.313100
10.796500 3.284300
10.813700 3.250400
10.831000 3.178700
10.848300 3.145400
10.865600 3.129400
10.882900 3.119100
10.900200 3.109400
10.917500 3.101000
10.934800 3.093100
10.952000 3.085800
10.969300 3.080600
10.986600 3.076800
11.003900 3.068700
11.021200 3.060700
11.038500 3.052800
11.055800 3.044300
11.073000 3.035000
11.090300 3.024500
11.107600 3.011700
11.124900 2.995500
11.142200 2.972700
11.159500 2.961900
11.176800 2.953200
11.194000 2.944400
11.211300 2.938100
11.228600 2.933200
11.245900 2.924800
11.263200 2.922000
11.280500 2.947200
11.297800 2.948400
11.315100 2.923300
11.332300 2.876900
11.349600 2.834100
11.366900 2.842800
11.384200 2.853600
11.401500 2.865500
11.418800 2.876400
11.436100 2.886800
11.453300 2.897300
11.470600 2.910000
11.487900 2.924800
11.505200 2.939700
11.522500 2.954600
11.539800 2.981600
11.557100 3.008100
11.574300 3.031800
11.591600 3.053300
11.608900 3.074300
11.626200 3.092200
11.643500 3.109800
11.660800 3.127600
11.678100 3.145800
11.695300 3.164900
11.712600 3.185300
11.729900 3.206800
11.747200 3.225200
11.764500 3.248900
11.781800 3.211800
11.799100 3.180800
11.816400 3.151700
11.833600 3.093000
11.850900 3.016400
11.868200 2.927500
11.885500 2.861800
11.902800 2.799900
11.920100 2.747200
11.937400 2.703400
11.954600 2.667600
11.971900 2.645900
11.989200 2.656200
12.006500 2.722400
12.023800 2.884100
12.041100 3.108100
12.058400 3.206300
12.075600 3.211900
12.092900 3.252800
12.110200 3.244300
12.127500 3.214500
12.144800 3.169400
12.162100 3.107100
12.179400 3.027100
12.196700 2.948100
12.213900 2.908400
12.231200 2.871500
12.248500 2.830800
12.265800 2.786000
12.283100 2.742300
12.300400 2.701200
12.317700 2.663100
12.334900 2.635200
12.352200 2.613200
12.369500 2.588500
12.386800 2.560400
12.404100 2.528900
12.421400 2.497000
12.438700 2.392700
12.455900 2.370900
12.473200 2.362800
12.490500 2.357500
12.507800 2.353700
12.525100 2.351400
12.542400 2.350500
12.559700 2.352200
12.577000 2.361200
12.594200 2.368000
12.611500 2.378600
12.628800 2.392500
12.646100 2.409100
12.663400 2.481800
12.680700 2.652000
12.698000 2.715400
12.715200 2.788900
12.732500 2.844600
12.749800 2.878600
12.767100 2.878500
12.784400 2.868700
12.801700 2.873100
12.819000 2.875100
12.836200 2.874400
12.853500 2.876000
12.870800 2.880600
12.888100 2.889100
12.905400 2.923400
12.922700 2.974200
12.940000 3.034800
12.957300 3.108500
12.974500 3.193900
12.991800 3.300000
13.009100 3.444700
13.026400 3.505300
13.043700 3.566500
13.061000 3.185700
13.078300 3.221200
13.095500 3.236600
13.112800 3.248300
13.130100 3.260600
13.147400 3.263000
13.164700 3.261000
13.182000 3.259600
13.199300 3.256900
13.216500 3.259800
13.233800 3.267900
13.251100 3.280700
13.268400 3.292400
13.285700 3.303000
13.303000 3.312900
13.320300 3.322300
13.337600 3.332600
13.354800 3.346600
13.372100 3.364000
13.389400 3.384700
13.406700 3.409000
13.424000 3.436100
13.441300 3.546500
13.458600 3.608500
13.475800 3.608000
13.493100 3.578800
13.510400 3.636800
13.527700 3.379000
13.545000 3.275200
13.562300 3.292300
13.579600 3.379900
13.596800 3.475600
13.614100 3.573700
13.631400 3.612100
13.648700 3.772300
13.666000 3.882100
13.683300 3.815100
13.700600 3.872100
13.717900 3.908700
13.735100 3.924300
13.752400 3.926100
13.769700 3.885400
13.787000 3.842300
13.804300 3.806000
13.821600 3.763200
13.838900 3.649900
13.856100 3.613900
13.873400 3.577100
13.890700 3.535700
13.908000 3.485800
13.925300 3.448100
13.942600 3.438300
13.959900 3.515000
13.977100 3.933600
13.994400 3.404500
14.011700 3.336000
14.029000 3.319400
14.046300 3.300000
14.063600 3.299700
14.080900 3.283900
14.098200 3.259300
14.115400 3.229600
14.132700 3.196800
14.150000 3.166100
14.167300 3.139900
14.184600 3.117600
14.201900 3.098700
14.219200 3.084400
14.236400 3.077500
14.253700 3.069000
14.271000 3.099200
14.288300 3.159200
14.305600 3.236700
14.322900 3.320700
14.340200 3.404000
14.357400 3.486400
14.374700 3.577000
14.392000 3.655300
14.409300 3.740200
14.426600 3.778100
14.443900 3.820600
14.461200 3.855400
14.478500 3.804100
14.495700 3.730000
14.513000 3.634700
14.530300 3.686300
14.547600 3.674300
14.564900 3.412900
14.582200 3.358900
14.599500 3.312100
14.616700 3.301600
14.634000 3.316800
14.651300 3.334800
14.668600 3.356400
14.685900 3.390700
14.703200 3.414000
14.720500 3.404400
14.737700 3.392500
14.755000 3.381500
14.772300 3.376000
14.789600 3.372500
14.806900 3.370300
14.824200 3.368700
14.841500 3.405800
14.858700 3.443300
14.876000 3.468200
14.893300 3.486600
14.910600 3.554800
14.927900 3.752800
14.945200 3.652500
14.962500 3.741600
14.979800 3.817100
14.997000 3.874800
15.014300 3.879400
15.031600 3.817100
15.048900 3.829600
15.066200 3.835600
15.083500 3.856600
15.100800 3.956700
15.118000 4.026400
15.135300 3.967100
15.152600 3.901600
15.169900 3.836900
15.187200 3.808000
15.204500 3.847800
15.221800 3.951500
15.239000 4.298200
15.256300 4.599100
15.273600 4.530900
15.290900 4.254400
15.308200 3.910600
15.325500 3.688900
15.342800 3.711000
15.360100 3.784900
15.377300 3.976300
15.394600 4.555900
15.411900 4.246600
15.429200 4.463600
15.446500 4.711400
15.463800 4.982200
15.481100 5.257400
15.498300 5.325500
15.515600 5.786900
15.532900 5.948200
15.550200 5.703800
15.567500 5.181700
15.584800 4.980600
15.602100 4.942500
15.619300 4.944200
15.636600 5.043900
15.653900 4.893900
15.671200 5.501100
15.688500 5.455300
15.705800 5.383700
15.723100 5.298500
15.740400 4.511400
15.757600 4.371200
15.774900 4.288200
15.792200 4.281200
15.809500 4.283500
15.826800 4.292200
15.844100 4.307400
15.861400 4.331200
15.878600 4.397300
15.895900 4.944100
15.913200 5.459700
15.930500 5.316900
15.947800 5.193400
15.965100 5.100900
15.982400 5.308300
15.999600 5.207600
16.016900 4.833800
16.034200 4.556200
16.051500 4.583500
16.068800 4.854600
16.086100 4.757900
16.103400 4.643400
16.120700 4.513400
16.137900 4.374100
16.155200 4.227300
16.172500 4.066400
16.189800 3.920600
16.207100 3.779800
16.224400 3.528500
16.241700 3.406100
16.258900 3.413300
16.276200 3.495700
16.293500 3.555500
16.310800 3.696700
16.328100 3.686400
16.345400 3.746500
16.362700 3.684300
16.379900 3.270200
16.397200 3.203000
16.414500 3.186800
16.431800 3.356400
16.449100 3.526000
16.466400 3.784000
16.483700 3.948900
16.501000 4.100500
16.518200 4.507700
16.535500 3.693900
16.552800 3.270800
16.570100 3.077400
16.587400 3.013700
16.604700 2.962000
16.622000 2.923500
16.639200 2.898300
16.656500 2.885000
16.673800 2.881800
16.691100 2.884500
16.708400 2.893200
16.725700 2.907800
16.743000 2.943700
16.760200 3.075100
16.777500 3.428800
16.794800 3.319100
16.812100 3.258600
16.829400 3.269500
16.846700 3.364200
16.864000 3.481700
16.881300 3.512200
16.898500 3.512400
16.915800 3.771100
16.933100 3.594300
16.950400 3.444900
16.967700 3.338500
16.985000 3.245200
17.002300 3.153300
17.019500 3.130900
17.036800 3.136800
17.054100 3.155900
17.071400 3.184900
17.088700 3.340800
17.106000 3.257400
17.123300 3.198900
17.140500 3.187300
17.157800 3.228000
17.175100 3.285600
17.192400 3.351000
17.209700 3.436000
17.227000 3.530900
17.244300 3.626400
17.261600 3.712900
17.278800 3.735400
17.296100 3.710700
17.313400 3.286200
17.330700 3.111200
17.348000 3.199900
17.365300 3.367700
17.382600 3.548700
17.399800 3.781700
17.417100 4.074400
17.434400 5.025200
17.451700 3.581500
17.469000 3.050500
17.486300 2.858500
17.503600 2.700000
17.520800 2.575900
17.538100 2.487500
17.555400 2.429300
17.572700 2.391600
17.590000 2.372200
17.607300 2.370500
17.624600 2.500100
17.641900 2.582800
17.659100 2.727500
17.676400 2.915600
17.693700 3.001300
17.711000 3.111000
17.728300 3.294300
17.745600 3.518600
17.762900 3.752900
17.780100 4.003700
17.797400 4.241300
17.814700 4.400000
17.832000 4.572300
17.849300 4.947900
17.866600 5.257800
17.883900 5.533800
17.901100 5.186700
17.918400 4.970700
17.935700 4.784300
17.953000 4.663400
17.970300 4.610500
17.987600 4.549700
18.004900 4.508500
18.022200 4.490300
18.039400 4.508300
18.056700 4.538000
18.074000 4.572600
18.091300 4.598900
18.108600 4.615900
18.125900 4.631700
18.143200 4.650500
18.160400 4.662700
18.177700 4.683600
18.195000 4.618700
18.212300 4.559400
18.229600 4.510700
18.246900 4.462700
18.264200 4.430000
18.281400 4.414700
18.298700 4.400600
18.316000 4.518000
18.333300 4.848800
18.350600 5.235100
18.367900 5.240100
18.385200 6.795200
18.402400 5.320000
18.419700 4.854000
18.437000 4.504500
18.454300 4.298900
18.471600 4.373000
18.488900 4.393500
18.506200 4.454400
18.523500 4.513200
18.540700 5.035300
18.558000 5.598300
18.575300 5.369900
18.592600 5.131800
18.609900 4.950000
18.627200 4.782800
18.644500 4.591300
18.661700 4.377100
18.679000 4.145400
18.696300 3.959700
18.713600 3.833000
18.730900 3.761900
18.748200 3.808400
18.765500 3.745000
18.782700 3.735400
18.800000 3.759200
18.817300 3.845700
18.834600 3.971600
18.851900 4.156200
18.869200 4.354300
18.886500 4.423300
18.903800 4.397400
18.921000 4.466600
18.938300 4.590800
18.955600 4.744700
18.972900 4.965300
18.990200 6.002700
19.007500 5.951200
19.024800 5.641000
19.042000 5.529300
19.059300 5.616200
19.076600 5.957000
19.093900 5.791600
19.111200 5.534700
19.128500 5.490900
19.145800 5.459800
19.163000 5.500400
19.180300 5.560800
19.197600 5.688400
19.214900 5.769100
19.232200 5.716900
19.249500 5.630100
19.266800 5.559700
19.284100 5.911300
19.301300 5.736500
19.318600 5.547000
19.335900 5.496800
19.353200 5.453500
19.370500 5.450200
19.387800 5.503700
19.405100 5.549000
19.422300 5.567500
19.439600 5.660900
19.456900 5.792400
19.474200 5.971000
19.491500 6.225800
19.508800 6.466700
19.526100 6.692900
19.543300 6.878400
19.560600 6.651400
19.577900 6.397100
19.595200 6.169900
19.612500 6.066300
19.629800 6.034900
19.647100 5.901100
19.664400 5.675300
19.681600 5.489000
19.698900 5.353700
19.716200 5.289900
19.733500 5.252400
19.750800 5.303500
19.768100 5.329600
19.785400 5.355400
19.802600 5.344500
19.819900 5.279000
19.837200 5.233100
19.854500 5.260000
19.871800 5.407400
19.889100 5.668300
19.906400 5.900500
19.923600 6.634800
19.940900 6.124400
19.958200 5.789800
19.975500 5.728100
19.992800 5.630500
20.010100 5.511800
20.027400 5.427500
20.044700 5.399900
20.061900 5.385400
20.079200 5.364200
20.096500 5.353300
20.113800 5.375900
20.131100 5.439900
20.148400 5.438800
20.165700 5.408200
20.182900 5.432700
20.200200 5.498400
20.217500 5.488000
20.234800 5.365600
20.252100 5.250800
20.269400 5.143100
20.286700 5.041800
20.303900 4.956600
20.321200 4.948400
20.338500 4.969300
20.355800 4.981200
20.373100 4.994600
20.390400 5.040800
20.407700 5.094700
20.425000 5.151600
20.442200 5.140100
20.459500 5.058900
20.476800 5.069300
20.494100 5.148300
20.511400 5.253500
20.528700 5.372900
20.546000 5.576800
20.563200 5.695700
20.580500 5.658300
20.597800 5.651900
20.615100 5.699900
20.632400 5.747500
20.649700 5.775200
20.667000 5.786200
20.684200 5.775800
20.701500 6.010500
20.718800 5.733700
20.736100 5.540700
20.753400 5.424200
20.770700 5.413200
20.788000 5.429000
20.805300 5.471100
20.822500 5.509000
20.839800 5.528500
20.857100 5.546200
20.874400 5.574500
20.891700 5.649000
20.909000 5.685100
20.926300 5.690600
20.943500 5.693200
20.960800 5.692800
20.978100 5.686900
20.995400 5.687200
21.012700 5.720800
21.030000 5.804600
21.047300 5.848800
21.064500 5.852800
21.081800 5.904500
21.099100 5.969400
21.116400 6.050100
21.133700 6.306000
21.151000 6.213500
21.168300 6.003600
21.185600 5.809000
21.202800 5.784600
21.220100 5.831600
21.237400 5.853800
21.254700 5.980100
21.272000 6.047700
21.289300 6.152200
21.306600 6.062200
21.323800 5.900500
21.341100 5.854300
21.358400 5.806500
21.375700 5.752600
21.393000 5.696700
21.410300 5.643500
21.427600 5.593400
21.444800 5.544800
21.462100 5.509100
21.479400 5.499300
21.496700 5.506600
21.514000 5.506900
21.531300 5.505200
21.548600 5.520900
21.565900 5.588900
21.583100 5.654200
21.600400 5.728800
21.617700 5.792700
21.635000 5.833300
21.652300 5.865400
21.669600 5.895500
21.686900 5.952000
21.704100 6.008200
21.721400 5.945200
21.738700 5.864600
21.756000 5.846100
21.773300 5.845800
21.790600 5.825400
21.807900 5.731500
21.825100 5.598700
21.842400 5.412400
21.859700 5.374800
21.877000 5.485100
21.894300 5.459200
21.911600 5.419000
21.928900 5.352300
21.946100 5.297300
21.963400 5.261800
21.980700 5.299600
21.998000 5.446000
22.015300 5.454800
22.032600 5.331000
22.049900 5.300000
22.067200 5.264300
22.084400 5.486800
22.101700 5.249700
22.119000 5.279100
22.136300 5.336100
22.153600 5.400100
22.170900 5.464200
22.188200 5.515100
22.205400 5.551200
22.222700 5.598900
22.240000 5.697300
22.257300 5.792000
22.274600 5.798600
22.291900 5.924200
22.309200 6.067700
22.326400 5.844600
22.343700 6.268900
22.361000 6.606000
22.378300 6.166300
22.395600 6.176400
22.412900 6.049500
22.430200 6.054400
22.447500 6.110400
22.464700 6.100700
22.482000 6.003800
22.499300 5.906000
22.516600 5.799100
22.533900 5.694600
22.551200 5.634300
22.568500 5.559100
22.585700 5.466000
22.603000 5.370600
22.620300 5.285200
22.637600 5.206700
22.654900 5.131200
22.672200 5.068300
22.689500 5.080800
22.706700 5.114900
22.724000 5.129200
22.741300 5.206700
22.758600 5.293000
22.775900 5.347400
22.793200 5.393400
22.810500 5.424600
22.827800 5.412200
22.845000 5.348800
22.862300 5.329100
22.879600 5.310200
22.896900 5.258900
22.914200 4.898800
22.931500 4.740100
22.948800 4.566600
22.966000 4.304500
22.983300 4.173700
23.000600 3.798200
23.017900 3.604000
23.035200 3.540100
23.052500 3.505100
23.069800 3.489700
23.087000 3.485500
23.104300 3.490200
23.121600 3.621900
23.138900 3.734100
23.156200 3.770000
23.173500 3.769800
23.190800 3.771100
23.208100 3.785100
23.225300 3.804500
23.242600 3.834300
23.259900 3.869000
23.277200 3.917100
23.294500 3.957900
23.311800 3.979500
23.329100 3.988100
23.346300 4.093600
23.363600 4.111400
23.380900 4.056700
23.398200 3.942400
23.415500 3.812100
23.432800 3.723800
23.450100 3.680000
23.467300 3.656600
23.484600 3.629700
23.501900 3.597800
23.519200 3.555700
23.536500 3.546800
23.553800 3.571000
23.571100 3.588000
23.588400 3.537800
23.605600 3.250200
23.622900 3.048000
23.640200 2.879800
23.657500 2.746100
23.674800 2.688100
23.692100 2.640200
23.709400 2.602100
23.726600 2.568800
23.743900 2.530300
23.761200 2.485700
23.778500 2.435900
23.795800 2.380900
23.813100 2.313900
23.830400 2.230400
23.847600 2.148000
23.864900 2.066700
23.882200 1.983500
23.899500 1.904600
23.916800 1.832800
23.934100 1.774000
23.951400 1.732200
23.968700 1.692300
23.985900 1.654500
24.003200 1.620300
24.020500 1.589500
24.037800 1.562200
24.055100 1.543300
24.072400 1.529100
24.089700 1.515100
24.106900 1.511500
24.124200 1.548200
24.141500 1.615300
24.158800 1.623900
24.176100 1.568300
24.193400 1.414900
24.210700 1.234400
24.227900 1.115900
24.245200 1.006300
24.262500 0.908100
24.279800 0.828400
24.297100 0.742600
24.314400 0.658000
24.331700 0.602900
24.349000 0.570500
24.366200 0.559200
24.383500 0.560800
24.400800 0.565600
24.418100 0.570000
24.435400 0.573900
24.452700 0.577300
24.470000 0.580200
24.487200 0.582500
24.504500 0.584500
24.521800 0.586400
24.539100 0.588600
24.556400 0.590900
24.573700 0.593400
24.591000 0.591300
24.608200 0.586800
24.625500 0.589300
24.642800 0.602400
24.660100 0.626200
24.677400 0.639200
24.694700 0.617200
24.712000 0.560100
24.729300 0.467900
24.746500 0.350500
24.763800 0.248700
24.781100 0.122800
24.798400 0.059900
24.815700 0.035300
24.833000 0.018200
24.850300 0.008300
24.867500 0.002300
24.884800 0.000000
24.902100 0.000000
24.919400 0.000000
24.936700 0.000000
24.954000 0.000000
24.971300 0.000000
24.988500 0.000000
25.005800 0.000000
25.023100 0.000000
25.040400 0.000000
25.057700 0.000000
25.075000 0.000000
25.092300 0.000000
25.109500 0.000000
25.126800 0.000000
25.144100 0.000000
25.161400 0.000000
25.178700 0.000000
25.196000 0.000000
25.213300 0.000000
25.230600 0.000000
25.247800 0.000000
25.265100 0.000000
25.282400 0.000000
25.299700 0.000000
25.317000 0.000000
25.334300 0.000000
25.351600 0.000000
25.368800 0.000000
25.386100 0.000000
25.403400 0.000000
25.420700 0.000000
25.438000 0.000000
25.455300 0.000000
25.472600 0.000000
25.489800 0.000000
25.507100 0.000000
25.524400 0.000000
25.541700 0.000000
25.559000 0.000000
25.576300 0.000000
25.593600 0.000000
25.610900 0.000000
25.628100 0.000000
25.645400 0.000000
25.662700 0.000000
25.680000 0.000000
25.697300 0.000000
25.714600 0.000000
25.731900 0.000000
25.749100 0.000000
25.766400 0.000000
25.783700 0.000000
25.801000 0.000000
25.818300 0.000000
25.835600 0.000000
25.852900 0.000000
25.870100 0.000000
25.887400 0.000000
25.904700 0.000000
25.922000 0.000000
25.939300 0.000000
25.956600 0.000000
25.973900 0.000000
25.991200 0.000000
26.008400 0.000000
26.025700 0.000000
26.043000 0.000000
26.060300 0.000000
26.077600 0.000000
26.094900 0.000000
26.112200 0.000000
26.129400 0.000000
26.146700 0.000000
26.164000 0.000000
26.181300 0.000000
26.198600 0.000000
26.215900 0.000000
26.233200 0.000000
26.250400 0.000000
26.267700 0.000000
26.285000 0.000000
26.302300 0.000000
26.319600 0.000000
26.336900 0.000000
26.354200 0.000000
26.371500 0.000000
26.388700 0.000000
26.406000 0.000000
26.423300 0.000000
26.440600 0.000000
26.457900 0.000000
e
