set title 'mp-1229101 - Density of States'
set xlabel 'Energy (eV)'
set ylabel 'DOS (states/eV)'
set grid
set xrange [-10:10]
set yrange [0:24.915]
set xzeroaxis lt -1
set terminal png size 800,600
set output 'mp-1229101_dos_gnuplot.png'
plot '-' using 1:2 with lines title 'DOS'
-10.272500 0.000000
-10.249700 0.000000
-10.226900 0.000000
-10.204100 0.000000
-10.181300 0.000000
-10.158500 0.000000
-10.135800 0.000000
-10.113000 0.000000
-10.090200 0.000000
-10.067400 0.000000
-10.044600 0.000000
-10.021800 0.000000
-9.999000 0.000000
-9.976200 0.000000
-9.953400 0.000000
-9.930700 0.000000
-9.907900 0.000000
-9.885100 0.000000
-9.862300 0.000000
-9.839500 0.000000
-9.816700 0.000000
-9.793900 0.000000
-9.771100 0.000000
-9.748300 0.000000
-9.725500 0.000000
-9.702800 0.000000
-9.680000 0.000000
-9.657200 0.000000
-9.634400 0.000000
-9.611600 0.000000
-9.588800 0.000000
-9.566000 0.000000
-9.543200 0.000000
-9.520400 0.000000
-9.497700 0.000000
-9.474900 0.000000
-9.452100 0.000000
-9.429300 0.000000
-9.406500 0.000000
-9.383700 0.000000
-9.360900 0.000000
-9.338100 0.000000
-9.315300 0.000000
-9.292600 0.000000
-9.269800 0.000000
-9.247000 0.000000
-9.224200 0.000000
-9.201400 0.000000
-9.178600 0.000000
-9.155800 0.000000
-9.133000 0.000000
-9.110200 0.000000
-9.087500 0.000000
-9.064700 0.000000
-9.041900 0.000000
-9.019100 0.000000
-8.996300 0.000000
-8.973500 0.000000
-8.950700 0.000000
-8.927900 0.000000
-8.905100 0.000000
-8.882300 0.000000
-8.859600 0.000000
-8.836800 0.000000
-8.814000 0.000000
-8.791200 0.000000
-8.768400 0.000000
-8.745600 0.000000
-8.722800 0.000000
-8.700000 0.000000
-8.677200 0.000000
-8.654500 0.000000
-8.631700 0.000000
-8.608900 0.000000
-8.586100 0.000000
-8.563300 0.000000
-8.540500 0.000000
-8.517700 0.000000
-8.494900 0.000000
-8.472100 0.000000
-8.449400 0.000000
-8.426600 0.000000
-8.403800 0.000000
-8.381000 0.000000
-8.358200 0.000000
-8.335400 0.000000
-8.312600 0.000000
-8.289800 0.000000
-8.267000 0.000000
-8.244200 0.000000
-8.221500 0.000000
-8.198700 0.001400
-8.175900 0.201000
-8.153100 0.401500
-8.130300 0.547300
-8.107500 0.726500
-8.084700 0.814500
-8.061900 0.935100
-8.039100 1.070700
-8.016400 1.223600
-7.993600 1.373700
-7.970800 1.521600
-7.948000 1.705600
-7.925200 1.906100
-7.902400 2.135500
-7.879600 2.430100
-7.856800 2.776700
-7.834000 3.167100
-7.811300 3.629400
-7.788500 4.533200
-7.765700 6.306000
-7.742900 6.869300
-7.720100 7.681500
-7.697300 8.031000
-7.674500 8.517300
-7.651700 9.739800
-7.628900 5.141800
-7.606200 2.233500
-7.583400 0.000000
-7.560600 0.000000
-7.537800 0.000000
-7.515000 0.000000
-7.492200 0.000000
-7.469400 0.000000
-7.446600 0.000000
-7.423800 0.000000
-7.401000 0.000000
-7.378300 0.000000
-7.355500 0.000000
-7.332700 0.000000
-7.309900 0.000000
-7.287100 0.000000
-7.264300 0.000000
-7.241500 0.000000
-7.218700 0.000000
-7.195900 0.000000
-7.173200 0.000000
-7.150400 0.000000
-7.127600 0.000000
-7.104800 0.000000
-7.082000 0.000000
-7.059200 0.000000
-7.036400 0.000000
-7.013600 0.000000
-6.990800 0.000000
-6.968100 0.000000
-6.945300 0.000000
-6.922500 0.000000
-6.899700 0.000000
-6.876900 0.000000
-6.854100 0.000000
-6.831300 0.000000
-6.808500 0.000000
-6.785700 0.000000
-6.763000 0.000000
-6.740200 0.000000
-6.717400 0.000000
-6.694600 0.000000
-6.671800 0.000000
-6.649000 0.000000
-6.626200 0.000000
-6.603400 0.000000
-6.580600 0.000000
-6.557800 0.000000
-6.535100 0.000000
-6.512300 0.000000
-6.489500 0.000000
-6.466700 0.000000
-6.443900 0.000000
-6.421100 0.000000
-6.398300 0.000000
-6.375500 0.000000
-6.352700 0.000000
-6.330000 0.000000
-6.307200 0.000000
-6.284400 0.000000
-6.261600 0.000000
-6.238800 0.000000
-6.216000 0.000000
-6.193200 0.000000
-6.170400 0.000000
-6.147600 0.000000
-6.124900 0.000000
-6.102100 0.000000
-6.079300 0.000000
-6.056500 0.000000
-6.033700 0.000000
-6.010900 0.000000
-5.988100 0.000000
-5.965300 0.000000
-5.942500 0.000000
-5.919800 0.000000
-5.897000 0.000000
-5.874200 0.000000
-5.851400 0.000000
-5.828600 0.000000
-5.805800 0.000000
-5.783000 0.000000
-5.760200 0.000000
-5.737400 0.000000
-5.714600 0.000000
-5.691900 0.000000
-5.669100 0.000000
-5.646300 0.000000
-5.623500 0.000000
-5.600700 0.000000
-5.577900 0.000000
-5.555100 0.000000
-5.532300 0.000000
-5.509500 0.000000
-5.486800 0.000000
-5.464000 0.000000
-5.441200 0.000000
-5.418400 0.000000
-5.395600 0.000000
-5.372800 0.000000
-5.350000 0.000000
-5.327200 0.000000
-5.304400 0.000000
-5.281700 0.000000
-5.258900 0.000000
-5.236100 0.000000
-5.213300 0.000000
-5.190500 0.000000
-5.167700 0.000000
-5.144900 0.000000
-5.122100 0.000000
-5.099300 0.000000
-5.076500 0.000000
-5.053800 0.000000
-5.031000 0.000000
-5.008200 0.000000
-4.985400 0.000000
-4.962600 0.000000
-4.939800 0.000000
-4.917000 0.000000
-4.894200 0.000000
-4.871400 0.000000
-4.848700 0.000000
-4.825900 0.000000
-4.803100 0.000000
-4.780300 0.000000
-4.757500 0.000000
-4.734700 0.000000
-4.711900 0.000000
-4.689100 0.000000
-4.666300 0.000000
-4.643600 0.000000
-4.620800 0.000000
-4.598000 0.000000
-4.575200 0.000000
-4.552400 0.000000
-4.529600 0.000000
-4.506800 0.000000
-4.484000 0.000000
-4.461200 0.000000
-4.438500 0.000000
-4.415700 0.000000
-4.392900 0.000000
-4.370100 0.000000
-4.347300 0.000000
-4.324500 0.000000
-4.301700 0.000000
-4.278900 0.000000
-4.256100 0.000000
-4.233300 0.000000
-4.210600 0.000000
-4.187800 0.000000
-4.165000 0.000000
-4.142200 0.000000
-4.119400 0.000000
-4.096600 0.000000
-4.073800 0.000000
-4.051000 0.000000
-4.028200 0.000000
-4.005500 0.000000
-3.982700 0.000000
-3.959900 0.000000
-3.937100 0.000000
-3.914300 0.000000
-3.891500 0.000000
-3.868700 0.000000
-3.845900 0.000000
-3.823100 0.000000
-3.800400 0.000000
-3.777600 0.000000
-3.754800 0.000000
-3.732000 0.000000
-3.709200 0.000000
-3.686400 0.000000
-3.663600 0.000000
-3.640800 0.000000
-3.618000 0.000000
-3.595300 0.000000
-3.572500 0.000000
-3.549700 0.000000
-3.526900 0.000000
-3.504100 0.000000
-3.481300 0.000000
-3.458500 0.000000
-3.435700 0.000000
-3.412900 0.000000
-3.390100 0.000000
-3.367400 0.000000
-3.344600 0.000000
-3.321800 0.000000
-3.299000 0.000000
-3.276200 0.000000
-3.253400 0.000000
-3.230600 0.000000
-3.207800 0.000000
-3.185000 0.000000
-3.162300 0.000000
-3.139500 0.000000
-3.116700 0.000000
-3.093900 0.000000
-3.071100 0.000000
-3.048300 0.000000
-3.025500 0.000000
-3.002700 0.000000
-2.979900 0.000000
-2.957200 0.000000
-2.934400 0.000000
-2.911600 0.000000
-2.888800 0.000000
-2.866000 0.000000
-2.843200 0.000000
-2.820400 0.000000
-2.797600 0.000000
-2.774800 0.000000
-2.752100 0.000000
-2.729300 0.000000
-2.706500 0.000000
-2.683700 0.000000
-2.660900 0.000000
-2.638100 0.000000
-2.615300 0.000000
-2.592500 0.000000
-2.569700 0.000000
-2.546900 0.000000
-2.524200 0.000000
-2.501400 0.000000
-2.478600 0.000000
-2.455800 0.000000
-2.433000 0.000000
-2.410200 0.000000
-2.387400 0.000000
-2.364600 0.000000
-2.341800 0.000000
-2.319100 0.000000
-2.296300 0.000000
-2.273500 0.000000
-2.250700 0.000000
-2.227900 0.000000
-2.205100 0.000000
-2.182300 0.122400
-2.159500 0.437100
-2.136700 0.657700
-2.114000 0.729300
-2.091200 0.868600
-2.068400 1.083100
-2.045600 1.148900
-2.022800 1.294300
-2.000000 1.433600
-1.977200 1.577400
-1.954400 1.727600
-1.931600 1.941800
-1.908800 2.429500
-1.886100 2.880100
-1.863300 3.139900
-1.840500 3.603100
-1.817700 4.109100
-1.794900 4.544600
-1.772100 4.857200
-1.749300 5.430400
-1.726500 5.356700
-1.703700 4.875700
-1.681000 4.944000
-1.658200 5.130400
-1.635400 5.571900
-1.612600 5.852400
-1.589800 6.780800
-1.567000 7.567500
-1.544200 6.852800
-1.521400 6.114400
-1.498600 5.757300
-1.475900 5.633300
-1.453100 5.538600
-1.430300 11.861400
-1.407500 11.580600
-1.384700 10.403700
-1.361900 9.825900
-1.339100 8.767700
-1.316300 8.381400
-1.293500 8.627200
-1.270800 9.352500
-1.248000 8.835200
-1.225200 8.682200
-1.202400 8.299700
-1.179600 6.776900
-1.156800 5.763000
-1.134000 5.296100
-1.111200 4.504200
-1.088400 4.416700
-1.065600 4.362900
-1.042900 4.980700
-1.020100 5.695500
-0.997300 5.842400
-0.974500 5.104100
-0.951700 6.248400
-0.928900 6.678800
-0.906100 7.434900
-0.883300 8.294900
-0.860500 8.418400
-0.837800 8.695500
-0.815000 8.860500
-0.792200 8.102600
-0.769400 7.791000
-0.746600 7.673500
-0.723800 7.842000
-0.701000 12.148500
-0.678200 15.056100
-0.655400 18.069100
-0.632700 14.817700
-0.609900 9.831700
-0.587100 5.330800
-0.564300 4.851500
-0.541500 10.335000
-0.518700 15.702700
-0.495900 15.430000
-0.473100 12.627800
-0.450300 17.392700
-0.427600 19.175000
-0.404800 17.682000
-0.382000 17.273400
-0.359200 17.949200
-0.336400 19.460800
-0.313600 20.040400
-0.290800 21.006100
-0.268000 22.650000
-0.245200 19.170800
-0.222400 17.982800
-0.199700 17.535500
-0.176900 18.090800
-0.154100 17.859800
-0.131300 16.787600
-0.108500 14.840400
-0.085700 14.828900
-0.062900 11.783700
-0.040100 9.697900
-0.017300 6.034300
0.005400 5.153900
0.028200 4.923500
0.051000 4.814000
0.073800 4.734600
0.096600 4.657700
0.119400 4.632400
0.142200 4.751600
0.165000 4.797800
0.187800 4.390900
0.210500 3.904800
0.233300 3.765500
0.256100 3.716500
0.278900 3.647300
0.301700 3.474800
0.324500 2.863400
0.347300 2.251600
0.370100 1.903800
0.392900 1.736200
0.415700 1.734100
0.438400 1.762500
0.461200 1.733800
0.484000 1.706100
0.506800 1.680200
0.529600 1.652800
0.552400 1.624500
0.575200 1.609000
0.598000 1.601900
0.620800 1.704900
0.643500 1.814800
0.666300 1.945100
0.689100 2.058700
0.711900 2.530700
0.734700 1.619100
0.757500 1.392300
0.780300 1.259300
0.803100 1.212100
0.825900 1.242100
0.848600 1.317800
0.871400 1.477800
0.894200 1.590800
0.917000 1.631100
0.939800 1.653600
0.962600 1.693200
0.985400 1.725900
1.008200 1.747300
1.031000 1.771400
1.053700 1.775300
1.076500 1.755900
1.099300 1.781300
1.122100 1.803000
1.144900 1.820800
1.167700 1.835800
1.190500 1.879300
1.213300 1.935600
1.236100 1.915700
1.258900 1.946100
1.281600 1.947500
1.304400 1.940000
1.327200 2.037100
1.350000 2.126300
1.372800 2.175400
1.395600 2.234800
1.418400 2.115300
1.441200 2.153600
1.464000 2.198800
1.486700 2.233700
1.509500 2.259800
1.532300 2.295700
1.555100 2.401300
1.577900 2.323600
1.600700 2.315200
1.623500 2.287800
1.646300 2.235100
1.669100 2.214500
1.691800 2.200400
1.714600 2.197600
1.737400 2.169100
1.760200 2.169600
1.783000 2.174300
1.805800 2.168500
1.828600 2.146000
1.851400 2.109100
1.874200 2.075000
1.896900 2.063200
1.919700 2.053600
1.942500 2.042600
1.965300 2.022800
1.988100 2.011300
2.010900 1.998800
2.033700 1.981000
2.056500 1.961100
2.079300 1.929400
2.102100 1.918100
2.124800 1.907800
2.147600 1.898900
2.170400 1.891300
2.193200 1.891800
2.216000 1.892400
2.238800 1.886100
2.261600 1.877100
2.284400 1.871800
2.307200 1.869100
2.329900 1.863800
2.352700 1.853700
2.375500 1.840200
2.398300 1.827100
2.421100 1.813800
2.443900 1.806200
2.466700 1.806200
2.489500 1.805200
2.512300 1.801500
2.535000 1.795600
2.557800 1.788500
2.580600 1.784500
2.603400 1.789000
2.626200 1.798200
2.649000 1.775700
2.671800 1.783200
2.694600 1.794400
2.717400 1.789300
2.740100 1.768900
2.762900 1.741700
2.785700 1.712900
2.808500 1.684700
2.831300 1.658100
2.854100 1.633800
2.876900 1.608200
2.899700 1.578600
2.922500 1.546700
2.945300 1.515900
2.968000 1.487700
2.990800 1.454500
3.013600 1.405900
3.036400 1.347900
3.059200 1.289200
3.082000 1.229700
3.104800 1.169400
3.127600 1.097500
3.150400 1.025400
3.173100 0.956600
3.195900 0.900200
3.218700 0.857700
3.241500 0.821400
3.264300 0.785100
3.287100 0.747700
3.309900 0.705900
3.332700 0.660500
3.355500 0.618400
3.378200 0.587400
3.401000 0.550400
3.423800 0.512700
3.446600 0.474600
3.469400 0.437200
3.492200 0.400900
3.515000 0.365500
3.537800 0.331200
3.560600 0.300300
3.583400 0.274200
3.606100 0.224100
3.628900 0.187800
3.651700 0.165200
3.674500 0.165400
3.697300 0.170100
3.720100 0.131000
3.742900 0.091500
3.765700 0.000000
3.788500 0.000000
3.811200 0.000000
3.834000 0.000000
3.856800 0.000000
3.879600 0.000200
3.902400 0.003300
3.925200 0.007700
3.948000 0.013400
3.970800 0.020400
3.993600 0.029200
4.016300 0.042500
4.039100 0.060700
4.061900 0.083800
4.084700 0.111800
4.107500 0.123400
4.130300 0.140100
4.153100 0.159600
4.175900 0.181700
4.198700 0.206700
4.221400 0.234400
4.244200 0.263900
4.267000 0.289500
4.289800 0.314900
4.312600 0.341400
4.335400 0.371800
4.358200 0.403300
4.381000 0.436000
4.403800 0.472700
4.426600 0.517600
4.449300 0.577700
4.472100 0.593300
4.494900 0.601700
4.517700 0.631400
4.540500 0.666800
4.563300 0.693100
4.586100 0.712900
4.608900 0.739000
4.631700 0.761100
4.654400 0.793600
4.677200 0.799100
4.700000 0.794200
4.722800 0.795100
4.745600 0.812300
4.768400 0.829100
4.791200 0.846000
4.814000 0.867200
4.836800 0.889800
4.859500 0.913700
4.882300 0.938800
4.905100 0.965200
4.927900 0.992800
4.950700 1.046000
4.973500 1.120100
4.996300 1.217200
5.019100 1.271800
5.041900 1.302200
5.064600 1.333400
5.087400 1.360300
5.110200 1.382300
5.133000 1.451000
5.155800 1.449000
5.178600 1.575100
5.201400 1.418800
5.224200 1.325200
5.247000 1.291600
5.269800 1.276400
5.292500 1.222900
5.315300 1.217700
5.338100 1.216500
5.360900 1.215800
5.383700 1.269700
5.406500 1.275900
5.429300 1.322100
5.452100 1.378200
5.474900 1.440600
5.497600 1.514300
5.520400 1.626900
5.543200 1.773200
5.566000 1.762600
5.588800 1.815000
5.611600 1.814600
5.634400 1.767300
5.657200 1.691000
5.680000 1.614400
5.702700 1.587100
5.725500 1.458900
5.748300 1.381000
5.771100 1.298300
5.793900 1.234200
5.816700 1.219700
5.839500 1.232200
5.862300 1.247900
5.885100 1.241400
5.907800 1.215800
5.930600 1.193700
5.953400 1.189100
5.976200 1.235500
5.999000 1.291400
6.021800 1.120400
6.044600 1.048700
6.067400 1.016300
6.090200 1.002900
6.113000 0.996100
6.135700 0.996800
6.158500 1.000900
6.181300 1.013800
6.204100 1.060900
6.226900 1.071300
6.249700 1.087600
6.272500 1.104900
6.295300 1.086900
6.318100 1.086500
6.340800 1.096400
6.363600 1.113700
6.386400 1.024900
6.409200 1.024700
6.432000 1.024500
6.454800 1.024400
6.477600 1.024700
6.500400 1.024500
6.523200 1.024600
6.545900 1.022500
6.568700 1.040500
6.591500 1.007900
6.614300 0.977100
6.637100 0.953000
6.659900 0.977700
6.682700 0.980400
6.705500 0.989000
6.728300 1.002800
6.751100 1.019200
6.773800 1.065200
6.796600 1.103000
6.819400 1.106300
6.842200 1.113100
6.865000 1.123100
6.887800 1.140100
6.910600 1.150300
6.933400 1.183400
6.956200 1.224900
6.978900 1.269300
7.001700 1.327800
7.024500 1.400000
7.047300 1.454100
7.070100 1.535300
7.092900 1.613500
7.115700 1.631300
7.138500 1.672200
7.161300 1.721200
7.184000 1.779800
7.206800 1.845500
7.229600 1.968100
7.252400 2.076500
7.275200 2.030100
7.298000 2.065800
7.320800 2.329700
7.343600 2.256700
7.366400 2.134700
7.389100 2.123400
7.411900 1.966100
7.434700 1.819400
7.457500 1.787000
7.480300 1.778700
7.503100 1.916200
7.525900 1.763400
7.548700 1.739500
7.571500 1.734600
7.594300 1.723400
7.617000 1.699400
7.639800 1.682600
7.662600 1.688300
7.685400 1.716900
7.708200 1.761200
7.731000 1.828900
7.753800 1.877500
7.776600 1.975800
7.799400 2.100100
7.822100 2.290700
7.844900 2.458900
7.867700 2.656700
7.890500 2.800500
7.913300 2.907200
7.936100 2.931100
7.958900 2.823700
7.981700 2.738800
8.004500 2.647800
8.027200 2.542400
8.050000 2.390800
8.072800 2.320700
8.095600 2.400400
8.118400 2.684400
8.141200 2.500200
8.164000 2.433800
8.186800 2.363000
8.209600 2.303200
8.232300 2.252800
8.255100 2.211900
8.277900 2.223000
8.300700 2.138200
8.323500 2.036000
8.346300 1.941700
8.369100 1.892900
8.391900 1.874700
8.414700 1.895800
8.437500 1.906100
8.460200 1.873400
8.483000 1.791900
8.505800 1.636100
8.528600 1.579800
8.551400 1.545700
8.574200 1.517100
8.597000 1.493500
8.619800 1.475900
8.642600 1.459500
8.665300 1.443500
8.688100 1.422500
8.710900 1.411900
8.733700 1.394900
8.756500 1.378900
8.779300 1.374100
8.802100 1.373300
8.824900 1.343800
8.847700 1.357200
8.870400 1.376900
8.893200 1.399200
8.916000 1.459200
8.938800 1.478900
8.961600 1.510400
8.984400 1.547000
9.007200 1.578500
9.030000 1.605600
9.052800 1.626800
9.075500 1.611100
9.098300 1.595400
9.121100 1.579900
9.143900 1.564200
9.166700 1.556200
9.189500 1.537600
9.212300 1.517500
9.235100 1.523900
9.257900 1.567100
9.280700 1.551100
9.303400 1.607500
9.326200 1.405100
9.349000 1.378500
9.371800 1.524200
9.394600 1.391600
9.417400 1.344400
9.440200 1.312500
9.463000 1.304400
9.485800 1.306900
9.508500 1.315100
9.531300 1.322000
9.554100 1.326800
9.576900 1.325100
9.599700 1.312500
9.622500 1.215700
9.645300 1.170300
9.668100 1.144500
9.690900 1.142600
9.713600 1.154000
9.736400 1.166400
9.759200 1.180200
9.782000 1.199500
9.804800 1.214500
9.827600 1.262200
9.850400 1.343400
9.873200 1.465000
9.896000 1.557100
9.918800 1.618500
9.941500 1.671800
9.964300 1.739300
9.987100 1.868700
10.009900 1.839600
10.032700 1.716500
10.055500 1.735400
10.078300 1.746800
10.101100 1.758300
10.123900 1.761300
10.146600 1.769200
10.169400 1.776600
10.192200 1.789700
10.215000 1.799300
10.237800 2.043400
10.260600 1.912100
10.283400 1.943200
10.306200 1.991900
10.329000 2.025900
10.351700 2.062500
10.374500 2.143300
10.397300 2.235600
10.420100 2.321600
10.442900 2.368000
10.465700 2.341000
10.488500 2.545700
10.511300 2.251400
10.534100 2.247500
10.556800 2.236500
10.579600 2.251600
10.602400 2.417500
10.625200 2.334900
10.648000 2.173200
10.670800 2.103100
10.693600 2.031400
10.716400 1.874900
10.739200 1.737200
10.762000 1.618800
10.784700 1.497500
10.807500 1.379700
10.830300 1.279800
10.853100 1.215900
10.875900 1.196400
10.898700 1.179300
10.921500 1.176100
10.944300 1.187000
10.967100 1.207400
10.989800 1.223900
11.012600 1.232100
11.035400 1.244000
11.058200 1.264800
11.081000 1.297100
11.103800 1.338300
11.126600 1.380600
11.149400 1.466200
11.172200 1.553600
11.194900 1.634200
11.217700 1.742200
11.240500 1.759100
11.263300 1.792300
11.286100 1.804800
11.308900 1.849000
11.331700 1.896600
11.354500 1.938400
11.377300 1.955600
11.400000 1.949400
11.422800 1.938600
11.445600 1.902100
11.468400 1.847000
11.491200 1.789800
11.514000 1.797600
11.536800 1.712500
11.559600 1.712200
11.582400 1.652900
11.605200 1.609600
11.627900 1.586600
11.650700 1.689700
11.673500 1.739600
11.696300 1.549400
11.719100 1.538700
11.741900 1.596700
11.764700 1.617800
11.787500 1.626900
11.810300 1.668800
11.833000 1.660500
11.855800 1.700900
11.878600 1.706000
11.901400 1.725300
11.924200 2.103800
11.947000 2.351100
11.969800 1.935200
11.992600 1.652000
12.015400 1.695100
12.038100 1.790500
12.060900 1.862200
12.083700 1.877400
12.106500 1.877300
12.129300 1.883000
12.152100 1.912100
12.174900 1.945000
12.197700 1.980000
12.220500 2.013400
12.243300 2.073600
12.266000 2.083300
12.288800 2.027500
12.311600 2.024700
12.334400 2.023600
12.357200 2.036700
12.380000 2.055600
12.402800 2.043600
12.425600 2.013400
12.448400 1.974800
12.471100 1.934400
12.493900 1.938900
12.516700 2.019400
12.539500 1.783600
12.562300 1.728500
12.585100 1.686000
12.607900 1.644000
12.630700 1.587000
12.653500 1.546000
12.676200 1.503700
12.699000 1.492800
12.721800 1.493000
12.744600 1.508300
12.767400 1.547800
12.790200 1.611400
12.813000 1.672500
12.835800 1.750300
12.858600 1.848500
12.881300 1.919800
12.904100 1.979800
12.926900 1.996900
12.949700 1.995500
12.972500 2.008600
12.995300 2.027400
13.018100 2.061400
13.040900 2.087200
13.063700 2.092200
13.086500 2.137200
13.109200 2.197600
13.132000 2.290500
13.154800 2.413500
13.177600 2.521200
13.200400 2.654500
13.223200 2.768900
13.246000 2.777700
13.268800 2.821000
13.291600 2.826600
13.314300 2.715700
13.337100 2.640000
13.359900 2.607100
13.382700 2.552100
13.405500 2.523800
13.428300 2.530700
13.451100 2.516700
13.473900 2.502000
13.496700 2.497900
13.519400 2.534200
13.542200 2.548300
13.565000 2.577700
13.587800 2.606200
13.610600 2.574000
13.633400 2.441000
13.656200 2.298700
13.679000 2.235100
13.701800 2.196600
13.724500 2.173600
13.747300 2.168400
13.770100 2.156600
13.792900 2.034900
13.815700 1.924500
13.838500 1.895200
13.861300 1.918200
13.884100 1.976000
13.906900 2.022200
13.929700 2.045700
13.952400 2.069400
13.975200 2.087000
13.998000 2.103300
14.020800 2.133200
14.043600 2.318600
14.066400 2.590100
14.089200 2.872200
14.112000 2.947300
14.134800 3.046800
14.157500 2.959000
14.180300 2.847500
14.203100 2.731000
14.225900 2.685200
14.248700 2.630100
14.271500 2.523300
14.294300 2.413800
14.317100 2.251500
14.339900 2.161500
14.362600 2.159600
14.385400 2.130600
14.408200 2.135500
14.431000 2.161100
14.453800 2.206300
14.476600 2.229700
14.499400 2.249000
14.522200 2.289700
14.545000 2.180200
14.567700 2.052300
14.590500 1.994100
14.613300 1.984200
14.636100 1.954300
14.658900 1.924400
14.681700 1.864700
14.704500 1.772400
14.727300 1.741500
14.750100 1.716000
14.772900 1.682100
14.795600 1.734500
14.818400 1.718800
14.841200 1.711400
14.864000 1.710600
14.886800 1.722600
14.909600 1.744100
14.932400 1.767400
14.955200 1.802800
14.978000 1.836800
15.000700 1.871300
15.023500 1.911300
15.046300 1.968100
15.069100 2.008800
15.091900 2.053500
15.114700 2.115900
15.137500 2.185000
15.160300 2.256500
15.183100 2.247900
15.205800 2.263800
15.228600 2.281900
15.251400 2.317400
15.274200 2.369700
15.297000 2.521100
15.319800 2.463600
15.342600 2.468400
15.365400 2.372200
15.388200 2.303000
15.411000 2.174000
15.433700 2.050700
15.456500 1.874700
15.479300 1.762200
15.502100 1.701000
15.524900 1.661600
15.547700 1.623100
15.570500 1.699100
15.593300 2.036500
15.616100 1.775100
15.638800 1.801200
15.661600 1.856700
15.684400 1.900400
15.707200 2.018600
15.730000 2.209600
15.752800 2.169700
15.775600 2.172300
15.798400 2.111200
15.821200 2.084600
15.843900 2.111600
15.866700 2.142200
15.889500 2.147000
15.912300 2.149800
15.935100 2.156000
15.957900 2.196100
15.980700 2.215500
16.003500 2.262800
16.026300 2.277200
16.049000 2.301900
16.071800 2.351900
16.094600 2.395900
16.117400 2.434400
16.140200 2.479900
16.163000 2.520000
16.185800 2.550400
16.208600 2.613300
16.231400 2.630000
16.254200 2.642600
16.276900 2.618800
16.299700 2.607900
16.322500 2.608100
16.345300 2.608400
16.368100 2.562500
16.390900 2.498600
16.413700 2.396200
16.436500 2.297900
16.459300 2.199100
16.482000 2.112000
16.504800 2.036500
16.527600 1.979000
16.550400 1.937100
16.573200 1.889000
16.596000 1.842800
16.618800 1.813000
16.641600 1.787700
16.664400 1.761700
16.687100 1.782900
16.709900 1.738600
16.732700 1.698100
16.755500 1.662900
16.778300 1.639900
16.801100 1.638300
16.823900 1.723600
16.846700 1.771200
16.869500 1.765200
16.892200 1.598000
16.915000 1.579700
16.937800 1.854800
16.960600 1.902100
16.983400 1.957900
17.006200 1.901600
17.029000 1.835100
17.051800 1.717600
17.074600 1.691500
17.097400 1.684100
17.120100 1.710400
17.142900 2.036400
17.165700 2.234400
17.188500 2.128000
17.211300 2.304400
17.234100 2.422200
17.256900 2.148900
17.279700 2.002600
17.302500 1.962900
17.325200 1.931200
17.348000 1.924600
17.370800 1.924800
17.393600 1.927700
17.416400 1.896300
17.439200 1.867600
17.462000 1.859400
17.484800 1.856900
17.507600 1.863400
17.530300 1.854900
17.553100 1.869700
17.575900 1.916100
17.598700 2.011300
17.621500 1.800400
17.644300 1.815800
17.667100 1.862200
17.689900 1.855500
17.712700 1.898200
17.735400 1.926000
17.758200 1.957300
17.781000 2.027000
17.803800 2.103000
17.826600 2.137600
17.849400 2.233100
17.872200 2.293500
17.895000 2.355700
17.917800 2.428100
17.940600 2.522500
17.963300 2.591300
17.986100 2.648200
18.008900 2.646500
18.031700 2.686000
18.054500 2.711600
18.077300 2.684000
18.100100 2.629000
18.122900 2.593300
18.145700 2.566800
18.168400 2.542900
18.191200 2.448100
18.214000 2.390100
18.236800 2.347000
18.259600 2.349700
18.282400 2.334900
18.305200 2.288600
18.328000 2.198800
18.350800 2.163400
18.373500 2.140000
18.396300 2.149800
18.419100 2.214200
18.441900 2.305400
18.464700 2.450900
18.487500 2.481000
18.510300 2.559000
18.533100 2.616000
18.555900 2.677600
18.578700 2.727400
18.601400 2.580300
18.624200 2.487000
18.647000 2.434300
18.669800 2.393900
18.692600 2.382000
18.715400 2.406400
18.738200 2.223500
18.761000 2.209400
18.783800 2.245400
18.806500 2.291400
18.829300 2.347700
18.852100 2.371200
18.874900 2.379200
18.897700 2.451100
18.920500 2.477500
18.943300 2.459100
18.966100 2.449900
18.988900 2.460300
19.011600 2.497100
19.034400 2.508300
19.057200 2.480600
19.080000 2.507000
19.102800 2.556300
19.125600 2.611900
19.148400 2.666400
19.171200 2.709900
19.194000 2.737000
19.216700 2.732200
19.239500 2.779100
19.262300 2.796800
19.285100 2.819700
19.307900 2.907100
19.330700 2.850800
19.353500 2.747800
19.376300 2.619100
19.399100 2.491300
19.421900 2.327800
19.444600 2.235100
19.467400 2.241200
19.490200 2.501500
19.513000 2.487200
19.535800 2.440600
19.558600 2.402500
19.581400 2.448900
19.604200 2.443800
19.627000 2.422500
19.649700 2.496100
19.672500 2.510600
19.695300 2.504400
19.718100 2.521800
19.740900 2.555700
19.763700 2.624300
19.786500 2.831000
19.809300 2.918800
19.832100 2.952600
19.854800 3.036300
19.877600 2.930100
19.900400 2.918000
19.923200 2.929800
19.946000 2.953800
19.968800 2.985600
19.991600 3.014800
20.014400 3.061000
20.037200 3.116000
20.059900 3.172400
20.082700 3.196100
20.105500 3.228400
20.128300 3.127200
20.151100 3.076200
20.173900 3.044200
20.196700 2.925600
20.219500 2.847000
20.242300 2.808100
20.265100 2.709200
20.287800 2.662400
20.310600 2.654900
20.333400 2.697700
20.356200 2.739900
20.379000 2.911300
20.401800 2.827200
20.424600 2.922000
20.447400 2.844500
20.470200 2.792000
20.492900 2.759500
20.515700 2.759400
20.538500 2.781600
20.561300 2.772200
20.584100 2.745800
20.606900 2.720300
20.629700 2.695600
20.652500 2.614100
20.675300 2.517000
20.698000 2.433800
20.720800 2.437300
20.743600 2.616000
20.766400 2.554700
20.789200 2.753800
20.812000 2.795900
20.834800 2.771500
20.857600 2.770800
20.880400 2.799800
20.903200 2.807200
20.925900 2.856500
20.948700 2.913800
20.971500 3.021500
20.994300 3.082700
21.017100 3.166500
21.039900 3.285400
21.062700 3.371000
21.085500 3.440300
21.108300 3.481000
21.131000 3.496600
21.153800 3.480000
21.176600 3.355900
21.199400 3.268600
21.222200 3.186300
21.245000 3.111000
21.267800 3.116200
21.290600 3.153300
21.313400 3.225700
21.336100 3.080900
21.358900 3.038000
21.381700 2.984900
21.404500 2.919600
21.427300 2.825700
21.450100 2.776300
21.472900 2.716900
21.495700 2.690500
21.518500 2.783600
21.541200 2.742200
21.564000 2.756900
21.586800 2.782800
21.609600 2.817700
21.632400 2.862400
21.655200 2.901200
21.678000 2.935200
21.700800 2.968000
21.723600 2.971300
21.746400 2.980300
21.769100 2.998100
21.791900 2.993700
21.814700 2.933700
21.837500 2.857700
21.860300 2.799300
21.883100 2.745300
21.905900 2.722400
21.928700 2.714900
21.951500 2.708000
21.974200 2.677500
21.997000 2.692500
22.019800 2.714700
22.042600 2.699400
22.065400 2.759600
22.088200 2.818700
22.111000 2.886700
22.133800 2.871700
22.156600 2.866300
22.179300 2.874200
22.202100 2.905100
22.224900 2.942400
22.247700 2.984800
22.270500 3.018400
22.293300 3.057800
22.316100 3.196900
22.338900 3.202900
22.361700 3.185200
22.384400 3.162200
22.407200 3.126400
22.430000 3.067100
22.452800 2.976000
22.475600 2.904200
22.498400 2.841200
22.521200 2.773300
22.544000 2.702100
22.566800 2.700200
22.589600 2.534300
22.612300 2.500500
22.635100 2.455900
22.657900 2.399300
22.680700 2.337400
22.703500 2.327000
22.726300 2.331800
22.749100 2.364500
22.771900 2.384300
22.794700 2.389800
22.817400 2.424400
22.840200 2.356700
22.863000 2.311500
22.885800 2.317100
22.908600 2.331700
22.931400 2.383800
22.954200 2.431400
22.977000 2.523400
22.999800 2.590400
23.022500 2.647700
23.045300 2.698900
23.068100 2.752600
23.090900 2.817800
23.113700 2.926200
23.136500 2.945300
23.159300 2.958300
23.182100 2.999100
23.204900 3.036500
23.227600 3.037400
23.250400 3.055900
23.273200 3.024200
23.296000 2.972400
23.318800 2.922800
23.341600 2.884000
23.364400 2.831100
23.387200 2.772000
23.410000 2.737600
23.432800 2.659600
23.455500 2.657400
23.478300 2.689100
23.501100 2.728000
23.523900 2.803100
23.546700 2.932700
23.569500 2.878300
23.592300 2.708600
23.615100 2.726300
23.637900 2.782300
23.660600 2.829600
23.683400 2.877700
23.706200 2.957900
23.729000 3.123200
23.751800 3.301900
23.774600 3.439600
23.797400 3.537900
23.820200 3.452900
23.843000 3.229800
23.865700 3.057500
23.888500 2.928900
23.911300 2.831500
23.934100 2.770000
23.956900 2.760300
23.979700 2.779200
24.002500 2.700500
24.025300 2.674200
24.048100 2.658700
24.070900 2.632300
24.093600 2.606600
24.116400 2.593200
24.139200 2.603000
24.162000 2.622100
24.184800 2.641100
24.207600 2.654800
24.230400 2.696700
24.253200 2.743900
24.276000 2.748200
24.298700 2.754500
24.321500 2.765000
24.344300 2.784100
24.367100 2.792100
24.389900 2.793200
24.412700 2.790000
24.435500 2.789900
24.458300 2.793100
24.481100 2.802000
24.503800 2.819600
24.526600 2.840400
24.549400 2.866600
24.572200 2.912600
24.595000 2.981400
24.617800 3.027100
24.640600 3.073500
24.663400 2.953900
24.686200 2.861200
24.708900 2.848400
24.731700 2.848900
24.754500 2.845600
24.777300 2.825100
24.800100 2.855300
24.822900 2.888300
24.845700 2.928600
24.868500 2.974900
24.891300 3.011500
24.914100 3.062900
24.936800 3.111100
24.959600 3.170200
24.982400 3.182500
25.005200 3.135000
25.028000 3.182700
25.050800 3.221100
25.073600 3.214800
25.096400 3.211800
25.119200 3.200500
25.141900 3.149900
25.164700 2.965200
25.187500 2.823900
25.210300 2.745000
25.233100 2.695800
25.255900 2.653400
25.278700 2.606900
25.301500 2.497100
25.324300 2.438800
25.347000 2.428900
25.369800 2.402900
25.392600 2.372900
25.415400 2.343600
25.438200 2.333800
25.461000 2.338000
25.483800 2.362200
25.506600 2.403000
25.529400 2.458000
25.552100 2.798100
25.574900 2.814200
25.597700 2.912100
25.620500 2.918900
25.643300 3.042500
25.666100 3.163200
25.688900 3.275500
25.711700 3.383200
25.734500 3.464800
25.757300 3.502700
25.780000 3.520000
25.802800 3.541800
25.825600 3.670700
25.848400 3.849200
25.871200 3.539900
25.894000 3.281000
25.916800 3.079100
25.939600 3.071900
25.962400 3.111900
25.985100 3.133200
26.007900 3.093500
26.030700 3.057500
26.053500 3.078400
26.076300 3.121200
26.099100 3.256600
26.121900 3.352400
26.144700 3.547300
26.167500 3.438700
26.190200 3.429400
26.213000 3.452500
26.235800 3.508100
26.258600 3.562200
26.281400 3.601400
26.304200 3.639100
26.327000 3.692100
26.349800 3.706700
26.372600 4.333400
26.395300 3.538800
26.418100 3.472900
26.440900 3.282400
26.463700 3.193900
26.486500 3.123100
26.509300 3.091000
26.532100 3.077700
26.554900 3.047600
26.577700 3.022100
26.600500 3.009600
26.623200 3.014600
26.646000 3.112200
26.668800 3.159400
26.691600 3.196000
26.714400 3.250500
26.737200 3.402900
26.760000 3.461600
26.782800 3.335600
26.805600 3.365000
26.828300 3.388900
26.851100 3.364400
26.873900 3.376500
26.896700 3.411300
26.919500 3.410800
26.942300 3.365500
26.965100 3.416200
26.987900 3.439300
27.010700 3.418200
27.033400 3.407400
27.056200 3.377300
27.079000 3.341300
27.101800 3.275100
27.124600 3.236800
27.147400 3.201100
27.170200 3.143600
27.193000 3.066400
27.215800 3.002700
27.238600 2.936700
27.261300 2.895300
27.284100 2.840700
27.306900 2.850000
27.329700 2.889700
27.352500 2.952000
27.375300 3.019300
27.398100 3.104000
27.420900 3.179600
27.443700 3.349400
27.466400 3.461900
27.489200 3.473300
27.512000 3.526100
27.534800 3.593900
27.557600 3.675100
27.580400 3.762600
27.603200 3.765900
27.626000 3.719600
27.648800 3.596000
27.671500 3.461100
27.694300 3.280900
27.717100 3.156300
27.739900 3.131500
27.762700 3.187300
27.785500 3.103200
27.808300 3.128300
27.831100 3.164100
27.853900 3.204400
27.876600 3.291600
27.899400 3.457500
27.922200 3.707900
27.945000 3.931700
27.967800 4.058000
27.990600 3.989800
28.013400 3.903700
28.036200 3.848500
28.059000 3.829700
28.081800 3.819800
28.104500 3.829300
28.127300 3.944500
28.150100 3.774900
28.172900 3.659800
28.195700 3.585800
28.218500 3.510600
28.241300 3.436700
28.264100 3.455000
28.286900 3.419300
28.309600 3.388600
28.332400 3.405900
28.355200 3.422200
28.378000 3.357800
28.400800 3.287200
28.423600 3.173500
28.446400 3.153400
28.469200 3.013000
28.492000 2.963700
28.514700 2.964200
28.537500 2.999100
28.560300 3.059200
28.583100 3.031900
28.605900 2.970100
28.628700 2.951000
28.651500 3.033900
28.674300 2.984100
28.697100 2.778700
28.719800 2.760500
28.742600 2.741300
28.765400 2.767500
28.788200 3.115400
28.811000 3.151600
28.833800 3.216900
28.856600 3.218400
28.879400 3.229100
28.902200 3.160200
28.925000 2.964200
28.947700 2.842900
28.970500 2.767400
28.993300 2.666300
29.016100 2.589000
29.038900 2.523100
29.061700 2.541600
29.084500 2.539700
29.107300 2.568700
29.130100 3.180900
29.152800 2.931000
29.175600 3.032800
29.198400 2.911300
29.221200 2.849800
29.244000 2.852400
29.266800 2.817700
29.289600 2.882300
29.312400 2.982600
29.335200 2.940100
29.357900 2.917700
29.380700 2.841400
29.403500 2.652500
29.426300 2.662900
29.449100 2.698300
29.471900 2.697400
29.494700 2.695600
29.517500 2.708000
29.540300 2.726800
29.563100 2.792700
29.585800 2.798700
29.608600 2.809200
29.631400 2.799000
29.654200 2.892300
29.677000 2.807200
29.699800 2.769500
29.722600 2.681200
29.745400 2.661100
29.768200 2.652600
29.790900 2.726500
29.813700 2.706100
29.836500 2.752100
29.859300 2.790600
29.882100 2.835300
29.904900 2.897100
29.927700 2.984800
29.950500 3.185900
29.973300 3.446600
29.996000 3.635900
30.018800 3.786900
30.041600 3.932100
30.064400 4.135100
30.087200 4.397200
30.110000 4.417300
30.132800 4.192600
30.155600 3.883600
30.178400 3.533200
30.201100 3.339200
30.223900 3.113800
30.246700 2.925500
30.269500 2.838700
30.292300 2.810400
30.315100 2.806300
30.337900 2.832900
30.360700 3.020100
30.383500 3.184500
30.406300 3.260100
30.429000 3.331000
30.451800 3.277300
30.474600 3.223600
30.497400 3.100400
30.520200 2.948000
30.543000 2.832300
30.565800 2.838600
30.588600 2.814800
30.611400 2.828300
30.634100 2.925100
30.656900 3.101000
30.679700 3.297700
30.702500 3.624600
30.725300 4.016600
30.748100 4.320000
30.770900 4.358900
30.793700 4.328900
30.816500 4.408700
30.839200 4.383000
30.862000 4.239700
30.884800 4.137000
30.907600 4.178400
30.930400 4.294900
30.953200 4.318500
30.976000 4.356600
30.998800 4.282000
31.021600 4.105200
31.044300 3.899500
31.067100 3.835700
31.089900 3.841100
31.112700 3.597000
31.135500 3.436400
31.158300 3.306400
31.181100 3.292300
31.203900 3.278400
31.226700 3.266800
31.249500 3.222900
31.272200 3.215900
31.295000 3.236500
31.317800 3.239100
31.340600 3.268200
31.363400 3.387200
31.386200 3.443900
31.409000 3.424200
31.431800 3.512300
31.454600 3.595700
31.477300 3.667700
31.500100 3.749000
31.522900 3.804400
31.545700 3.926400
31.568500 4.027100
31.591300 4.071700
31.614100 4.032200
31.636900 3.922300
31.659700 3.806700
31.682400 3.655100
31.705200 3.498700
31.728000 3.370100
31.750800 3.271400
31.773600 3.206000
31.796400 3.171900
31.819200 3.165000
31.842000 3.002400
31.864800 3.062600
31.887500 3.172400
31.910300 3.159600
31.933100 2.934700
31.955900 2.862600
31.978700 2.831600
32.001500 2.921400
32.024300 3.056600
32.047100 3.090700
32.069900 3.046200
32.092700 3.011700
32.115400 3.007700
32.138200 2.955400
32.161000 2.911800
32.183800 2.837200
32.206600 2.553900
32.229400 2.473400
32.252200 2.425000
32.275000 2.356900
32.297800 2.257900
32.320500 2.179500
32.343300 2.123200
32.366100 2.063100
32.388900 2.011800
32.411700 1.977000
32.434500 1.812000
32.457300 1.656700
32.480100 1.537100
32.502900 1.600800
32.525600 1.397900
32.548400 1.327900
32.571200 1.256200
32.594000 1.181100
32.616800 1.098600
32.639600 0.981300
32.662400 0.798000
32.685200 0.608900
32.708000 0.483900
32.730800 0.395900
32.753500 0.318600
32.776300 0.253900
32.799100 0.222900
32.821900 0.195500
32.844700 0.171800
32.867500 0.151600
32.890300 0.133700
32.913100 0.115600
32.935900 0.094600
32.958600 0.077700
32.981400 0.072800
33.004200 0.068100
33.027000 0.063500
33.049800 0.055900
33.072600 0.048600
33.095400 0.041600
33.118200 0.035000
33.141000 0.028700
33.163700 0.022800
33.186500 0.017200
33.209300 0.012000
33.232100 0.000100
33.254900 0.000000
33.277700 0.000000
33.300500 0.000000
33.323300 0.000000
33.346100 0.000000
33.368800 0.000000
33.391600 0.000000
33.414400 0.000000
33.437200 0.000000
33.460000 0.000000
33.482800 0.000000
33.505600 0.000000
33.528400 0.000000
33.551200 0.000000
33.574000 0.000000
33.596700 0.000000
33.619500 0.000000
33.642300 0.000000
33.665100 0.000000
33.687900 0.000000
33.710700 0.000000
33.733500 0.000000
33.756300 0.000000
33.779100 0.000000
33.801800 0.000000
33.824600 0.000000
33.847400 0.000000
33.870200 0.000000
33.893000 0.000000
33.915800 0.000000
33.938600 0.000000
33.961400 0.000000
33.984200 0.000000
34.006900 0.000000
34.029700 0.000000
34.052500 0.000000
34.075300 0.000000
34.098100 0.000000
34.120900 0.000000
34.143700 0.000000
34.166500 0.000000
34.189300 0.000000
34.212000 0.000000
34.234800 0.000000
34.257600 0.000000
34.280400 0.000000
34.303200 0.000000
34.326000 0.000000
34.348800 0.000000
34.371600 0.000000
34.394400 0.000000
34.417200 0.000000
34.439900 0.000000
34.462700 0.000000
34.485500 0.000000
34.508300 0.000000
34.531100 0.000000
34.553900 0.000000
34.576700 0.000000
34.599500 0.000000
34.622300 0.000000
34.645000 0.000000
34.667800 0.000000
34.690600 0.000000
34.713400 0.000000
34.736200 0.000000
34.759000 0.000000
34.781800 0.000000
34.804600 0.000000
34.827400 0.000000
34.850100 0.000000
34.872900 0.000000
34.895700 0.000000
34.918500 0.000000
34.941300 0.000000
34.964100 0.000000
34.986900 0.000000
35.009700 0.000000
35.032500 0.000000
35.055200 0.000000
35.078000 0.000000
35.100800 0.000000
35.123600 0.000000
35.146400 0.000000
35.169200 0.000000
35.192000 0.000000
35.214800 0.000000
35.237600 0.000000
35.260400 0.000000
35.283100 0.000000
35.305900 0.000000
e
