set title 'mp-1077536 - Density of States'
set xlabel 'Energy (eV)'
set ylabel 'DOS (states/eV)'
set grid
set xrange [-10:10]
set yrange [0:151.623]
set xzeroaxis lt -1
set terminal png size 800,600
set output 'mp-1077536_dos_gnuplot.png'
plot '-' using 1:2 with lines title 'DOS'
-7.203100 0.000000
-7.188800 0.000000
-7.174600 0.000000
-7.160400 0.000000
-7.146100 0.000000
-7.131900 0.000000
-7.117700 0.000000
-7.103400 0.000000
-7.089200 0.000000
-7.075000 0.000000
-7.060800 0.000000
-7.046500 0.000000
-7.032300 0.000000
-7.018100 0.000000
-7.003800 0.000000
-6.989600 0.000000
-6.975400 0.000000
-6.961100 0.000000
-6.946900 0.000000
-6.932700 0.000000
-6.918400 0.000000
-6.904200 0.000000
-6.890000 0.000000
-6.875800 0.000000
-6.861500 0.000000
-6.847300 0.000000
-6.833100 0.000000
-6.818800 0.000000
-6.804600 0.000000
-6.790400 0.000000
-6.776100 0.000000
-6.761900 0.000000
-6.747700 0.000000
-6.733500 0.000000
-6.719200 0.000000
-6.705000 0.000000
-6.690800 0.000000
-6.676500 0.000000
-6.662300 0.000000
-6.648100 0.000000
-6.633800 0.000000
-6.619600 0.000000
-6.605400 0.000000
-6.591200 0.000000
-6.576900 0.000000
-6.562700 0.000000
-6.548500 0.000000
-6.534200 0.000000
-6.520000 0.000000
-6.505800 0.000000
-6.491500 0.000000
-6.477300 0.000000
-6.463100 0.000000
-6.448900 0.000000
-6.434600 0.000000
-6.420400 0.000000
-6.406200 0.000000
-6.391900 0.000000
-6.377700 0.000000
-6.363500 0.000000
-6.349200 0.000000
-6.335000 0.000000
-6.320800 0.000000
-6.306600 0.000000
-6.292300 0.000000
-6.278100 0.000000
-6.263900 0.000000
-6.249600 0.000000
-6.235400 0.000000
-6.221200 0.000000
-6.206900 0.000000
-6.192700 0.000000
-6.178500 0.000000
-6.164200 0.000000
-6.150000 0.000000
-6.135800 0.000000
-6.121600 0.000000
-6.107300 0.000000
-6.093100 0.000000
-6.078900 0.000000
-6.064600 0.000000
-6.050400 0.000000
-6.036200 0.000000
-6.021900 0.000000
-6.007700 0.000000
-5.993500 0.000000
-5.979300 0.000000
-5.965000 0.000000
-5.950800 0.000000
-5.936600 0.000000
-5.922300 0.000000
-5.908100 0.000100
-5.893900 0.015400
-5.879600 0.056400
-5.865400 0.123300
-5.851200 0.214200
-5.837000 0.298400
-5.822700 0.357100
-5.808500 0.390000
-5.794300 0.399600
-5.780000 0.407900
-5.765800 0.425000
-5.751600 0.451200
-5.737300 0.485500
-5.723100 0.522300
-5.708900 0.560100
-5.694700 0.598600
-5.680400 0.632600
-5.666200 0.660600
-5.652000 0.680100
-5.637700 0.692600
-5.623500 0.703600
-5.609300 0.715200
-5.595000 0.730900
-5.580800 0.750100
-5.566600 0.770600
-5.552300 0.792000
-5.538100 0.813300
-5.523900 0.834400
-5.509700 0.855400
-5.495400 0.876500
-5.481200 0.898400
-5.467000 0.921300
-5.452700 0.945200
-5.438500 1.059700
-5.424300 1.189300
-5.410000 1.306300
-5.395800 1.357600
-5.381600 1.333700
-5.367400 1.281800
-5.353100 1.232800
-5.338900 1.214700
-5.324700 1.216800
-5.310400 1.216500
-5.296200 1.215100
-5.282000 1.211600
-5.267700 1.203000
-5.253500 1.194000
-5.239300 1.184500
-5.225100 1.174700
-5.210800 1.164100
-5.196600 1.141300
-5.182400 1.119000
-5.168100 1.099600
-5.153900 1.087900
-5.139700 1.076000
-5.125400 1.130600
-5.111200 1.378400
-5.097000 1.518100
-5.082800 1.602400
-5.068500 1.663300
-5.054300 1.598400
-5.040100 1.614800
-5.025800 1.945200
-5.011600 2.223100
-4.997400 2.233000
-4.983100 2.232700
-4.968900 2.050900
-4.954700 1.891600
-4.940500 1.904400
-4.926200 1.915300
-4.912000 1.918400
-4.897800 1.916800
-4.883500 1.885600
-4.869300 1.871200
-4.855100 1.864900
-4.840800 1.861200
-4.826600 1.864400
-4.812400 1.874400
-4.798100 1.854100
-4.783900 1.827500
-4.769700 1.825000
-4.755500 1.817300
-4.741200 1.804100
-4.727000 1.803300
-4.712800 1.801100
-4.698500 1.798700
-4.684300 1.796200
-4.670100 1.793400
-4.655800 1.790600
-4.641600 1.787500
-4.627400 1.784200
-4.613200 1.770500
-4.598900 1.756400
-4.584700 1.744300
-4.570500 1.741200
-4.556200 1.746900
-4.542000 1.760500
-4.527800 1.770500
-4.513500 1.757500
-4.499300 1.747400
-4.485100 1.726000
-4.470900 1.691700
-4.456600 1.659900
-4.442400 1.625300
-4.428200 1.587700
-4.413900 1.550300
-4.399700 1.519600
-4.385500 1.496000
-4.371200 1.479700
-4.357000 1.466300
-4.342800 1.451900
-4.328600 1.436400
-4.314300 1.419800
-4.300100 1.406300
-4.285900 1.393600
-4.271600 1.382500
-4.257400 1.373000
-4.243200 1.362200
-4.228900 1.351400
-4.214700 1.342400
-4.200500 1.334800
-4.186200 1.327100
-4.172000 1.319200
-4.157800 1.305100
-4.143600 1.292800
-4.129300 1.286100
-4.115100 1.279700
-4.100900 1.273200
-4.086600 1.266400
-4.072400 1.259500
-4.058200 1.251700
-4.043900 1.245300
-4.029700 1.239800
-4.015500 1.235500
-4.001300 1.231900
-3.987000 1.228900
-3.972800 1.325400
-3.958600 1.362000
-3.944300 1.403800
-3.930100 1.450600
-3.915900 1.439700
-3.901600 1.567900
-3.887400 1.628200
-3.873200 1.692100
-3.859000 1.759500
-3.844700 1.767700
-3.830500 1.825000
-3.816300 1.949200
-3.802000 2.005000
-3.787800 2.049500
-3.773600 2.094000
-3.759300 2.098900
-3.745100 2.148400
-3.730900 2.193400
-3.716700 2.249900
-3.702400 2.307000
-3.688200 2.365200
-3.674000 2.429300
-3.659700 2.481000
-3.645500 2.546700
-3.631300 2.614100
-3.617000 2.699900
-3.602800 2.800100
-3.588600 2.901900
-3.574400 3.038900
-3.560100 3.170800
-3.545900 3.296800
-3.531700 3.424400
-3.517400 3.545900
-3.503200 3.674700
-3.489000 3.824900
-3.474700 4.059200
-3.460500 4.341800
-3.446300 4.569500
-3.432000 4.756100
-3.417800 4.914900
-3.403600 5.563000
-3.389400 5.832900
-3.375100 5.728000
-3.360900 5.395800
-3.346700 4.871000
-3.332400 4.556500
-3.318200 4.436100
-3.304000 4.401300
-3.289700 4.347400
-3.275500 4.309900
-3.261300 4.254500
-3.247100 4.190000
-3.232800 4.136600
-3.218600 4.100900
-3.204400 4.548800
-3.190100 4.347900
-3.175900 3.960700
-3.161700 3.922700
-3.147400 3.911300
-3.133200 3.948100
-3.119000 5.194400
-3.104800 5.608100
-3.090500 7.295000
-3.076300 4.022800
-3.062100 2.919100
-3.047800 1.799900
-3.033600 1.781300
-3.019400 1.757700
-3.005100 1.731200
-2.990900 1.704600
-2.976700 1.682700
-2.962500 1.660500
-2.948200 1.638900
-2.934000 1.600200
-2.919800 1.573100
-2.905500 1.562900
-2.891300 1.560700
-2.877100 1.558200
-2.862800 1.555600
-2.848600 1.552700
-2.834400 1.549800
-2.820100 1.546800
-2.805900 1.543600
-2.791700 1.540200
-2.777500 1.536400
-2.763200 1.532300
-2.749000 1.528000
-2.734800 1.523600
-2.720500 1.519000
-2.706300 1.514100
-2.692100 1.508700
-2.677800 1.503100
-2.663600 1.500600
-2.649400 1.498000
-2.635200 1.496600
-2.620900 1.494900
-2.606700 1.494900
-2.592500 1.492400
-2.578200 1.495100
-2.564000 1.498600
-2.549800 1.503000
-2.535500 1.507100
-2.521300 1.511200
-2.507100 1.515400
-2.492900 1.519800
-2.478600 1.524900
-2.464400 1.530600
-2.450200 1.536800
-2.435900 1.543400
-2.421700 1.550400
-2.407500 1.562700
-2.393200 1.577400
-2.379000 1.593000
-2.364800 1.610100
-2.350600 1.634300
-2.336300 1.656100
-2.322100 1.679500
-2.307900 1.699100
-2.293600 1.719500
-2.279400 1.741200
-2.265200 1.776300
-2.250900 1.808300
-2.236700 1.854800
-2.222500 1.882000
-2.208200 1.912900
-2.194000 1.951600
-2.179800 1.993100
-2.165600 2.038100
-2.151300 2.092100
-2.137100 2.151700
-2.122900 2.221400
-2.108600 2.327300
-2.094400 2.458200
-2.080200 2.617100
-2.065900 2.776000
-2.051700 2.890300
-2.037500 3.000900
-2.023300 3.869200
-2.009000 4.145700
-1.994800 4.226300
-1.980600 4.288200
-1.966300 4.676200
-1.952100 4.599100
-1.937900 3.292800
-1.923600 2.730500
-1.909400 2.253900
-1.895200 1.861400
-1.881000 1.523600
-1.866700 1.269500
-1.852500 1.167600
-1.838300 0.658700
-1.824000 0.040000
-1.809800 0.000000
-1.795600 0.000000
-1.781300 0.000000
-1.767100 0.000000
-1.752900 0.000000
-1.738700 0.000000
-1.724400 0.000000
-1.710200 0.000000
-1.696000 0.000000
-1.681700 0.000000
-1.667500 0.000000
-1.653300 0.000000
-1.639000 0.000000
-1.624800 0.000000
-1.610600 0.000000
-1.596400 0.000000
-1.582100 0.000000
-1.567900 0.000000
-1.553700 0.000000
-1.539400 0.000000
-1.525200 0.000000
-1.511000 0.000000
-1.496700 0.000000
-1.482500 0.000000
-1.468300 0.000000
-1.454000 0.000000
-1.439800 0.832900
-1.425600 33.336600
-1.411400 80.687100
-1.397100 91.133900
-1.382900 52.036800
-1.368700 52.495800
-1.354400 57.935600
-1.340200 63.964600
-1.326000 59.662400
-1.311700 78.023700
-1.297500 14.758800
-1.283300 88.993900
-1.269100 137.839000
-1.254800 34.925200
-1.240600 40.181900
-1.226400 46.387900
-1.212100 52.384300
-1.197900 48.948600
-1.183700 58.317000
-1.169400 40.803400
-1.155200 27.339000
-1.141000 21.161700
-1.126800 18.312000
-1.112500 21.704500
-1.098300 14.037500
-1.084100 11.289700
-1.069800 9.275200
-1.055600 7.589800
-1.041400 6.678700
-1.027100 5.301600
-1.012900 4.376800
-0.998700 4.198800
-0.984500 4.107100
-0.970200 3.982100
-0.956000 3.854800
-0.941800 3.741900
-0.927500 3.610200
-0.913300 3.299500
-0.899100 3.258200
-0.884800 3.264000
-0.870600 3.275900
-0.856400 3.286700
-0.842100 3.302100
-0.827900 3.325900
-0.813700 3.347600
-0.799500 3.365500
-0.785200 3.394100
-0.771000 3.518200
-0.756800 3.574800
-0.742500 3.573700
-0.728300 4.550200
-0.714100 4.795400
-0.699800 5.131600
-0.685600 4.418100
-0.671400 3.961300
-0.657200 5.311300
-0.642900 3.855600
-0.628700 1.903000
-0.614500 0.894600
-0.600200 0.728200
-0.586000 0.537100
-0.571800 0.430900
-0.557500 0.333200
-0.543300 0.243900
-0.529100 0.000000
-0.514900 0.000000
-0.500600 0.000000
-0.486400 0.000000
-0.472200 0.000000
-0.457900 0.000000
-0.443700 0.000000
-0.429500 0.001000
-0.415200 0.004700
-0.401000 0.011300
-0.386800 0.020700
-0.372600 0.032800
-0.358300 0.046100
-0.344100 0.060400
-0.329900 0.075700
-0.315600 0.091800
-0.301400 0.109000
-0.287200 0.127000
-0.272900 0.143800
-0.258700 0.158900
-0.244500 0.172500
-0.230300 0.184600
-0.216000 0.195800
-0.201800 0.207300
-0.187600 0.219000
-0.173300 0.230600
-0.159100 0.242000
-0.144900 0.253100
-0.130600 0.264000
-0.116400 0.274600
-0.102200 0.284900
-0.087900 0.295100
-0.073700 0.305100
-0.059500 0.314800
-0.045300 0.324400
-0.031000 0.333700
-0.016800 0.343200
-0.002600 0.352800
0.011700 0.364200
0.025900 0.378200
0.040100 0.394800
0.054400 0.413900
0.068600 0.435000
0.082800 0.457100
0.097000 0.480100
0.111300 0.504100
0.125500 0.529000
0.139700 0.554800
0.154000 0.597500
0.168200 0.639400
0.182400 0.677100
0.196700 0.710600
0.210900 0.732300
0.225100 0.743400
0.239300 0.753400
0.253600 0.762100
0.267800 0.770100
0.282000 0.778100
0.296300 0.784800
0.310500 0.790400
0.324700 0.814700
0.339000 0.842800
0.353200 0.872000
0.367400 0.902300
0.381600 0.921500
0.395900 0.926000
0.410100 0.931500
0.424300 0.939200
0.438600 0.951100
0.452800 0.970200
0.467000 0.990400
0.481300 1.011700
0.495500 1.034000
0.509700 1.057400
0.524000 1.081900
0.538200 1.107500
0.552400 1.127300
0.566600 1.145200
0.580900 1.166400
0.595100 1.191900
0.609300 1.224200
0.623600 1.266500
0.637800 1.310100
0.652000 1.355100
0.666300 1.395000
0.680500 1.432200
0.694700 1.481600
0.708900 1.522900
0.723200 1.559900
0.737400 1.598400
0.751600 1.620700
0.765900 1.642500
0.780100 1.663500
0.794300 1.684600
0.808600 1.702700
0.822800 1.716100
0.837000 1.724600
0.851200 1.728300
0.865500 1.727300
0.879700 1.723400
0.893900 1.717900
0.908200 1.715100
0.922400 1.713300
0.936600 1.712800
0.950900 1.714900
0.965100 1.711500
0.979300 1.707000
0.993500 1.701900
1.007800 1.698700
1.022000 1.697100
1.036200 1.695000
1.050500 1.692400
1.064700 1.689100
1.078900 1.681500
1.093200 1.674500
1.107400 1.675600
1.121600 1.864100
1.135800 2.072300
1.150100 2.870800
1.164300 2.726100
1.178500 2.229000
1.192800 2.274500
1.207000 2.322300
1.221200 2.428200
1.235500 2.460000
1.249700 2.496300
1.263900 2.537200
1.278200 2.586700
1.292400 2.695300
1.306600 2.813300
1.320800 2.941400
1.335100 3.079200
1.349300 3.326800
1.363500 3.066600
1.377800 3.073300
1.392000 3.080400
1.406200 3.094600
1.420500 3.112600
1.434700 3.055700
1.448900 3.070600
1.463100 4.537200
1.477400 4.545700
1.491600 3.774600
1.505800 3.713500
1.520100 3.680900
1.534300 3.822200
1.548500 3.769300
1.562800 3.667300
1.577000 3.308700
1.591200 3.116600
1.605400 3.145500
1.619700 3.070700
1.633900 2.925800
1.648100 2.784400
1.662400 2.633000
1.676600 2.729300
1.690800 2.471300
1.705100 2.182300
1.719300 2.141500
1.733500 2.167600
1.747700 2.186900
1.762000 2.207000
1.776200 2.224700
1.790400 2.250900
1.804700 2.267000
1.818900 2.274400
1.833100 2.369700
1.847400 2.475500
1.861600 2.336100
1.875800 2.355700
1.890100 2.400200
1.904300 2.466900
1.918500 2.456800
1.932700 2.361700
1.947000 2.327200
1.961200 2.320300
1.975400 2.335200
1.989700 2.375900
2.003900 2.421600
2.018100 2.458700
2.032400 2.404800
2.046600 2.353100
2.060800 2.201400
2.075000 2.215800
2.089300 2.202900
2.103500 2.161200
2.117700 2.082800
2.132000 2.078800
2.146200 2.041700
2.160400 2.010900
2.174700 1.991100
2.188900 1.977400
2.203100 1.975600
2.217300 2.022400
2.231600 2.132100
2.245800 2.193200
2.260000 2.267500
2.274300 2.322200
2.288500 2.375100
2.302700 2.452700
2.317000 2.550100
2.331200 2.630200
2.345400 2.706400
2.359600 2.764600
2.373900 2.782000
2.388100 2.784800
2.402300 2.779600
2.416600 2.766600
2.430800 2.745600
2.445000 2.717200
2.459300 2.670900
2.473500 2.652900
2.487700 2.640000
2.502000 2.571200
2.516200 2.549600
2.530400 2.553000
2.544600 2.600400
2.558900 2.973200
2.573100 3.266500
2.587300 3.577300
2.601600 3.232400
2.615800 3.231000
2.630000 3.392100
2.644300 3.287000
2.658500 3.277500
2.672700 3.236200
2.686900 3.199500
2.701200 3.130200
2.715400 3.103700
2.729600 3.076600
2.743900 3.040200
2.758100 2.992400
2.772300 2.974200
2.786600 2.913000
2.800800 2.838000
2.815000 2.752000
2.829200 2.671500
2.843500 2.592500
2.857700 2.544500
2.871900 2.528300
2.886200 2.518000
2.900400 2.518900
2.914600 2.525000
2.928900 2.534100
2.943100 2.545300
2.957300 2.564400
2.971500 2.577800
2.985800 2.593800
3.000000 2.741100
3.014200 2.791300
3.028500 2.848300
3.042700 2.829800
3.056900 2.870900
3.071200 2.910100
3.085400 2.942100
3.099600 2.957300
3.113800 2.951800
3.128100 2.926500
3.142300 2.903800
3.156500 3.016400
3.170800 3.186600
3.185000 3.043200
3.199200 2.618900
3.213500 2.540300
3.227700 2.458100
3.241900 2.465600
3.256200 2.509000
3.270400 2.814100
3.284600 2.738900
3.298800 2.671400
3.313100 2.585400
3.327300 2.377300
3.341500 2.395100
3.355800 2.413400
3.370000 2.533000
3.384200 2.596800
3.398500 2.638300
3.412700 2.680400
3.426900 2.921800
3.441100 3.591100
3.455400 3.770200
3.469600 3.893200
3.483800 4.176900
3.498100 4.114900
3.512300 4.147600
3.526500 3.947000
3.540800 3.728500
3.555000 3.265800
3.569200 3.084500
3.583400 3.030800
3.597700 3.499200
3.611900 3.573700
3.626100 3.668200
3.640400 3.811900
3.654600 3.956500
3.668800 4.090600
3.683100 4.146000
3.697300 4.106800
3.711500 4.034300
3.725700 4.114900
3.740000 4.152800
3.754200 4.142400
3.768400 4.031400
3.782700 3.933800
3.796900 3.841900
3.811100 4.143800
3.825400 3.835000
3.839600 3.492200
3.853800 3.090600
3.868100 2.807800
3.882300 2.687400
3.896500 2.683900
3.910700 2.694100
3.925000 2.709000
3.939200 2.756100
3.953400 2.787700
3.967700 2.847400
3.981900 2.909100
3.996100 3.086300
4.010400 3.121400
4.024600 3.156300
4.038800 3.108500
4.053000 3.183500
4.067300 3.291900
4.081500 3.455300
4.095700 3.622600
4.110000 3.709900
4.124200 3.786000
4.138400 3.847100
4.152700 3.869600
4.166900 3.587800
4.181100 3.462400
4.195300 3.336500
4.209600 3.341000
4.223800 3.470600
4.238000 3.698000
4.252300 3.781000
4.266500 3.723700
4.280700 3.710700
4.295000 3.693100
4.309200 3.704900
4.323400 3.691800
4.337600 3.751700
4.351900 3.664300
4.366100 3.662000
4.380300 3.684100
4.394600 3.728900
4.408800 3.781600
4.423000 3.970200
4.437300 4.436600
4.451500 4.447300
4.465700 4.327800
4.479900 4.232700
4.494200 4.164900
4.508400 3.991800
4.522600 3.782000
4.536900 4.255400
4.551100 3.362400
4.565300 3.234300
4.579600 3.158300
4.593800 3.097200
4.608000 3.047300
4.622300 2.964700
4.636500 2.899300
4.650700 2.831600
4.664900 2.823000
4.679200 2.836200
4.693400 2.922600
4.707600 3.017600
4.721900 3.126200
4.736100 3.275900
4.750300 3.515300
4.764600 3.808400
4.778800 4.168700
4.793000 4.410700
4.807200 4.963900
4.821500 5.487500
4.835700 5.376800
4.849900 4.913700
4.864200 4.387500
4.878400 4.240500
4.892600 3.850100
4.906900 3.740700
4.921100 3.689500
4.935300 3.651800
4.949500 3.685700
4.963800 3.556700
4.978000 3.507300
4.992200 3.549200
5.006500 3.675600
5.020700 3.800500
5.034900 4.087400
5.049200 4.055000
5.063400 3.997600
5.077600 3.747200
5.091800 3.696600
5.106100 3.586300
5.120300 3.580400
5.134500 3.569400
5.148800 3.562200
5.163000 3.570500
5.177200 3.629000
5.191500 3.691400
5.205700 3.749900
5.219900 3.770900
5.234200 3.751000
5.248400 3.744800
5.262600 3.643500
5.276800 3.552100
5.291100 3.472700
5.305300 3.405400
5.319500 3.224500
5.333800 3.146200
5.348000 3.201000
5.362200 3.198200
5.376500 3.163100
5.390700 3.019700
5.404900 2.873400
5.419100 2.734900
5.433400 2.626100
5.447600 2.594900
5.461800 2.535200
5.476100 2.506300
5.490300 2.496400
5.504500 2.502600
5.518800 2.506600
5.533000 2.511200
5.547200 2.513300
5.561400 2.491400
5.575700 2.428500
5.589900 2.451300
5.604100 2.475700
5.618400 2.501700
5.632600 2.529300
5.646800 2.558500
5.661100 2.741100
5.675300 2.917700
5.689500 2.806200
5.703700 2.451600
5.718000 2.277700
5.732200 2.176700
5.746400 2.135200
5.760700 2.096000
5.774900 2.055800
5.789100 2.017900
5.803400 1.982100
5.817600 1.948800
5.831800 1.851500
5.846000 1.838400
5.860300 1.825200
5.874500 1.811400
5.888700 1.799500
5.903000 1.786500
5.917200 1.774200
5.931400 1.764600
5.945700 1.754400
5.959900 1.743900
5.974100 1.736800
5.988400 1.797400
6.002600 1.895400
6.016800 1.942200
6.031000 1.985800
6.045300 2.018000
6.059500 2.054600
6.073700 2.095500
6.088000 2.140800
6.102200 2.190300
6.116400 2.235800
6.130700 2.297100
6.144900 2.413600
6.159100 2.513500
6.173300 2.533500
6.187600 2.509900
6.201800 2.485500
6.216000 2.464500
6.230300 2.386700
6.244500 2.311800
6.258700 2.241700
6.273000 2.199600
6.287200 2.116200
6.301400 2.034500
6.315600 1.963300
6.329900 1.895900
6.344100 1.832300
6.358300 1.799500
6.372600 1.782600
6.386800 1.766100
6.401000 1.749800
6.415300 1.733800
6.429500 1.744600
6.443700 1.729500
6.457900 1.714700
6.472200 1.704000
6.486400 1.809200
6.500600 1.816500
6.514900 1.824300
6.529100 1.830100
6.543300 1.767900
6.557600 1.769700
6.571800 1.881700
6.586000 1.898400
6.600300 1.916200
6.614500 1.935000
6.628700 1.879400
6.642900 1.885600
6.657200 1.888800
6.671400 1.843600
6.685600 1.838400
6.699900 1.833300
6.714100 1.832900
6.728300 1.832100
6.742600 1.832800
6.756800 1.840100
6.771000 1.802900
6.785200 1.807900
6.799500 1.810100
6.813700 1.817900
6.827900 1.837800
6.842200 1.864500
6.856400 1.897900
6.870600 1.938100
6.884900 1.985000
6.899100 2.038600
6.913300 2.099000
6.927500 2.163200
6.941800 2.234100
6.956000 2.331600
6.970200 2.447200
6.984500 2.526800
6.998700 2.612400
7.012900 2.709900
7.027200 2.821200
7.041400 2.905500
7.055600 2.946900
7.069800 3.082300
7.084100 3.235800
7.098300 3.454800
7.112500 3.676700
7.126800 3.786900
7.141000 3.795600
7.155200 3.631800
7.169500 3.429000
7.183700 3.299300
7.197900 3.324300
7.212200 3.374700
7.226400 3.448800
7.240600 3.475600
7.254800 3.478600
7.269100 3.554000
7.283300 3.715400
7.297500 3.676500
7.311800 3.556500
7.326000 3.487800
7.340200 3.463400
7.354500 3.455000
7.368700 3.453600
7.382900 3.462500
7.397100 3.498700
7.411400 3.517100
7.425600 3.468000
7.439800 3.444500
7.454100 3.614800
7.468300 3.838200
7.482500 3.937500
7.496800 3.854900
7.511000 3.726000
7.525200 3.545800
7.539400 3.434500
7.553700 3.140700
7.567900 3.046400
7.582100 2.907800
7.596400 2.793300
7.610600 2.822600
7.624800 2.836000
7.639100 2.858800
7.653300 2.961300
7.667500 3.071300
7.681700 3.127400
7.696000 3.123200
7.710200 3.143800
7.724400 3.196500
7.738700 3.252900
7.752900 3.311900
7.767100 3.373700
7.781400 3.438400
7.795600 3.506300
7.809800 3.593400
7.824000 3.664000
7.838300 3.674900
7.852500 3.726000
7.866700 3.777800
7.881000 3.825800
7.895200 3.870400
7.909400 3.933200
7.923700 3.995900
7.937900 4.078000
7.952100 4.187400
7.966400 4.374000
7.980600 4.651900
7.994800 4.318400
8.009000 4.224400
8.023300 4.077900
8.037500 3.999000
8.051700 3.904900
8.066000 4.143200
8.080200 3.531800
8.094400 2.793000
8.108700 2.883900
8.122900 2.863900
8.137100 2.859300
8.151300 2.857200
8.165600 2.853600
8.179800 2.847000
8.194000 2.860400
8.208300 2.873600
8.222500 2.862700
8.236700 2.864600
8.251000 2.874700
8.265200 2.915100
8.279400 2.922400
8.293600 2.960100
8.307900 2.892800
8.322100 2.912900
8.336300 2.914100
8.350600 2.927500
8.364800 2.950100
8.379000 2.979300
8.393300 3.048700
8.407500 3.125900
8.421700 3.209800
8.435900 3.283200
8.450200 3.327800
8.464400 3.376100
8.478600 3.432000
8.492900 3.559700
8.507100 3.655900
8.521300 3.879400
8.535600 3.643300
8.549800 3.783400
8.564000 4.092100
8.578300 4.455000
8.592500 4.910000
8.606700 4.976800
8.620900 5.037300
8.635200 5.083500
8.649400 5.121000
8.663600 5.107300
8.677900 5.086600
8.692100 4.952400
8.706300 4.849100
8.720600 4.721600
8.734800 4.509900
8.749000 4.464200
8.763200 4.433200
8.777500 4.409900
8.791700 4.416900
8.805900 4.487700
8.820200 4.582200
8.834400 4.622000
8.848600 4.671100
8.862900 4.722500
8.877100 4.759600
8.891300 4.717500
8.905500 4.605800
8.919800 4.787000
8.934000 5.078600
8.948200 5.874100
8.962500 6.777400
8.976700 7.956400
8.990900 6.031500
9.005200 5.171300
9.019400 4.216300
9.033600 3.927900
9.047800 3.705700
9.062100 3.320100
9.076300 3.146200
9.090500 2.907300
9.104800 2.767800
9.119000 2.634700
9.133200 2.515300
9.147500 2.604700
9.161700 2.548800
9.175900 2.505400
9.190100 2.471600
9.204400 2.446200
9.218600 2.429500
9.232800 2.371300
9.247100 2.367500
9.261300 2.372100
9.275500 2.381600
9.289800 2.373900
9.304000 2.356200
9.318200 2.341900
9.332500 2.374500
9.346700 2.369600
9.360900 2.402800
9.375100 2.433300
9.389400 2.475000
9.403600 2.407100
9.417800 2.383300
9.432100 2.403900
9.446300 2.412400
9.460500 2.340500
9.474800 2.357400
9.489000 2.373900
9.503200 2.390000
9.517400 2.405400
9.531700 2.417200
9.545900 2.445700
9.560100 2.506800
9.574400 2.585900
9.588600 2.635500
9.602800 2.567100
9.617100 3.134500
9.631300 3.558000
9.645500 2.868700
9.659700 2.869100
9.674000 2.867500
9.688200 2.833700
9.702400 2.829400
9.716700 2.824200
9.730900 2.837400
9.745100 2.870200
9.759400 2.852800
9.773600 2.897900
9.787800 2.981300
9.802000 3.075600
9.816300 3.132600
9.830500 3.128200
9.844700 3.125400
9.859000 3.510500
9.873200 3.383900
9.887400 2.811900
9.901700 2.731900
9.915900 2.658900
9.930100 2.621000
9.944400 2.654700
9.958600 2.655500
9.972800 2.635000
9.987000 2.597800
10.001300 2.575600
10.015500 2.573700
10.029700 2.566100
10.044000 2.545300
10.058200 2.542000
10.072400 2.561200
10.086700 2.542700
10.100900 2.524500
10.115100 2.509800
10.129300 2.511400
10.143600 2.522700
10.157800 2.584800
10.172000 2.625900
10.186300 2.661700
10.200500 2.706100
10.214700 2.747700
10.229000 2.822200
10.243200 2.945200
10.257400 3.114800
10.271600 3.504500
10.285900 3.761200
10.300100 4.020300
10.314300 4.040200
10.328600 3.764800
10.342800 3.759100
10.357000 3.743900
10.371300 3.729300
10.385500 3.702500
10.399700 3.653800
10.413900 3.639600
10.428200 3.641900
10.442400 3.411300
10.456600 3.292300
10.470900 3.166300
10.485100 3.079400
10.499300 3.006300
10.513600 2.978600
10.527800 2.952200
10.542000 2.940300
10.556200 2.930700
10.570500 2.954800
10.584700 2.955100
10.598900 3.007300
10.613200 3.026700
10.627400 3.050000
10.641600 3.076900
10.655900 3.106600
10.670100 3.123600
10.684300 3.242400
10.698600 3.268200
10.712800 3.282600
10.727000 3.300500
10.741200 3.346200
10.755500 3.406200
10.769700 3.463200
10.783900 3.539000
10.798200 3.610600
10.812400 3.666600
10.826600 3.721100
10.840900 3.634700
10.855100 3.635300
10.869300 3.659800
10.883500 3.728400
10.897800 3.827000
10.912000 4.050200
10.926200 3.961000
10.940500 3.843800
10.954700 3.655000
10.968900 3.617700
10.983200 3.488500
10.997400 3.402800
11.011600 3.555300
11.025800 3.588300
11.040100 3.621100
11.054300 3.568800
11.068500 3.578200
11.082800 3.579300
11.097000 3.570900
11.111200 3.558500
11.125500 3.544000
11.139700 3.531800
11.153900 3.534100
11.168100 3.896800
11.182400 3.996100
11.196600 3.785900
11.210800 3.759600
11.225100 3.719600
11.239300 3.704500
11.253500 3.749500
11.267800 3.764800
11.282000 3.780000
11.296200 3.736700
11.310500 3.762600
11.324700 3.787800
11.338900 3.811200
11.353100 3.829100
11.367400 3.822200
11.381600 3.813600
11.395800 3.821200
11.410100 3.833500
11.424300 3.846500
11.438500 3.866300
11.452800 3.893300
11.467000 3.989900
11.481200 4.231200
11.495400 4.454900
11.509700 4.694700
11.523900 4.809200
11.538100 4.641200
11.552400 4.841800
11.566600 5.051100
11.580800 4.247100
11.595100 3.991300
11.609300 3.724800
11.623500 3.472100
11.637700 3.271600
11.652000 3.206500
11.666200 3.155200
11.680400 3.121500
11.694700 3.104100
11.708900 3.101100
11.723100 3.059100
11.737400 3.024400
11.751600 2.966000
11.765800 2.945500
11.780000 2.920900
11.794300 2.898100
11.808500 2.891700
11.822700 2.920200
11.837000 2.931500
11.851200 2.960600
11.865400 3.019400
11.879700 3.094600
11.893900 3.063800
11.908100 3.089400
11.922400 3.111700
11.936600 3.133100
11.950800 3.145500
11.965000 3.156600
11.979300 3.174700
11.993500 3.198700
12.007700 3.221700
12.022000 3.249500
12.036200 3.266400
12.050400 3.284400
12.064700 3.300700
12.078900 3.318900
12.093100 3.340500
12.107300 3.269600
12.121600 3.294700
12.135800 3.321600
12.150000 3.330800
12.164300 3.297600
12.178500 3.250800
12.192700 3.231900
12.207000 3.211800
12.221200 3.147100
12.235400 3.078700
12.249600 3.032400
12.263900 3.006300
12.278100 2.987400
12.292300 2.989700
12.306600 3.005400
12.320800 3.043900
12.335000 3.121400
12.349300 3.352000
12.363500 3.465400
12.377700 3.541200
12.391900 3.601700
12.406200 3.645700
12.420400 3.663600
12.434600 3.645400
12.448900 3.588800
12.463100 3.469200
12.477300 3.558600
12.491600 3.597300
12.505800 3.645200
12.520000 3.700500
12.534200 3.762300
12.548500 3.835400
12.562700 3.971900
12.576900 4.054800
12.591200 4.101800
12.605400 4.135700
12.619600 4.156700
12.633900 4.097500
12.648100 3.959000
12.662300 3.861100
12.676600 3.768600
12.690800 3.671200
12.705000 3.584700
12.719200 3.678700
12.733500 3.655000
12.747700 3.735400
12.761900 3.759500
12.776200 3.770300
12.790400 3.743300
12.804600 3.660900
12.818900 3.439100
12.833100 3.338000
12.847300 3.334100
12.861500 3.355400
12.875800 3.392800
12.890000 3.428800
12.904200 3.468600
12.918500 3.499600
12.932700 3.536000
12.946900 3.583600
12.961200 3.604800
12.975400 3.648600
12.989600 3.706700
13.003800 3.710800
13.018100 3.674200
13.032300 3.630400
13.046500 3.579000
13.060800 3.526500
13.075000 3.486600
13.089200 3.449000
13.103500 3.517200
13.117700 3.420700
13.131900 3.393900
13.146100 3.371800
13.160400 3.354800
13.174600 3.342700
13.188800 3.371600
13.203100 3.571800
13.217300 3.613900
13.231500 3.614100
13.245800 3.667800
13.260000 3.706000
13.274200 3.814800
13.288500 3.917300
13.302700 3.978500
13.316900 3.958900
13.331100 3.965100
13.345400 3.974700
13.359600 3.858800
13.373800 3.910200
13.388100 4.037500
13.402300 4.161300
13.416500 4.208700
13.430800 4.314100
13.445000 4.642100
13.459200 4.797600
13.473400 4.838500
13.487700 4.944500
13.501900 4.982400
13.516100 4.998100
13.530400 5.025300
13.544600 5.000200
13.558800 4.910100
13.573100 4.871400
13.587300 4.818300
13.601500 4.658600
13.615700 4.580500
13.630000 4.506600
13.644200 4.454300
13.658400 4.400700
13.672700 4.341000
13.686900 4.274700
13.701100 4.128100
13.715400 4.059200
13.729600 4.025500
13.743800 3.978900
13.758000 3.987700
13.772300 3.987600
13.786500 4.072500
13.800700 4.263700
13.815000 4.130700
13.829200 4.189400
13.843400 4.285800
13.857700 4.406800
13.871900 4.518000
13.886100 4.590800
13.900300 4.652300
13.914600 4.710900
13.928800 4.675900
13.943000 4.700800
13.957300 4.761000
13.971500 4.990000
13.985700 5.029400
14.000000 4.592400
14.014200 4.401800
14.028400 4.327200
14.042700 4.269900
14.056900 4.215300
14.071100 4.118700
14.085300 3.913400
14.099600 3.736100
14.113800 3.678000
14.128000 3.670000
14.142300 3.651800
14.156500 3.641400
14.170700 3.818400
14.185000 4.133700
14.199200 4.043800
14.213400 4.133700
14.227600 4.270500
14.241900 4.786200
14.256100 4.398200
14.270300 4.152600
14.284600 3.812200
14.298800 3.720400
14.313000 3.711300
14.327300 3.688000
14.341500 3.654900
14.355700 3.633800
14.369900 3.627900
14.384200 3.632600
14.398400 3.695800
14.412600 3.799400
14.426900 3.881800
14.441100 3.928200
14.455300 4.031300
14.469600 4.122400
14.483800 4.226800
14.498000 4.330800
14.512200 4.434000
14.526500 4.533600
14.540700 4.634600
14.554900 4.714900
14.569200 4.799600
14.583400 4.849400
14.597600 4.866800
14.611900 5.129700
14.626100 4.770100
14.640300 4.738800
14.654600 4.742100
14.668800 4.733700
14.683000 4.729200
14.697200 4.717400
14.711500 4.698900
14.725700 4.643100
14.739900 4.573700
14.754200 4.555900
14.768400 4.615600
14.782600 4.758500
14.796900 4.709700
14.811100 4.844500
14.825300 4.423600
14.839500 4.423500
14.853800 4.409700
14.868000 4.394400
14.882200 4.244800
14.896500 4.188700
14.910700 4.180800
14.924900 4.151500
14.939200 4.125700
14.953400 4.113500
14.967600 4.132400
14.981800 4.152600
14.996100 4.193600
15.010300 4.267800
15.024500 4.084900
15.038800 4.075600
15.053000 4.074200
15.067200 4.174100
15.081500 4.346900
15.095700 4.293000
15.109900 4.279300
15.124100 4.203300
15.138400 4.355400
15.152600 4.593600
15.166800 4.856700
15.181100 4.771500
15.195300 4.781400
15.209500 4.779900
15.223800 4.739600
15.238000 4.658200
15.252200 4.573200
15.266400 4.473800
15.280700 4.366900
15.294900 4.277000
15.309100 4.196600
15.323400 4.128400
15.337600 4.115500
15.351800 3.986300
15.366100 3.878100
15.380300 3.798000
15.394500 3.542400
15.408800 3.491100
15.423000 3.654300
15.437200 3.615200
15.451400 3.581700
15.465700 3.551200
15.479900 3.530500
15.494100 3.522200
15.508400 3.528600
15.522600 3.579500
15.536800 3.684200
15.551100 3.858800
15.565300 4.067900
15.579500 4.154900
15.593700 4.174100
15.608000 4.122700
15.622200 4.072400
15.636400 4.037700
15.650700 3.951500
15.664900 3.702800
15.679100 3.538900
15.693400 3.501800
15.707600 3.514300
15.721800 3.549200
15.736000 3.584100
15.750300 3.591800
15.764500 3.658900
15.778700 3.760000
15.793000 3.983000
15.807200 4.245000
15.821400 4.569700
15.835700 5.155400
15.849900 4.942200
15.864100 5.061100
15.878300 5.158500
15.892600 5.230400
15.906800 5.286200
15.921000 5.333600
15.935300 5.363800
15.949500 5.738800
15.963700 6.585700
15.978000 6.052100
15.992200 6.019900
16.006400 6.132500
16.020700 4.763400
16.034900 4.529100
16.049100 4.454400
16.063300 4.521800
16.077600 4.658500
16.091800 4.652600
16.106000 4.621000
16.120300 4.670100
16.134500 4.836900
16.148700 4.915200
16.163000 5.039000
16.177200 5.144200
16.191400 5.275700
16.205600 5.444300
16.219900 5.559200
16.234100 5.682700
16.248300 5.749600
16.262600 6.078900
16.276800 6.296300
16.291000 6.075600
16.305300 5.458600
16.319500 5.208100
16.333700 5.158400
16.347900 5.158500
16.362200 5.105000
16.376400 5.023200
16.390600 4.943600
16.404900 4.884300
16.419100 4.812400
16.433300 4.745000
16.447600 4.684100
16.461800 4.600700
16.476000 4.487000
16.490200 4.600300
16.504500 4.617100
16.518700 4.657200
16.532900 4.633400
16.547200 4.662600
16.561400 4.943800
16.575600 5.062500
16.589900 5.128400
16.604100 5.127600
16.618300 5.086900
16.632600 5.072900
16.646800 4.998200
16.661000 5.039100
16.675200 5.033800
16.689500 4.873900
16.703700 4.589000
16.717900 4.400100
16.732200 4.258200
16.746400 4.142900
16.760600 4.096300
16.774900 4.121100
16.789100 4.188200
16.803300 4.282000
16.817500 4.469000
16.831800 4.598500
16.846000 4.702700
16.860200 4.817100
16.874500 4.937600
16.888700 5.067400
16.902900 5.197800
16.917200 5.359700
16.931400 5.464600
16.945600 5.573100
16.959800 5.677600
16.974100 5.832200
16.988300 6.012600
17.002500 6.187300
17.016800 6.341000
17.031000 6.449200
17.045200 6.582100
17.059500 6.740900
17.073700 6.558700
17.087900 6.442400
17.102100 6.305300
17.116400 6.144800
17.130600 5.969000
17.144800 5.797700
17.159100 5.604700
17.173300 5.479200
17.187500 5.277200
17.201800 5.329800
17.216000 5.099300
17.230200 5.099100
17.244400 5.096300
17.258700 5.138600
17.272900 5.205200
17.287100 5.250600
17.301400 5.271800
17.315600 5.306300
17.329800 5.363100
17.344100 5.408200
17.358300 5.511800
17.372500 5.602800
17.386800 5.402500
17.401000 5.354600
17.415200 5.308100
17.429400 5.373700
17.443700 5.294800
17.457900 5.241600
17.472100 5.079800
17.486400 5.064800
17.500600 5.040100
17.514800 4.967100
17.529100 4.908100
17.543300 4.800400
17.557500 4.725400
17.571700 4.696100
17.586000 4.707200
17.600200 4.760600
17.614400 4.843000
17.628700 4.910700
17.642900 5.052300
17.657100 5.347200
17.671400 5.008700
17.685600 4.867000
17.699800 4.950200
17.714000 5.052600
17.728300 5.185400
17.742500 5.303500
17.756700 5.251800
17.771000 5.375400
17.785200 5.172700
17.799400 4.870000
17.813700 5.050400
17.827900 4.897700
17.842100 4.766500
17.856300 4.645800
17.870600 4.569300
17.884800 4.580300
17.899000 4.686900
17.913300 4.704600
17.927500 4.776000
17.941700 4.899100
17.956000 5.149700
17.970200 5.233200
17.984400 5.309100
17.998700 5.372400
18.012900 5.415000
18.027100 5.417300
18.041300 5.412900
18.055600 5.522700
18.069800 5.594400
18.084000 5.662300
18.098300 5.670700
18.112500 5.615200
18.126700 5.526700
18.141000 5.483300
18.155200 5.525400
18.169400 5.528300
18.183600 5.492400
18.197900 5.486100
18.212100 5.478900
18.226300 6.117900
18.240600 5.886900
18.254800 5.506900
18.269000 5.518800
18.283300 5.599400
18.297500 5.480000
18.311700 5.110700
18.325900 5.141700
18.340200 5.302900
18.354400 5.664600
18.368600 6.072100
18.382900 6.175700
18.397100 6.140400
18.411300 6.150500
18.425600 5.793700
18.439800 5.566200
18.454000 5.368200
18.468200 5.177100
18.482500 5.100300
18.496700 4.956400
18.510900 4.772000
18.525200 4.714900
18.539400 4.735500
18.553600 4.970900
18.567900 5.413000
18.582100 5.735300
18.596300 5.872700
18.610500 6.106100
18.624800 6.112000
18.639000 6.080300
18.653200 6.178700
18.667500 6.249700
18.681700 5.587100
18.695900 5.119900
18.710200 5.002500
18.724400 4.967700
18.738600 4.928100
18.752900 4.876700
18.767100 4.777300
18.781300 4.690300
18.795500 4.574600
18.809800 4.440800
18.824000 4.302600
18.838200 4.143500
18.852500 4.007900
18.866700 3.871100
18.880900 3.677900
18.895200 3.543900
18.909400 3.456300
18.923600 3.424300
18.937800 3.392700
18.952100 3.361200
18.966300 3.316800
18.980500 3.273500
18.994800 3.224200
19.009000 3.292200
19.023200 3.254200
19.037500 3.180400
19.051700 3.061400
19.065900 2.926500
19.080100 2.873800
19.094400 2.822800
19.108600 2.772800
19.122800 2.708400
19.137100 2.654200
19.151300 2.579600
19.165500 2.453100
19.179800 2.336200
19.194000 2.226900
19.208200 2.116800
19.222400 1.991900
19.236700 1.891600
19.250900 1.779600
19.265100 1.677400
19.279400 1.611800
19.293600 1.422200
19.307800 1.248800
19.322100 1.129200
19.336300 1.065100
19.350500 1.008200
19.364800 1.038400
19.379000 0.919400
19.393200 0.856500
19.407400 0.711100
19.421700 0.716600
19.435900 0.723600
19.450100 0.731600
19.464400 0.732300
19.478600 0.705700
19.492800 0.679500
19.507100 0.652200
19.521300 0.624400
19.535500 0.606800
19.549700 0.589200
19.564000 0.570900
19.578200 0.552000
19.592400 0.532500
19.606700 0.512200
19.620900 0.491400
19.635100 0.469900
19.649400 0.447700
19.663600 0.424900
19.677800 0.401500
19.692000 0.377700
19.706300 0.353700
19.720500 0.329500
19.734700 0.305100
19.749000 0.280500
19.763200 0.255800
19.777400 0.225300
19.791700 0.182200
19.805900 0.206800
19.820100 0.256700
19.834300 0.186300
19.848600 0.243100
19.862800 0.105100
19.877000 0.040000
19.891300 0.017300
19.905500 0.011000
19.919700 0.006100
19.934000 0.002700
19.948200 0.000600
19.962400 0.000000
19.976600 0.000000
19.990900 0.000000
20.005100 0.000000
20.019300 0.000000
20.033600 0.000000
20.047800 0.000000
20.062000 0.000000
20.076300 0.000000
20.090500 0.000000
20.104700 0.000000
20.119000 0.000000
20.133200 0.000000
20.147400 0.000000
20.161600 0.000000
20.175900 0.000000
20.190100 0.000000
20.204300 0.000000
20.218600 0.000000
20.232800 0.000000
20.247000 0.000000
20.261300 0.000000
20.275500 0.000000
20.289700 0.000000
20.303900 0.000000
20.318200 0.000000
20.332400 0.000000
20.346600 0.000000
20.360900 0.000000
20.375100 0.000000
20.389300 0.000000
20.403600 0.000000
20.417800 0.000000
20.432000 0.000000
20.446200 0.000000
20.460500 0.000000
20.474700 0.000000
20.488900 0.000000
20.503200 0.000000
20.517400 0.000000
20.531600 0.000000
20.545900 0.000000
20.560100 0.000000
20.574300 0.000000
20.588500 0.000000
20.602800 0.000000
20.617000 0.000000
20.631200 0.000000
20.645500 0.000000
20.659700 0.000000
20.673900 0.000000
20.688200 0.000000
20.702400 0.000000
20.716600 0.000000
20.730900 0.000000
20.745100 0.000000
20.759300 0.000000
20.773500 0.000000
20.787800 0.000000
20.802000 0.000000
20.816200 0.000000
20.830500 0.000000
20.844700 0.000000
20.858900 0.000000
20.873200 0.000000
20.887400 0.000000
20.901600 0.000000
20.915800 0.000000
20.930100 0.000000
20.944300 0.000000
20.958500 0.000000
20.972800 0.000000
20.987000 0.000000
21.001200 0.000000
21.015500 0.000000
21.029700 0.000000
21.043900 0.000000
21.058100 0.000000
21.072400 0.000000
21.086600 0.000000
21.100800 0.000000
21.115100 0.000000
21.129300 0.000000
21.143500 0.000000
21.157800 0.000000
21.172000 0.000000
21.186200 0.000000
21.200400 0.000000
21.214700 0.000000
21.228900 0.000000
21.243100 0.000000
21.257400 0.000000
e
