set title 'mp-1186368 - Density of States'
set xlabel 'Energy (eV)'
set ylabel 'DOS (states/eV)'
set grid
set xrange [-10:10]
set yrange [0:10.588]
set xzeroaxis lt -1
set terminal png size 800,600
set output 'mp-1186368_dos_gnuplot.png'
plot '-' using 1:2 with lines title 'DOS'
-7.133900 0.000000
-7.110000 0.000000
-7.086100 0.000000
-7.062300 0.000000
-7.038400 0.000000
-7.014600 0.000000
-6.990700 0.000000
-6.966800 0.000000
-6.943000 0.000000
-6.919100 0.000000
-6.895300 0.000000
-6.871400 0.000000
-6.847500 0.000000
-6.823700 0.000000
-6.799800 0.000000
-6.776000 0.000000
-6.752100 0.000000
-6.728200 0.000000
-6.704400 0.000000
-6.680500 0.000000
-6.656700 0.000000
-6.632800 0.000000
-6.608900 0.000000
-6.585100 0.000000
-6.561200 0.000000
-6.537400 0.000000
-6.513500 0.000000
-6.489600 0.000000
-6.465800 0.000000
-6.441900 0.000000
-6.418100 0.000000
-6.394200 0.000000
-6.370300 0.000000
-6.346500 0.000000
-6.322600 0.000000
-6.298800 0.000000
-6.274900 0.000000
-6.251000 0.000000
-6.227200 0.000000
-6.203300 0.000000
-6.179500 0.000000
-6.155600 0.000000
-6.131700 0.000000
-6.107900 0.000000
-6.084000 0.000000
-6.060200 0.000000
-6.036300 0.000000
-6.012400 0.000000
-5.988600 0.000000
-5.964700 0.000000
-5.940900 0.000000
-5.917000 0.000000
-5.893100 0.000000
-5.869300 0.000000
-5.845400 0.000000
-5.821600 0.000000
-5.797700 0.000000
-5.773800 0.000000
-5.750000 0.000000
-5.726100 0.000000
-5.702300 0.000000
-5.678400 0.000000
-5.654500 0.000000
-5.630700 0.000000
-5.606800 0.000000
-5.583000 0.000000
-5.559100 0.000000
-5.535200 0.000000
-5.511400 0.000000
-5.487500 0.000000
-5.463700 0.000000
-5.439800 0.000000
-5.415900 0.000000
-5.392100 0.000000
-5.368200 0.000000
-5.344400 0.000000
-5.320500 0.000000
-5.296600 0.000000
-5.272800 0.000000
-5.248900 0.000000
-5.225100 0.000000
-5.201200 0.000000
-5.177300 0.000000
-5.153500 0.000000
-5.129600 0.000000
-5.105800 0.000000
-5.081900 0.000000
-5.058000 0.000400
-5.034200 0.002100
-5.010300 0.007800
-4.986500 0.020300
-4.962600 0.039400
-4.938700 0.063900
-4.914900 0.098500
-4.891000 0.151000
-4.867200 0.210600
-4.843300 0.233800
-4.819400 0.193100
-4.795600 0.135900
-4.771700 0.141000
-4.747900 0.226300
-4.724000 0.325500
-4.700100 0.368700
-4.676300 0.370600
-4.652400 0.385700
-4.628600 0.401500
-4.604700 0.360800
-4.580800 0.280300
-4.557000 0.244500
-4.533100 0.304300
-4.509300 0.429800
-4.485400 0.522100
-4.461500 0.526500
-4.437700 0.506000
-4.413800 0.512400
-4.390000 0.501900
-4.366100 0.455300
-4.342200 0.465400
-4.318400 0.595900
-4.294500 0.755400
-4.270700 0.824300
-4.246800 0.786900
-4.222900 0.677700
-4.199100 0.543400
-4.175200 0.462000
-4.151400 0.493800
-4.127500 0.639800
-4.103600 0.844500
-4.079800 1.017300
-4.055900 1.099700
-4.032100 1.096800
-4.008200 1.071300
-3.984300 1.118400
-3.960500 1.237000
-3.936600 1.311100
-3.912800 1.289100
-3.888900 1.188300
-3.865000 1.036900
-3.841200 0.982600
-3.817300 1.171400
-3.793500 1.455500
-3.769600 1.573800
-3.745700 1.540600
-3.721900 1.556600
-3.698000 1.720200
-3.674200 1.952500
-3.650300 2.094800
-3.626400 2.103900
-3.602600 2.094600
-3.578700 2.211700
-3.554900 2.528500
-3.531000 3.046700
-3.507100 3.774600
-3.483300 4.605400
-3.459400 5.239700
-3.435600 5.419400
-3.411700 4.955300
-3.387800 3.759100
-3.364000 2.194400
-3.340100 0.929000
-3.316300 0.274200
-3.292400 0.055000
-3.268500 0.007400
-3.244700 0.000700
-3.220800 0.000000
-3.197000 0.000000
-3.173100 0.000000
-3.149200 0.000000
-3.125400 0.000000
-3.101500 0.000000
-3.077700 0.000000
-3.053800 0.000000
-3.029900 0.000000
-3.006100 0.000000
-2.982200 0.000000
-2.958400 0.000000
-2.934500 0.000000
-2.910600 0.000000
-2.886800 0.000000
-2.862900 0.000000
-2.839100 0.000000
-2.815200 0.000000
-2.791300 0.000000
-2.767500 0.000000
-2.743600 0.000000
-2.719800 0.000000
-2.695900 0.000000
-2.672000 0.000000
-2.648200 0.000000
-2.624300 0.000000
-2.600500 0.000000
-2.576600 0.000000
-2.552700 0.000000
-2.528900 0.000000
-2.505000 0.000000
-2.481200 0.000000
-2.457300 0.000000
-2.433400 0.000000
-2.409600 0.000000
-2.385700 0.000000
-2.361900 0.000000
-2.338000 0.000000
-2.314100 0.000000
-2.290300 0.000000
-2.266400 0.000000
-2.242600 0.000000
-2.218700 0.000000
-2.194800 0.000000
-2.171000 0.000000
-2.147100 0.000000
-2.123300 0.000000
-2.099400 0.000000
-2.075500 0.000000
-2.051700 0.000000
-2.027800 0.000000
-2.004000 0.000000
-1.980100 0.000000
-1.956200 0.000000
-1.932400 0.000000
-1.908500 0.000000
-1.884700 0.000000
-1.860800 0.000000
-1.836900 0.000000
-1.813100 0.000000
-1.789200 0.000000
-1.765400 0.000000
-1.741500 0.000000
-1.717600 0.000000
-1.693800 0.000000
-1.669900 0.000000
-1.646100 0.000000
-1.622200 0.000000
-1.598300 0.000000
-1.574500 0.000000
-1.550600 0.000000
-1.526800 0.000000
-1.502900 0.000000
-1.479000 0.000000
-1.455200 0.000000
-1.431300 0.000000
-1.407500 0.000000
-1.383600 0.000000
-1.359700 0.000000
-1.335900 0.000000
-1.312000 0.000000
-1.288200 0.000000
-1.264300 0.000000
-1.240400 0.000000
-1.216600 0.000000
-1.192700 0.000000
-1.168900 0.000000
-1.145000 0.000000
-1.121100 0.000000
-1.097300 0.000000
-1.073400 0.000000
-1.049600 0.000000
-1.025700 0.000000
-1.001800 0.000000
-0.978000 0.000000
-0.954100 0.000000
-0.930300 0.000000
-0.906400 0.000000
-0.882500 0.000000
-0.858700 0.000000
-0.834800 0.000000
-0.811000 0.000000
-0.787100 0.000000
-0.763200 0.000000
-0.739400 0.000000
-0.715500 0.000000
-0.691700 0.000000
-0.667800 0.000000
-0.643900 0.000000
-0.620100 0.000000
-0.596200 0.000000
-0.572400 0.000000
-0.548500 0.000000
-0.524600 0.000000
-0.500800 0.000100
-0.476900 0.000800
-0.453100 0.003800
-0.429200 0.012100
-0.405300 0.027000
-0.381500 0.045800
-0.357600 0.063400
-0.333800 0.079900
-0.309900 0.109700
-0.286000 0.168900
-0.262200 0.225200
-0.238300 0.214800
-0.214500 0.140100
-0.190600 0.076300
-0.166700 0.083700
-0.142900 0.167000
-0.119000 0.277400
-0.095200 0.347800
-0.071300 0.362000
-0.047400 0.363700
-0.023600 0.386600
0.000300 0.403500
0.024100 0.379200
0.048000 0.344700
0.071900 0.372400
0.095700 0.491600
0.119600 0.657800
0.143400 0.814400
0.167300 0.986600
0.191200 1.264400
0.215000 1.604100
0.238900 1.785600
0.262700 1.807100
0.286600 2.017200
0.310500 2.510700
0.334300 2.850400
0.358200 2.680100
0.382000 2.207700
0.405900 1.927500
0.429800 2.076100
0.453600 2.458800
0.477500 2.788300
0.501300 2.966400
0.525200 3.000200
0.549100 2.890300
0.572900 2.654000
0.596800 2.421200
0.620600 2.359100
0.644500 2.398800
0.668400 2.300300
0.692200 2.046500
0.716100 1.841500
0.739900 1.767200
0.763800 1.713700
0.787700 1.545300
0.811500 1.274200
0.835400 1.088200
0.859200 1.117400
0.883100 1.262500
0.907000 1.330400
0.930800 1.259000
0.954700 1.157300
0.978500 1.136000
1.002400 1.175500
1.026300 1.221400
1.050100 1.304900
1.074000 1.460600
1.097800 1.597600
1.121700 1.570800
1.145600 1.397400
1.169400 1.237400
1.193300 1.133100
1.217100 1.017100
1.241000 0.930600
1.264900 0.967800
1.288700 1.092200
1.312600 1.182300
1.336400 1.188100
1.360300 1.160400
1.384200 1.181300
1.408000 1.318400
1.431900 1.578100
1.455700 1.847900
1.479600 2.024900
1.503500 2.190500
1.527300 2.427600
1.551200 2.629200
1.575000 2.716600
1.598900 2.808800
1.622800 2.978900
1.646600 3.048000
1.670500 2.913300
1.694300 2.861800
1.718200 3.157200
1.742100 3.516600
1.765900 3.491100
1.789800 3.258000
1.813600 3.341400
1.837500 3.720100
1.861400 3.972100
1.885200 3.981200
1.909100 3.873500
1.932900 3.616600
1.956800 3.113400
1.980700 2.463200
2.004500 2.003700
2.028400 2.054800
2.052200 2.515500
2.076100 2.974700
2.100000 3.279000
2.123800 3.654300
2.147700 4.286200
2.171500 5.041600
2.195400 5.598700
2.219300 5.626900
2.243100 4.990600
2.267000 4.112500
2.290800 3.749700
2.314700 4.112400
2.338600 4.658300
2.362400 4.897800
2.386300 4.878300
2.410100 4.817700
2.434000 4.762900
2.457900 4.676900
2.481700 4.664300
2.505600 4.927200
2.529400 5.352300
2.553300 5.490100
2.577200 5.144000
2.601000 4.596400
2.624900 4.251100
2.648700 4.382100
2.672600 5.038000
2.696500 5.856600
2.720300 6.308600
2.744200 6.311200
2.768000 6.204800
2.791900 6.147700
2.815800 5.915300
2.839600 5.403900
2.863500 4.980300
2.887300 4.901900
2.911200 4.855000
2.935100 4.567600
2.958900 4.290200
2.982800 4.361700
3.006600 4.730200
3.030500 5.085000
3.054400 5.282600
3.078200 5.431900
3.102100 5.617700
3.125900 5.719300
3.149800 5.556800
3.173700 5.167300
3.197500 4.835100
3.221400 4.892100
3.245200 5.434700
3.269100 6.061700
3.293000 6.223400
3.316800 5.986400
3.340700 5.835800
3.364500 5.829800
3.388400 5.679700
3.412300 5.393300
3.436100 5.142400
3.460000 4.845900
3.483800 4.382500
3.507700 3.860700
3.531600 3.424800
3.555400 3.063400
3.579300 2.833300
3.603100 2.884000
3.627000 3.089300
3.650900 3.105300
3.674700 2.848000
3.698600 2.548200
3.722400 2.385500
3.746300 2.342800
3.770200 2.272700
3.794000 2.092300
3.817900 1.968700
3.841700 2.081500
3.865600 2.369400
3.889500 2.744500
3.913300 3.231900
3.937200 3.768900
3.961000 4.235500
3.984900 4.672600
4.008800 5.173500
4.032600 5.641900
4.056500 5.845400
4.080300 5.756600
4.104200 5.689100
4.128100 5.942500
4.151900 6.349700
4.175800 6.399800
4.199600 5.960400
4.223500 5.518100
4.247400 5.520600
4.271200 5.914700
4.295100 6.423600
4.318900 6.915400
4.342800 7.382800
4.366700 7.723500
4.390500 7.805500
4.414400 7.643900
4.438200 7.351100
4.462100 6.959600
4.486000 6.428500
4.509800 6.039100
4.533700 6.305600
4.557500 7.033300
4.581400 7.287800
4.605300 6.738900
4.629100 5.963500
4.653000 5.323900
4.676800 4.702200
4.700700 4.163500
4.724600 3.922600
4.748400 3.911600
4.772300 3.904700
4.796100 3.799900
4.820000 3.658100
4.843900 3.644600
4.867700 3.840000
4.891600 4.135100
4.915400 4.468300
4.939300 4.875500
4.963200 5.184700
4.987000 5.165700
5.010900 4.936800
5.034700 4.733300
5.058600 4.523600
5.082500 4.193000
5.106300 3.839300
5.130200 3.578100
5.154000 3.261300
5.177900 2.798100
5.201800 2.526700
5.225600 2.776900
5.249500 3.356000
5.273300 3.854600
5.297200 4.105800
5.321100 4.210100
5.344900 4.362400
5.368800 4.619500
5.392600 4.897600
5.416500 5.164600
5.440400 5.338200
5.464200 5.260300
5.488100 5.047500
5.511900 4.976000
5.535800 4.940200
5.559700 4.632000
5.583500 4.204000
5.607400 4.176100
5.631200 4.747700
5.655100 5.515000
5.679000 5.852600
5.702800 5.620300
5.726700 5.301600
5.750500 5.359800
5.774400 5.957500
5.798300 7.112200
5.822100 8.535700
5.846000 9.553800
5.869800 9.625000
5.893700 8.915700
5.917600 8.016900
5.941400 7.300100
5.965300 6.905500
5.989100 6.794800
6.013000 6.798700
6.036900 6.921400
6.060700 7.079300
6.084600 6.850900
6.108400 6.088600
6.132300 5.291100
6.156200 5.084900
6.180000 5.577000
6.203900 6.125500
6.227700 5.961700
6.251600 5.155500
6.275500 4.377000
6.299300 3.988900
6.323200 4.027200
6.347000 4.490500
6.370900 5.141200
6.394800 5.553200
6.418600 5.590400
6.442500 5.403100
6.466300 5.079400
6.490200 4.650200
6.514100 4.202900
6.537900 3.835200
6.561800 3.626300
6.585600 3.512100
6.609500 3.268900
6.633400 2.876500
6.657200 2.604300
6.681100 2.624900
6.704900 2.814600
6.728800 2.994200
6.752700 3.173200
6.776500 3.355700
6.800400 3.386700
6.824200 3.291000
6.848100 3.359600
6.872000 3.681400
6.895800 3.961600
6.919700 3.974600
6.943500 3.927700
6.967400 4.104100
6.991300 4.388700
7.015100 4.429900
7.039000 4.139600
7.062800 3.890500
7.086700 4.080200
7.110600 4.548400
7.134400 4.822100
7.158300 4.891200
7.182100 5.136100
7.206000 5.534800
7.229900 5.740500
7.253700 5.799300
7.277600 5.949000
7.301400 6.096700
7.325300 6.058800
7.349200 5.868700
7.373000 5.705400
7.396900 5.816000
7.420700 6.314200
7.444600 6.927000
7.468500 7.221600
7.492300 7.105300
7.516200 6.805800
7.540000 6.400800
7.563900 5.808300
7.587800 5.228400
7.611600 5.080000
7.635500 5.416400
7.659300 5.799400
7.683200 5.801800
7.707100 5.432800
7.730900 5.030400
7.754800 4.817200
7.778600 4.734000
7.802500 4.574900
7.826400 4.139900
7.850200 3.435700
7.874100 2.723700
7.897900 2.280000
7.921800 2.161800
7.945700 2.262400
7.969500 2.457700
7.993400 2.592600
8.017200 2.522600
8.041100 2.242400
8.065000 1.887500
8.088800 1.643900
8.112700 1.620400
8.136500 1.765700
8.160400 1.942200
8.184300 2.039100
8.208100 2.039600
8.232000 1.991900
8.255800 1.934200
8.279700 1.931700
8.303600 2.042700
8.327400 2.173900
8.351300 2.179900
8.375100 2.145600
8.399000 2.290000
8.422900 2.637800
8.446700 3.019100
8.470600 3.228500
8.494400 3.155700
8.518300 2.870300
8.542200 2.566800
8.566000 2.438800
8.589900 2.530500
8.613700 2.705100
8.637600 2.797900
8.661500 2.707300
8.685300 2.436000
8.709200 2.133300
8.733000 1.896700
8.756900 1.703300
8.780800 1.671400
8.804600 1.951000
8.828500 2.379500
8.852300 2.677900
8.876200 2.822600
8.900100 2.941500
8.923900 3.064500
8.947800 3.118600
8.971600 2.991300
8.995500 2.643200
9.019400 2.221600
9.043200 1.915500
9.067100 1.767100
9.090900 1.743100
9.114800 1.872300
9.138700 2.138500
9.162500 2.374600
9.186400 2.466900
9.210200 2.453000
9.234100 2.386300
9.258000 2.344000
9.281800 2.418600
9.305700 2.587500
9.329500 2.702000
9.353400 2.651800
9.377300 2.514900
9.401100 2.360900
9.425000 2.066800
9.448800 1.629700
9.472700 1.369700
9.496600 1.475200
9.520400 1.669400
9.544300 1.614800
9.568100 1.335400
9.592000 1.088800
9.615900 1.040800
9.639700 1.120600
9.663600 1.168900
9.687400 1.206200
9.711300 1.371600
9.735200 1.583100
9.759000 1.602900
9.782900 1.425200
9.806700 1.277100
9.830600 1.304400
9.854500 1.440000
9.878300 1.553300
9.902200 1.648200
9.926000 1.790400
9.949900 1.882600
9.973800 1.740800
9.997600 1.389400
10.021500 1.049900
10.045300 0.897900
10.069200 0.974300
10.093100 1.181300
10.116900 1.312200
10.140800 1.217600
10.164600 0.951100
10.188500 0.684700
10.212400 0.506800
10.236200 0.377600
10.260100 0.271400
10.283900 0.242900
10.307800 0.323100
10.331700 0.465600
10.355500 0.606000
10.379400 0.696800
10.403200 0.706600
10.427100 0.650000
10.451000 0.600000
10.474800 0.623700
10.498700 0.689000
10.522500 0.692300
10.546400 0.615200
10.570300 0.533900
10.594100 0.486000
10.618000 0.466200
10.641800 0.466400
10.665700 0.472000
10.689600 0.505900
10.713400 0.603600
10.737300 0.714800
10.761100 0.725100
10.785000 0.603600
10.808900 0.434000
10.832700 0.282700
10.856600 0.170400
10.880400 0.134500
10.904300 0.205300
10.928200 0.357800
10.952000 0.532200
10.975900 0.672100
10.999700 0.754200
11.023600 0.846000
11.047500 1.055700
11.071300 1.353900
11.095200 1.549200
11.119000 1.494700
11.142900 1.285200
11.166800 1.153900
11.190600 1.182800
11.214500 1.269600
11.238300 1.307500
11.262200 1.288600
11.286100 1.273500
11.309900 1.295600
11.333800 1.360700
11.357600 1.503600
11.381500 1.707100
11.405400 1.799400
11.429200 1.606600
11.453100 1.219100
11.476900 0.931200
11.500800 0.904500
11.524700 1.065300
11.548500 1.285100
11.572400 1.470900
11.596200 1.551100
11.620100 1.518700
11.644000 1.408000
11.667800 1.287200
11.691700 1.277000
11.715500 1.392600
11.739400 1.521500
11.763300 1.596000
11.787100 1.582600
11.811000 1.502300
11.834800 1.512500
11.858700 1.717300
11.882600 1.981900
11.906400 2.076400
11.930300 1.923800
11.954100 1.626100
11.978000 1.311100
12.001900 1.065700
12.025700 0.954000
12.049600 0.991800
12.073400 1.154300
12.097300 1.384300
12.121200 1.551300
12.145000 1.505300
12.168900 1.254100
12.192700 0.970800
12.216600 0.773700
12.240500 0.671400
12.264300 0.720200
12.288200 1.017000
12.312000 1.474800
12.335900 1.771500
12.359800 1.698000
12.383600 1.467300
12.407500 1.470700
12.431300 1.803000
12.455200 2.211900
12.479100 2.453900
12.502900 2.546900
12.526800 2.597900
12.550600 2.537900
12.574500 2.294000
12.598400 2.056200
12.622200 2.049400
12.646100 2.206900
12.669900 2.253700
12.693800 2.052700
12.717700 1.811200
12.741500 1.814300
12.765400 2.009700
12.789200 2.139700
12.813100 2.145100
12.837000 2.172900
12.860800 2.308600
12.884700 2.449100
12.908500 2.435500
12.932400 2.279800
12.956300 2.121900
12.980100 1.985800
13.004000 1.861500
13.027800 1.893600
13.051700 2.178300
13.075600 2.545100
13.099400 2.695800
13.123300 2.442800
13.147100 1.903400
13.171000 1.475600
13.194900 1.414000
13.218700 1.585800
13.242600 1.738600
13.266400 1.734500
13.290300 1.561900
13.314200 1.329700
13.338000 1.175500
13.361900 1.152000
13.385700 1.222700
13.409600 1.282600
13.433500 1.229200
13.457300 1.071200
13.481200 0.892600
13.505000 0.766400
13.528900 0.764000
13.552800 0.943100
13.576600 1.297600
13.600500 1.698300
13.624300 1.883100
13.648200 1.691100
13.672100 1.290500
13.695900 0.984800
13.719800 0.926600
13.743600 1.091000
13.767500 1.325300
13.791400 1.455200
13.815200 1.449500
13.839100 1.421700
13.862900 1.469900
13.886800 1.604800
13.910700 1.785500
13.934500 1.887000
13.958400 1.736700
13.982200 1.354600
14.006100 1.003900
14.030000 0.897400
14.053800 1.039700
14.077700 1.332000
14.101500 1.634400
14.125400 1.812700
14.149300 1.833100
14.173100 1.784000
14.197000 1.724100
14.220800 1.553600
14.244700 1.221900
14.268600 0.902100
14.292400 0.779000
14.316300 0.842700
14.340100 0.954400
14.364000 1.000900
14.387900 0.996600
14.411700 1.060000
14.435600 1.263800
14.459400 1.552300
14.483300 1.858500
14.507200 2.153100
14.531000 2.292300
14.554900 2.101800
14.578700 1.707700
14.602600 1.462800
14.626500 1.518000
14.650300 1.756600
14.674200 2.005300
14.698000 2.060900
14.721900 1.784700
14.745800 1.351000
14.769600 1.117300
14.793500 1.183600
14.817300 1.317600
14.841200 1.331100
14.865100 1.290500
14.888900 1.306800
14.912800 1.355100
14.936600 1.369600
14.960500 1.329000
14.984400 1.243300
15.008200 1.187500
15.032100 1.277600
15.055900 1.533400
15.079800 1.827300
15.103700 1.999400
15.127500 1.927000
15.151400 1.601700
15.175200 1.238400
15.199100 1.072300
15.223000 1.104700
15.246800 1.202500
15.270700 1.284500
15.294500 1.325900
15.318400 1.305300
15.342300 1.226400
15.366100 1.138700
15.390000 1.101600
15.413800 1.172600
15.437700 1.394100
15.461600 1.688600
15.485400 1.855300
15.509300 1.788400
15.533100 1.630600
15.557000 1.611400
15.580900 1.740700
15.604700 1.804800
15.628600 1.685900
15.652400 1.519800
15.676300 1.469300
15.700200 1.541200
15.724000 1.739000
15.747900 2.067800
15.771700 2.357600
15.795600 2.435000
15.819500 2.363900
15.843300 2.264400
15.867200 2.054700
15.891000 1.648200
15.914900 1.237500
15.938800 1.049500
15.962600 1.081500
15.986500 1.279700
16.010300 1.605500
16.034200 1.923000
16.058100 2.156800
16.081900 2.431300
16.105800 2.870200
16.129600 3.331000
16.153500 3.486100
16.177400 3.225700
16.201200 2.698500
16.225100 2.044000
16.248900 1.480500
16.272800 1.261300
16.296700 1.336900
16.320500 1.528200
16.344400 1.853700
16.368200 2.281200
16.392100 2.554400
16.416000 2.526800
16.439800 2.318500
16.463700 2.099200
16.487500 1.900300
16.511400 1.645300
16.535300 1.345300
16.559100 1.180800
16.583000 1.299400
16.606800 1.602200
16.630700 1.860500
16.654600 1.986000
16.678400 2.045100
16.702300 2.163100
16.726100 2.413900
16.750000 2.626600
16.773900 2.589800
16.797700 2.409500
16.821600 2.310500
16.845400 2.314000
16.869300 2.293600
16.893200 2.147200
16.917000 1.904800
16.940900 1.715800
16.964700 1.656400
16.988600 1.686600
17.012500 1.780700
17.036300 1.908800
17.060200 2.002300
17.084000 1.988100
17.107900 1.817400
17.131800 1.520800
17.155600 1.266100
17.179500 1.277100
17.203300 1.589100
17.227200 1.971600
17.251100 2.175800
17.274900 2.190700
17.298800 2.167800
17.322600 2.210600
17.346500 2.361800
17.370400 2.611600
17.394200 2.871700
17.418100 2.965700
17.441900 2.728600
17.465800 2.299900
17.489700 1.998700
17.513500 1.848700
17.537400 1.671600
17.561200 1.462700
17.585100 1.405000
17.609000 1.619100
17.632800 1.987100
17.656700 2.275500
17.680500 2.322700
17.704400 2.123500
17.728300 1.815200
17.752100 1.474300
17.776000 1.108700
17.799800 0.867500
17.823700 0.924100
17.847600 1.214400
17.871400 1.490900
17.895300 1.580100
17.919100 1.486500
17.943000 1.293300
17.966900 1.064200
17.990700 0.847400
18.014600 0.681400
18.038400 0.579600
18.062300 0.537900
18.086200 0.545600
18.110000 0.593400
18.133900 0.672800
18.157700 0.748700
18.181600 0.767000
18.205500 0.764900
18.229300 0.882300
18.253200 1.135500
18.277000 1.326800
18.300900 1.310800
18.324800 1.183900
18.348600 1.095100
18.372500 1.035800
18.396300 0.949500
18.420200 0.879000
18.444100 0.858500
18.467900 0.809000
18.491800 0.673300
18.515600 0.554900
18.539500 0.595300
18.563300 0.763800
18.587200 0.890600
18.611100 0.898000
18.634900 0.884500
18.658800 0.969100
18.682600 1.152400
18.706500 1.316100
18.730400 1.335000
18.754200 1.256200
18.778100 1.268200
18.801900 1.428000
18.825800 1.603100
18.849700 1.688400
18.873500 1.678300
18.897400 1.614000
18.921200 1.606300
18.945100 1.796900
18.969000 2.152100
18.992800 2.377000
19.016700 2.254000
19.040500 1.965700
19.064400 1.855100
19.088300 2.035700
19.112100 2.377400
19.136000 2.654800
19.159800 2.667300
19.183700 2.410100
19.207600 2.120500
19.231400 2.016700
19.255300 2.078800
19.279100 2.197000
19.303000 2.367000
19.326900 2.572100
19.350700 2.598000
19.374600 2.251200
19.398400 1.714800
19.422300 1.382100
19.446200 1.434700
19.470000 1.742500
19.493900 2.026200
19.517700 2.120800
19.541600 2.084300
19.565500 2.032700
19.589300 1.992500
19.613200 1.919900
19.637000 1.830500
19.660900 1.839000
19.684800 2.005800
19.708600 2.230300
19.732500 2.361800
19.756300 2.412500
19.780200 2.537700
19.804100 2.772600
19.827900 2.945200
19.851800 2.855100
19.875600 2.520000
19.899500 2.174300
19.923400 2.011200
19.947200 2.070700
19.971100 2.252400
19.994900 2.356700
20.018800 2.305700
20.042700 2.214700
20.066500 2.112200
20.090400 1.917400
20.114200 1.764500
20.138100 1.932300
20.162000 2.395500
20.185800 2.776700
20.209700 2.788700
20.233500 2.466800
20.257400 2.000600
20.281300 1.588700
20.305100 1.397600
20.329000 1.462200
20.352800 1.589200
20.376700 1.525800
20.400600 1.265300
20.424400 1.024300
20.448300 0.945200
20.472100 0.955600
20.496000 0.915100
20.519900 0.825200
20.543700 0.814500
20.567600 0.965800
20.591400 1.234000
20.615300 1.520300
20.639200 1.763500
20.663000 1.886900
20.686900 1.788600
20.710700 1.485800
20.734600 1.152800
20.758500 0.960000
20.782300 0.952300
20.806200 1.085400
20.830000 1.281000
20.853900 1.436200
20.877800 1.483200
20.901600 1.451900
20.925500 1.431200
20.949300 1.472600
20.973200 1.526600
20.997100 1.518800
21.020900 1.488400
21.044800 1.521700
21.068600 1.577600
21.092500 1.579000
21.116400 1.583300
21.140200 1.639100
21.164100 1.671500
21.187900 1.658400
21.211800 1.689900
21.235700 1.759900
21.259500 1.750400
21.283400 1.701400
21.307200 1.736800
21.331100 1.743800
21.355000 1.562700
21.378800 1.334300
21.402700 1.324400
21.426500 1.589200
21.450400 1.927300
21.474300 2.063900
21.498100 1.918500
21.522000 1.670200
21.545800 1.513400
21.569700 1.456500
21.593600 1.430100
21.617400 1.463400
21.641300 1.615600
21.665100 1.799800
21.689000 1.840700
21.712900 1.683500
21.736700 1.419900
21.760600 1.184900
21.784400 1.085500
21.808300 1.100200
21.832200 1.080400
21.856000 0.998500
21.879900 1.020800
21.903700 1.208900
21.927600 1.427100
21.951500 1.549500
21.975300 1.549100
21.999200 1.494800
22.023000 1.494100
22.046900 1.545000
22.070800 1.533200
22.094600 1.424400
22.118500 1.353900
22.142300 1.460800
22.166200 1.706800
22.190100 1.967800
22.213900 2.180400
22.237800 2.268100
22.261600 2.163600
22.285500 1.979800
22.309400 1.927400
22.333200 2.117500
22.357100 2.498600
22.380900 2.798800
22.404800 2.700900
22.428700 2.259800
22.452500 1.842100
22.476400 1.632100
22.500200 1.525900
22.524100 1.436100
22.548000 1.421800
22.571800 1.543700
22.595700 1.774000
22.619500 1.988900
22.643400 2.050200
22.667300 2.038500
22.691100 2.159200
22.715000 2.364700
22.738800 2.373200
22.762700 2.057200
22.786600 1.622300
22.810400 1.346200
22.834300 1.296000
22.858100 1.342200
22.882000 1.342300
22.905900 1.343500
22.929700 1.494500
22.953600 1.734200
22.977400 1.846300
23.001300 1.757100
23.025200 1.578100
23.049000 1.479500
23.072900 1.529500
23.096700 1.627100
23.120600 1.686900
23.144500 1.761800
23.168300 1.880700
23.192200 1.945000
23.216000 1.911500
23.239900 1.937000
23.263800 2.201000
23.287600 2.638300
23.311500 2.985200
23.335300 3.046800
23.359200 2.840300
23.383100 2.587100
23.406900 2.517300
23.430800 2.576900
23.454600 2.491500
23.478500 2.200000
23.502400 1.980200
23.526200 2.035700
23.550100 2.270700
23.573900 2.514000
23.597800 2.628500
23.621700 2.567700
23.645500 2.452900
23.669400 2.357200
23.693200 2.198800
23.717100 1.972000
23.741000 1.801200
23.764800 1.794400
23.788700 1.980000
23.812500 2.267600
23.836400 2.506700
23.860300 2.622200
23.884100 2.595400
23.908000 2.411700
23.931800 2.130000
23.955700 1.876500
23.979600 1.747300
24.003400 1.785500
24.027300 1.930400
24.051100 2.013600
24.075000 1.969000
24.098900 1.935700
24.122700 2.046900
24.146600 2.251500
24.170400 2.432400
24.194300 2.537600
24.218200 2.538500
24.242000 2.485400
24.265900 2.501800
24.289700 2.588100
24.313600 2.609000
24.337500 2.509100
24.361300 2.393700
24.385200 2.329100
24.409000 2.260700
24.432900 2.214000
24.456800 2.342200
24.480600 2.685900
24.504500 3.065500
24.528300 3.241400
24.552200 3.158400
24.576100 3.045300
24.599900 3.059900
24.623800 3.050700
24.647600 2.959100
24.671500 2.920400
24.695400 2.898200
24.719200 2.716200
24.743100 2.365900
24.766900 2.103500
24.790800 2.212900
24.814700 2.642600
24.838500 2.958500
24.862400 2.830500
24.886200 2.486300
24.910100 2.405700
24.934000 2.661800
24.957800 2.936600
24.981700 3.020100
25.005500 2.926400
25.029400 2.767800
25.053300 2.669700
25.077100 2.635600
25.101000 2.558700
25.124800 2.434500
25.148700 2.389100
25.172600 2.443700
25.196400 2.514600
25.220300 2.609200
25.244100 2.738000
25.268000 2.786700
25.291900 2.670200
25.315700 2.496700
25.339600 2.368500
25.363400 2.197600
25.387300 2.038500
25.411200 2.125300
25.435000 2.414000
25.458900 2.663500
25.482700 2.767200
25.506600 2.734300
25.530500 2.651800
25.554300 2.578000
25.578200 2.420000
25.602000 2.130000
25.625900 1.859600
25.649800 1.762600
25.673600 1.823700
25.697500 1.961500
25.721300 2.107200
25.745200 2.207100
25.769100 2.255700
25.792900 2.252900
25.816800 2.211600
25.840600 2.189900
25.864500 2.202900
25.888400 2.179800
25.912200 2.076200
25.936100 1.999100
25.959900 2.105000
25.983800 2.351300
26.007700 2.527900
26.031500 2.522300
26.055400 2.346200
26.079200 2.034900
26.103100 1.694900
26.127000 1.511700
26.150800 1.557500
26.174700 1.734800
26.198500 1.975700
26.222400 2.253000
26.246300 2.514500
26.270100 2.793600
26.294000 3.131100
26.317800 3.429000
26.341700 3.526100
26.365600 3.261800
26.389400 2.671300
26.413300 2.115900
26.437100 1.857600
26.461000 1.808200
26.484900 1.852400
26.508700 1.986500
26.532600 2.172400
26.556400 2.350800
26.580300 2.484300
26.604200 2.512400
26.628000 2.413500
26.651900 2.267300
26.675700 2.213200
26.699600 2.341300
26.723500 2.554900
26.747300 2.647800
26.771200 2.566400
26.795000 2.429100
26.818900 2.360000
26.842800 2.408900
26.866600 2.490300
26.890500 2.513200
26.914300 2.586100
26.938200 2.793900
26.962100 2.934600
26.985900 2.817300
27.009800 2.573400
27.033600 2.448700
27.057500 2.558000
27.081400 2.839800
27.105200 3.124800
27.129100 3.281400
27.152900 3.212600
27.176800 2.849500
27.200700 2.368700
27.224500 2.186800
27.248400 2.518100
27.272200 3.083800
27.296100 3.321700
27.320000 2.940300
27.343800 2.260500
27.367700 1.845400
27.391500 1.924500
27.415400 2.333900
27.439300 2.780800
27.463100 3.034400
27.487000 3.007300
27.510800 2.759600
27.534700 2.452000
27.558600 2.268100
27.582400 2.251400
27.606300 2.256400
27.630100 2.199100
27.654000 2.173100
27.677900 2.245600
27.701700 2.343600
27.725600 2.386300
27.749400 2.417400
27.773300 2.484300
27.797200 2.501000
27.821000 2.380200
27.844900 2.193200
27.868700 2.140800
27.892600 2.334700
27.916500 2.541500
27.940300 2.469100
27.964200 2.300900
27.988000 2.371600
28.011900 2.554700
28.035800 2.616300
28.059600 2.735300
28.083500 3.052100
28.107300 3.251300
28.131200 3.074400
28.155100 2.689000
28.178900 2.409000
28.202800 2.398300
28.226600 2.620600
28.250500 2.945100
28.274400 3.184200
28.298200 3.233200
28.322100 3.275500
28.345900 3.500100
28.369800 3.789700
28.393700 3.901600
28.417500 3.675600
28.441400 3.152600
28.465200 2.670100
28.489100 2.633000
28.513000 3.053600
28.536800 3.508800
28.560700 3.698500
28.584500 3.703300
28.608400 3.588100
28.632300 3.291700
28.656100 2.904700
28.680000 2.639300
28.703800 2.583400
28.727700 2.733100
28.751600 3.175600
28.775400 3.820300
28.799300 4.162100
28.823100 3.880200
28.847000 3.305700
28.870900 2.852700
28.894700 2.500800
28.918600 2.136100
28.942400 1.872500
28.966300 1.829700
28.990200 1.953700
29.014000 2.070700
29.037900 2.052600
29.061700 2.046300
29.085600 2.310800
29.109500 2.788500
29.133300 3.154100
29.157200 3.220700
29.181000 3.124600
29.204900 3.063600
29.228800 2.985400
29.252600 2.792300
29.276500 2.620200
29.300300 2.565400
29.324200 2.423700
29.348100 2.024200
29.371900 1.545500
29.395800 1.274000
29.419600 1.289100
29.443500 1.495300
29.467400 1.752400
29.491200 1.894900
29.515100 1.813800
29.538900 1.550400
29.562800 1.282700
29.586700 1.208800
29.610500 1.315900
29.634400 1.411400
29.658200 1.462600
29.682100 1.594400
29.706000 1.786700
29.729800 1.916300
29.753700 2.000500
29.777500 2.150600
29.801400 2.365200
29.825300 2.511500
29.849100 2.572200
29.873000 2.686500
29.896800 2.756800
29.920700 2.457300
29.944600 1.818600
29.968400 1.306300
29.992300 1.201900
30.016100 1.340000
30.040000 1.460100
30.063900 1.494400
30.087700 1.549800
30.111600 1.723600
30.135400 1.956900
30.159300 2.145100
30.183200 2.252500
30.207000 2.223700
30.230900 2.066100
30.254700 1.917300
30.278600 1.805000
30.302500 1.681100
30.326300 1.699200
30.350200 2.095100
30.374000 2.760900
30.397900 3.181900
30.421800 3.065400
30.445600 2.719800
30.469500 2.526200
30.493300 2.450900
30.517200 2.270600
30.541100 1.993500
30.564900 1.808200
30.588800 1.755200
30.612600 1.766600
30.636500 1.810900
30.660400 1.800200
30.684200 1.707400
30.708100 1.680800
30.731900 1.749100
30.755800 1.795800
30.779700 1.885100
30.803500 2.115600
30.827400 2.318200
30.851200 2.322700
30.875100 2.222600
30.899000 2.166900
30.922800 2.229500
30.946700 2.405100
30.970500 2.504800
30.994400 2.325100
31.018300 1.949300
31.042100 1.649800
31.066000 1.637300
31.089800 1.959100
31.113700 2.449100
31.137600 2.767700
31.161400 2.646200
31.185300 2.215000
31.209100 1.919800
31.233000 1.957400
31.256900 2.069700
31.280700 2.018800
31.304600 1.858800
31.328400 1.710500
31.352300 1.654700
31.376200 1.761200
31.400000 1.988200
31.423900 2.144400
31.447700 2.064300
31.471600 1.837700
31.495500 1.739300
31.519300 1.878400
31.543200 2.092700
31.567000 2.177200
31.590900 2.131200
31.614800 2.174800
31.638600 2.421900
31.662500 2.669000
31.686300 2.683000
31.710200 2.509200
31.734100 2.357100
31.757900 2.341800
31.781800 2.457100
31.805600 2.602400
31.829500 2.606000
31.853400 2.439300
31.877200 2.246400
31.901100 2.133000
31.924900 2.149400
31.948800 2.304800
31.972700 2.517400
31.996500 2.679800
32.020400 2.690200
32.044200 2.498500
32.068100 2.191800
32.092000 1.905300
32.115800 1.718500
32.139700 1.604400
32.163500 1.458500
32.187400 1.276700
32.211300 1.164100
32.235100 1.201000
32.259000 1.411500
32.282800 1.737800
32.306700 2.083300
32.330600 2.410900
32.354400 2.705700
32.378300 2.921100
32.402100 2.983200
32.426000 2.799100
32.449900 2.430100
32.473700 2.130000
32.497600 2.107200
32.521400 2.473700
32.545300 3.213500
32.569200 3.970900
32.593000 4.226600
32.616900 3.814600
32.640700 3.018400
32.664600 2.229400
32.688500 1.691000
32.712300 1.474600
32.736200 1.514200
32.760000 1.668100
32.783900 1.779100
32.807800 1.764200
32.831600 1.706500
32.855500 1.705900
32.879300 1.760200
32.903200 1.845800
32.927100 1.933200
32.950900 2.027100
32.974800 2.176000
32.998600 2.344100
33.022500 2.414400
33.046400 2.336800
33.070200 2.194500
33.094100 2.086100
33.117900 2.000400
33.141800 1.886700
33.165700 1.762300
33.189500 1.738100
33.213400 1.999700
33.237200 2.580800
33.261100 3.114300
33.285000 3.155700
33.308800 2.807800
33.332700 2.588000
33.356500 2.657900
33.380400 2.650100
33.404300 2.266800
33.428100 1.736800
33.452000 1.526600
33.475800 1.748300
33.499700 2.147000
33.523600 2.522000
33.547400 2.786700
33.571300 2.807000
33.595100 2.565400
33.619000 2.280200
33.642900 2.157600
33.666700 2.198600
33.690600 2.286600
33.714400 2.324300
33.738300 2.330600
33.762200 2.432300
33.786000 2.617400
33.809900 2.676600
33.833700 2.566200
33.857600 2.506900
33.881500 2.573900
33.905300 2.597200
33.929200 2.519000
33.953000 2.454500
33.976900 2.544100
34.000800 2.895300
34.024600 3.374400
34.048500 3.610100
34.072300 3.480300
34.096200 3.188100
34.120100 2.861200
34.143900 2.612700
34.167800 2.642700
34.191600 2.850100
34.215500 2.824300
34.239400 2.491000
34.263200 2.233700
34.287100 2.231300
34.310900 2.264700
34.334800 2.192700
34.358700 2.160400
34.382500 2.350400
34.406400 2.745800
34.430200 3.164300
34.454100 3.396100
34.478000 3.298200
34.501800 2.951000
34.525700 2.648200
34.549500 2.552500
34.573400 2.570000
34.597300 2.585200
34.621100 2.514400
34.645000 2.297800
34.668800 2.073400
34.692700 2.082700
34.716600 2.404100
34.740400 2.993500
34.764300 3.716200
34.788100 4.232400
34.812000 4.253400
34.835900 3.879900
34.859700 3.358600
34.883600 2.823600
34.907400 2.450300
34.931300 2.406600
34.955200 2.634400
34.979000 2.978400
35.002900 3.330700
35.026700 3.534400
35.050600 3.478900
35.074500 3.275700
35.098300 3.139300
35.122200 3.153700
35.146000 3.243800
35.169900 3.378800
35.193800 3.599100
35.217600 3.840900
35.241500 3.997700
35.265300 4.026500
35.289200 3.879300
35.313100 3.537400
35.336900 3.171100
35.360800 3.041500
35.384600 3.131600
35.408500 3.213900
35.432400 3.253000
35.456200 3.363600
35.480100 3.553600
35.503900 3.743200
35.527800 3.933500
35.551700 4.241500
35.575500 4.615700
35.599400 4.655000
35.623200 4.097100
35.647100 3.248300
35.671000 2.542400
35.694800 2.120600
35.718700 2.033800
35.742500 2.316800
35.766400 2.874900
35.790300 3.491500
35.814100 3.853000
35.838000 3.785200
35.861800 3.472800
35.885700 3.214200
35.909600 3.054400
35.933400 2.774800
35.957300 2.265000
35.981100 1.777400
36.005000 1.602300
36.028900 1.669200
36.052700 1.707700
36.076600 1.640500
36.100400 1.594500
36.124300 1.635300
36.148200 1.705900
36.172000 1.804300
36.195900 2.019200
36.219700 2.291000
36.243600 2.329000
36.267500 1.976200
36.291300 1.520100
36.315200 1.369500
36.339000 1.548600
36.362900 1.745400
36.386800 1.748200
36.410600 1.712300
36.434500 1.969400
36.458300 2.562400
36.482200 3.094100
36.506100 3.201500
36.529900 2.940500
36.553800 2.558900
36.577600 2.321100
36.601500 2.462700
36.625400 2.903000
36.649200 3.258800
36.673100 3.303800
36.696900 3.169200
36.720800 3.059400
36.744700 2.983400
36.768500 2.894600
36.792400 2.813100
36.816200 2.722500
36.840100 2.623300
36.864000 2.561200
36.887800 2.544300
36.911700 2.589900
36.935500 2.701400
36.959400 2.835100
36.983300 2.983200
37.007100 3.099400
37.031000 3.047700
37.054800 2.799200
37.078700 2.528000
37.102600 2.448400
37.126400 2.560000
37.150300 2.598200
37.174100 2.355600
37.198000 1.905200
37.221900 1.459000
37.245700 1.149400
37.269600 0.970300
37.293400 0.903300
37.317300 0.990800
37.341200 1.255700
37.365000 1.616300
37.388900 1.872500
37.412700 1.880400
37.436600 1.764700
37.460500 1.785600
37.484300 1.975800
37.508200 2.098400
37.532000 2.031300
37.555900 1.929900
37.579800 1.904100
37.603600 1.843900
37.627500 1.658800
37.651300 1.405100
37.675200 1.139000
37.699100 0.882200
37.722900 0.690900
37.746800 0.603900
37.770600 0.617000
37.794500 0.699400
37.818400 0.774000
37.842200 0.764800
37.866100 0.651500
37.889900 0.497700
37.913800 0.441800
37.937700 0.529600
37.961500 0.624900
37.985400 0.603700
38.009200 0.525400
38.033100 0.497400
38.057000 0.517100
38.080800 0.541500
38.104700 0.544200
38.128500 0.493800
38.152400 0.399900
38.176300 0.313100
38.200100 0.267500
38.224000 0.264700
38.247800 0.261400
38.271700 0.204600
38.295600 0.111600
38.319400 0.040900
38.343300 0.012600
38.367100 0.013200
38.391000 0.029600
38.414900 0.047500
38.438700 0.049400
38.462600 0.033200
38.486400 0.014400
38.510300 0.004000
38.534200 0.000700
38.558000 0.000100
38.581900 0.000000
38.605700 0.000000
38.629600 0.000000
38.653500 0.000000
38.677300 0.000000
38.701200 0.000000
38.725000 0.000000
38.748900 0.000000
38.772800 0.000000
38.796600 0.000000
38.820500 0.000000
38.844300 0.000000
38.868200 0.000000
38.892100 0.000000
38.915900 0.000000
38.939800 0.000000
38.963600 0.000000
38.987500 0.000000
39.011400 0.000000
39.035200 0.000000
39.059100 0.000000
39.082900 0.000000
39.106800 0.000000
39.130700 0.000000
39.154500 0.000000
39.178400 0.000000
39.202200 0.000000
39.226100 0.000000
39.250000 0.000000
39.273800 0.000000
39.297700 0.000000
39.321500 0.000000
39.345400 0.000000
39.369300 0.000000
39.393100 0.000000
39.417000 0.000000
39.440800 0.000000
39.464700 0.000000
39.488600 0.000000
39.512400 0.000000
39.536300 0.000000
39.560100 0.000000
39.584000 0.000000
39.607900 0.000000
39.631700 0.000000
39.655600 0.000000
39.679400 0.000000
39.703300 0.000000
39.727200 0.000000
39.751000 0.000000
39.774900 0.000000
39.798700 0.000000
39.822600 0.000000
39.846500 0.000000
39.870300 0.000000
39.894200 0.000000
39.918000 0.000000
39.941900 0.000000
39.965800 0.000000
39.989600 0.000000
40.013500 0.000000
40.037300 0.000000
40.061200 0.000000
40.085100 0.000000
40.108900 0.000000
40.132800 0.000000
40.156600 0.000000
40.180500 0.000000
40.204400 0.000000
40.228200 0.000000
40.252100 0.000000
40.275900 0.000000
40.299800 0.000000
40.323700 0.000000
40.347500 0.000000
40.371400 0.000000
40.395200 0.000000
40.419100 0.000000
40.443000 0.000000
40.466800 0.000000
40.490700 0.000000
40.514500 0.000000
40.538400 0.000000
40.562300 0.000000
40.586100 0.000000
e
