set title 'mp-24504 - Density of States'
set xlabel 'Energy (eV)'
set ylabel 'DOS (states/eV)'
set grid
set xrange [-10:10]
set yrange [0:5.710]
set xzeroaxis lt -1
set terminal png size 800,600
set output 'mp-24504_dos_gnuplot.png'
plot '-' using 1:2 with lines title 'DOS'
-13.492600 0.000000
-13.459000 0.000000
-13.425500 0.000000
-13.391900 0.000000
-13.358400 0.000000
-13.324800 0.000000
-13.291300 0.000000
-13.257700 0.000000
-13.224100 0.000000
-13.190600 0.000000
-13.157000 0.000000
-13.123500 0.000000
-13.089900 0.000000
-13.056400 0.000000
-13.022800 0.000000
-12.989300 0.000000
-12.955700 0.000000
-12.922200 0.000000
-12.888600 0.000000
-12.855100 0.000000
-12.821500 0.000000
-12.787900 0.000000
-12.754400 0.000000
-12.720800 0.000000
-12.687300 0.000000
-12.653700 0.000000
-12.620200 0.000000
-12.586600 0.000000
-12.553100 0.000000
-12.519500 0.000000
-12.486000 0.000000
-12.452400 0.000000
-12.418800 0.000000
-12.385300 0.000000
-12.351700 0.000000
-12.318200 0.000000
-12.284600 0.000000
-12.251100 0.000000
-12.217500 0.000000
-12.184000 0.000000
-12.150400 0.000000
-12.116900 0.000000
-12.083300 0.000000
-12.049800 0.000000
-12.016200 0.000000
-11.982600 0.000000
-11.949100 0.000000
-11.915500 0.000000
-11.882000 0.000000
-11.848400 0.000000
-11.814900 0.000000
-11.781300 0.000000
-11.747800 0.000000
-11.714200 0.000000
-11.680700 0.000000
-11.647100 0.000000
-11.613600 0.000000
-11.580000 0.000000
-11.546400 0.000000
-11.512900 0.000000
-11.479300 0.000000
-11.445800 0.000000
-11.412200 0.000000
-11.378700 0.000000
-11.345100 0.000000
-11.311600 0.000000
-11.278000 0.000000
-11.244500 0.000000
-11.210900 0.000000
-11.177400 0.000000
-11.143800 0.000000
-11.110200 0.000000
-11.076700 0.000000
-11.043100 0.000000
-11.009600 0.000000
-10.976000 0.000000
-10.942500 0.000000
-10.908900 0.000000
-10.875400 0.000000
-10.841800 0.000000
-10.808300 0.000000
-10.774700 0.000000
-10.741200 0.000000
-10.707600 0.000000
-10.674000 0.000000
-10.640500 0.000000
-10.606900 0.000000
-10.573400 0.000000
-10.539800 0.000000
-10.506300 0.000000
-10.472700 0.000000
-10.439200 0.000300
-10.405600 0.039400
-10.372100 0.144800
-10.338500 0.302200
-10.305000 0.402700
-10.271400 0.463400
-10.237800 0.483900
-10.204300 0.546200
-10.170700 0.615600
-10.137200 0.685300
-10.103600 0.747600
-10.070100 0.801900
-10.036500 0.855600
-10.003000 0.920800
-9.969400 0.990500
-9.935900 1.053400
-9.902300 1.117800
-9.868800 1.185700
-9.835200 1.254800
-9.801600 1.328100
-9.768100 1.413100
-9.734500 1.524500
-9.701000 1.637100
-9.667400 1.763100
-9.633900 1.904000
-9.600300 2.057800
-9.566800 2.224000
-9.533200 2.405100
-9.499700 3.175000
-9.466100 3.353100
-9.432600 3.044500
-9.399000 3.088400
-9.365400 3.099700
-9.331900 3.076300
-9.298300 3.035600
-9.264800 3.275700
-9.231200 2.977900
-9.197700 2.908300
-9.164100 2.860900
-9.130600 3.037900
-9.097000 3.201300
-9.063500 3.271700
-9.029900 3.283100
-8.996300 4.242000
-8.962800 4.351700
-8.929200 4.813800
-8.895700 4.295800
-8.862100 4.978500
-8.828600 3.323000
-8.795000 2.810100
-8.761500 2.388200
-8.727900 2.096800
-8.694400 1.942100
-8.660800 1.784500
-8.627300 1.545700
-8.593700 1.505900
-8.560100 1.268700
-8.526600 0.936200
-8.493000 0.609100
-8.459500 0.321900
-8.425900 0.029300
-8.392400 0.000000
-8.358800 0.000000
-8.325300 0.000000
-8.291700 0.000000
-8.258200 0.000000
-8.224600 0.000000
-8.191100 0.000000
-8.157500 0.000000
-8.123900 0.000000
-8.090400 0.000000
-8.056800 0.000000
-8.023300 0.000000
-7.989700 0.000000
-7.956200 0.000000
-7.922600 0.000000
-7.889100 0.000000
-7.855500 0.000000
-7.822000 0.000000
-7.788400 0.000000
-7.754900 0.000000
-7.721300 0.000000
-7.687700 0.000000
-7.654200 0.000000
-7.620600 0.000000
-7.587100 0.000000
-7.553500 0.000000
-7.520000 0.000000
-7.486400 0.000000
-7.452900 0.000000
-7.419300 0.000000
-7.385800 0.000000
-7.352200 0.000000
-7.318700 0.000000
-7.285100 0.000000
-7.251500 0.000000
-7.218000 0.000000
-7.184400 0.000000
-7.150900 0.000000
-7.117300 0.000000
-7.083800 0.000000
-7.050200 0.000000
-7.016700 0.000000
-6.983100 0.000000
-6.949600 0.000000
-6.916000 0.000000
-6.882500 0.000000
-6.848900 0.000000
-6.815300 0.000000
-6.781800 0.000000
-6.748200 0.000000
-6.714700 0.000000
-6.681100 0.000000
-6.647600 0.000000
-6.614000 0.000000
-6.580500 0.000000
-6.546900 0.000000
-6.513400 0.000000
-6.479800 0.000000
-6.446300 0.000000
-6.412700 0.000000
-6.379100 0.000000
-6.345600 0.000000
-6.312000 0.000000
-6.278500 0.000000
-6.244900 0.000000
-6.211400 0.000000
-6.177800 0.000000
-6.144300 0.000000
-6.110700 0.000000
-6.077200 0.000000
-6.043600 0.000000
-6.010100 0.000000
-5.976500 0.000000
-5.942900 0.000000
-5.909400 0.000000
-5.875800 0.000000
-5.842300 0.000000
-5.808700 0.000000
-5.775200 0.000000
-5.741600 0.000000
-5.708100 0.000000
-5.674500 0.000000
-5.641000 0.000000
-5.607400 0.000000
-5.573800 0.000000
-5.540300 0.000000
-5.506700 0.000000
-5.473200 0.000000
-5.439600 0.000000
-5.406100 0.000000
-5.372500 0.000000
-5.339000 0.000000
-5.305400 0.000000
-5.271900 0.000000
-5.238300 0.000000
-5.204800 0.000000
-5.171200 0.000000
-5.137600 0.000000
-5.104100 0.000000
-5.070500 0.000000
-5.037000 0.000000
-5.003400 0.000000
-4.969900 0.000000
-4.936300 0.000000
-4.902800 0.000000
-4.869200 0.000000
-4.835700 0.000000
-4.802100 0.000000
-4.768600 0.000000
-4.735000 0.000000
-4.701400 0.000000
-4.667900 0.000000
-4.634300 0.000000
-4.600800 0.000000
-4.567200 0.000000
-4.533700 0.000000
-4.500100 0.000000
-4.466600 0.000000
-4.433000 0.000000
-4.399500 0.000000
-4.365900 0.000000
-4.332400 0.000000
-4.298800 0.000000
-4.265200 0.000000
-4.231700 0.000000
-4.198100 0.000000
-4.164600 0.000000
-4.131000 0.000000
-4.097500 0.000000
-4.063900 0.000000
-4.030400 0.000000
-3.996800 0.000000
-3.963300 0.000000
-3.929700 0.000000
-3.896200 0.000000
-3.862600 0.000000
-3.829000 0.000000
-3.795500 0.000000
-3.761900 0.000000
-3.728400 0.000000
-3.694800 0.000000
-3.661300 0.000000
-3.627700 0.000000
-3.594200 0.000000
-3.560600 0.000000
-3.527100 0.000000
-3.493500 0.000000
-3.460000 0.000000
-3.426400 0.000000
-3.392800 0.000000
-3.359300 0.000000
-3.325700 0.000000
-3.292200 0.000000
-3.258600 0.000000
-3.225100 0.000000
-3.191500 0.000000
-3.158000 0.000000
-3.124400 0.000000
-3.090900 0.000000
-3.057300 0.000000
-3.023800 0.000000
-2.990200 0.000000
-2.956600 0.000000
-2.923100 0.000000
-2.889500 0.000000
-2.856000 0.000000
-2.822400 0.000000
-2.788900 0.000000
-2.755300 0.000000
-2.721800 0.000000
-2.688200 0.000000
-2.654700 0.000000
-2.621100 0.000000
-2.587600 0.000000
-2.554000 0.000000
-2.520400 0.000000
-2.486900 0.000000
-2.453300 0.000000
-2.419800 0.000000
-2.386200 0.000000
-2.352700 0.000000
-2.319100 0.000000
-2.285600 0.000000
-2.252000 0.000000
-2.218500 0.000000
-2.184900 0.000000
-2.151300 0.000000
-2.117800 0.000000
-2.084200 0.000000
-2.050700 0.000000
-2.017100 0.000000
-1.983600 0.000000
-1.950000 0.000000
-1.916500 0.000000
-1.882900 0.000000
-1.849400 0.000000
-1.815800 0.000000
-1.782300 0.000000
-1.748700 0.000000
-1.715100 0.000000
-1.681600 0.000000
-1.648000 0.000000
-1.614500 0.000000
-1.580900 0.000000
-1.547400 0.000000
-1.513800 0.000000
-1.480300 0.000000
-1.446700 0.000000
-1.413200 0.000000
-1.379600 0.000000
-1.346100 0.000000
-1.312500 0.000000
-1.278900 0.000000
-1.245400 0.000000
-1.211800 0.000000
-1.178300 0.000000
-1.144700 0.000000
-1.111200 0.000000
-1.077600 0.000000
-1.044100 0.000000
-1.010500 0.000000
-0.977000 0.000000
-0.943400 0.000000
-0.909900 0.000000
-0.876300 0.000000
-0.842700 0.000000
-0.809200 0.000000
-0.775600 0.000000
-0.742100 0.000000
-0.708500 0.000000
-0.675000 0.000000
-0.641400 0.000000
-0.607900 0.000000
-0.574300 0.000000
-0.540800 0.000000
-0.507200 0.000000
-0.473700 0.000000
-0.440100 0.000000
-0.406500 0.000000
-0.373000 0.000000
-0.339400 0.000000
-0.305900 0.000000
-0.272300 0.000000
-0.238800 0.000000
-0.205200 0.000000
-0.171700 0.000000
-0.138100 0.000000
-0.104600 0.000000
-0.071000 0.000000
-0.037500 0.000000
-0.003900 0.000000
0.029700 0.000000
0.063200 0.000000
0.096800 0.000000
0.130300 0.000000
0.163900 0.000000
0.197400 0.000000
0.231000 0.000000
0.264500 0.000000
0.298100 0.000000
0.331600 0.000000
0.365200 0.000000
0.398700 0.000000
0.432300 0.000000
0.465900 0.000000
0.499400 0.000000
0.533000 0.000000
0.566500 0.000000
0.600100 0.000000
0.633600 0.000000
0.667200 0.000000
0.700700 0.000000
0.734300 0.000000
0.767800 0.000000
0.801400 0.000000
0.834900 0.000000
0.868500 0.000000
0.902100 0.000000
0.935600 0.000000
0.969200 0.000000
1.002700 0.032900
1.036300 0.167200
1.069800 0.405400
1.103400 0.761700
1.136900 1.227600
1.170500 1.646900
1.204000 1.893800
1.237600 2.316500
1.271200 2.542700
1.304700 3.013600
1.338300 4.376300
1.371800 5.190700
1.405400 4.991900
1.438900 4.519200
1.472500 4.012600
1.506000 3.695700
1.539600 3.467700
1.573100 3.315400
1.606700 3.253500
1.640200 3.208100
1.673800 3.172800
1.707400 3.109700
1.740900 3.296300
1.774500 3.267900
1.808000 2.706400
1.841600 2.320600
1.875100 1.954500
1.908700 1.607600
1.942200 1.504400
1.975800 1.425700
2.009300 1.353000
2.042900 1.287300
2.076400 1.227200
2.110000 1.172500
2.143600 1.123200
2.177100 1.079000
2.210700 1.039800
2.244200 1.013700
2.277800 1.060600
2.311300 1.192600
2.344900 1.144200
2.378400 1.200800
2.412000 1.250300
2.445500 1.292500
2.479100 1.327600
2.512600 1.355500
2.546200 1.376200
2.579800 1.375900
2.613300 1.321400
2.646900 1.219600
2.680400 1.123800
2.714000 1.043100
2.747500 0.988900
2.781100 0.955500
2.814600 0.925300
2.848200 1.008800
2.881700 1.004900
2.915300 0.999200
2.948800 0.900500
2.982400 0.869100
3.016000 0.837200
3.049500 0.805600
3.083100 0.774600
3.116600 0.743900
3.150200 0.714000
3.183700 0.686400
3.217300 0.620700
3.250800 0.566100
3.284400 0.545700
3.317900 0.538700
3.351500 0.538200
3.385000 0.538300
3.418600 0.538100
3.452200 0.537700
3.485700 0.537000
3.519300 0.536000
3.552800 0.534700
3.586400 0.533000
3.619900 0.529800
3.653500 0.521600
3.687000 0.514700
3.720600 0.569900
3.754100 0.658800
3.787700 0.661800
3.821200 0.672100
3.854800 0.677700
3.888400 0.696400
3.921900 0.716600
3.955500 0.738200
3.989000 0.763000
4.022600 0.792000
4.056100 0.821000
4.089700 0.850000
4.123200 0.879000
4.156800 0.907900
4.190300 0.936800
4.223900 0.963700
4.257400 0.981600
4.291000 0.989600
4.324600 0.987900
4.358100 0.976500
4.391700 0.962600
4.425200 0.984600
4.458800 1.028000
4.492300 0.996800
4.525900 0.934100
4.559400 0.879100
4.593000 0.854200
4.626500 0.846600
4.660100 0.846600
4.693700 0.843400
4.727200 0.841800
4.760800 0.841700
4.794300 0.843200
4.827900 0.846300
4.861400 0.850800
4.895000 0.857100
4.928500 0.865900
4.962100 0.874000
4.995600 0.880400
5.029200 0.890400
5.062700 0.904200
5.096300 0.921900
5.129900 0.943400
5.163400 0.978300
5.197000 1.004400
5.230500 1.028300
5.264100 1.054400
5.297600 1.082500
5.331200 1.112400
5.364700 1.144200
5.398300 1.177300
5.431800 1.211700
5.465400 1.247300
5.498900 1.284300
5.532500 1.322500
5.566100 1.365900
5.599600 1.444500
5.633200 1.565000
5.666700 1.677600
5.700300 1.652600
5.733800 1.655000
5.767400 1.652100
5.800900 1.644000
5.834500 1.600000
5.868000 1.546900
5.901600 1.499500
5.935100 1.458000
5.968700 1.421500
6.002300 1.412700
6.035800 1.404600
6.069400 1.395700
6.102900 1.386600
6.136500 1.377500
6.170000 1.368400
6.203600 1.358800
6.237100 1.339800
6.270700 1.328600
6.304200 1.317900
6.337800 1.307800
6.371300 1.298200
6.404900 1.288400
6.438500 1.278000
6.472000 1.266300
6.505600 1.253000
6.539100 1.236900
6.572700 1.223800
6.606200 1.211500
6.639800 1.199000
6.673300 1.186200
6.706900 1.173200
6.740400 1.159900
6.774000 1.146400
6.807500 1.132900
6.841100 1.121700
6.874700 1.114200
6.908200 1.158000
6.941800 1.309600
6.975300 1.390900
7.008900 1.416000
7.042400 1.447600
7.076000 1.488800
7.109500 1.529800
7.143100 1.563700
7.176600 1.592100
7.210200 1.616700
7.243700 1.639600
7.277300 1.632000
7.310900 1.611900
7.344400 1.596600
7.378000 1.572700
7.411500 1.536100
7.445100 1.496100
7.478600 1.455600
7.512200 1.414600
7.545700 1.374000
7.579300 1.334300
7.612800 1.296100
7.646400 1.261300
7.679900 1.230600
7.713500 1.203600
7.747100 1.195400
7.780600 1.191000
7.814200 1.189200
7.847700 1.189000
7.881300 1.189600
7.914800 1.190900
7.948400 1.195800
7.981900 1.234400
8.015500 1.251100
8.049000 1.271600
8.082600 1.292500
8.116200 1.313700
8.149700 1.335200
8.183300 1.449400
8.216800 1.577100
8.250400 1.630900
8.283900 1.623600
8.317500 1.612000
8.351000 1.596200
8.384600 1.585200
8.418100 1.582700
8.451700 1.588700
8.485200 1.597000
8.518800 1.604200
8.552400 1.620900
8.585900 1.647000
8.619500 1.678000
8.653000 1.712000
8.686600 1.753600
8.720100 1.819200
8.753700 1.908000
8.787200 1.993200
8.820800 2.072500
8.854300 2.174800
8.887900 2.268000
8.921400 2.354500
8.955000 2.417700
8.988600 2.470500
9.022100 2.500700
9.055700 2.504100
9.089200 2.478700
9.122800 2.425500
9.156300 2.390100
9.189900 2.262900
9.223400 2.000800
9.257000 1.710300
9.290500 1.494100
9.324100 1.351900
9.357600 1.249300
9.391200 1.164400
9.424800 1.080100
9.458300 1.043700
9.491900 0.973500
9.525400 0.914500
9.559000 0.866600
9.592500 0.830000
9.626100 0.804700
9.659600 0.781800
9.693200 0.767800
9.726700 0.762700
9.760300 0.764900
9.793800 0.773100
9.827400 0.776200
9.861000 0.729100
9.894500 0.710700
9.928100 0.696600
9.961600 0.693400
9.995200 0.693400
10.028700 0.696600
10.062300 0.703000
10.095800 0.712800
10.129400 0.719700
10.162900 0.749000
10.196500 0.784300
10.230000 0.825700
10.263600 0.873900
10.297200 0.929100
10.330700 0.991400
10.364300 1.061400
10.397800 1.138000
10.431400 1.231100
10.464900 1.351000
10.498500 1.479100
10.532000 1.577800
10.565600 1.573900
10.599100 1.654000
10.632700 1.720500
10.666200 1.802000
10.699800 1.911400
10.733400 1.907600
10.766900 1.876600
10.800500 1.855900
10.834000 1.851200
10.867600 1.856200
10.901100 1.867000
10.934700 1.881800
10.968200 1.900700
11.001800 1.923700
11.035300 1.948100
11.068900 1.981200
11.102400 2.036000
11.136000 2.110400
11.169600 2.192700
11.203100 2.380600
11.236700 2.527100
11.270200 2.587600
11.303800 2.560300
11.337300 2.456000
11.370900 2.381600
11.404400 2.320200
11.438000 2.250700
11.471500 2.163400
11.505100 2.047600
11.538700 1.896700
11.572200 1.717300
11.605800 1.597000
11.639300 1.506700
11.672900 1.437100
11.706400 1.384900
11.740000 1.351800
11.773500 1.382000
11.807100 1.362500
11.840600 1.323100
11.874200 1.284500
11.907700 1.243800
11.941300 1.200800
11.974900 1.155700
12.008400 1.159500
12.042000 1.149400
12.075500 1.130600
12.109100 1.103100
12.142600 1.067000
12.176200 0.991600
12.209700 0.969900
12.243300 0.921400
12.276800 0.893600
12.310400 0.950800
12.343900 0.988000
12.377500 1.005300
12.411100 1.005900
12.444600 0.991500
12.478200 0.957300
12.511700 0.915200
12.545300 0.896600
12.578800 0.901600
12.612400 0.929500
12.645900 0.976600
12.679500 1.055300
12.713000 1.181500
12.746600 1.325300
12.780100 1.502400
12.813700 1.617600
12.847300 1.656300
12.880800 1.945600
12.914400 1.783400
12.947900 1.800200
12.981500 1.797500
13.015000 1.745700
13.048600 1.661600
13.082100 1.545700
13.115700 1.430200
13.149200 1.351500
13.182800 1.282100
13.216300 1.231600
13.249900 1.301800
13.283500 1.311000
13.317000 1.280000
13.350600 1.299400
13.384100 1.320900
13.417700 1.353900
13.451200 1.410300
13.484800 1.464000
13.518300 1.490300
13.551900 1.519300
13.585400 1.549200
13.619000 1.570800
13.652500 1.582800
13.686100 1.584900
13.719700 1.593600
13.753200 1.618900
13.786800 1.653300
13.820300 1.690800
13.853900 1.731600
13.887400 2.030400
13.921000 2.190000
13.954500 2.266300
13.988100 2.312600
14.021600 2.408200
14.055200 2.384100
14.088700 2.247300
14.122300 2.040100
14.155900 1.962400
14.189400 1.891700
14.223000 1.830300
14.256500 1.778700
14.290100 1.736800
14.323600 1.680100
14.357200 1.652000
14.390700 1.624500
14.424300 1.597400
14.457800 1.570900
14.491400 1.544900
14.524900 1.519000
14.558500 1.492300
14.592100 1.465100
14.625600 1.442200
14.659200 1.421800
14.692700 1.389700
14.726300 1.415700
14.759800 1.402200
14.793400 1.387600
14.826900 1.372100
14.860500 1.356300
14.894000 1.340100
14.927600 1.323300
14.961200 1.306000
14.994700 1.288200
15.028300 1.270000
15.061800 1.251200
15.095400 1.231900
15.128900 1.212200
15.162500 1.167500
15.196000 1.166400
15.229600 1.164400
15.263100 1.161400
15.296700 1.315800
15.330200 1.405600
15.363800 1.568800
15.397400 1.467300
15.430900 1.447800
15.464500 1.443500
15.498000 1.448300
15.531600 1.457200
15.565100 1.491900
15.598700 1.534700
15.632200 1.583200
15.665800 1.634000
15.699300 1.722300
15.732900 1.837600
15.766400 2.024900
15.800000 2.081000
15.833600 1.992500
15.867100 1.900300
15.900700 1.844400
15.934200 1.810700
15.967800 1.788300
16.001300 1.779400
16.034900 1.786200
16.068400 1.807700
16.102000 1.843600
16.135500 1.826700
16.169100 1.824400
16.202600 1.832000
16.236200 1.837800
16.269800 1.841800
16.303300 1.855500
16.336900 1.869000
16.370400 1.869000
16.404000 1.880400
16.437500 1.895800
16.471100 1.917900
16.504600 2.076400
16.538200 2.104900
16.571700 2.110700
16.605300 2.093200
16.638800 2.080200
16.672400 2.069100
16.706000 2.010000
16.739500 1.989500
16.773100 1.971400
16.806600 1.955700
16.840200 1.940200
16.873700 1.923700
16.907300 1.910200
16.940800 1.902800
16.974400 1.922400
17.007900 1.944500
17.041500 1.953900
17.075000 1.964300
17.108600 1.984900
17.142200 1.997200
17.175700 1.997000
17.209300 1.991900
17.242800 2.004200
17.276400 2.009700
17.309900 2.011100
17.343500 2.011000
17.377000 1.980100
17.410600 2.048300
17.444100 2.252900
17.477700 2.108000
17.511200 1.829900
17.544800 1.696700
17.578400 1.660500
17.611900 1.628400
17.645500 1.600300
17.679000 1.576000
17.712600 1.555400
17.746100 1.538600
17.779700 1.525600
17.813200 1.488800
17.846800 1.476600
17.880300 1.476700
17.913900 1.496700
17.947500 1.536600
17.981000 1.550700
18.014600 1.542800
18.048100 1.532400
18.081700 1.520700
18.115200 1.509400
18.148800 1.495700
18.182300 1.487900
18.215900 1.482300
18.249400 1.478500
18.283000 1.476600
18.316500 1.476700
18.350100 1.480200
18.383700 1.500500
18.417200 1.525700
18.450800 1.552400
18.484300 1.598900
18.517900 1.636500
18.551400 1.673100
18.585000 1.700700
18.618500 1.658100
18.652100 1.696200
18.685600 1.735500
18.719200 1.776500
18.752700 1.818700
18.786300 1.860400
18.819900 1.906100
18.853400 1.953700
18.887000 1.998400
18.920500 2.002500
18.954100 1.983100
18.987600 1.990100
19.021200 2.018300
19.054700 2.045400
19.088300 2.071400
19.121800 2.096300
19.155400 2.120100
19.188900 2.120100
19.222500 2.195700
19.256100 2.397900
19.289600 2.458400
19.323200 2.346100
19.356700 2.204200
19.390300 2.133900
19.423800 2.058400
19.457400 2.002000
19.490900 1.969900
19.524500 1.981600
19.558000 2.100500
19.591600 2.136600
19.625100 2.205800
19.658700 2.275200
19.692300 2.168700
19.725800 2.121200
19.759400 2.124700
19.792900 2.133000
19.826500 2.148900
19.860000 2.163400
19.893600 2.172800
19.927100 2.176900
19.960700 2.106900
19.994200 2.045500
20.027800 2.002300
20.061300 1.968800
20.094900 2.006000
20.128500 2.052400
20.162000 2.208500
20.195600 2.080600
20.229100 1.964000
20.262700 1.858800
20.296200 1.780700
20.329800 1.725400
20.363300 1.682400
20.396900 1.651600
20.430400 1.629800
20.464000 1.616900
20.497500 1.612600
20.531100 1.613100
20.564700 1.603700
20.598200 1.599300
20.631800 1.604500
20.665300 1.617200
20.698900 1.631400
20.732400 1.650300
20.766000 1.671800
20.799500 1.694000
20.833100 1.727300
20.866600 1.823400
20.900200 1.951400
20.933700 2.033600
20.967300 2.096100
21.000900 2.147900
21.034400 2.189800
21.068000 2.255700
21.101500 2.307800
21.135100 2.114100
21.168600 2.003900
21.202200 1.860400
21.235700 1.748700
21.269300 1.568100
21.302800 1.500000
21.336400 1.455800
21.370000 1.420800
21.403500 1.392600
21.437100 1.471900
21.470600 1.642200
21.504200 1.777800
21.537700 1.870200
21.571300 1.597300
21.604800 1.592900
21.638400 1.591900
21.671900 1.599400
21.705500 1.614200
21.739000 1.630100
21.772600 1.675200
21.806200 1.718900
21.839700 1.761300
21.873300 1.829400
21.906800 1.962200
21.940400 2.051500
21.973900 2.073300
22.007500 2.025800
22.041000 2.004300
22.074600 2.005000
22.108100 2.025500
22.141700 2.069300
22.175200 2.141700
22.208800 2.176000
22.242400 2.201400
22.275900 2.217300
22.309500 2.244700
22.343000 2.314400
22.376600 2.373100
22.410100 2.398200
22.443700 2.414900
22.477200 2.423200
22.510800 2.416300
22.544300 2.397700
22.577900 2.369800
22.611400 2.338900
22.645000 2.290000
22.678600 2.230800
22.712100 2.171200
22.745700 2.116500
22.779200 2.068400
22.812800 2.031300
22.846300 2.011100
22.879900 2.024100
22.913400 1.926600
22.947000 1.831700
22.980500 1.794100
23.014100 1.768400
23.047600 1.756900
23.081200 1.753200
23.114800 1.756500
23.148300 1.760000
23.181900 1.763000
23.215400 1.748000
23.249000 1.716600
23.282500 1.686600
23.316100 1.666900
23.349600 1.648700
23.383200 1.627800
23.416700 1.604300
23.450300 1.586000
23.483800 1.564100
23.517400 1.563900
23.551000 1.585300
23.584500 1.625200
23.618100 1.675100
23.651600 1.734600
23.685200 1.803800
23.718700 1.880600
23.752300 1.952200
23.785800 2.013700
23.819400 2.074500
23.852900 2.139400
23.886500 2.202800
23.920000 2.231800
23.953600 2.257100
23.987200 2.282100
24.020700 2.301800
24.054300 2.315100
24.087800 2.321900
24.121400 2.324500
24.154900 2.323000
24.188500 2.317000
24.222000 2.390900
24.255600 2.352400
24.289100 2.291500
24.322700 2.235700
24.356200 2.270900
24.389800 2.303200
24.423400 2.272900
24.456900 2.291900
24.490500 2.251000
24.524000 2.220300
24.557600 2.200700
24.591100 2.159600
24.624700 2.077700
24.658200 2.014100
24.691800 1.945800
24.725300 1.924200
24.758900 1.935700
24.792500 1.947600
24.826000 1.960500
24.859600 1.976800
24.893100 2.003200
24.926700 2.039000
24.960200 2.074600
24.993800 2.100900
25.027300 2.127800
25.060900 2.151400
25.094400 2.165300
25.128000 2.190500
25.161500 2.223900
25.195100 2.238500
25.228700 2.239900
25.262200 2.238100
25.295800 2.221300
25.329300 2.214100
25.362900 2.188500
25.396400 2.170500
25.430000 2.145800
25.463500 2.114300
25.497100 2.076100
25.530600 2.063300
25.564200 2.007100
25.597700 1.962500
25.631300 1.933600
25.664900 2.057000
25.698400 2.096600
25.732000 2.045500
25.765500 1.873700
25.799100 1.837600
25.832600 1.816200
25.866200 1.798600
25.899700 1.781900
25.933300 1.766100
25.966800 1.751800
26.000400 1.740400
26.033900 1.717100
26.067500 1.724600
26.101100 1.740100
26.134600 1.764800
26.168200 1.856000
26.201700 2.062000
26.235300 2.062300
26.268800 2.047000
26.302400 2.035900
26.335900 2.113100
26.369500 2.164800
26.403000 2.212400
26.436600 2.256100
26.470100 2.295900
26.503700 2.331900
26.537300 2.371000
26.570800 2.432300
26.604400 2.510600
26.637900 2.555200
26.671500 2.369900
26.705000 2.279900
26.738600 2.276200
26.772100 2.278400
26.805700 2.289900
26.839200 2.311900
26.872800 2.351300
26.906300 2.421700
26.939900 2.527800
26.973500 2.633200
27.007000 2.721200
27.040600 2.641000
27.074100 2.416600
27.107700 2.325300
27.141200 2.227500
27.174800 2.185000
27.208300 2.093400
27.241900 1.931100
27.275400 1.850500
27.309000 1.737300
27.342500 1.691800
27.376100 1.658400
27.409700 1.634500
27.443200 1.620300
27.476800 1.621300
27.510300 1.638200
27.543900 1.659200
27.577400 1.676400
27.611000 1.684400
27.644500 1.715300
27.678100 1.715200
27.711600 1.705100
27.745200 1.708800
27.778700 1.726900
27.812300 1.751900
27.845900 1.783700
27.879400 1.838700
27.913000 1.881300
27.946500 1.932600
27.980100 1.992700
28.013600 2.017900
28.047200 2.053700
28.080700 2.189900
28.114300 2.246100
28.147800 2.290100
28.181400 2.325600
28.215000 2.321400
28.248500 2.503400
28.282100 2.639100
28.315600 2.641900
28.349200 2.554300
28.382700 2.493600
28.416300 2.428000
28.449800 2.391200
28.483400 2.348700
28.516900 2.333400
28.550500 2.325500
28.584000 2.324200
28.617600 2.331600
28.651200 2.344700
28.684700 2.363100
28.718300 2.386700
28.751800 2.414700
28.785400 2.444200
28.818900 2.456600
28.852500 2.448600
28.886000 2.448800
28.919600 2.460800
28.953100 2.472600
28.986700 2.470100
29.020200 2.456700
29.053800 2.440100
29.087400 2.331100
29.120900 2.278600
29.154500 2.218500
29.188000 2.150600
29.221600 2.075600
29.255100 2.014800
29.288700 1.999500
29.322200 2.077300
29.355800 2.262100
29.389300 2.181500
29.422900 2.071200
29.456400 2.030500
29.490000 1.992100
29.523600 1.955500
29.557100 1.921000
29.590700 1.889100
29.624200 1.854400
29.657800 1.838800
29.691300 1.839900
29.724900 1.866300
29.758400 1.922400
29.792000 2.012100
29.825500 2.191600
29.859100 2.509500
29.892600 2.532200
29.926200 2.794200
29.959800 2.904000
29.993300 2.975300
30.026900 3.020500
30.060400 3.067900
30.094000 3.126300
30.127500 3.221700
30.161100 3.335800
30.194600 3.371700
30.228200 3.335800
30.261700 3.228300
30.295300 3.012500
30.328800 2.736600
30.362400 2.478400
30.396000 2.281800
30.429500 2.101300
30.463100 1.900200
30.496600 1.781700
30.530200 1.670800
30.563700 1.566400
30.597300 1.467700
30.630800 1.505500
30.664400 1.379300
30.697900 1.144600
30.731500 1.124000
30.765000 1.107900
30.798600 1.110200
30.832200 1.156600
30.865700 1.108100
30.899300 1.110100
30.932800 1.168800
30.966400 1.232500
30.999900 1.301000
31.033500 1.374600
31.067000 1.453100
31.100600 1.555600
31.134100 1.699300
31.167700 2.139600
31.201200 2.197700
31.234800 2.259600
31.268400 2.360900
31.301900 2.458300
31.335500 2.542100
31.369000 2.584500
31.402600 2.594100
31.436100 2.619600
31.469700 2.635100
31.503200 2.694600
31.536800 3.231700
31.570300 2.758700
31.603900 2.725000
31.637500 2.671700
31.671000 2.607200
31.704600 2.541500
31.738100 2.477500
31.771700 2.421100
31.805200 2.372500
31.838800 2.331700
31.872300 2.298600
31.905900 2.281300
31.939400 2.270700
31.973000 2.389400
32.006500 2.391700
32.040100 2.281900
32.073700 2.290200
32.107200 2.302400
32.140800 2.318600
32.174300 2.339300
32.207900 2.368600
32.241400 2.399700
32.275000 2.434300
32.308500 2.472600
32.342100 2.522600
32.375600 2.567300
32.409200 2.551700
32.442700 2.368800
32.476300 2.422000
32.509900 2.460600
32.543400 2.477900
32.577000 2.481000
32.610500 2.522400
32.644100 2.523500
32.677600 2.526700
32.711200 2.506500
32.744700 2.495800
32.778300 2.482600
32.811800 3.170000
32.845400 2.547900
32.878900 2.559800
32.912500 2.579400
32.946100 2.485400
32.979600 2.503600
33.013200 2.441200
33.046700 2.277600
33.080300 2.255600
33.113800 2.240600
33.147400 2.228400
33.180900 2.218700
33.214500 2.211400
33.248000 2.206300
33.281600 2.219700
33.315100 2.213400
33.348700 2.204400
33.382300 2.192500
33.415800 2.161100
33.449400 2.156700
33.482900 2.163600
33.516500 2.200300
33.550000 2.242200
33.583600 2.281300
33.617100 2.315700
33.650700 2.345500
33.684200 2.352600
33.717800 2.390800
33.751300 2.427100
33.784900 2.468300
33.818500 2.498500
33.852000 2.527200
33.885600 2.566500
33.919100 2.603200
33.952700 2.635100
33.986200 2.673100
34.019800 2.726700
34.053300 2.714100
34.086900 2.709300
34.120400 2.864300
34.154000 2.905000
34.187500 2.829600
34.221100 2.754200
34.254700 2.736700
34.288200 2.709000
34.321800 2.652300
34.355300 2.570100
34.388900 2.336100
34.422400 2.168400
34.456000 2.058200
34.489500 1.994200
34.523100 1.965400
34.556600 1.942900
34.590200 1.924800
34.623700 1.911100
34.657300 1.902200
34.690900 1.898300
34.724400 1.905900
34.758000 1.923900
34.791500 1.927600
34.825100 1.917100
34.858600 1.892500
34.892200 1.824000
34.925700 1.787200
34.959300 1.773200
34.992800 1.797400
35.026400 1.774000
35.060000 1.777800
35.093500 1.818400
35.127100 1.842700
35.160600 1.873100
35.194200 1.905900
35.227700 1.939800
35.261300 1.974000
35.294800 2.022100
35.328400 2.067400
35.361900 2.105400
35.395500 2.145600
35.429000 2.301400
35.462600 2.370200
35.496200 2.456600
35.529700 2.280700
35.563300 2.278800
35.596800 2.306400
35.630400 2.363400
35.663900 2.434800
35.697500 2.521400
35.731000 2.593900
35.764600 2.712400
35.798100 2.770500
35.831700 2.764000
35.865200 2.719700
35.898800 2.680900
35.932400 2.682800
35.965900 2.679700
35.999500 2.657000
36.033000 2.604000
36.066600 2.499600
36.100100 2.497700
36.133700 2.497800
36.167200 2.499800
36.200800 2.568600
36.234300 2.581800
36.267900 2.592700
36.301400 2.605100
36.335000 2.622900
36.368600 2.645500
36.402100 2.580800
36.435700 2.588400
36.469200 2.596900
36.502800 2.604700
36.536300 2.707600
36.569900 2.921700
36.603400 2.947000
36.637000 2.957500
36.670500 2.883000
36.704100 2.908700
36.737600 2.919300
36.771200 2.926500
36.804800 2.934000
36.838300 2.952600
36.871900 2.950700
36.905400 2.937000
36.939000 2.903800
36.972500 2.853600
37.006100 2.795600
37.039600 2.743800
37.073200 2.698800
37.106700 2.662600
37.140300 2.640500
37.173800 2.616400
37.207400 2.617200
37.241000 2.616700
37.274500 2.611900
37.308100 2.597200
37.341600 2.588800
37.375200 2.587000
37.408700 2.584400
37.442300 2.579500
37.475800 2.572400
37.509400 2.525900
37.542900 2.479500
37.576500 2.449000
37.610000 2.431700
37.643600 2.427300
37.677200 2.436100
37.710700 2.457700
37.744300 2.490400
37.777800 2.528700
37.811400 2.475400
37.844900 2.515700
37.878500 2.488600
37.912000 2.551800
37.945600 2.589900
37.979100 2.636400
38.012700 2.690600
38.046200 2.763500
38.079800 2.667000
38.113400 2.765300
38.146900 2.795100
38.180500 2.747000
38.214000 2.725400
38.247600 2.689900
38.281100 2.638600
38.314700 2.584900
38.348200 2.529100
38.381800 2.467100
38.415300 2.399700
38.448900 2.338500
38.482500 2.283400
38.516000 2.238000
38.549600 2.203200
38.583100 2.177300
38.616700 2.155500
38.650200 2.133600
38.683800 2.111400
38.717300 2.092400
38.750900 2.074800
38.784400 2.060400
38.818000 2.051600
38.851500 2.049700
38.885100 2.052800
38.918700 2.060900
38.952200 2.073800
38.985800 2.082200
39.019300 2.102100
39.052900 2.126600
39.086400 2.133300
39.120000 2.140700
39.153500 2.169100
39.187100 2.163600
39.220600 2.169100
39.254200 2.182700
39.287700 2.194800
39.321300 2.204800
39.354900 2.216200
39.388400 2.233200
39.422000 2.229900
39.455500 2.246800
39.489100 2.295200
39.522600 2.330500
39.556200 2.372600
39.589700 2.407700
39.623300 2.445800
39.656800 2.602400
39.690400 2.666600
39.723900 2.637300
39.757500 2.611500
39.791100 2.600400
39.824600 2.613400
39.858200 2.636700
39.891700 2.648800
39.925300 2.641200
39.958800 2.608600
39.992400 2.582500
40.025900 2.558900
40.059500 2.532300
40.093000 2.509900
40.126600 2.492900
40.160100 2.600900
40.193700 2.606800
40.227300 2.615800
40.260800 2.508200
40.294400 2.486600
40.327900 2.446700
40.361500 2.424600
40.395000 2.818200
40.428600 2.575600
40.462100 2.543500
40.495700 2.544200
40.529200 2.539900
40.562800 2.545500
40.596300 2.508400
40.629900 2.510400
40.663500 2.531900
40.697000 2.559400
40.730600 2.593400
40.764100 2.624700
40.797700 2.644400
40.831200 2.620300
40.864800 2.599100
40.898300 2.584700
40.931900 2.539000
40.965400 2.526100
40.999000 2.518200
41.032500 2.513400
41.066100 2.691500
41.099700 2.785600
41.133200 2.836600
41.166800 2.865000
41.200300 2.885000
41.233900 2.894900
41.267400 2.893800
41.301000 2.834700
41.334500 2.813300
41.368100 2.805300
41.401600 2.782000
41.435200 2.766700
41.468700 2.783200
41.502300 2.801100
41.535900 2.816000
41.569400 2.823100
41.603000 2.836500
41.636500 2.856400
41.670100 2.682200
41.703600 2.551200
41.737200 2.498500
41.770700 2.467900
41.804300 2.440300
41.837800 2.417500
41.871400 2.402400
41.905000 2.391000
41.938500 2.398300
41.972100 2.406600
42.005600 2.422700
42.039200 2.443600
42.072700 2.430500
42.106300 2.410100
42.139800 2.389800
42.173400 2.370800
42.206900 2.354000
42.240500 2.318900
42.274000 2.333800
42.307600 2.353700
42.341200 2.372300
42.374700 2.388600
42.408300 2.386400
42.441800 2.387900
42.475400 2.394000
42.508900 2.405000
42.542500 2.420900
42.576000 2.472200
42.609600 2.590500
42.643100 2.674200
42.676700 2.723100
42.710200 2.760700
42.743800 2.788700
42.777400 2.808000
42.810900 2.810700
42.844500 2.801800
42.878000 2.779500
42.911600 2.743600
42.945100 2.701100
42.978700 2.677000
43.012200 2.672400
43.045800 2.672900
43.079300 2.706600
43.112900 2.866900
43.146400 2.910300
43.180000 2.909900
43.213600 2.899000
43.247100 2.808100
43.280700 2.861300
43.314200 2.909200
43.347800 2.964100
43.381300 3.010600
43.414900 3.064900
43.448400 3.103000
43.482000 3.118500
43.515500 3.123200
43.549100 3.098800
43.582600 3.065400
43.616200 3.009400
43.649800 2.950100
43.683300 2.886000
43.716900 2.819600
43.750400 2.759900
43.784000 2.708600
43.817500 2.701600
43.851100 2.660500
43.884600 2.612900
43.918200 3.048900
43.951700 2.411500
43.985300 2.366000
44.018800 2.323200
44.052400 2.324000
44.086000 2.320700
44.119500 2.309100
44.153100 2.339100
44.186600 2.337400
44.220200 2.337200
44.253700 2.338800
44.287300 2.339900
44.320800 2.340800
44.354400 2.340500
44.387900 2.326400
44.421500 2.193300
44.455000 2.177400
44.488600 2.169900
44.522200 2.167200
44.555700 2.149000
44.589300 2.506000
44.622800 2.652700
44.656400 2.769100
44.689900 2.854700
44.723500 2.917100
44.757000 2.960900
44.790600 2.986000
44.824100 2.996200
44.857700 2.897800
44.891200 2.684300
44.924800 2.544500
44.958400 2.526900
44.991900 2.545100
45.025500 2.615600
45.059000 2.636100
45.092600 2.657800
45.126100 2.667900
45.159700 2.668100
45.193200 2.664200
45.226800 2.661300
45.260300 2.611100
45.293900 2.611500
45.327500 2.601100
45.361000 2.612200
45.394600 2.617000
45.428100 2.581200
45.461700 2.544200
45.495200 2.507500
45.528800 2.472700
45.562300 2.439600
45.595900 2.407200
45.629400 2.359700
45.663000 2.322900
45.696500 2.286700
45.730100 2.252100
45.763700 2.211400
45.797200 2.170200
45.830800 2.136200
45.864300 2.114200
45.897900 2.098500
45.931400 2.070700
45.965000 2.041300
45.998500 2.032600
46.032100 2.026500
46.065600 2.022200
46.099200 2.018700
46.132700 2.016500
46.166300 2.015500
46.199900 2.015700
46.233400 2.017000
46.267000 2.019300
46.300500 2.033500
46.334100 2.070700
46.367600 2.106900
46.401200 2.131300
46.434700 2.147300
46.468300 2.173100
46.501800 2.231400
46.535400 2.304100
46.568900 2.390800
46.602500 2.504800
46.636100 2.659400
46.669600 2.907800
46.703200 3.126500
46.736700 3.104500
46.770300 3.072800
46.803800 3.006900
46.837400 2.745600
46.870900 2.619700
46.904500 2.504700
46.938000 2.430800
46.971600 2.357000
47.005100 2.216800
47.038700 2.082900
47.072300 1.960000
47.105800 1.833900
47.139400 1.718200
47.172900 1.617700
47.206500 1.510100
47.240000 1.395100
47.273600 1.272600
47.307100 1.134300
47.340700 1.002800
47.374200 0.884800
47.407800 0.780300
47.441300 0.689400
47.474900 0.612100
47.508500 0.547300
47.542000 0.479000
47.575600 0.446800
47.609100 0.420600
47.642700 0.396100
47.676200 0.372700
47.709800 0.350200
47.743300 0.321600
47.776900 0.302700
47.810400 0.284500
47.844000 0.267100
47.877500 0.250500
47.911100 0.234600
47.944700 0.219500
47.978200 0.205200
48.011800 0.191600
48.045300 0.178700
48.078900 0.166600
48.112400 0.155200
48.146000 0.144500
48.179500 0.134500
48.213100 0.125100
48.246600 0.116400
48.280200 0.108300
48.313700 0.100900
48.347300 0.094500
48.380900 0.088800
48.414400 0.083300
48.448000 0.077900
48.481500 0.072700
48.515100 0.054200
48.548600 0.052500
48.582200 0.050900
48.615700 0.049200
48.649300 0.047700
48.682800 0.046100
48.716400 0.044600
48.750000 0.043100
48.783500 0.041700
48.817100 0.040300
48.850600 0.039000
48.884200 0.037600
48.917700 0.036300
48.951300 0.035000
48.984800 0.033700
49.018400 0.032500
49.051900 0.031300
49.085500 0.030100
49.119000 0.028900
49.152600 0.027700
49.186200 0.026600
49.219700 0.025400
49.253300 0.024300
49.286800 0.023200
49.320400 0.022200
49.353900 0.021100
49.387500 0.020100
49.421000 0.019100
49.454600 0.018100
49.488100 0.017200
49.521700 0.016200
49.555200 0.015300
49.588800 0.014400
49.622400 0.013500
49.655900 0.012600
49.689500 0.011800
49.723000 0.011000
49.756600 0.010200
49.790100 0.009400
49.823700 0.008600
49.857200 0.007900
49.890800 0.007200
49.924300 0.006500
49.957900 0.005800
49.991400 0.005200
50.025000 0.004600
50.058600 0.004100
50.092100 0.003500
50.125700 0.003000
50.159200 0.002600
50.192800 0.002200
50.226300 0.001800
50.259900 0.001500
50.293400 0.001200
50.327000 0.000900
50.360500 0.000700
50.394100 0.000500
50.427600 0.000300
50.461200 0.000200
50.494800 0.000100
50.528300 0.000000
50.561900 0.000000
50.595400 0.000000
50.629000 0.000000
50.662500 0.000000
50.696100 0.000000
50.729600 0.000000
50.763200 0.000000
50.796700 0.000000
50.830300 0.000000
50.863800 0.000000
50.897400 0.000000
50.931000 0.000000
50.964500 0.000000
50.998100 0.000000
51.031600 0.000000
51.065200 0.000000
51.098700 0.000000
51.132300 0.000000
51.165800 0.000000
51.199400 0.000000
51.232900 0.000000
51.266500 0.000000
51.300000 0.000000
51.333600 0.000000
51.367200 0.000000
51.400700 0.000000
51.434300 0.000000
51.467800 0.000000
51.501400 0.000000
51.534900 0.000000
51.568500 0.000000
51.602000 0.000000
51.635600 0.000000
51.669100 0.000000
51.702700 0.000000
51.736200 0.000000
51.769800 0.000000
51.803400 0.000000
51.836900 0.000000
51.870500 0.000000
51.904000 0.000000
51.937600 0.000000
51.971100 0.000000
52.004700 0.000000
52.038200 0.000000
52.071800 0.000000
52.105300 0.000000
52.138900 0.000000
52.172500 0.000000
52.206000 0.000000
52.239600 0.000000
52.273100 0.000000
52.306700 0.000000
52.340200 0.000000
52.373800 0.000000
52.407300 0.000000
52.440900 0.000000
52.474400 0.000000
52.508000 0.000000
52.541500 0.000000
52.575100 0.000000
52.608700 0.000000
52.642200 0.000000
52.675800 0.000000
52.709300 0.000000
52.742900 0.000000
52.776400 0.000000
52.810000 0.000000
52.843500 0.000000
52.877100 0.000000
52.910600 0.000000
52.944200 0.000000
52.977700 0.000000
53.011300 0.000000
53.044900 0.000000
53.078400 0.000000
53.112000 0.000000
53.145500 0.000000
53.179100 0.000000
53.212600 0.000000
53.246200 0.000000
53.279700 0.000000
53.313300 0.000000
53.346800 0.000000
53.380400 0.000000
53.413900 0.000000
53.447500 0.000000
53.481100 0.000000
53.514600 0.000000
53.548200 0.000000
53.581700 0.000000
53.615300 0.000000
e
