set title 'mp-1096986 - Density of States'
set xlabel 'Energy (eV)'
set ylabel 'DOS (states/eV)'
set grid
set xrange [-10:10]
set yrange [0:4.078]
set xzeroaxis lt -1
set terminal png size 800,600
set output 'mp-1096986_dos_gnuplot.png'
plot '-' using 1:2 with lines title 'DOS'
-20.968600 0.000000
-20.919900 0.000000
-20.871200 0.000000
-20.822500 0.000000
-20.773800 0.000000
-20.725100 0.000000
-20.676400 0.000000
-20.627700 0.000000
-20.579000 0.000000
-20.530300 0.000000
-20.481600 0.000000
-20.432900 0.000000
-20.384200 0.000000
-20.335500 0.000000
-20.286800 0.000000
-20.238100 0.000000
-20.189400 0.000000
-20.140700 0.000000
-20.092000 0.000000
-20.043300 0.000000
-19.994600 0.000000
-19.945900 0.000000
-19.897200 0.000000
-19.848500 0.000000
-19.799800 0.000000
-19.751100 0.000000
-19.702400 0.000000
-19.653800 0.000000
-19.605100 0.000000
-19.556400 0.000000
-19.507700 0.000000
-19.459000 0.000000
-19.410300 0.000000
-19.361600 0.000000
-19.312900 0.000000
-19.264200 0.000000
-19.215500 0.000000
-19.166800 0.000000
-19.118100 0.000000
-19.069400 0.000000
-19.020700 0.000000
-18.972000 0.000000
-18.923300 0.000000
-18.874600 0.000000
-18.825900 0.000000
-18.777200 0.000000
-18.728500 0.000000
-18.679800 0.000000
-18.631100 0.000000
-18.582400 0.000000
-18.533700 0.000000
-18.485000 0.000000
-18.436300 0.000000
-18.387600 0.000000
-18.338900 0.000000
-18.290200 0.000000
-18.241500 0.000000
-18.192800 0.000000
-18.144100 0.000000
-18.095400 0.000000
-18.046700 0.000000
-17.998000 0.000000
-17.949300 0.000000
-17.900600 0.000000
-17.851900 0.000000
-17.803200 0.000000
-17.754500 0.000000
-17.705800 0.000000
-17.657100 0.000000
-17.608400 0.000000
-17.559700 0.000000
-17.511000 0.000000
-17.462300 0.000000
-17.413600 0.000000
-17.364900 0.000000
-17.316200 0.000000
-17.267500 0.000000
-17.218800 0.000000
-17.170100 0.000000
-17.121400 0.000000
-17.072700 0.000000
-17.024000 0.000000
-16.975300 0.000000
-16.926600 0.000000
-16.877900 0.000000
-16.829200 0.000000
-16.780500 0.000000
-16.731800 0.000000
-16.683100 0.000000
-16.634400 0.000000
-16.585700 0.000000
-16.537000 0.003400
-16.488300 0.151300
-16.439600 0.305300
-16.390900 0.459200
-16.342200 0.266000
-16.293500 0.279000
-16.244800 0.292000
-16.196100 0.305000
-16.147400 0.318000
-16.098700 0.330900
-16.050100 0.343000
-16.001400 0.328100
-15.952700 0.312500
-15.904000 0.296900
-15.855300 0.295400
-15.806600 0.300100
-15.757900 0.304700
-15.709200 0.309400
-15.660500 0.314100
-15.611800 0.318800
-15.563100 0.323500
-15.514400 0.328100
-15.465700 0.332800
-15.417000 0.337500
-15.368300 0.313200
-15.319600 0.312600
-15.270900 0.311900
-15.222200 0.311200
-15.173500 0.310500
-15.124800 0.309900
-15.076100 0.310100
-15.027400 0.312600
-14.978700 0.315200
-14.930000 0.317700
-14.881300 0.320200
-14.832600 0.322700
-14.783900 0.325300
-14.735200 0.327800
-14.686500 0.330300
-14.637800 0.332800
-14.589100 0.331100
-14.540400 0.326000
-14.491700 0.320800
-14.443000 0.317800
-14.394300 0.318700
-14.345600 0.319600
-14.296900 0.320500
-14.248200 0.321300
-14.199500 0.322200
-14.150800 0.323100
-14.102100 0.324000
-14.053400 0.324900
-14.004700 0.325800
-13.956000 0.327400
-13.907300 0.329300
-13.858600 0.331100
-13.809900 0.333000
-13.761200 0.334900
-13.712500 0.336700
-13.663800 0.338600
-13.615100 0.340400
-13.566400 0.342300
-13.517700 0.336900
-13.469000 0.337000
-13.420300 0.337200
-13.371600 0.337300
-13.322900 0.337500
-13.274200 0.337600
-13.225500 0.338300
-13.176800 0.340500
-13.128100 0.342600
-13.079400 0.344800
-13.030700 0.346900
-12.982000 0.349000
-12.933300 0.351200
-12.884600 0.353300
-12.835900 0.355500
-12.787200 0.357600
-12.738500 0.359800
-12.689800 0.361900
-12.641100 0.365700
-12.592400 0.370600
-12.543700 0.375400
-12.495100 0.380300
-12.446400 0.385100
-12.397700 0.390000
-12.349000 0.394800
-12.300300 0.399800
-12.251600 0.404900
-12.202900 0.413600
-12.154200 0.426500
-12.105500 0.439400
-12.056800 0.452300
-12.008100 0.465100
-11.959400 0.478000
-11.910700 0.490900
-11.862000 0.859400
-11.813300 0.736000
-11.764600 0.612500
-11.715900 0.489100
-11.667200 0.368900
-11.618500 0.350800
-11.569800 0.334100
-11.521100 0.317400
-11.472400 0.300700
-11.423700 0.284000
-11.375000 0.267300
-11.326300 0.250600
-11.277600 0.233900
-11.228900 0.217200
-11.180200 0.292100
-11.131500 0.377100
-11.082800 0.462100
-11.034100 0.146200
-10.985400 0.139900
-10.936700 0.133500
-10.888000 0.127100
-10.839300 0.120800
-10.790600 0.114400
-10.741900 0.108000
-10.693200 0.101700
-10.644500 0.095300
-10.595800 0.088900
-10.547100 0.082600
-10.498400 0.076200
-10.449700 0.069800
-10.401000 0.063500
-10.352300 0.057100
-10.303600 0.050700
-10.254900 0.044400
-10.206200 0.038000
-10.157500 0.031600
-10.108800 0.025300
-10.060100 0.018900
-10.011400 0.012500
-9.962700 0.006200
-9.914000 0.000400
-9.865300 0.012900
-9.816600 0.057200
-9.767900 0.102700
-9.719200 0.148200
-9.670500 0.193700
-9.621800 0.239200
-9.573100 0.362900
-9.524400 0.575500
-9.475700 0.788100
-9.427000 1.000700
-9.378300 0.568800
-9.329600 0.608600
-9.280900 0.648300
-9.232200 0.688100
-9.183500 0.727800
-9.134800 0.767600
-9.086100 0.475800
-9.037400 0.467500
-8.988700 0.459200
-8.940000 0.450900
-8.891400 0.442600
-8.842700 0.453600
-8.794000 0.517800
-8.745300 0.622900
-8.696600 0.691800
-8.647900 0.751100
-8.599200 0.758700
-8.550500 0.718600
-8.501800 0.731000
-8.453100 0.745000
-8.404400 0.757900
-8.355700 0.761700
-8.307000 0.758200
-8.258300 0.748800
-8.209600 0.743900
-8.160900 0.744800
-8.112200 0.752000
-8.063500 0.759600
-8.014800 0.767300
-7.966100 0.775000
-7.917400 0.782800
-7.868700 0.792600
-7.820000 0.804700
-7.771300 0.837300
-7.722600 0.882200
-7.673900 0.927600
-7.625200 0.977700
-7.576500 1.037000
-7.527800 1.108000
-7.479100 1.186600
-7.430400 1.265600
-7.381700 1.344900
-7.333000 1.454000
-7.284300 1.666800
-7.235600 1.693900
-7.186900 0.961000
-7.138200 0.000000
-7.089500 0.000000
-7.040800 0.000000
-6.992100 0.000000
-6.943400 0.000000
-6.894700 0.000000
-6.846000 0.000000
-6.797300 0.000000
-6.748600 0.000000
-6.699900 0.000000
-6.651200 0.000000
-6.602500 0.000000
-6.553800 0.000000
-6.505100 0.000000
-6.456400 0.000000
-6.407700 0.000000
-6.359000 0.000000
-6.310300 0.004900
-6.261600 0.026100
-6.212900 0.047300
-6.164200 0.068500
-6.115500 0.089700
-6.066800 0.110900
-6.018100 0.132100
-5.969400 0.153300
-5.920700 0.174500
-5.872000 0.195700
-5.823300 0.216900
-5.774600 0.238100
-5.725900 0.259300
-5.677200 0.216700
-5.628500 0.231300
-5.579800 0.245800
-5.531100 0.260400
-5.482400 0.384600
-5.433700 0.889900
-5.385000 1.193100
-5.336400 1.271300
-5.287700 1.327200
-5.239000 1.396500
-5.190300 1.513600
-5.141600 1.848600
-5.092900 2.353100
-5.044200 2.419300
-4.995500 2.486200
-4.946800 1.619900
-4.898100 1.870800
-4.849400 2.492400
-4.800700 0.586100
-4.752000 0.317000
-4.703300 0.306200
-4.654600 0.295300
-4.605900 0.293700
-4.557200 0.311200
-4.508500 0.336900
-4.459800 0.362500
-4.411100 0.388200
-4.362400 0.413800
-4.313700 0.439500
-4.265000 0.465200
-4.216300 0.490900
-4.167600 0.516500
-4.118900 0.544300
-4.070200 0.579300
-4.021500 0.614200
-3.972800 0.649200
-3.924100 0.684200
-3.875400 1.187700
-3.826700 1.918000
-3.778000 1.378200
-3.729300 0.767700
-3.680600 0.716600
-3.631900 0.701100
-3.583200 0.685600
-3.534500 0.676600
-3.485800 0.663700
-3.437100 0.649700
-3.388400 0.635600
-3.339700 0.621600
-3.291000 0.607500
-3.242300 0.593500
-3.193600 0.579400
-3.144900 0.567100
-3.096200 0.582600
-3.047500 0.604800
-2.998800 0.627000
-2.950100 0.649300
-2.901400 0.671500
-2.852700 0.709700
-2.804000 0.732700
-2.755300 0.855800
-2.706600 0.909300
-2.657900 0.962800
-2.609200 1.016400
-2.560500 1.071900
-2.511800 1.119500
-2.463100 1.690500
-2.414400 1.434700
-2.365700 1.604300
-2.317000 1.813600
-2.268300 2.008900
-2.219600 3.707600
-2.170900 2.444300
-2.122200 2.344300
-2.073500 2.189400
-2.024800 2.054000
-1.976100 2.025500
-1.927400 2.022800
-1.878700 2.019900
-1.830000 2.036400
-1.781400 2.063400
-1.732700 2.105500
-1.684000 2.127000
-1.635300 2.120100
-1.586600 2.088200
-1.537900 2.324200
-1.489200 1.793700
-1.440500 1.555300
-1.391800 1.435500
-1.343100 1.356900
-1.294400 1.035600
-1.245700 0.948300
-1.197000 0.867300
-1.148300 0.828200
-1.099600 0.789200
-1.050900 0.750300
-1.002200 0.735100
-0.953500 0.565400
-0.904800 0.440500
-0.856100 0.385900
-0.807400 0.378500
-0.758700 0.371000
-0.710000 0.363600
-0.661300 0.356100
-0.612600 0.348700
-0.563900 0.341200
-0.515200 0.333800
-0.466500 0.326300
-0.417800 0.318900
-0.369100 0.311400
-0.320400 0.304000
-0.271700 0.296600
-0.223000 0.289100
-0.174300 0.281700
-0.125600 0.286800
-0.076900 0.297500
-0.028200 0.295400
0.020500 0.286900
0.069200 0.278400
0.117900 0.269800
0.166600 0.294600
0.215300 0.280600
0.264000 0.266600
0.312700 0.252500
0.361400 0.238500
0.410100 0.224500
0.458800 0.210400
0.507500 0.196400
0.556200 0.182400
0.604900 0.284900
0.653600 0.238500
0.702300 0.192000
0.751000 0.145600
0.799700 0.099200
0.848400 0.052700
0.897100 0.006300
0.945800 0.000000
0.994500 0.000000
1.043200 0.000000
1.091900 0.000000
1.140600 0.000000
1.189300 0.000000
1.238000 0.000000
1.286700 0.000000
1.335400 0.000000
1.384100 0.000000
1.432800 0.000000
1.481500 0.000000
1.530200 0.000000
1.578900 0.000000
1.627600 0.000000
1.676300 0.000000
1.725000 0.000000
1.773700 0.000000
1.822300 0.000000
1.871000 0.000000
1.919700 0.000000
1.968400 0.000000
2.017100 0.000000
2.065800 0.000000
2.114500 0.000000
2.163200 0.000000
2.211900 0.000000
2.260600 0.000000
2.309300 0.000000
2.358000 0.000000
2.406700 0.000000
2.455400 0.000000
2.504100 0.000000
2.552800 0.000000
2.601500 0.000000
2.650200 0.000000
2.698900 0.000000
2.747600 0.000000
2.796300 0.000000
2.845000 0.000000
2.893700 0.000000
2.942400 0.000000
2.991100 0.000000
3.039800 0.000000
3.088500 0.000000
3.137200 0.000000
3.185900 0.000000
3.234600 0.000000
3.283300 0.000000
3.332000 0.000000
3.380700 0.000000
3.429400 0.000000
3.478100 0.000000
3.526800 0.000000
3.575500 0.000000
3.624200 0.000000
3.672900 0.000000
3.721600 0.000000
3.770300 0.000000
3.819000 0.000000
3.867700 0.000000
3.916400 0.000000
3.965100 0.000000
4.013800 0.000000
4.062500 0.000000
4.111200 0.000000
4.159900 0.000000
4.208600 0.004700
4.257300 0.028400
4.306000 0.053900
4.354700 0.081100
4.403400 0.060100
4.452100 0.066100
4.500800 0.072300
4.549500 0.078800
4.598200 0.085400
4.646900 0.092300
4.695600 0.099300
4.744300 0.106600
4.793000 0.111000
4.841700 0.114400
4.890400 0.117800
4.939100 0.121500
4.987800 0.128200
5.036500 0.135100
5.085200 0.142300
5.133900 0.149600
5.182600 0.157200
5.231300 0.164900
5.280000 0.172800
5.328700 0.181000
5.377300 0.189300
5.426000 0.197900
5.474700 0.204800
5.523400 0.213200
5.572100 0.224300
5.620800 0.236600
5.669500 0.250200
5.718200 0.265000
5.766900 0.280900
5.815600 0.298600
5.864300 0.318700
5.913000 0.341100
5.961700 0.364300
6.010400 0.388200
6.059100 0.412900
6.107800 0.441300
6.156500 0.488300
6.205200 0.547600
6.253900 0.618500
6.302600 0.701400
6.351300 0.795500
6.400000 0.918400
6.448700 1.000200
6.497400 1.024600
6.546100 0.795400
6.594800 0.619700
6.643500 0.583600
6.692200 0.560700
6.740900 0.542600
6.789600 0.530500
6.838300 0.531300
6.887000 0.528500
6.935700 0.498900
6.984400 0.472800
7.033100 0.460700
7.081800 0.451000
7.130500 0.444100
7.179200 0.441600
7.227900 0.440600
7.276600 0.440700
7.325300 0.441700
7.374000 0.443300
7.422700 0.445700
7.471400 0.449000
7.520100 0.452900
7.568800 0.457100
7.617500 0.460900
7.666200 0.464900
7.714900 0.469000
7.763600 0.470900
7.812300 0.530900
7.861000 0.533800
7.909700 0.534300
7.958400 0.532500
8.007100 0.528500
8.055800 0.522400
8.104500 0.514500
8.153200 0.504700
8.201900 0.493200
8.250600 0.485000
8.299300 0.484300
8.348000 0.485900
8.396700 0.487600
8.445400 0.491800
8.494100 0.504000
8.542800 0.513100
8.591500 0.561400
8.640200 0.635300
8.688900 0.707700
8.737600 0.810500
8.786300 1.000300
8.835000 1.176500
8.883700 1.290000
8.932400 1.357500
8.981000 1.249600
9.029700 1.164500
9.078400 1.130300
9.127100 1.150300
9.175800 1.177600
9.224500 1.215500
9.273200 1.259200
9.321900 1.373100
9.370600 1.520100
9.419300 1.624200
9.468000 1.655900
9.516700 1.675200
9.565400 1.672800
9.614100 1.629400
9.662800 2.023600
9.711500 1.658300
9.760200 1.539500
9.808900 1.448600
9.857600 1.384900
9.906300 1.395200
9.955000 1.414100
10.003700 1.408300
10.052400 1.391700
10.101100 1.400600
10.149800 1.409100
10.198500 1.423500
10.247200 1.459000
10.295900 1.510000
10.344600 1.556700
10.393300 1.628400
10.442000 1.621700
10.490700 1.585600
10.539400 1.522400
10.588100 1.466000
10.636800 1.421400
10.685500 1.374300
10.734200 1.324500
10.782900 1.218600
10.831600 1.207400
10.880300 1.201600
10.929000 1.217700
10.977700 1.367500
11.026400 1.540800
11.075100 1.765300
11.123800 2.041600
11.172500 2.244800
11.221200 2.208900
11.269900 2.175000
11.318600 2.047600
11.367300 2.059400
11.416000 2.016100
11.464700 1.961200
11.513400 1.828100
11.562100 1.658500
11.610800 1.516800
11.659500 1.442800
11.708200 1.411300
11.756900 1.304500
11.805600 1.070800
11.854300 1.054000
11.903000 0.959000
11.951700 0.958000
12.000400 0.987800
12.049100 1.019600
12.097800 1.039600
12.146500 1.056600
12.195200 1.165000
12.243900 1.191300
12.292600 1.224100
12.341300 1.266900
12.390000 1.299900
12.438700 1.342100
12.487400 1.402200
12.536000 1.450600
12.584700 1.515600
12.633400 1.555700
12.682100 1.577000
12.730800 1.540800
12.779500 1.434500
12.828200 1.324700
12.876900 1.185200
12.925600 1.011400
12.974300 0.860400
13.023000 0.839400
13.071700 0.848400
13.120400 0.866600
13.169100 0.867500
13.217800 0.870700
13.266500 0.873900
13.315200 0.873900
13.363900 0.819800
13.412600 0.772500
13.461300 0.735100
13.510000 0.704900
13.558700 0.681200
13.607400 0.672600
13.656100 0.662300
13.704800 0.649500
13.753500 0.650800
13.802200 0.688200
13.850900 0.743900
13.899600 0.819700
13.948300 0.920400
13.997000 0.940400
14.045700 1.090400
14.094400 1.231900
14.143100 1.363900
14.191800 1.489000
14.240500 1.610500
14.289200 1.695300
14.337900 1.781400
14.386600 1.922600
14.435300 2.133200
14.484000 2.360600
14.532700 2.472000
14.581400 2.493900
14.630100 2.314200
14.678800 1.871100
14.727500 1.769600
14.776200 1.662000
14.824900 1.510000
14.873600 1.296700
14.922300 1.115100
14.971000 0.995600
15.019700 0.948900
15.068400 0.901100
15.117100 0.920200
15.165800 0.946500
15.214500 1.034800
15.263200 1.157200
15.311900 1.227600
15.360600 1.240200
15.409300 1.234600
15.458000 1.210200
15.506700 1.145800
15.555400 1.136800
15.604100 1.117800
15.652800 1.089400
15.701500 1.053100
15.750200 1.029200
15.798900 1.018000
15.847600 0.998400
15.896300 0.969500
15.945000 0.928400
15.993700 0.877500
16.042400 0.913000
16.091000 0.881700
16.139700 0.881800
16.188400 0.889500
16.237100 0.903000
16.285800 0.925500
16.334500 0.910400
16.383200 0.827400
16.431900 0.723200
16.480600 0.699700
16.529300 0.698900
16.578000 0.694000
16.626700 0.689300
16.675400 0.691000
16.724100 0.703400
16.772800 0.725900
16.821500 0.752500
16.870200 0.793500
16.918900 0.852800
16.967600 0.886000
17.016300 0.889000
17.065000 0.896700
17.113700 0.923700
17.162400 0.964500
17.211100 1.005800
17.259800 1.050200
17.308500 1.127600
17.357200 1.163600
17.405900 1.224100
17.454600 1.266900
17.503300 1.319200
17.552000 1.373500
17.600700 1.313200
17.649400 1.257900
17.698100 1.196000
17.746800 1.029500
17.795500 1.006100
17.844200 1.006200
17.892900 1.024200
17.941600 1.048000
17.990300 1.074300
18.039000 1.097200
18.087700 1.118800
18.136400 1.139500
18.185100 1.159100
18.233800 1.154300
18.282500 1.137300
18.331200 1.181500
18.379900 1.149300
18.428600 1.136900
18.477300 1.087300
18.526000 1.008100
18.574700 0.984700
18.623400 0.980700
18.672100 0.993000
18.720800 1.007200
18.769500 0.992700
18.818200 0.971700
18.866900 0.950700
18.915600 0.925400
18.964300 0.887100
19.013000 0.852000
19.061700 0.834500
19.110400 0.827900
19.159100 0.833100
19.207800 0.847500
19.256500 0.859300
19.305200 0.863700
19.353900 0.859200
19.402600 0.912900
19.451300 0.773700
19.500000 0.779600
19.548700 0.786600
19.597400 0.794000
19.646100 0.801800
19.694700 0.814400
19.743400 0.841900
19.792100 0.865000
19.840800 0.881400
19.889500 0.914600
19.938200 0.987500
19.986900 1.040900
20.035600 1.050900
20.084300 1.007500
20.133000 0.969400
20.181700 0.962200
20.230400 0.952000
20.279100 0.958000
20.327800 0.948000
20.376500 0.957300
20.425200 0.973900
20.473900 0.994500
20.522600 1.019600
20.571300 1.049400
20.620000 1.081700
20.668700 1.199800
20.717400 1.043300
20.766100 1.028900
20.814800 1.023200
20.863500 1.025600
20.912200 1.035000
20.960900 1.054500
21.009600 1.095900
21.058300 1.146200
21.107000 1.201400
21.155700 1.235100
21.204400 1.248500
21.253100 1.258900
21.301800 1.259000
21.350500 1.267000
21.399200 1.301300
21.447900 1.350200
21.496600 1.409100
21.545300 1.495900
21.594000 1.603500
21.642700 1.689000
21.691400 1.807000
21.740100 1.847800
21.788800 2.042600
21.837500 2.140600
21.886200 1.705400
21.934900 1.545300
21.983600 1.499500
22.032300 1.491400
22.081000 1.477400
22.129700 1.445800
22.178400 1.387200
22.227100 1.372400
22.275800 1.366900
22.324500 1.367200
22.373200 1.370500
22.421900 1.376300
22.470600 1.384900
22.519300 1.394200
22.568000 1.403700
22.616700 1.416000
22.665400 1.429700
22.714100 1.438100
22.762800 1.442800
22.811500 1.448700
22.860200 1.467700
22.908900 1.490300
22.957600 1.551500
23.006300 1.594700
23.055000 1.607400
23.103700 1.613700
23.152400 1.651300
23.201100 1.614200
23.249700 1.613700
23.298400 1.599500
23.347100 1.563200
23.395800 1.507900
23.444500 1.465800
23.493200 1.515500
23.541900 1.468100
23.590600 1.391700
23.639300 1.313900
23.688000 1.236700
23.736700 1.205500
23.785400 1.197600
23.834100 1.329900
23.882800 1.492200
23.931500 1.327800
23.980200 1.270300
24.028900 1.203000
24.077600 1.175800
24.126300 1.140600
24.175000 1.091800
24.223700 1.107000
24.272400 1.104500
24.321100 1.097100
24.369800 1.086700
24.418500 1.076000
24.467200 1.070100
24.515900 1.059400
24.564600 1.037500
24.613300 1.015200
24.662000 0.992600
24.710700 0.969600
24.759400 0.951800
24.808100 0.917200
24.856800 0.906400
24.905500 0.902800
24.954200 0.906600
25.002900 0.915000
25.051600 0.926800
25.100300 0.938300
25.149000 0.950100
25.197700 0.966500
25.246400 0.996300
25.295100 0.994500
25.343800 1.009100
25.392500 1.020200
25.441200 1.037000
25.489900 1.051400
25.538600 1.058900
25.587300 1.057200
25.636000 1.045800
25.684700 1.031700
25.733400 1.014100
25.782100 1.000400
25.830800 0.979200
25.879500 0.972800
25.928200 0.971100
25.976900 0.972700
26.025600 0.981600
26.074300 1.026900
26.123000 1.077600
26.171700 1.115700
26.220400 1.123300
26.269100 1.147000
26.317800 1.162500
26.366500 1.171400
26.415200 1.180800
26.463900 1.229800
26.512600 1.195600
26.561300 1.156200
26.610000 1.129500
26.658700 1.127200
26.707400 1.217700
26.756100 1.188100
26.804800 1.183600
26.853400 1.182800
26.902100 1.185300
26.950800 1.193500
26.999500 1.198400
27.048200 1.217300
27.096900 1.232500
27.145600 1.244000
27.194300 1.245400
27.243000 1.220700
27.291700 1.299900
27.340400 1.200300
27.389100 1.124900
27.437800 1.086000
27.486500 1.080100
27.535200 1.066200
27.583900 1.041000
27.632600 1.007600
27.681300 1.001700
27.730000 1.002600
27.778700 1.003500
27.827400 1.004800
27.876100 1.007200
27.924800 1.010300
27.973500 1.012500
28.022200 1.048300
28.070900 1.078200
28.119600 1.014500
28.168300 0.967300
28.217000 0.971300
28.265700 0.983600
28.314400 1.003800
28.363100 1.026800
28.411800 1.041500
28.460500 1.048600
28.509200 1.057500
28.557900 1.071900
28.606600 1.092100
28.655300 1.119700
28.704000 1.146000
28.752700 1.165600
28.801400 1.176700
28.850100 1.215200
28.898800 1.257600
28.947500 1.315200
28.996200 1.312600
29.044900 1.369800
29.093600 1.383400
29.142300 1.369500
29.191000 1.350500
29.239700 1.317000
29.288400 1.297200
29.337100 1.279100
29.385800 1.262300
29.434500 1.237700
29.483200 1.220200
29.531900 1.207500
29.580600 1.184300
29.629300 1.142900
29.678000 1.113400
29.726700 1.089100
29.775400 1.068900
29.824100 1.048800
29.872800 1.030600
29.921500 1.026600
29.970200 1.054300
30.018900 1.086900
30.067600 1.140400
30.116300 1.217700
30.165000 1.279700
30.213700 1.338300
30.262400 1.364100
30.311100 1.375200
30.359800 1.281700
30.408400 1.254200
30.457100 1.254600
30.505800 1.257800
30.554500 1.262200
30.603200 1.267800
30.651900 1.268600
30.700600 1.292700
30.749300 1.333500
30.798000 1.398300
30.846700 1.482300
30.895400 1.601400
30.944100 1.622100
30.992800 1.600000
31.041500 1.586400
31.090200 1.601800
31.138900 1.595800
31.187600 1.625000
31.236300 1.573100
31.285000 1.599800
31.333700 1.492700
31.382400 1.438000
31.431100 1.425200
31.479800 1.426400
31.528500 1.380800
31.577200 1.362800
31.625900 1.396000
31.674600 1.427100
31.723300 1.416600
31.772000 1.395400
31.820700 1.774600
31.869400 1.239200
31.918100 1.241600
31.966800 1.300500
32.015500 1.367900
32.064200 1.414800
32.112900 1.435500
32.161600 1.375800
32.210300 1.289800
32.259000 1.170600
32.307700 1.158100
32.356400 1.150500
32.405100 1.145100
32.453800 1.156000
32.502500 1.173900
32.551200 1.193800
32.599900 1.213300
32.648600 1.238400
32.697300 1.273400
32.746000 1.322800
32.794700 1.364700
32.843400 1.394300
32.892100 1.403800
32.940800 1.375300
32.989500 1.347900
33.038200 1.412000
33.086900 1.469600
33.135600 1.487100
33.184300 1.434800
33.233000 1.382700
33.281700 1.338500
33.330400 1.296400
33.379100 1.251100
33.427800 1.201500
33.476500 1.155800
33.525200 1.105800
33.573900 1.054000
33.622600 1.000500
33.671300 0.950500
33.720000 0.934500
33.768700 0.933600
33.817400 0.932500
33.866100 0.942700
33.914800 0.968000
33.963500 0.986000
34.012100 1.012600
34.060800 1.048300
34.109500 1.080900
34.158200 1.097400
34.206900 1.139000
34.255600 1.139600
34.304300 1.141400
34.353000 1.138500
34.401700 1.137400
34.450400 1.132600
34.499100 1.101600
34.547800 1.081700
34.596500 1.070000
34.645200 1.063400
34.693900 1.027800
34.742600 1.031500
34.791300 1.025900
34.840000 1.031600
34.888700 1.030100
34.937400 1.045200
34.986100 1.065600
35.034800 1.092000
35.083500 1.119400
35.132200 1.144800
35.180900 1.171900
35.229600 1.212300
35.278300 1.264100
35.327000 1.331200
35.375700 1.424800
35.424400 1.538800
35.473100 1.759600
35.521800 1.565000
35.570500 1.380700
35.619200 1.389500
35.667900 1.395300
35.716600 1.393500
35.765300 1.370000
35.814000 1.305300
35.862700 1.290300
35.911400 1.296200
35.960100 1.318600
36.008800 1.346800
36.057500 1.383100
36.106200 1.425100
36.154900 1.471500
36.203600 1.524300
36.252300 1.601600
36.301000 1.710300
36.349700 1.796800
36.398400 1.827900
36.447100 1.803700
36.495800 1.751400
36.544500 1.678200
36.593200 1.596700
36.641900 1.535500
36.690600 1.503800
36.739300 1.465500
36.788000 1.430200
36.836700 1.393400
36.885400 1.368300
36.934100 1.344300
36.982800 1.359000
37.031500 1.372400
37.080200 1.405800
37.128900 1.450800
37.177600 1.497400
37.226300 1.472100
37.275000 1.415400
37.323700 1.333200
37.372400 1.254000
37.421100 1.214100
37.469800 1.177700
37.518500 1.121200
37.567100 1.093700
37.615800 1.067100
37.664500 1.064800
37.713200 1.014000
37.761900 0.955700
37.810600 0.949900
37.859300 0.967000
37.908000 0.979300
37.956700 0.994500
38.005400 1.012100
38.054100 1.027500
38.102800 1.041300
38.151500 1.054000
38.200200 1.069100
38.248900 1.095300
38.297600 1.125800
38.346300 1.148200
38.395000 1.178100
38.443700 1.220300
38.492400 1.268000
38.541100 1.317500
38.589800 1.361100
38.638500 1.427300
38.687200 1.439200
38.735900 1.399000
38.784600 1.406200
38.833300 1.409400
38.882000 1.407800
38.930700 1.404600
38.979400 1.399800
39.028100 1.418200
39.076800 1.496000
39.125500 1.568800
39.174200 1.587600
39.222900 1.591400
39.271600 1.570700
39.320300 1.529600
39.369000 1.361800
39.417700 1.289200
39.466400 1.230700
39.515100 1.196200
39.563800 1.178400
39.612500 1.172600
39.661200 1.177500
39.709900 1.186100
39.758600 1.219600
39.807300 1.229200
39.856000 1.218500
39.904700 1.220500
39.953400 1.223600
40.002100 1.229000
40.050800 1.236200
40.099500 1.250400
40.148200 1.342600
40.196900 1.383200
40.245600 1.423600
40.294300 1.462900
40.343000 1.507600
40.391700 1.532300
40.440400 1.521600
40.489100 1.495900
40.537800 1.478000
40.586500 1.451800
40.635200 1.426700
40.683900 1.402500
40.732600 1.386800
40.781300 1.375400
40.830000 1.363400
40.878700 1.366000
40.927400 1.369300
40.976100 1.391300
41.024800 1.393800
41.073500 1.395400
41.122100 1.361800
41.170800 1.328900
41.219500 1.328500
41.268200 1.327100
41.316900 1.326500
41.365600 1.331700
41.414300 1.336800
41.463000 1.347600
41.511700 1.394900
41.560400 1.445000
41.609100 1.482800
41.657800 1.504600
41.706500 1.532000
41.755200 1.539400
41.803900 1.519400
41.852600 1.480500
41.901300 1.467800
41.950000 1.464500
41.998700 1.464400
42.047400 1.467700
42.096100 1.473700
42.144800 1.479900
42.193500 1.484300
42.242200 1.482100
42.290900 1.484500
42.339600 1.494500
42.388300 1.512700
42.437000 1.528600
42.485700 1.546500
42.534400 1.546600
42.583100 1.516900
42.631800 1.512200
42.680500 1.552400
42.729200 1.568900
42.777900 1.572800
42.826600 1.577700
42.875300 1.584700
42.924000 1.596200
42.972700 1.614400
43.021400 1.635100
43.070100 1.651200
43.118800 1.657500
43.167500 1.619600
43.216200 1.619100
43.264900 1.658700
43.313600 1.683700
43.362300 1.679100
43.411000 1.664300
43.459700 1.670100
43.508400 1.667200
43.557100 1.668400
43.605800 1.682500
43.654500 1.658900
43.703200 1.738700
43.751900 1.609400
43.800600 1.554200
43.849300 1.533100
43.898000 1.517800
43.946700 1.509100
43.995400 1.506400
44.044100 1.488500
44.092800 1.435900
44.141500 1.382100
44.190200 1.361600
44.238900 1.372700
44.287600 1.407300
44.336300 1.471500
44.385000 1.483400
44.433700 1.464300
44.482400 1.402600
44.531100 1.361600
44.579800 1.335600
44.628500 1.314200
44.677200 1.317600
44.725800 1.340600
44.774500 1.343200
44.823200 1.347000
44.871900 1.408300
44.920600 1.543000
44.969300 1.520300
45.018000 1.420600
45.066700 1.392700
45.115400 1.352500
45.164100 1.314800
45.212800 1.279500
45.261500 1.273300
45.310200 1.276800
45.358900 1.291400
45.407600 1.316600
45.456300 1.325000
45.505000 1.340700
45.553700 1.363900
45.602400 1.385200
45.651100 1.411000
45.699800 1.435700
45.748500 1.463400
45.797200 1.500300
45.845900 1.561900
45.894600 1.624700
45.943300 1.684700
45.992000 1.713700
46.040700 1.726000
46.089400 1.720900
46.138100 1.684100
46.186800 1.634100
46.235500 1.607900
46.284200 1.570200
46.332900 1.525600
46.381600 1.532000
46.430300 1.569300
46.479000 1.606600
46.527700 1.632400
46.576400 1.651100
46.625100 1.670000
46.673800 1.685900
46.722500 1.689300
46.771200 1.713700
46.819900 1.762200
46.868600 1.810000
46.917300 1.871300
46.966000 1.908700
47.014700 1.924900
47.063400 2.025700
47.112100 2.024900
47.160800 1.976700
47.209500 1.847800
47.258200 1.710900
47.306900 1.598000
47.355600 1.543600
47.404300 1.499700
47.453000 1.459600
47.501700 1.429200
47.550400 1.411800
47.599100 1.414100
47.647800 1.473300
47.696500 1.470300
47.745200 1.468100
47.793900 1.486400
47.842600 1.510600
47.891300 1.534900
47.940000 1.559300
47.988700 1.589400
48.037400 1.636100
48.086100 1.679500
48.134800 1.717600
48.183500 1.750300
48.232200 1.779300
48.280800 1.796300
48.329500 1.796300
48.378200 1.798200
48.426900 1.781500
48.475600 1.750700
48.524300 1.685600
48.573000 1.643500
48.621700 1.600800
48.670400 1.578400
48.719100 1.577800
48.767800 1.583200
48.816500 1.593000
48.865200 1.621800
48.913900 1.640900
48.962600 1.641300
49.011300 1.648200
49.060000 1.657500
49.108700 1.671500
49.157400 1.693800
49.206100 1.721400
49.254800 1.748100
49.303500 1.807200
49.352200 1.811400
49.400900 1.755900
49.449600 1.750200
49.498300 1.760400
49.547000 1.786900
49.595700 1.788200
49.644400 1.784700
49.693100 1.771200
49.741800 1.798200
49.790500 1.822200
49.839200 1.832600
49.887900 1.843500
49.936600 2.060800
49.985300 1.884000
50.034000 1.757400
50.082700 1.684200
50.131400 1.616800
50.180100 1.564100
50.228800 1.520800
50.277500 1.468100
50.326200 1.454700
50.374900 1.452400
50.423600 1.459100
50.472300 1.480400
50.521000 1.523200
50.569700 1.513500
50.618400 1.490300
50.667100 1.465500
50.715800 1.441100
50.764500 1.408800
50.813200 1.343900
50.861900 1.321400
50.910600 1.299100
50.959300 1.279100
51.008000 1.266500
51.056700 1.265700
51.105400 1.285600
51.154100 1.282900
51.202800 1.269300
51.251500 1.282300
51.300200 1.378800
51.348900 1.474800
51.397600 1.565400
51.446300 1.591900
51.495000 1.606500
51.543700 1.629900
51.592400 1.624900
51.641100 1.599700
51.689800 1.555400
51.738500 1.523100
51.787200 1.596800
51.835900 1.596800
51.884500 1.666500
51.933200 1.733500
51.981900 1.794300
52.030600 1.830900
52.079300 1.843100
52.128000 1.839900
52.176700 1.851600
52.225400 1.829500
52.274100 1.740300
52.322800 1.649300
52.371500 1.575300
52.420200 1.519000
52.468900 1.478500
52.517600 1.457100
52.566300 1.438800
52.615000 1.420700
52.663700 1.405100
52.712400 1.387600
52.761100 1.366200
52.809800 1.341100
52.858500 1.308100
52.907200 1.270000
52.955900 1.263000
53.004600 1.254900
53.053300 1.289000
53.102000 1.321700
53.150700 1.347400
53.199400 1.376900
53.248100 1.413400
53.296800 1.440900
53.345500 1.423000
53.394200 1.474200
53.442900 1.526600
53.491600 1.579400
53.540300 1.614800
53.589000 1.678300
53.637700 1.738000
53.686400 1.789700
53.735100 1.821700
53.783800 1.842600
53.832500 1.864200
53.881200 1.902300
53.929900 1.900500
53.978600 1.900100
54.027300 1.880600
54.076000 1.809600
54.124700 1.753000
54.173400 1.676900
54.222100 1.600900
54.270800 1.719600
54.319500 1.712000
54.368200 1.729700
54.416900 1.745500
54.465600 1.814500
54.514300 1.879100
54.563000 1.925600
54.611700 1.917100
54.660400 1.932500
54.709100 1.941100
54.757800 1.940700
54.806500 1.921100
54.855200 1.901500
54.903900 1.874500
54.952600 1.839200
55.001300 1.806000
55.050000 1.770500
55.098700 1.732100
55.147400 1.651800
55.196100 1.563900
55.244800 1.496700
55.293500 1.483500
55.342200 1.503800
55.390900 1.544800
55.439500 1.585200
55.488200 1.613900
55.536900 1.648400
55.585600 1.714200
55.634300 1.799100
55.683000 1.837800
55.731700 1.855100
55.780400 1.862900
55.829100 1.897500
55.877800 1.924400
55.926500 1.919200
55.975200 1.925500
56.023900 1.926400
56.072600 1.943700
56.121300 1.915100
56.170000 1.890100
56.218700 1.877100
56.267400 1.874700
56.316100 1.883800
56.364800 1.914200
56.413500 1.919900
56.462200 1.900300
56.510900 1.851400
56.559600 1.822300
56.608300 1.798600
56.657000 1.759600
56.705700 1.708000
56.754400 1.681900
56.803100 1.648500
56.851800 1.599900
56.900500 1.541200
56.949200 1.490000
56.997900 1.460400
57.046600 1.440800
57.095300 1.451500
57.144000 1.497900
57.192700 1.602900
57.241400 1.805900
57.290100 1.860600
57.338800 1.974900
57.387500 2.140500
57.436200 2.120700
57.484900 2.057500
57.533600 1.925400
57.582300 1.773800
57.631000 1.628100
57.679700 1.496900
57.728400 1.425700
57.777100 1.376400
57.825800 1.350600
57.874500 1.339900
57.923200 1.345100
57.971900 1.364500
58.020600 1.443100
58.069300 1.571300
58.118000 1.595900
58.166700 1.571600
58.215400 1.568100
58.264100 1.588400
58.312800 1.606500
58.361500 1.641700
58.410200 1.689700
58.458900 1.738500
58.507600 1.749900
58.556300 1.728800
58.605000 1.712400
58.653700 1.700800
58.702400 1.691300
58.751100 1.537100
58.799800 1.461100
58.848500 1.441500
58.897200 1.415100
58.945900 1.372700
58.994500 1.332300
59.043200 1.303400
59.091900 1.283900
59.140600 1.308900
59.189300 1.402100
59.238000 1.527800
59.286700 1.647300
59.335400 1.783500
59.384100 1.807500
59.432800 1.821000
59.481500 1.778500
59.530200 1.767200
59.578900 1.755400
59.627600 1.705900
59.676300 1.638400
59.725000 1.565900
59.773700 1.521000
59.822400 1.486900
59.871100 1.453800
59.919800 1.430100
59.968500 1.411800
60.017200 1.409800
60.065900 1.425100
60.114600 1.495600
60.163300 1.575800
60.212000 1.632100
60.260700 1.649200
60.309400 1.636400
60.358100 1.614500
60.406800 1.599300
60.455500 1.600400
60.504200 1.646000
60.552900 1.710800
60.601600 1.769600
60.650300 1.881700
60.699000 1.986900
60.747700 2.060500
60.796400 2.121400
60.845100 2.174100
60.893800 2.212700
60.942500 2.177800
60.991200 2.118800
61.039900 2.014500
61.088600 1.841400
61.137300 1.744900
61.186000 1.708900
61.234700 1.663500
61.283400 1.629500
61.332100 1.613600
61.380800 1.606100
61.429500 1.614600
61.478200 1.649100
61.526900 1.683600
61.575600 1.702500
61.624300 1.688900
61.673000 1.696200
61.721700 1.781200
61.770400 1.875600
61.819100 1.823300
61.867800 1.864300
61.916500 1.922800
61.965200 1.935900
62.013900 1.900600
62.062600 1.881900
62.111300 1.847300
62.160000 1.860500
62.208700 1.854400
62.257400 1.852100
62.306100 1.856700
62.354800 1.857600
62.403500 1.853800
62.452200 1.822200
62.500900 1.797700
62.549600 1.767300
62.598200 1.723100
62.646900 1.694800
62.695600 1.576500
62.744300 1.489900
62.793000 1.512700
62.841700 1.526300
62.890400 1.546100
62.939100 1.573900
62.987800 1.608900
63.036500 1.657500
63.085200 1.704200
63.133900 1.754000
63.182600 1.821000
63.231300 1.887900
63.280000 1.962800
63.328700 2.052100
63.377400 2.045000
63.426100 2.083500
63.474800 2.142200
63.523500 2.106700
63.572200 2.096800
63.620900 2.082600
63.669600 1.992000
63.718300 1.909100
63.767000 1.858800
63.815700 1.813700
63.864400 1.844300
63.913100 1.763900
63.961800 1.676500
64.010500 1.613100
64.059200 1.611900
64.107900 1.588700
64.156600 1.605100
64.205300 1.629500
64.254000 1.648800
64.302700 1.656000
64.351400 1.650300
64.400100 1.636400
64.448800 1.619700
64.497500 1.596600
64.546200 1.579900
64.594900 1.575500
64.643600 1.570700
64.692300 1.601000
64.741000 1.654600
64.789700 1.726700
64.838400 1.743400
64.887100 1.751800
64.935800 1.768300
64.984500 1.824900
65.033200 1.932600
65.081900 1.956600
65.130600 1.860900
65.179300 1.765100
65.228000 1.696900
65.276700 1.667900
65.325400 1.709600
65.374100 1.759000
65.422800 1.818100
65.471500 1.916700
65.520200 2.027000
65.568900 2.102500
65.617600 2.162400
65.666300 2.184600
65.715000 2.192500
65.763700 2.183600
65.812400 2.171500
65.861100 2.302300
65.909800 2.125100
65.958500 2.097500
66.007200 2.064300
66.055900 1.934000
66.104600 1.946800
66.153200 1.966700
66.201900 1.969100
66.250600 1.884800
66.299300 1.829500
66.348000 1.910200
66.396700 2.078600
66.445400 2.226800
66.494100 2.268400
66.542800 2.315600
66.591500 2.344400
66.640200 2.279200
66.688900 2.119500
66.737600 1.939300
66.786300 1.777400
66.835000 1.629400
66.883700 1.467500
66.932400 1.283100
66.981100 1.192300
67.029800 1.125200
67.078500 1.061700
67.127200 0.990900
67.175900 0.934600
67.224600 0.892900
67.273300 0.861600
67.322000 0.829800
67.370700 0.789500
67.419400 0.751200
67.468100 0.720000
67.516800 0.698600
67.565500 0.682900
67.614200 0.662400
67.662900 0.647300
67.711600 0.636500
67.760300 0.624000
67.809000 0.611300
67.857700 0.598400
67.906400 0.585300
67.955100 0.572000
68.003800 0.558500
68.052500 0.534700
68.101200 0.497400
68.149900 0.471200
68.198600 0.450100
68.247300 0.443800
68.296000 0.443500
68.344700 0.443200
68.393400 0.432100
68.442100 0.420600
68.490800 0.406100
68.539500 0.391100
68.588200 0.375500
68.636900 0.360300
68.685600 0.364800
68.734300 0.363000
68.783000 0.359500
68.831700 0.385100
68.880400 0.358500
68.929100 0.322700
68.977800 0.282100
69.026500 0.236500
69.075200 0.217000
69.123900 0.197700
69.172600 0.179900
69.221300 0.163700
69.270000 0.149000
69.318700 0.136800
69.367400 0.126900
69.416100 0.117900
69.464800 0.109800
69.513500 0.102400
69.562200 0.095600
69.610900 0.089200
69.659600 0.083400
69.708300 0.078200
69.756900 0.073400
69.805600 0.068800
69.854300 0.063200
69.903000 0.056300
69.951700 0.046500
70.000400 0.035900
70.049100 0.033200
70.097800 0.031800
70.146500 0.030400
70.195200 0.029000
70.243900 0.027700
70.292600 0.026400
70.341300 0.025100
70.390000 0.023800
70.438700 0.022600
70.487400 0.021400
70.536100 0.020300
70.584800 0.019200
70.633500 0.018100
70.682200 0.017000
70.730900 0.016000
70.779600 0.015000
70.828300 0.014000
70.877000 0.013100
70.925700 0.012100
70.974400 0.011300
71.023100 0.010400
71.071800 0.009600
71.120500 0.008800
71.169200 0.008000
71.217900 0.007300
71.266600 0.006600
71.315300 0.005900
71.364000 0.005300
71.412700 0.004700
71.461400 0.004100
71.510100 0.003600
71.558800 0.003100
71.607500 0.002600
71.656200 0.002200
71.704900 0.001800
71.753600 0.001400
71.802300 0.001100
71.851000 0.000700
71.899700 0.000500
71.948400 0.000200
71.997100 0.000000
72.045800 0.000000
72.094500 0.000000
72.143200 0.000000
72.191900 0.000000
72.240600 0.000000
72.289300 0.000000
72.338000 0.000000
72.386700 0.000000
72.435400 0.000000
72.484100 0.000000
72.532800 0.000000
72.581500 0.000000
72.630200 0.000000
72.678900 0.000000
72.727600 0.000000
72.776300 0.000000
72.825000 0.000000
72.873700 0.000000
72.922400 0.000000
72.971100 0.000000
73.019800 0.000000
73.068500 0.000000
73.117200 0.000000
73.165900 0.000000
73.214600 0.000000
73.263300 0.000000
73.311900 0.000000
73.360600 0.000000
73.409300 0.000000
73.458000 0.000000
73.506700 0.000000
73.555400 0.000000
73.604100 0.000000
73.652800 0.000000
73.701500 0.000000
73.750200 0.000000
73.798900 0.000000
73.847600 0.000000
73.896300 0.000000
73.945000 0.000000
73.993700 0.000000
74.042400 0.000000
74.091100 0.000000
74.139800 0.000000
74.188500 0.000000
74.237200 0.000000
74.285900 0.000000
74.334600 0.000000
74.383300 0.000000
74.432000 0.000000
74.480700 0.000000
74.529400 0.000000
74.578100 0.000000
74.626800 0.000000
74.675500 0.000000
74.724200 0.000000
74.772900 0.000000
74.821600 0.000000
74.870300 0.000000
74.919000 0.000000
74.967700 0.000000
75.016400 0.000000
75.065100 0.000000
75.113800 0.000000
75.162500 0.000000
75.211200 0.000000
75.259900 0.000000
75.308600 0.000000
75.357300 0.000000
75.406000 0.000000
75.454700 0.000000
75.503400 0.000000
75.552100 0.000000
75.600800 0.000000
75.649500 0.000000
75.698200 0.000000
75.746900 0.000000
75.795600 0.000000
75.844300 0.000000
75.893000 0.000000
75.941700 0.000000
75.990400 0.000000
76.039100 0.000000
76.087800 0.000000
76.136500 0.000000
76.185200 0.000000
76.233900 0.000000
76.282600 0.000000
76.331300 0.000000
76.380000 0.000000
76.428700 0.000000
e
