set title 'mp-1186443 - Density of States'
set xlabel 'Energy (eV)'
set ylabel 'DOS (states/eV)'
set grid
set xrange [-10:10]
set yrange [0:83.215]
set xzeroaxis lt -1
set terminal png size 800,600
set output 'mp-1186443_dos_gnuplot.png'
plot '-' using 1:2 with lines title 'DOS'
-12.175700 0.000000
-12.155700 0.000000
-12.135800 0.000000
-12.115800 0.000000
-12.095900 0.000000
-12.076000 0.000000
-12.056000 0.000000
-12.036100 0.000000
-12.016100 0.000000
-11.996200 0.000000
-11.976300 0.000000
-11.956300 0.000000
-11.936400 0.000000
-11.916400 0.000000
-11.896500 0.000000
-11.876500 0.000000
-11.856600 0.000000
-11.836700 0.000000
-11.816700 0.000000
-11.796800 0.000000
-11.776800 0.000000
-11.756900 0.000000
-11.736900 0.000000
-11.717000 0.000000
-11.697100 0.000000
-11.677100 0.000000
-11.657200 0.000000
-11.637200 0.000000
-11.617300 0.000000
-11.597300 0.000000
-11.577400 0.000000
-11.557500 0.000000
-11.537500 0.000000
-11.517600 0.000000
-11.497600 0.000000
-11.477700 0.000000
-11.457800 0.000000
-11.437800 0.000000
-11.417900 0.000000
-11.397900 0.000000
-11.378000 0.000000
-11.358000 0.000000
-11.338100 0.000000
-11.318200 0.000000
-11.298200 0.000000
-11.278300 0.000000
-11.258300 0.000000
-11.238400 0.000000
-11.218400 0.000000
-11.198500 0.000000
-11.178600 0.000000
-11.158600 0.000000
-11.138700 0.000000
-11.118700 0.000000
-11.098800 0.000000
-11.078800 0.000000
-11.058900 0.000000
-11.039000 0.000000
-11.019000 0.000000
-10.999100 0.000000
-10.979100 0.000000
-10.959200 0.000000
-10.939300 0.000000
-10.919300 0.000000
-10.899400 0.000000
-10.879400 0.000000
-10.859500 0.000000
-10.839500 0.000000
-10.819600 0.000000
-10.799700 0.000000
-10.779700 0.000000
-10.759800 0.000000
-10.739800 0.000000
-10.719900 0.000000
-10.699900 0.000000
-10.680000 0.000000
-10.660100 0.000000
-10.640100 0.000000
-10.620200 0.000000
-10.600200 0.000000
-10.580300 0.000000
-10.560300 0.000000
-10.540400 0.000000
-10.520500 0.000000
-10.500500 0.000200
-10.480600 0.001600
-10.460600 0.012600
-10.440700 0.073900
-10.420800 0.333400
-10.400800 1.171200
-10.380900 3.263200
-10.360900 7.383400
-10.341000 13.932900
-10.321000 22.545300
-10.301100 32.126500
-10.281200 41.330600
-10.261200 49.168200
-10.241300 55.332100
-10.221300 59.869500
-10.201400 62.387600
-10.181400 62.035100
-10.161500 58.893500
-10.141600 54.859300
-10.121600 52.408100
-10.101700 52.969200
-10.081700 56.761200
-10.061800 63.208900
-10.041900 70.756700
-10.021900 76.788400
-10.002000 78.727000
-9.982000 75.649800
-9.962100 69.051300
-9.942100 62.244900
-9.922200 58.268600
-9.902300 57.394800
-9.882300 56.691300
-9.862400 52.244700
-9.842400 42.237800
-9.822500 28.618000
-9.802500 15.716800
-9.782600 6.831400
-9.762700 2.311600
-9.742700 0.602200
-9.722800 0.119900
-9.702800 0.018200
-9.682900 0.002100
-9.662900 0.000200
-9.643000 0.000000
-9.623100 0.000000
-9.603100 0.000000
-9.583200 0.000000
-9.563200 0.000000
-9.543300 0.000000
-9.523400 0.000000
-9.503400 0.000000
-9.483500 0.000000
-9.463500 0.000000
-9.443600 0.000000
-9.423600 0.000000
-9.403700 0.000000
-9.383800 0.000000
-9.363800 0.000000
-9.343900 0.000000
-9.323900 0.000000
-9.304000 0.000000
-9.284000 0.000000
-9.264100 0.000000
-9.244200 0.000000
-9.224200 0.000000
-9.204300 0.000000
-9.184300 0.000000
-9.164400 0.000000
-9.144400 0.000000
-9.124500 0.000000
-9.104600 0.000000
-9.084600 0.000000
-9.064700 0.000000
-9.044700 0.000000
-9.024800 0.000000
-9.004900 0.000000
-8.984900 0.000000
-8.965000 0.000000
-8.945000 0.000000
-8.925100 0.000000
-8.905100 0.000000
-8.885200 0.000000
-8.865300 0.000000
-8.845300 0.000000
-8.825400 0.000000
-8.805400 0.000000
-8.785500 0.000000
-8.765500 0.000000
-8.745600 0.000000
-8.725700 0.000000
-8.705700 0.000000
-8.685800 0.000000
-8.665800 0.000000
-8.645900 0.000000
-8.626000 0.000000
-8.606000 0.000000
-8.586100 0.000000
-8.566100 0.000000
-8.546200 0.000000
-8.526200 0.000000
-8.506300 0.000000
-8.486400 0.000000
-8.466400 0.000000
-8.446500 0.000000
-8.426500 0.000000
-8.406600 0.000000
-8.386600 0.000000
-8.366700 0.000000
-8.346800 0.000000
-8.326800 0.000000
-8.306900 0.000000
-8.286900 0.000000
-8.267000 0.000000
-8.247000 0.000000
-8.227100 0.000000
-8.207200 0.000000
-8.187200 0.000000
-8.167300 0.000000
-8.147300 0.000000
-8.127400 0.000000
-8.107500 0.000000
-8.087500 0.000000
-8.067600 0.000000
-8.047600 0.000000
-8.027700 0.000000
-8.007700 0.000000
-7.987800 0.000000
-7.967900 0.000000
-7.947900 0.000000
-7.928000 0.000000
-7.908000 0.000000
-7.888100 0.000000
-7.868100 0.000000
-7.848200 0.000000
-7.828300 0.000000
-7.808300 0.000000
-7.788400 0.000000
-7.768400 0.000000
-7.748500 0.000000
-7.728500 0.000000
-7.708600 0.000000
-7.688700 0.000000
-7.668700 0.000000
-7.648800 0.000000
-7.628800 0.000000
-7.608900 0.000000
-7.589000 0.000000
-7.569000 0.000000
-7.549100 0.000000
-7.529100 0.000000
-7.509200 0.000000
-7.489200 0.000000
-7.469300 0.000000
-7.449400 0.000000
-7.429400 0.000000
-7.409500 0.000000
-7.389500 0.000000
-7.369600 0.000000
-7.349600 0.000000
-7.329700 0.000000
-7.309800 0.000000
-7.289800 0.000000
-7.269900 0.000000
-7.249900 0.000000
-7.230000 0.000000
-7.210100 0.000000
-7.190100 0.000000
-7.170200 0.000000
-7.150200 0.000000
-7.130300 0.000000
-7.110300 0.000000
-7.090400 0.000000
-7.070500 0.000000
-7.050500 0.000000
-7.030600 0.000000
-7.010600 0.000000
-6.990700 0.000000
-6.970700 0.000000
-6.950800 0.000000
-6.930900 0.000000
-6.910900 0.000000
-6.891000 0.000000
-6.871000 0.000000
-6.851100 0.000000
-6.831100 0.000000
-6.811200 0.000000
-6.791300 0.000000
-6.771300 0.000000
-6.751400 0.000000
-6.731400 0.000000
-6.711500 0.000000
-6.691600 0.000000
-6.671600 0.000000
-6.651700 0.000000
-6.631700 0.000000
-6.611800 0.000000
-6.591800 0.000000
-6.571900 0.000000
-6.552000 0.000000
-6.532000 0.000000
-6.512100 0.000000
-6.492100 0.000000
-6.472200 0.000000
-6.452200 0.000000
-6.432300 0.000000
-6.412400 0.000000
-6.392400 0.000000
-6.372500 0.000000
-6.352500 0.000000
-6.332600 0.000000
-6.312600 0.000000
-6.292700 0.000000
-6.272800 0.000000
-6.252800 0.000000
-6.232900 0.000000
-6.212900 0.000000
-6.193000 0.000000
-6.173100 0.000000
-6.153100 0.000000
-6.133200 0.000000
-6.113200 0.000000
-6.093300 0.000000
-6.073300 0.000000
-6.053400 0.000000
-6.033500 0.000000
-6.013500 0.000000
-5.993600 0.000000
-5.973600 0.000000
-5.953700 0.000000
-5.933700 0.000000
-5.913800 0.000000
-5.893900 0.000000
-5.873900 0.000000
-5.854000 0.000000
-5.834000 0.000000
-5.814100 0.000000
-5.794100 0.000000
-5.774200 0.000000
-5.754300 0.000000
-5.734300 0.000000
-5.714400 0.000000
-5.694400 0.000000
-5.674500 0.000000
-5.654600 0.000000
-5.634600 0.000000
-5.614700 0.000000
-5.594700 0.000000
-5.574800 0.000000
-5.554800 0.000000
-5.534900 0.000000
-5.515000 0.000000
-5.495000 0.000000
-5.475100 0.000000
-5.455100 0.000000
-5.435200 0.000000
-5.415200 0.000000
-5.395300 0.000000
-5.375400 0.000000
-5.355400 0.000000
-5.335500 0.000000
-5.315500 0.000000
-5.295600 0.000000
-5.275700 0.000000
-5.255700 0.000000
-5.235800 0.000000
-5.215800 0.000000
-5.195900 0.000000
-5.175900 0.000000
-5.156000 0.000000
-5.136100 0.000000
-5.116100 0.000000
-5.096200 0.000000
-5.076200 0.000000
-5.056300 0.000000
-5.036300 0.000000
-5.016400 0.000000
-4.996500 0.000000
-4.976500 0.000000
-4.956600 0.000000
-4.936600 0.000000
-4.916700 0.000000
-4.896700 0.000000
-4.876800 0.000000
-4.856900 0.000000
-4.836900 0.000000
-4.817000 0.000000
-4.797000 0.000000
-4.777100 0.000000
-4.757200 0.000000
-4.737200 0.000200
-4.717300 0.001300
-4.697300 0.005000
-4.677400 0.014600
-4.657400 0.032900
-4.637500 0.059200
-4.617600 0.088500
-4.597600 0.115300
-4.577700 0.140400
-4.557700 0.179800
-4.537800 0.254300
-4.517800 0.349200
-4.497900 0.399700
-4.478000 0.354900
-4.458000 0.242700
-4.438100 0.145000
-4.418100 0.126500
-4.398200 0.201900
-4.378200 0.336700
-4.358300 0.466500
-4.338400 0.541900
-4.318400 0.563100
-4.298500 0.567200
-4.278500 0.588600
-4.258600 0.622500
-4.238700 0.616700
-4.218700 0.524400
-4.198800 0.366900
-4.178800 0.220300
-4.158900 0.150600
-4.138900 0.178400
-4.119000 0.283800
-4.099100 0.427400
-4.079100 0.570100
-4.059200 0.685500
-4.039200 0.771600
-4.019300 0.858100
-3.999300 0.964800
-3.979400 1.039600
-3.959500 0.986200
-3.939500 0.778800
-3.919600 0.514200
-3.899600 0.333600
-3.879700 0.312200
-3.859800 0.416900
-3.839800 0.551000
-3.819900 0.634100
-3.799900 0.649700
-3.780000 0.639300
-3.760000 0.664200
-3.740100 0.752000
-3.720200 0.860100
-3.700200 0.899500
-3.680300 0.811800
-3.660300 0.641300
-3.640400 0.515700
-3.620400 0.539900
-3.600500 0.719000
-3.580600 0.971100
-3.560600 1.192500
-3.540700 1.322500
-3.520700 1.357100
-3.500800 1.297500
-3.480800 1.123900
-3.460900 0.847000
-3.441000 0.553000
-3.421000 0.365100
-3.401100 0.362700
-3.381100 0.528800
-3.361200 0.760900
-3.341300 0.944500
-3.321300 1.037800
-3.301400 1.094000
-3.281400 1.203000
-3.261500 1.387000
-3.241500 1.547300
-3.221600 1.540500
-3.201700 1.312600
-3.181700 0.954300
-3.161800 0.641300
-3.141800 0.509100
-3.121900 0.575200
-3.101900 0.778800
-3.082000 1.068000
-3.062100 1.412600
-3.042100 1.741100
-3.022200 1.929300
-3.002200 1.895900
-2.982300 1.678100
-2.962300 1.383000
-2.942400 1.101700
-2.922500 0.890400
-2.902500 0.789800
-2.882600 0.823800
-2.862600 0.974200
-2.842700 1.164900
-2.822800 1.298200
-2.802800 1.336700
-2.782900 1.331400
-2.762900 1.345900
-2.743000 1.377600
-2.723000 1.366400
-2.703100 1.254400
-2.683200 1.043900
-2.663200 0.813000
-2.643300 0.648500
-2.623300 0.588100
-2.603400 0.642300
-2.583400 0.795600
-2.563500 0.966800
-2.543600 1.059600
-2.523600 1.061500
-2.503700 1.015700
-2.483700 0.930600
-2.463800 0.799600
-2.443900 0.662200
-2.423900 0.573500
-2.404000 0.535500
-2.384000 0.509000
-2.364100 0.478800
-2.344100 0.461900
-2.324200 0.470300
-2.304300 0.515600
-2.284300 0.618100
-2.264400 0.752200
-2.244400 0.829100
-2.224500 0.796400
-2.204500 0.717700
-2.184600 0.714200
-2.164700 0.862500
-2.144700 1.154200
-2.124800 1.505100
-2.104800 1.801700
-2.084900 1.976300
-2.064900 2.033600
-2.045000 1.992700
-2.025100 1.841000
-2.005100 1.577300
-1.985200 1.265500
-1.965200 1.017100
-1.945300 0.926000
-1.925400 1.005300
-1.905400 1.171300
-1.885500 1.311000
-1.865500 1.366000
-1.845600 1.350200
-1.825600 1.311600
-1.805700 1.290500
-1.785800 1.314600
-1.765800 1.418300
-1.745900 1.614200
-1.725900 1.822400
-1.706000 1.892600
-1.686000 1.774300
-1.666100 1.611800
-1.646200 1.581000
-1.626200 1.686000
-1.606300 1.785900
-1.586300 1.766000
-1.566400 1.633700
-1.546400 1.473200
-1.526500 1.348300
-1.506600 1.272300
-1.486600 1.247600
-1.466700 1.271100
-1.446700 1.309400
-1.426800 1.320000
-1.406900 1.286000
-1.386900 1.226700
-1.367000 1.202700
-1.347000 1.272700
-1.327100 1.399800
-1.307100 1.457700
-1.287200 1.389800
-1.267300 1.314900
-1.247300 1.397800
-1.227400 1.625500
-1.207400 1.817200
-1.187500 1.869400
-1.167500 1.864200
-1.147600 1.906100
-1.127700 1.969600
-1.107700 1.960900
-1.087800 1.876000
-1.067800 1.825100
-1.047900 1.868600
-1.028000 1.886900
-1.008000 1.694900
-0.988100 1.275200
-0.968100 0.819200
-0.948200 0.539700
-0.928200 0.503300
-0.908300 0.635900
-0.888400 0.828900
-0.868400 1.027300
-0.848500 1.239000
-0.828500 1.474200
-0.808600 1.689500
-0.788600 1.803200
-0.768700 1.772600
-0.748800 1.654100
-0.728800 1.564200
-0.708900 1.571500
-0.688900 1.644500
-0.669000 1.705800
-0.649000 1.724400
-0.629100 1.764500
-0.609200 1.927600
-0.589200 2.214000
-0.569300 2.468000
-0.549300 2.512100
-0.529400 2.304300
-0.509500 1.935500
-0.489500 1.530200
-0.469600 1.196800
-0.449600 1.032500
-0.429700 1.096000
-0.409700 1.333200
-0.389800 1.568300
-0.369900 1.648000
-0.349900 1.590300
-0.330000 1.514700
-0.310000 1.464400
-0.290100 1.406400
-0.270100 1.371700
-0.250200 1.477600
-0.230300 1.779400
-0.210300 2.131900
-0.190400 2.269300
-0.170400 2.081400
-0.150500 1.750700
-0.130500 1.558200
-0.110600 1.619000
-0.090700 1.809900
-0.070700 1.883700
-0.050800 1.687400
-0.030800 1.318000
-0.010900 1.041700
0.009000 1.051400
0.029000 1.305000
0.048900 1.585900
0.068900 1.731200
0.088800 1.783400
0.108800 1.871800
0.128700 1.982600
0.148600 1.969100
0.168600 1.779400
0.188500 1.520000
0.208500 1.299000
0.228400 1.144000
0.248400 1.044400
0.268300 0.967400
0.288200 0.868300
0.308200 0.736800
0.328100 0.610400
0.348100 0.540100
0.368000 0.564700
0.388000 0.705700
0.407900 0.943800
0.427800 1.195200
0.447800 1.350000
0.467700 1.340400
0.487700 1.156200
0.507600 0.847700
0.527500 0.532400
0.547500 0.329400
0.567400 0.267100
0.587400 0.281700
0.607300 0.291200
0.627300 0.269100
0.647200 0.258200
0.667100 0.308400
0.687100 0.403700
0.707000 0.473100
0.727000 0.470000
0.746900 0.407000
0.766900 0.317600
0.786800 0.226600
0.806700 0.154800
0.826700 0.115700
0.846600 0.105900
0.866600 0.107100
0.886500 0.098500
0.906400 0.073100
0.926400 0.041300
0.946300 0.017400
0.966300 0.005400
0.986200 0.001200
1.006200 0.000200
1.026100 0.000000
1.046000 0.000000
1.066000 0.000000
1.085900 0.000000
1.105900 0.000000
1.125800 0.000000
1.145800 0.000000
1.165700 0.000000
1.185600 0.000000
1.205600 0.000000
1.225500 0.000000
1.245500 0.000000
1.265400 0.000000
1.285400 0.000000
1.305300 0.000000
1.325200 0.000000
1.345200 0.000000
1.365100 0.000000
1.385100 0.000000
1.405000 0.000000
1.424900 0.000000
1.444900 0.000000
1.464800 0.000000
1.484800 0.000000
1.504700 0.000000
1.524700 0.000000
1.544600 0.000000
1.564500 0.000000
1.584500 0.000000
1.604400 0.000000
1.624400 0.000000
1.644300 0.000000
1.664300 0.000000
1.684200 0.000000
1.704100 0.000000
1.724100 0.000000
1.744000 0.000000
1.764000 0.000000
1.783900 0.000000
1.803900 0.000000
1.823800 0.000000
1.843700 0.000000
1.863700 0.000000
1.883600 0.000000
1.903600 0.000000
1.923500 0.000000
1.943400 0.000000
1.963400 0.000000
1.983300 0.000000
2.003300 0.000000
2.023200 0.000000
2.043200 0.000000
2.063100 0.000000
2.083000 0.000000
2.103000 0.000000
2.122900 0.000000
2.142900 0.000000
2.162800 0.000000
2.182800 0.000000
2.202700 0.000000
2.222600 0.000000
2.242600 0.000000
2.262500 0.000000
2.282500 0.000100
2.302400 0.000800
2.322300 0.003300
2.342300 0.010100
2.362200 0.022600
2.382200 0.037100
2.402100 0.044800
2.422100 0.041200
2.442000 0.033200
2.461900 0.035000
2.481900 0.053400
2.501800 0.078600
2.521800 0.091000
2.541700 0.084600
2.561700 0.083200
2.581600 0.128300
2.601500 0.241600
2.621500 0.388300
2.641400 0.484700
2.661400 0.467600
2.681300 0.357300
2.701300 0.242500
2.721200 0.218500
2.741100 0.335200
2.761100 0.569600
2.781000 0.832200
2.801000 1.022400
2.820900 1.092600
2.840800 1.063800
2.860800 0.987800
2.880700 0.899500
2.900700 0.819300
2.920600 0.796300
2.940600 0.878900
2.960500 1.028700
2.980400 1.141100
3.000400 1.158400
3.020300 1.107000
3.040300 1.051100
3.060200 1.040300
3.080200 1.054900
3.100100 1.021000
3.120000 0.934900
3.140000 0.934600
3.159900 1.172900
3.179900 1.626100
3.199800 2.096500
3.219800 2.417500
3.239700 2.601500
3.259600 2.789800
3.279600 3.110800
3.299500 3.550700
3.319500 3.921100
3.339400 4.019300
3.359300 3.847300
3.379300 3.579500
3.399200 3.351800
3.419200 3.198500
3.439100 3.119500
3.459100 3.096900
3.479000 3.097400
3.498900 3.101500
3.518900 3.099200
3.538800 3.072900
3.558800 3.012800
3.578700 2.932000
3.598700 2.868500
3.618600 2.867800
3.638500 2.910000
3.658500 2.895200
3.678400 2.811100
3.698400 2.882800
3.718300 3.416400
3.738200 4.441400
3.758200 5.605700
3.778100 6.531000
3.798100 7.159900
3.818000 7.587400
3.838000 7.725500
3.857900 7.393700
3.877800 6.634300
3.897800 5.769700
3.917700 5.207300
3.937700 5.217900
3.957600 5.802300
3.977600 6.707600
3.997500 7.584200
4.017400 8.149800
4.037400 8.276700
4.057300 8.009100
4.077300 7.491700
4.097200 6.890700
4.117200 6.424000
4.137100 6.357100
4.157000 6.854700
4.177000 7.897200
4.196900 9.358100
4.216900 11.028000
4.236800 12.535000
4.256700 13.426900
4.276700 13.492600
4.296600 12.955800
4.316600 12.199500
4.336500 11.309700
4.356500 10.089800
4.376400 8.548200
4.396300 7.149600
4.416300 6.509600
4.436200 6.948700
4.456200 8.381000
4.476100 10.516600
4.496100 12.892000
4.516000 14.664500
4.535900 14.902200
4.555900 13.439400
4.575800 11.108000
4.595800 8.945200
4.615700 7.525600
4.635700 7.016500
4.655600 7.338300
4.675500 8.110300
4.695500 8.751200
4.715400 8.826700
4.735400 8.261600
4.755300 7.236200
4.775200 5.991500
4.795200 4.761200
4.815100 3.817100
4.835100 3.417400
4.855000 3.563000
4.875000 3.883100
4.894900 3.945500
4.914800 3.645500
4.934800 3.178800
4.954700 2.745600
4.974700 2.394000
4.994600 2.058600
5.014600 1.688300
5.034500 1.381500
5.054400 1.353900
5.074400 1.706200
5.094300 2.295000
5.114300 2.873200
5.134200 3.262500
5.154100 3.358800
5.174100 3.124400
5.194000 2.675400
5.214000 2.272800
5.233900 2.114500
5.253900 2.169500
5.273800 2.248700
5.293700 2.197500
5.313700 2.008000
5.333600 1.777200
5.353600 1.609000
5.373500 1.567300
5.393500 1.657900
5.413400 1.831600
5.433300 2.041600
5.453300 2.288700
5.473200 2.566900
5.493200 2.787900
5.513100 2.856600
5.533100 2.844600
5.553000 2.911900
5.572900 3.009900
5.592900 2.916700
5.612800 2.622000
5.632800 2.405900
5.652700 2.508200
5.672600 2.907200
5.692600 3.395200
5.712500 3.769900
5.732500 3.963600
5.752400 3.989600
5.772400 3.826000
5.792300 3.452200
5.812200 2.935600
5.832200 2.406500
5.852100 2.009200
5.872100 1.858500
5.892000 1.944400
5.912000 2.095200
5.931900 2.112100
5.951800 1.933700
5.971800 1.664000
5.991700 1.479600
6.011700 1.513200
6.031600 1.769400
6.051600 2.103700
6.071500 2.319400
6.091400 2.326500
6.111400 2.183900
6.131300 1.989500
6.151300 1.802800
6.171200 1.681200
6.191100 1.688200
6.211100 1.805700
6.231000 1.936100
6.251000 2.048000
6.270900 2.200100
6.290900 2.405600
6.310800 2.621200
6.330700 2.854600
6.350700 3.121300
6.370600 3.309600
6.390600 3.243800
6.410500 2.890500
6.430500 2.391900
6.450400 1.908800
6.470300 1.517600
6.490300 1.238900
6.510200 1.090500
6.530200 1.079300
6.550100 1.160700
6.570100 1.269700
6.590000 1.408700
6.609900 1.634300
6.629900 1.942400
6.649800 2.237000
6.669800 2.423400
6.689700 2.476200
6.709600 2.426400
6.729600 2.307400
6.749500 2.108000
6.769500 1.804500
6.789400 1.449200
6.809400 1.177100
6.829300 1.096000
6.849200 1.173800
6.869200 1.271700
6.889100 1.313200
6.909100 1.351100
6.929000 1.424600
6.949000 1.470500
6.968900 1.435400
6.988800 1.358200
7.008800 1.280600
7.028700 1.158300
7.048700 0.939000
7.068600 0.691600
7.088500 0.574000
7.108500 0.676000
7.128400 0.943900
7.148400 1.257700
7.168300 1.527200
7.188300 1.697800
7.208200 1.738500
7.228100 1.685700
7.248100 1.645400
7.268000 1.693900
7.288000 1.795000
7.307900 1.828700
7.327900 1.690100
7.347800 1.380800
7.367700 1.024200
7.387700 0.777400
7.407600 0.722000
7.427600 0.834600
7.447500 1.032700
7.467500 1.232800
7.487400 1.381600
7.507300 1.453200
7.527300 1.460400
7.547200 1.491400
7.567200 1.683000
7.587100 2.101300
7.607000 2.634300
7.627000 3.028100
7.646900 3.083200
7.666900 2.838400
7.686800 2.537800
7.706800 2.413000
7.726700 2.515000
7.746600 2.725200
7.766600 2.866400
7.786500 2.806900
7.806500 2.528300
7.826400 2.141100
7.846400 1.825600
7.866300 1.704700
7.886200 1.755400
7.906200 1.855900
7.926100 1.876700
7.946100 1.725700
7.966000 1.413400
7.986000 1.099000
8.005900 0.985900
8.025800 1.145400
8.045800 1.468900
8.065700 1.799200
8.085700 2.066100
8.105600 2.253200
8.125500 2.303000
8.145500 2.163500
8.165400 1.902000
8.185400 1.690600
8.205300 1.661900
8.225300 1.801300
8.245200 1.987600
8.265100 2.109700
8.285100 2.110700
8.305000 1.981500
8.325000 1.787800
8.344900 1.639600
8.364900 1.569000
8.384800 1.527800
8.404700 1.549700
8.424700 1.775900
8.444600 2.241900
8.464600 2.737200
8.484500 2.977500
8.504400 2.895500
8.524400 2.679400
8.544300 2.546200
8.564300 2.559500
8.584200 2.621500
8.604200 2.573500
8.624100 2.343800
8.644000 2.019100
8.664000 1.748400
8.683900 1.598900
8.703900 1.544200
8.723800 1.569900
8.743800 1.736000
8.763700 2.096400
8.783600 2.562900
8.803600 2.898900
8.823500 2.901900
8.843500 2.580500
8.863400 2.133000
8.883400 1.809700
8.903300 1.801600
8.923200 2.168900
8.943200 2.798300
8.963100 3.421600
8.983100 3.739200
9.003000 3.635400
9.022900 3.282400
9.042900 2.937200
9.062800 2.656400
9.082800 2.314100
9.102700 1.845800
9.122700 1.347400
9.142600 0.957900
9.162500 0.743000
9.182500 0.684400
9.202400 0.712100
9.222400 0.759400
9.242300 0.821300
9.262300 0.945600
9.282200 1.156900
9.302100 1.403000
9.322100 1.580200
9.342000 1.613800
9.362000 1.525300
9.381900 1.422000
9.401900 1.412000
9.421800 1.518900
9.441700 1.670300
9.461700 1.789100
9.481600 1.875100
9.501600 1.948500
9.521500 1.974700
9.541400 1.942200
9.561400 1.967500
9.581300 2.204700
9.601300 2.636600
9.621200 3.036000
9.641200 3.174400
9.661100 3.011800
9.681000 2.650900
9.701000 2.188800
9.720900 1.699900
9.740900 1.292000
9.760800 1.085000
9.780800 1.160600
9.800700 1.533900
9.820600 2.082400
9.840600 2.515300
9.860500 2.559500
9.880500 2.223000
9.900400 1.794200
9.920300 1.561100
9.940300 1.573200
9.960200 1.678200
9.980200 1.725700
10.000100 1.689300
10.020100 1.631800
10.040000 1.633300
10.059900 1.744000
10.079900 1.947700
10.099800 2.172900
10.119800 2.344500
10.139700 2.427500
10.159700 2.468200
10.179600 2.583300
10.199500 2.817600
10.219500 3.077200
10.239400 3.303500
10.259400 3.554600
10.279300 3.784900
10.299300 3.757900
10.319200 3.327700
10.339100 2.668300
10.359100 2.141600
10.379000 2.017300
10.399000 2.337300
10.418900 2.944600
10.438800 3.565000
10.458800 3.920000
10.478700 3.902900
10.498700 3.654800
10.518600 3.405000
10.538600 3.290800
10.558500 3.375800
10.578400 3.685700
10.598400 4.083900
10.618300 4.244700
10.638300 3.948800
10.658200 3.368800
10.678200 2.904600
10.698100 2.741700
10.718000 2.725300
10.738000 2.669700
10.757900 2.592200
10.777900 2.576400
10.797800 2.574600
10.817800 2.459400
10.837700 2.229300
10.857600 2.092000
10.877600 2.269300
10.897500 2.703600
10.917500 3.046600
10.937400 3.008000
10.957300 2.647700
10.977300 2.244000
10.997200 1.968700
11.017200 1.809600
11.037100 1.737700
11.057100 1.790200
11.077000 1.946300
11.096900 2.049300
11.116900 1.965500
11.136800 1.737700
11.156800 1.494100
11.176700 1.309200
11.196700 1.227600
11.216600 1.298800
11.236500 1.486800
11.256500 1.635800
11.276400 1.641000
11.296400 1.614500
11.316300 1.778500
11.336200 2.203300
11.356200 2.703600
11.376100 2.974600
11.396100 2.859400
11.416000 2.526700
11.436000 2.317400
11.455900 2.394600
11.475800 2.642900
11.495800 2.883000
11.515700 3.041400
11.535700 3.143300
11.555600 3.295000
11.575600 3.634800
11.595500 4.147000
11.615400 4.541200
11.635400 4.466900
11.655300 3.897800
11.675300 3.207400
11.695200 2.785500
11.715200 2.663500
11.735100 2.604800
11.755000 2.449600
11.775000 2.235700
11.794900 2.058000
11.814900 1.970700
11.834800 2.037300
11.854700 2.334300
11.874700 2.822000
11.894600 3.257700
11.914600 3.332400
11.934500 2.973400
11.954500 2.484000
11.974400 2.259000
11.994300 2.365800
12.014300 2.541800
12.034200 2.573200
12.054200 2.485500
12.074100 2.388300
12.094100 2.331100
12.114000 2.313900
12.133900 2.331800
12.153900 2.375800
12.173800 2.414100
12.193800 2.431000
12.213700 2.483100
12.233700 2.605100
12.253600 2.661400
12.273500 2.459700
12.293500 2.033300
12.313400 1.653200
12.333400 1.535000
12.353300 1.665700
12.373200 1.935500
12.393200 2.265800
12.413100 2.536600
12.433100 2.588700
12.453000 2.427000
12.473000 2.249400
12.492900 2.180500
12.512800 2.148600
12.532800 2.056500
12.552700 1.906900
12.572700 1.759100
12.592600 1.666600
12.612600 1.643100
12.632500 1.666800
12.652400 1.739200
12.672400 1.905700
12.692300 2.163300
12.712300 2.375900
12.732200 2.370800
12.752200 2.139900
12.772100 1.900600
12.792000 1.929400
12.812000 2.285200
12.831900 2.674100
12.851900 2.694600
12.871800 2.265900
12.891700 1.686900
12.911700 1.265300
12.931600 1.063200
12.951600 0.989100
12.971500 0.959000
12.991500 0.955300
13.011400 1.001700
13.031300 1.083700
13.051300 1.129600
13.071200 1.106200
13.091200 1.068100
13.111100 1.078200
13.131100 1.143900
13.151000 1.243900
13.170900 1.345100
13.190900 1.384400
13.210800 1.304700
13.230800 1.111700
13.250700 0.869800
13.270600 0.680100
13.290600 0.666700
13.310500 0.912900
13.330500 1.357500
13.350400 1.793300
13.370400 2.024300
13.390300 2.019100
13.410200 1.913400
13.430200 1.906100
13.450100 2.135600
13.470100 2.589500
13.490000 3.102200
13.510000 3.431800
13.529900 3.382700
13.549800 2.945200
13.569800 2.332700
13.589700 1.831300
13.609700 1.598300
13.629600 1.587500
13.649600 1.610400
13.669500 1.503400
13.689400 1.302000
13.709400 1.206500
13.729300 1.353500
13.749300 1.674700
13.769200 1.984500
13.789100 2.165000
13.809100 2.239000
13.829000 2.253700
13.849000 2.161300
13.868900 1.885800
13.888900 1.469800
13.908800 1.086800
13.928700 0.904100
13.948700 0.959800
13.968600 1.196000
13.988600 1.571100
14.008500 2.069100
14.028500 2.621800
14.048400 3.101200
14.068300 3.369500
14.088300 3.311500
14.108200 2.891600
14.128200 2.214600
14.148100 1.499600
14.168100 0.975200
14.188000 0.757200
14.207900 0.799600
14.227900 0.969500
14.247800 1.157400
14.267800 1.316300
14.287700 1.455200
14.307600 1.619900
14.327600 1.821500
14.347500 1.980100
14.367500 2.006800
14.387400 1.937800
14.407400 1.899600
14.427300 1.918500
14.447200 1.868300
14.467200 1.674300
14.487100 1.459500
14.507100 1.401900
14.527000 1.541000
14.547000 1.769800
14.566900 1.933100
14.586800 1.919300
14.606800 1.730700
14.626700 1.475600
14.646700 1.269800
14.666600 1.177300
14.686500 1.245300
14.706500 1.507800
14.726400 1.908600
14.746400 2.280500
14.766300 2.457500
14.786300 2.399400
14.806200 2.193700
14.826100 1.977900
14.846100 1.881600
14.866000 1.974200
14.886000 2.213500
14.905900 2.469100
14.925900 2.601600
14.945800 2.522200
14.965700 2.254900
14.985700 1.984000
15.005600 1.942300
15.025600 2.182100
15.045500 2.513300
15.065500 2.697300
15.085400 2.652700
15.105300 2.490400
15.125300 2.398400
15.145200 2.470200
15.165200 2.635100
15.185100 2.746400
15.205000 2.687400
15.225000 2.429900
15.244900 2.069000
15.264900 1.800200
15.284800 1.835900
15.304800 2.282600
15.324700 3.001300
15.344600 3.634200
15.364600 3.893500
15.384500 3.788700
15.404500 3.487700
15.424400 3.070500
15.444400 2.546900
15.464300 2.013100
15.484200 1.636300
15.504200 1.518300
15.524100 1.666500
15.544100 2.045000
15.564000 2.540000
15.584000 2.922100
15.603900 2.998300
15.623800 2.807600
15.643800 2.569900
15.663700 2.459000
15.683700 2.483200
15.703600 2.547300
15.723500 2.582200
15.743500 2.607700
15.763400 2.680100
15.783400 2.829200
15.803300 3.060700
15.823300 3.368500
15.843200 3.713700
15.863100 3.999200
15.883100 4.106800
15.903000 3.989400
15.923000 3.695000
15.942900 3.317800
15.962900 2.985400
15.982800 2.850900
16.002700 3.016200
16.022700 3.419400
16.042600 3.802000
16.062600 3.870300
16.082500 3.547000
16.102400 3.028700
16.122400 2.577700
16.142300 2.288500
16.162300 2.088300
16.182200 1.914600
16.202200 1.783900
16.222100 1.686500
16.242000 1.565300
16.262000 1.447300
16.281900 1.458000
16.301900 1.688900
16.321800 2.143800
16.341800 2.729900
16.361700 3.232300
16.381600 3.450800
16.401600 3.391900
16.421500 3.208900
16.441500 3.029300
16.461400 2.938900
16.481400 2.986500
16.501300 3.109300
16.521200 3.172100
16.541200 3.097700
16.561100 2.870600
16.581100 2.495600
16.601000 2.059200
16.620900 1.752500
16.640900 1.753000
16.660800 2.130500
16.680800 2.856300
16.700700 3.808500
16.720700 4.780100
16.740600 5.552900
16.760500 5.952100
16.780500 5.881900
16.800400 5.416000
16.820400 4.755600
16.840300 4.038700
16.860300 3.335100
16.880200 2.780200
16.900100 2.497600
16.920100 2.422900
16.940000 2.382000
16.960000 2.332900
16.979900 2.399400
16.999900 2.661300
17.019800 2.998600
17.039700 3.192700
17.059700 3.211300
17.079600 3.312900
17.099600 3.722500
17.119500 4.264400
17.139400 4.527400
17.159400 4.376000
17.179300 4.079200
17.199300 3.918100
17.219200 3.865300
17.239200 3.727500
17.259100 3.457700
17.279000 3.202400
17.299000 3.102800
17.318900 3.157700
17.338900 3.297000
17.358800 3.527300
17.378800 3.887500
17.398700 4.265300
17.418600 4.426400
17.438600 4.247800
17.458500 3.820400
17.478500 3.374200
17.498400 3.139800
17.518300 3.170600
17.538300 3.292800
17.558200 3.331000
17.578200 3.324600
17.598100 3.408400
17.618100 3.557500
17.638000 3.626200
17.657900 3.634400
17.677900 3.829800
17.697800 4.363100
17.717800 5.008500
17.737700 5.327000
17.757700 5.083000
17.777600 4.446000
17.797500 3.812300
17.817500 3.462900
17.837400 3.426900
17.857400 3.612800
17.877300 3.886800
17.897300 4.041800
17.917200 3.912400
17.937100 3.520800
17.957100 3.003800
17.977000 2.503700
17.997000 2.173200
18.016900 2.132100
18.036800 2.367800
18.056800 2.738200
18.076700 3.088700
18.096700 3.352100
18.116600 3.522100
18.136600 3.594600
18.156500 3.605100
18.176400 3.633800
18.196400 3.672900
18.216300 3.583500
18.236300 3.319500
18.256200 3.078700
18.276200 3.038200
18.296100 3.078500
18.316000 2.984800
18.336000 2.766400
18.355900 2.572700
18.375900 2.454500
18.395800 2.369400
18.415800 2.274400
18.435700 2.137500
18.455600 1.975900
18.475600 1.894600
18.495500 1.984200
18.515500 2.181800
18.535400 2.310400
18.555300 2.263500
18.575300 2.122200
18.595200 2.103700
18.615200 2.391600
18.635100 2.959700
18.655100 3.511200
18.675000 3.634000
18.694900 3.139800
18.714900 2.268000
18.734800 1.475000
18.754800 1.046200
18.774700 0.967000
18.794700 1.103900
18.814600 1.396200
18.834500 1.838800
18.854500 2.334800
18.874400 2.651200
18.894400 2.603800
18.914300 2.250600
18.934300 1.819800
18.954200 1.511800
18.974100 1.411900
18.994100 1.495600
19.014000 1.678100
19.034000 1.888300
19.053900 2.106600
19.073800 2.392600
19.093800 2.864900
19.113700 3.531500
19.133700 4.148600
19.153600 4.391600
19.173600 4.199700
19.193500 3.830000
19.213400 3.526700
19.233400 3.261000
19.253300 2.882800
19.273300 2.417900
19.293200 2.078500
19.313200 2.014900
19.333100 2.165300
19.353000 2.335100
19.373000 2.360600
19.392900 2.209700
19.412900 1.953600
19.432800 1.688900
19.452700 1.562200
19.472700 1.767500
19.492600 2.337400
19.512600 2.999900
19.532500 3.406400
19.552500 3.456900
19.572400 3.285700
19.592300 3.016200
19.612300 2.709500
19.632200 2.479400
19.652200 2.444300
19.672100 2.584100
19.692100 2.768300
19.712000 2.873600
19.731900 2.839400
19.751900 2.708700
19.771800 2.632600
19.791800 2.734400
19.811700 2.950100
19.831700 3.078300
19.851600 3.012200
19.871500 2.851400
19.891500 2.734800
19.911400 2.662600
19.931400 2.560000
19.951300 2.392100
19.971200 2.147100
19.991200 1.833000
20.011100 1.527000
20.031100 1.323200
20.051000 1.253200
20.071000 1.330300
20.090900 1.594500
20.110800 2.040100
20.130800 2.555300
20.150700 2.981400
20.170700 3.234300
20.190600 3.362200
20.210600 3.451700
20.230500 3.485500
20.250400 3.345000
20.270400 2.968300
20.290300 2.491000
20.310300 2.204900
20.330200 2.326700
20.350200 2.797700
20.370100 3.341000
20.390000 3.693400
20.410000 3.740000
20.429900 3.476000
20.449900 2.976100
20.469800 2.421700
20.489700 2.036800
20.509700 1.946400
20.529600 2.128900
20.549600 2.475900
20.569500 2.873100
20.589500 3.248100
20.609400 3.540800
20.629300 3.638000
20.649300 3.415800
20.669200 2.907000
20.689200 2.396100
20.709100 2.245600
20.729100 2.564900
20.749000 3.083200
20.768900 3.388700
20.788900 3.290500
20.808800 2.943200
20.828800 2.655500
20.848700 2.651800
20.868600 2.979000
20.888600 3.471500
20.908500 3.810300
20.928500 3.794300
20.948400 3.537800
20.968400 3.285400
20.988300 3.153300
21.008200 3.158000
21.028200 3.316700
21.048100 3.578900
21.068100 3.790800
21.088000 3.858900
21.108000 3.877000
21.127900 3.986500
21.147800 4.177000
21.167800 4.296300
21.187700 4.203900
21.207700 3.886700
21.227600 3.457500
21.247600 3.028600
21.267500 2.607500
21.287400 2.163700
21.307400 1.748600
21.327300 1.476000
21.347300 1.393100
21.367200 1.428100
21.387100 1.490800
21.407100 1.602700
21.427000 1.874800
21.447000 2.342300
21.466900 2.870900
21.486900 3.253000
21.506800 3.389300
21.526700 3.386300
21.546700 3.468800
21.566600 3.769900
21.586600 4.195400
21.606500 4.516800
21.626500 4.582300
21.646400 4.389700
21.666300 4.016600
21.686300 3.576300
21.706200 3.209700
21.726200 3.046000
21.746100 3.141900
21.766100 3.424700
21.786000 3.713500
21.805900 3.869100
21.825900 3.907400
21.845800 3.888800
21.865800 3.759100
21.885700 3.426700
21.905600 2.966500
21.925600 2.619900
21.945500 2.566700
21.965500 2.759200
21.985400 3.005800
22.005400 3.159900
22.025300 3.196000
22.045200 3.142500
22.065200 3.008700
22.085100 2.801500
22.105100 2.574600
22.125000 2.438700
22.145000 2.553500
22.164900 3.059700
22.184800 3.903000
22.204800 4.754200
22.224700 5.228700
22.244700 5.208600
22.264600 4.895100
22.284500 4.553900
22.304500 4.294700
22.324400 4.113100
22.344400 4.012600
22.364300 4.019000
22.384300 4.147200
22.404200 4.351700
22.424100 4.491300
22.444100 4.433400
22.464000 4.216100
22.484000 4.019600
22.503900 3.954800
22.523900 3.921900
22.543800 3.708400
22.563700 3.227300
22.583700 2.616200
22.603600 2.105700
22.623600 1.861100
22.643500 1.926800
22.663500 2.232400
22.683400 2.660000
22.703300 3.145500
22.723300 3.651500
22.743200 4.057900
22.763200 4.250800
22.783100 4.316900
22.803000 4.435400
22.823000 4.582000
22.842900 4.567800
22.862900 4.366600
22.882800 4.169100
22.902800 4.122900
22.922700 4.222300
22.942600 4.409800
22.962600 4.584200
22.982500 4.565100
23.002500 4.215600
23.022400 3.599900
23.042400 2.974400
23.062300 2.620300
23.082200 2.629400
23.102200 2.840900
23.122100 3.041100
23.142100 3.187900
23.162000 3.358400
23.182000 3.573700
23.201900 3.783200
23.221800 3.948300
23.241800 4.060200
23.261700 4.116000
23.281700 4.111100
23.301600 4.036800
23.321500 3.899600
23.341500 3.760900
23.361400 3.667500
23.381400 3.516200
23.401300 3.129100
23.421300 2.493900
23.441200 1.814700
23.461100 1.329700
23.481100 1.137300
23.501000 1.173900
23.521000 1.317300
23.540900 1.499900
23.560900 1.725700
23.580800 1.980600
23.600700 2.153100
23.620700 2.119800
23.640600 1.913200
23.660600 1.698500
23.680500 1.581700
23.700400 1.545000
23.720400 1.538500
23.740300 1.546900
23.760300 1.571300
23.780200 1.577200
23.800200 1.503300
23.820100 1.355700
23.840000 1.243200
23.860000 1.255700
23.879900 1.338000
23.899900 1.337800
23.919800 1.185500
23.939800 0.990900
23.959700 0.904900
23.979600 0.914900
23.999600 0.873200
24.019500 0.710100
24.039500 0.500300
24.059400 0.335700
24.079400 0.243900
24.099300 0.211800
24.119200 0.205600
24.139200 0.185200
24.159100 0.141100
24.179100 0.105400
24.199000 0.110700
24.218900 0.149800
24.238900 0.180200
24.258800 0.169700
24.278800 0.132800
24.298700 0.113200
24.318700 0.137100
24.338600 0.194000
24.358500 0.252800
24.378500 0.284900
24.398400 0.283200
24.418400 0.266800
24.438300 0.260600
24.458300 0.268900
24.478200 0.278800
24.498100 0.280900
24.518100 0.269300
24.538000 0.237800
24.558000 0.192600
24.577900 0.154900
24.597900 0.138300
24.617800 0.141500
24.637700 0.166600
24.657700 0.218300
24.677600 0.278200
24.697600 0.310000
24.717500 0.302200
24.737400 0.272500
24.757400 0.229700
24.777300 0.169800
24.797300 0.106200
24.817200 0.069700
24.837200 0.080000
24.857100 0.126700
24.877000 0.170800
24.897000 0.172900
24.916900 0.130200
24.936900 0.078600
24.956800 0.058100
24.976800 0.086200
24.996700 0.150600
25.016600 0.209500
25.036600 0.216500
25.056500 0.165200
25.076500 0.094500
25.096400 0.049100
25.116400 0.052500
25.136300 0.114700
25.156200 0.228800
25.176200 0.350900
25.196100 0.418200
25.216100 0.404700
25.236000 0.335100
25.255900 0.242500
25.275900 0.149000
25.295800 0.073600
25.315800 0.028000
25.335700 0.008000
25.355700 0.001700
25.375600 0.000300
25.395500 0.000000
25.415500 0.000000
25.435400 0.000000
25.455400 0.000000
25.475300 0.000000
25.495300 0.000000
25.515200 0.000000
25.535100 0.000000
25.555100 0.000100
25.575000 0.000800
25.595000 0.003700
25.614900 0.012800
25.634800 0.032900
25.654800 0.061800
25.674700 0.085200
25.694700 0.086200
25.714600 0.063900
25.734600 0.034800
25.754500 0.014100
25.774400 0.005500
25.794400 0.007000
25.814300 0.019900
25.834300 0.047700
25.854200 0.086400
25.874200 0.118200
25.894100 0.123000
25.914000 0.097900
25.934000 0.059700
25.953900 0.028000
25.973900 0.010000
25.993800 0.002700
26.013800 0.000600
26.033700 0.000100
26.053600 0.000000
26.073600 0.000000
26.093500 0.000000
26.113500 0.000000
26.133400 0.000000
26.153300 0.000000
26.173300 0.000000
26.193200 0.000000
26.213200 0.000000
26.233100 0.000000
26.253100 0.000000
26.273000 0.000000
26.292900 0.000000
26.312900 0.000000
26.332800 0.000000
26.352800 0.000000
26.372700 0.000000
26.392700 0.000000
26.412600 0.000000
26.432500 0.000000
26.452500 0.000000
26.472400 0.000000
26.492400 0.000000
26.512300 0.000000
26.532300 0.000000
26.552200 0.000000
26.572100 0.000000
26.592100 0.000000
26.612000 0.000000
26.632000 0.000000
26.651900 0.000000
26.671800 0.000000
26.691800 0.000000
26.711700 0.000000
26.731700 0.000000
26.751600 0.000000
26.771600 0.000000
26.791500 0.000000
26.811400 0.000000
26.831400 0.000000
26.851300 0.000000
26.871300 0.000000
26.891200 0.000000
26.911200 0.000000
26.931100 0.000000
26.951000 0.000000
26.971000 0.000000
26.990900 0.000000
27.010900 0.000000
27.030800 0.000000
27.050700 0.000000
27.070700 0.000000
27.090600 0.000000
27.110600 0.000000
27.130500 0.000000
27.150500 0.000000
27.170400 0.000000
27.190300 0.000000
27.210300 0.000000
27.230200 0.000000
27.250200 0.000000
27.270100 0.000000
27.290100 0.000000
27.310000 0.000000
27.329900 0.000000
27.349900 0.000000
27.369800 0.000000
27.389800 0.000000
27.409700 0.000000
27.429700 0.000000
27.449600 0.000000
27.469500 0.000000
27.489500 0.000000
27.509400 0.000000
27.529400 0.000000
27.549300 0.000000
27.569200 0.000000
27.589200 0.000000
27.609100 0.000000
27.629100 0.000000
27.649000 0.000000
27.669000 0.000000
27.688900 0.000000
27.708800 0.000000
e
