set title 'mp-1008910 - Density of States'
set xlabel 'Energy (eV)'
set ylabel 'DOS (states/eV)'
set grid
set xrange [-10:10]
set yrange [0:43.835]
set xzeroaxis lt -1
set terminal png size 800,600
set output 'mp-1008910_dos_gnuplot.png'
plot '-' using 1:2 with lines title 'DOS'
-28.915200 0.000000
-28.875600 0.000000
-28.836100 0.000000
-28.796500 0.000000
-28.757000 0.000000
-28.717400 0.000000
-28.677900 0.000000
-28.638300 0.000000
-28.598800 0.000000
-28.559200 0.000000
-28.519600 0.000000
-28.480100 0.000000
-28.440500 0.000000
-28.401000 0.000000
-28.361400 0.000000
-28.321900 0.000000
-28.282300 0.000000
-28.242800 0.000000
-28.203200 0.000000
-28.163600 0.000000
-28.124100 0.000000
-28.084500 0.000000
-28.045000 0.000000
-28.005400 0.000000
-27.965900 0.000000
-27.926300 0.000000
-27.886800 0.000000
-27.847200 0.000000
-27.807700 0.000000
-27.768100 0.000000
-27.728500 0.000000
-27.689000 0.000000
-27.649400 0.000000
-27.609900 0.000000
-27.570300 0.000000
-27.530800 0.000000
-27.491200 0.000000
-27.451700 0.000000
-27.412100 0.000000
-27.372500 0.000000
-27.333000 0.000000
-27.293400 0.000000
-27.253900 0.000000
-27.214300 0.000000
-27.174800 0.000000
-27.135200 0.000000
-27.095700 0.000000
-27.056100 0.000000
-27.016600 0.000000
-26.977000 0.000000
-26.937400 0.000000
-26.897900 0.000000
-26.858300 0.000000
-26.818800 0.000000
-26.779200 0.000000
-26.739700 0.000000
-26.700100 0.000000
-26.660600 0.000000
-26.621000 0.000000
-26.581400 0.000000
-26.541900 0.000000
-26.502300 0.000000
-26.462800 0.000000
-26.423200 0.000000
-26.383700 0.000000
-26.344100 0.000000
-26.304600 0.000000
-26.265000 0.000000
-26.225500 0.000000
-26.185900 0.000000
-26.146300 0.000000
-26.106800 0.000000
-26.067200 0.000000
-26.027700 0.000000
-25.988100 0.000000
-25.948600 0.000000
-25.909000 0.000000
-25.869500 0.000000
-25.829900 0.000000
-25.790300 0.000000
-25.750800 0.000000
-25.711200 0.000000
-25.671700 0.000000
-25.632100 0.000000
-25.592600 0.000000
-25.553000 0.000000
-25.513500 0.000000
-25.473900 0.000000
-25.434400 0.000000
-25.394800 0.000000
-25.355200 0.000000
-25.315700 13.670700
-25.276100 4.771800
-25.236600 3.152900
-25.197000 3.152900
-25.157500 3.152800
-25.117900 25.564800
-25.078400 31.366400
-25.038800 2.589700
-24.999300 2.589700
-24.959700 3.006900
-24.920100 3.006900
-24.880600 4.445000
-24.841000 4.445000
-24.801500 0.000000
-24.761900 0.000000
-24.722400 0.000000
-24.682800 0.000000
-24.643300 0.000000
-24.603700 0.000000
-24.564100 0.000000
-24.524600 0.000000
-24.485000 0.000000
-24.445500 0.000000
-24.405900 0.000000
-24.366400 0.000000
-24.326800 0.000000
-24.287300 0.000000
-24.247700 0.000000
-24.208200 0.000000
-24.168600 0.000000
-24.129000 0.000000
-24.089500 0.000000
-24.049900 0.000000
-24.010400 0.000000
-23.970800 0.000000
-23.931300 0.000000
-23.891700 0.000000
-23.852200 0.000000
-23.812600 0.000000
-23.773000 0.000000
-23.733500 0.000000
-23.693900 0.000000
-23.654400 0.000000
-23.614800 0.000000
-23.575300 0.000000
-23.535700 0.000000
-23.496200 0.000000
-23.456600 0.000000
-23.417100 0.000000
-23.377500 0.000000
-23.337900 0.000000
-23.298400 0.000000
-23.258800 0.000000
-23.219300 0.000000
-23.179700 0.000000
-23.140200 0.000000
-23.100600 0.000000
-23.061100 0.000000
-23.021500 0.000000
-22.981900 0.000000
-22.942400 0.000000
-22.902800 0.000000
-22.863300 0.000000
-22.823700 0.000000
-22.784200 0.000000
-22.744600 0.000000
-22.705100 0.000000
-22.665500 0.000000
-22.626000 0.000000
-22.586400 0.000000
-22.546800 0.000000
-22.507300 0.000000
-22.467700 0.000000
-22.428200 0.000000
-22.388600 0.000000
-22.349100 0.000000
-22.309500 0.000000
-22.270000 0.000000
-22.230400 0.000000
-22.190900 0.000000
-22.151300 0.000000
-22.111700 0.000000
-22.072200 0.000000
-22.032600 0.000000
-21.993100 0.000000
-21.953500 0.000000
-21.914000 0.000000
-21.874400 0.000000
-21.834900 0.000000
-21.795300 0.000000
-21.755700 0.000000
-21.716200 0.000000
-21.676600 0.000000
-21.637100 0.000000
-21.597500 0.000000
-21.558000 0.000000
-21.518400 0.000000
-21.478900 0.000000
-21.439300 0.000000
-21.399800 0.000000
-21.360200 0.000000
-21.320600 0.000000
-21.281100 0.000000
-21.241500 0.000000
-21.202000 0.000000
-21.162400 0.000000
-21.122900 0.000000
-21.083300 0.000000
-21.043800 0.000000
-21.004200 0.000000
-20.964600 0.000000
-20.925100 0.000000
-20.885500 0.000000
-20.846000 0.000000
-20.806400 0.000000
-20.766900 0.000000
-20.727300 0.000000
-20.687800 0.000000
-20.648200 0.000000
-20.608700 0.000000
-20.569100 0.000000
-20.529500 0.000000
-20.490000 0.000000
-20.450400 0.000000
-20.410900 0.000000
-20.371300 0.000000
-20.331800 0.000000
-20.292200 0.000000
-20.252700 0.000000
-20.213100 0.000000
-20.173500 0.000000
-20.134000 0.000000
-20.094400 0.000000
-20.054900 0.000000
-20.015300 0.000000
-19.975800 0.000000
-19.936200 0.000000
-19.896700 0.000000
-19.857100 0.000000
-19.817600 0.000000
-19.778000 0.000000
-19.738400 0.000000
-19.698900 0.000000
-19.659300 0.000000
-19.619800 0.000000
-19.580200 0.000000
-19.540700 0.000000
-19.501100 0.000000
-19.461600 0.000000
-19.422000 0.000000
-19.382500 0.000000
-19.342900 0.000000
-19.303300 0.000000
-19.263800 0.000000
-19.224200 0.000000
-19.184700 0.000000
-19.145100 0.000000
-19.105600 0.000000
-19.066000 0.000000
-19.026500 0.000000
-18.986900 0.000000
-18.947300 0.000000
-18.907800 0.000000
-18.868200 0.000000
-18.828700 0.000000
-18.789100 0.000000
-18.749600 0.000000
-18.710000 0.000000
-18.670500 0.000000
-18.630900 0.000000
-18.591400 0.000000
-18.551800 0.000000
-18.512200 0.000000
-18.472700 0.000000
-18.433100 0.000000
-18.393600 0.000000
-18.354000 0.000000
-18.314500 0.000000
-18.274900 0.000000
-18.235400 0.000000
-18.195800 0.000000
-18.156200 0.000000
-18.116700 0.000000
-18.077100 0.000000
-18.037600 0.000000
-17.998000 0.000000
-17.958500 0.000000
-17.918900 0.000000
-17.879400 0.000000
-17.839800 0.000000
-17.800300 0.000000
-17.760700 0.000000
-17.721100 0.000000
-17.681600 0.000000
-17.642000 0.000000
-17.602500 0.000000
-17.562900 0.000000
-17.523400 0.000000
-17.483800 0.000000
-17.444300 0.000000
-17.404700 0.000000
-17.365100 0.000000
-17.325600 0.000000
-17.286000 0.000000
-17.246500 0.000000
-17.206900 0.000000
-17.167400 0.000000
-17.127800 0.000000
-17.088300 0.000000
-17.048700 0.000000
-17.009200 0.000000
-16.969600 0.000000
-16.930000 0.000000
-16.890500 0.000000
-16.850900 0.000000
-16.811400 0.000000
-16.771800 0.000000
-16.732300 0.000000
-16.692700 0.000000
-16.653200 0.000000
-16.613600 0.000000
-16.574000 0.000000
-16.534500 0.000000
-16.494900 0.000000
-16.455400 0.000000
-16.415800 0.000000
-16.376300 0.000000
-16.336700 0.000000
-16.297200 0.000000
-16.257600 0.000000
-16.218100 0.000000
-16.178500 0.000000
-16.138900 0.000000
-16.099400 0.000000
-16.059800 0.000000
-16.020300 0.000000
-15.980700 0.000000
-15.941200 0.000000
-15.901600 0.000000
-15.862100 0.000000
-15.822500 0.000000
-15.783000 0.000000
-15.743400 0.000000
-15.703800 0.000000
-15.664300 0.000000
-15.624700 0.000000
-15.585200 0.000000
-15.545600 0.000000
-15.506100 0.000000
-15.466500 0.000000
-15.427000 0.000000
-15.387400 0.000000
-15.347800 0.000000
-15.308300 0.000000
-15.268700 0.000000
-15.229200 0.000000
-15.189600 0.000000
-15.150100 0.000000
-15.110500 0.000000
-15.071000 0.000000
-15.031400 0.000000
-14.991900 0.000000
-14.952300 0.000000
-14.912700 0.000000
-14.873200 0.000000
-14.833600 0.000000
-14.794100 0.000000
-14.754500 0.000000
-14.715000 0.000000
-14.675400 0.000000
-14.635900 0.000000
-14.596300 0.000000
-14.556700 0.000000
-14.517200 0.000000
-14.477600 0.000000
-14.438100 0.000000
-14.398500 0.000000
-14.359000 0.000000
-14.319400 0.000000
-14.279900 0.000000
-14.240300 0.000000
-14.200800 0.000000
-14.161200 0.000000
-14.121600 0.000000
-14.082100 0.000000
-14.042500 0.000000
-14.003000 0.000000
-13.963400 0.000000
-13.923900 0.000000
-13.884300 0.000000
-13.844800 0.000000
-13.805200 0.000000
-13.765600 0.000000
-13.726100 0.000000
-13.686500 0.000000
-13.647000 0.000000
-13.607400 0.000000
-13.567900 0.000000
-13.528300 0.000000
-13.488800 0.000000
-13.449200 0.000000
-13.409700 0.000000
-13.370100 0.000000
-13.330500 0.000000
-13.291000 0.000000
-13.251400 0.000000
-13.211900 0.000000
-13.172300 0.000000
-13.132800 0.000000
-13.093200 0.000000
-13.053700 0.000000
-13.014100 0.000000
-12.974600 0.000000
-12.935000 0.000000
-12.895400 0.000000
-12.855900 0.000000
-12.816300 0.000000
-12.776800 0.000000
-12.737200 0.000000
-12.697700 0.000000
-12.658100 0.000000
-12.618600 0.000000
-12.579000 0.000000
-12.539400 0.000000
-12.499900 0.000000
-12.460300 0.000000
-12.420800 0.000000
-12.381200 0.000000
-12.341700 0.000000
-12.302100 0.000000
-12.262600 0.000000
-12.223000 0.000000
-12.183500 0.000000
-12.143900 0.000000
-12.104300 0.000000
-12.064800 0.000000
-12.025200 0.000000
-11.985700 0.000000
-11.946100 0.000000
-11.906600 0.000000
-11.867000 0.000000
-11.827500 0.000000
-11.787900 0.000000
-11.748300 0.000000
-11.708800 0.000000
-11.669200 0.000000
-11.629700 0.000000
-11.590100 0.000000
-11.550600 0.000000
-11.511000 0.000000
-11.471500 0.000000
-11.431900 0.000000
-11.392400 0.000000
-11.352800 0.000000
-11.313200 0.000000
-11.273700 0.000000
-11.234100 0.000000
-11.194600 0.000000
-11.155000 0.000000
-11.115500 0.000000
-11.075900 0.000000
-11.036400 0.000000
-10.996800 0.000000
-10.957200 0.000000
-10.917700 0.000000
-10.878100 0.000000
-10.838600 0.000000
-10.799000 0.000000
-10.759500 0.000000
-10.719900 0.000000
-10.680400 0.000000
-10.640800 0.000000
-10.601300 0.000000
-10.561700 0.000000
-10.522100 0.000000
-10.482600 0.000000
-10.443000 0.000000
-10.403500 0.000000
-10.363900 0.000000
-10.324400 0.000000
-10.284800 0.000000
-10.245300 0.000000
-10.205700 0.000000
-10.166100 0.000000
-10.126600 0.000000
-10.087000 0.000000
-10.047500 0.000000
-10.007900 0.000000
-9.968400 0.000000
-9.928800 0.000000
-9.889300 0.000000
-9.849700 0.000000
-9.810200 0.000000
-9.770600 0.000000
-9.731000 0.000000
-9.691500 0.000000
-9.651900 0.000000
-9.612400 0.000000
-9.572800 0.000000
-9.533300 0.000000
-9.493700 0.000000
-9.454200 0.000000
-9.414600 0.000000
-9.375100 0.000000
-9.335500 0.000000
-9.295900 0.000000
-9.256400 0.000000
-9.216800 0.000000
-9.177300 0.000000
-9.137700 0.000000
-9.098200 0.000000
-9.058600 0.000000
-9.019100 0.000000
-8.979500 0.000000
-8.939900 0.000000
-8.900400 0.000000
-8.860800 0.000000
-8.821300 0.000000
-8.781700 0.000000
-8.742200 0.000000
-8.702600 0.000000
-8.663100 0.000000
-8.623500 0.000000
-8.584000 0.000000
-8.544400 0.000000
-8.504800 0.000000
-8.465300 0.000000
-8.425700 0.000000
-8.386200 0.000000
-8.346600 0.000000
-8.307100 0.000000
-8.267500 0.000000
-8.228000 0.000000
-8.188400 0.000000
-8.148800 0.000000
-8.109300 0.000000
-8.069700 0.000000
-8.030200 0.000000
-7.990600 0.000000
-7.951100 0.000000
-7.911500 0.000000
-7.872000 0.000000
-7.832400 0.000000
-7.792900 0.000000
-7.753300 0.000000
-7.713700 0.000000
-7.674200 0.000000
-7.634600 0.000000
-7.595100 0.000000
-7.555500 0.000000
-7.516000 0.000000
-7.476400 0.000000
-7.436900 0.000000
-7.397300 0.000000
-7.357700 0.000000
-7.318200 0.000000
-7.278600 0.000000
-7.239100 0.000000
-7.199500 0.000000
-7.160000 0.000000
-7.120400 0.000000
-7.080900 0.000000
-7.041300 0.000000
-7.001800 0.000000
-6.962200 0.000000
-6.922600 8.093200
-6.883100 12.191400
-6.843500 20.108500
-6.804000 17.498500
-6.764400 20.727100
-6.724900 33.139900
-6.685300 24.474200
-6.645800 33.740100
-6.606200 17.050900
-6.566700 11.502700
-6.527100 23.292800
-6.487500 16.945900
-6.448000 19.869400
-6.408400 35.311100
-6.368900 18.677800
-6.329300 22.149100
-6.289800 39.849800
-6.250200 23.868900
-6.210700 32.704700
-6.171100 28.763500
-6.131500 30.934700
-6.092000 7.793400
-6.052400 5.833700
-6.012900 5.767500
-5.973300 3.499700
-5.933800 1.696900
-5.894200 0.000000
-5.854700 0.000000
-5.815100 0.000000
-5.775600 0.000000
-5.736000 0.000000
-5.696400 0.000000
-5.656900 0.000000
-5.617300 0.000000
-5.577800 0.000000
-5.538200 0.000000
-5.498700 0.000000
-5.459100 0.000000
-5.419600 0.000000
-5.380000 0.000000
-5.340400 0.000000
-5.300900 0.000000
-5.261300 0.000000
-5.221800 0.000000
-5.182200 0.000000
-5.142700 0.000000
-5.103100 0.000000
-5.063600 0.000000
-5.024000 0.000000
-4.984500 0.017000
-4.944900 0.075400
-4.905300 0.136000
-4.865800 0.144400
-4.826200 0.156800
-4.786700 0.181800
-4.747100 0.207900
-4.707600 0.231800
-4.668000 0.245900
-4.628500 0.253100
-4.588900 0.261300
-4.549300 0.272800
-4.509800 0.286500
-4.470200 0.300100
-4.430700 0.313800
-4.391100 0.328100
-4.351600 0.341400
-4.312000 0.353100
-4.272500 0.362700
-4.232900 0.369500
-4.193400 0.378700
-4.153800 0.387500
-4.114200 0.395900
-4.074700 0.404400
-4.035100 0.414200
-3.995600 0.425200
-3.956000 0.436400
-3.916500 0.447400
-3.876900 0.457200
-3.837400 0.466400
-3.797800 0.476500
-3.758200 0.486200
-3.718700 0.494100
-3.679100 0.501700
-3.639600 0.510100
-3.600000 0.519900
-3.560500 0.530200
-3.520900 0.540800
-3.481400 0.551800
-3.441800 0.563100
-3.402300 0.574700
-3.362700 0.608000
-3.323100 0.636100
-3.283600 0.646200
-3.244000 0.654600
-3.204500 0.661500
-3.164900 0.666500
-3.125400 0.667500
-3.085800 0.715100
-3.046300 0.795100
-3.006700 0.761700
-2.967200 0.703100
-2.927600 0.669900
-2.888000 0.658000
-2.848500 0.636400
-2.808900 0.612900
-2.769400 0.610400
-2.729800 0.621700
-2.690300 0.637400
-2.650700 0.657200
-2.611200 0.681000
-2.571600 0.707200
-2.532000 0.717100
-2.492500 0.712600
-2.452900 0.746400
-2.413400 0.792000
-2.373800 0.843300
-2.334300 0.901100
-2.294700 0.948800
-2.255200 0.894700
-2.215600 0.878000
-2.176100 0.882300
-2.136500 0.878800
-2.096900 0.876600
-2.057400 0.875300
-2.017800 0.881500
-1.978300 0.885800
-1.938700 0.889300
-1.899200 0.893600
-1.859600 0.899200
-1.820100 0.901300
-1.780500 0.903900
-1.740900 0.910300
-1.701400 0.916300
-1.661800 0.921900
-1.622300 0.923300
-1.582700 0.928500
-1.543200 0.935100
-1.503600 0.941000
-1.464100 0.939200
-1.424500 0.935200
-1.385000 0.935400
-1.345400 0.938100
-1.305800 0.940500
-1.266300 0.942700
-1.226700 0.946000
-1.187200 0.950900
-1.147600 0.950200
-1.108100 0.946900
-1.068500 0.948800
-1.029000 0.950100
-0.989400 0.951100
-0.949800 0.950400
-0.910300 0.949400
-0.870700 0.950200
-0.831200 0.951800
-0.791600 0.953400
-0.752100 0.955300
-0.712500 0.957100
-0.673000 0.958900
-0.633400 0.959900
-0.593900 0.961200
-0.554300 0.962400
-0.514700 0.962900
-0.475200 0.963200
-0.435600 0.963000
-0.396100 0.962200
-0.356500 0.961400
-0.317000 0.965700
-0.277400 0.967200
-0.237900 0.967500
-0.198300 0.968000
-0.158800 0.967700
-0.119200 0.966500
-0.079600 0.970000
-0.040100 0.977400
-0.000500 0.985700
0.039000 0.994600
0.078600 1.005400
0.118100 1.017200
0.157700 1.019300
0.197200 1.032300
0.236800 1.091500
0.276400 1.167200
0.315900 1.238500
0.355500 1.317800
0.395000 1.422500
0.434600 1.557300
0.474100 1.661700
0.513700 1.614600
0.553200 1.548000
0.592800 1.479400
0.632300 1.438400
0.671900 1.403500
0.711500 1.390000
0.751000 1.381700
0.790600 1.235300
0.830100 1.144100
0.869700 1.149900
0.909200 1.200800
0.948800 1.431300
0.988300 1.332500
1.027900 1.263500
1.067500 1.315500
1.107000 1.417600
1.146600 1.523700
1.186100 1.720000
1.225700 2.018200
1.265200 2.113700
1.304800 1.955800
1.344300 1.777300
1.383900 1.763400
1.423400 1.792800
1.463000 1.827800
1.502600 1.850400
1.542100 1.854600
1.581700 1.870500
1.621200 1.925500
1.660800 1.938300
1.700300 1.952000
1.739900 1.961800
1.779400 1.938400
1.819000 1.835800
1.858600 1.783900
1.898100 1.741200
1.937700 1.745100
1.977200 1.688200
2.016800 1.591800
2.056300 1.486400
2.095900 1.339700
2.135400 1.228800
2.175000 1.173900
2.214500 1.179600
2.254100 1.220400
2.293700 1.309900
2.333200 1.481000
2.372800 1.871700
2.412300 2.323400
2.451900 2.382400
2.491400 2.531700
2.531000 2.843400
2.570500 2.846500
2.610100 2.755800
2.649700 2.231900
2.689200 1.820400
2.728800 1.317900
2.768300 1.128400
2.807900 1.115100
2.847400 1.159100
2.887000 1.907300
2.926500 2.270800
2.966100 2.663300
3.005600 2.774800
3.045200 3.049700
3.084800 3.926900
3.124300 3.718800
3.163900 3.433200
3.203400 3.378000
3.243000 3.170200
3.282500 3.069500
3.322100 3.242900
3.361600 4.003800
3.401200 3.905600
3.440700 3.835300
3.480300 3.579700
3.519900 3.412500
3.559400 3.464800
3.599000 3.629700
3.638500 3.011800
3.678100 3.418300
3.717600 3.537400
3.757200 4.038800
3.796700 4.591300
3.836300 4.746400
3.875900 3.771900
3.915400 3.268600
3.955000 2.784200
3.994500 1.854300
4.034100 1.563900
4.073600 1.455900
4.113200 1.492900
4.152700 1.550600
4.192300 1.714100
4.231800 2.054100
4.271400 2.537800
4.311000 2.520900
4.350500 3.228300
4.390100 1.784100
4.429600 1.629800
4.469200 1.558200
4.508700 1.499400
4.548300 1.526100
4.587800 1.527200
4.627400 1.447700
4.667000 1.628400
4.706500 1.902300
4.746100 2.185400
4.785600 2.341000
4.825200 2.431300
4.864700 2.507700
4.904300 2.554400
4.943800 2.597900
4.983400 2.011600
5.022900 1.629700
5.062500 1.471900
5.102100 1.409600
5.141600 1.468700
5.181200 1.514400
5.220700 1.545700
5.260300 1.576200
5.299800 1.677000
5.339400 2.145200
5.378900 2.519100
5.418500 2.670700
5.458100 2.750100
5.497600 2.771300
5.537200 2.943500
5.576700 2.911300
5.616300 2.262800
5.655800 2.005000
5.695400 1.904800
5.734900 1.920100
5.774500 1.945000
5.814000 1.985400
5.853600 2.021100
5.893200 2.269400
5.932700 2.396800
5.972300 2.411700
6.011800 2.405700
6.051400 2.405700
6.090900 2.420000
6.130500 2.384800
6.170000 2.454100
6.209600 2.574700
6.249100 2.727500
6.288700 2.968300
6.328300 3.376900
6.367800 3.692200
6.407400 3.801900
6.446900 3.740700
6.486500 3.703600
6.526000 3.793200
6.565600 3.428600
6.605100 3.513700
6.644700 3.275500
6.684300 3.266700
6.723800 3.297500
6.763400 2.277000
6.802900 1.627200
6.842500 1.555600
6.882000 1.541200
6.921600 1.549500
6.961100 1.495200
7.000700 1.418700
7.040200 1.253000
7.079800 1.038300
7.119400 0.958200
7.158900 0.889900
7.198500 0.849400
7.238000 0.813800
7.277600 0.805300
7.317100 0.857100
7.356700 0.913300
7.396200 0.958200
7.435800 0.996900
7.475400 0.992300
7.514900 0.983400
7.554500 0.968100
7.594000 0.951600
7.633600 0.933100
7.673100 0.942200
7.712700 0.949100
7.752200 0.954400
7.791800 0.970000
7.831300 0.995900
7.870900 1.033300
7.910500 1.391600
7.950000 1.735400
7.989600 1.478300
8.029100 1.378400
8.068700 1.347400
8.108200 1.343700
8.147800 1.336000
8.187300 1.225700
8.226900 1.147100
8.266500 1.308000
8.306000 1.130300
8.345600 1.081500
8.385100 1.039400
8.424700 1.004900
8.464200 0.986500
8.503800 1.004900
8.543300 1.055100
8.582900 1.089400
8.622400 1.260800
8.662000 1.469600
8.701600 1.583900
8.741100 1.995800
8.780700 1.797700
8.820200 2.015400
8.859800 2.119600
8.899300 2.062100
8.938900 2.069000
8.978400 2.039500
9.018000 2.249500
9.057600 2.551500
9.097100 2.686900
9.136700 2.582000
9.176200 2.452500
9.215800 2.412300
9.255300 2.403000
9.294900 2.419900
9.334400 2.438500
9.374000 2.463100
9.413500 2.513500
9.453100 2.474500
9.492700 2.374800
9.532200 2.297700
9.571800 2.217600
9.611300 2.200100
9.650900 2.215500
9.690400 2.248700
9.730000 2.344800
9.769500 2.458700
9.809100 2.524800
9.848600 2.549400
9.888200 2.487100
9.927800 2.562800
9.967300 2.507200
10.006900 2.367800
10.046400 2.275500
10.086000 2.237500
10.125500 2.199900
10.165100 2.095200
10.204600 2.031700
10.244200 2.014800
10.283800 1.968800
10.323300 1.947800
10.362900 1.899200
10.402400 1.904700
10.442000 1.925000
10.481500 1.929400
10.521100 1.989300
10.560600 2.091200
10.600200 2.087500
10.639700 2.099500
10.679300 2.088600
10.718900 2.065600
10.758400 2.088300
10.798000 2.108600
10.837500 2.157800
10.877100 2.222600
10.916600 2.504900
10.956200 2.397900
10.995700 2.220700
11.035300 2.161300
11.074900 2.138900
11.114400 2.117800
11.154000 2.074900
11.193500 2.033900
11.233100 2.012600
11.272600 1.971100
11.312200 1.976300
11.351700 1.915600
11.391300 1.902200
11.430800 2.019600
11.470400 2.186400
11.510000 2.273100
11.549500 2.290300
11.589100 2.269000
11.628600 2.268700
11.668200 2.282400
11.707700 2.285200
11.747300 2.334600
11.786800 2.427200
11.826400 2.503900
11.866000 2.478500
11.905500 2.266300
11.945100 2.085100
11.984600 1.900700
12.024200 1.783600
12.063700 1.710200
12.103300 1.664600
12.142800 1.656700
12.182400 1.834500
12.221900 2.014000
12.261500 2.169900
12.301100 2.366300
12.340600 2.649200
12.380200 2.996400
12.419700 3.297400
12.459300 3.653000
12.498800 3.671900
12.538400 3.459800
12.577900 2.834700
12.617500 2.467900
12.657000 2.240800
12.696600 2.110400
12.736200 2.032100
12.775700 2.099500
12.815300 2.220000
12.854800 2.379700
12.894400 2.486000
12.933900 2.584200
12.973500 2.632400
13.013000 2.598200
13.052600 2.409700
13.092200 2.366300
13.131700 2.410000
13.171300 2.562000
13.210800 2.720600
13.250400 2.767300
13.289900 2.885500
13.329500 3.058200
13.369000 2.891300
13.408600 2.709000
13.448100 2.604900
13.487700 2.390200
13.527300 2.338700
13.566800 2.304000
13.606400 2.200400
13.645900 2.167300
13.685500 2.422500
13.725000 2.032400
13.764600 1.923700
13.804100 1.919700
13.843700 1.933900
13.883300 2.000200
13.922800 2.066000
13.962400 2.155300
14.001900 2.271700
14.041500 2.360400
14.081000 2.448100
14.120600 2.420700
14.160100 2.309100
14.199700 2.271700
14.239200 2.268600
14.278800 2.340400
14.318400 2.313400
14.357900 2.477400
14.397500 2.244600
14.437000 2.226100
14.476600 2.262700
14.516100 2.269400
14.555700 2.254500
14.595200 2.299300
14.634800 2.698600
14.674400 3.131400
14.713900 2.612200
14.753500 2.495700
14.793000 2.166100
14.832600 2.133400
14.872100 2.268600
14.911700 2.480800
14.951200 2.471200
14.990800 2.408500
15.030300 2.324000
15.069900 2.263200
15.109500 2.211100
15.149000 2.176700
15.188600 2.109900
15.228100 2.023600
15.267700 1.951700
15.307200 1.992500
15.346800 2.173100
15.386300 2.516900
15.425900 2.730200
15.465500 2.565900
15.505000 2.394800
15.544600 2.224100
15.584100 2.269400
15.623700 2.372100
15.663200 2.493200
15.702800 2.542800
15.742300 2.682500
15.781900 2.905000
15.821400 3.342700
15.861000 3.471600
15.900600 3.205900
15.940100 2.759900
15.979700 2.620000
16.019200 2.560500
16.058800 2.554400
16.098300 2.522700
16.137900 2.502600
16.177400 2.587600
16.217000 2.724100
16.256500 2.781900
16.296100 2.747300
16.335700 2.642100
16.375200 2.574600
16.414800 2.486600
16.454300 2.441100
16.493900 2.371900
16.533400 2.317600
16.573000 2.345200
16.612500 2.423500
16.652100 2.540100
16.691700 2.840300
16.731200 3.250700
16.770800 3.280900
16.810300 3.272800
16.849900 3.250900
16.889400 3.297200
16.929000 3.222500
16.968500 2.849900
17.008100 2.518600
17.047600 2.214300
17.087200 1.985800
17.126800 1.860200
17.166300 1.770600
17.205900 1.724400
17.245400 1.709000
17.285000 1.741100
17.324500 1.998500
17.364100 2.228000
17.403600 2.385200
17.443200 2.622500
17.482800 2.869800
17.522300 3.198400
17.561900 3.454400
17.601400 3.354500
17.641000 3.247500
17.680500 2.991200
17.720100 2.572800
17.759600 2.399100
17.799200 2.326400
17.838700 2.282600
17.878300 2.301500
17.917900 2.259700
17.957400 2.203100
17.997000 2.173700
18.036500 2.162300
18.076100 2.178600
18.115600 2.170200
18.155200 2.175900
18.194700 2.290400
18.234300 2.358000
18.273900 2.340600
18.313400 2.312300
18.353000 2.322100
18.392500 2.368500
18.432100 2.639800
18.471600 2.788100
18.511200 2.735300
18.550700 2.658800
18.590300 2.546400
18.629800 2.445200
18.669400 2.339600
18.709000 2.249800
18.748500 2.121100
18.788100 1.919700
18.827600 1.693900
18.867200 1.505400
18.906700 1.351900
18.946300 1.252500
18.985800 1.264300
19.025400 1.337700
19.064900 1.397900
19.104500 1.486300
19.144100 1.592800
19.183600 1.719500
19.223200 1.943000
19.262700 2.106400
19.302300 2.225800
19.341800 2.296400
19.381400 2.243900
19.420900 1.836200
19.460500 1.639300
19.500100 1.542600
19.539600 1.429800
19.579200 1.484400
19.618700 1.576500
19.658300 1.687800
19.697800 1.774000
19.737400 1.859100
19.776900 1.860100
19.816500 2.101100
19.856000 2.499600
19.895600 2.316300
19.935200 2.533200
19.974700 2.781900
20.014300 3.022200
20.053800 3.217300
20.093400 3.636500
20.132900 3.166500
20.172500 2.880000
20.212000 2.894400
20.251600 2.957900
20.291200 2.858300
20.330700 3.121400
20.370300 3.540800
20.409800 3.589800
20.449400 3.349500
20.488900 3.182700
20.528500 3.009700
20.568000 2.834200
20.607600 2.597300
20.647100 2.487000
20.686700 2.459600
20.726300 2.539400
20.765800 2.643100
20.805400 2.722300
20.844900 2.812300
20.884500 2.947100
20.924000 3.096400
20.963600 3.348100
21.003100 3.463900
21.042700 3.601700
21.082300 3.681300
21.121800 4.007600
21.161400 3.362700
21.200900 2.852800
21.240500 2.682200
21.280000 2.704900
21.319600 2.719300
21.359100 2.808900
21.398700 2.870300
21.438200 3.073700
21.477800 3.291400
21.517400 3.298400
21.556900 3.159400
21.596500 3.021100
21.636000 2.890800
21.675600 2.702700
21.715100 2.863600
21.754700 3.009200
21.794200 3.099400
21.833800 3.158100
21.873400 3.181000
21.912900 3.117800
21.952500 3.073600
21.992000 3.011000
22.031600 2.961500
22.071100 2.988400
22.110700 3.022400
22.150200 2.938900
22.189800 2.789500
22.229300 2.693800
22.268900 2.624800
22.308500 2.740200
22.348000 2.871500
22.387600 2.825600
22.427100 2.828500
22.466700 2.886900
22.506200 2.918200
22.545800 2.965700
22.585300 3.136200
22.624900 3.298800
22.664400 3.412600
22.704000 3.531700
22.743600 3.183600
22.783100 3.101800
22.822700 3.023700
22.862200 2.840900
22.901800 2.651700
22.941300 2.474800
22.980900 2.328100
23.020400 2.197700
23.060000 2.114700
23.099600 2.081700
23.139100 2.083700
23.178700 2.102700
23.218200 2.125700
23.257800 2.189900
23.297300 2.284200
23.336900 2.428200
23.376400 2.530800
23.416000 2.570500
23.455500 2.648600
23.495100 2.709200
23.534700 2.705200
23.574200 2.697400
23.613800 2.688700
23.653300 2.745500
23.692900 2.788400
23.732400 2.693400
23.772000 2.718900
23.811500 3.024000
23.851100 3.065300
23.890700 3.088500
23.930200 3.065100
23.969800 2.925500
24.009300 2.823000
24.048900 2.830800
24.088400 3.034400
24.128000 3.310700
24.167500 3.391300
24.207100 3.185100
24.246600 3.166300
24.286200 3.150800
24.325800 3.161200
24.365300 3.135500
24.404900 3.046500
24.444400 3.099700
24.484000 3.117300
24.523500 3.062900
24.563100 3.277100
24.602600 3.302400
24.642200 3.514400
24.681800 3.693900
24.721300 3.626100
24.760900 3.346100
24.800400 3.188300
24.840000 2.978200
24.879500 2.786500
24.919100 2.759000
24.958600 2.792100
24.998200 2.924400
25.037700 3.332300
25.077300 3.856700
25.116900 4.087900
25.156400 4.020700
25.196000 3.644700
25.235500 3.275500
25.275100 3.194900
25.314600 3.201800
25.354200 3.259500
25.393700 3.301300
25.433300 3.408700
25.472800 3.513600
25.512400 3.566700
25.552000 3.655500
25.591500 3.498900
25.631100 3.159000
25.670600 2.919300
25.710200 2.764500
25.749700 2.606600
25.789300 2.538700
25.828800 2.626000
25.868400 2.766300
25.908000 3.062500
25.947500 3.386100
25.987100 3.492100
26.026600 3.424400
26.066200 3.392100
26.105700 3.264500
26.145300 3.081500
26.184800 2.908000
26.224400 2.755800
26.263900 2.655700
26.303500 2.593100
26.343100 2.559500
26.382600 2.626900
26.422200 3.018200
26.461700 2.925900
26.501300 3.413000
26.540800 3.974700
26.580400 4.131400
26.619900 4.015200
26.659500 3.663700
26.699100 3.353400
26.738600 3.098100
26.778200 3.010200
26.817700 2.940300
26.857300 2.915900
26.896800 2.931500
26.936400 2.920400
26.975900 2.953500
27.015500 3.156500
27.055000 3.545900
27.094600 3.601400
27.134200 3.472200
27.173700 3.259300
27.213300 3.179400
27.252800 3.104000
27.292400 3.116400
27.331900 3.115000
27.371500 3.121500
27.411000 3.110200
27.450600 2.985800
27.490200 2.932100
27.529700 3.021300
27.569300 3.215200
27.608800 3.306100
27.648400 3.469200
27.687900 3.431700
27.727500 3.311900
27.767000 3.186100
27.806600 3.108100
27.846100 3.019700
27.885700 2.939200
27.925300 2.877700
27.964800 2.832100
28.004400 2.834200
28.043900 2.939600
28.083500 3.014000
28.123000 3.057100
28.162600 3.105700
28.202100 3.162500
28.241700 3.170400
28.281300 3.159600
28.320800 3.132000
28.360400 3.151600
28.399900 3.163000
28.439500 3.228600
28.479000 3.247500
28.518600 3.189600
28.558100 3.130900
28.597700 3.060300
28.637200 3.043900
28.676800 3.077800
28.716400 3.121000
28.755900 3.165100
28.795500 3.214600
28.835000 3.315500
28.874600 3.414100
28.914100 3.447300
28.953700 3.576600
28.993200 3.691200
29.032800 3.739900
29.072300 3.722900
29.111900 3.645500
29.151500 3.522300
29.191000 3.357000
29.230600 3.230300
29.270100 3.092800
29.309700 2.960700
29.349200 2.907500
29.388800 2.925200
29.428300 2.980900
29.467900 3.078900
29.507500 3.173800
29.547000 3.248200
29.586600 3.370100
29.626100 3.377900
29.665700 3.350900
29.705200 3.274500
29.744800 3.206200
29.784300 3.176900
29.823900 3.158300
29.863400 3.152200
29.903000 3.167700
29.942600 3.258500
29.982100 3.284400
30.021700 3.394700
30.061200 3.542900
30.100800 3.641900
30.140300 3.699400
30.179900 3.688800
30.219400 3.635500
30.259000 3.531100
30.298600 3.421100
30.338100 3.339500
30.377700 3.495200
30.417200 3.429800
30.456800 3.385800
30.496300 3.332400
30.535900 3.288100
30.575400 3.180000
30.615000 3.129300
30.654500 3.224300
30.694100 3.260400
30.733700 3.323700
30.773200 3.365300
30.812800 3.375500
30.852300 3.388700
30.891900 3.434600
30.931400 3.622800
30.971000 3.526600
31.010500 3.527900
31.050100 3.512200
31.089700 3.505600
31.129200 3.562100
31.168800 3.739900
31.208300 3.907800
31.247900 3.857500
31.287400 3.783800
31.327000 3.825300
31.366500 4.059400
31.406100 4.333800
31.445600 4.638800
31.485200 4.427500
31.524800 4.195700
31.564300 3.982100
31.603900 3.876100
31.643400 3.802300
31.683000 3.650300
31.722500 3.565500
31.762100 3.565400
31.801600 3.546900
31.841200 3.587100
31.880700 3.497600
31.920300 3.283300
31.959900 3.119300
31.999400 3.205400
32.039000 3.182400
32.078500 3.176200
32.118100 3.212600
32.157600 3.242600
32.197200 3.243300
32.236700 3.256200
32.276300 3.377100
32.315900 3.449200
32.355400 3.459300
32.395000 3.237000
32.434500 3.234600
32.474100 3.382800
32.513600 3.467100
32.553200 3.533500
32.592700 3.579600
32.632300 3.648100
32.671800 3.664600
32.711400 3.603100
32.751000 3.503000
32.790500 3.461600
32.830100 3.413200
32.869600 3.267400
32.909200 3.138000
32.948700 3.055400
32.988300 2.965700
33.027800 3.065400
33.067400 2.913000
33.107000 2.921600
33.146500 2.997400
33.186100 3.137700
33.225600 3.303900
33.265200 3.408200
33.304700 3.455300
33.344300 3.540600
33.383800 3.545100
33.423400 3.350200
33.462900 3.581800
33.502500 3.384800
33.542100 3.173400
33.581600 3.152000
33.621200 3.155700
33.660700 3.444800
33.700300 3.496500
33.739800 3.486600
33.779400 3.503400
33.818900 3.360200
33.858500 3.198000
33.898100 3.051300
33.937600 3.036000
33.977200 3.126600
34.016700 3.242500
34.056300 3.332300
34.095800 3.362800
34.135400 3.538100
34.174900 3.777400
34.214500 3.824200
34.254000 3.606700
34.293600 3.328200
34.333200 3.222700
34.372700 3.138200
34.412300 3.207800
34.451800 3.318700
34.491400 3.507400
34.530900 3.828000
34.570500 4.214400
34.610000 4.653200
34.649600 4.519900
34.689200 4.388000
34.728700 4.240300
34.768300 4.216100
34.807800 3.962900
34.847400 3.799500
34.886900 3.220500
34.926500 2.917900
34.966000 2.752000
35.005600 2.733800
35.045100 2.771000
35.084700 2.813100
35.124300 2.947500
35.163800 3.118100
35.203400 3.388900
35.242900 3.651300
35.282500 3.763500
35.322000 3.818900
35.361600 3.837600
35.401100 3.878300
35.440700 3.996900
35.480200 4.000500
35.519800 3.926400
35.559400 3.896700
35.598900 3.877800
35.638500 3.586400
35.678000 3.656400
35.717600 3.737500
35.757100 4.198900
35.796700 4.392500
35.836200 4.626700
35.875800 4.714500
35.915400 4.181800
35.954900 3.852100
35.994500 3.777300
36.034000 3.543100
36.073600 3.180800
36.113100 2.908100
36.152700 2.883800
36.192200 2.883600
36.231800 3.027700
36.271300 3.151600
36.310900 2.840900
36.350500 2.795400
36.390000 2.833100
36.429600 3.025200
36.469100 2.985100
36.508700 2.950200
36.548200 3.064200
36.587800 3.154000
36.627300 3.238400
36.666900 3.325700
36.706500 3.533500
36.746000 3.659300
36.785600 3.529900
36.825100 3.395100
36.864700 3.358600
36.904200 3.471900
36.943800 3.619400
36.983300 3.836700
37.022900 3.921000
37.062400 3.982100
37.102000 4.072300
37.141600 4.120200
37.181100 4.064800
37.220700 3.822500
37.260200 3.728400
37.299800 3.745900
37.339300 3.916100
37.378900 3.813500
37.418400 3.737500
37.458000 3.697100
37.497600 3.680000
37.537100 3.648300
37.576700 3.686800
37.616200 3.729600
37.655800 3.622700
37.695300 3.522900
37.734900 3.422400
37.774400 3.410200
37.814000 3.371700
37.853500 3.286800
37.893100 3.111800
37.932700 2.996800
37.972200 2.937400
38.011800 2.934700
38.051300 2.969400
38.090900 3.133000
38.130400 3.462800
38.170000 3.923000
38.209500 3.913200
38.249100 3.886400
38.288600 3.828100
38.328200 3.800500
38.367800 3.649300
38.407300 3.546800
38.446900 3.485900
38.486400 3.508300
38.526000 3.431500
38.565500 3.306600
38.605100 3.279500
38.644600 3.332000
38.684200 3.344500
38.723800 3.655200
38.763300 3.792700
38.802900 4.061100
38.842400 4.190000
38.882000 4.164600
38.921500 4.212200
38.961100 4.041900
39.000600 3.852500
39.040200 3.578300
39.079700 3.346600
39.119300 3.224600
39.158900 3.195100
39.198400 3.156200
39.238000 3.062400
39.277500 3.136700
39.317100 3.152900
39.356600 3.272800
39.396200 3.600200
39.435700 4.333200
39.475300 4.086900
39.514900 3.973600
39.554400 3.747400
39.594000 3.704000
39.633500 3.679100
39.673100 3.599800
39.712600 3.505400
39.752200 3.452800
39.791700 3.423900
39.831300 3.456400
39.870800 3.524500
39.910400 3.685400
39.950000 3.886000
39.989500 3.958000
40.029100 4.028100
40.068600 4.159600
40.108200 4.404200
40.147700 4.465700
40.187300 4.423500
40.226800 4.520200
40.266400 4.654600
40.306000 4.729300
40.345500 4.787300
40.385100 4.830000
40.424600 4.952500
40.464200 4.779600
40.503700 4.673700
40.543300 4.531200
40.582800 4.157000
40.622400 3.952100
40.661900 3.891900
40.701500 3.605100
40.741100 3.382300
40.780600 3.299500
40.820200 3.249700
40.859700 3.289000
40.899300 3.223300
40.938800 3.224300
40.978400 3.214900
41.017900 3.166100
41.057500 3.062800
41.097100 2.997100
41.136600 3.040600
41.176200 3.339000
41.215700 3.425400
41.255300 3.502500
41.294800 3.600300
41.334400 3.753300
41.373900 3.580900
41.413500 3.367200
41.453000 3.299400
41.492600 3.327600
41.532200 3.569300
41.571700 3.778200
41.611300 4.035800
41.650800 4.563700
41.690400 4.689300
41.729900 4.666800
41.769500 4.623100
41.809000 4.634900
41.848600 4.661300
41.888100 4.591400
41.927700 4.607800
41.967300 4.407500
42.006800 4.127900
42.046400 4.002100
42.085900 3.986300
42.125500 3.976800
42.165000 3.955200
42.204600 4.164600
42.244100 4.347800
42.283700 4.323600
42.323300 4.253300
42.362800 3.914000
42.402400 3.630900
42.441900 3.517700
42.481500 3.657800
42.521000 3.629000
42.560600 3.675000
42.600100 3.752600
42.639700 3.917900
42.679200 4.170500
42.718800 4.395000
42.758400 4.605100
42.797900 4.538200
42.837500 4.656100
42.877000 4.652000
42.916600 4.447600
42.956100 4.441800
42.995700 4.211800
43.035200 4.009300
43.074800 4.038900
43.114400 4.340400
43.153900 4.540800
43.193500 4.532200
43.233000 4.624200
43.272600 4.617300
43.312100 4.498300
43.351700 4.192300
43.391200 3.950100
43.430800 4.019900
43.470300 3.870200
43.509900 3.866400
43.549500 3.911400
43.589000 3.895800
43.628600 3.931300
43.668100 4.021600
43.707700 4.033600
43.747200 4.020300
43.786800 4.069900
43.826300 4.155800
43.865900 4.162300
43.905500 4.208500
43.945000 4.291400
43.984600 4.447100
44.024100 4.562400
44.063700 4.735400
44.103200 4.972100
44.142800 4.897400
44.182300 4.829900
44.221900 4.744700
44.261400 4.655600
44.301000 4.508100
44.340600 4.224900
44.380100 4.047400
44.419700 3.850400
44.459200 3.571600
44.498800 3.502300
44.538300 3.576300
44.577900 3.624900
44.617400 3.665400
44.657000 3.643700
44.696500 3.426500
44.736100 3.289400
44.775700 3.169300
44.815200 3.052200
44.854800 2.907400
44.894300 2.724600
44.933900 2.578000
44.973400 2.389500
45.013000 2.304300
45.052500 2.193900
45.092100 2.130900
45.131700 2.156800
45.171200 2.190100
45.210800 2.163100
45.250300 1.959000
45.289900 1.716100
45.329400 1.533000
45.369000 1.393500
45.408500 1.277700
45.448100 1.150400
45.487600 1.012600
45.527200 0.905100
45.566800 0.811800
45.606300 0.743200
45.645900 0.685000
45.685400 0.636200
45.725000 0.588500
45.764500 0.489900
45.804100 0.374400
45.843600 0.271600
45.883200 0.220800
45.922800 0.191000
45.962300 0.170500
46.001900 0.154500
46.041400 0.141400
46.081000 0.131100
46.120500 0.122200
46.160100 0.113800
46.199600 0.105800
46.239200 0.095800
46.278700 0.081100
46.318300 0.064300
46.357900 0.047700
46.397400 0.031400
46.437000 0.017300
46.476500 0.007700
46.516100 0.003200
46.555600 0.000900
46.595200 0.000000
46.634700 0.000000
46.674300 0.000000
46.713900 0.000000
46.753400 0.000000
46.793000 0.000000
46.832500 0.000000
46.872100 0.000000
46.911600 0.000000
46.951200 0.000000
46.990700 0.000000
47.030300 0.000000
47.069800 0.000000
47.109400 0.000000
47.149000 0.000000
47.188500 0.000000
47.228100 0.000000
47.267600 0.000000
47.307200 0.000000
47.346700 0.000000
47.386300 0.000000
47.425800 0.000000
47.465400 0.000000
47.505000 0.000000
47.544500 0.000000
47.584100 0.000000
47.623600 0.000000
47.663200 0.000000
47.702700 0.000000
47.742300 0.000000
47.781800 0.000000
47.821400 0.000000
47.860900 0.000000
47.900500 0.000000
47.940100 0.000000
47.979600 0.000000
48.019200 0.000000
48.058700 0.000000
48.098300 0.000000
48.137800 0.000000
48.177400 0.000000
48.216900 0.000000
48.256500 0.000000
48.296000 0.000000
48.335600 0.000000
48.375200 0.000000
48.414700 0.000000
48.454300 0.000000
48.493800 0.000000
48.533400 0.000000
48.572900 0.000000
48.612500 0.000000
48.652000 0.000000
48.691600 0.000000
48.731200 0.000000
48.770700 0.000000
48.810300 0.000000
48.849800 0.000000
48.889400 0.000000
48.928900 0.000000
48.968500 0.000000
49.008000 0.000000
49.047600 0.000000
49.087100 0.000000
49.126700 0.000000
49.166300 0.000000
49.205800 0.000000
49.245400 0.000000
49.284900 0.000000
49.324500 0.000000
49.364000 0.000000
49.403600 0.000000
49.443100 0.000000
49.482700 0.000000
49.522300 0.000000
49.561800 0.000000
49.601400 0.000000
49.640900 0.000000
49.680500 0.000000
49.720000 0.000000
49.759600 0.000000
49.799100 0.000000
49.838700 0.000000
49.878200 0.000000
49.917800 0.000000
49.957400 0.000000
49.996900 0.000000
50.036500 0.000000
50.076000 0.000000
50.115600 0.000000
50.155100 0.000000
50.194700 0.000000
e
