set title 'mp-149 - Density of States'
set xlabel 'Energy (eV)'
set ylabel 'DOS (states/eV)'
set grid
set xrange [-10:10]
set yrange [0:2.866]
set xzeroaxis lt -1
set terminal png size 800,600
set output 'mp-149_dos_gnuplot.png'
plot '-' using 1:2 with lines title 'DOS'
-7.535600 0.000000
-7.520800 0.000000
-7.506000 0.000000
-7.491200 0.000000
-7.476400 0.000000
-7.461600 0.000000
-7.446800 0.000000
-7.432000 0.000000
-7.417100 0.000000
-7.402300 0.000000
-7.387500 0.000000
-7.372700 0.000000
-7.357900 0.000000
-7.343100 0.000000
-7.328300 0.000000
-7.313500 0.000000
-7.298700 0.000000
-7.283800 0.000000
-7.269000 0.000000
-7.254200 0.000000
-7.239400 0.000000
-7.224600 0.000000
-7.209800 0.000000
-7.195000 0.000000
-7.180200 0.000000
-7.165400 0.000000
-7.150500 0.000000
-7.135700 0.000000
-7.120900 0.000000
-7.106100 0.000000
-7.091300 0.000000
-7.076500 0.000000
-7.061700 0.000000
-7.046900 0.000000
-7.032100 0.000000
-7.017200 0.000000
-7.002400 0.000000
-6.987600 0.000000
-6.972800 0.000000
-6.958000 0.000000
-6.943200 0.000000
-6.928400 0.000000
-6.913600 0.000000
-6.898800 0.000000
-6.883900 0.000000
-6.869100 0.000000
-6.854300 0.000000
-6.839500 0.000000
-6.824700 0.000000
-6.809900 0.000000
-6.795100 0.000000
-6.780300 0.000000
-6.765400 0.000000
-6.750600 0.000000
-6.735800 0.000000
-6.721000 0.000000
-6.706200 0.000000
-6.691400 0.000000
-6.676600 0.000000
-6.661800 0.000000
-6.647000 0.000000
-6.632100 0.000000
-6.617300 0.000000
-6.602500 0.000000
-6.587700 0.000000
-6.572900 0.000000
-6.558100 0.000000
-6.543300 0.000000
-6.528500 0.000000
-6.513700 0.000000
-6.498800 0.000000
-6.484000 0.000000
-6.469200 0.000000
-6.454400 0.000000
-6.439600 0.000000
-6.424800 0.000000
-6.410000 0.000000
-6.395200 0.000000
-6.380400 0.000000
-6.365500 0.000000
-6.350700 0.000000
-6.335900 0.000000
-6.321100 0.000000
-6.306300 0.000000
-6.291500 0.000000
-6.276700 0.000000
-6.261900 0.000000
-6.247100 0.000000
-6.232200 0.000000
-6.217400 0.000000
-6.202600 0.000000
-6.187800 0.021400
-6.173000 0.047800
-6.158200 0.065700
-6.143400 0.076900
-6.128600 0.087700
-6.113700 0.102500
-6.098900 0.109600
-6.084100 0.115000
-6.069300 0.122600
-6.054500 0.131400
-6.039700 0.140600
-6.024900 0.147000
-6.010100 0.152000
-5.995300 0.157100
-5.980400 0.163000
-5.965600 0.169200
-5.950800 0.175200
-5.936000 0.182000
-5.921200 0.187800
-5.906400 0.192300
-5.891600 0.196200
-5.876800 0.200700
-5.862000 0.205400
-5.847100 0.210100
-5.832300 0.215300
-5.817500 0.220800
-5.802700 0.226400
-5.787900 0.230800
-5.773100 0.234300
-5.758300 0.237800
-5.743500 0.241800
-5.728700 0.245900
-5.713800 0.249900
-5.699000 0.254200
-5.684200 0.258600
-5.669400 0.263000
-5.654600 0.267500
-5.639800 0.272200
-5.625000 0.275700
-5.610200 0.278900
-5.595400 0.282400
-5.580500 0.285900
-5.565700 0.289400
-5.550900 0.292900
-5.536100 0.296600
-5.521300 0.300500
-5.506500 0.304400
-5.491700 0.308400
-5.476900 0.312500
-5.462100 0.316700
-5.447200 0.320300
-5.432400 0.323300
-5.417600 0.326300
-5.402800 0.329500
-5.388000 0.332700
-5.373200 0.336000
-5.358400 0.339500
-5.343600 0.343000
-5.328700 0.346500
-5.313900 0.350100
-5.299100 0.353700
-5.284300 0.357300
-5.269500 0.361100
-5.254700 0.364900
-5.239900 0.368400
-5.225100 0.371400
-5.210300 0.374400
-5.195400 0.377500
-5.180600 0.380700
-5.165800 0.383800
-5.151000 0.387100
-5.136200 0.390300
-5.121400 0.393600
-5.106600 0.396900
-5.091800 0.400300
-5.077000 0.403900
-5.062100 0.407500
-5.047300 0.411200
-5.032500 0.414900
-5.017700 0.418700
-5.002900 0.421900
-4.988100 0.424800
-4.973300 0.427900
-4.958500 0.431000
-4.943700 0.434000
-4.928800 0.437300
-4.914000 0.440600
-4.899200 0.444000
-4.884400 0.447500
-4.869600 0.450900
-4.854800 0.454400
-4.840000 0.458000
-4.825200 0.461600
-4.810400 0.465200
-4.795500 0.468900
-4.780700 0.472600
-4.765900 0.476300
-4.751100 0.479900
-4.736300 0.483400
-4.721500 0.486700
-4.706700 0.490200
-4.691900 0.493700
-4.677000 0.497200
-4.662200 0.500700
-4.647400 0.504400
-4.632600 0.508000
-4.617800 0.511700
-4.603000 0.515500
-4.588200 0.519200
-4.573400 0.523200
-4.558600 0.527300
-4.543700 0.531500
-4.528900 0.535700
-4.514100 0.540000
-4.499300 0.544400
-4.484500 0.548900
-4.469700 0.553200
-4.454900 0.557200
-4.440100 0.561300
-4.425300 0.565400
-4.410400 0.569600
-4.395600 0.573800
-4.380800 0.578300
-4.366000 0.583100
-4.351200 0.587900
-4.336400 0.592900
-4.321600 0.597900
-4.306800 0.603100
-4.292000 0.608400
-4.277100 0.613900
-4.262300 0.619400
-4.247500 0.625100
-4.232700 0.631000
-4.217900 0.637100
-4.203100 0.643300
-4.188300 0.649600
-4.173500 0.656700
-4.158700 0.663500
-4.143800 0.670600
-4.129000 0.677900
-4.114200 0.685700
-4.099400 0.693900
-4.084600 0.702500
-4.069800 0.711600
-4.055000 0.721200
-4.040200 0.731800
-4.025300 0.743000
-4.010500 0.755400
-3.995700 0.769300
-3.980900 0.785500
-3.966100 0.804600
-3.951300 0.830200
-3.936500 0.859500
-3.921700 0.924500
-3.906900 0.911100
-3.892000 0.907400
-3.877200 0.924900
-3.862400 0.918500
-3.847600 0.902900
-3.832800 0.894600
-3.818000 0.885700
-3.803200 0.881400
-3.788400 0.883500
-3.773600 0.877200
-3.758700 0.870400
-3.743900 0.866800
-3.729100 0.861500
-3.714300 0.854600
-3.699500 0.847800
-3.684700 0.841400
-3.669900 0.837200
-3.655100 0.833800
-3.640300 0.829800
-3.625400 0.826100
-3.610600 0.817900
-3.595800 0.810200
-3.581000 0.806200
-3.566200 0.802200
-3.551400 0.797500
-3.536600 0.792200
-3.521800 0.786600
-3.507000 0.781300
-3.492100 0.776200
-3.477300 0.771400
-3.462500 0.766200
-3.447700 0.762800
-3.432900 0.758200
-3.418100 0.752800
-3.403300 0.744400
-3.388500 0.737000
-3.373700 0.732400
-3.358800 0.727600
-3.344000 0.723100
-3.329200 0.718500
-3.314400 0.713500
-3.299600 0.707500
-3.284800 0.701600
-3.270000 0.695600
-3.255200 0.690800
-3.240300 0.686500
-3.225500 0.682500
-3.210700 0.678000
-3.195900 0.673400
-3.181100 0.668800
-3.166300 0.663300
-3.151500 0.655800
-3.136700 0.648600
-3.121900 0.642900
-3.107000 0.637600
-3.092200 0.632600
-3.077400 0.627400
-3.062600 0.622100
-3.047800 0.616500
-3.033000 0.610800
-3.018200 0.605000
-3.003400 0.599700
-2.988600 0.595100
-2.973700 0.590400
-2.958900 0.585800
-2.944100 0.580300
-2.929300 0.574400
-2.914500 0.568600
-2.899700 0.563000
-2.884900 0.557400
-2.870100 0.550900
-2.855300 0.543500
-2.840400 0.536000
-2.825600 0.530500
-2.810800 0.525300
-2.796000 0.519700
-2.781200 0.514200
-2.766400 0.508900
-2.751600 0.503700
-2.736800 0.498200
-2.722000 0.491800
-2.707100 0.485300
-2.692300 0.478300
-2.677500 0.473500
-2.662700 0.470400
-2.647900 0.465900
-2.633100 0.458100
-2.618300 0.451500
-2.603500 0.444800
-2.588600 0.437700
-2.573800 0.430200
-2.559000 0.423600
-2.544200 0.416400
-2.529400 0.406800
-2.514600 0.395800
-2.499800 0.387800
-2.485000 0.380200
-2.470200 0.372700
-2.455300 0.368900
-2.440500 0.362600
-2.425700 0.355800
-2.410900 0.348600
-2.396100 0.340900
-2.381300 0.339000
-2.366500 0.335500
-2.351700 0.330300
-2.336900 0.460000
-2.322000 0.660100
-2.307200 0.436800
-2.292400 0.345000
-2.277600 0.253300
-2.262800 0.210000
-2.248000 0.171900
-2.233200 0.146200
-2.218400 0.125300
-2.203600 0.106200
-2.188700 0.098300
-2.173900 0.080900
-2.159100 0.096400
-2.144300 0.000000
-2.129500 0.000000
-2.114700 0.000000
-2.099900 0.000000
-2.085100 0.000000
-2.070300 0.000000
-2.055400 0.000000
-2.040600 0.000000
-2.025800 0.000000
-2.011000 0.000000
-1.996200 0.000000
-1.981400 0.000000
-1.966600 0.000000
-1.951800 0.000000
-1.936900 0.000000
-1.922100 0.000000
-1.907300 0.206500
-1.892500 0.210200
-1.877700 0.204700
-1.862900 0.235100
-1.848100 0.238600
-1.833300 0.263600
-1.818500 0.305200
-1.803600 0.404400
-1.788800 0.269300
-1.774000 0.274400
-1.759200 0.279600
-1.744400 0.284800
-1.729600 0.288500
-1.714800 0.293600
-1.700000 0.301200
-1.685200 0.308800
-1.670300 0.316400
-1.655500 0.324000
-1.640700 0.331400
-1.625900 0.339200
-1.611100 0.349400
-1.596300 0.361000
-1.581500 0.372800
-1.566700 0.384500
-1.551900 0.395000
-1.537000 0.405000
-1.522200 0.414000
-1.507400 0.424600
-1.492600 0.435300
-1.477800 0.449600
-1.463000 0.458100
-1.448200 0.465900
-1.433400 0.473400
-1.418600 0.482600
-1.403700 0.491700
-1.388900 0.500500
-1.374100 0.509300
-1.359300 0.519500
-1.344500 0.530900
-1.329700 0.544500
-1.314900 0.558700
-1.300100 0.573600
-1.285300 0.588700
-1.270400 0.603400
-1.255600 0.617200
-1.240800 0.659200
-1.226000 0.770500
-1.211200 0.874500
-1.196400 0.967000
-1.181600 1.048100
-1.166800 1.131600
-1.151900 1.219700
-1.137100 1.323100
-1.122300 1.482300
-1.107500 1.642600
-1.092700 2.230900
-1.077900 2.116400
-1.063100 1.823900
-1.048300 1.600700
-1.033500 1.430600
-1.018600 1.340900
-1.003800 1.269800
-0.989000 1.206900
-0.974200 1.152100
-0.959400 1.105100
-0.944600 1.066200
-0.929800 1.033100
-0.915000 1.004400
-0.900200 0.977800
-0.885300 0.952800
-0.870500 0.929400
-0.855700 0.907400
-0.840900 0.887100
-0.826100 0.868500
-0.811300 0.851000
-0.796500 0.834500
-0.781700 0.819100
-0.766900 0.804400
-0.752000 0.790200
-0.737200 0.776500
-0.722400 0.764100
-0.707600 0.752100
-0.692800 0.740600
-0.678000 0.729400
-0.663200 0.718600
-0.648400 0.708100
-0.633600 0.698000
-0.618700 0.688300
-0.603900 0.678900
-0.589100 0.669700
-0.574300 0.660800
-0.559500 0.652100
-0.544700 0.643700
-0.529900 0.635400
-0.515100 0.627800
-0.500200 0.620300
-0.485400 0.613000
-0.470600 0.605900
-0.455800 0.599000
-0.441000 0.592300
-0.426200 0.585800
-0.411400 0.579300
-0.396600 0.572900
-0.381800 0.566600
-0.366900 0.560500
-0.352100 0.554400
-0.337300 0.548500
-0.322500 0.542600
-0.307700 0.537000
-0.292900 0.531700
-0.278100 0.526400
-0.263300 0.521200
-0.248500 0.516100
-0.233600 0.511000
-0.218800 0.506000
-0.204000 0.501000
-0.189200 0.496100
-0.174400 0.491300
-0.159600 0.486500
-0.144800 0.481900
-0.130000 0.477200
-0.115200 0.472600
-0.100300 0.468000
-0.085500 0.463400
-0.070700 0.459200
-0.055900 0.455100
-0.041100 0.451000
-0.026300 0.446900
-0.011500 0.443000
0.003300 0.439100
0.018100 0.435200
0.033000 0.431300
0.047800 0.427500
0.062600 0.423800
0.077400 0.420000
0.092200 0.416300
0.107000 0.412600
0.121800 0.409000
0.136600 0.405400
0.151500 0.401800
0.166300 0.398300
0.181100 0.395100
0.195900 0.391800
0.210700 0.388600
0.225500 0.385300
0.240300 0.382100
0.255100 0.378900
0.269900 0.375700
0.284800 0.372600
0.299600 0.369400
0.314400 0.366300
0.329200 0.363200
0.344000 0.360100
0.358800 0.357100
0.373600 0.354100
0.388400 0.351100
0.403200 0.348100
0.418100 0.345100
0.432900 0.342300
0.447700 0.339600
0.462500 0.336900
0.477300 0.334200
0.492100 0.331500
0.506900 0.328900
0.521700 0.326300
0.536500 0.323700
0.551400 0.321100
0.566200 0.318500
0.581000 0.315900
0.595800 0.313400
0.610600 0.310800
0.625400 0.308300
0.640200 0.305800
0.655000 0.303300
0.669800 0.300900
0.684700 0.298300
0.699500 0.296100
0.714300 0.293800
0.729100 0.291500
0.743900 0.289300
0.758700 0.287000
0.773500 0.284800
0.788300 0.282500
0.803200 0.280300
0.818000 0.278000
0.832800 0.275800
0.847600 0.273600
0.862400 0.271400
0.877200 0.269200
0.892000 0.267100
0.906800 0.264900
0.921600 0.262800
0.936500 0.260700
0.951300 0.258600
0.966100 0.256400
0.980900 0.254400
0.995700 0.252500
1.010500 0.250600
1.025300 0.248700
1.040100 0.246800
1.054900 0.244900
1.069800 0.243000
1.084600 0.241100
1.099400 0.239200
1.114200 0.237400
1.129000 0.235500
1.143800 0.233700
1.158600 0.231800
1.173400 0.230000
1.188200 0.228100
1.203100 0.226300
1.217900 0.224500
1.232700 0.222700
1.247500 0.220900
1.262300 0.219000
1.277100 0.217400
1.291900 0.215700
1.306700 0.214100
1.321500 0.296700
1.336400 0.415300
1.351200 0.460000
1.366000 0.505300
1.380800 0.545700
1.395600 0.608600
1.410400 0.643600
1.425200 0.702600
1.440000 0.747900
1.454800 0.767700
1.469700 0.805300
1.484500 0.844500
1.499300 0.887300
1.514100 0.929900
1.528900 0.976000
1.543700 1.030100
1.558500 1.122300
1.573300 1.201600
1.588200 1.322200
1.603000 1.357200
1.617800 1.316900
1.632600 1.293100
1.647400 1.264800
1.662200 1.253300
1.677000 1.243500
1.691800 1.224700
1.706600 1.207800
1.721500 1.194800
1.736300 1.189600
1.751100 1.179000
1.765900 1.163500
1.780700 1.149300
1.795500 1.130700
1.810300 1.124300
1.825100 1.113200
1.839900 1.097800
1.854800 1.083500
1.869600 1.069700
1.884400 1.057000
1.899200 1.050300
1.914000 1.044100
1.928800 1.038300
1.943600 1.032600
1.958400 1.026900
1.973200 1.020500
1.988100 1.013500
2.002900 1.001700
2.017700 1.034600
2.032500 1.038100
2.047300 1.042600
2.062100 1.035600
2.076900 1.037800
2.091700 1.040600
2.106500 1.043400
2.121400 1.046600
2.136200 1.050000
2.151000 1.049100
2.165800 1.050100
2.180600 1.053400
2.195400 1.056400
2.210200 1.057500
2.225000 1.059100
2.239900 1.061500
2.254700 1.063900
2.269500 1.069100
2.284300 1.072700
2.299100 1.076600
2.313900 1.080800
2.328700 1.084900
2.343500 1.089000
2.358300 1.094500
2.373200 1.101000
2.388000 1.107900
2.402800 1.115300
2.417600 1.123000
2.432400 1.128200
2.447200 1.132500
2.462000 1.136800
2.476800 1.141100
2.491600 1.148100
2.506500 1.156000
2.521300 1.162800
2.536100 1.169000
2.550900 1.175900
2.565700 1.184500
2.580500 1.194600
2.595300 1.205000
2.610100 1.216600
2.624900 1.227400
2.639800 1.238700
2.654600 1.250400
2.669400 1.268100
2.684200 1.282100
2.699000 1.294500
2.713800 1.312700
2.728600 1.331300
2.743400 1.350400
2.758200 1.368400
2.773100 1.388600
2.787900 1.417900
2.802700 1.486800
2.817500 1.552000
2.832300 1.593000
2.847100 1.579600
2.861900 1.561200
2.876700 1.579000
2.891600 1.564300
2.906400 1.546500
2.921200 1.545600
2.936000 1.541600
2.950800 1.537800
2.965600 1.561700
2.980400 1.540100
2.995200 1.526700
3.010000 1.523200
3.024900 1.520300
3.039700 1.513500
3.054500 1.506300
3.069300 1.493400
3.084100 1.488500
3.098900 1.495600
3.113700 1.509600
3.128500 1.492400
3.143300 1.486900
3.158200 1.486000
3.173000 1.481200
3.187800 1.467700
3.202600 1.460300
3.217400 1.456000
3.232200 1.452500
3.247000 1.447600
3.261800 1.444600
3.276600 1.444300
3.291500 1.448500
3.306300 1.438100
3.321100 1.431300
3.335900 1.425900
3.350700 1.425300
3.365500 1.423200
3.380300 1.418700
3.395100 1.412900
3.409900 1.406600
3.424800 1.399500
3.439600 1.392000
3.454400 1.386800
3.469200 1.383400
3.484000 1.382100
3.498800 1.381400
3.513600 1.379300
3.528400 1.379300
3.543200 1.376500
3.558100 1.371500
3.572900 1.366000
3.587700 1.360100
3.602500 1.354200
3.617300 1.347900
3.632100 1.341700
3.646900 1.335700
3.661700 1.329500
3.676600 1.324600
3.691400 1.322100
3.706200 1.322400
3.721000 1.322900
3.735800 1.321800
3.750600 1.317000
3.765400 1.314400
3.780200 1.310200
3.795000 1.305300
3.809900 1.300200
3.824700 1.295300
3.839500 1.290400
3.854300 1.286700
3.869100 1.282800
3.883900 1.278300
3.898700 1.273100
3.913500 1.267100
3.928300 1.262100
3.943200 1.257800
3.958000 1.254200
3.972800 1.251300
3.987600 1.249700
4.002400 1.251100
4.017200 1.249300
4.032000 1.250800
4.046800 1.247600
4.061600 1.243900
4.076500 1.239200
4.091300 1.234400
4.106100 1.228700
4.120900 1.224500
4.135700 1.221700
4.150500 1.218300
4.165300 1.213800
4.180100 1.208200
4.194900 1.203200
4.209800 1.199600
4.224600 1.195100
4.239400 1.191900
4.254200 1.197900
4.269000 1.197500
4.283800 1.192100
4.298600 1.192900
4.313400 1.189800
4.328300 1.190300
4.343100 1.187000
4.357900 1.184800
4.372700 1.175200
4.387500 1.168300
4.402300 1.153800
4.417100 1.118500
4.431900 1.077100
4.446700 1.018200
4.461600 0.950700
4.476400 0.923900
4.491200 0.899300
4.506000 0.876800
4.520800 0.862000
4.535600 0.847300
4.550400 0.805200
4.565200 0.779800
4.580000 0.755700
4.594900 0.732500
4.609700 0.715400
4.624500 0.698100
4.639300 0.679900
4.654100 0.666300
4.668900 0.679300
4.683700 0.642400
4.698500 0.627900
4.713300 0.617400
4.728200 0.607300
4.743000 0.596700
4.757800 0.584000
4.772600 0.573400
4.787400 0.560300
4.802200 0.543300
4.817000 0.529600
4.831800 0.515900
4.846600 0.509100
4.861500 0.496000
4.876300 0.484000
4.891100 0.472800
4.905900 0.462500
4.920700 0.454400
4.935500 0.446500
4.950300 0.437900
4.965100 0.432300
4.980000 0.427600
4.994800 0.418100
5.009600 0.401000
5.024400 0.390100
5.039200 0.388600
5.054000 0.371100
5.068800 0.361900
5.083600 0.353100
5.098400 0.343800
5.113300 0.335000
5.128100 0.327700
5.142900 0.325100
5.157700 0.319800
5.172500 0.313300
5.187300 0.305000
5.202100 0.286100
5.216900 0.277300
5.231700 0.269100
5.246600 0.284900
5.261400 0.257400
5.276200 0.252700
5.291000 0.244900
5.305800 0.236900
5.320600 0.233800
5.335400 0.213600
5.350200 0.204300
5.365000 0.195500
5.379900 0.187200
5.394700 0.178600
5.409500 0.171700
5.424300 0.165100
5.439100 0.172800
5.453900 0.152500
5.468700 0.140600
5.483500 0.128400
5.498300 0.129000
5.513200 0.099400
5.528000 0.078300
5.542800 0.067100
5.557600 0.089700
5.572400 0.055200
5.587200 0.028000
5.602000 0.000000
5.616800 0.000000
5.631600 0.000000
5.646500 0.000000
5.661300 0.000000
5.676100 0.000000
5.690900 0.000000
5.705700 0.000000
5.720500 0.000000
5.735300 0.000000
5.750100 0.000000
5.765000 0.000000
5.779800 0.000000
5.794600 0.000000
5.809400 0.000000
5.824200 0.000000
5.839000 0.000000
5.853800 0.000000
5.868600 0.000000
5.883400 0.000000
5.898300 0.000000
5.913100 0.000000
5.927900 0.000000
5.942700 0.000000
5.957500 0.000000
5.972300 0.000000
5.987100 0.000000
6.001900 0.000000
6.016700 0.000000
6.031600 0.000000
6.046400 0.000000
6.061200 0.000000
6.076000 0.000000
6.090800 0.000000
6.105600 0.000000
6.120400 0.000000
6.135200 0.000000
6.150000 0.000000
6.164900 0.000000
6.179700 0.000000
6.194500 0.000000
6.209300 0.000000
6.224100 0.000000
6.238900 0.000000
6.253700 0.000000
6.268500 0.144600
6.283300 0.066100
6.298200 0.074500
6.313000 0.083800
6.327800 0.099400
6.342600 0.116400
6.357400 0.135200
6.372200 0.150100
6.387000 0.166900
6.401800 0.184200
6.416700 0.222100
6.431500 0.241900
6.446300 0.232800
6.461100 0.208800
6.475900 0.228900
6.490700 0.242300
6.505500 0.256000
6.520300 0.269900
6.535100 0.309300
6.550000 0.313400
6.564800 0.318300
6.579600 0.330400
6.594400 0.338200
6.609200 0.347800
6.624000 0.359100
6.638800 0.371000
6.653600 0.377100
6.668400 0.395100
6.683300 0.398600
6.698100 0.399400
6.712900 0.407600
6.727700 0.415700
6.742500 0.422700
6.757300 0.430100
6.772100 0.438600
6.786900 0.447600
6.801700 0.457200
6.816600 0.467500
6.831400 0.491100
6.846200 0.498900
6.861000 0.501400
6.875800 0.506600
6.890600 0.514100
6.905400 0.521800
6.920200 0.529100
6.935000 0.536100
6.949900 0.543300
6.964700 0.551900
6.979500 0.560300
6.994300 0.569100
7.009100 0.575500
7.023900 0.583100
7.038700 0.600500
7.053500 0.610300
7.068400 0.615600
7.083200 0.618800
7.098000 0.625500
7.112800 0.636500
7.127600 0.650200
7.142400 0.666800
7.157200 0.688700
7.172000 0.706500
7.186800 0.739100
7.201700 0.736000
7.216500 0.750400
7.231300 0.764700
7.246100 0.783200
7.260900 0.810800
7.275700 0.826100
7.290500 0.838100
7.305300 0.852100
7.320100 0.863000
7.335000 0.873200
7.349800 0.884200
7.364600 0.898300
7.379400 0.916700
7.394200 0.935400
7.409000 0.944100
7.423800 0.957000
7.438600 0.970900
7.453400 0.985700
7.468300 1.000500
7.483100 1.016900
7.497900 1.034200
7.512700 1.051800
7.527500 1.071700
7.542300 1.093500
7.557100 1.120900
7.571900 1.142500
7.586700 1.154000
7.601600 1.170900
7.616400 1.190200
7.631200 1.211000
7.646000 1.234400
7.660800 1.259800
7.675600 1.287600
7.690400 1.317000
7.705200 1.348200
7.720000 1.382200
7.734900 1.420300
7.749700 1.466900
7.764500 1.581600
7.779300 1.628800
7.794100 1.672200
7.808900 1.703700
7.823700 1.704100
7.838500 1.661000
7.853400 1.672000
7.868200 1.683500
7.883000 1.671100
7.897800 1.664900
7.912600 1.679500
7.927400 1.701700
7.942200 1.672000
7.957000 1.658200
7.971800 1.642300
7.986700 1.626300
8.001500 1.618800
8.016300 1.613200
8.031100 1.616000
8.045900 1.612400
8.060700 1.564200
8.075500 1.552500
8.090300 1.548200
8.105100 1.534800
8.120000 1.548000
8.134800 1.510300
8.149600 1.541700
8.164400 1.496800
8.179200 1.434400
8.194000 1.396500
8.208800 1.365900
8.223600 1.332900
8.238400 1.303700
8.253300 1.277800
8.268100 1.275700
8.282900 1.264900
8.297700 1.250100
8.312500 1.216700
8.327300 1.204100
8.342100 1.220100
8.356900 1.216600
8.371700 1.236000
8.386600 1.221500
8.401400 1.212400
8.416200 1.178900
8.431000 1.162000
8.445800 1.152000
8.460600 1.143000
8.475400 1.160700
8.490200 1.141000
8.505100 1.132200
8.519900 1.119200
8.534700 1.114900
8.549500 1.149600
8.564300 1.144300
8.579100 1.111000
8.593900 1.095800
8.608700 1.114800
8.623500 1.049100
8.638400 1.010800
8.653200 0.989900
8.668000 0.961000
8.682800 0.941900
8.697600 0.925100
8.712400 0.911800
8.727200 0.958700
8.742000 0.953500
8.756800 0.958500
8.771700 0.994500
8.786500 1.023000
8.801300 1.062000
8.816100 1.118200
8.830900 1.211300
8.845700 1.370300
8.860500 1.568300
8.875300 1.936100
8.890100 2.203100
8.905000 2.404900
8.919800 2.576400
8.934600 2.605800
8.949400 2.587900
8.964200 2.520800
8.979000 2.446700
8.993800 2.385100
9.008600 2.287800
9.023400 2.180700
9.038300 2.086100
9.053100 2.011200
9.067900 1.929100
9.082700 1.856300
9.097500 1.792300
9.112300 1.745700
9.127100 1.718700
9.141900 1.704700
9.156800 1.701500
9.171600 1.761900
9.186400 1.714400
9.201200 1.742500
9.216000 1.730200
9.230800 1.734800
9.245600 1.755600
9.260400 1.774200
9.275200 1.801300
9.290100 1.820100
9.304900 1.843200
9.319700 1.866800
9.334500 1.893100
9.349300 1.900500
9.364100 1.906500
9.378900 1.856100
9.393700 1.827300
9.408500 1.792000
9.423400 1.746400
9.438200 1.709000
9.453000 1.668100
9.467800 1.601300
9.482600 1.531900
9.497400 1.495300
9.512200 1.465000
9.527000 1.457400
9.541800 1.425500
9.556700 1.414800
9.571500 1.351700
9.586300 1.320600
9.601100 1.300400
9.615900 1.282600
9.630700 1.264300
9.645500 1.231500
9.660300 1.213300
9.675100 1.201600
9.690000 1.166800
9.704800 1.144200
9.719600 1.130300
9.734400 1.119700
9.749200 1.113900
9.764000 1.111500
9.778800 1.111300
9.793600 1.114200
9.808500 1.118500
9.823300 1.123700
9.838100 1.130800
9.852900 1.142600
9.867700 1.158000
9.882500 1.170600
9.897300 1.164800
9.912100 1.172700
9.926900 1.169800
9.941800 1.175600
9.956600 1.178900
9.971400 1.205900
9.986200 1.228200
10.001000 1.252300
10.015800 1.254800
10.030600 1.278000
10.045400 1.311000
10.060200 1.343700
10.075100 1.375400
10.089900 1.406000
10.104700 1.433600
10.119500 1.467100
10.134300 1.480200
10.149100 1.453600
10.163900 1.433100
10.178700 1.407200
10.193500 1.370400
10.208400 1.337500
10.223200 1.312400
10.238000 1.290400
10.252800 1.269500
10.267600 1.244200
10.282400 1.240000
10.297200 1.245000
10.312000 1.244200
10.326800 1.238600
10.341700 1.244400
10.356500 1.266800
10.371300 1.286500
10.386100 1.295900
10.400900 1.299900
10.415700 1.304800
10.430500 1.308300
10.445300 1.303000
10.460100 1.283400
10.475000 1.258700
10.489800 1.248300
10.504600 1.240800
10.519400 1.231000
10.534200 1.224700
10.549000 1.218800
10.563800 1.216900
10.578600 1.217300
10.593500 1.234300
10.608300 1.214600
10.623100 1.215100
10.637900 1.217300
10.652700 1.218600
10.667500 1.245800
10.682300 1.250200
10.697100 1.236400
10.711900 1.235800
10.726800 1.223800
10.741600 1.222900
10.756400 1.223900
10.771200 1.224900
10.786000 1.224900
10.800800 1.216300
10.815600 1.208800
10.830400 1.203300
10.845200 1.196000
10.860100 1.183500
10.874900 1.199400
10.889700 1.173000
10.904500 1.186400
10.919300 1.185500
10.934100 1.186400
10.948900 1.188500
10.963700 1.190000
10.978500 1.185500
10.993400 1.178700
11.008200 1.178200
11.023000 1.184800
11.037800 1.199900
11.052600 1.199800
11.067400 1.193800
11.082200 1.193300
11.097000 1.193000
11.111800 1.191300
11.126700 1.191400
11.141500 1.169400
11.156300 1.166500
11.171100 1.162200
11.185900 1.159400
11.200700 1.151200
11.215500 1.143300
11.230300 1.136100
11.245200 1.128300
11.260000 1.117000
11.274800 1.105400
11.289600 1.096100
11.304400 1.089200
11.319200 1.083900
11.334000 1.079300
11.348800 1.075700
11.363600 1.075100
11.378500 1.089900
11.393300 1.082400
11.408100 1.082900
11.422900 1.082000
11.437700 1.075300
11.452500 1.073300
11.467300 1.069400
11.482100 1.066500
11.496900 1.062300
11.511800 1.060500
11.526600 1.060900
11.541400 1.050200
11.556200 1.046500
11.571000 1.040600
11.585800 1.036300
11.600600 1.033100
11.615400 1.030800
11.630200 1.027400
11.645100 1.020900
11.659900 1.014700
11.674700 1.013100
11.689500 1.012600
11.704300 1.013100
11.719100 1.013100
11.733900 1.013000
11.748700 1.012600
11.763500 1.011800
11.778400 1.010000
11.793200 1.014900
11.808000 1.015600
11.822800 1.018500
11.837600 1.021600
11.852400 1.023200
11.867200 1.018300
11.882000 1.008500
11.896900 1.004200
11.911700 1.000100
11.926500 0.995800
11.941300 0.991200
11.956100 0.985900
11.970900 0.978100
11.985700 0.981100
12.000500 1.004500
12.015300 0.998700
12.030200 1.007800
12.045000 1.018300
12.059800 1.030300
12.074600 1.061000
12.089400 1.086700
12.104200 1.114700
12.119000 1.133200
12.133800 1.161200
12.148600 1.194700
12.163500 1.236600
12.178300 1.278900
12.193100 1.326100
12.207900 1.390300
12.222700 1.442700
12.237500 1.446400
12.252300 1.455300
12.267100 1.455700
12.281900 1.451200
12.296800 1.435000
12.311600 1.422200
12.326400 1.402200
12.341200 1.377600
12.356000 1.354300
12.370800 1.337700
12.385600 1.327200
12.400400 1.307500
12.415200 1.290300
12.430100 1.272300
12.444900 1.256800
12.459700 1.241800
12.474500 1.230300
12.489300 1.219700
12.504100 1.191500
12.518900 1.160100
12.533700 1.141800
12.548500 1.125600
12.563400 1.110100
12.578200 1.097600
12.593000 1.086700
12.607800 1.075600
12.622600 1.066200
12.637400 1.059700
12.652200 1.055700
12.667000 1.054200
12.681900 1.054500
12.696700 1.057700
12.711500 1.064300
12.726300 1.073200
12.741100 1.080700
12.755900 1.087100
12.770700 1.090800
12.785500 1.101500
12.800300 1.113300
12.815200 1.131300
12.830000 1.135300
12.844800 1.138800
12.859600 1.141900
12.874400 1.132100
12.889200 1.144200
12.904000 1.137800
12.918800 1.158000
12.933600 1.169500
12.948500 1.161100
12.963300 1.146300
12.978100 1.146000
12.992900 1.147400
13.007700 1.149900
13.022500 1.154100
13.037300 1.169800
13.052100 1.190400
13.066900 1.186900
13.081800 1.178700
13.096600 1.184000
13.111400 1.201800
13.126200 1.215400
13.141000 1.227500
13.155800 1.239900
13.170600 1.256800
13.185400 1.281400
13.200200 1.301900
13.215100 1.290500
13.229900 1.296400
13.244700 1.315900
13.259500 1.336600
13.274300 1.321900
13.289100 1.329800
13.303900 1.350200
13.318700 1.353800
13.333600 1.328700
13.348400 1.363800
13.363200 1.401300
13.378000 1.441500
13.392800 1.525700
13.407600 1.461500
13.422400 1.397400
13.437200 1.371900
13.452000 1.358800
13.466900 1.350800
13.481700 1.352600
13.496500 1.348200
13.511300 1.330800
13.526100 1.318000
13.540900 1.318800
13.555700 1.309800
13.570500 1.301100
13.585300 1.320200
13.600200 1.272500
13.615000 1.253200
13.629800 1.228300
13.644600 1.198300
13.659400 1.177900
13.674200 1.163600
13.689000 1.153000
13.703800 1.143300
13.718600 1.137200
13.733500 1.129100
13.748300 1.118400
13.763100 1.119300
13.777900 1.122100
13.792700 1.122600
13.807500 1.125000
13.822300 1.126900
13.837100 1.128700
13.851900 1.130400
13.866800 1.131500
13.881600 1.132500
13.896400 1.135200
13.911200 1.140800
13.926000 1.148800
13.940800 1.155200
13.955600 1.161100
13.970400 1.164400
13.985300 1.158500
14.000100 1.160100
14.014900 1.167000
14.029700 1.171600
14.044500 1.172800
14.059300 1.174600
14.074100 1.178100
14.088900 1.180600
14.103700 1.187600
14.118600 1.187100
14.133400 1.189600
14.148200 1.193200
14.163000 1.204100
14.177800 1.197400
14.192600 1.201100
14.207400 1.204500
14.222200 1.208000
14.237000 1.211900
14.251900 1.215200
14.266700 1.218200
14.281500 1.224000
14.296300 1.233800
14.311100 1.243600
14.325900 1.256900
14.340700 1.265300
14.355500 1.270200
14.370300 1.279000
14.385200 1.282200
14.400000 1.283500
14.414800 1.285900
14.429600 1.289000
14.444400 1.296400
14.459200 1.307300
14.474000 1.322600
14.488800 1.334100
14.503600 1.336900
14.518500 1.338800
14.533300 1.338800
14.548100 1.334400
14.562900 1.339400
14.577700 1.345100
14.592500 1.336100
14.607300 1.329900
14.622100 1.328500
14.636900 1.331600
14.651800 1.336500
14.666600 1.342600
14.681400 1.355300
14.696200 1.377100
14.711000 1.380000
14.725800 1.376100
14.740600 1.380600
14.755400 1.405900
14.770300 1.394300
14.785100 1.404600
14.799900 1.420400
14.814700 1.472800
14.829500 1.435700
14.844300 1.426200
14.859100 1.423800
14.873900 1.419300
14.888700 1.418900
14.903600 1.418400
14.918400 1.417500
14.933200 1.418600
14.948000 1.425300
14.962800 1.421100
14.977600 1.413800
14.992400 1.407800
15.007200 1.403500
15.022000 1.403800
15.036900 1.401300
15.051700 1.397600
15.066500 1.394400
15.081300 1.389400
15.096100 1.386200
15.110900 1.382800
15.125700 1.380200
15.140500 1.377700
15.155300 1.375100
15.170200 1.372200
15.185000 1.368900
15.199800 1.366300
15.214600 1.364300
15.229400 1.362600
15.244200 1.360600
15.259000 1.358400
15.273800 1.356500
15.288600 1.355100
15.303500 1.354500
15.318300 1.363300
15.333100 1.364300
15.347900 1.372200
15.362700 1.372300
15.377500 1.372400
15.392300 1.372000
15.407100 1.371000
15.422000 1.366100
15.436800 1.356100
15.451600 1.366100
15.466400 1.350700
15.481200 1.350600
15.496000 1.349800
15.510800 1.349300
15.525600 1.347800
15.540400 1.345800
15.555300 1.342900
15.570100 1.340000
15.584900 1.339400
15.599700 1.338000
15.614500 1.337000
15.629300 1.336000
15.644100 1.344300
15.658900 1.336300
15.673700 1.336300
15.688600 1.336000
15.703400 1.386100
15.718200 1.327500
15.733000 1.315700
15.747800 1.304400
15.762600 1.281800
15.777400 1.280400
15.792200 1.279100
15.807000 1.277300
15.821900 1.270900
15.836700 1.263900
15.851500 1.251600
15.866300 1.248700
15.881100 1.246900
15.895900 1.245400
15.910700 1.239900
15.925500 1.239000
15.940300 1.236600
15.955200 1.234400
15.970000 1.241300
15.984800 1.235900
15.999600 1.235700
16.014400 1.231200
16.029200 1.223000
16.044000 1.213600
16.058800 1.204500
16.073700 1.192300
16.088500 1.179600
16.103300 1.167500
16.118100 1.151600
16.132900 1.143000
16.147700 1.127200
16.162500 1.120100
16.177300 1.112500
16.192100 1.107300
16.207000 1.108600
16.221800 1.123700
16.236600 1.138600
16.251400 1.151900
16.266200 1.163800
16.281000 1.173600
16.295800 1.193100
16.310600 1.373800
16.325400 1.334900
16.340300 1.442000
16.355100 1.296600
16.369900 1.278300
16.384700 1.264900
16.399500 1.259300
16.414300 1.258200
16.429100 1.258100
16.443900 1.268500
16.458700 1.297900
16.473600 1.320100
16.488400 1.339900
16.503200 1.352900
16.518000 1.364200
16.532800 1.384900
16.547600 1.401700
16.562400 1.388700
16.577200 1.409100
16.592000 1.464600
16.606900 1.414100
16.621700 1.366300
16.636500 1.341300
16.651300 1.321000
16.666100 1.316000
16.680900 1.311400
16.695700 1.318300
16.710500 1.326000
16.725300 1.327700
16.740200 1.344800
16.755000 1.377900
16.769800 1.303000
16.784600 1.287500
16.799400 1.264200
16.814200 1.242800
16.829000 1.199700
16.843800 1.170700
16.858700 1.157400
16.873500 1.123900
16.888300 1.101400
16.903100 1.196900
16.917900 1.031300
16.932700 1.019100
16.947500 1.012300
16.962300 1.007300
16.977100 0.999800
16.992000 0.991500
17.006800 0.956200
17.021600 0.958700
17.036400 0.967300
17.051200 1.000300
17.066000 0.990700
17.080800 0.995000
17.095600 1.002800
17.110400 1.008800
17.125300 1.008700
17.140100 1.002500
17.154900 1.000400
17.169700 0.998100
17.184500 0.998400
17.199300 1.000800
17.214100 1.005300
17.228900 1.014900
17.243700 1.023700
17.258600 1.029800
17.273400 1.037700
17.288200 1.048400
17.303000 1.079700
17.317800 1.113400
17.332600 1.143800
17.347400 1.171900
17.362200 1.193200
17.377000 1.218300
17.391900 1.254500
17.406700 1.278900
17.421500 1.291800
17.436300 1.295500
17.451100 1.306000
17.465900 1.307700
17.480700 1.310200
17.495500 1.322000
17.510400 1.340700
17.525200 1.374300
17.540000 1.400000
17.554800 1.415000
17.569600 1.427600
17.584400 1.445900
17.599200 1.465200
17.614000 1.479900
17.628800 1.496200
17.643700 1.517000
17.658500 1.544500
17.673300 1.567200
17.688100 1.581900
17.702900 1.589200
17.717700 1.589700
17.732500 1.592200
17.747300 1.591300
17.762100 1.583600
17.777000 1.577800
17.791800 1.573600
17.806600 1.574600
17.821400 1.576500
17.836200 1.585400
17.851000 1.584400
17.865800 1.577200
17.880600 1.567600
17.895400 1.553500
17.910300 1.555700
17.925100 1.549300
17.939900 1.541700
17.954700 1.531000
17.969500 1.518700
17.984300 1.505400
17.999100 1.497000
18.013900 1.501600
18.028700 1.492900
18.043600 1.488700
18.058400 1.499400
18.073200 1.494400
18.088000 1.491200
18.102800 1.486800
18.117600 1.487900
18.132400 1.491000
18.147200 1.492800
18.162100 1.529200
18.176900 1.552500
18.191700 1.347500
18.206500 1.324700
18.221300 1.302700
18.236100 1.286400
18.250900 1.273900
18.265700 1.259400
18.280500 1.244900
18.295400 1.234300
18.310200 1.220000
18.325000 1.208200
18.339800 1.198200
18.354600 1.186400
18.369400 1.175100
18.384200 1.164200
18.399000 1.153500
18.413800 1.143400
18.428700 1.133600
18.443500 1.123000
18.458300 1.118100
18.473100 1.114300
18.487900 1.109700
18.502700 1.095100
18.517500 1.098500
18.532300 1.087600
18.547100 1.079800
18.562000 1.064500
18.576800 1.055000
18.591600 1.044900
18.606400 1.034800
18.621200 1.026700
18.636000 1.016900
18.650800 1.008200
18.665600 1.004800
18.680400 0.995300
18.695300 1.027600
18.710100 0.965200
18.724900 0.930200
18.739700 0.908400
18.754500 0.883000
18.769300 0.863300
18.784100 0.847300
18.798900 0.840700
18.813800 0.840900
18.828600 0.835200
18.843400 0.825400
18.858200 0.836500
18.873000 0.779400
18.887800 0.766100
18.902600 0.753800
18.917400 0.748800
18.932200 0.734200
18.947100 0.721000
18.961900 0.709200
18.976700 0.698100
18.991500 0.687700
19.006300 0.677500
19.021100 0.660500
19.035900 0.652600
19.050700 0.645800
19.065500 0.641300
19.080400 0.637400
19.095200 0.632000
19.110000 0.627300
19.124800 0.617100
19.139600 0.612700
19.154400 0.609500
19.169200 0.606700
19.184000 0.604200
19.198800 0.602300
19.213700 0.600500
19.228500 0.599800
19.243300 0.596600
19.258100 0.592700
19.272900 0.589600
19.287700 0.587800
19.302500 0.586500
19.317300 0.585700
19.332100 0.585200
19.347000 0.585100
19.361800 0.585200
19.376600 0.585800
19.391400 0.586400
19.406200 0.586400
19.421000 0.586400
19.435800 0.586400
19.450600 0.586400
19.465400 0.588200
19.480300 0.590400
19.495100 0.594100
19.509900 0.597700
19.524700 0.605400
19.539500 0.607300
19.554300 0.609200
19.569100 0.611100
19.583900 0.613300
19.598800 0.620100
19.613600 0.646200
19.628400 0.640800
19.643200 0.642400
19.658000 0.627900
19.672800 0.632900
19.687600 0.637600
19.702400 0.641000
19.717200 0.642900
19.732100 0.641300
19.746900 0.638600
19.761700 0.634600
19.776500 0.629900
19.791300 0.623200
19.806100 0.607000
19.820900 0.586700
19.835700 0.561300
19.850500 0.511400
19.865400 0.463800
19.880200 0.431400
19.895000 0.404100
19.909800 0.388500
19.924600 0.374200
19.939400 0.361200
19.954200 0.346300
19.969000 0.329900
19.983800 0.312100
19.998700 0.301800
20.013500 0.282100
20.028300 0.262600
20.043100 0.243000
20.057900 0.225400
20.072700 0.210500
20.087500 0.199800
20.102300 0.192700
20.117100 0.186000
20.132000 0.179400
20.146800 0.172500
20.161600 0.166100
20.176400 0.159700
20.191200 0.153200
20.206000 0.146700
20.220800 0.140400
20.235600 0.142500
20.250500 0.136200
20.265300 0.130900
20.280100 0.125500
20.294900 0.120000
20.309700 0.114100
20.324500 0.108300
20.339300 0.104500
20.354100 0.100600
20.368900 0.088600
20.383800 0.077700
20.398600 0.067200
20.413400 0.057100
20.428200 0.047500
20.443000 0.038500
20.457800 0.034200
20.472600 0.029800
20.487400 0.026700
20.502200 0.023900
20.517100 0.021200
20.531900 0.018700
20.546700 0.016400
20.561500 0.014300
20.576300 0.012300
20.591100 0.010500
20.605900 0.009000
20.620700 0.007500
20.635500 0.006300
20.650400 0.005200
20.665200 0.004200
20.680000 0.003200
20.694800 0.002300
20.709600 0.001500
20.724400 0.000700
20.739200 0.000100
20.754000 0.000000
20.768800 0.000000
20.783700 0.000000
20.798500 0.000000
20.813300 0.000000
20.828100 0.000000
20.842900 0.000000
20.857700 0.000000
20.872500 0.000000
20.887300 0.000000
20.902200 0.000000
20.917000 0.000000
20.931800 0.000000
20.946600 0.000000
20.961400 0.000000
20.976200 0.000000
20.991000 0.000000
21.005800 0.000000
21.020600 0.000000
21.035500 0.000000
21.050300 0.000000
21.065100 0.000000
21.079900 0.000000
21.094700 0.000000
21.109500 0.000000
21.124300 0.000000
21.139100 0.000000
21.153900 0.000000
21.168800 0.000000
21.183600 0.000000
21.198400 0.000000
21.213200 0.000000
21.228000 0.000000
21.242800 0.000000
21.257600 0.000000
21.272400 0.000000
21.287200 0.000000
21.302100 0.000000
21.316900 0.000000
21.331700 0.000000
21.346500 0.000000
21.361300 0.000000
21.376100 0.000000
21.390900 0.000000
21.405700 0.000000
21.420500 0.000000
21.435400 0.000000
21.450200 0.000000
21.465000 0.000000
21.479800 0.000000
21.494600 0.000000
21.509400 0.000000
21.524200 0.000000
21.539000 0.000000
21.553800 0.000000
21.568700 0.000000
21.583500 0.000000
21.598300 0.000000
21.613100 0.000000
21.627900 0.000000
21.642700 0.000000
21.657500 0.000000
21.672300 0.000000
21.687200 0.000000
21.702000 0.000000
21.716800 0.000000
21.731600 0.000000
21.746400 0.000000
21.761200 0.000000
21.776000 0.000000
21.790800 0.000000
21.805600 0.000000
21.820500 0.000000
21.835300 0.000000
21.850100 0.000000
21.864900 0.000000
21.879700 0.000000
21.894500 0.000000
21.909300 0.000000
21.924100 0.000000
21.938900 0.000000
21.953800 0.000000
21.968600 0.000000
21.983400 0.000000
21.998200 0.000000
22.013000 0.000000
22.027800 0.000000
22.042600 0.000000
22.057400 0.000000
22.072200 0.000000
22.087100 0.000000
e
