set title 'mp-1696 - Density of States'
set xlabel 'Energy (eV)'
set ylabel 'DOS (states/eV)'
set grid
set xrange [-10:10]
set yrange [0:18.068]
set xzeroaxis lt -1
set terminal png size 800,600
set output 'mp-1696_dos_gnuplot.png'
plot '-' using 1:2 with lines title 'DOS'
-7.078000 0.000000
-7.060700 0.000000
-7.043500 0.000000
-7.026200 0.000000
-7.008900 0.000000
-6.991700 0.000000
-6.974400 0.000000
-6.957100 0.000000
-6.939900 0.000000
-6.922600 0.000000
-6.905300 0.000000
-6.888100 0.000000
-6.870800 0.000000
-6.853500 0.000000
-6.836300 0.000000
-6.819000 0.000000
-6.801700 0.000000
-6.784400 0.000000
-6.767200 0.000000
-6.749900 0.000000
-6.732600 0.000000
-6.715400 0.000000
-6.698100 0.000000
-6.680800 0.000000
-6.663600 0.000000
-6.646300 0.000000
-6.629000 0.000000
-6.611800 0.000000
-6.594500 0.000000
-6.577200 0.000000
-6.560000 0.000000
-6.542700 0.000000
-6.525400 0.000000
-6.508200 0.000000
-6.490900 0.000000
-6.473600 0.000000
-6.456400 0.000000
-6.439100 0.000000
-6.421800 0.000000
-6.404600 0.000000
-6.387300 0.000000
-6.370000 0.000000
-6.352800 0.000000
-6.335500 0.000000
-6.318200 0.000000
-6.300900 0.000000
-6.283700 0.000000
-6.266400 0.000000
-6.249100 0.000000
-6.231900 0.000000
-6.214600 0.000000
-6.197300 0.000000
-6.180100 0.000000
-6.162800 0.000000
-6.145500 0.000000
-6.128300 0.000000
-6.111000 0.000000
-6.093700 0.000000
-6.076500 0.000000
-6.059200 0.000000
-6.041900 0.000000
-6.024700 0.000000
-6.007400 0.000000
-5.990100 0.000000
-5.972900 0.000000
-5.955600 0.000000
-5.938300 0.000000
-5.921100 0.000000
-5.903800 0.000000
-5.886500 0.000000
-5.869300 0.000000
-5.852000 0.000000
-5.834700 0.000000
-5.817400 0.000000
-5.800200 0.000000
-5.782900 0.000000
-5.765600 0.000000
-5.748400 0.000000
-5.731100 0.000000
-5.713800 0.000000
-5.696600 0.000000
-5.679300 0.000000
-5.662000 0.000000
-5.644800 0.000000
-5.627500 0.000000
-5.610200 0.000000
-5.593000 0.000000
-5.575700 0.000000
-5.558400 0.000000
-5.541200 0.000000
-5.523900 0.000000
-5.506600 0.087900
-5.489400 0.444200
-5.472100 0.750400
-5.454800 0.955100
-5.437600 1.200100
-5.420300 1.492100
-5.403000 1.887900
-5.385800 2.118100
-5.368500 2.270600
-5.351200 2.477600
-5.333900 2.734400
-5.316700 2.996200
-5.299400 3.743400
-5.282100 4.506600
-5.264900 5.054000
-5.247600 5.703700
-5.230300 6.723900
-5.213100 7.833500
-5.195800 7.914600
-5.178500 8.830200
-5.161300 8.495700
-5.144000 7.830500
-5.126700 7.097100
-5.109500 6.851500
-5.092200 7.164500
-5.074900 8.938300
-5.057700 10.825600
-5.040400 13.004000
-5.023100 13.347200
-5.005900 11.576600
-4.988600 11.494100
-4.971300 10.847600
-4.954100 12.125200
-4.936800 12.259500
-4.919500 9.050300
-4.902300 8.435900
-4.885000 9.793700
-4.867700 10.664200
-4.850400 8.350100
-4.833200 8.009400
-4.815900 9.378400
-4.798600 9.341600
-4.781400 11.134000
-4.764100 12.610100
-4.746800 11.751200
-4.729600 13.205100
-4.712300 11.507200
-4.695000 11.373600
-4.677800 11.106600
-4.660500 10.890500
-4.643200 10.007200
-4.626000 10.394900
-4.608700 11.867200
-4.591400 12.762700
-4.574200 15.540000
-4.556900 14.802200
-4.539600 16.425600
-4.522400 13.344700
-4.505100 8.559200
-4.487800 8.042500
-4.470600 8.434200
-4.453300 7.356400
-4.436000 6.340200
-4.418800 5.664700
-4.401500 4.810900
-4.384200 4.787300
-4.366900 4.786100
-4.349700 4.325700
-4.332400 4.149600
-4.315100 3.701100
-4.297900 2.992100
-4.280600 2.857000
-4.263300 2.399100
-4.246100 1.686400
-4.228800 1.403500
-4.211500 1.213600
-4.194300 1.072900
-4.177000 0.990500
-4.159700 0.911100
-4.142500 0.882000
-4.125200 0.861100
-4.107900 0.844100
-4.090700 0.847600
-4.073400 0.803600
-4.056100 0.763900
-4.038900 0.744700
-4.021600 0.734300
-4.004300 0.724400
-3.987100 0.790000
-3.969800 0.665700
-3.952500 0.541400
-3.935300 0.130000
-3.918000 0.133100
-3.900700 0.136300
-3.883400 0.139400
-3.866200 0.141300
-3.848900 0.143700
-3.831600 0.145900
-3.814400 0.148100
-3.797100 0.150200
-3.779800 0.151700
-3.762600 0.153400
-3.745300 0.155300
-3.728000 0.157300
-3.710800 0.159300
-3.693500 0.161300
-3.676200 0.163400
-3.659000 0.165600
-3.641700 0.167800
-3.624400 0.170100
-3.607200 0.172300
-3.589900 0.174500
-3.572600 0.176800
-3.555400 0.179000
-3.538100 0.181300
-3.520800 0.183700
-3.503600 0.185400
-3.486300 0.187500
-3.469000 0.189500
-3.451800 0.191500
-3.434500 0.193500
-3.417200 0.195400
-3.399900 0.197300
-3.382700 0.199000
-3.365400 0.200900
-3.348100 0.202700
-3.330900 0.204500
-3.313600 0.206300
-3.296300 0.208100
-3.279100 0.210000
-3.261800 0.211800
-3.244500 0.213700
-3.227300 0.215600
-3.210000 0.217600
-3.192700 0.219700
-3.175500 0.221800
-3.158200 0.223900
-3.140900 0.226100
-3.123700 0.228300
-3.106400 0.230500
-3.089100 0.232800
-3.071900 0.235000
-3.054600 0.237400
-3.037300 0.239000
-3.020100 0.241000
-3.002800 0.243000
-2.985500 0.244900
-2.968300 0.246800
-2.951000 0.248700
-2.933700 0.250600
-2.916400 0.252600
-2.899200 0.254400
-2.881900 0.256400
-2.864600 0.258500
-2.847400 0.260500
-2.830100 0.262600
-2.812800 0.264700
-2.795600 0.266800
-2.778300 0.268900
-2.761000 0.271100
-2.743800 0.273300
-2.726500 0.275500
-2.709200 0.277800
-2.692000 0.280000
-2.674700 0.282300
-2.657400 0.284600
-2.640200 0.286900
-2.622900 0.289200
-2.605600 0.291500
-2.588400 0.293800
-2.571100 0.296200
-2.553800 0.298600
-2.536600 0.301000
-2.519300 0.303300
-2.502000 0.305900
-2.484800 0.308500
-2.467500 0.311100
-2.450200 0.313800
-2.432900 0.316400
-2.415700 0.319100
-2.398400 0.321800
-2.381100 0.324500
-2.363900 0.327300
-2.346600 0.330000
-2.329300 0.332700
-2.312100 0.335500
-2.294800 0.338200
-2.277500 0.340900
-2.260300 0.343700
-2.243000 0.346500
-2.225700 0.349300
-2.208500 0.352200
-2.191200 0.355100
-2.173900 0.358100
-2.156700 0.361100
-2.139400 0.364500
-2.122100 0.368300
-2.104900 0.372100
-2.087600 0.376000
-2.070300 0.379800
-2.053100 0.383800
-2.035800 0.387800
-2.018500 0.391900
-2.001300 0.396100
-1.984000 0.400400
-1.966700 0.404700
-1.949400 0.409000
-1.932200 0.413400
-1.914900 0.417900
-1.897600 0.422500
-1.880400 0.427100
-1.863100 0.431800
-1.845800 0.436600
-1.828600 0.441400
-1.811300 0.446300
-1.794000 0.451300
-1.776800 0.457000
-1.759500 0.463200
-1.742200 0.495700
-1.725000 0.510600
-1.707700 0.525100
-1.690400 0.529900
-1.673200 0.536200
-1.655900 0.542700
-1.638600 0.553000
-1.621400 0.562900
-1.604100 0.564800
-1.586800 0.571700
-1.569600 0.577600
-1.552300 0.583300
-1.535000 0.589100
-1.517800 0.589500
-1.500500 0.591300
-1.483200 0.593400
-1.465900 0.597600
-1.448700 0.604700
-1.431400 0.611800
-1.414100 0.613100
-1.396900 0.614800
-1.379600 0.617500
-1.362300 0.619700
-1.345100 0.622100
-1.327800 0.625100
-1.310500 0.627600
-1.293300 0.629800
-1.276000 0.630800
-1.258700 0.635200
-1.241500 0.640900
-1.224200 0.646700
-1.206900 0.652000
-1.189700 0.656900
-1.172400 0.661900
-1.155100 0.666700
-1.137900 0.671400
-1.120600 0.675600
-1.103300 0.680600
-1.086100 0.686400
-1.068800 0.692500
-1.051500 0.716800
-1.034300 0.728000
-1.017000 0.739700
-0.999700 0.751700
-0.982400 0.764500
-0.965200 0.767500
-0.947900 0.779500
-0.930600 0.790900
-0.913400 0.801300
-0.896100 0.812200
-0.878800 0.824000
-0.861600 0.836300
-0.844300 0.869800
-0.827000 0.884400
-0.809800 0.898800
-0.792500 0.941600
-0.775200 0.999100
-0.758000 1.034600
-0.740700 1.055100
-0.723400 1.080200
-0.706200 1.182400
-0.688900 1.179500
-0.671600 1.146200
-0.654400 1.127200
-0.637100 1.107000
-0.619800 1.091100
-0.602600 1.067000
-0.585300 1.052800
-0.568000 1.043900
-0.550800 1.045000
-0.533500 1.037800
-0.516200 1.037200
-0.498900 1.037100
-0.481700 1.035300
-0.464400 1.034500
-0.447100 1.007900
-0.429900 0.978300
-0.412600 0.950700
-0.395300 0.941800
-0.378100 0.944500
-0.360800 0.958800
-0.343500 0.974500
-0.326300 0.993100
-0.309000 1.011200
-0.291700 1.029300
-0.274500 1.058400
-0.257200 1.130100
-0.239900 1.445800
-0.222700 1.841900
-0.205400 2.554100
-0.188100 2.596200
-0.170900 2.346100
-0.153600 1.058800
-0.136300 0.636500
-0.119100 0.530900
-0.101800 0.179000
-0.084500 0.234300
-0.067300 0.419200
-0.050000 0.411300
-0.032700 0.419900
-0.015400 0.530900
0.001800 0.544700
0.019100 0.575600
0.036400 0.633300
0.053600 0.683700
0.070900 0.746100
0.088200 0.787900
0.105400 0.841800
0.122700 0.894200
0.140000 0.952100
0.157200 1.015500
0.174500 1.072100
0.191800 1.117500
0.209000 1.176600
0.226300 1.264100
0.243600 1.365400
0.260800 1.447500
0.278100 1.684400
0.295400 1.821400
0.312600 1.962500
0.329900 2.077800
0.347200 2.253200
0.364400 2.524600
0.381700 3.004700
0.399000 3.248600
0.416200 3.344600
0.433500 3.570600
0.450800 3.752100
0.468100 3.909000
0.485300 4.074600
0.502600 4.248200
0.519900 4.490300
0.537100 4.838600
0.554400 5.382100
0.571700 4.851300
0.588900 4.892500
0.606200 4.791800
0.623500 4.612100
0.640700 4.448300
0.658000 4.288200
0.675300 4.232600
0.692500 4.299400
0.709800 4.328400
0.727100 4.316100
0.744300 4.386100
0.761600 4.540800
0.778900 4.492800
0.796100 4.654400
0.813400 4.635000
0.830700 4.579800
0.847900 4.513300
0.865200 4.472400
0.882500 4.380700
0.899700 4.278200
0.917000 4.202100
0.934300 4.171200
0.951600 4.182000
0.968800 4.278100
0.986100 4.505700
1.003400 4.704200
1.020600 4.342800
1.037900 4.159900
1.055200 3.990100
1.072400 3.983200
1.089700 4.029600
1.107000 4.366700
1.124200 4.624100
1.141500 4.006900
1.158800 4.036300
1.176000 4.078800
1.193300 3.964600
1.210600 4.036000
1.227800 4.135100
1.245100 4.297200
1.262400 4.544800
1.279600 4.365700
1.296900 4.083000
1.314200 3.658000
1.331400 3.552700
1.348700 3.461200
1.366000 3.403100
1.383200 3.322000
1.400500 3.242000
1.417800 3.100400
1.435100 2.973900
1.452300 2.881300
1.469600 2.803600
1.486900 2.726700
1.504100 2.680500
1.521400 2.648000
1.538700 2.658100
1.555900 2.679000
1.573200 2.929700
1.590500 2.625800
1.607700 2.636500
1.625000 2.830000
1.642300 3.432600
1.659500 4.397600
1.676800 3.977000
1.694100 3.867000
1.711300 4.009900
1.728600 4.405800
1.745900 4.965500
1.763100 5.787700
1.780400 6.583700
1.797700 6.807100
1.814900 7.208300
1.832200 7.080500
1.849500 6.514600
1.866700 6.275900
1.884000 5.943000
1.901300 5.701500
1.918600 5.558400
1.935800 6.173000
1.953100 6.723100
1.970400 6.861400
1.987600 6.802700
2.004900 6.564600
2.022200 5.993800
2.039400 6.679900
2.056700 5.537900
2.074000 5.006000
2.091200 4.474700
2.108500 4.686700
2.125800 4.087900
2.143000 3.780500
2.160300 3.453200
2.177600 3.060300
2.194800 2.858600
2.212100 2.724100
2.229400 2.608800
2.246600 2.498100
2.263900 2.434800
2.281200 2.527400
2.298400 2.419300
2.315700 2.444100
2.333000 2.356500
2.350200 2.048000
2.367500 1.730800
2.384800 1.516700
2.402100 1.253300
2.419300 1.209000
2.436600 1.166100
2.453900 1.139900
2.471100 1.114800
2.488400 1.091000
2.505700 1.070300
2.522900 1.049000
2.540200 1.026700
2.557500 1.013900
2.574700 0.998900
2.592000 0.985500
2.609300 0.975100
2.626500 0.965700
2.643800 0.956500
2.661100 0.946100
2.678300 0.935500
2.695600 0.925200
2.712900 0.914900
2.730100 0.904000
2.747400 0.902500
2.764700 0.891000
2.781900 0.880500
2.799200 0.871600
2.816500 0.864100
2.833700 0.855900
2.851000 0.832100
2.868300 0.826300
2.885600 0.826000
2.902800 0.815100
2.920100 0.791200
2.937400 0.795500
2.954600 0.767500
2.971900 0.753400
2.989200 0.877700
3.006400 0.553800
3.023700 0.549800
3.041000 0.545800
3.058200 0.542200
3.075500 0.538500
3.092800 0.535900
3.110000 0.533200
3.127300 0.534300
3.144600 0.532000
3.161800 0.531300
3.179100 0.531300
3.196400 0.531500
3.213600 0.532000
3.230900 0.534200
3.248200 0.533100
3.265400 0.531900
3.282700 0.530700
3.300000 0.529200
3.317200 0.527800
3.334500 0.526200
3.351800 0.518700
3.369100 0.517000
3.386300 0.515400
3.403600 0.514100
3.420900 0.512800
3.438100 0.511800
3.455400 0.510700
3.472700 0.509600
3.489900 0.508300
3.507200 0.506600
3.524500 0.505700
3.541700 0.504700
3.559000 0.503600
3.576300 0.502500
3.593500 0.499700
3.610800 0.496800
3.628100 0.499500
3.645300 0.498600
3.662600 0.498200
3.679900 0.497700
3.697100 0.497100
3.714400 0.496500
3.731700 0.495800
3.748900 0.495500
3.766200 0.495200
3.783500 0.495100
3.800700 0.496200
3.818000 0.497600
3.835300 0.503500
3.852600 0.506000
3.869800 0.508700
3.887100 0.511500
3.904400 0.511400
3.921600 0.514400
3.938900 0.520200
3.956200 0.535600
3.973400 0.546200
3.990700 0.557500
4.008000 0.571100
4.025200 0.613800
4.042500 0.651600
4.059800 0.767300
4.077000 0.968300
4.094300 0.844200
4.111600 0.787000
4.128800 0.803300
4.146100 0.800200
4.163400 0.802700
4.180600 0.801700
4.197900 0.811600
4.215200 0.815200
4.232400 0.812000
4.249700 0.823300
4.267000 0.890600
4.284200 0.814800
4.301500 0.808900
4.318800 0.799700
4.336100 0.797800
4.353300 0.789400
4.370600 0.775200
4.387900 0.760200
4.405100 0.751200
4.422400 0.742600
4.439700 0.733400
4.456900 0.725100
4.474200 0.714700
4.491500 0.707600
4.508700 0.700200
4.526000 0.696000
4.543300 0.692100
4.560500 0.688300
4.577800 0.684200
4.595100 0.680700
4.612300 0.677200
4.629600 0.673800
4.646900 0.670200
4.664100 0.666600
4.681400 0.663000
4.698700 0.659200
4.715900 0.655500
4.733200 0.652700
4.750500 0.650400
4.767700 0.648100
4.785000 0.645800
4.802300 0.643500
4.819600 0.641200
4.836800 0.638800
4.854100 0.636500
4.871400 0.634100
4.888600 0.631700
4.905900 0.629400
4.923200 0.624100
4.940400 0.620700
4.957700 0.616100
4.975000 0.612200
4.992200 0.609200
5.009500 0.606000
5.026800 0.602700
5.044000 0.599500
5.061300 0.596800
5.078600 0.593800
5.095800 0.590800
5.113100 0.587600
5.130400 0.584400
5.147600 0.581500
5.164900 0.578500
5.182200 0.575400
5.199400 0.572600
5.216700 0.570000
5.234000 0.567400
5.251200 0.564800
5.268500 0.562300
5.285800 0.559800
5.303100 0.557300
5.320300 0.554800
5.337600 0.552400
5.354900 0.549900
5.372100 0.547500
5.389400 0.545000
5.406700 0.542600
5.423900 0.540100
5.441200 0.537000
5.458500 0.534500
5.475700 0.532200
5.493000 0.529600
5.510300 0.527200
5.527500 0.524900
5.544800 0.522800
5.562100 0.520400
5.579300 0.518000
5.596600 0.515600
5.613900 0.513500
5.631100 0.511200
5.648400 0.508900
5.665700 0.506900
5.682900 0.505100
5.700200 0.503400
5.717500 0.499900
5.734700 0.497400
5.752000 0.495000
5.769300 0.492600
5.786600 0.490100
5.803800 0.487600
5.821100 0.485100
5.838400 0.484000
5.855600 0.483200
5.872900 0.482600
5.890200 0.482400
5.907400 0.482600
5.924700 0.480000
5.942000 0.475900
5.959200 0.471100
5.976500 0.468300
5.993800 0.465900
6.011000 0.463100
6.028300 0.459900
6.045600 0.456600
6.062800 0.453700
6.080100 0.450900
6.097400 0.448300
6.114600 0.446000
6.131900 0.443900
6.149200 0.441500
6.166400 0.439100
6.183700 0.436800
6.201000 0.434500
6.218200 0.432100
6.235500 0.429800
6.252800 0.427500
6.270100 0.424900
6.287300 0.422400
6.304600 0.419900
6.321900 0.417500
6.339100 0.415100
6.356400 0.412900
6.373700 0.410700
6.390900 0.408700
6.408200 0.406600
6.425500 0.404300
6.442700 0.402400
6.460000 0.400500
6.477300 0.398700
6.494500 0.397000
6.511800 0.399900
6.529100 0.398400
6.546300 0.396800
6.563600 0.395300
6.580900 0.393700
6.598100 0.389800
6.615400 0.388200
6.632700 0.386600
6.649900 0.385100
6.667200 0.383600
6.684500 0.382900
6.701700 0.381600
6.719000 0.380400
6.736300 0.518900
6.753600 0.477300
6.770800 0.468500
6.788100 0.477800
6.805400 0.483300
6.822600 0.489300
6.839900 0.486100
6.857200 0.492400
6.874400 0.498800
6.891700 0.505200
6.909000 0.511600
6.926200 0.525200
6.943500 0.547800
6.960800 0.581900
6.978000 0.619700
6.995300 0.639100
7.012600 0.636000
7.029800 0.622600
7.047100 0.625200
7.064400 0.649100
7.081600 0.661200
7.098900 0.665800
7.116200 0.671200
7.133400 0.670300
7.150700 0.671700
7.168000 0.672800
7.185200 0.677700
7.202500 0.682100
7.219800 0.676600
7.237100 0.678800
7.254300 0.678900
7.271600 0.677600
7.288900 0.677500
7.306100 0.674400
7.323400 0.670900
7.340700 0.667700
7.357900 0.664100
7.375200 0.660300
7.392500 0.712900
7.409700 0.717500
7.427000 0.684600
7.444300 0.685600
7.461500 0.687100
7.478800 0.678500
7.496100 0.678100
7.513300 0.672400
7.530600 0.670100
7.547900 0.669500
7.565100 0.665100
7.582400 0.665100
7.599700 0.666000
7.616900 0.667800
7.634200 0.668400
7.651500 0.669400
7.668700 0.670900
7.686000 0.672600
7.703300 0.681200
7.720600 0.679700
7.737800 0.677800
7.755100 0.676700
7.772400 0.675700
7.789600 0.674500
7.806900 0.673300
7.824200 0.673200
7.841400 0.663100
7.858700 0.663600
7.876000 0.660900
7.893200 0.657900
7.910500 0.671300
7.927800 0.671900
7.945000 0.672600
7.962300 0.683700
7.979600 0.679800
7.996800 0.682400
8.014100 0.683100
8.031400 0.684600
8.048600 0.686400
8.065900 0.689700
8.083200 0.693500
8.100400 0.698200
8.117700 0.704100
8.135000 0.710400
8.152200 0.717900
8.169500 0.724900
8.186800 0.733700
8.204100 0.743500
8.221300 0.751200
8.238600 0.759100
8.255900 0.765700
8.273100 0.774900
8.290400 0.780000
8.307700 0.752100
8.324900 0.743500
8.342200 0.743900
8.359500 0.749300
8.376700 0.753000
8.394000 0.744400
8.411300 0.749800
8.428500 0.751300
8.445800 0.734000
8.463100 0.728700
8.480300 0.724000
8.497600 0.720400
8.514900 0.713300
8.532100 0.709300
8.549400 0.705600
8.566700 0.703500
8.583900 0.704600
8.601200 0.707400
8.618500 0.711800
8.635700 0.720500
8.653000 0.727200
8.670300 0.730100
8.687600 0.723700
8.704800 0.711900
8.722100 0.715500
8.739400 0.720700
8.756600 0.727100
8.773900 0.729800
8.791200 0.735900
8.808400 0.740900
8.825700 0.742800
8.843000 0.742500
8.860200 0.740700
8.877500 0.734300
8.894800 0.718700
8.912000 0.723600
8.929300 0.728500
8.946600 0.733600
8.963800 0.738900
8.981100 0.744200
8.998400 0.749400
9.015600 0.774400
9.032900 0.772400
9.050200 0.766300
9.067400 0.746500
9.084700 0.747300
9.102000 0.748100
9.119200 0.749200
9.136500 0.784900
9.153800 0.775000
9.171100 0.784700
9.188300 0.784000
9.205600 0.783100
9.222900 0.787600
9.240100 0.789600
9.257400 0.791900
9.274700 0.782500
9.291900 0.778500
9.309200 0.762400
9.326500 0.766700
9.343700 0.766400
9.361000 0.766600
9.378300 0.773700
9.395500 0.773300
9.412800 0.779600
9.430100 0.765700
9.447300 0.761900
9.464600 0.757800
9.481900 0.757200
9.499100 0.758400
9.516400 0.759300
9.533700 0.761400
9.550900 0.757800
9.568200 0.754500
9.585500 0.752200
9.602700 0.750500
9.620000 0.749200
9.637300 0.749800
9.654600 0.763600
9.671800 0.760100
9.689100 0.762700
9.706400 0.767000
9.723600 0.745400
9.740900 0.746200
9.758200 0.747600
9.775400 0.749800
9.792700 0.751800
9.810000 0.754300
9.827200 0.756300
9.844500 0.758200
9.861800 0.763300
9.879000 0.766600
9.896300 0.751400
9.913600 0.736900
9.930800 0.732300
9.948100 0.732500
9.965400 0.733400
9.982600 0.735400
9.999900 0.743100
10.017200 0.728400
10.034400 0.725300
10.051700 0.725000
10.069000 0.725000
10.086200 0.725100
10.103500 0.725000
10.120800 0.730400
10.138100 0.728600
10.155300 0.730000
10.172600 0.728600
10.189900 0.727500
10.207100 0.726500
10.224400 0.726200
10.241700 0.726100
10.258900 0.722900
10.276200 0.723500
10.293500 0.726200
10.310700 0.735200
10.328000 0.741700
10.345300 0.746000
10.362500 0.747000
10.379800 0.743600
10.397100 0.739000
10.414300 0.736200
10.431600 0.735200
10.448900 0.734200
10.466100 0.743100
10.483400 0.752600
10.500700 0.735900
10.517900 0.735500
10.535200 0.735200
10.552500 0.734500
10.569700 0.735300
10.587000 0.737000
10.604300 0.739600
10.621600 0.741500
10.638800 0.742500
10.656100 0.743900
10.673400 0.746600
10.690600 0.748200
10.707900 0.749500
10.725200 0.750800
10.742400 0.752200
10.759700 0.753800
10.777000 0.748800
10.794200 0.751500
10.811500 0.753700
10.828800 0.755300
10.846000 0.757000
10.863300 0.758900
10.880600 0.760400
10.897800 0.766100
10.915100 0.771800
10.932400 0.772700
10.949600 0.766800
10.966900 0.767500
10.984200 0.768200
11.001400 0.769000
11.018700 0.766600
11.036000 0.764000
11.053200 0.761300
11.070500 0.770600
11.087800 0.773700
11.105100 0.772000
11.122300 0.770900
11.139600 0.770300
11.156900 0.770100
11.174100 0.770900
11.191400 0.772800
11.208700 0.774800
11.225900 0.776600
11.243200 0.787900
11.260500 0.790500
11.277700 0.792200
11.295000 0.791200
11.312300 0.791100
11.329500 0.792500
11.346800 0.793300
11.364100 0.793400
11.381300 0.793700
11.398600 0.793700
11.415900 0.793700
11.433100 0.793300
11.450400 0.794600
11.467700 0.796400
11.484900 0.798600
11.502200 0.800900
11.519500 0.802000
11.536700 0.803500
11.554000 0.805300
11.571300 0.812400
11.588600 0.814400
11.605800 0.816700
11.623100 0.819300
11.640400 0.813100
11.657600 0.816300
11.674900 0.819700
11.692200 0.822900
11.709400 0.826300
11.726700 0.826200
11.744000 0.828700
11.761200 0.830900
11.778500 0.832300
11.795800 0.834000
11.813000 0.841800
11.830300 0.847200
11.847600 0.849800
11.864800 0.851800
11.882100 0.851800
11.899400 0.850700
11.916600 0.852800
11.933900 0.854600
11.951200 0.858500
11.968400 0.856200
11.985700 0.855500
12.003000 0.855800
12.020200 0.872500
12.037500 0.875300
12.054800 0.878700
12.072100 0.882400
12.089300 0.882500
12.106600 0.884300
12.123900 0.872300
12.141100 0.880700
12.158400 0.879800
12.175700 0.876400
12.192900 0.872200
12.210200 0.869400
12.227500 0.868600
12.244700 0.869000
12.262000 0.868500
12.279300 0.874200
12.296500 0.893600
12.313800 0.897800
12.331100 0.901900
12.348300 0.904500
12.365600 0.901100
12.382900 0.896900
12.400100 0.895300
12.417400 0.896400
12.434700 0.904000
12.451900 0.913400
12.469200 0.916000
12.486500 0.924000
12.503700 0.935200
12.521000 0.934100
12.538300 0.935800
12.555600 0.958600
12.572800 0.964400
12.590100 0.970800
12.607400 0.963200
12.624600 0.962700
12.641900 0.956600
12.659200 0.955900
12.676400 0.957000
12.693700 0.956900
12.711000 0.958600
12.728200 0.960900
12.745500 0.961600
12.762800 0.961400
12.780000 0.962000
12.797300 0.968200
12.814600 0.961300
12.831800 0.971200
12.849100 0.980900
12.866400 0.981300
12.883600 0.986100
12.900900 0.993800
12.918200 1.000200
12.935400 0.995100
12.952700 0.992600
12.970000 0.990700
12.987200 0.990300
13.004500 0.992300
13.021800 0.995100
13.039100 0.998100
13.056300 1.002500
13.073600 1.004800
13.090900 1.008900
13.108100 1.014000
13.125400 1.019200
13.142700 1.023800
13.159900 1.027500
13.177200 1.029600
13.194500 1.031400
13.211700 1.033400
13.229000 1.038500
13.246300 1.040900
13.263500 1.043400
13.280800 1.045800
13.298100 1.048500
13.315300 1.051200
13.332600 1.062500
13.349900 1.060000
13.367100 1.126100
13.384400 1.149900
13.401700 1.101600
13.418900 1.096500
13.436200 1.079200
13.453500 1.048100
13.470700 1.038800
13.488000 1.033900
13.505300 1.029800
13.522600 1.047400
13.539800 1.042500
13.557100 1.033500
13.574400 0.992700
13.591600 0.993700
13.608900 0.987500
13.626200 0.978100
13.643400 0.974000
13.660700 0.966600
13.678000 0.960300
13.695200 0.955200
13.712500 0.958500
13.729800 0.963800
13.747000 0.975900
13.764300 0.944900
13.781600 0.929000
13.798800 0.908600
13.816100 0.908300
13.833400 0.907500
13.850600 0.906600
13.867900 0.905800
13.885200 0.905300
13.902400 0.905500
13.919700 0.906200
13.937000 0.906100
13.954200 0.905800
13.971500 0.905000
13.988800 0.903800
14.006100 0.902500
14.023300 0.901000
14.040600 0.899700
14.057900 0.906700
14.075100 0.910900
14.092400 0.917500
14.109700 0.980400
14.126900 1.008800
14.144200 1.093700
14.161500 0.997800
14.178700 1.005900
14.196000 1.013400
14.213300 1.020300
14.230500 1.022100
14.247800 1.024300
14.265100 1.029500
14.282300 1.013600
14.299600 1.003900
14.316900 0.991400
14.334100 0.985500
14.351400 0.978900
14.368700 0.972500
14.385900 0.970000
14.403200 0.965300
14.420500 0.960600
14.437700 0.958000
14.455000 1.000300
14.472300 1.007400
14.489600 0.989500
14.506800 0.987100
14.524100 0.985000
14.541400 0.984000
14.558600 0.991700
14.575900 0.989600
14.593200 0.987900
14.610400 1.009300
14.627700 0.996100
14.645000 0.978400
14.662200 0.964600
14.679500 0.963800
14.696800 0.967200
14.714000 0.972200
14.731300 0.979700
14.748600 1.001200
14.765800 0.991500
14.783100 0.987100
14.800400 0.978800
14.817600 0.990200
14.834900 1.000300
14.852200 1.009200
14.869400 1.025600
14.886700 1.052500
14.904000 1.055600
14.921200 1.057500
14.938500 0.992600
14.955800 0.990200
14.973100 0.987300
14.990300 0.983200
15.007600 0.979000
15.024900 0.975800
15.042100 0.972000
15.059400 0.968200
15.076700 0.966800
15.093900 0.967200
15.111200 0.968900
15.128500 0.971500
15.145700 0.974200
15.163000 0.976900
15.180300 1.007900
15.197500 1.016000
15.214800 1.021200
15.232100 1.012100
15.249300 1.006500
15.266600 0.989200
15.283900 0.969900
15.301100 0.958400
15.318400 0.949700
15.335700 0.943400
15.352900 0.968000
15.370200 0.980600
15.387500 0.977500
15.404700 0.971700
15.422000 0.970900
15.439300 0.971400
15.456600 0.971300
15.473800 0.967900
15.491100 0.970500
15.508400 0.972600
15.525600 0.975700
15.542900 0.976800
15.560200 0.976800
15.577400 0.976200
15.594700 0.974900
15.612000 1.041300
15.629200 1.016900
15.646500 1.018100
15.663800 1.021200
15.681000 1.027000
15.698300 1.033700
15.715600 1.041000
15.732800 1.047400
15.750100 1.065800
15.767400 1.088400
15.784600 1.158800
15.801900 1.176300
15.819200 1.169800
15.836400 1.223200
15.853700 1.134100
15.871000 1.071100
15.888200 1.053100
15.905500 1.041200
15.922800 1.019700
15.940100 1.011800
15.957300 1.006400
15.974600 1.001600
15.991900 1.001200
16.009100 1.002300
16.026400 1.024300
16.043700 1.021700
16.060900 1.015300
16.078200 1.007200
16.095500 0.982400
16.112700 0.979300
16.130000 0.977600
16.147300 0.976700
16.164500 0.976800
16.181800 0.976600
16.199100 0.977700
16.216300 0.980400
16.233600 0.986400
16.250900 0.989900
16.268100 0.993500
16.285400 0.996900
16.302700 1.000700
16.319900 1.004800
16.337200 1.008700
16.354500 1.009600
16.371700 1.007000
16.389000 0.994500
16.406300 0.990200
16.423600 0.987900
16.440800 0.984200
16.458100 0.980500
16.475400 0.978600
16.492600 0.976700
16.509900 0.974600
16.527200 0.972400
16.544400 0.970100
16.561700 0.967400
16.579000 0.964400
16.596200 0.961700
16.613500 0.959000
16.630800 0.956600
16.648000 0.953700
16.665300 0.951500
16.682600 0.949700
16.699800 0.948500
16.717100 0.946200
16.734400 1.038600
16.751600 0.957900
16.768900 0.952600
16.786200 0.949200
16.803400 0.946300
16.820700 0.943300
16.838000 0.941600
16.855200 0.940600
16.872500 0.939200
16.889800 0.937600
16.907100 0.936100
16.924300 0.935000
16.941600 0.933900
16.958900 0.932900
16.976100 0.931600
16.993400 0.930200
17.010700 0.929100
17.027900 0.928400
17.045200 0.931000
17.062500 0.935300
17.079700 0.939400
17.097000 0.941900
17.114300 0.942300
17.131500 0.941700
17.148800 0.940200
17.166100 0.938600
17.183300 0.937300
17.200600 0.938100
17.217900 0.939300
17.235100 0.941700
17.252400 0.960800
17.269700 0.965100
17.286900 0.969100
17.304200 0.973700
17.321500 0.979300
17.338700 0.971200
17.356000 0.974100
17.373300 0.976000
17.390600 0.977800
17.407800 0.979500
17.425100 0.980200
17.442400 0.981800
17.459600 0.987800
17.476900 0.990900
17.494200 0.993300
17.511400 0.994300
17.528700 0.993400
17.546000 1.023400
17.563200 1.030900
17.580500 0.992100
17.597800 0.995500
17.615000 0.999600
17.632300 1.003300
17.649600 1.006600
17.666800 1.010400
17.684100 1.021000
17.701400 1.042200
17.718600 1.057300
17.735900 1.060600
17.753200 1.067100
17.770400 1.068900
17.787700 1.072200
17.805000 1.086200
17.822200 1.111800
17.839500 1.112100
17.856800 1.069600
17.874100 1.076200
17.891300 1.097100
17.908600 1.101000
17.925900 1.052300
17.943100 1.028200
17.960400 1.033100
17.977700 1.037700
17.994900 1.044400
18.012200 1.062500
18.029500 1.075200
18.046700 1.086400
18.064000 1.126400
18.081300 1.131500
18.098500 1.146100
18.115800 1.147500
18.133100 1.196300
18.150300 1.217700
18.167600 1.235500
18.184900 1.245000
18.202100 1.267800
18.219400 1.303300
18.236700 1.101000
18.253900 1.001700
18.271200 1.071900
18.288500 1.100700
18.305700 1.183200
18.323000 1.161200
18.340300 1.194800
18.357600 1.220300
18.374800 1.320900
18.392100 1.223400
18.409400 1.194300
18.426600 1.159200
18.443900 1.165600
18.461200 1.188300
18.478400 1.176500
18.495700 1.180400
18.513000 1.172200
18.530200 1.165700
18.547500 1.173300
18.564800 1.186500
18.582000 1.204600
18.599300 1.210800
18.616600 1.210300
18.633800 1.226800
18.651100 1.227700
18.668400 1.231700
18.685600 1.206500
18.702900 1.215500
18.720200 1.226400
18.737400 1.269400
18.754700 1.295500
18.772000 1.251900
18.789200 1.186600
18.806500 1.176900
18.823800 1.167500
18.841100 1.157400
18.858300 1.145300
18.875600 1.136800
18.892900 1.130800
18.910100 1.124300
18.927400 1.060200
18.944700 1.033900
18.961900 1.016700
18.979200 0.998800
18.996500 0.984500
19.013700 0.969900
19.031000 0.971400
19.048300 0.948500
19.065500 0.926500
19.082800 0.909200
19.100100 0.897100
19.117300 0.890500
19.134600 0.912600
19.151900 0.913400
19.169100 0.912000
19.186400 0.913800
19.203700 0.913400
19.220900 0.905300
19.238200 0.891400
19.255500 0.858500
19.272700 0.901400
19.290000 0.898300
19.307300 0.883200
19.324600 0.864200
19.341800 0.859900
19.359100 0.865100
19.376400 0.875700
19.393600 0.889600
19.410900 0.904400
19.428200 0.921100
19.445400 0.933700
19.462700 0.944400
19.480000 0.963900
19.497200 0.986200
19.514500 1.012200
19.531800 1.009500
19.549000 1.014900
19.566300 1.006200
19.583600 0.999900
19.600800 0.994900
19.618100 0.995900
19.635400 1.031100
19.652600 1.038900
19.669900 1.031000
19.687200 1.026900
19.704400 1.007800
19.721700 0.995800
19.739000 0.989900
19.756200 0.985200
19.773500 0.981200
19.790800 0.977600
19.808100 0.976100
19.825300 0.979400
19.842600 1.001700
19.859900 1.042200
19.877100 1.060600
19.894400 1.079000
19.911700 1.071100
19.928900 1.061700
19.946200 1.057000
19.963500 1.048500
19.980700 1.048300
19.998000 1.055600
20.015300 1.057400
20.032500 1.082600
20.049800 1.093100
20.067100 1.086100
20.084300 1.078900
20.101600 1.065000
20.118900 1.060400
20.136100 1.039400
20.153400 1.027200
20.170700 1.034500
20.187900 1.041300
20.205200 1.049200
20.222500 1.046000
20.239700 1.042200
20.257000 1.064300
20.274300 1.057900
20.291600 0.974900
20.308800 0.968300
20.326100 0.983000
20.343400 0.959700
20.360600 0.985400
20.377900 0.988900
20.395200 0.962100
20.412400 0.976900
20.429700 0.990200
20.447000 1.133900
20.464200 1.103500
20.481500 1.087200
20.498800 1.114800
20.516000 1.134800
20.533300 1.156800
20.550600 1.177500
20.567800 1.191300
20.585100 1.193400
20.602400 1.212900
20.619600 1.216700
20.636900 1.236700
20.654200 1.267300
20.671400 1.333300
20.688700 1.351000
20.706000 1.418100
20.723200 1.435200
20.740500 1.445900
20.757800 1.482200
20.775100 1.603800
20.792300 1.880600
20.809600 1.688600
20.826900 1.629600
20.844100 1.607200
20.861400 1.585000
20.878700 1.564000
20.895900 1.548400
20.913200 1.530200
20.930500 1.516300
20.947700 1.504900
20.965000 1.493300
20.982300 1.463200
20.999500 1.441200
21.016800 1.428200
21.034100 1.417700
21.051300 1.403900
21.068600 1.372900
21.085900 1.354600
21.103100 1.341200
21.120400 1.331200
21.137700 1.324900
21.154900 1.318500
21.172200 1.364500
21.189500 1.348500
21.206700 1.336700
21.224000 1.323200
21.241300 1.314700
21.258600 1.308100
21.275800 1.298500
21.293100 1.288300
21.310400 1.279700
21.327600 1.271200
21.344900 1.265100
21.362200 1.260300
21.379400 1.248300
21.396700 1.242300
21.414000 1.224100
21.431200 1.219300
21.448500 1.214900
21.465800 1.211100
21.483000 1.208200
21.500300 1.205700
21.517600 1.208200
21.534800 1.212400
21.552100 1.210200
21.569400 1.210200
21.586600 1.217200
21.603900 1.207300
21.621200 1.212000
21.638400 1.211900
21.655700 1.206800
21.673000 1.203500
21.690200 1.192800
21.707500 1.189000
21.724800 1.188100
21.742100 1.185300
21.759300 1.182900
21.776600 1.181800
21.793900 1.181000
21.811100 1.181100
21.828400 1.182500
21.845700 1.185400
21.862900 1.189600
21.880200 1.191800
21.897500 1.200200
21.914700 1.215500
21.932000 1.193500
21.949300 1.171500
21.966500 1.195700
21.983800 1.201500
22.001100 1.172100
22.018300 1.160500
22.035600 1.151700
22.052900 1.145000
22.070100 1.138800
22.087400 1.133000
22.104700 1.136400
22.121900 1.136700
22.139200 1.135500
22.156500 1.133400
22.173700 1.116800
22.191000 1.115800
22.208300 1.099300
22.225600 1.091200
22.242800 1.089900
22.260100 1.089800
22.277400 1.104100
22.294600 1.067300
22.311900 1.035600
22.329200 1.016600
22.346400 0.999700
22.363700 0.984400
22.381000 0.969600
22.398200 0.955600
22.415500 0.942400
22.432800 0.931700
22.450000 0.925000
22.467300 0.918100
22.484600 0.912000
22.501800 0.908000
22.519100 0.899600
22.536400 0.896300
22.553600 0.886900
22.570900 0.886700
22.588200 0.887100
22.605400 0.888300
22.622700 0.885600
22.640000 0.885900
22.657200 0.882000
22.674500 0.889900
22.691800 0.888100
22.709100 0.886800
22.726300 0.882000
22.743600 0.873800
22.760900 0.954000
22.778100 0.876000
22.795400 0.847500
22.812700 0.832900
22.829900 0.822200
22.847200 0.812100
22.864500 0.802300
22.881700 0.792400
22.899000 0.781300
22.916300 0.779400
22.933500 0.772700
22.950800 0.754600
22.968100 0.737100
22.985300 0.723600
23.002600 0.715000
23.019900 0.697700
23.037100 0.702400
23.054400 0.717700
23.071700 0.715400
23.088900 0.713400
23.106200 0.713300
23.123500 0.705600
23.140700 0.698900
23.158000 0.693000
23.175300 0.721800
23.192600 0.706900
23.209800 0.707300
23.227100 0.683500
23.244400 0.632100
23.261600 0.612300
23.278900 0.559900
23.296200 0.548800
23.313400 0.544600
23.330700 0.541200
23.348000 0.529200
23.365200 0.534300
23.382500 0.539400
23.399800 0.541500
23.417000 0.543900
23.434300 0.545000
23.451600 0.547000
23.468800 0.551200
23.486100 0.579100
23.503400 0.590100
23.520600 0.602600
23.537900 0.613900
23.555200 0.623400
23.572400 0.630800
23.589700 0.637700
23.607000 0.632200
23.624200 0.633600
23.641500 0.643300
23.658800 0.645300
23.676100 0.654200
23.693300 0.688800
23.710600 0.624100
23.727900 0.621000
23.745100 0.616900
23.762400 0.612400
23.779700 0.608900
23.796900 0.606400
23.814200 0.612300
23.831500 0.638700
23.848700 0.606700
23.866000 0.540800
23.883300 0.491500
23.900500 0.472300
23.917800 0.459900
23.935100 0.447000
23.952300 0.433400
23.969600 0.423000
23.986900 0.413900
24.004100 0.406800
24.021400 0.395400
24.038700 0.386000
24.055900 0.378200
24.073200 0.373000
24.090500 0.366400
24.107700 0.359400
24.125000 0.352400
24.142300 0.350800
24.159600 0.344800
24.176800 0.337500
24.194100 0.330400
24.211400 0.323500
24.228600 0.316600
24.245900 0.309900
24.263200 0.302700
24.280400 0.293000
24.297700 0.283600
24.315000 0.266700
24.332200 0.260400
24.349500 0.254300
24.366800 0.247900
24.384000 0.241400
24.401300 0.234700
24.418600 0.228200
24.435800 0.221900
24.453100 0.215900
24.470400 0.209900
24.487600 0.203900
24.504900 0.197900
24.522200 0.192200
24.539400 0.189000
24.556700 0.186700
24.574000 0.184900
24.591200 0.183100
24.608500 0.181400
24.625800 0.179700
24.643100 0.178000
24.660300 0.176300
24.677600 0.174700
24.694900 0.173000
24.712100 0.171400
24.729400 0.169900
24.746700 0.168300
24.763900 0.166700
24.781200 0.165300
24.798500 0.163700
24.815700 0.162200
24.833000 0.160800
24.850300 0.159300
24.867500 0.158000
24.884800 0.156700
24.902100 0.155400
24.919300 0.154200
24.936600 0.153000
24.953900 0.151900
24.971100 0.150800
24.988400 0.148600
25.005700 0.147700
25.022900 0.146700
25.040200 0.146000
25.057500 0.145800
25.074700 0.145300
25.092000 0.144800
25.109300 0.144300
25.126600 0.143800
25.143800 0.143300
25.161100 0.142800
25.178400 0.142100
25.195600 0.141600
25.212900 0.141100
25.230200 0.140400
25.247400 0.139700
25.264700 0.138900
25.282000 0.138000
25.299200 0.137100
25.316500 0.136200
25.333800 0.135300
25.351000 0.134500
25.368300 0.133600
25.385600 0.132700
25.402800 0.131800
25.420100 0.130900
25.437400 0.130100
25.454600 0.129200
25.471900 0.128400
25.489200 0.127900
25.506400 0.128100
25.523700 0.128500
25.541000 0.130500
25.558300 0.131700
25.575500 0.132900
25.592800 0.134300
25.610100 0.135800
25.627300 0.137400
25.644600 0.139100
25.661900 0.140700
25.679100 0.142000
25.696400 0.146400
25.713700 0.152300
25.730900 0.160000
25.748200 0.170100
25.765500 0.182800
25.782700 0.410500
25.800000 0.469600
25.817300 0.529300
25.834500 0.467300
25.851800 0.153000
25.869100 0.094900
25.886300 0.049000
25.903600 0.000000
25.920900 0.000000
25.938100 0.000000
25.955400 0.000000
25.972700 0.000000
25.989900 0.000000
26.007200 0.000000
26.024500 0.000000
26.041800 0.000000
26.059000 0.000000
26.076300 0.000000
26.093600 0.000000
26.110800 0.000000
26.128100 0.000000
26.145400 0.000000
26.162600 0.000000
26.179900 0.000000
26.197200 0.000000
26.214400 0.000000
26.231700 0.000000
26.249000 0.000000
26.266200 0.000000
26.283500 0.000000
26.300800 0.000000
26.318000 0.000000
26.335300 0.000000
26.352600 0.000000
26.369800 0.000000
26.387100 0.000000
26.404400 0.000000
26.421600 0.000000
26.438900 0.000000
26.456200 0.000000
26.473400 0.000000
26.490700 0.000000
26.508000 0.000000
26.525300 0.000000
26.542500 0.000000
26.559800 0.000000
26.577100 0.000000
26.594300 0.000000
26.611600 0.000000
26.628900 0.000000
26.646100 0.000000
26.663400 0.000000
26.680700 0.000000
26.697900 0.000000
26.715200 0.000000
26.732500 0.000000
26.749700 0.000000
26.767000 0.000000
26.784300 0.000000
26.801500 0.000000
26.818800 0.000000
26.836100 0.000000
26.853300 0.000000
26.870600 0.000000
26.887900 0.000000
26.905100 0.000000
26.922400 0.000000
26.939700 0.000000
26.956900 0.000000
26.974200 0.000000
26.991500 0.000000
27.008800 0.000000
27.026000 0.000000
27.043300 0.000000
27.060600 0.000000
27.077800 0.000000
27.095100 0.000000
27.112400 0.000000
27.129600 0.000000
27.146900 0.000000
27.164200 0.000000
27.181400 0.000000
27.198700 0.000000
27.216000 0.000000
27.233200 0.000000
27.250500 0.000000
27.267800 0.000000
27.285000 0.000000
27.302300 0.000000
27.319600 0.000000
27.336800 0.000000
27.354100 0.000000
27.371400 0.000000
27.388600 0.000000
27.405900 0.000000
27.423200 0.000000
27.440400 0.000000
27.457700 0.000000
e
