set title 'mp-568867 - Density of States'
set xlabel 'Energy (eV)'
set ylabel 'DOS (states/eV)'
set grid
set xrange [-10:10]
set yrange [0:30.975]
set xzeroaxis lt -1
set terminal png size 800,600
set output 'mp-568867_dos_gnuplot.png'
plot '-' using 1:2 with lines title 'DOS'
-16.624000 0.000000
-16.603900 0.000000
-16.583800 0.000000
-16.563600 0.000000
-16.543500 0.000000
-16.523300 0.000000
-16.503200 0.000000
-16.483100 0.000000
-16.462900 0.000000
-16.442800 0.000000
-16.422600 0.000000
-16.402500 0.000000
-16.382400 0.000000
-16.362200 0.000000
-16.342100 0.000000
-16.322000 0.000000
-16.301800 0.000000
-16.281700 0.000000
-16.261500 0.000000
-16.241400 0.000000
-16.221300 0.000000
-16.201100 0.000000
-16.181000 0.000000
-16.160800 0.000000
-16.140700 0.000000
-16.120600 0.000000
-16.100400 0.000000
-16.080300 0.000000
-16.060100 0.000000
-16.040000 0.000000
-16.019900 0.000000
-15.999700 0.000000
-15.979600 0.000000
-15.959400 0.000000
-15.939300 0.000000
-15.919200 0.000000
-15.899000 0.000000
-15.878900 0.000000
-15.858700 0.000000
-15.838600 0.000000
-15.818500 0.000000
-15.798300 0.000000
-15.778200 0.000000
-15.758100 0.000000
-15.737900 0.000000
-15.717800 0.000000
-15.697600 0.000000
-15.677500 0.000000
-15.657400 0.000000
-15.637200 0.000000
-15.617100 0.000000
-15.596900 0.000000
-15.576800 0.000000
-15.556700 0.000000
-15.536500 0.000000
-15.516400 0.000000
-15.496200 0.000000
-15.476100 0.000000
-15.456000 0.000000
-15.435800 0.000000
-15.415700 0.000000
-15.395500 0.000000
-15.375400 0.000000
-15.355300 0.000000
-15.335100 0.000000
-15.315000 0.000000
-15.294800 0.000000
-15.274700 0.000000
-15.254600 0.000000
-15.234400 0.000000
-15.214300 0.000000
-15.194200 0.000000
-15.174000 0.000000
-15.153900 0.000000
-15.133700 0.000000
-15.113600 0.000000
-15.093500 0.000000
-15.073300 0.000000
-15.053200 0.000000
-15.033000 0.000000
-15.012900 0.000000
-14.992800 0.000000
-14.972600 0.000000
-14.952500 0.000000
-14.932300 0.000000
-14.912200 0.000000
-14.892100 0.000000
-14.871900 0.000000
-14.851800 0.000000
-14.831600 0.000000
-14.811500 0.000000
-14.791400 0.216400
-14.771200 6.353300
-14.751100 6.353300
-14.730900 6.353300
-14.710800 6.353300
-14.690700 6.353300
-14.670500 6.353300
-14.650400 6.353300
-14.630300 5.056900
-14.610100 2.216600
-14.590000 2.216600
-14.569800 2.216600
-14.549700 2.216600
-14.529600 2.216600
-14.509400 2.216600
-14.489300 2.216600
-14.469100 2.216600
-14.449000 2.216600
-14.428900 2.216600
-14.408700 2.216600
-14.388600 2.216600
-14.368400 2.216600
-14.348300 2.216600
-14.328200 2.216600
-14.308000 2.216600
-14.287900 2.216600
-14.267700 2.216600
-14.247600 2.216600
-14.227500 2.216600
-14.207300 2.216600
-14.187200 2.216600
-14.167100 1.564200
-14.146900 1.564200
-14.126800 1.564200
-14.106600 1.564200
-14.086500 1.564200
-14.066400 1.564200
-14.046200 1.564200
-14.026100 1.564200
-14.005900 1.564200
-13.985800 1.564200
-13.965700 1.564200
-13.945500 1.564200
-13.925400 1.564200
-13.905200 1.564200
-13.885100 1.564200
-13.865000 1.564200
-13.844800 1.564200
-13.824700 1.564200
-13.804500 1.564200
-13.784400 1.564200
-13.764300 1.564200
-13.744100 1.564200
-13.724000 1.564200
-13.703800 1.564200
-13.683700 1.564200
-13.663600 1.564200
-13.643400 1.564200
-13.623300 1.564200
-13.603200 1.564200
-13.583000 1.564200
-13.562900 1.564200
-13.542700 1.565600
-13.522600 2.508000
-13.502500 2.508000
-13.482300 2.508000
-13.462200 2.508000
-13.442000 2.508000
-13.421900 2.508000
-13.401800 2.508000
-13.381600 2.508000
-13.361500 2.508000
-13.341300 2.508000
-13.321200 2.508000
-13.301100 2.508000
-13.280900 2.508000
-13.260800 2.508000
-13.240600 2.508000
-13.220500 2.508000
-13.200400 2.508000
-13.180200 2.508000
-13.160100 2.508000
-13.139900 1.243700
-13.119800 0.000000
-13.099700 0.000000
-13.079500 0.000000
-13.059400 0.000000
-13.039300 0.000000
-13.019100 0.000000
-12.999000 0.000000
-12.978800 0.000000
-12.958700 0.000000
-12.938600 0.000000
-12.918400 0.000000
-12.898300 0.000000
-12.878100 0.000000
-12.858000 0.000000
-12.837900 0.000000
-12.817700 0.000000
-12.797600 0.000000
-12.777400 0.000000
-12.757300 0.000000
-12.737200 0.000000
-12.717000 0.000000
-12.696900 0.000000
-12.676700 0.000000
-12.656600 0.000000
-12.636500 0.000000
-12.616300 0.000000
-12.596200 0.000000
-12.576100 0.000000
-12.555900 0.000000
-12.535800 0.000000
-12.515600 0.000000
-12.495500 0.000000
-12.475400 0.000000
-12.455200 0.000000
-12.435100 0.000000
-12.414900 0.000000
-12.394800 0.000000
-12.374700 0.000000
-12.354500 0.000000
-12.334400 0.000000
-12.314200 0.000000
-12.294100 0.000000
-12.274000 0.000000
-12.253800 0.000000
-12.233700 0.000000
-12.213500 0.000000
-12.193400 0.000000
-12.173300 0.000000
-12.153100 0.000000
-12.133000 0.000000
-12.112800 0.000000
-12.092700 0.000000
-12.072600 0.000000
-12.052400 0.000000
-12.032300 0.000000
-12.012200 0.000000
-11.992000 0.000000
-11.971900 0.000000
-11.951700 0.000000
-11.931600 0.000000
-11.911500 0.000000
-11.891300 0.000000
-11.871200 0.000000
-11.851000 0.000000
-11.830900 0.000000
-11.810800 0.000000
-11.790600 0.000000
-11.770500 0.000000
-11.750300 0.000000
-11.730200 0.000000
-11.710100 0.000000
-11.689900 0.000000
-11.669800 0.000000
-11.649600 0.000000
-11.629500 0.000000
-11.609400 0.000000
-11.589200 0.000000
-11.569100 0.000000
-11.548900 0.000000
-11.528800 0.000000
-11.508700 0.000000
-11.488500 0.000000
-11.468400 0.000000
-11.448300 0.000000
-11.428100 0.000000
-11.408000 0.000000
-11.387800 0.000000
-11.367700 0.000000
-11.347600 0.000000
-11.327400 0.000000
-11.307300 0.000000
-11.287100 0.000000
-11.267000 0.000000
-11.246900 0.000000
-11.226700 0.000000
-11.206600 0.000000
-11.186400 0.000000
-11.166300 0.000000
-11.146200 0.000000
-11.126000 0.000000
-11.105900 0.000000
-11.085700 0.000000
-11.065600 0.000000
-11.045500 0.000000
-11.025300 0.000000
-11.005200 0.000000
-10.985000 0.000000
-10.964900 0.000000
-10.944800 0.000000
-10.924600 0.000000
-10.904500 0.000000
-10.884400 0.000000
-10.864200 0.000000
-10.844100 0.000000
-10.823900 0.000000
-10.803800 0.000000
-10.783700 0.000000
-10.763500 0.000000
-10.743400 0.000000
-10.723200 0.000000
-10.703100 0.000000
-10.683000 0.000000
-10.662800 0.000000
-10.642700 0.000000
-10.622500 0.000000
-10.602400 0.000000
-10.582300 0.000000
-10.562100 0.000000
-10.542000 0.000000
-10.521800 0.000000
-10.501700 0.000000
-10.481600 0.000000
-10.461400 0.000000
-10.441300 0.000000
-10.421200 0.000000
-10.401000 0.000000
-10.380900 0.000000
-10.360700 0.000000
-10.340600 0.000000
-10.320500 2.106500
-10.300300 6.295000
-10.280200 7.956100
-10.260000 8.492200
-10.239900 10.247500
-10.219800 10.245000
-10.199600 10.029700
-10.179500 6.608200
-10.159300 5.440500
-10.139200 5.431800
-10.119100 5.423900
-10.098900 5.416900
-10.078800 5.410700
-10.058600 5.405200
-10.038500 5.400600
-10.018400 5.396700
-9.998200 5.646300
-9.978100 5.784600
-9.957900 5.932300
-9.937800 6.089400
-9.917700 7.738600
-9.897500 13.773500
-9.877400 11.406700
-9.857300 10.062500
-9.837100 9.470000
-9.817000 8.600900
-9.796800 7.591400
-9.776700 6.642300
-9.756600 5.806700
-9.736400 5.159700
-9.716300 4.701700
-9.696100 2.882100
-9.676000 3.284800
-9.655900 4.034700
-9.635700 5.403600
-9.615600 6.835400
-9.595400 7.667700
-9.575300 9.739900
-9.555200 10.839100
-9.535000 10.794400
-9.514900 10.608600
-9.494700 10.277300
-9.474600 9.493800
-9.454500 8.706000
-9.434300 8.510500
-9.414200 8.493100
-9.394000 8.462500
-9.373900 8.426800
-9.353800 8.386100
-9.333600 8.105500
-9.313500 7.609600
-9.293400 5.472900
-9.273200 4.089800
-9.253100 2.973400
-9.232900 2.153700
-9.212800 2.100200
-9.192700 2.055600
-9.172500 20.634900
-9.152400 25.471600
-9.132200 17.391900
-9.112100 11.840500
-9.092000 10.595500
-9.071800 9.870500
-9.051700 9.535300
-9.031500 9.165100
-9.011400 8.760100
-8.991300 8.329100
-8.971100 7.696700
-8.951000 7.090200
-8.930800 6.416700
-8.910700 5.803500
-8.890600 5.573800
-8.870400 5.131700
-8.850300 4.982500
-8.830100 4.625000
-8.810000 4.270500
-8.789900 3.965600
-8.769700 3.685800
-8.749600 3.431300
-8.729500 3.201900
-8.709300 2.997800
-8.689200 2.505800
-8.669000 2.240600
-8.648900 2.121300
-8.628800 2.145300
-8.608600 2.312700
-8.588500 2.622500
-8.568300 3.000500
-8.548200 3.800400
-8.528100 4.272500
-8.507900 4.349700
-8.487800 4.418900
-8.467600 4.486100
-8.447500 4.570700
-8.427400 4.637100
-8.407200 4.685400
-8.387100 4.953200
-8.366900 4.754000
-8.346800 4.539800
-8.326700 4.310600
-8.306500 4.066400
-8.286400 3.807200
-8.266300 3.532900
-8.246100 2.168200
-8.226000 2.176300
-8.205800 2.185000
-8.185700 2.194300
-8.165600 2.204300
-8.145400 2.391400
-8.125300 15.065100
-8.105100 28.043000
-8.085000 21.631900
-8.064900 16.585500
-8.044700 15.824700
-8.024600 20.856000
-8.004400 20.652200
-7.984300 19.613800
-7.964200 18.167600
-7.944000 14.065300
-7.923900 13.080500
-7.903700 19.315000
-7.883600 12.347800
-7.863500 16.033500
-7.843300 18.634600
-7.823200 18.948300
-7.803000 15.177800
-7.782900 12.234500
-7.762800 10.407800
-7.742600 10.615000
-7.722500 9.372000
-7.702400 12.703100
-7.682200 8.795300
-7.662100 8.647400
-7.641900 8.548300
-7.621800 8.951700
-7.601700 10.779800
-7.581500 12.298200
-7.561400 14.865600
-7.541200 14.371600
-7.521100 20.067000
-7.501000 11.345900
-7.480800 9.751100
-7.460700 9.194200
-7.440500 8.515500
-7.420400 7.590900
-7.400300 6.191000
-7.380100 6.858500
-7.360000 6.427000
-7.339800 6.281400
-7.319700 5.962000
-7.299600 6.193700
-7.279400 6.453700
-7.259300 6.742200
-7.239100 5.399200
-7.219000 4.851800
-7.198900 4.570200
-7.178700 4.654800
-7.158600 4.824300
-7.138500 4.725200
-7.118300 4.210400
-7.098200 3.691800
-7.078000 3.169500
-7.057900 2.660200
-7.037800 2.272000
-7.017600 1.689100
-6.997500 1.257300
-6.977300 0.984500
-6.957200 0.840500
-6.937100 0.786200
-6.916900 0.785700
-6.896800 0.785700
-6.876600 0.785700
-6.856500 0.785700
-6.836400 0.785700
-6.816200 0.785700
-6.796100 0.785700
-6.775900 0.785800
-6.755800 0.785800
-6.735700 0.785800
-6.715500 0.785800
-6.695400 0.785800
-6.675200 0.785900
-6.655100 0.785900
-6.635000 0.785900
-6.614800 0.785900
-6.594700 0.786000
-6.574600 0.786000
-6.554400 0.786000
-6.534300 0.786100
-6.514100 0.786100
-6.494000 0.786100
-6.473900 0.786200
-6.453700 0.786200
-6.433600 0.786200
-6.413400 0.786300
-6.393300 0.786300
-6.373200 0.786400
-6.353000 0.786400
-6.332900 0.786500
-6.312700 0.786500
-6.292600 0.786600
-6.272500 0.786600
-6.252300 0.786700
-6.232200 0.786700
-6.212000 0.786800
-6.191900 0.786800
-6.171800 0.786900
-6.151600 0.787000
-6.131500 0.787000
-6.111400 0.787100
-6.091200 0.787100
-6.071100 0.787200
-6.050900 0.787300
-6.030800 0.787400
-6.010700 0.787400
-5.990500 0.787500
-5.970400 0.787600
-5.950200 0.787600
-5.930100 0.787700
-5.910000 0.787800
-5.889800 0.787900
-5.869700 0.788000
-5.849500 0.788000
-5.829400 0.806800
-5.809300 0.824100
-5.789100 0.824100
-5.769000 0.824100
-5.748800 0.824100
-5.728700 0.824100
-5.708600 0.824100
-5.688400 0.824100
-5.668300 0.824000
-5.648100 0.824000
-5.628000 0.824000
-5.607900 0.824000
-5.587700 0.824000
-5.567600 0.824000
-5.547500 0.824000
-5.527300 0.824000
-5.507200 0.824000
-5.487000 0.824000
-5.466900 0.824000
-5.446800 0.824000
-5.426600 0.824000
-5.406500 0.824000
-5.386300 0.824000
-5.366200 0.824000
-5.346100 0.824000
-5.325900 0.824000
-5.305800 0.824000
-5.285600 0.824000
-5.265500 0.824000
-5.245400 0.823900
-5.225200 0.823900
-5.205100 0.823900
-5.184900 0.823900
-5.164800 0.823900
-5.144700 0.823900
-5.124500 0.823900
-5.104400 0.823900
-5.084200 0.823900
-5.064100 0.823900
-5.044000 0.823900
-5.023800 0.823900
-5.003700 0.823900
-4.983600 0.823900
-4.963400 0.823900
-4.943300 0.823900
-4.923100 0.823900
-4.903000 0.823900
-4.882900 0.823900
-4.862700 0.823900
-4.842600 0.823900
-4.822400 0.823900
-4.802300 0.823900
-4.782200 0.823900
-4.762000 0.823900
-4.741900 0.823900
-4.721700 0.823900
-4.701600 0.823900
-4.681500 0.823900
-4.661300 0.808900
-4.641200 0.655600
-4.621000 0.482700
-4.600900 0.252700
-4.580800 0.000000
-4.560600 0.000000
-4.540500 0.000000
-4.520300 0.000000
-4.500200 0.000000
-4.480100 0.000000
-4.459900 0.000000
-4.439800 0.000000
-4.419700 0.000000
-4.399500 0.000000
-4.379400 0.000000
-4.359200 0.000000
-4.339100 0.000000
-4.319000 0.000000
-4.298800 0.000000
-4.278700 0.000000
-4.258500 0.000000
-4.238400 0.000000
-4.218300 0.000000
-4.198100 0.000000
-4.178000 0.000000
-4.157800 0.000000
-4.137700 0.000000
-4.117600 0.000000
-4.097400 0.000000
-4.077300 0.000000
-4.057100 0.000000
-4.037000 0.000000
-4.016900 0.000000
-3.996700 0.000000
-3.976600 0.000000
-3.956500 0.000000
-3.936300 0.000000
-3.916200 0.000000
-3.896000 0.000000
-3.875900 0.000000
-3.855800 0.000000
-3.835600 0.000000
-3.815500 0.000000
-3.795300 0.000000
-3.775200 0.000000
-3.755100 0.000000
-3.734900 0.000000
-3.714800 0.000000
-3.694600 0.000000
-3.674500 0.000000
-3.654400 0.000000
-3.634200 0.000000
-3.614100 0.000000
-3.593900 0.000000
-3.573800 0.000000
-3.553700 0.000000
-3.533500 0.000000
-3.513400 0.000000
-3.493200 0.000000
-3.473100 0.000000
-3.453000 0.000000
-3.432800 0.003300
-3.412700 0.065300
-3.392600 0.205900
-3.372400 0.425100
-3.352300 0.722800
-3.332100 1.099000
-3.312000 1.553800
-3.291900 2.087200
-3.271700 3.020600
-3.251600 3.266600
-3.231400 3.419600
-3.211300 3.479600
-3.191200 3.446700
-3.171000 3.170600
-3.150900 3.213700
-3.130700 3.233300
-3.110600 3.195200
-3.090500 3.276100
-3.070300 3.358900
-3.050200 3.336100
-3.030000 3.291900
-3.009900 3.245300
-2.989800 3.196400
-2.969600 3.145100
-2.949500 3.091500
-2.929300 4.012500
-2.909200 4.473500
-2.889100 4.983800
-2.868900 5.803500
-2.848800 6.578400
-2.828700 6.987700
-2.808500 7.282900
-2.788400 7.489400
-2.768200 7.742200
-2.748100 7.017200
-2.728000 6.965900
-2.707800 6.892100
-2.687700 6.770300
-2.667500 6.429500
-2.647400 6.000400
-2.627300 6.135300
-2.607100 5.427900
-2.587000 4.744700
-2.566800 4.121000
-2.546700 3.594700
-2.526600 3.164400
-2.506400 2.830300
-2.486300 2.584000
-2.466100 1.908400
-2.446000 1.378900
-2.425900 1.689100
-2.405700 2.444100
-2.385600 3.446100
-2.365400 4.590500
-2.345300 9.440100
-2.325200 11.803200
-2.305000 12.571400
-2.284900 13.949200
-2.264800 17.130900
-2.244600 19.590300
-2.224500 20.878000
-2.204300 19.578100
-2.184200 20.171100
-2.164100 13.849700
-2.143900 8.940400
-2.123800 7.380800
-2.103600 5.942500
-2.083500 4.625800
-2.063400 3.430400
-2.043200 2.356500
-2.023100 0.982800
-2.002900 0.243200
-1.982800 0.000100
-1.962700 1.894600
-1.942500 5.215200
-1.922400 7.677800
-1.902200 7.462900
-1.882100 6.898000
-1.862000 7.060800
-1.841800 6.469600
-1.821700 5.665700
-1.801600 4.681100
-1.781400 4.841800
-1.761300 5.218100
-1.741100 5.739000
-1.721000 6.601000
-1.700900 7.807500
-1.680700 7.808000
-1.660600 7.678600
-1.640400 7.647600
-1.620300 7.680200
-1.600200 7.708100
-1.580000 7.727100
-1.559900 7.737200
-1.539700 7.738400
-1.519600 7.730600
-1.499500 7.706800
-1.479300 7.698000
-1.459200 7.727200
-1.439000 7.794300
-1.418900 8.120900
-1.398800 8.054700
-1.378600 7.932600
-1.358500 7.804600
-1.338300 7.695500
-1.318200 7.610900
-1.298100 7.296200
-1.277900 7.087600
-1.257800 7.010300
-1.237700 7.175200
-1.217500 7.469500
-1.197400 7.741800
-1.177200 7.992100
-1.157100 7.796400
-1.137000 4.039000
-1.116800 4.389000
-1.096700 4.468300
-1.076500 4.562500
-1.056400 4.671500
-1.036300 4.850400
-1.016100 5.258100
-0.996000 6.118900
-0.975800 6.613500
-0.955700 7.230300
-0.935600 7.969400
-0.915400 7.592800
-0.895300 7.105500
-0.875100 10.545100
-0.855000 7.664400
-0.834900 5.536700
-0.814700 4.459200
-0.794600 3.566600
-0.774400 2.858800
-0.754300 2.431100
-0.734200 5.001700
-0.714000 8.709700
-0.693900 12.581900
-0.673800 13.673400
-0.653600 16.590500
-0.633500 17.316300
-0.613300 16.018500
-0.593200 12.810700
-0.573100 11.247500
-0.552900 10.518800
-0.532800 9.652500
-0.512600 8.546500
-0.492500 7.648200
-0.472400 6.834500
-0.452200 6.101400
-0.432100 5.541300
-0.411900 4.845200
-0.391800 3.971600
-0.371700 2.696200
-0.351500 1.733400
-0.331400 0.845500
-0.311200 0.791200
-0.291100 1.322000
-0.271000 1.625800
-0.250800 2.001600
-0.230700 2.449400
-0.210500 2.969300
-0.190400 3.561100
-0.170300 4.225000
-0.150100 4.907700
-0.130000 5.822400
-0.109900 6.715700
-0.089700 7.448300
-0.069600 7.166500
-0.049400 8.266500
-0.029300 9.469100
-0.009200 9.284300
0.011000 9.020300
0.031100 9.087100
0.051300 9.461400
0.071400 9.029300
0.091500 8.699000
0.111700 8.514500
0.131800 8.475100
0.152000 8.835400
0.172100 8.804000
0.192200 8.557900
0.212400 8.283300
0.232500 7.723200
0.252700 7.341100
0.272800 6.355000
0.292900 5.511300
0.313100 4.779100
0.333200 4.203500
0.353300 3.787100
0.373500 3.530000
0.393600 3.460300
0.413800 3.670100
0.433900 4.171500
0.454000 4.960400
0.474200 6.247800
0.494300 10.419800
0.514500 16.073600
0.534600 19.538700
0.554700 21.982600
0.574900 21.177800
0.595000 18.847800
0.615200 16.221000
0.635300 15.879900
0.655400 11.727500
0.675600 7.520200
0.695700 4.583900
0.715900 2.616800
0.736000 1.490100
0.756100 1.568100
0.776300 1.976200
0.796400 2.458300
0.816600 3.014300
0.836700 5.052500
0.856800 11.745500
0.877000 10.399800
0.897100 10.598800
0.917200 13.460000
0.937400 16.578400
0.957500 16.677300
0.977700 18.580900
0.997800 20.505800
1.017900 16.094100
1.038100 12.282000
1.058200 9.972500
1.078400 5.095600
1.098500 5.583200
1.118600 10.364700
1.138800 10.598800
1.158900 10.786500
1.179100 11.175200
1.199200 11.883000
1.219300 11.360100
1.239500 10.341500
1.259600 9.281600
1.279800 9.848400
1.299900 11.292100
1.320000 13.187000
1.340200 14.147700
1.360300 11.564200
1.380500 11.425500
1.400600 11.832500
1.420700 11.620000
1.440900 9.840400
1.461000 8.047500
1.481100 6.225600
1.501300 4.817100
1.521400 3.559900
1.541600 3.293200
1.561700 4.365400
1.581800 11.897700
1.602000 12.516300
1.622100 11.747500
1.642300 10.764100
1.662400 9.565900
1.682500 8.153100
1.702700 6.606300
1.722800 4.427500
1.743000 4.891700
1.763100 6.405700
1.783200 7.805900
1.803400 11.387600
1.823500 13.382500
1.843700 14.035400
1.863800 13.983800
1.883900 10.854400
1.904100 9.472300
1.924200 8.566500
1.944300 8.049100
1.964500 7.415600
1.984600 6.934000
2.004800 7.328700
2.024900 7.993000
2.045000 8.947600
2.065200 14.783900
2.085300 20.897200
2.105500 19.360200
2.125600 20.506800
2.145700 17.254000
2.165900 14.106500
2.186000 13.495900
2.206200 14.708500
2.226300 16.736000
2.246400 11.526500
2.266600 7.028200
2.286700 12.497600
2.306900 17.331900
2.327000 19.179700
2.347100 17.034700
2.367300 14.765000
2.387400 12.489200
2.407600 11.531100
2.427700 8.613800
2.447800 7.822200
2.468000 6.905300
2.488100 7.341400
2.508200 8.004800
2.528400 8.661300
2.548500 9.300900
2.568700 10.085600
2.588800 12.707800
2.608900 14.323000
2.629100 15.291300
2.649200 15.458500
2.669400 15.433900
2.689500 12.046300
2.709600 10.123500
2.729800 9.768100
2.749900 9.873800
2.770100 10.681800
2.790200 12.614500
2.810300 13.673800
2.830500 8.707200
2.850600 8.363200
2.870800 10.529400
2.890900 10.108800
2.911000 8.461200
2.931200 8.293300
2.951300 8.832800
2.971500 9.722100
2.991600 10.481200
3.011700 11.865900
3.031900 13.477500
3.052000 15.286800
3.072100 23.886400
3.092300 17.250900
3.112400 13.755500
3.132600 13.914900
3.152700 15.882300
3.172800 16.911800
3.193000 16.575200
3.213100 19.545900
3.233300 10.709900
3.253400 9.047000
3.273500 8.609700
3.293700 8.357000
3.313800 8.289000
3.334000 8.061900
3.354100 9.544000
3.374200 11.729300
3.394400 14.128500
3.414500 21.920200
3.434700 23.109900
3.454800 17.435700
3.474900 18.858700
3.495100 21.158100
3.515200 21.260900
3.535400 17.911300
3.555500 20.168700
3.575600 11.571800
3.595800 12.334500
3.615900 14.035000
3.636000 13.125100
3.656200 11.867400
3.676300 10.774100
3.696500 11.967400
3.716600 12.691800
3.736700 12.944900
3.756900 12.950800
3.777000 13.087700
3.797200 10.284500
3.817300 9.111200
3.837400 8.307100
3.857600 8.614200
3.877700 10.396200
3.897900 11.321200
3.918000 12.042300
3.938100 11.946200
3.958300 11.134400
3.978400 9.826100
3.998600 8.860000
4.018700 8.622400
4.038800 10.046700
4.059000 11.202900
4.079100 13.084800
4.099200 16.881500
4.119400 16.039100
4.139500 14.002400
4.159700 6.948400
4.179800 2.155300
4.199900 3.501700
4.220100 5.709500
4.240200 7.530000
4.260400 9.806100
4.280500 10.945700
4.300600 11.749300
4.320800 10.827300
4.340900 9.042700
4.361100 7.931900
4.381200 6.965100
4.401300 5.384700
4.421500 5.154800
4.441600 5.310900
4.461800 6.279900
4.481900 9.524700
4.502000 13.049900
4.522200 13.771600
4.542300 12.569800
4.562500 13.792700
4.582600 14.444400
4.602700 14.796000
4.622900 14.927300
4.643000 28.159000
4.663100 10.897600
4.683300 10.234900
4.703400 11.127500
4.723600 11.673700
4.743700 11.879500
4.763800 11.744800
4.784000 11.745200
4.804100 11.169900
4.824300 14.121800
4.844400 12.059200
4.864500 8.121500
4.884700 6.176400
4.904800 5.413100
4.925000 4.991700
4.945100 4.906600
4.965200 6.058100
4.985400 23.174200
5.005500 23.546400
5.025700 17.963100
5.045800 15.050400
5.065900 16.880300
5.086100 15.318300
5.106200 13.801000
5.126400 12.487000
5.146500 11.638700
5.166600 12.388000
5.186800 10.756900
5.206900 11.209400
5.227000 12.914800
5.247200 14.379100
5.267300 15.760700
5.287500 19.614600
5.307600 15.103300
5.327700 14.311100
5.347900 17.407200
5.368000 19.524500
5.388200 17.755100
5.408300 13.494200
5.428400 7.800500
5.448600 5.749900
5.468700 9.277200
5.488900 17.036700
5.509000 16.095300
5.529100 11.618900
5.549300 10.567700
5.569400 11.496100
5.589600 16.742400
5.609700 15.715200
5.629800 14.335200
5.650000 12.549900
5.670100 11.781100
5.690300 12.192200
5.710400 12.759800
5.730500 23.086900
5.750700 6.664700
5.770800 6.681500
5.790900 6.701500
5.811100 6.724500
5.831200 6.727800
5.851400 6.098000
5.871500 4.870400
5.891600 2.782000
5.911800 1.284900
5.931900 0.567700
5.952100 0.148300
5.972200 0.199800
5.992300 0.259000
6.012500 0.325800
6.032600 0.400200
6.052800 0.482400
6.072900 0.614900
6.093000 0.761900
6.113200 0.922900
6.133300 1.097900
6.153500 1.287000
6.173600 1.490200
6.193700 1.707400
6.213900 2.212200
6.234000 2.428300
6.254100 2.876800
6.274300 2.877300
6.294400 2.877800
6.314600 2.878300
6.334700 2.878900
6.354800 2.879400
6.375000 2.880100
6.395100 2.880700
6.415300 2.881400
6.435400 2.882100
6.455500 2.882800
6.475700 2.883600
6.495800 2.884400
6.516000 2.885200
6.536100 2.897800
6.556200 2.942800
6.576400 3.020600
6.596500 3.130900
6.616700 3.250900
6.636800 3.366600
6.656900 3.478100
6.677100 3.589100
6.697200 3.715100
6.717400 3.934800
6.737500 4.339800
6.757600 4.904400
6.777800 5.684900
6.797900 7.348400
6.818000 8.785700
6.838200 10.955000
6.858300 11.054000
6.878500 10.443600
6.898600 10.171600
6.918700 10.196200
6.938900 10.285700
6.959000 10.885000
6.979200 10.144600
6.999300 9.036400
7.019400 8.286500
7.039600 8.801600
7.059700 8.918700
7.079900 9.392000
7.100000 15.981200
7.120100 12.488300
7.140300 9.499900
7.160400 8.608800
7.180600 7.330000
7.200700 6.580100
7.220800 5.922900
7.241000 5.422300
7.261100 5.187800
7.281300 4.730300
7.301400 4.698600
7.321500 4.700600
7.341700 4.703600
7.361800 4.707500
7.381900 4.712400
7.402100 4.718200
7.422200 4.724900
7.442400 4.732600
7.462500 4.741300
7.482600 4.750800
7.502800 4.761300
7.522900 4.772800
7.543100 3.988300
7.563200 3.067500
7.583300 2.254400
7.603500 1.059800
7.623600 0.355000
7.643800 0.015200
7.663900 0.000000
7.684000 0.000000
7.704200 0.000000
7.724300 0.000000
7.744500 0.000000
7.764600 0.000000
7.784700 0.000000
7.804900 0.000000
7.825000 0.000000
7.845200 0.000000
7.865300 0.000000
7.885400 0.000000
7.905600 0.000000
7.925700 0.000000
7.945800 0.000000
7.966000 0.000000
7.986100 0.000000
8.006300 0.000000
8.026400 0.000000
8.046500 0.000000
8.066700 0.000000
8.086800 0.000000
8.107000 0.000000
8.127100 0.000000
8.147200 0.000000
8.167400 0.000000
8.187500 0.000000
8.207700 0.000000
8.227800 0.000000
8.247900 0.000000
8.268100 0.000000
8.288200 0.000000
8.308400 0.000000
8.328500 0.000000
8.348600 0.000000
8.368800 0.000000
8.388900 0.000000
8.409000 0.000000
8.429200 0.000000
8.449300 0.000000
8.469500 0.000000
8.489600 0.000000
8.509700 0.000000
8.529900 0.000000
8.550000 0.000000
8.570200 0.000000
8.590300 0.000000
8.610400 0.000000
8.630600 0.000000
8.650700 0.000000
8.670900 0.000000
8.691000 0.000000
8.711100 0.000000
8.731300 0.000000
8.751400 0.000000
8.771600 0.000000
8.791700 0.000000
8.811800 0.000000
8.832000 0.000000
8.852100 0.000000
8.872300 0.000000
8.892400 0.000000
8.912500 0.000000
8.932700 0.000000
8.952800 0.000000
8.972900 0.000000
8.993100 0.000000
9.013200 0.000000
9.033400 0.000000
9.053500 0.000000
9.073600 0.000000
9.093800 0.000000
9.113900 0.000000
9.134100 0.000000
9.154200 0.000000
9.174300 0.000000
9.194500 0.000000
9.214600 0.000000
9.234800 0.000000
9.254900 0.000000
9.275000 0.000000
9.295200 0.000000
9.315300 0.000000
9.335500 0.000000
9.355600 0.000000
9.375700 0.000000
9.395900 0.000000
9.416000 0.000000
9.436200 0.000000
9.456300 0.000000
9.476400 0.000000
9.496600 0.000000
9.516700 0.000000
9.536800 0.000000
9.557000 0.000000
9.577100 0.000000
9.597300 0.000000
9.617400 0.000000
9.637500 0.000000
9.657700 0.000000
9.677800 0.000000
9.698000 0.000000
9.718100 0.000000
9.738200 0.000000
9.758400 0.000000
9.778500 0.000000
9.798700 0.000000
9.818800 0.000000
9.838900 0.000000
9.859100 0.000000
9.879200 0.000000
9.899400 0.000000
9.919500 0.000000
9.939600 0.000000
9.959800 0.000000
9.979900 0.343500
10.000100 1.184200
10.020200 1.686200
10.040300 2.148900
10.060500 2.728800
10.080600 3.443800
10.100700 4.201000
10.120900 5.791400
10.141000 7.120200
10.161200 8.420100
10.181300 9.820000
10.201400 11.765000
10.221600 11.679700
10.241700 11.098700
10.261900 13.237200
10.282000 11.241300
10.302100 10.384000
10.322300 11.941800
10.342400 11.891800
10.362600 11.975600
10.382700 11.737500
10.402800 11.469500
10.423000 10.859300
10.443100 10.094100
10.463300 9.199500
10.483400 8.194700
10.503500 7.444700
10.523700 6.971100
10.543800 6.936000
10.563900 7.210200
10.584100 7.449900
10.604200 7.667800
10.624400 7.881600
10.644500 8.133100
10.664600 8.289100
10.684800 8.451700
10.704900 8.788600
10.725100 8.992300
10.745200 9.268300
10.765300 9.610400
10.785500 9.769200
10.805600 10.162300
10.825800 11.121900
10.845900 11.764400
10.866000 12.445300
10.886200 13.432900
10.906300 13.476200
10.926500 14.011000
10.946600 13.726200
10.966700 13.262600
10.986900 16.492000
11.007000 15.570000
11.027200 14.205900
11.047300 12.868500
11.067400 12.479800
11.087600 13.251000
11.107700 11.815800
11.127800 11.829300
11.148000 12.018000
11.168100 12.830600
11.188300 15.090400
11.208400 13.889000
11.228500 11.076900
11.248700 8.360200
11.268800 7.518800
11.289000 6.544900
11.309100 5.998800
11.329200 5.572500
11.349400 5.232000
11.369500 5.180200
11.389700 5.066000
11.409800 4.973800
11.429900 4.846300
11.450100 4.683400
11.470200 4.564500
11.490400 4.491600
11.510500 7.788900
11.530600 10.634400
11.550800 10.234500
11.570900 9.644100
11.591100 9.422300
11.611200 8.811300
11.631300 9.443800
11.651500 9.028700
11.671600 7.430000
11.691700 6.064400
11.711900 5.801500
11.732000 5.613800
11.752200 5.501300
11.772300 5.463900
11.792400 5.508700
11.812600 5.648200
11.832700 5.881600
11.852900 6.174700
11.873000 6.507000
11.893100 6.878400
11.913300 7.289100
11.933400 7.730800
11.953600 8.194700
11.973700 8.680600
11.993800 8.965200
12.014000 9.196300
12.034100 9.290900
12.054300 8.806600
12.074400 8.506700
12.094500 8.188000
12.114700 7.741000
12.134800 7.518200
12.155000 7.811700
12.175100 8.776000
12.195200 9.169800
12.215400 9.078800
12.235500 9.068400
12.255600 9.121600
12.275800 9.038600
12.295900 8.881500
12.316100 8.648900
12.336200 8.222200
12.356300 7.268700
12.376500 5.212900
12.396600 4.710100
12.416800 4.792200
12.436900 4.927800
12.457000 5.527700
12.477200 7.345400
12.497300 9.446500
12.517500 8.837400
12.537600 8.556200
12.557700 8.348500
12.577900 8.172700
12.598000 8.028900
12.618200 7.917000
12.638300 7.932300
12.658400 8.694000
12.678600 10.533000
12.698700 11.774600
12.718800 12.206000
12.739000 10.998300
12.759100 9.861700
12.779300 8.360500
12.799400 6.760700
12.819500 5.690900
12.839700 4.423500
12.859800 4.476300
12.880000 4.485300
12.900100 4.450600
12.920200 4.613500
12.940400 4.420500
12.960500 4.260900
12.980700 4.134800
13.000800 4.042200
13.020900 3.983000
13.041100 3.962800
13.061200 4.070400
13.081400 3.998500
13.101500 5.857900
13.121600 17.098700
13.141800 22.820200
13.161900 26.082000
13.182100 20.996900
13.202200 14.330600
13.222300 10.311600
13.242500 8.030700
13.262600 5.833300
13.282700 6.929600
13.302900 8.487300
13.323000 10.228900
13.343200 18.029000
13.363300 22.066300
13.383400 9.369700
13.403600 5.902000
13.423700 4.533700
13.443900 3.943900
13.464000 4.133800
13.484100 11.764400
13.504300 15.784400
13.524400 16.404000
13.544600 17.111100
13.564700 13.969100
13.584800 9.505500
13.605000 17.251500
13.625100 17.105300
13.645300 17.700400
13.665400 18.073800
13.685500 14.230700
13.705700 12.296500
13.725800 6.263700
13.746000 5.932100
13.766100 7.816900
13.786200 10.782800
13.806400 14.975300
13.826500 19.547100
13.846600 12.325000
13.866800 12.559900
13.886900 14.269800
13.907100 12.804100
13.927200 9.293900
13.947300 6.425300
13.967500 6.391400
13.987600 6.076000
14.007800 6.618400
14.027900 8.927900
14.048000 11.770400
14.068200 17.058900
14.088300 11.968400
14.108500 12.802500
14.128600 15.489200
14.148700 27.260700
14.168900 34.957200
14.189000 8.832700
14.209200 4.032000
14.229300 7.010000
14.249400 10.703000
14.269600 15.548100
14.289700 19.428100
14.309900 14.055100
14.330000 11.959500
14.350100 10.050600
14.370300 9.870800
14.390400 8.379800
14.410500 7.580700
14.430700 7.548200
14.450800 8.446000
14.471000 10.642800
14.491100 11.697400
14.511200 12.400800
14.531400 10.130900
14.551500 9.930600
14.571700 10.036300
14.591800 8.450000
14.611900 6.346600
14.632100 6.570300
14.652200 7.327300
14.672400 8.576200
14.692500 10.303200
14.712600 11.571900
14.732800 11.981300
14.752900 12.917400
14.773100 17.529100
14.793200 22.201500
14.813300 15.858800
14.833500 11.167900
14.853600 10.235000
14.873700 10.209900
14.893900 10.886300
14.914000 11.650200
14.934200 11.098000
14.954300 13.016900
14.974400 15.524300
14.994600 17.035600
15.014700 16.599900
15.034900 15.735100
15.055000 14.145800
15.075100 11.959700
15.095300 10.622100
15.115400 10.190200
15.135600 9.937200
15.155700 9.730800
15.175800 9.986500
15.196000 11.608200
15.216100 13.692100
15.236300 14.446900
15.256400 15.407600
15.276500 17.210400
15.296700 24.664300
15.316800 20.709500
15.337000 20.122800
15.357100 20.176200
15.377200 19.496700
15.397400 18.266400
15.417500 17.462300
15.437600 16.534500
15.457800 15.202100
15.477900 12.539600
15.498100 11.817700
15.518200 11.254600
15.538300 10.853000
15.558500 10.726400
15.578600 10.713500
15.598800 10.756300
15.618900 10.801900
15.639000 9.387200
15.659200 8.150800
15.679300 7.574000
15.699500 7.938100
15.719600 8.804100
15.739700 9.539800
15.759900 10.617800
15.780000 11.561700
15.800200 12.457400
15.820300 12.581200
15.840400 12.759900
15.860600 12.994800
15.880700 13.513200
15.900900 12.553500
15.921000 10.377700
15.941100 9.902300
15.961300 9.300100
15.981400 9.253000
16.001500 9.399700
16.021700 9.875800
16.041800 10.012400
16.062000 9.959300
16.082100 10.287000
16.102200 10.720500
16.122400 10.059800
16.142500 9.803500
16.162700 10.217300
16.182800 11.183200
16.202900 10.093300
16.223100 8.626100
16.243200 13.835700
16.263400 34.679600
16.283500 19.250900
16.303600 18.044400
16.323800 20.421100
16.343900 18.996100
16.364100 16.703300
16.384200 14.840900
16.404300 13.137600
16.424500 17.245000
16.444600 16.716100
16.464800 16.713500
16.484900 14.936500
16.505000 17.163800
16.525200 16.967900
16.545300 14.372600
16.565400 16.553800
16.585600 17.415600
16.605700 13.704300
16.625900 12.729600
16.646000 12.072900
16.666100 11.945500
16.686300 11.053800
16.706400 10.306300
16.726600 9.549400
16.746700 8.251900
16.766800 15.324300
16.787000 15.053900
16.807100 15.704200
16.827300 16.748000
16.847400 16.793900
16.867500 16.020100
16.887700 14.094300
16.907800 34.999800
16.928000 16.507000
16.948100 12.208600
16.968200 9.665200
16.988400 7.686100
17.008500 6.728100
17.028600 6.615600
17.048800 7.294000
17.068900 7.675000
17.089100 10.574900
17.109200 13.889800
17.129300 17.634100
17.149500 23.298300
17.169600 24.120200
17.189800 25.084300
17.209900 17.917100
17.230000 14.010300
17.250200 10.018000
17.270300 8.786000
17.290500 7.848800
17.310600 7.414200
17.330700 8.128400
17.350900 10.287000
17.371000 10.615900
17.391200 9.676000
17.411300 9.792100
17.431400 13.545300
17.451600 13.894900
17.471700 10.689400
17.491900 13.031800
17.512000 15.272600
17.532100 22.753200
17.552300 40.474600
17.572400 17.624500
17.592500 9.359300
17.612700 4.912800
17.632800 3.262200
17.653000 3.605200
17.673100 4.169100
17.693200 4.767000
17.713400 5.399100
17.733500 6.065200
17.753700 6.765400
17.773800 7.341000
17.793900 8.485000
17.814100 9.847900
17.834200 7.974600
17.854400 7.011800
17.874500 8.112800
17.894600 9.893100
17.914800 12.143600
17.934900 17.500900
17.955100 11.204200
17.975200 10.537100
17.995300 12.217200
18.015500 12.979300
18.035600 12.222000
18.055800 11.158600
18.075900 10.644700
18.096000 10.316400
18.116200 10.173800
18.136300 11.942100
18.156400 16.779600
18.176600 14.883400
18.196700 15.253300
18.216900 14.386900
18.237000 13.574600
18.257100 12.774200
18.277300 10.006500
18.297400 9.100400
18.317600 9.754500
18.337700 10.652200
18.357800 10.890100
18.378000 9.467600
18.398100 6.640800
18.418300 5.182200
18.438400 4.229100
18.458500 3.332100
18.478700 4.759000
18.498800 15.891900
18.519000 18.010500
18.539100 16.534200
18.559200 17.385300
18.579400 18.657700
18.599500 19.035900
18.619600 20.267400
18.639800 19.397700
18.659900 15.159800
18.680100 9.018800
18.700200 6.312400
18.720300 3.048100
18.740500 3.114500
18.760600 6.776100
18.780800 7.384700
18.800900 6.892200
18.821000 6.327700
18.841200 10.175500
18.861300 12.105700
18.881500 13.137200
18.901600 14.089800
18.921700 15.798700
18.941900 16.180500
18.962000 15.564600
18.982200 17.295300
19.002300 19.742800
19.022400 11.346200
19.042600 7.679400
19.062700 5.225900
19.082900 14.050500
19.103000 18.723200
19.123100 17.231100
19.143300 15.451100
19.163400 15.636800
19.183500 16.636200
19.203700 22.563000
19.223800 23.747100
19.244000 19.272100
19.264100 14.600800
19.284200 11.009800
19.304400 8.642800
19.324500 7.896500
19.344700 7.558300
19.364800 7.784500
19.384900 12.069100
19.405100 12.013900
19.425200 11.865400
19.445400 12.446000
19.465500 13.034500
19.485600 13.777800
19.505800 19.045900
19.525900 17.374400
19.546100 16.691300
19.566200 14.095400
19.586300 13.898400
19.606500 9.893600
19.626600 5.993200
19.646800 3.158600
19.666900 2.478700
19.687000 2.000800
19.707200 1.572800
19.727300 4.187500
19.747400 6.594300
19.767600 8.349400
19.787700 9.452900
19.807900 9.765300
19.828000 10.209500
19.848100 9.092200
19.868300 8.179000
19.888400 7.879900
19.908600 7.190100
19.928700 6.631600
19.948800 5.956100
19.969000 5.163600
19.989100 5.499800
20.009300 5.575200
20.029400 6.339200
20.049500 7.151000
20.069700 8.921400
20.089800 9.764400
20.110000 10.222500
20.130100 11.288200
20.150200 10.608800
20.170400 8.819500
20.190500 7.654400
20.210700 6.760200
20.230800 5.419000
20.250900 5.176600
20.271100 5.872200
20.291200 8.857300
20.311300 14.162900
20.331500 22.680100
20.351600 21.035900
20.371800 18.103000
20.391900 15.727900
20.412000 13.604100
20.432200 13.881400
20.452300 16.961300
20.472500 9.663700
20.492600 7.293000
20.512700 5.419800
20.532900 4.044100
20.553000 3.164100
20.573200 7.466600
20.593300 9.130100
20.613400 6.626300
20.633600 8.609600
20.653700 12.164000
20.673900 13.578600
20.694000 14.087200
20.714100 13.689700
20.734300 13.952600
20.754400 17.198300
20.774500 20.235500
20.794700 21.033900
20.814800 19.268300
20.835000 13.742500
20.855100 7.270800
20.875200 7.266700
20.895400 7.616200
20.915500 6.870600
20.935700 9.021200
20.955800 13.327500
20.975900 16.337500
20.996100 15.746600
21.016200 11.025100
21.036400 6.569100
21.056500 6.374600
21.076600 7.043100
21.096800 7.875200
21.116900 8.866700
21.137100 10.660200
21.157200 13.939000
21.177300 14.093100
21.197500 14.611100
21.217600 13.918100
21.237800 13.157600
21.257900 13.848400
21.278000 15.931600
21.298200 15.520400
21.318300 14.416300
21.338400 9.848300
21.358600 8.010300
21.378700 6.532900
21.398900 5.483700
21.419000 4.724300
21.439100 4.218600
21.459300 3.948300
21.479400 4.226700
21.499600 4.875100
21.519700 5.631800
21.539800 6.570800
21.560000 7.692800
21.580100 9.100700
21.600300 11.315600
21.620400 10.641900
21.640500 8.149200
21.660700 6.565000
21.680800 5.724500
21.701000 4.847000
21.721100 3.936300
21.741200 3.013300
21.761400 1.842300
21.781500 0.781300
21.801700 0.236400
21.821800 0.001700
21.841900 0.000000
21.862100 0.000000
21.882200 0.000000
21.902300 0.000000
21.922500 0.000000
21.942600 0.000000
21.962800 0.000000
21.982900 0.000000
22.003000 0.000000
22.023200 0.000000
22.043300 0.000000
22.063500 0.000000
22.083600 0.000000
22.103700 0.000000
22.123900 0.000000
22.144000 0.000000
22.164200 0.000000
22.184300 0.000000
22.204400 0.000000
22.224600 0.000000
22.244700 0.000000
22.264900 0.000000
22.285000 0.000000
22.305100 0.000000
22.325300 0.000000
22.345400 0.000000
22.365600 0.000000
22.385700 0.000000
22.405800 0.000000
22.426000 0.000000
22.446100 0.000000
22.466200 0.000000
22.486400 0.000000
22.506500 0.000000
22.526700 0.000000
22.546800 0.000000
22.566900 0.000000
22.587100 0.000000
22.607200 0.000000
22.627400 0.000000
22.647500 0.000000
22.667600 0.000000
22.687800 0.000000
22.707900 0.000000
22.728100 0.000000
22.748200 0.000000
22.768300 0.000000
22.788500 0.000000
22.808600 0.000000
22.828800 0.000000
22.848900 0.000000
22.869000 0.000000
22.889200 0.000000
22.909300 0.000000
22.929400 0.000000
22.949600 0.000000
22.969700 0.000000
22.989900 0.000000
23.010000 0.000000
23.030100 0.000000
23.050300 0.000000
23.070400 0.000000
23.090600 0.000000
23.110700 0.000000
23.130800 0.000000
23.151000 0.000000
23.171100 0.000000
23.191300 0.000000
23.211400 0.000000
23.231500 0.000000
23.251700 0.000000
23.271800 0.000000
23.292000 0.000000
23.312100 0.000000
23.332200 0.000000
23.352400 0.000000
23.372500 0.000000
23.392700 0.000000
23.412800 0.000000
23.432900 0.000000
23.453100 0.000000
23.473200 0.000000
23.493300 0.000000
23.513500 0.000000
23.533600 0.000000
23.553800 0.000000
23.573900 0.000000
23.594000 0.000000
23.614200 0.000000
23.634300 0.000000
23.654500 0.000000
e
