set title 'mp-1009223 - Density of States'
set xlabel 'Energy (eV)'
set ylabel 'DOS (states/eV)'
set grid
set xrange [-10:10]
set yrange [0:60.656]
set xzeroaxis lt -1
set terminal png size 800,600
set output 'mp-1009223_dos_gnuplot.png'
plot '-' using 1:2 with lines title 'DOS'
-24.540700 0.000000
-24.497800 0.000000
-24.455000 0.000000
-24.412100 0.000000
-24.369200 0.000000
-24.326400 0.000000
-24.283500 0.000000
-24.240600 0.000000
-24.197800 0.000000
-24.154900 0.000000
-24.112100 0.000000
-24.069200 0.000000
-24.026300 0.000000
-23.983500 0.000000
-23.940600 0.000000
-23.897700 0.000000
-23.854900 0.000000
-23.812000 0.000000
-23.769100 0.000000
-23.726300 0.000000
-23.683400 0.000000
-23.640500 0.000000
-23.597700 0.000000
-23.554800 0.000000
-23.511900 0.000000
-23.469100 0.000000
-23.426200 0.000000
-23.383300 0.000000
-23.340500 0.000000
-23.297600 0.000000
-23.254700 0.000000
-23.211900 0.000000
-23.169000 0.000000
-23.126100 0.000000
-23.083300 0.000000
-23.040400 0.000000
-22.997600 0.000000
-22.954700 0.000000
-22.911800 0.000000
-22.869000 0.000000
-22.826100 0.000000
-22.783200 0.000000
-22.740400 0.000000
-22.697500 0.000000
-22.654600 0.000000
-22.611800 0.000000
-22.568900 0.000000
-22.526000 0.000000
-22.483200 0.000000
-22.440300 0.000000
-22.397400 0.000000
-22.354600 0.000000
-22.311700 0.000000
-22.268800 0.000000
-22.226000 0.000000
-22.183100 0.000000
-22.140200 0.000000
-22.097400 0.000000
-22.054500 0.000000
-22.011600 0.000000
-21.968800 0.000000
-21.925900 0.000000
-21.883100 0.000000
-21.840200 0.000000
-21.797300 0.000000
-21.754500 0.000000
-21.711600 0.000000
-21.668700 0.000000
-21.625900 0.000000
-21.583000 0.000000
-21.540100 0.000000
-21.497300 0.000000
-21.454400 0.000000
-21.411500 0.000000
-21.368700 0.000000
-21.325800 0.000000
-21.282900 0.000000
-21.240100 0.000000
-21.197200 0.000000
-21.154300 0.000000
-21.111500 0.000000
-21.068600 0.000000
-21.025700 0.000000
-20.982900 0.000000
-20.940000 0.000000
-20.897100 0.000000
-20.854300 0.000000
-20.811400 0.000000
-20.768600 0.000000
-20.725700 0.000000
-20.682800 0.000000
-20.640000 20.682200
-20.597100 20.863800
-20.554200 17.885700
-20.511400 75.530800
-20.468500 0.000000
-20.425600 0.000000
-20.382800 0.000000
-20.339900 0.000000
-20.297000 0.000000
-20.254200 0.000000
-20.211300 0.000000
-20.168400 0.000000
-20.125600 0.000000
-20.082700 0.000000
-20.039800 0.000000
-19.997000 0.000000
-19.954100 0.000000
-19.911200 0.000000
-19.868400 0.000000
-19.825500 0.000000
-19.782600 0.000000
-19.739800 0.000000
-19.696900 0.000000
-19.654100 0.000000
-19.611200 0.000000
-19.568300 0.000000
-19.525500 0.000000
-19.482600 0.000000
-19.439700 0.000000
-19.396900 0.000000
-19.354000 0.000000
-19.311100 0.000000
-19.268300 0.000000
-19.225400 0.000000
-19.182500 0.000000
-19.139700 0.000000
-19.096800 0.000000
-19.053900 0.000000
-19.011100 0.000000
-18.968200 0.000000
-18.925300 0.000000
-18.882500 0.000000
-18.839600 0.000000
-18.796700 0.000000
-18.753900 0.000000
-18.711000 0.000000
-18.668100 0.000000
-18.625300 0.000000
-18.582400 0.000000
-18.539500 0.000000
-18.496700 0.000000
-18.453800 0.000000
-18.411000 0.000000
-18.368100 0.000000
-18.325200 0.000000
-18.282400 0.000000
-18.239500 0.000000
-18.196600 0.000000
-18.153800 0.000000
-18.110900 0.000000
-18.068000 0.000000
-18.025200 0.000000
-17.982300 0.000000
-17.939400 0.000000
-17.896600 0.000000
-17.853700 0.000000
-17.810800 0.000000
-17.768000 0.000000
-17.725100 0.000000
-17.682200 0.000000
-17.639400 0.000000
-17.596500 0.000000
-17.553600 0.000000
-17.510800 0.000000
-17.467900 0.000000
-17.425000 0.000000
-17.382200 0.000000
-17.339300 0.000000
-17.296500 0.000000
-17.253600 0.000000
-17.210700 0.000000
-17.167900 0.000000
-17.125000 0.000000
-17.082100 0.000000
-17.039300 0.000000
-16.996400 0.000000
-16.953500 0.000000
-16.910700 0.000000
-16.867800 0.000000
-16.824900 0.000000
-16.782100 0.000000
-16.739200 0.000000
-16.696300 0.000000
-16.653500 0.000000
-16.610600 0.000000
-16.567700 0.000000
-16.524900 0.000000
-16.482000 0.000000
-16.439100 0.000000
-16.396300 0.000000
-16.353400 0.000000
-16.310500 0.000000
-16.267700 0.000000
-16.224800 0.000000
-16.182000 0.000000
-16.139100 0.000000
-16.096200 0.000000
-16.053400 0.000000
-16.010500 0.000000
-15.967600 0.000000
-15.924800 0.000000
-15.881900 0.000000
-15.839000 0.000000
-15.796200 0.000000
-15.753300 0.000000
-15.710400 0.000000
-15.667600 0.000000
-15.624700 0.000000
-15.581800 0.000000
-15.539000 0.000000
-15.496100 0.000000
-15.453200 0.000000
-15.410400 0.000000
-15.367500 0.000000
-15.324600 0.000000
-15.281800 0.000000
-15.238900 0.000000
-15.196000 0.000000
-15.153200 0.000000
-15.110300 0.000000
-15.067500 0.000000
-15.024600 0.000000
-14.981700 0.000000
-14.938900 0.000000
-14.896000 0.000000
-14.853100 0.000000
-14.810300 0.000000
-14.767400 0.000000
-14.724500 0.000000
-14.681700 0.000000
-14.638800 0.000000
-14.595900 0.000000
-14.553100 0.000000
-14.510200 0.000000
-14.467300 0.000000
-14.424500 0.000000
-14.381600 0.000000
-14.338700 0.000000
-14.295900 0.000000
-14.253000 0.000000
-14.210100 0.000000
-14.167300 0.000000
-14.124400 0.000000
-14.081500 0.000000
-14.038700 0.000000
-13.995800 0.000000
-13.953000 0.000000
-13.910100 0.000000
-13.867200 0.000000
-13.824400 0.000000
-13.781500 0.000000
-13.738600 0.000000
-13.695800 0.000000
-13.652900 0.000000
-13.610000 0.000000
-13.567200 0.000000
-13.524300 0.000000
-13.481400 0.000000
-13.438600 0.000000
-13.395700 0.000000
-13.352800 0.000000
-13.310000 0.000000
-13.267100 0.000000
-13.224200 0.000000
-13.181400 0.000000
-13.138500 0.000000
-13.095600 0.000000
-13.052800 0.000000
-13.009900 0.000000
-12.967000 0.000000
-12.924200 0.000000
-12.881300 0.000000
-12.838500 0.000000
-12.795600 0.000000
-12.752700 0.000000
-12.709900 0.000000
-12.667000 0.000000
-12.624100 0.000000
-12.581300 0.000000
-12.538400 0.000000
-12.495500 0.000000
-12.452700 0.000000
-12.409800 0.000000
-12.366900 0.000000
-12.324100 0.000000
-12.281200 0.000000
-12.238300 0.000000
-12.195500 0.000000
-12.152600 0.000000
-12.109700 0.000000
-12.066900 0.000000
-12.024000 0.000000
-11.981100 0.000000
-11.938300 0.000000
-11.895400 0.000000
-11.852500 0.000000
-11.809700 0.000000
-11.766800 0.000000
-11.724000 0.000000
-11.681100 0.000000
-11.638200 0.000000
-11.595400 0.000000
-11.552500 0.000000
-11.509600 0.000000
-11.466800 0.000000
-11.423900 0.000000
-11.381000 0.000000
-11.338200 0.000000
-11.295300 0.000000
-11.252400 0.000000
-11.209600 0.000000
-11.166700 0.000000
-11.123800 0.000000
-11.081000 0.000000
-11.038100 0.000000
-10.995200 0.000000
-10.952400 0.000000
-10.909500 0.000000
-10.866600 0.000000
-10.823800 0.000000
-10.780900 0.000000
-10.738000 0.000000
-10.695200 0.000000
-10.652300 0.000000
-10.609500 0.000000
-10.566600 0.000000
-10.523700 0.000000
-10.480900 0.000000
-10.438000 0.000000
-10.395100 0.000000
-10.352300 0.000000
-10.309400 0.000000
-10.266500 0.000000
-10.223700 0.000000
-10.180800 0.000000
-10.137900 0.000000
-10.095100 0.000000
-10.052200 0.000000
-10.009300 0.000000
-9.966500 0.000000
-9.923600 0.000000
-9.880700 0.000000
-9.837900 0.000000
-9.795000 0.000000
-9.752100 0.000000
-9.709300 0.000000
-9.666400 0.000000
-9.623500 0.000000
-9.580700 0.000000
-9.537800 0.000000
-9.494900 0.000000
-9.452100 0.000000
-9.409200 0.000000
-9.366400 0.000000
-9.323500 0.000000
-9.280600 0.000000
-9.237800 0.000000
-9.194900 0.000000
-9.152000 0.000000
-9.109200 0.000000
-9.066300 0.000000
-9.023400 0.000000
-8.980600 0.000000
-8.937700 0.000000
-8.894800 0.000000
-8.852000 0.000000
-8.809100 0.000000
-8.766200 0.000000
-8.723400 0.000000
-8.680500 0.000000
-8.637600 0.000000
-8.594800 0.000000
-8.551900 0.000000
-8.509000 0.000000
-8.466200 0.015100
-8.423300 0.129400
-8.380400 0.185500
-8.337600 0.227300
-8.294700 0.288600
-8.251900 0.355500
-8.209000 0.441200
-8.166100 0.491800
-8.123300 0.471900
-8.080400 0.490100
-8.037500 0.501500
-7.994700 0.494800
-7.951800 0.492500
-7.908900 0.497300
-7.866100 0.502000
-7.823200 0.505700
-7.780300 0.506500
-7.737500 0.505400
-7.694600 0.512500
-7.651700 0.518700
-7.608900 0.521200
-7.566000 0.525400
-7.523100 0.529600
-7.480300 0.532700
-7.437400 0.533200
-7.394500 0.537100
-7.351700 0.542800
-7.308800 0.549200
-7.265900 0.556000
-7.223100 0.562600
-7.180200 0.569500
-7.137400 0.576500
-7.094500 0.583500
-7.051600 0.590400
-7.008800 0.598100
-6.965900 0.606000
-6.923000 0.614100
-6.880200 0.622200
-6.837300 0.634900
-6.794400 0.653600
-6.751600 0.672500
-6.708700 0.695100
-6.665800 0.720000
-6.623000 0.738500
-6.580100 0.756100
-6.537200 0.773000
-6.494400 0.849100
-6.451500 0.956800
-6.408600 1.080600
-6.365800 1.144100
-6.322900 1.080200
-6.280000 0.964000
-6.237200 0.825500
-6.194300 0.757100
-6.151400 0.700200
-6.108600 0.656400
-6.065700 0.628000
-6.022900 0.601800
-5.980000 0.572500
-5.937100 0.541200
-5.894300 0.515500
-5.851400 0.494800
-5.808500 0.480700
-5.765700 0.467800
-5.722800 0.453400
-5.679900 0.437800
-5.637100 0.420800
-5.594200 0.404400
-5.551300 0.390200
-5.508500 0.378400
-5.465600 0.369200
-5.422700 0.360000
-5.379900 0.350800
-5.337000 0.341400
-5.294100 0.331900
-5.251300 0.322200
-5.208400 0.312700
-5.165500 0.303600
-5.122700 0.295100
-5.079800 0.286900
-5.036900 0.278700
-4.994100 0.270600
-4.951200 0.264400
-4.908400 0.259700
-4.865500 0.256400
-4.822600 0.252000
-4.779800 0.245400
-4.736900 0.236300
-4.694000 0.223800
-4.651200 0.214200
-4.608300 0.212500
-4.565400 0.216400
-4.522600 0.213800
-4.479700 0.190800
-4.436800 0.149800
-4.394000 0.099300
-4.351100 0.050700
-4.308200 0.016700
-4.265400 0.000000
-4.222500 0.000000
-4.179600 0.000000
-4.136800 0.000000
-4.093900 0.000000
-4.051000 0.000000
-4.008200 0.000000
-3.965300 0.000000
-3.922400 0.000000
-3.879600 0.000000
-3.836700 0.000000
-3.793900 0.000000
-3.751000 0.000000
-3.708100 0.000000
-3.665300 0.000000
-3.622400 0.000000
-3.579500 0.000000
-3.536700 0.000000
-3.493800 0.000000
-3.450900 0.000000
-3.408100 0.000000
-3.365200 0.000000
-3.322300 0.000000
-3.279500 0.000000
-3.236600 0.000000
-3.193700 0.000000
-3.150900 0.000000
-3.108000 0.000000
-3.065100 0.000000
-3.022300 0.000000
-2.979400 0.000000
-2.936500 0.000000
-2.893700 0.000000
-2.850800 0.000000
-2.807900 0.000000
-2.765100 0.000000
-2.722200 0.000000
-2.679400 0.000000
-2.636500 0.000000
-2.593600 0.000000
-2.550800 0.000000
-2.507900 0.000000
-2.465000 0.000000
-2.422200 0.000000
-2.379300 0.000000
-2.336400 0.000000
-2.293600 0.000000
-2.250700 0.000000
-2.207800 0.000000
-2.165000 0.000000
-2.122100 0.000000
-2.079200 0.000000
-2.036400 0.000000
-1.993500 0.000000
-1.950600 0.000000
-1.907800 0.000000
-1.864900 0.000000
-1.822000 0.000000
-1.779200 0.000000
-1.736300 0.000000
-1.693400 0.000000
-1.650600 0.000000
-1.607700 0.000000
-1.564800 0.000000
-1.522000 0.000000
-1.479100 0.000000
-1.436300 0.000000
-1.393400 0.000000
-1.350500 0.000000
-1.307700 0.000000
-1.264800 0.000000
-1.221900 0.000000
-1.179100 0.000000
-1.136200 0.022300
-1.093300 0.068000
-1.050500 0.111200
-1.007600 0.156800
-0.964700 0.221300
-0.921900 0.320000
-0.879000 0.364300
-0.836100 0.411800
-0.793300 0.486500
-0.750400 0.539800
-0.707500 0.570900
-0.664700 0.591400
-0.621800 0.606800
-0.578900 0.609400
-0.536100 0.604500
-0.493200 0.615800
-0.450300 0.629000
-0.407500 0.640800
-0.364600 0.656000
-0.321800 0.671900
-0.278900 0.687600
-0.236000 0.701800
-0.193200 0.714200
-0.150300 0.725400
-0.107400 0.737200
-0.064600 0.748600
-0.021700 0.758800
0.021200 0.771200
0.064000 0.787300
0.106900 0.813700
0.149800 0.837600
0.192600 0.858800
0.235500 0.880600
0.278400 0.901800
0.321200 0.921800
0.364100 0.942200
0.407000 0.950700
0.449800 0.945200
0.492700 0.948800
0.535600 0.949900
0.578400 0.952600
0.621300 0.962800
0.664200 0.993800
0.707000 1.059600
0.749900 1.096300
0.792700 1.119600
0.835600 1.163800
0.878500 1.098700
0.921300 1.078600
0.964200 1.097500
1.007100 1.136200
1.049900 1.208300
1.092800 1.251800
1.135700 1.196000
1.178500 1.130700
1.221400 1.117600
1.264300 1.088300
1.307100 1.086300
1.350000 1.101500
1.392900 1.115800
1.435700 1.138200
1.478600 1.146500
1.521500 1.140900
1.564300 1.161000
1.607200 1.163700
1.650100 1.136800
1.692900 1.111000
1.735800 1.078200
1.778700 1.064800
1.821500 1.053600
1.864400 1.039200
1.907200 1.023600
1.950100 1.019400
1.993000 1.041800
2.035800 1.181000
2.078700 1.145200
2.121600 1.113100
2.164400 1.099300
2.207300 1.079400
2.250200 1.063300
2.293000 1.046400
2.335900 1.030400
2.378800 1.017400
2.421600 1.016800
2.464500 1.173400
2.507400 1.021700
2.550200 1.008800
2.593100 1.005000
2.636000 1.013800
2.678800 1.011100
2.721700 0.976900
2.764600 0.941300
2.807400 0.959800
2.850300 0.926400
2.893200 0.873200
2.936000 0.819300
2.978900 0.790800
3.021700 0.772900
3.064600 0.761400
3.107500 0.779300
3.150300 0.761500
3.193200 0.746000
3.236100 0.733200
3.278900 0.707800
3.321800 0.669500
3.364700 0.648500
3.407500 0.633600
3.450400 0.619700
3.493300 0.612900
3.536100 0.611400
3.579000 0.614700
3.621900 0.612900
3.664700 0.611300
3.707600 0.611000
3.750500 0.619700
3.793300 0.650700
3.836200 0.638400
3.879100 0.572800
3.921900 0.532300
3.964800 0.517100
4.007700 0.510000
4.050500 0.511000
4.093400 0.503900
4.136200 0.497700
4.179100 0.491100
4.222000 0.481800
4.264800 0.467000
4.307700 0.445700
4.350600 0.439000
4.393400 0.431900
4.436300 0.424400
4.479200 0.417900
4.522000 0.412700
4.564900 0.409900
4.607800 0.431000
4.650600 0.466500
4.693500 0.453600
4.736400 0.434200
4.779200 0.424900
4.822100 0.428100
4.865000 0.425500
4.907800 0.422000
4.950700 0.423600
4.993600 0.447600
5.036400 0.443300
5.079300 0.439000
5.122200 0.452400
5.165000 0.465100
5.207900 0.477700
5.250700 0.486500
5.293600 0.488900
5.336500 0.480200
5.379300 0.458700
5.422200 0.459100
5.465100 0.460700
5.507900 0.463400
5.550800 0.467300
5.593700 0.472600
5.636500 0.478800
5.679400 0.484300
5.722300 0.489300
5.765100 0.493900
5.808000 0.503100
5.850900 0.525200
5.893700 0.543400
5.936600 0.562200
5.979500 0.583400
6.022300 0.628900
6.065200 0.646500
6.108100 0.681800
6.150900 0.736700
6.193800 0.885200
6.236700 0.794700
6.279500 0.817400
6.322400 0.836900
6.365200 0.832200
6.408100 0.833600
6.451000 0.859300
6.493800 0.889100
6.536700 0.927000
6.579600 1.006600
6.622400 0.955100
6.665300 0.963500
6.708200 0.981400
6.751000 1.001000
6.793900 1.012400
6.836800 0.900400
6.879600 0.896800
6.922500 0.899500
6.965400 0.908000
7.008200 0.919000
7.051100 0.930900
7.094000 0.966400
7.136800 0.952200
7.179700 0.960700
7.222600 0.969300
7.265400 0.978700
7.308300 0.993300
7.351200 1.019500
7.394000 1.057000
7.436900 1.097000
7.479800 1.128000
7.522600 1.154900
7.565500 1.105400
7.608300 1.184300
7.651200 1.228000
7.694100 1.269200
7.736900 1.272400
7.779800 1.254100
7.822700 1.235400
7.865500 1.233900
7.908400 1.226300
7.951300 1.145200
7.994100 1.079700
8.037000 1.012300
8.079900 0.930900
8.122700 0.831500
8.165600 0.799300
8.208500 0.814900
8.251300 0.824600
8.294200 0.833500
8.337100 0.847300
8.379900 0.826200
8.422800 0.826100
8.465700 0.827200
8.508500 0.831000
8.551400 0.834900
8.594300 0.845200
8.637100 0.845900
8.680000 0.837500
8.722800 0.797700
8.765700 0.764300
8.808600 0.759000
8.851400 0.773700
8.894300 0.803000
8.937200 0.851700
8.980000 0.935500
9.022900 1.059800
9.065800 1.147100
9.108600 1.234400
9.151500 1.327200
9.194400 1.427800
9.237200 1.541200
9.280100 1.671000
9.323000 1.852500
9.365800 2.227100
9.408700 2.935000
9.451600 55.142200
9.494400 3.048100
9.537300 1.992400
9.580200 1.573400
9.623000 1.360500
9.665900 1.244700
9.708800 1.190800
9.751600 1.150900
9.794500 1.148100
9.837300 1.169700
9.880200 1.180400
9.923100 1.169100
9.965900 1.159300
10.008800 1.134700
10.051700 1.109200
10.094500 1.072900
10.137400 1.046000
10.180300 1.098900
10.223100 1.123400
10.266000 1.077000
10.308900 0.952400
10.351700 0.875400
10.394600 0.841400
10.437500 0.826400
10.480300 0.819600
10.523200 0.819500
10.566100 0.818700
10.608900 0.800900
10.651800 0.783900
10.694700 0.775700
10.737500 0.777100
10.780400 0.785900
10.823300 0.791400
10.866100 0.796700
10.909000 0.803200
10.951800 0.811200
10.994700 0.836500
11.037600 0.849400
11.080400 0.864100
11.123300 0.877000
11.166200 0.890100
11.209000 0.904100
11.251900 0.913400
11.294800 0.948600
11.337600 1.099100
11.380500 1.099600
11.423400 0.961200
11.466200 0.970100
11.509100 0.982200
11.552000 0.996200
11.594800 1.018300
11.637700 1.012900
11.680600 1.005900
11.723400 1.021200
11.766300 1.034300
11.809200 1.046700
11.852000 1.063600
11.894900 1.100100
11.937800 1.083100
11.980600 1.083600
12.023500 1.105100
12.066300 1.116800
12.109200 1.117500
12.152100 1.125200
12.194900 1.120300
12.237800 1.120800
12.280700 1.141200
12.323500 1.185200
12.366400 1.186500
12.409300 1.190600
12.452100 1.133000
12.495000 1.149700
12.537900 1.171300
12.580700 1.198100
12.623600 1.232700
12.666500 1.269700
12.709300 1.253800
12.752200 1.249100
12.795100 1.268100
12.837900 1.298700
12.880800 1.326300
12.923700 1.490300
12.966500 1.426300
13.009400 1.394100
13.052300 1.364400
13.095100 1.331800
13.138000 1.325400
13.180800 1.324700
13.223700 1.341700
13.266600 1.393300
13.309400 1.423600
13.352300 1.370400
13.395200 1.349100
13.438000 1.342400
13.480900 1.352000
13.523800 1.381400
13.566600 1.385900
13.609500 1.430200
13.652400 1.443400
13.695200 1.458000
13.738100 1.463000
13.781000 1.372600
13.823800 1.308800
13.866700 1.290200
13.909600 1.284600
13.952400 1.280500
13.995300 1.283500
14.038200 1.260400
14.081000 1.271400
14.123900 1.273500
14.166800 1.278000
14.209600 1.322700
14.252500 1.393600
14.295300 1.413700
14.338200 1.442000
14.381100 1.502800
14.423900 1.564500
14.466800 1.614200
14.509700 1.670600
14.552500 1.661100
14.595400 1.478500
14.638300 1.359000
14.681100 1.275400
14.724000 1.203100
14.766900 1.158400
14.809700 1.138500
14.852600 1.223100
14.895500 1.123000
14.938300 1.092500
14.981200 1.083100
15.024100 1.092800
15.066900 1.136300
15.109800 1.197600
15.152700 1.175100
15.195500 1.135300
15.238400 1.115000
15.281300 1.092300
15.324100 1.109300
15.367000 1.126000
15.409800 1.158000
15.452700 1.197100
15.495600 1.282700
15.538400 1.257200
15.581300 1.265000
15.624200 1.270700
15.667000 1.274600
15.709900 1.262700
15.752800 1.214200
15.795600 1.199100
15.838500 1.166800
15.881400 1.129100
15.924200 1.096300
15.967100 1.096600
16.010000 1.110400
16.052800 1.124500
16.095700 1.152100
16.138600 1.230500
16.181400 1.282500
16.224300 1.350400
16.267200 1.436400
16.310000 1.546300
16.352900 1.649000
16.395800 1.738100
16.438600 1.790900
16.481500 1.826300
16.524400 1.843900
16.567200 1.866600
16.610100 1.887400
16.652900 1.801700
16.695800 1.701700
16.738700 1.683700
16.781500 1.657800
16.824400 1.604600
16.867300 1.570900
16.910100 1.554800
16.953000 1.537600
16.995900 1.515200
17.038700 1.483400
17.081600 1.461500
17.124500 1.442300
17.167300 1.426800
17.210200 1.413400
17.253100 1.367700
17.295900 1.355600
17.338800 1.353200
17.381700 1.362100
17.424500 1.375700
17.467400 1.365500
17.510300 1.337900
17.553100 1.258700
17.596000 1.206900
17.638900 1.176700
17.681700 1.217900
17.724600 1.254100
17.767400 1.291300
17.810300 1.338800
17.853200 1.368000
17.896000 1.402800
17.938900 1.416500
17.981800 1.405400
18.024600 1.347400
18.067500 1.303600
18.110400 1.271900
18.153200 1.239100
18.196100 1.207600
18.239000 1.201900
18.281800 1.182400
18.324700 1.191500
18.367600 1.206300
18.410400 1.212100
18.453300 1.220200
18.496200 1.225800
18.539000 1.262400
18.581900 1.291700
18.624800 1.319700
18.667600 1.323400
18.710500 1.317300
18.753400 1.308300
18.796200 1.297300
18.839100 1.287200
18.881900 1.274800
18.924800 1.301300
18.967700 1.323300
19.010500 1.290700
19.053400 1.284500
19.096300 1.248600
19.139100 1.229300
19.182000 1.226200
19.224900 1.216500
19.267700 1.198700
19.310600 1.194600
19.353500 1.209100
19.396300 1.220200
19.439200 1.328100
19.482100 1.427200
19.524900 1.534600
19.567800 1.547900
19.610700 1.531300
19.653500 1.517200
19.696400 1.497700
19.739300 1.479800
19.782100 1.519900
19.825000 1.563900
19.867900 1.601800
19.910700 1.691800
19.953600 1.578700
19.996400 1.552500
20.039300 1.434000
20.082200 1.347000
20.125000 1.285700
20.167900 1.239300
20.210800 1.236500
20.253600 1.251200
20.296500 1.264400
20.339400 1.390800
20.382200 1.353300
20.425100 1.335300
20.468000 1.255900
20.510800 1.253400
20.553700 1.268200
20.596600 1.286100
20.639400 1.306000
20.682300 1.388600
20.725200 1.436500
20.768000 1.421400
20.810900 1.465600
20.853800 1.460800
20.896600 1.459000
20.939500 1.474000
20.982400 1.518900
21.025200 1.548800
21.068100 1.546700
21.110900 1.525900
21.153800 1.507800
21.196700 1.497400
21.239500 1.491400
21.282400 1.475400
21.325300 1.458100
21.368100 1.417900
21.411000 1.377300
21.453900 1.348500
21.496700 1.328500
21.539600 1.356300
21.582500 1.403500
21.625300 1.479400
21.668200 1.516800
21.711100 1.652700
21.753900 1.774300
21.796800 1.859200
21.839700 1.782000
21.882500 1.715700
21.925400 1.762900
21.968300 1.618700
22.011100 1.548100
22.054000 1.542000
22.096900 1.541900
22.139700 1.546500
22.182600 1.556500
22.225400 1.581900
22.268300 1.598500
22.311200 1.617000
22.354000 1.636600
22.396900 1.658100
22.439800 1.659300
22.482600 1.642800
22.525500 1.606900
22.568400 1.591900
22.611200 1.572400
22.654100 1.547800
22.697000 1.533100
22.739800 1.518800
22.782700 1.504000
22.825600 1.518600
22.868400 1.519900
22.911300 1.530600
22.954200 1.548800
22.997000 1.568800
23.039900 1.572800
23.082800 1.555600
23.125600 1.601400
23.168500 1.552600
23.211400 1.504800
23.254200 1.445200
23.297100 1.394700
23.339900 1.348800
23.382800 1.234100
23.425700 1.163600
23.468500 1.141000
23.511400 1.131800
23.554300 1.156600
23.597100 1.214500
23.640000 1.278600
23.682900 1.335800
23.725700 1.431300
23.768600 1.503800
23.811500 1.572100
23.854300 1.669500
23.897200 1.771700
23.940100 1.887900
23.982900 2.023500
24.025800 2.115300
24.068700 2.182100
24.111500 2.124700
24.154400 2.092400
24.197300 2.023800
24.240100 1.940400
24.283000 1.817800
24.325900 1.745200
24.368700 1.689600
24.411600 1.710200
24.454400 1.583300
24.497300 1.540100
24.540200 1.505300
24.583000 1.464000
24.625900 1.429800
24.668800 1.398800
24.711600 1.397600
24.754500 1.414900
24.797400 1.447200
24.840200 1.487400
24.883100 1.514800
24.926000 1.534400
24.968800 1.558300
25.011700 1.565600
25.054600 1.571900
25.097400 1.592000
25.140300 1.610200
25.183200 1.627100
25.226000 1.685400
25.268900 1.691900
25.311800 1.686700
25.354600 1.669500
25.397500 1.639500
25.440400 1.622000
25.483200 1.618500
25.526100 1.623200
25.569000 1.630600
25.611800 1.601200
25.654700 1.575600
25.697500 1.568000
25.740400 1.575400
25.783300 1.568800
25.826100 1.568700
25.869000 1.582800
25.911900 1.588200
25.954700 1.624100
25.997600 1.605100
26.040500 1.608200
26.083300 1.642100
26.126200 1.693700
26.169100 1.689300
26.211900 1.729400
26.254800 1.701100
26.297700 1.664500
26.340500 1.634500
26.383400 1.611000
26.426300 1.596900
26.469100 1.633100
26.512000 1.680100
26.554900 1.741400
26.597700 1.804200
26.640600 1.892500
26.683500 1.951000
26.726300 1.989300
26.769200 2.007800
26.812000 1.990600
26.854900 1.972500
26.897800 1.943200
26.940600 1.918300
26.983500 1.883500
27.026400 1.838400
27.069200 1.808600
27.112100 1.779600
27.155000 1.732600
27.197800 1.668100
27.240700 1.649900
27.283600 1.668100
27.326400 1.658100
27.369300 1.646700
27.412200 1.650500
27.455000 1.655400
27.497900 1.688200
27.540800 1.737600
27.583600 1.784800
27.626500 1.811300
27.669400 1.835900
27.712200 1.890200
27.755100 1.913400
27.798000 1.910100
27.840800 1.926400
27.883700 1.947200
27.926500 1.973100
27.969400 1.961800
28.012300 1.956600
28.055100 1.944400
28.098000 1.887000
28.140900 1.859300
28.183700 1.827700
28.226600 1.786300
28.269500 1.760200
28.312300 1.728700
28.355200 1.711100
28.398100 1.700900
28.440900 1.677500
28.483800 1.676000
28.526700 1.679400
28.569500 1.677500
28.612400 1.676500
28.655300 1.681200
28.698100 1.708000
28.741000 1.740200
28.783900 1.772800
28.826700 1.837500
28.869600 1.912500
28.912500 2.005100
28.955300 2.042900
28.998200 2.036800
29.041000 1.985900
29.083900 1.934400
29.126800 1.872600
29.169600 1.824200
29.212500 1.778700
29.255400 1.745400
29.298200 1.702800
29.341100 1.719000
29.384000 1.738000
29.426800 1.747400
29.469700 1.760600
29.512600 1.734100
29.555400 1.706000
29.598300 1.706000
29.641200 1.706400
29.684000 1.712100
29.726900 1.717900
29.769800 1.771000
29.812600 1.736500
29.855500 1.725100
29.898400 1.716700
29.941200 1.679200
29.984100 1.632900
30.027000 1.612700
30.069800 1.644100
30.112700 1.654500
30.155500 1.674800
30.198400 1.743800
30.241300 1.779000
30.284100 1.826300
30.327000 1.856600
30.369900 1.888100
30.412700 1.900500
30.455600 1.882700
30.498500 1.848200
30.541300 1.782400
30.584200 1.733400
30.627100 1.691300
30.669900 1.661800
30.712800 1.631700
30.755700 1.629500
30.798500 1.654900
30.841400 1.690900
30.884300 1.708400
30.927100 1.745600
30.970000 1.772500
31.012900 1.683000
31.055700 1.640300
31.098600 1.592900
31.141500 1.584500
31.184300 1.511700
31.227200 1.492800
31.270000 1.487300
31.312900 1.453200
31.355800 1.442100
31.398600 1.460900
31.441500 1.465600
31.484400 1.468300
31.527200 1.468400
31.570100 1.447200
31.613000 1.442700
31.655800 1.450900
31.698700 1.462000
31.741600 1.496600
31.784400 1.544200
31.827300 1.596600
31.870200 1.626900
31.913000 1.664300
31.955900 1.708600
31.998800 1.729200
32.041600 1.750400
32.084500 1.731300
32.127400 1.695900
32.170200 1.696700
32.213100 1.692200
32.256000 1.688100
32.298800 1.707200
32.341700 1.688000
32.384500 1.683500
32.427400 1.658500
32.470300 1.656900
32.513100 1.675700
32.556000 1.692000
32.598900 1.709700
32.641700 1.751400
32.684600 1.829500
32.727500 1.898400
32.770300 1.860500
32.813200 1.873300
32.856100 1.922900
32.898900 1.964800
32.941800 2.024000
32.984700 1.957600
33.027500 1.924000
33.070400 1.874000
33.113300 1.861500
33.156100 1.870700
33.199000 1.795300
33.241900 1.788000
33.284700 1.766500
33.327600 1.732400
33.370500 1.669900
33.413300 1.631700
33.456200 1.622100
33.499000 1.617500
33.541900 1.591200
33.584800 1.557100
33.627600 1.537100
33.670500 1.516900
33.713400 1.540700
33.756200 1.560400
33.799100 1.588500
33.842000 1.616000
33.884800 1.651900
33.927700 1.673300
33.970600 1.680200
34.013400 1.701400
34.056300 1.683100
34.099200 1.665700
34.142000 1.630700
34.184900 1.626600
34.227800 1.655100
34.270600 1.685100
34.313500 1.727300
34.356400 1.740600
34.399200 1.750200
34.442100 1.778600
34.485000 1.815100
34.527800 1.863400
34.570700 1.953100
34.613600 2.090800
34.656400 2.055700
34.699300 2.062000
34.742100 2.071000
34.785000 1.992500
34.827900 1.943500
34.870700 1.877800
34.913600 1.811400
34.956500 1.811300
34.999300 1.785700
35.042200 1.776100
35.085100 1.799900
35.127900 1.775900
35.170800 1.783000
35.213700 1.812200
35.256500 1.842800
35.299400 1.874800
35.342300 2.007600
35.385100 2.026700
35.428000 2.070100
35.470900 2.121600
35.513700 2.212100
35.556600 2.349200
35.599500 2.478800
35.642300 2.528400
35.685200 2.406700
35.728100 2.199000
35.770900 1.965400
35.813800 1.849600
35.856600 1.820200
35.899500 1.787100
35.942400 1.786500
35.985200 1.742400
36.028100 1.741900
36.071000 1.766900
36.113800 1.821900
36.156700 1.890100
36.199600 1.953200
36.242400 1.983000
36.285300 1.979400
36.328200 1.971900
36.371000 1.993800
36.413900 2.012200
36.456800 2.029400
36.499600 2.013900
36.542500 2.007600
36.585400 1.974500
36.628200 1.960700
36.671100 1.917000
36.714000 1.870800
36.756800 1.802400
36.799700 1.771700
36.842600 1.745900
36.885400 1.731700
36.928300 1.736300
36.971100 1.753300
37.014000 1.763000
37.056900 1.809200
37.099700 1.853900
37.142600 1.908300
37.185500 1.986000
37.228300 2.048200
37.271200 2.084000
37.314100 2.123200
37.356900 2.231800
37.399800 2.325500
37.442700 2.363300
37.485500 2.333400
37.528400 2.277600
37.571300 2.215800
37.614100 2.195900
37.657000 2.200600
37.699900 2.197000
37.742700 2.168800
37.785600 2.129100
37.828500 2.117000
37.871300 2.114500
37.914200 2.170500
37.957100 2.096500
37.999900 2.085900
38.042800 2.070100
38.085600 2.061100
38.128500 2.060000
38.171400 2.110200
38.214200 2.120300
38.257100 2.142600
38.300000 2.146500
38.342800 2.117200
38.385700 2.002200
38.428600 1.964900
38.471400 1.922400
38.514300 1.866100
38.557200 1.832300
38.600000 1.805900
38.642900 1.794300
38.685800 1.779000
38.728600 1.780800
38.771500 1.784900
38.814400 1.783100
38.857200 1.817900
38.900100 1.813800
38.943000 1.843800
38.985800 1.878400
39.028700 1.922000
39.071600 1.956100
39.114400 1.966300
39.157300 1.994000
39.200100 2.025000
39.243000 2.063600
39.285900 2.082300
39.328700 2.087200
39.371600 2.078200
39.414500 2.071700
39.457300 2.088900
39.500200 2.105100
39.543100 2.116600
39.585900 2.125800
39.628800 2.142700
39.671700 2.153300
39.714500 2.132200
39.757400 2.131000
39.800300 2.149500
39.843100 2.167500
39.886000 2.203600
39.928900 2.240900
39.971700 2.249100
40.014600 2.260400
40.057500 2.295200
40.100300 2.333000
40.143200 2.379200
40.186100 2.310700
40.228900 2.264200
40.271800 2.246000
40.314600 2.231700
40.357500 2.171500
40.400400 2.187600
40.443200 2.205800
40.486100 2.186400
40.529000 2.203500
40.571800 2.248800
40.614700 2.259500
40.657600 2.258400
40.700400 2.252800
40.743300 2.250600
40.786200 2.364800
40.829000 2.389600
40.871900 2.245400
40.914800 2.260200
40.957600 2.258800
41.000500 2.167800
41.043400 2.118000
41.086200 2.049400
41.129100 2.033800
41.172000 2.028900
41.214800 2.021800
41.257700 2.017600
41.300600 2.016600
41.343400 2.012100
41.386300 2.038800
41.429100 2.060800
41.472000 2.071200
41.514900 2.123900
41.557700 2.195900
41.600600 2.209400
41.643500 2.249300
41.686300 2.153300
41.729200 2.130400
41.772100 2.037400
41.814900 1.962500
41.857800 1.900600
41.900700 1.853800
41.943500 1.825600
41.986400 1.803000
42.029300 1.842400
42.072100 1.958100
42.115000 2.033900
42.157900 1.977000
42.200700 1.943600
42.243600 1.941300
42.286500 1.917300
42.329300 1.925800
42.372200 1.937600
42.415100 1.948200
42.457900 1.954400
42.500800 1.924200
42.543700 1.921900
42.586500 1.901600
42.629400 1.877400
42.672200 1.858200
42.715100 1.837300
42.758000 1.825300
42.800800 1.802600
42.843700 1.788900
42.886600 1.743000
42.929400 1.740000
42.972300 1.733500
43.015200 1.722200
43.058000 1.704400
43.100900 1.680800
43.143800 1.656000
43.186600 1.627400
43.229500 1.612700
43.272400 1.573700
43.315200 1.552600
43.358100 1.534600
43.401000 1.521500
43.443800 1.501900
43.486700 1.522900
43.529600 1.546300
43.572400 1.579900
43.615300 1.650200
43.658200 1.743100
43.701000 1.838900
43.743900 1.959100
43.786700 2.012000
43.829600 2.036800
43.872500 2.048100
43.915300 2.053400
43.958200 2.006500
44.001100 1.971000
44.043900 2.028800
44.086800 2.046100
44.129700 2.070200
44.172500 2.091400
44.215400 2.066900
44.258300 2.058900
44.301100 2.083600
44.344000 2.124600
44.386900 2.160400
44.429700 2.318400
44.472600 2.127500
44.515500 2.128400
44.558300 2.173500
44.601200 2.221500
44.644100 2.226800
44.686900 2.290700
44.729800 2.261400
44.772700 2.191000
44.815500 2.159200
44.858400 2.033400
44.901200 1.998800
44.944100 1.952500
44.987000 1.896700
45.029800 1.827700
45.072700 1.752100
45.115600 1.723800
45.158400 1.690600
45.201300 1.739000
45.244200 1.751600
45.287000 1.797400
45.329900 1.846000
45.372800 1.896800
45.415600 1.958100
45.458500 1.984200
45.501400 1.984200
45.544200 1.981200
45.587100 1.957700
45.630000 1.940300
45.672800 1.904600
45.715700 1.932500
45.758600 1.983900
45.801400 2.023500
45.844300 2.075500
45.887200 2.084000
45.930000 2.092300
45.972900 2.098400
46.015700 2.253200
46.058600 2.209300
46.101500 2.104600
46.144300 2.111800
46.187200 2.123700
46.230100 2.106600
46.272900 2.102500
46.315800 2.095600
46.358700 2.161800
46.401500 2.225800
46.444400 2.253400
46.487300 2.287700
46.530100 2.315100
46.573000 2.324600
46.615900 2.358300
46.658700 2.440700
46.701600 2.485600
46.744500 2.385400
46.787300 2.179400
46.830200 2.142800
46.873100 2.134700
46.915900 2.147900
46.958800 2.107700
47.001700 2.077100
47.044500 2.031200
47.087400 2.045300
47.130200 2.073500
47.173100 2.110200
47.216000 2.155900
47.258800 2.196200
47.301700 2.356200
47.344600 2.382600
47.387400 2.325900
47.430300 2.291800
47.473200 2.291700
47.516000 2.238500
47.558900 2.238300
47.601800 2.300000
47.644600 2.442400
47.687500 2.447800
47.730400 2.497000
47.773200 2.510700
47.816100 2.570000
47.859000 2.526400
47.901800 2.339800
47.944700 2.243300
47.987600 2.172900
48.030400 2.099200
48.073300 2.030600
48.116200 1.961300
48.159000 1.914900
48.201900 1.897100
48.244700 1.870400
48.287600 1.897500
48.330500 1.909500
48.373300 2.029000
48.416200 2.145200
48.459100 2.281600
48.501900 2.414300
48.544800 2.531100
48.587700 2.628300
48.630500 2.713300
48.673400 2.687500
48.716300 2.589600
48.759100 2.473100
48.802000 2.447700
48.844900 2.125200
48.887700 1.955700
48.930600 1.851400
48.973500 1.791000
49.016300 1.755200
49.059200 1.752900
49.102100 1.793600
49.144900 1.860800
49.187800 1.943000
49.230700 2.014900
49.273500 2.022200
49.316400 2.047700
49.359200 2.077900
49.402100 2.096100
49.445000 2.045100
49.487800 2.036800
49.530700 2.061200
49.573600 2.087900
49.616400 2.117400
49.659300 2.107800
49.702200 2.069700
49.745000 2.065800
49.787900 2.071400
49.830800 2.094300
49.873600 2.118200
49.916500 2.137700
49.959400 2.187300
50.002200 2.271400
50.045100 2.271800
50.088000 2.295900
50.130800 2.255300
50.173700 2.235000
50.216600 2.168500
50.259400 2.188200
50.302300 2.234700
50.345200 2.228000
50.388000 2.243500
50.430900 2.266500
50.473700 2.290500
50.516600 2.273800
50.559500 2.249800
50.602300 2.243800
50.645200 2.285200
50.688100 2.267600
50.730900 2.265500
50.773800 2.265300
50.816700 2.320000
50.859500 2.366700
50.902400 2.417300
50.945300 2.392800
50.988100 2.414900
51.031000 2.444100
51.073900 2.363300
51.116700 2.320300
51.159600 2.275200
51.202500 2.199900
51.245300 2.142000
51.288200 2.103300
51.331100 2.113900
51.373900 2.147100
51.416800 2.148100
51.459700 2.114800
51.502500 2.152700
51.545400 2.217300
51.588300 2.315500
51.631100 2.324700
51.674000 2.293100
51.716800 2.270400
51.759700 2.282800
51.802600 2.303300
51.845400 2.299800
51.888300 2.281600
51.931200 2.246700
51.974000 2.222100
52.016900 2.145800
52.059800 2.078400
52.102600 2.055700
52.145500 2.014600
52.188400 1.983900
52.231200 1.913600
52.274100 1.928300
52.317000 1.918800
52.359800 1.926800
52.402700 1.949200
52.445600 1.967200
52.488400 1.973100
52.531300 1.984400
52.574200 2.021400
52.617000 2.122100
52.659900 2.108500
52.702800 2.091500
52.745600 2.062300
52.788500 2.011700
52.831300 1.933900
52.874200 1.870500
52.917100 1.761000
52.959900 1.690800
53.002800 1.641300
53.045700 1.584100
53.088500 1.553200
53.131400 1.501300
53.174300 1.444900
53.217100 1.412200
53.260000 1.403300
53.302900 1.385900
53.345700 1.342900
53.388600 1.301500
53.431500 1.286100
53.474300 1.289900
53.517200 1.295300
53.560100 1.285100
53.602900 1.303400
53.645800 1.279100
53.688700 1.265400
53.731500 1.254800
53.774400 1.246800
53.817300 1.249500
53.860100 1.236300
53.903000 1.191300
53.945800 1.106800
53.988700 1.035000
54.031600 0.984500
54.074400 0.935800
54.117300 0.891800
54.160200 0.845800
54.203000 0.800900
54.245900 0.751100
54.288800 0.714300
54.331600 0.692100
54.374500 0.676800
54.417400 0.657900
54.460200 0.645700
54.503100 0.638400
54.546000 0.631600
54.588800 0.580400
54.631700 0.576100
54.674600 0.568500
54.717400 0.563400
54.760300 0.564500
54.803200 0.545900
54.846000 0.514600
54.888900 0.511700
54.931800 0.472500
54.974600 0.441300
55.017500 0.418600
55.060300 0.429800
55.103200 0.432200
55.146100 0.415200
55.188900 0.397200
55.231800 0.396100
55.274700 0.392300
55.317500 0.382600
55.360400 0.338800
55.403300 0.309400
55.446100 0.299400
55.489000 0.290000
55.531900 0.283200
55.574700 0.277200
55.617600 0.270400
55.660500 0.263100
55.703300 0.257000
55.746200 0.253900
55.789100 0.276800
55.831900 0.280200
55.874800 0.280000
55.917700 0.284000
55.960500 0.281600
56.003400 0.246900
56.046300 0.217000
56.089100 0.181300
56.132000 0.153300
56.174800 0.132200
56.217700 0.105000
56.260600 0.074200
56.303400 0.065100
56.346300 0.056700
56.389200 0.048800
56.432000 0.041700
56.474900 0.036200
56.517800 0.031100
56.560600 0.026400
56.603500 0.022200
56.646400 0.018600
56.689200 0.015500
56.732100 0.013000
56.775000 0.010800
56.817800 0.008900
56.860700 0.006800
56.903600 0.005000
56.946400 0.003600
56.989300 0.002500
57.032200 0.001800
57.075000 0.001200
57.117900 0.000800
57.160800 0.000400
57.203600 0.000200
57.246500 0.000000
57.289300 0.000000
57.332200 0.000000
57.375100 0.000000
57.417900 0.000000
57.460800 0.000000
57.503700 0.000000
57.546500 0.000000
57.589400 0.000000
57.632300 0.000000
57.675100 0.000000
57.718000 0.000000
57.760900 0.000000
57.803700 0.000000
57.846600 0.000000
57.889500 0.000000
57.932300 0.000000
57.975200 0.000000
58.018100 0.000000
58.060900 0.000000
58.103800 0.000000
58.146700 0.000000
58.189500 0.000000
58.232400 0.000000
58.275300 0.000000
58.318100 0.000000
58.361000 0.000000
58.403800 0.000000
58.446700 0.000000
58.489600 0.000000
58.532400 0.000000
58.575300 0.000000
58.618200 0.000000
58.661000 0.000000
58.703900 0.000000
58.746800 0.000000
58.789600 0.000000
58.832500 0.000000
58.875400 0.000000
58.918200 0.000000
58.961100 0.000000
59.004000 0.000000
59.046800 0.000000
59.089700 0.000000
59.132600 0.000000
59.175400 0.000000
59.218300 0.000000
59.261200 0.000000
59.304000 0.000000
59.346900 0.000000
59.389800 0.000000
59.432600 0.000000
59.475500 0.000000
59.518300 0.000000
59.561200 0.000000
59.604100 0.000000
59.646900 0.000000
59.689800 0.000000
59.732700 0.000000
59.775500 0.000000
59.818400 0.000000
59.861300 0.000000
59.904100 0.000000
59.947000 0.000000
59.989900 0.000000
60.032700 0.000000
60.075600 0.000000
60.118500 0.000000
60.161300 0.000000
60.204200 0.000000
60.247100 0.000000
60.289900 0.000000
60.332800 0.000000
60.375700 0.000000
60.418500 0.000000
60.461400 0.000000
60.504300 0.000000
60.547100 0.000000
60.590000 0.000000
60.632900 0.000000
60.675700 0.000000
60.718600 0.000000
60.761400 0.000000
60.804300 0.000000
60.847200 0.000000
60.890000 0.000000
60.932900 0.000000
60.975800 0.000000
61.018600 0.000000
61.061500 0.000000
61.104400 0.000000
61.147200 0.000000
61.190100 0.000000
e
