set title 'mp-1014287 - Density of States'
set xlabel 'Energy (eV)'
set ylabel 'DOS (states/eV)'
set grid
set xrange [-10:10]
set yrange [0:7.185]
set xzeroaxis lt -1
set terminal png size 800,600
set output 'mp-1014287_dos_gnuplot.png'
plot '-' using 1:2 with lines title 'DOS'
-19.545800 0.000000
-19.519500 0.000000
-19.493200 0.000000
-19.467000 0.000000
-19.440700 0.000000
-19.414500 0.000000
-19.388200 0.000000
-19.361900 0.000000
-19.335700 0.000000
-19.309400 0.000000
-19.283100 0.000000
-19.256900 0.000000
-19.230600 0.000000
-19.204300 0.000000
-19.178100 0.000000
-19.151800 0.000000
-19.125600 0.000000
-19.099300 0.000000
-19.073000 0.000000
-19.046800 0.000000
-19.020500 0.000000
-18.994200 0.000000
-18.968000 0.000000
-18.941700 0.000000
-18.915500 0.000000
-18.889200 0.000000
-18.862900 0.000000
-18.836700 0.000000
-18.810400 0.000000
-18.784100 0.000000
-18.757900 0.000000
-18.731600 0.000000
-18.705300 0.000000
-18.679100 0.000000
-18.652800 0.000000
-18.626600 0.000000
-18.600300 0.000000
-18.574000 0.000000
-18.547800 0.000000
-18.521500 0.000000
-18.495200 0.000000
-18.469000 0.000000
-18.442700 0.000000
-18.416400 0.000000
-18.390200 0.000000
-18.363900 0.000000
-18.337700 0.000000
-18.311400 0.000000
-18.285100 0.000000
-18.258900 0.000000
-18.232600 0.000000
-18.206300 0.000000
-18.180100 0.000000
-18.153800 0.000000
-18.127500 0.000000
-18.101300 0.000000
-18.075000 0.000000
-18.048800 0.000000
-18.022500 0.000000
-17.996200 0.000000
-17.970000 0.000000
-17.943700 0.000000
-17.917400 0.000000
-17.891200 0.000000
-17.864900 0.000000
-17.838600 0.000000
-17.812400 0.000000
-17.786100 0.000000
-17.759900 0.000000
-17.733600 0.000000
-17.707300 0.000000
-17.681100 0.000000
-17.654800 0.000000
-17.628500 0.000000
-17.602300 0.000000
-17.576000 0.000000
-17.549700 0.000000
-17.523500 0.000000
-17.497200 0.000000
-17.471000 0.000000
-17.444700 0.000000
-17.418400 0.000000
-17.392200 0.000000
-17.365900 0.000000
-17.339600 0.000000
-17.313400 0.000000
-17.287100 0.000100
-17.260900 0.000800
-17.234600 0.006700
-17.208300 0.034900
-17.182100 0.113100
-17.155800 0.240700
-17.129500 0.368000
-17.103300 0.470800
-17.077000 0.581900
-17.050700 0.700900
-17.024500 0.770600
-16.998200 0.754500
-16.972000 0.661300
-16.945700 0.550100
-16.919400 0.516400
-16.893200 0.592500
-16.866900 0.700100
-16.840600 0.773300
-16.814400 0.843400
-16.788100 0.895800
-16.761800 0.847700
-16.735600 0.721200
-16.709300 0.585600
-16.683100 0.443200
-16.656800 0.361400
-16.630500 0.459200
-16.604300 0.678800
-16.578000 0.860500
-16.551700 1.001700
-16.525500 1.118300
-16.499200 1.074200
-16.472900 0.846300
-16.446700 0.626600
-16.420400 0.535300
-16.394200 0.532300
-16.367900 0.560900
-16.341600 0.609200
-16.315400 0.694100
-16.289100 0.816700
-16.262800 0.936400
-16.236600 1.020600
-16.210300 1.040000
-16.184000 0.976600
-16.157800 0.936000
-16.131500 0.995200
-16.105300 1.028500
-16.079000 1.011800
-16.052700 1.077100
-16.026500 1.228200
-16.000200 1.417000
-15.973900 1.643800
-15.947700 2.001600
-15.921400 2.661500
-15.895100 3.638800
-15.868900 4.748100
-15.842600 5.838300
-15.816400 6.875700
-15.790100 7.722400
-15.763800 8.062400
-15.737600 7.716700
-15.711300 6.737600
-15.685000 5.309200
-15.658800 3.842000
-15.632500 2.727600
-15.606300 2.080000
-15.580000 1.811500
-15.553700 1.682600
-15.527500 1.477600
-15.501200 1.238400
-15.474900 1.125700
-15.448700 1.098900
-15.422400 1.046800
-15.396100 1.039400
-15.369900 1.113400
-15.343600 1.143400
-15.317400 1.048000
-15.291100 0.877800
-15.264800 0.779600
-15.238600 0.829000
-15.212300 0.964600
-15.186000 1.130800
-15.159800 1.197200
-15.133500 1.132800
-15.107200 1.103400
-15.081000 1.134600
-15.054700 1.209700
-15.028500 1.308100
-15.002200 1.277300
-14.975900 1.060600
-14.949700 0.754300
-14.923400 0.534600
-14.897100 0.543700
-14.870900 0.708300
-14.844600 0.849900
-14.818300 0.886800
-14.792100 0.858800
-14.765800 0.830000
-14.739600 0.786700
-14.713300 0.698700
-14.687000 0.580200
-14.660800 0.444600
-14.634500 0.307300
-14.608200 0.246900
-14.582000 0.345300
-14.555700 0.530600
-14.529400 0.642500
-14.503200 0.651800
-14.476900 0.654100
-14.450700 0.657600
-14.424400 0.559700
-14.398100 0.363400
-14.371900 0.230000
-14.345600 0.264900
-14.319300 0.384900
-14.293100 0.455500
-14.266800 0.465300
-14.240500 0.479200
-14.214300 0.493000
-14.188000 0.455200
-14.161800 0.371200
-14.135500 0.292000
-14.109200 0.251000
-14.083000 0.238800
-14.056700 0.210900
-14.030400 0.153900
-14.004200 0.153300
-13.977900 0.348200
-13.951600 0.717800
-13.925400 0.948900
-13.899100 0.894700
-13.872900 0.871000
-13.846600 0.954700
-13.820300 0.806300
-13.794100 0.428200
-13.767800 0.151500
-13.741500 0.125600
-13.715300 0.355600
-13.689000 0.731900
-13.662800 0.896400
-13.636500 0.649100
-13.610200 0.277600
-13.584000 0.070100
-13.557700 0.011000
-13.531400 0.007700
-13.505200 0.050600
-13.478900 0.222100
-13.452600 0.578000
-13.426400 0.907800
-13.400100 0.940900
-13.373900 0.869700
-13.347600 0.974800
-13.321300 1.102700
-13.295100 1.125700
-13.268800 1.079700
-13.242500 0.851100
-13.216300 0.522300
-13.190000 0.499600
-13.163700 1.005200
-13.137500 1.642200
-13.111200 1.666900
-13.085000 1.026600
-13.058700 0.409800
-13.032400 0.242200
-13.006200 0.473800
-12.979900 0.809600
-12.953600 0.850300
-12.927400 0.551200
-12.901100 0.312900
-12.874800 0.513400
-12.848600 1.203900
-12.822300 1.882200
-12.796100 1.881000
-12.769800 1.278400
-12.743500 0.635000
-12.717300 0.235500
-12.691000 0.079800
-12.664700 0.114600
-12.638500 0.344500
-12.612200 0.779100
-12.585900 1.346700
-12.559700 1.871300
-12.533400 2.086900
-12.507200 1.949100
-12.480900 1.819600
-12.454600 1.858800
-12.428400 1.674800
-12.402100 1.079300
-12.375800 0.457300
-12.349600 0.123500
-12.323300 0.020900
-12.297000 0.002200
-12.270800 0.000100
-12.244500 0.000000
-12.218300 0.000000
-12.192000 0.000000
-12.165700 0.000100
-12.139500 0.000800
-12.113200 0.007700
-12.086900 0.043300
-12.060700 0.149200
-12.034400 0.318200
-12.008200 0.423500
-11.981900 0.353200
-11.955600 0.184600
-11.929400 0.060800
-11.903100 0.020900
-11.876800 0.058200
-11.850600 0.224000
-11.824300 0.566200
-11.798000 0.992500
-11.771800 1.389200
-11.745500 1.742100
-11.719300 1.846300
-11.693000 1.436600
-11.666700 0.749700
-11.640500 0.251400
-11.614200 0.053000
-11.587900 0.006900
-11.561700 0.000500
-11.535400 0.000000
-11.509100 0.000000
-11.482900 0.000000
-11.456600 0.000000
-11.430400 0.000100
-11.404100 0.001700
-11.377800 0.013100
-11.351600 0.060300
-11.325300 0.173500
-11.299000 0.320600
-11.272800 0.392400
-11.246500 0.325000
-11.220200 0.181900
-11.194000 0.067100
-11.167700 0.015900
-11.141500 0.003000
-11.115200 0.007400
-11.088900 0.044900
-11.062700 0.172000
-11.036400 0.414900
-11.010100 0.663600
-10.983900 0.772000
-10.957600 0.765100
-10.931300 0.766200
-10.905100 0.784400
-10.878800 0.726600
-10.852600 0.560700
-10.826300 0.339200
-10.800000 0.147700
-10.773800 0.042600
-10.747500 0.007700
-10.721200 0.000900
-10.695000 0.000400
-10.668700 0.003900
-10.642400 0.027400
-10.616200 0.125100
-10.589900 0.371400
-10.563700 0.741100
-10.537400 1.064700
-10.511100 1.238300
-10.484900 1.312300
-10.458600 1.395000
-10.432300 1.639300
-10.406100 2.150200
-10.379800 2.833300
-10.353600 3.414700
-10.327300 3.734000
-10.301000 3.888400
-10.274800 4.045600
-10.248500 4.291200
-10.222200 4.592400
-10.196000 4.794200
-10.169700 4.844200
-10.143400 4.970600
-10.117200 5.362400
-10.090900 5.773500
-10.064700 5.680000
-10.038400 4.907200
-10.012100 3.738700
-9.985900 2.486800
-9.959600 1.395600
-9.933300 0.698400
-9.907100 0.476800
-9.880800 0.584500
-9.854500 0.794200
-9.828300 0.966600
-9.802000 1.095100
-9.775800 1.170800
-9.749500 1.030500
-9.723200 0.632800
-9.697000 0.249500
-9.670700 0.079200
-9.644400 0.085500
-9.618200 0.180200
-9.591900 0.277100
-9.565600 0.319900
-9.539400 0.354300
-9.513100 0.506300
-9.486900 0.833400
-9.460600 1.134500
-9.434300 1.141500
-9.408100 0.937800
-9.381800 0.847300
-9.355500 0.945000
-9.329300 0.904600
-9.303000 0.573700
-9.276700 0.257900
-9.250500 0.238900
-9.224200 0.527300
-9.198000 0.850300
-9.171700 0.824800
-9.145400 0.476100
-9.119200 0.163500
-9.092900 0.036000
-9.066600 0.029400
-9.040400 0.134900
-9.014100 0.423600
-8.987800 0.790000
-8.961600 0.875300
-8.935300 0.583800
-8.909100 0.279500
-8.882800 0.251700
-8.856500 0.472900
-8.830300 0.784100
-8.804000 1.058000
-8.777700 1.161800
-8.751500 1.021900
-8.725200 0.750700
-8.698900 0.466000
-8.672700 0.292200
-8.646400 0.397900
-8.620200 0.728900
-8.593900 0.895500
-8.567600 0.659900
-8.541400 0.288900
-8.515100 0.078300
-8.488800 0.041500
-8.462600 0.153100
-8.436300 0.457400
-8.410100 0.825500
-8.383800 0.942900
-8.357500 0.850500
-8.331300 0.886300
-8.305000 0.949900
-8.278700 0.768100
-8.252500 0.585600
-8.226200 0.716400
-8.199900 0.908900
-8.173700 0.787700
-8.147400 0.522100
-8.121200 0.445700
-8.094900 0.467000
-8.068600 0.358200
-8.042400 0.181800
-8.016100 0.137700
-7.989800 0.342000
-7.963600 0.751900
-7.937300 1.107200
-7.911000 1.232600
-7.884800 1.169800
-7.858500 0.883000
-7.832300 0.454800
-7.806000 0.153800
-7.779700 0.087200
-7.753500 0.249100
-7.727200 0.605200
-7.700900 0.883600
-7.674700 0.766200
-7.648400 0.394700
-7.622100 0.123300
-7.595900 0.047700
-7.569600 0.143300
-7.543400 0.475200
-7.517100 1.058300
-7.490800 1.713800
-7.464600 2.140300
-7.438300 1.966300
-7.412000 1.209300
-7.385800 0.466600
-7.359500 0.115000
-7.333200 0.054600
-7.307000 0.159300
-7.280700 0.409500
-7.254500 0.746300
-7.228200 1.049800
-7.201900 1.170600
-7.175700 1.038700
-7.149400 0.783000
-7.123100 0.534100
-7.096900 0.416700
-7.070600 0.580600
-7.044300 0.861100
-7.018100 0.856300
-6.991800 0.552600
-6.965600 0.281400
-6.939300 0.171400
-6.913000 0.187800
-6.886800 0.354800
-6.860500 0.680100
-6.834200 1.017100
-6.808000 1.088200
-6.781700 0.840500
-6.755500 0.643300
-6.729200 0.942900
-6.702900 1.728100
-6.676700 2.327300
-6.650400 2.269600
-6.624100 1.927000
-6.597900 1.613100
-6.571600 1.301100
-6.545300 1.080700
-6.519100 0.914100
-6.492800 0.795100
-6.466600 0.920100
-6.440300 1.293300
-6.414000 1.810400
-6.387800 2.255100
-6.361500 2.165100
-6.335200 1.615200
-6.309000 1.315500
-6.282700 1.545300
-6.256400 1.971000
-6.230200 2.135800
-6.203900 1.792800
-6.177700 1.199100
-6.151400 0.834900
-6.125100 0.899300
-6.098900 1.412600
-6.072600 2.221100
-6.046300 2.683000
-6.020100 2.322500
-5.993800 1.555300
-5.967500 1.025000
-5.941300 0.969700
-5.915000 1.338600
-5.888800 1.745600
-5.862500 1.721700
-5.836200 1.332000
-5.810000 0.975000
-5.783700 0.834500
-5.757400 0.832800
-5.731200 0.900600
-5.704900 1.165500
-5.678600 1.630700
-5.652400 1.975300
-5.626100 2.062300
-5.599900 2.210500
-5.573600 2.582100
-5.547300 2.725200
-5.521100 2.230300
-5.494800 1.434400
-5.468500 0.912800
-5.442300 0.832600
-5.416000 1.084500
-5.389700 1.437000
-5.363500 1.628500
-5.337200 1.638900
-5.311000 1.701600
-5.284700 2.025000
-5.258400 2.547300
-5.232200 3.020000
-5.205900 3.137800
-5.179600 2.646400
-5.153400 1.868700
-5.127100 1.407900
-5.100900 1.308100
-5.074600 1.322700
-5.048300 1.324800
-5.022100 1.270200
-4.995800 1.343500
-4.969500 1.613500
-4.943300 1.768900
-4.917000 1.658600
-4.890700 1.463600
-4.864500 1.432600
-4.838200 1.533700
-4.812000 1.418200
-4.785700 1.066300
-4.759400 0.816600
-4.733200 0.767600
-4.706900 0.742700
-4.680600 0.615100
-4.654400 0.456100
-4.628100 0.426900
-4.601800 0.587500
-4.575600 0.796600
-4.549300 1.014500
-4.523100 1.567600
-4.496800 2.530500
-4.470500 3.304500
-4.444300 3.247000
-4.418000 2.333400
-4.391700 1.229000
-4.365500 0.627000
-4.339200 0.621100
-4.312900 0.937400
-4.286700 1.236800
-4.260400 1.183200
-4.234200 0.760400
-4.207900 0.323800
-4.181600 0.141800
-4.155400 0.228400
-4.129100 0.503700
-4.102800 0.825600
-4.076600 1.009300
-4.050300 0.950300
-4.024000 0.732700
-3.997800 0.530900
-3.971500 0.438300
-3.945300 0.550000
-3.919000 0.932000
-3.892700 1.314000
-3.866500 1.297300
-3.840200 1.010300
-3.813900 0.890400
-3.787700 1.041100
-3.761400 1.284400
-3.735100 1.335900
-3.708900 1.049200
-3.682600 0.680800
-3.656400 0.526800
-3.630100 0.598800
-3.603800 0.694400
-3.577600 0.633600
-3.551300 0.518300
-3.525000 0.553700
-3.498800 0.731400
-3.472500 0.877900
-3.446200 1.006400
-3.420000 1.381000
-3.393700 1.848900
-3.367500 1.791500
-3.341200 1.159100
-3.314900 0.632300
-3.288700 0.705700
-3.262400 1.193500
-3.236100 1.506300
-3.209900 1.453600
-3.183600 1.425500
-3.157400 1.637600
-3.131100 1.931300
-3.104800 2.098800
-3.078600 2.115000
-3.052300 2.132400
-3.026000 2.132500
-2.999800 1.931500
-2.973500 1.575800
-2.947200 1.408500
-2.921000 1.655500
-2.894700 2.010900
-2.868500 2.002800
-2.842200 1.693800
-2.815900 1.465300
-2.789700 1.354800
-2.763400 1.242400
-2.737100 1.215200
-2.710900 1.397000
-2.684600 1.686000
-2.658300 1.881000
-2.632100 1.968400
-2.605800 1.999900
-2.579600 1.926000
-2.553300 1.772300
-2.527000 1.840700
-2.500800 2.411200
-2.474500 3.191100
-2.448200 3.564100
-2.422000 3.396700
-2.395700 3.015100
-2.369400 2.644900
-2.343200 2.286100
-2.316900 1.971300
-2.290700 1.747700
-2.264400 1.513900
-2.238100 1.258600
-2.211900 1.213400
-2.185600 1.596100
-2.159300 2.309100
-2.133100 2.894500
-2.106800 3.010300
-2.080500 2.843200
-2.054300 2.629600
-2.028000 2.309900
-2.001800 2.056000
-1.975500 2.132100
-1.949200 2.306100
-1.923000 2.415600
-1.896700 2.743500
-1.870400 3.227200
-1.844200 3.475700
-1.817900 3.545300
-1.791600 3.544800
-1.765400 3.360800
-1.739100 3.208400
-1.712900 3.354900
-1.686600 3.639100
-1.660300 3.703900
-1.634100 3.444000
-1.607800 3.206400
-1.581500 3.437000
-1.555300 4.030500
-1.529000 4.373000
-1.502800 4.186000
-1.476500 3.756600
-1.450200 3.430500
-1.424000 3.282400
-1.397700 3.127900
-1.371400 2.992800
-1.345200 3.210600
-1.318900 3.840100
-1.292600 4.529100
-1.266400 4.938200
-1.240100 5.076700
-1.213900 5.308700
-1.187600 5.722800
-1.161300 5.976800
-1.135100 6.093700
-1.108800 6.328900
-1.082500 6.532100
-1.056300 6.342000
-1.030000 5.538400
-1.003700 4.431100
-0.977500 3.637400
-0.951200 3.238700
-0.925000 2.958600
-0.898700 2.746600
-0.872400 2.628400
-0.846200 2.440200
-0.819900 2.156100
-0.793600 1.993700
-0.767400 1.897600
-0.741100 1.611700
-0.714800 1.271900
-0.688600 1.331000
-0.662300 1.853200
-0.636100 2.283000
-0.609800 2.151700
-0.583500 1.732800
-0.557300 1.586900
-0.531000 1.841000
-0.504700 2.138100
-0.478500 2.031600
-0.452200 1.535200
-0.425900 1.024100
-0.399700 0.734200
-0.373400 0.819000
-0.347200 1.378400
-0.320900 2.123400
-0.294600 2.474900
-0.268400 2.224200
-0.242100 1.779200
-0.215800 1.581700
-0.189600 1.598200
-0.163300 1.531800
-0.137000 1.209600
-0.110800 0.796600
-0.084500 0.659800
-0.058300 0.873700
-0.032000 1.131500
-0.005700 1.348300
0.020500 1.828300
0.046800 2.497800
0.073100 2.638400
0.099300 1.993600
0.125600 1.455600
0.151800 1.844500
0.178100 2.809400
0.204400 3.423700
0.230600 3.284200
0.256900 2.665100
0.283200 2.105100
0.309400 2.065600
0.335700 2.580100
0.362000 3.107400
0.388200 2.985000
0.414500 2.325000
0.440700 1.843900
0.467000 1.781300
0.493300 1.832600
0.519500 1.800600
0.545800 1.665600
0.572100 1.467900
0.598300 1.392600
0.624600 1.504400
0.650900 1.627700
0.677100 1.685000
0.703400 1.733100
0.729600 1.789300
0.755900 1.961200
0.782200 2.333400
0.808400 2.672100
0.834700 2.805400
0.861000 2.841300
0.887200 2.748300
0.913500 2.504200
0.939800 2.472400
0.966000 3.024200
0.992300 3.911900
1.018500 4.278200
1.044800 3.609100
1.071100 2.568700
1.097300 2.146300
1.123600 2.446600
1.149900 2.946300
1.176100 3.296800
1.202400 3.722100
1.228700 4.218600
1.254900 4.001000
1.281200 2.854900
1.307400 1.693000
1.333700 1.280100
1.360000 1.522800
1.386200 1.958500
1.412500 2.228800
1.438800 2.214200
1.465000 2.081300
1.491300 2.049700
1.517600 2.199900
1.543800 2.509800
1.570100 2.720200
1.596300 2.451000
1.622600 1.873300
1.648900 1.603900
1.675100 1.840800
1.701400 2.281400
1.727700 2.485100
1.753900 2.305900
1.780200 2.061800
1.806500 1.991500
1.832700 2.018700
1.859000 1.991000
1.885200 1.809600
1.911500 1.555100
1.937800 1.410600
1.964000 1.447700
1.990300 1.687900
2.016600 2.134400
2.042800 2.605600
2.069100 3.054100
2.095300 3.619700
2.121600 3.966700
2.147900 3.701800
2.174100 3.095900
2.200400 2.549700
2.226700 2.140400
2.252900 1.852500
2.279200 1.705200
2.305500 1.676700
2.331700 1.703600
2.358000 1.754900
2.384200 1.831000
2.410500 1.993400
2.436800 2.347700
2.463000 2.842000
2.489300 3.296600
2.515600 3.759600
2.541800 4.250900
2.568100 4.441100
2.594400 4.261300
2.620600 4.014400
2.646900 3.740700
2.673100 3.370500
2.699400 3.168400
2.725700 3.327100
2.751900 3.552600
2.778200 3.592900
2.804500 3.584700
2.830700 3.403700
2.857000 2.824200
2.883300 2.183900
2.909500 1.864400
2.935800 1.877000
2.962000 2.005800
2.988300 1.993800
3.014600 1.941300
3.040800 2.053400
3.067100 2.177600
3.093400 2.141400
3.119600 1.981300
3.145900 1.800900
3.172200 1.673800
3.198400 1.703600
3.224700 1.982500
3.250900 2.336600
3.277200 2.584500
3.303500 2.871200
3.329700 3.269200
3.356000 3.433900
3.382300 3.124300
3.408500 2.686800
3.434800 2.495400
3.461100 2.480200
3.487300 2.465600
3.513600 2.403300
3.539800 2.179500
3.566100 1.652600
3.592400 1.005700
3.618600 0.561800
3.644900 0.370100
3.671200 0.315300
3.697400 0.302400
3.723700 0.313100
3.749900 0.414500
3.776200 0.596500
3.802500 0.733300
3.828700 0.798300
3.855000 0.932600
3.881300 1.071700
3.907500 0.926200
3.933800 0.580500
3.960100 0.367700
3.986300 0.313700
4.012600 0.287900
4.038800 0.325500
4.065100 0.582700
4.091400 1.063800
4.117600 1.425800
4.143900 1.391000
4.170200 1.198300
4.196400 1.188600
4.222700 1.321500
4.249000 1.337100
4.275200 1.177000
4.301500 1.027500
4.327700 0.994100
4.354000 1.045200
4.380300 1.160700
4.406500 1.309300
4.432800 1.474700
4.459100 1.696800
4.485300 1.809200
4.511600 1.650600
4.537900 1.477200
4.564100 1.457900
4.590400 1.465600
4.616600 1.538400
4.642900 1.742000
4.669200 1.949900
4.695400 2.144700
4.721700 2.449600
4.748000 2.847400
4.774200 3.147200
4.800500 3.152500
4.826800 2.905400
4.853000 2.768800
4.879300 3.002600
4.905500 3.511100
4.931800 4.065000
4.958100 4.217400
4.984300 3.641900
5.010600 2.807300
5.036900 2.525100
5.063100 2.977300
5.089400 3.763000
5.115700 4.483000
5.141900 4.784900
5.168200 4.470300
5.194400 3.896600
5.220700 3.668300
5.247000 3.954800
5.273200 4.416600
5.299500 4.677500
5.325800 4.664800
5.352000 4.361600
5.378300 3.731400
5.404500 3.139700
5.430800 3.017800
5.457100 3.203800
5.483300 3.346600
5.509600 3.504200
5.535900 3.872700
5.562100 4.394100
5.588400 4.818700
5.614700 4.872500
5.640900 4.692400
5.667200 4.531200
5.693400 4.232800
5.719700 3.864800
5.746000 3.791200
5.772200 3.828900
5.798500 3.495300
5.824800 2.844300
5.851000 2.251800
5.877300 1.881400
5.903600 1.687200
5.929800 1.574300
5.956100 1.498100
5.982300 1.463700
6.008600 1.510400
6.034900 1.626000
6.061100 1.707800
6.087400 1.746900
6.113700 1.865700
6.139900 2.040500
6.166200 2.156100
6.192500 2.215000
6.218700 2.179200
6.245000 1.930800
6.271200 1.601300
6.297500 1.482300
6.323800 1.544300
6.350000 1.605000
6.376300 1.661900
6.402600 1.765500
6.428800 1.899000
6.455100 1.984200
6.481400 1.918200
6.507600 1.671200
6.533900 1.362900
6.560100 1.166800
6.586400 1.167500
6.612700 1.387400
6.638900 1.725700
6.665200 1.949000
6.691500 2.022400
6.717700 2.125700
6.744000 2.232500
6.770300 2.157200
6.796500 2.004600
6.822800 2.192500
6.849000 2.802700
6.875300 3.386300
6.901600 3.578000
6.927800 3.432000
6.954100 3.350400
6.980400 3.523900
7.006600 3.470600
7.032900 2.955500
7.059200 2.616200
7.085400 2.901100
7.111700 3.467500
7.137900 3.874100
7.164200 3.989800
7.190500 3.920000
7.216700 3.777300
7.243000 3.381900
7.269300 2.596300
7.295500 1.739600
7.321800 1.202400
7.348000 1.087000
7.374300 1.319500
7.400600 1.649000
7.426800 1.750900
7.453100 1.666800
7.479400 1.653600
7.505600 1.759800
7.531900 1.973700
7.558200 2.299100
7.584400 2.654400
7.610700 2.910200
7.636900 2.887800
7.663200 2.582300
7.689500 2.247600
7.715700 2.011500
7.742000 1.823400
7.768300 1.626400
7.794500 1.351200
7.820800 1.040100
7.847100 0.873500
7.873300 0.921300
7.899600 1.058500
7.925800 1.114100
7.952100 1.049300
7.978400 0.902700
8.004600 0.715300
8.030900 0.614400
8.057200 0.669000
8.083400 0.774400
8.109700 0.780200
8.136000 0.653900
8.162200 0.530900
8.188500 0.544800
8.214700 0.719500
8.241000 1.001100
8.267300 1.300100
8.293500 1.534300
8.319800 1.625500
8.346100 1.565200
8.372300 1.535900
8.398600 1.694200
8.424900 2.035500
8.451100 2.665400
8.477400 3.474800
8.503600 3.823100
8.529900 3.455700
8.556200 2.869500
8.582400 2.437900
8.608700 2.112700
8.635000 1.746000
8.661200 1.324700
8.687500 1.055200
8.713800 1.062500
8.740000 1.128100
8.766300 0.987200
8.792500 0.645900
8.818800 0.329800
8.845100 0.189000
8.871300 0.184000
8.897600 0.301800
8.923900 0.595600
8.950100 0.963100
8.976400 1.177600
9.002600 1.219200
9.028900 1.289700
9.055200 1.498300
9.081400 1.774400
9.107700 2.016200
9.134000 2.164200
9.160200 2.221000
9.186500 2.256700
9.212800 2.207000
9.239000 1.910200
9.265300 1.465100
9.291500 1.133700
9.317800 1.081400
9.344100 1.398700
9.370300 1.947400
9.396600 2.354600
9.422900 2.523400
9.449100 2.662200
9.475400 2.739800
9.501700 2.617500
9.527900 2.461400
9.554200 2.580900
9.580400 2.952100
9.606700 3.168100
9.633000 3.188000
9.659200 3.524200
9.685500 4.208600
9.711800 4.791900
9.738000 5.153100
9.764300 5.216000
9.790600 4.923200
9.816800 4.590300
9.843100 4.598200
9.869300 5.009900
9.895600 5.503300
9.921900 5.630300
9.948100 5.156300
9.974400 4.402800
10.000700 3.961600
10.026900 4.023600
10.053200 4.526000
10.079500 5.315100
10.105700 5.924000
10.132000 6.115900
10.158200 6.209000
10.184500 6.577500
10.210800 7.104200
10.237000 6.967300
10.263300 5.846000
10.289600 4.647000
10.315800 4.014100
10.342100 3.798300
10.368400 3.960300
10.394600 4.313600
10.420900 4.165800
10.447100 3.258800
10.473400 2.204400
10.499700 1.668100
10.525900 1.786300
10.552200 2.158500
10.578500 2.179200
10.604700 1.816500
10.631000 1.589600
10.657200 1.708800
10.683500 2.020900
10.709800 2.384800
10.736000 2.611400
10.762300 2.459000
10.788600 2.074600
10.814800 1.969700
10.841100 2.116500
10.867400 1.908800
10.893600 1.355800
10.919900 1.183100
10.946100 1.813600
10.972400 2.931000
10.998700 3.693400
11.024900 3.531200
11.051200 2.730000
11.077500 1.794000
11.103700 0.972900
11.130000 0.439100
11.156300 0.206600
11.182500 0.155100
11.208800 0.194100
11.235000 0.255100
11.261300 0.269600
11.287600 0.203600
11.313800 0.103600
11.340100 0.049400
11.366400 0.082400
11.392600 0.210300
11.418900 0.382100
11.445200 0.487700
11.471400 0.516300
11.497700 0.684300
11.523900 1.199100
11.550200 1.817300
11.576500 2.095100
11.602700 2.198500
11.629000 2.661900
11.655300 3.442100
11.681500 3.900400
11.707800 3.673100
11.734100 3.152500
11.760300 2.871600
11.786600 2.916400
11.812800 3.048800
11.839100 2.873300
11.865400 2.199300
11.891600 1.490000
11.917900 1.343900
11.944200 1.768700
11.970400 2.308500
11.996700 2.551300
12.023000 2.369100
12.049200 1.795300
12.075500 1.110000
12.101700 0.781800
12.128000 0.945800
12.154300 1.210500
12.180500 1.173700
12.206800 0.883700
12.233100 0.600400
12.259300 0.530900
12.285600 0.787600
12.311900 1.276700
12.338100 1.800000
12.364400 2.239700
12.390600 2.471700
12.416900 2.393000
12.443200 2.184200
12.469400 2.205700
12.495700 2.563900
12.522000 3.000000
12.548200 3.289100
12.574500 3.387600
12.600700 3.152200
12.627000 2.712000
12.653300 2.590000
12.679500 2.796100
12.705800 2.708800
12.732100 2.109300
12.758300 1.498200
12.784600 1.312200
12.810900 1.526100
12.837100 1.964200
12.863400 2.407200
12.889600 2.602100
12.915900 2.565400
12.942200 2.592900
12.968400 2.886600
12.994700 3.260600
13.021000 3.284900
13.047200 2.896800
13.073500 2.509000
13.099800 2.320500
13.126000 2.141100
13.152300 1.921800
13.178500 1.963000
13.204800 2.447900
13.231100 2.999600
13.257300 3.171500
13.283600 3.086700
13.309900 3.208300
13.336100 3.848100
13.362400 4.707400
13.388700 4.899500
13.414900 4.111400
13.441200 3.162700
13.467400 2.773000
13.493700 2.700700
13.520000 2.549600
13.546200 2.553400
13.572500 2.968300
13.598800 3.453900
13.625000 3.573600
13.651300 3.367600
13.677600 3.222700
13.703800 3.337100
13.730100 3.428700
13.756300 3.190300
13.782600 2.714100
13.808900 2.284300
13.835100 2.153300
13.861400 2.371700
13.887700 2.780000
13.913900 3.244500
13.940200 3.545900
13.966500 3.252200
13.992700 2.328900
14.019000 1.495000
14.045200 1.390700
14.071500 1.894400
14.097800 2.460400
14.124000 2.809000
14.150300 2.989800
14.176600 2.918500
14.202800 2.509000
14.229100 1.969500
14.255300 1.583600
14.281600 1.539600
14.307900 1.970100
14.334100 2.945400
14.360400 4.129400
14.386700 4.759700
14.412900 4.509500
14.439200 3.846300
14.465500 3.276300
14.491700 2.876800
14.518000 2.672100
14.544200 2.683300
14.570500 2.634500
14.596800 2.451100
14.623000 2.466500
14.649300 2.552800
14.675600 2.258500
14.701800 1.724300
14.728100 1.390600
14.754400 1.309000
14.780600 1.187800
14.806900 0.853100
14.833100 0.500600
14.859400 0.354500
14.885700 0.434300
14.911900 0.829300
14.938200 1.608300
14.964500 2.300700
14.990700 2.253600
15.017000 1.617900
15.043300 1.173800
15.069500 1.253200
15.095800 1.481900
15.122000 1.457500
15.148300 1.202000
15.174600 0.964700
15.200800 0.938800
15.227100 1.134800
15.253400 1.532600
15.279600 2.212000
15.305900 2.858800
15.332200 2.813600
15.358400 2.072200
15.384700 1.297300
15.410900 0.944000
15.437200 1.064900
15.463500 1.418300
15.489700 1.701800
15.516000 1.944500
15.542300 2.238900
15.568500 2.436500
15.594800 2.470900
15.621100 2.479400
15.647300 2.633500
15.673600 3.008800
15.699800 3.304500
15.726100 3.138200
15.752400 2.771000
15.778600 2.676100
15.804900 2.706800
15.831200 2.636700
15.857400 2.761000
15.883700 3.197100
15.909900 3.530500
15.936200 3.418200
15.962500 2.957000
15.988700 2.328800
16.015000 1.776500
16.041300 1.723200
16.067500 2.125500
16.093800 2.399900
16.120100 2.253400
16.146300 1.912800
16.172600 1.607200
16.198800 1.365900
16.225100 1.265300
16.251400 1.444000
16.277600 1.903300
16.303900 2.537400
16.330200 3.219100
16.356400 3.815900
16.382700 4.080900
16.409000 3.629600
16.435200 2.587000
16.461500 1.678700
16.487700 1.344400
16.514000 1.636800
16.540300 2.428300
16.566500 3.125000
16.592800 3.115900
16.619100 2.717200
16.645300 2.603800
16.671600 2.663300
16.697900 2.463900
16.724100 2.036300
16.750400 1.572900
16.776600 1.160700
16.802900 1.024400
16.829200 1.234100
16.855400 1.364100
16.881700 1.111600
16.908000 0.767000
16.934200 0.663700
16.960500 0.760600
16.986800 0.954500
17.013000 1.186100
17.039300 1.237500
17.065500 1.060600
17.091800 0.985000
17.118100 1.167600
17.144300 1.455900
17.170600 1.769900
17.196900 1.963600
17.223100 1.942600
17.249400 2.035200
17.275700 2.449100
17.301900 2.774200
17.328200 2.519200
17.354400 1.920900
17.380700 1.594800
17.407000 1.682800
17.433200 2.022200
17.459500 2.539200
17.485800 3.046900
17.512000 3.268200
17.538300 3.151500
17.564500 2.971000
17.590800 3.093400
17.617100 3.503100
17.643300 3.897500
17.669600 4.122800
17.695900 4.165400
17.722100 4.129100
17.748400 4.129200
17.774700 4.071100
17.800900 3.817300
17.827200 3.386300
17.853400 2.959300
17.879700 2.725500
17.906000 2.738900
17.932200 2.951300
17.958500 3.221900
17.984800 3.449800
18.011000 3.530500
18.037300 3.412200
18.063600 3.347100
18.089800 3.532900
18.116100 3.718100
18.142300 3.535000
18.168600 3.039700
18.194900 2.694500
18.221100 2.626200
18.247400 2.442700
18.273700 2.024000
18.299900 1.663000
18.326200 1.494100
18.352500 1.385800
18.378700 1.264200
18.405000 1.305200
18.431200 1.680800
18.457500 2.264500
18.483800 2.633700
18.510000 2.421100
18.536300 1.785400
18.562600 1.264300
18.588800 1.249600
18.615100 1.657300
18.641400 2.041600
18.667600 2.115900
18.693900 1.979500
18.720100 1.858700
18.746400 1.839400
18.772700 1.886400
18.798900 2.017200
18.825200 2.202500
18.851500 2.205000
18.877700 1.914000
18.904000 1.650300
18.930300 1.678200
18.956500 1.877100
18.982800 2.045400
19.009000 2.173500
19.035300 2.264100
19.061600 2.209900
19.087800 1.996200
19.114100 1.756300
19.140400 1.622800
19.166600 1.601100
19.192900 1.712700
19.219200 2.045400
19.245400 2.525400
19.271700 2.882400
19.297900 2.966200
19.324200 2.881600
19.350500 2.702900
19.376700 2.434000
19.403000 2.171300
19.429300 2.021600
19.455500 1.958800
19.481800 1.907600
19.508000 2.009100
19.534300 2.316600
19.560600 2.448700
19.586800 2.183200
19.613100 1.839900
19.639400 1.701100
19.665600 1.658400
19.691900 1.547400
19.718200 1.472100
19.744400 1.689100
19.770700 2.147200
19.796900 2.372700
19.823200 2.109600
19.849500 1.671400
19.875700 1.410700
19.902000 1.336500
19.928300 1.326400
19.954500 1.452800
19.980800 1.790200
20.007100 1.965000
20.033300 1.719700
20.059600 1.521400
20.085800 1.805800
20.112100 2.251300
20.138400 2.281600
20.164600 1.839900
20.190900 1.304300
20.217200 0.969000
20.243400 0.882000
20.269700 0.962500
20.296000 1.082800
20.322200 1.197400
20.348500 1.367400
20.374700 1.671600
20.401000 2.074300
20.427300 2.267400
20.453500 2.073300
20.479800 1.732500
20.506100 1.449100
20.532300 1.178100
20.558600 0.892200
20.584900 0.700000
20.611100 0.730300
20.637400 0.969800
20.663600 1.236000
20.689900 1.378800
20.716200 1.406100
20.742400 1.420900
20.768700 1.506200
20.795000 1.583000
20.821200 1.558400
20.847500 1.552300
20.873800 1.657200
20.900000 1.784200
20.926300 1.888000
20.952500 1.997400
20.978800 2.098200
21.005100 2.110400
21.031300 2.023300
21.057600 1.938800
21.083900 1.875700
21.110100 1.788700
21.136400 1.632000
21.162600 1.305300
21.188900 0.878600
21.215200 0.631100
21.241400 0.651700
21.267700 0.842900
21.294000 1.212700
21.320200 1.819900
21.346500 2.602300
21.372800 3.161300
21.399000 3.020900
21.425300 2.379800
21.451500 1.901300
21.477800 1.900400
21.504100 2.100700
21.530300 2.026800
21.556600 1.628200
21.582900 1.323800
21.609100 1.399500
21.635400 1.706800
21.661700 2.062400
21.687900 2.435500
21.714200 2.745500
21.740400 2.915200
21.766700 2.874600
21.793000 2.664700
21.819200 2.588600
21.845500 2.744400
21.871800 2.718700
21.898000 2.338100
21.924300 1.991100
21.950600 1.849800
21.976800 1.777500
22.003100 1.823300
22.029300 2.171300
22.055600 2.728600
22.081900 2.997300
22.108100 2.673100
22.134400 2.121300
22.160700 1.893600
22.186900 2.034100
22.213200 2.154900
22.239500 2.055200
22.265700 1.862600
22.292000 1.756500
22.318200 1.847300
22.344500 2.108300
22.370800 2.409900
22.397000 2.623900
22.423300 2.748900
22.449600 2.849300
22.475800 2.845100
22.502100 2.592000
22.528400 2.253700
22.554600 2.204100
22.580900 2.391300
22.607100 2.396500
22.633400 2.111000
22.659700 1.871300
22.685900 1.968600
22.712200 2.229800
22.738500 2.315300
22.764700 2.270200
22.791000 2.365400
22.817200 2.538400
22.843500 2.438400
22.869800 2.006400
22.896000 1.556000
22.922300 1.428600
22.948600 1.723600
22.974800 2.132600
23.001100 2.278600
23.027400 2.194700
23.053600 2.211400
23.079900 2.487100
23.106100 2.736500
23.132400 2.694200
23.158700 2.568400
23.184900 2.668800
23.211200 2.833300
23.237500 2.740400
23.263700 2.590200
23.290000 2.661600
23.316300 2.812700
23.342500 2.895000
23.368800 2.942400
23.395000 2.911400
23.421300 2.817300
23.447600 2.722700
23.473800 2.432200
23.500100 1.908200
23.526400 1.545300
23.552600 1.689000
23.578900 2.339400
23.605200 3.069000
23.631400 3.298800
23.657700 2.962600
23.683900 2.505000
23.710200 2.208700
23.736500 2.060000
23.762700 2.090000
23.789000 2.298700
23.815300 2.523300
23.841500 2.631500
23.867800 2.742100
23.894100 2.991700
23.920300 3.286600
23.946600 3.554400
23.972800 3.751500
23.999100 3.646100
24.025400 3.069600
24.051600 2.426700
24.077900 2.372200
24.104200 2.723500
24.130400 2.629000
24.156700 1.992500
24.183000 1.506800
24.209200 1.544200
24.235500 1.881700
24.261700 2.050100
24.288000 1.893500
24.314300 1.746700
24.340500 1.845200
24.366800 2.082200
24.393100 2.335200
24.419300 2.595400
24.445600 2.829000
24.471900 2.817200
24.498100 2.426500
24.524400 2.016000
24.550600 1.991500
24.576900 2.310800
24.603200 2.708400
24.629400 3.000000
24.655700 3.134700
24.682000 3.117500
24.708200 3.128100
24.734500 3.308100
24.760700 3.389700
24.787000 3.190900
24.813300 2.967400
24.839500 2.952100
24.865800 3.108600
24.892100 3.264700
24.918300 3.387500
24.944600 3.543400
24.970900 3.573600
24.997100 3.428500
25.023400 3.261900
25.049600 3.000500
25.075900 2.546000
25.102200 2.163100
25.128400 2.157900
25.154700 2.440700
25.181000 2.770700
25.207200 2.969200
25.233500 2.887600
25.259800 2.545000
25.286000 2.111300
25.312300 1.783500
25.338500 1.605600
25.364800 1.516200
25.391100 1.652700
25.417300 2.103600
25.443600 2.559500
25.469900 2.553900
25.496100 2.131500
25.522400 1.852000
25.548700 1.894900
25.574900 1.980600
25.601200 2.162200
25.627400 2.661800
25.653700 3.159900
25.680000 3.188600
25.706200 2.856700
25.732500 2.504900
25.758800 2.215200
25.785000 2.030400
25.811300 2.057300
25.837600 2.314500
25.863800 2.709700
25.890100 3.054000
25.916300 3.156300
25.942600 3.041400
25.968900 2.830300
25.995100 2.579600
26.021400 2.355900
26.047700 2.241800
26.073900 2.333500
26.100200 2.531400
26.126500 2.628400
26.152700 2.715500
26.179000 2.854700
26.205200 2.766900
26.231500 2.363000
26.257800 2.002900
26.284000 1.964100
26.310300 2.077600
26.336600 2.104300
26.362800 2.029000
26.389100 1.945500
26.415300 1.894800
26.441600 1.955700
26.467900 2.288500
26.494100 2.777800
26.520400 3.029400
26.546700 2.905800
26.572900 2.585900
26.599200 2.265200
26.625500 2.228200
26.651700 2.536100
26.678000 2.784300
26.704200 2.866700
26.730500 3.166400
26.756800 3.765800
26.783000 4.234500
26.809300 4.230500
26.835600 3.918700
26.861800 3.587600
26.888100 3.252000
26.914400 2.873300
26.940600 2.621500
26.966900 2.678900
26.993100 2.882100
27.019400 3.032600
27.045700 3.267300
27.071900 3.698600
27.098200 3.947800
27.124500 3.561100
27.150700 2.941800
27.177000 2.767700
27.203300 2.946200
27.229500 3.204900
27.255800 3.570800
27.282000 3.889100
27.308300 3.772700
27.334600 3.182300
27.360800 2.736500
27.387100 2.930300
27.413400 3.392700
27.439600 3.540600
27.465900 3.437500
27.492200 3.496600
27.518400 3.820200
27.544700 4.166100
27.570900 4.244300
27.597200 3.926800
27.623500 3.412400
27.649700 3.102400
27.676000 3.190900
27.702300 3.561700
27.728500 3.967700
27.754800 4.230300
27.781100 4.278000
27.807300 4.093200
27.833600 3.729100
27.859800 3.303500
27.886100 3.028000
27.912400 3.011400
27.938600 3.114100
27.964900 3.046600
27.991200 2.648200
28.017400 2.257700
28.043700 2.492400
28.069900 3.456200
28.096200 4.382200
28.122500 4.503100
28.148700 3.949500
28.175000 3.433300
28.201300 3.306300
28.227500 3.252400
28.253800 3.149400
28.280100 3.371000
28.306300 3.856800
28.332600 4.046100
28.358800 3.606500
28.385100 2.747800
28.411400 2.165800
28.437600 2.405500
28.463900 3.125600
28.490200 3.454700
28.516400 3.124500
28.542700 2.794500
28.569000 3.052000
28.595200 3.627500
28.621500 4.033800
28.647700 4.182300
28.674000 4.239700
28.700300 4.359800
28.726500 4.390100
28.752800 4.082300
28.779100 3.622500
28.805300 3.451400
28.831600 3.649000
28.857900 3.937100
28.884100 4.002900
28.910400 3.799800
28.936600 3.595100
28.962900 3.574100
28.989200 3.594500
29.015400 3.375100
29.041700 2.996000
29.068000 2.887300
29.094200 3.034100
29.120500 3.046100
29.146800 2.873100
29.173000 2.713000
29.199300 2.589600
29.225500 2.435500
29.251800 2.323400
29.278100 2.306900
29.304300 2.316900
29.330600 2.330800
29.356900 2.424600
29.383100 2.558500
29.409400 2.582300
29.435700 2.568100
29.461900 2.756000
29.488200 3.169600
29.514400 3.666400
29.540700 4.180100
29.567000 4.534900
29.593200 4.352200
29.619500 3.653700
29.645800 3.001400
29.672000 2.704200
29.698300 2.597300
29.724600 2.546100
29.750800 2.555300
29.777100 2.540300
29.803300 2.264100
29.829600 1.702900
29.855900 1.256200
29.882100 1.220300
29.908400 1.437500
29.934700 1.646800
29.960900 1.821200
29.987200 1.979600
30.013400 2.050800
30.039700 2.065200
30.066000 2.053300
30.092200 1.864700
30.118500 1.524900
30.144800 1.303000
30.171000 1.214700
30.197300 1.109400
30.223600 1.004400
30.249800 0.930800
30.276100 0.827500
30.302300 0.688600
30.328600 0.679800
30.354900 0.896400
30.381100 1.132600
30.407400 1.212700
30.433700 1.216700
30.459900 1.167800
30.486200 0.983500
30.512500 0.761000
30.538700 0.600900
30.565000 0.464800
30.591200 0.353600
30.617500 0.254700
30.643800 0.139700
30.670000 0.049400
30.696300 0.010500
30.722600 0.001300
30.748800 0.000100
30.775100 0.000000
30.801400 0.000000
30.827600 0.000000
30.853900 0.000000
30.880100 0.000000
30.906400 0.000000
30.932700 0.000000
30.958900 0.000000
30.985200 0.000000
31.011500 0.000000
31.037700 0.000000
31.064000 0.000000
31.090300 0.000000
31.116500 0.000000
31.142800 0.000000
31.169000 0.000000
31.195300 0.000000
31.221600 0.000000
31.247800 0.000000
31.274100 0.000000
31.300400 0.000000
31.326600 0.000000
31.352900 0.000000
31.379200 0.000000
31.405400 0.000000
31.431700 0.000000
31.457900 0.000000
31.484200 0.000000
31.510500 0.000000
31.536700 0.000000
31.563000 0.000000
31.589300 0.000000
31.615500 0.000000
31.641800 0.000000
31.668000 0.000000
31.694300 0.000000
31.720600 0.000000
31.746800 0.000000
31.773100 0.000000
31.799400 0.000000
31.825600 0.000000
31.851900 0.000000
31.878200 0.000000
31.904400 0.000000
31.930700 0.000000
31.956900 0.000000
31.983200 0.000000
32.009500 0.000000
32.035700 0.000000
32.062000 0.000000
32.088300 0.000000
32.114500 0.000000
32.140800 0.000000
32.167100 0.000000
32.193300 0.000000
32.219600 0.000000
32.245800 0.000000
32.272100 0.000000
32.298400 0.000000
32.324600 0.000000
32.350900 0.000000
32.377200 0.000000
32.403400 0.000000
32.429700 0.000000
32.456000 0.000000
32.482200 0.000000
32.508500 0.000000
32.534700 0.000000
32.561000 0.000000
32.587300 0.000000
32.613500 0.000000
32.639800 0.000000
32.666100 0.000000
32.692300 0.000000
32.718600 0.000000
32.744900 0.000000
32.771100 0.000000
32.797400 0.000000
32.823600 0.000000
32.849900 0.000000
32.876200 0.000000
32.902400 0.000000
32.928700 0.000000
32.955000 0.000000
32.981200 0.000000
e
