set title 'mp-22633 - Density of States'
set xlabel 'Energy (eV)'
set ylabel 'DOS (states/eV)'
set grid
set xrange [-10:10]
set yrange [0:96.668]
set xzeroaxis lt -1
set terminal png size 800,600
set output 'mp-22633_dos_gnuplot.png'
plot '-' using 1:2 with lines title 'DOS'
-16.298300 0.000000
-16.278000 0.000000
-16.257800 0.000000
-16.237500 0.000000
-16.217200 0.000000
-16.196900 0.000000
-16.176600 0.000000
-16.156300 0.000000
-16.136100 0.000000
-16.115800 0.000000
-16.095500 0.000000
-16.075200 0.000000
-16.054900 0.000000
-16.034600 0.000000
-16.014300 0.000000
-15.994100 0.000000
-15.973800 0.000000
-15.953500 0.000000
-15.933200 0.000000
-15.912900 0.000000
-15.892600 0.000000
-15.872400 0.000000
-15.852100 0.000000
-15.831800 0.000000
-15.811500 0.000000
-15.791200 0.000000
-15.770900 0.000000
-15.750700 0.000000
-15.730400 0.000000
-15.710100 0.000000
-15.689800 0.000000
-15.669500 0.000000
-15.649200 0.000000
-15.628900 0.000000
-15.608700 0.000000
-15.588400 0.000000
-15.568100 0.000000
-15.547800 0.000000
-15.527500 0.000000
-15.507200 0.000000
-15.487000 0.000000
-15.466700 0.000000
-15.446400 0.000000
-15.426100 0.000000
-15.405800 0.000000
-15.385500 0.000000
-15.365300 0.000000
-15.345000 0.000000
-15.324700 0.000000
-15.304400 0.000000
-15.284100 0.000000
-15.263800 0.000000
-15.243500 0.000000
-15.223300 0.000000
-15.203000 0.000000
-15.182700 0.000000
-15.162400 0.000000
-15.142100 0.000000
-15.121800 0.000000
-15.101600 0.000000
-15.081300 0.000000
-15.061000 0.000000
-15.040700 0.000000
-15.020400 0.000000
-15.000100 0.000000
-14.979900 0.000000
-14.959600 0.000000
-14.939300 0.000000
-14.919000 0.000000
-14.898700 0.000000
-14.878400 0.000000
-14.858100 0.000000
-14.837900 0.000000
-14.817600 0.000000
-14.797300 0.000000
-14.777000 0.000000
-14.756700 0.000000
-14.736400 0.000000
-14.716200 0.000000
-14.695900 0.000000
-14.675600 0.000000
-14.655300 0.000000
-14.635000 0.000000
-14.614700 0.000000
-14.594500 0.000000
-14.574200 0.000000
-14.553900 0.000000
-14.533600 0.000000
-14.513300 0.000000
-14.493000 0.000000
-14.472700 0.000000
-14.452500 26.765200
-14.432200 60.883800
-14.411900 316.637800
-14.391600 35.090200
-14.371300 47.938000
-14.351000 30.645800
-14.330800 32.908100
-14.310500 31.744900
-14.290200 24.749800
-14.269900 20.692400
-14.249600 18.203100
-14.229300 18.201900
-14.209000 18.201200
-14.188800 18.200900
-14.168500 18.201000
-14.148200 18.201600
-14.127900 18.202600
-14.107600 12.955800
-14.087300 4.292900
-14.067100 0.003900
-14.046800 3.291600
-14.026500 14.491200
-14.006200 21.284700
-13.985900 24.289200
-13.965600 24.304700
-13.945400 24.322100
-13.925100 24.341300
-13.904800 257.959700
-13.884500 9.789100
-13.864200 9.792000
-13.843900 9.795000
-13.823600 44.543700
-13.803400 121.680500
-13.783100 34.584200
-13.762800 32.767100
-13.742500 29.708100
-13.722200 28.181200
-13.701900 26.185900
-13.681700 23.714100
-13.661400 23.704000
-13.641100 23.479100
-13.620800 19.673700
-13.600500 16.421400
-13.580200 14.126800
-13.560000 10.376800
-13.539700 9.751500
-13.519400 9.751900
-13.499100 9.752400
-13.478800 0.000000
-13.458500 0.000000
-13.438200 0.000000
-13.418000 0.000000
-13.397700 0.000000
-13.377400 0.000000
-13.357100 0.000000
-13.336800 0.000000
-13.316500 0.000000
-13.296300 0.000000
-13.276000 0.000000
-13.255700 0.000000
-13.235400 0.000000
-13.215100 0.000000
-13.194800 0.000000
-13.174600 0.000000
-13.154300 0.000000
-13.134000 0.000000
-13.113700 0.000000
-13.093400 0.000000
-13.073100 0.000000
-13.052800 0.000000
-13.032600 0.000000
-13.012300 0.000000
-12.992000 0.000000
-12.971700 0.000000
-12.951400 0.000000
-12.931100 0.000000
-12.910900 0.000000
-12.890600 0.000000
-12.870300 0.000000
-12.850000 0.000000
-12.829700 0.000000
-12.809400 0.000000
-12.789100 0.000000
-12.768900 0.000000
-12.748600 0.000000
-12.728300 0.000000
-12.708000 0.000000
-12.687700 0.000000
-12.667400 0.000000
-12.647200 0.000000
-12.626900 0.000000
-12.606600 0.000000
-12.586300 0.000000
-12.566000 0.000000
-12.545700 0.000000
-12.525500 0.000000
-12.505200 0.000000
-12.484900 0.000000
-12.464600 0.000000
-12.444300 0.000000
-12.424000 0.000000
-12.403700 0.000000
-12.383500 0.000000
-12.363200 0.000000
-12.342900 0.000000
-12.322600 0.000000
-12.302300 65.377600
-12.282000 94.222900
-12.261800 64.561100
-12.241500 64.561800
-12.221200 101.657300
-12.200900 186.679900
-12.180600 367.942600
-12.160300 254.205000
-12.140100 57.823100
-12.119800 92.155200
-12.099500 100.496400
-12.079200 47.327900
-12.058900 88.136400
-12.038600 145.886500
-12.018300 137.295800
-11.998100 27.841000
-11.977800 210.414800
-11.957500 746.893800
-11.937200 764.991700
-11.916900 640.864400
-11.896600 84.475000
-11.876400 64.384900
-11.856100 77.547200
-11.835800 36.563400
-11.815500 19.869400
-11.795200 62.563300
-11.774900 66.061000
-11.754700 27.744300
-11.734400 36.037500
-11.714100 18.020800
-11.693800 16.321400
-11.673500 14.990500
-11.653200 13.424700
-11.632900 12.068000
-11.612700 10.920500
-11.592400 10.661200
-11.572100 13.606500
-11.551800 16.468100
-11.531500 18.695300
-11.511200 16.989000
-11.491000 17.714100
-11.470700 20.790300
-11.450400 24.641200
-11.430100 29.576500
-11.409800 29.687800
-11.389500 25.494100
-11.369300 16.441500
-11.349000 5.838700
-11.328700 0.000000
-11.308400 0.000000
-11.288100 0.000000
-11.267800 0.000000
-11.247500 0.000000
-11.227300 0.000000
-11.207000 21.448300
-11.186700 57.622400
-11.166400 49.594600
-11.146100 39.119200
-11.125800 30.055600
-11.105600 0.556900
-11.085300 0.876400
-11.065000 1.402500
-11.044700 1.965700
-11.024400 2.565900
-11.004100 5.124800
-10.983800 7.420400
-10.963600 8.066700
-10.943300 8.572400
-10.923000 9.008000
-10.902700 9.369500
-10.882400 9.644500
-10.862100 9.832400
-10.841900 10.030100
-10.821600 10.386700
-10.801300 12.019900
-10.781000 22.536900
-10.760700 19.669700
-10.740400 37.681800
-10.720200 56.281200
-10.699900 46.787000
-10.679600 22.593800
-10.659300 12.214800
-10.639000 13.409900
-10.618700 18.913200
-10.598400 50.567400
-10.578200 48.458900
-10.557900 39.157500
-10.537600 27.730300
-10.517300 26.713300
-10.497000 15.735600
-10.476700 4.277500
-10.456500 1.271900
-10.436200 0.000000
-10.415900 0.000000
-10.395600 0.000000
-10.375300 0.000000
-10.355000 0.000000
-10.334800 0.000000
-10.314500 0.000000
-10.294200 0.000000
-10.273900 0.000000
-10.253600 0.000000
-10.233300 0.000000
-10.213000 0.000000
-10.192800 0.000000
-10.172500 0.000000
-10.152200 0.000000
-10.131900 0.000000
-10.111600 0.000000
-10.091300 0.000000
-10.071100 0.000000
-10.050800 0.000000
-10.030500 0.000000
-10.010200 0.000000
-9.989900 0.000000
-9.969600 0.000000
-9.949400 0.000000
-9.929100 0.000000
-9.908800 0.000000
-9.888500 0.000000
-9.868200 0.000000
-9.847900 0.000000
-9.827600 0.000000
-9.807400 0.000000
-9.787100 0.000000
-9.766800 0.000000
-9.746500 0.000000
-9.726200 0.000000
-9.705900 0.000000
-9.685700 0.000000
-9.665400 0.000000
-9.645100 0.000000
-9.624800 0.000000
-9.604500 0.000000
-9.584200 0.000000
-9.563900 0.000000
-9.543700 0.000000
-9.523400 0.000000
-9.503100 0.000000
-9.482800 0.000000
-9.462500 0.000000
-9.442200 0.000000
-9.422000 0.000000
-9.401700 0.000000
-9.381400 0.000000
-9.361100 0.000000
-9.340800 0.000000
-9.320500 0.000000
-9.300300 0.000000
-9.280000 0.000000
-9.259700 0.000000
-9.239400 0.000000
-9.219100 0.000000
-9.198800 0.000000
-9.178500 0.000000
-9.158300 0.000000
-9.138000 0.000000
-9.117700 0.000000
-9.097400 0.000000
-9.077100 0.000000
-9.056800 0.000000
-9.036600 0.000000
-9.016300 0.000000
-8.996000 0.000000
-8.975700 0.000000
-8.955400 0.000000
-8.935100 0.000000
-8.914900 0.000000
-8.894600 0.000000
-8.874300 0.000000
-8.854000 0.000000
-8.833700 0.000000
-8.813400 0.000000
-8.793100 0.000000
-8.772900 0.000000
-8.752600 0.000000
-8.732300 0.000000
-8.712000 0.000000
-8.691700 0.000000
-8.671400 0.000000
-8.651200 0.000000
-8.630900 0.000000
-8.610600 0.000000
-8.590300 0.000000
-8.570000 0.000000
-8.549700 0.000000
-8.529500 0.000000
-8.509200 0.000000
-8.488900 0.000000
-8.468600 0.000000
-8.448300 0.000000
-8.428000 0.000000
-8.407700 0.000000
-8.387500 0.000000
-8.367200 0.000000
-8.346900 0.000000
-8.326600 0.000000
-8.306300 0.000000
-8.286000 0.000000
-8.265800 0.000000
-8.245500 0.000000
-8.225200 0.000000
-8.204900 0.000000
-8.184600 0.000000
-8.164300 0.000000
-8.144000 0.000000
-8.123800 0.000000
-8.103500 0.000000
-8.083200 0.000000
-8.062900 0.000000
-8.042600 0.000000
-8.022300 0.000000
-8.002100 0.000000
-7.981800 0.000000
-7.961500 0.000000
-7.941200 0.000000
-7.920900 0.000000
-7.900600 0.000000
-7.880400 0.000000
-7.860100 0.000000
-7.839800 0.000000
-7.819500 0.000000
-7.799200 0.000000
-7.778900 0.000000
-7.758600 0.000000
-7.738400 0.000000
-7.718100 0.000000
-7.697800 0.000000
-7.677500 0.000000
-7.657200 0.000000
-7.636900 0.000000
-7.616700 0.000000
-7.596400 0.000000
-7.576100 0.000000
-7.555800 0.000000
-7.535500 0.000000
-7.515200 0.000000
-7.495000 0.000000
-7.474700 0.000000
-7.454400 0.000000
-7.434100 0.000000
-7.413800 0.000000
-7.393500 0.000000
-7.373200 0.000000
-7.353000 0.000000
-7.332700 0.000000
-7.312400 0.000000
-7.292100 0.000000
-7.271800 0.000000
-7.251500 0.000000
-7.231300 0.000000
-7.211000 0.000000
-7.190700 0.000000
-7.170400 0.000000
-7.150100 0.000000
-7.129800 0.000000
-7.109600 0.000000
-7.089300 0.000000
-7.069000 0.000000
-7.048700 0.000000
-7.028400 0.000000
-7.008100 0.000000
-6.987800 0.000000
-6.967600 0.000000
-6.947300 0.000000
-6.927000 0.000000
-6.906700 0.000000
-6.886400 0.000000
-6.866100 0.000000
-6.845900 0.000000
-6.825600 0.000000
-6.805300 0.000000
-6.785000 0.000000
-6.764700 0.000000
-6.744400 0.000000
-6.724200 0.000000
-6.703900 0.000000
-6.683600 0.000000
-6.663300 0.000000
-6.643000 0.000000
-6.622700 0.000000
-6.602400 0.000000
-6.582200 0.000000
-6.561900 0.000000
-6.541600 0.000000
-6.521300 0.000000
-6.501000 0.000000
-6.480700 0.000000
-6.460500 0.000000
-6.440200 0.000000
-6.419900 0.000000
-6.399600 0.000000
-6.379300 0.000000
-6.359000 0.000000
-6.338700 0.000000
-6.318500 0.000000
-6.298200 0.000000
-6.277900 0.000000
-6.257600 0.000000
-6.237300 0.000000
-6.217000 0.000000
-6.196800 0.000000
-6.176500 0.000000
-6.156200 0.000000
-6.135900 0.000000
-6.115600 0.000000
-6.095300 0.000000
-6.075100 0.000000
-6.054800 0.000000
-6.034500 0.000000
-6.014200 0.000000
-5.993900 0.000000
-5.973600 0.000000
-5.953300 0.000000
-5.933100 0.000000
-5.912800 0.000000
-5.892500 0.000000
-5.872200 0.000000
-5.851900 0.000000
-5.831600 0.000000
-5.811400 0.000000
-5.791100 0.000000
-5.770800 0.000000
-5.750500 0.000000
-5.730200 0.000000
-5.709900 0.000000
-5.689700 0.000000
-5.669400 0.000000
-5.649100 0.000000
-5.628800 0.000000
-5.608500 0.000000
-5.588200 0.000000
-5.567900 0.000000
-5.547700 0.000000
-5.527400 0.000000
-5.507100 0.000000
-5.486800 0.000000
-5.466500 0.000000
-5.446200 0.000000
-5.426000 0.000000
-5.405700 0.000000
-5.385400 0.000000
-5.365100 0.000000
-5.344800 0.000000
-5.324500 0.000000
-5.304300 0.000000
-5.284000 0.000000
-5.263700 0.000000
-5.243400 0.000000
-5.223100 0.000000
-5.202800 0.000000
-5.182500 0.000000
-5.162300 0.000000
-5.142000 0.000000
-5.121700 0.000000
-5.101400 0.000000
-5.081100 0.000000
-5.060800 0.000000
-5.040600 0.000000
-5.020300 0.000000
-5.000000 0.000000
-4.979700 0.000000
-4.959400 0.000000
-4.939100 0.000000
-4.918800 0.000000
-4.898600 0.000000
-4.878300 0.000000
-4.858000 0.000000
-4.837700 0.000000
-4.817400 0.000000
-4.797100 0.000000
-4.776900 0.000000
-4.756600 0.000000
-4.736300 0.000000
-4.716000 0.000000
-4.695700 0.000000
-4.675400 0.000000
-4.655200 0.000000
-4.634900 0.000000
-4.614600 0.000000
-4.594300 0.000000
-4.574000 0.000000
-4.553700 0.000000
-4.533400 0.000000
-4.513200 0.000000
-4.492900 0.000000
-4.472600 0.000000
-4.452300 0.000000
-4.432000 0.000000
-4.411700 0.000000
-4.391500 0.000000
-4.371200 0.026700
-4.350900 0.116800
-4.330600 0.270700
-4.310300 0.488300
-4.290000 0.769600
-4.269800 1.114600
-4.249500 1.833100
-4.229200 2.688700
-4.208900 3.476600
-4.188600 4.197100
-4.168300 4.921200
-4.148000 6.650300
-4.127800 7.094300
-4.107500 7.540900
-4.087200 7.990100
-4.066900 10.890800
-4.046600 15.481500
-4.026300 18.203700
-4.006100 21.643600
-3.985800 48.578600
-3.965500 35.921100
-3.945200 25.074400
-3.924900 14.626000
-3.904600 11.521000
-3.884400 30.486100
-3.864100 33.039100
-3.843800 32.221000
-3.823500 31.293000
-3.803200 16.806400
-3.782900 14.847000
-3.762600 14.123700
-3.742400 16.505700
-3.722100 12.481100
-3.701800 11.213600
-3.681500 11.246800
-3.661200 11.852300
-3.640900 12.511100
-3.620700 12.850000
-3.600400 12.993900
-3.580100 12.908600
-3.559800 13.006800
-3.539500 13.180400
-3.519200 13.041900
-3.499000 13.191900
-3.478700 13.162500
-3.458400 13.506600
-3.438100 15.115600
-3.417800 17.415700
-3.397500 15.810700
-3.377200 13.782100
-3.357000 12.050300
-3.336700 10.611800
-3.316400 9.231300
-3.296100 14.475000
-3.275800 9.976100
-3.255500 9.562400
-3.235300 8.845100
-3.215000 7.961700
-3.194700 7.164400
-3.174400 6.193100
-3.154100 4.934500
-3.133800 3.388500
-3.113500 1.555100
-3.093300 0.330400
-3.073000 0.185700
-3.052700 0.082400
-3.032400 0.020500
-3.012100 0.000000
-2.991800 0.000000
-2.971600 0.000000
-2.951300 0.000000
-2.931000 1.596600
-2.910700 3.300000
-2.890400 4.871200
-2.870100 6.323100
-2.849900 9.200000
-2.829600 10.457900
-2.809300 14.332200
-2.789000 14.952200
-2.768700 14.708700
-2.748400 14.371700
-2.728100 12.988000
-2.707900 14.448800
-2.687600 16.190200
-2.667300 10.309500
-2.647000 8.542000
-2.626700 7.655500
-2.606400 6.457200
-2.586200 7.057800
-2.565900 8.059700
-2.545600 7.613400
-2.525300 7.102600
-2.505000 6.527300
-2.484700 5.888000
-2.464500 5.282500
-2.444200 4.764200
-2.423900 4.259700
-2.403600 4.357300
-2.383300 4.381800
-2.363000 4.381800
-2.342700 4.377000
-2.322500 4.367300
-2.302200 4.352900
-2.281900 4.333700
-2.261600 4.309600
-2.241300 4.280800
-2.221000 4.247200
-2.200800 4.275300
-2.180500 4.327000
-2.160200 4.369600
-2.139900 4.403100
-2.119600 4.427400
-2.099300 4.442600
-2.079100 4.448600
-2.058800 4.445500
-2.038500 4.433200
-2.018200 4.419300
-1.997900 4.255000
-1.977600 4.098700
-1.957300 3.915100
-1.937100 3.724000
-1.916800 3.540100
-1.896500 4.679900
-1.876200 4.764500
-1.855900 4.773600
-1.835600 4.745100
-1.815400 4.678800
-1.795100 4.574800
-1.774800 4.443300
-1.754500 4.316800
-1.734200 4.197700
-1.713900 4.086100
-1.693600 3.981900
-1.673400 3.648400
-1.653100 3.471900
-1.632800 2.639300
-1.612500 1.817000
-1.592200 1.004900
-1.571900 0.056900
-1.551700 0.000000
-1.531400 0.000000
-1.511100 0.000000
-1.490800 0.000000
-1.470500 0.000000
-1.450200 0.000000
-1.430000 0.000000
-1.409700 0.000000
-1.389400 0.000000
-1.369100 0.000000
-1.348800 0.000000
-1.328500 0.000000
-1.308200 0.000000
-1.288000 0.000000
-1.267700 0.000000
-1.247400 0.000000
-1.227100 0.000000
-1.206800 0.000000
-1.186500 0.000000
-1.166300 0.000000
-1.146000 0.000000
-1.125700 0.000000
-1.105400 0.000000
-1.085100 0.000000
-1.064800 0.000000
-1.044600 0.000000
-1.024300 0.000000
-1.004000 0.000000
-0.983700 0.000000
-0.963400 0.000000
-0.943100 0.000000
-0.922800 0.000000
-0.902600 0.000000
-0.882300 0.000000
-0.862000 0.000000
-0.841700 0.000000
-0.821400 0.000000
-0.801100 0.000000
-0.780900 0.000000
-0.760600 0.000000
-0.740300 0.000000
-0.720000 0.000000
-0.699700 0.000000
-0.679400 0.000000
-0.659200 0.000000
-0.638900 0.000000
-0.618600 2.043200
-0.598300 4.447700
-0.578000 8.178500
-0.557700 11.758000
-0.537400 11.932200
-0.517200 12.251400
-0.496900 12.715600
-0.476600 13.723400
-0.456300 18.466800
-0.436000 23.061300
-0.415700 25.608900
-0.395500 25.674100
-0.375200 58.932400
-0.354900 22.960800
-0.334600 32.144600
-0.314300 37.100600
-0.294000 36.678800
-0.273800 32.262300
-0.253500 15.933100
-0.233200 16.021300
-0.212900 15.875000
-0.192600 14.192100
-0.172300 14.187000
-0.152000 20.887300
-0.131800 25.830100
-0.111500 12.419900
-0.091200 8.696100
-0.070900 8.642100
-0.050600 8.618100
-0.030300 7.406400
-0.010100 4.957400
0.010200 3.109700
0.030500 2.857600
0.050800 2.661400
0.071100 2.521300
0.091400 2.437200
0.111700 2.409000
0.131900 2.436900
0.152200 2.520800
0.172500 2.660600
0.192800 5.967000
0.213100 24.914800
0.233400 19.385200
0.253600 21.099300
0.273900 26.129600
0.294200 31.230100
0.314500 19.139300
0.334800 13.940700
0.355100 17.255900
0.375300 26.333700
0.395600 25.005800
0.415900 16.621200
0.436200 12.690600
0.456500 11.395900
0.476800 10.960700
0.497100 21.844300
0.517300 21.652100
0.537600 19.480400
0.557900 15.668000
0.578200 13.098300
0.598500 10.271600
0.618800 8.752000
0.639000 10.470900
0.659300 10.182200
0.679600 10.004000
0.699900 15.778700
0.720200 19.979300
0.740500 19.532500
0.760700 22.092300
0.781000 19.934100
0.801300 15.691500
0.821600 15.741800
0.841900 9.094700
0.862200 8.961600
0.882500 9.097500
0.902700 9.428600
0.923000 9.666800
0.943300 11.194200
0.963600 13.039000
0.983900 15.201400
1.004200 19.237600
1.024400 26.116700
1.044700 39.015900
1.065000 49.770100
1.085300 24.679600
1.105600 25.231000
1.125900 29.072100
1.146100 40.110100
1.166400 24.509900
1.186700 21.192700
1.207000 14.283800
1.227300 17.674700
1.247600 24.018600
1.267900 40.396800
1.288100 46.199100
1.308400 26.423300
1.328700 22.393000
1.349000 12.632600
1.369300 9.982800
1.389600 12.175000
1.409800 21.362000
1.430100 26.826000
1.450400 36.950200
1.470700 31.440300
1.491000 26.097200
1.511300 25.328100
1.531600 20.807300
1.551800 20.467000
1.572100 19.015300
1.592400 17.881200
1.612700 18.100900
1.633000 18.696600
1.653300 18.453600
1.673500 29.542500
1.693800 28.326200
1.714100 28.495700
1.734400 22.110600
1.754700 22.710800
1.775000 39.612000
1.795200 57.858600
1.815500 33.022200
1.835800 27.461900
1.856100 4.899200
1.876400 3.379700
1.896700 18.793600
1.917000 29.024600
1.937200 45.778000
1.957500 43.538800
1.977800 31.762900
1.998100 20.390000
2.018400 11.748100
2.038700 20.607100
2.058900 40.179500
2.079200 14.787600
2.099500 13.212100
2.119800 28.179100
2.140100 31.680800
2.160400 35.122300
2.180600 45.569200
2.200900 39.697200
2.221200 35.728900
2.241500 29.894700
2.261800 31.129300
2.282100 87.879900
2.302400 61.719000
2.322600 46.281500
2.342900 48.126300
2.363200 38.802600
2.383500 40.028700
2.403800 41.646200
2.424100 44.190100
2.444300 63.237500
2.464600 57.560000
2.484900 59.645400
2.505200 18.145400
2.525500 25.298700
2.545800 18.721400
2.566000 13.453400
2.586300 9.024100
2.606600 5.403500
2.626900 10.067900
2.647200 36.632100
2.667500 21.996100
2.687800 27.136900
2.708000 32.599400
2.728300 28.725000
2.748600 12.914500
2.768900 14.555600
2.789200 12.835900
2.809500 11.308200
2.829700 10.581700
2.850000 11.778400
2.870300 13.434600
2.890600 15.364200
2.910900 17.568000
2.931200 20.937900
2.951400 11.997000
2.971700 14.646000
2.992000 16.918800
3.012300 17.654000
3.032600 13.808900
3.052900 5.847800
3.073200 4.295900
3.093400 6.031100
3.113700 9.333900
3.134000 12.485300
3.154300 15.499600
3.174600 21.030700
3.194900 16.599300
3.215100 16.225300
3.235400 15.024100
3.255700 13.844100
3.276000 12.766400
3.296300 11.207400
3.316600 9.460900
3.336900 8.953900
3.357100 8.637000
3.377400 8.510000
3.397700 3.826400
3.418000 0.000000
3.438300 0.000000
3.458600 0.000000
3.478800 0.000000
3.499100 0.000000
3.519400 0.000000
3.539700 0.000000
3.560000 0.000000
3.580300 0.000000
3.600500 0.000000
3.620800 0.000000
3.641100 0.000000
3.661400 0.000000
3.681700 0.000000
3.702000 0.000000
3.722300 0.000000
3.742500 0.000000
3.762800 0.000000
3.783100 0.000000
3.803400 0.000000
3.823700 0.000000
3.844000 0.000000
3.864200 0.000000
3.884500 0.000000
3.904800 0.000000
3.925100 0.000000
3.945400 0.000000
3.965700 0.000000
3.985900 0.000000
4.006200 0.000000
4.026500 0.000000
4.046800 0.000000
4.067100 0.000000
4.087400 0.000000
4.107700 0.000000
4.127900 0.000000
4.148200 0.000000
4.168500 0.000000
4.188800 0.000000
4.209100 0.000000
4.229400 0.000000
4.249600 0.000000
4.269900 0.000000
4.290200 0.000000
4.310500 0.000000
4.330800 0.000000
4.351100 0.000000
4.371300 0.000000
4.391600 0.000000
4.411900 0.000000
4.432200 0.000000
4.452500 0.000000
4.472800 0.000000
4.493100 0.000000
4.513300 0.000000
4.533600 0.000000
4.553900 0.000000
4.574200 0.000200
4.594500 0.003600
4.614800 0.011400
4.635000 0.023700
4.655300 0.040400
4.675600 0.061600
4.695900 0.087200
4.716200 0.117200
4.736500 0.151700
4.756800 0.190600
4.777000 0.234000
4.797300 0.281700
4.817600 0.334000
4.837900 0.390600
4.858200 0.451700
4.878500 0.517300
4.898700 0.587300
4.919000 0.661700
4.939300 0.740600
4.959600 0.932900
4.979900 1.265900
5.000200 1.578100
5.020400 1.868400
5.040700 2.137000
5.061000 2.383700
5.081300 2.608600
5.101600 2.811700
5.121900 2.993000
5.142200 3.152500
5.162400 3.290100
5.182700 3.405900
5.203000 4.136000
5.223300 3.850600
5.243600 3.582800
5.263900 3.332600
5.284100 3.100100
5.304400 2.885200
5.324700 2.687900
5.345000 2.508300
5.365300 2.038100
5.385600 2.045000
5.405800 2.052100
5.426100 7.954400
5.446400 8.645500
5.466700 9.243300
5.487000 9.747900
5.507300 10.159300
5.527600 10.477400
5.547800 8.107200
5.568100 7.975200
5.588400 7.672900
5.608700 7.443200
5.629000 7.288600
5.649300 7.209100
5.669500 7.203800
5.689800 7.314500
5.710100 7.255700
5.730400 6.544900
5.750700 3.634300
5.771000 4.389900
5.791200 9.800200
5.811500 12.390800
5.831800 14.222700
5.852100 15.195000
5.872400 18.051000
5.892700 17.356700
5.913000 13.685500
5.933200 15.861600
5.953500 3.407500
5.973800 3.394300
5.994100 3.381100
6.014400 3.367900
6.034700 3.354800
6.054900 4.467400
6.075200 5.646500
6.095500 7.148100
6.115800 8.972300
6.136100 11.683600
6.156400 10.099500
6.176600 8.016300
6.196900 2.533200
6.217200 1.139500
6.237500 0.295200
6.257800 0.000400
6.278100 0.000000
6.298400 0.000000
6.318600 1.438000
6.338900 3.250700
6.359200 5.050500
6.379500 5.039000
6.399800 4.938700
6.420100 3.913000
6.440300 8.031000
6.460600 9.873500
6.480900 7.020400
6.501200 7.325700
6.521500 7.628400
6.541800 7.928400
6.562100 8.225700
6.582300 8.520300
6.602600 8.812300
6.622900 9.138400
6.643200 6.749200
6.663500 6.200000
6.683800 6.039300
6.704000 5.900700
6.724300 5.784200
6.744600 5.689800
6.764900 5.617500
6.785200 5.565100
6.805500 5.517900
6.825700 5.475700
6.846000 5.443600
6.866300 5.421900
6.886600 5.410500
6.906900 5.409500
6.927200 4.745500
6.947500 3.071400
6.967700 2.380500
6.988000 1.637400
7.008300 0.842000
7.028600 0.024200
7.048900 1.307900
7.069200 3.833700
7.089400 6.934200
7.109700 9.956300
7.130000 12.534700
7.150300 13.317100
7.170600 10.852500
7.190900 9.191600
7.211100 12.584300
7.231400 12.385200
7.251700 12.226400
7.272000 12.107800
7.292300 12.032000
7.312600 12.236200
7.332900 12.907100
7.353100 14.046700
7.373400 16.347900
7.393700 12.236700
7.414000 9.753500
7.434300 8.391400
7.454600 8.031600
7.474800 8.435100
7.495100 9.683200
7.515400 12.628300
7.535700 16.131600
7.556000 21.732300
7.576300 23.740300
7.596500 25.200500
7.616800 25.888300
7.637100 26.618200
7.657400 7.694200
7.677700 11.068900
7.698000 14.139100
7.718300 17.247700
7.738500 19.478500
7.758800 16.271800
7.779100 15.708100
7.799400 15.449300
7.819700 12.891400
7.840000 11.486200
7.860200 9.984900
7.880500 7.053600
7.900800 6.026800
7.921100 5.131000
7.941400 4.819200
7.961700 4.333300
7.982000 4.099700
8.002200 4.353400
8.022500 5.094800
8.042800 6.768000
8.063100 7.895700
8.083400 8.232100
8.103700 10.303400
8.123900 9.977100
8.144200 9.637900
8.164500 11.126300
8.184800 11.538100
8.205100 7.430900
8.225400 8.840600
8.245600 10.533400
8.265900 13.595200
8.286200 26.754000
8.306500 10.429400
8.326800 8.398300
8.347100 8.277100
8.367400 8.900400
8.387600 9.654900
8.407900 11.226200
8.428200 11.730400
8.448500 11.692200
8.468800 11.460100
8.489100 11.286100
8.509300 10.815100
8.529600 10.436100
8.549900 10.158300
8.570200 9.981600
8.590500 9.813100
8.610800 8.920400
8.631000 9.434500
8.651300 11.051900
8.671600 11.991200
8.691900 12.945100
8.712200 12.036100
8.732500 10.742800
8.752800 11.239300
8.773000 13.952700
8.793300 11.205000
8.813600 9.881100
8.833900 9.736100
8.854200 8.872500
8.874500 8.692800
8.894700 8.501000
8.915000 8.405800
8.935300 8.441400
8.955600 8.731600
8.975900 8.781000
8.996200 10.540300
9.016400 11.279400
9.036700 11.743200
9.057000 11.406600
9.077300 12.106700
9.097600 13.191000
9.117900 14.490800
9.138200 15.891400
9.158400 17.165000
9.178700 15.726000
9.199000 12.598300
9.219300 10.818300
9.239600 15.873800
9.259900 19.348700
9.280100 23.629600
9.300400 27.357900
9.320700 24.272600
9.341000 20.394600
9.361300 15.118900
9.381600 9.168200
9.401800 4.668700
9.422100 4.372900
9.442400 4.480500
9.462700 4.849600
9.483000 5.466200
9.503300 6.156000
9.523600 10.046200
9.543800 9.083500
9.564100 15.134100
9.584400 18.322600
9.604700 16.049900
9.625000 13.619300
9.645300 10.440500
9.665500 10.978000
9.685800 16.223800
9.706100 17.567500
9.726400 17.768600
9.746700 18.132600
9.767000 19.767900
9.787300 15.790700
9.807500 7.275300
9.827800 4.671800
9.848100 4.675400
9.868400 5.156800
9.888700 9.965700
9.909000 23.468200
9.929200 24.977400
9.949500 22.963300
9.969800 17.792500
9.990100 15.555300
10.010400 16.841400
10.030700 18.392400
10.050900 17.820500
10.071200 16.228300
10.091500 15.539800
10.111800 14.486900
10.132100 16.490700
10.152400 10.237500
10.172700 8.822100
10.192900 11.394500
10.213200 15.166400
10.233500 17.437500
10.253800 19.454200
10.274100 16.724400
10.294400 15.810700
10.314600 18.599100
10.334900 15.400000
10.355200 14.647100
10.375500 14.007000
10.395800 13.446900
10.416100 14.158100
10.436300 15.298100
10.456600 16.158600
10.476900 16.739400
10.497200 8.865200
10.517500 5.914800
10.537800 3.745100
10.558100 1.951800
10.578300 0.000000
10.598600 0.884900
10.618900 1.556900
10.639200 2.337700
10.659500 3.871100
10.679800 5.206100
10.700000 6.822300
10.720300 9.494300
10.740600 10.728200
10.760900 10.201700
10.781200 9.704700
10.801500 9.342900
10.821700 10.119300
10.842000 11.622800
10.862300 11.423000
10.882600 10.288200
10.902900 9.282100
10.923200 8.380500
10.943500 7.480500
10.963700 6.571300
10.984000 5.866600
11.004300 5.522100
11.024600 5.482100
11.044900 5.488800
11.065200 5.510100
11.085400 5.462900
11.105700 5.096400
11.126000 4.490500
11.146300 3.771400
11.166600 3.199000
11.186900 2.996500
11.207200 2.860800
11.227400 2.792000
11.247700 2.607500
11.268000 2.975200
11.288300 3.293000
11.308600 3.560900
11.328900 3.778800
11.349100 4.104600
11.369400 5.076600
11.389700 5.577700
11.410000 6.061800
11.430300 6.529000
11.450600 6.979100
11.470800 7.412200
11.491100 7.779000
11.511400 7.796200
11.531700 7.715900
11.552000 7.365100
11.572300 7.032500
11.592600 6.717900
11.612800 6.618800
11.633100 6.971800
11.653400 7.598700
11.673700 10.369900
11.694000 17.759900
11.714300 14.286000
11.734500 16.925200
11.754800 5.614700
11.775100 7.478400
11.795400 10.303200
11.815700 14.447400
11.836000 19.938500
11.856200 12.235900
11.876500 12.135700
11.896800 11.971500
11.917100 11.414300
11.937400 11.204100
11.957700 11.340800
11.978000 13.992000
11.998200 11.620500
12.018500 13.422400
12.038800 15.199800
12.059100 15.838200
12.079400 16.131000
12.099700 16.078100
12.119900 20.639900
12.140200 21.770800
12.160500 23.247700
12.180800 22.766600
12.201100 17.453200
12.221400 12.700600
12.241600 14.964500
12.261900 13.402400
12.282200 12.306900
12.302500 10.435700
12.322800 9.973700
12.343100 11.089200
12.363400 10.998200
12.383600 12.575100
12.403900 13.413800
12.424200 13.779900
12.444500 14.025500
12.464800 14.164100
12.485100 14.330600
12.505300 12.790900
12.525600 11.296600
12.545900 10.144000
12.566200 9.211400
12.586500 8.492700
12.606800 7.881000
12.627100 7.311600
12.647300 6.883400
12.667600 6.564100
12.687900 6.185700
12.708200 5.729300
12.728500 5.490500
12.748800 5.355900
12.769000 5.245700
12.789300 5.174000
12.809600 5.905400
12.829900 6.439900
12.850200 7.057800
12.870500 7.758900
12.890700 8.543300
12.911000 9.547800
12.931300 9.620000
12.951600 9.125400
12.971900 8.591400
12.992200 8.018100
13.012500 7.514200
13.032700 7.190600
13.053000 5.780700
13.073300 5.854800
13.093600 7.261000
13.113900 9.014200
13.134200 10.927500
13.154400 12.391100
13.174700 14.360600
13.195000 17.165000
13.215300 20.643300
13.235600 20.346600
13.255900 17.013000
13.276100 13.779900
13.296400 12.756300
13.316700 12.637900
13.337000 12.696400
13.357300 11.904200
13.377600 13.949800
13.397900 15.750400
13.418100 17.061200
13.438400 18.441500
13.458700 18.957700
13.479000 18.340500
13.499300 12.348400
13.519600 11.473500
13.539800 12.596000
13.560100 15.295200
13.580400 15.707800
13.600700 16.159000
13.621000 16.648600
13.641300 17.390900
13.661500 17.163400
13.681800 17.453700
13.702100 17.668200
13.722400 18.337600
13.742700 18.910400
13.763000 20.348900
13.783300 20.573600
13.803500 19.505200
13.823800 18.701700
13.844100 18.771100
13.864400 22.980500
13.884700 18.754400
13.905000 15.644400
13.925200 13.686000
13.945500 12.624500
13.965800 11.597600
13.986100 10.016400
14.006400 9.423700
14.026700 9.155600
14.046900 8.807400
14.067200 8.647300
14.087500 8.715500
14.107800 8.591200
14.128100 8.916600
14.148400 16.096200
14.168700 24.674100
14.188900 16.674600
14.209200 15.525400
14.229500 15.929200
14.249800 13.808500
14.270100 13.342000
14.290400 12.774500
14.310600 8.227900
14.330900 8.680600
14.351200 8.419400
14.371500 8.147800
14.391800 7.865700
14.412100 7.632300
14.432400 7.477300
14.452600 10.039400
14.472900 12.940800
14.493200 16.556800
14.513500 19.201900
14.533800 19.733700
14.554100 19.818400
14.574300 20.419300
14.594600 19.918300
14.614900 18.453500
14.635200 20.353600
14.655500 21.785200
14.675800 22.516500
14.696000 19.700300
14.716300 14.828100
14.736600 2.854400
14.756900 0.613600
14.777200 0.253400
14.797500 37.992800
14.817800 15.270000
14.838000 10.205400
14.858300 7.210900
14.878600 9.790900
14.898900 13.246800
14.919200 16.983400
14.939500 22.249500
14.959700 18.527600
14.980000 17.365500
15.000300 14.319900
15.020600 11.802800
15.040900 8.593700
15.061200 10.411700
15.081400 30.122800
15.101700 32.373800
15.122000 34.563100
15.142300 21.674000
15.162600 24.139900
15.182900 20.712800
15.203200 8.310100
15.223400 2.028600
15.243700 0.001700
15.264000 0.000000
15.284300 0.000000
15.304600 15.958900
15.324900 24.002100
15.345100 26.333000
15.365400 25.541300
15.385700 24.247300
15.406000 18.643500
15.426300 13.972000
15.446600 17.502400
15.466800 20.222800
15.487100 18.749700
15.507400 17.932800
15.527700 17.878300
15.548000 17.731700
15.568300 17.601600
15.588600 19.063700
15.608800 25.927700
15.629100 21.778800
15.649400 17.868000
15.669700 12.875000
15.690000 8.862800
15.710300 4.215300
15.730500 5.905200
15.750800 7.058600
15.771100 8.846400
15.791400 11.355600
15.811700 12.309100
15.832000 14.030200
15.852300 14.883000
15.872500 15.764300
15.892800 15.654600
15.913100 15.550300
15.933400 15.451300
15.953700 17.734900
15.974000 18.684600
15.994200 16.871200
16.014500 9.753400
16.034800 8.717800
16.055100 15.710300
16.075400 36.409900
16.095700 32.005300
16.115900 19.292600
16.136200 15.903000
16.156500 13.589900
16.176800 11.745800
16.197100 10.750400
16.217400 10.191000
16.237700 9.747400
16.257900 12.867400
16.278200 13.686400
16.298500 12.099800
16.318800 12.643800
16.339100 14.168700
16.359400 15.370700
16.379600 16.970800
16.399900 18.171500
16.420200 18.387800
16.440500 18.602200
16.460800 19.402200
16.481100 14.998800
16.501300 12.458700
16.521600 10.145800
16.541900 12.567600
16.562200 14.980700
16.582500 37.079200
16.602800 26.180500
16.623100 22.660900
16.643300 17.909800
16.663600 10.384600
16.683900 9.996200
16.704200 10.321600
16.724500 9.708200
16.744800 11.284300
16.765000 12.540800
16.785300 14.001700
16.805600 15.667000
16.825900 16.756900
16.846200 26.060700
16.866500 16.628800
16.886700 17.813400
16.907000 17.224900
16.927300 17.037800
16.947600 17.180300
16.967900 18.009700
16.988200 18.761700
17.008500 18.266400
17.028700 16.848700
17.049000 15.843100
17.069300 14.780900
17.089600 13.662000
17.109900 12.486600
17.130200 13.355700
17.150400 14.849000
17.170700 12.755200
17.191000 12.058400
17.211300 12.733200
17.231600 13.548500
17.251900 14.515300
17.272100 15.859800
17.292400 12.936800
17.312700 8.589700
17.333000 9.450700
17.353300 10.209200
17.373600 10.426700
17.393900 10.103300
17.414100 16.185800
17.434400 20.727200
17.454700 15.764400
17.475000 12.423800
17.495300 11.593000
17.515600 10.991900
17.535800 10.426300
17.556100 9.896200
17.576400 12.491200
17.596700 26.763500
17.617000 11.799500
17.637300 11.612200
17.657600 11.060600
17.677800 10.144500
17.698100 8.864000
17.718400 8.188200
17.738700 8.706200
17.759000 13.695800
17.779300 12.696900
17.799500 13.898300
17.819800 14.525500
17.840100 14.814900
17.860400 14.979200
17.880700 14.763400
17.901000 14.092700
17.921200 12.521700
17.941500 11.062700
17.961800 9.917800
17.982100 8.705100
18.002400 7.687200
18.022700 15.627700
18.043000 10.065500
18.063200 10.142400
18.083500 10.059400
18.103800 9.816400
18.124100 9.590100
18.144400 8.762800
18.164700 7.548100
18.184900 5.965200
18.205200 4.562000
18.225500 4.410000
18.245800 4.293400
18.266100 4.212000
18.286400 4.166000
18.306600 4.155400
18.326900 4.180000
18.347200 6.129700
18.367500 8.943500
18.387800 13.750100
18.408100 17.869800
18.428400 19.156300
18.448600 19.785800
18.468900 22.727700
18.489200 25.560500
18.509500 126.193100
18.529800 17.722500
18.550100 10.935900
18.570300 5.003000
18.590600 2.824700
18.610900 1.704900
18.631200 10.052200
18.651500 19.120300
18.671800 15.496900
18.692000 20.136600
18.712300 24.943100
18.732600 22.873700
18.752900 18.579300
18.773200 14.433400
18.793500 11.649500
18.813800 9.870200
18.834000 9.349900
18.854300 9.046200
18.874600 8.823000
18.894900 9.310100
18.915200 9.000900
18.935500 8.828500
18.955700 9.822000
18.976000 10.604100
18.996300 11.583400
19.016600 14.861500
19.036900 14.947000
19.057200 15.546900
19.077500 17.129800
19.097700 17.914700
19.118000 17.785200
19.138300 17.877600
19.158600 18.135900
19.178900 16.381500
19.199200 15.026600
19.219400 15.316700
19.239700 12.846100
19.260000 9.008800
19.280300 10.195800
19.300600 12.304300
19.320900 12.236600
19.341100 12.087900
19.361400 12.019400
19.381700 12.113200
19.402000 13.342600
19.422300 14.415800
19.442600 18.023400
19.462900 18.284700
19.483100 15.437100
19.503400 14.562700
19.523700 13.722400
19.544000 13.087800
19.564300 14.520400
19.584600 14.774300
19.604800 15.519400
19.625100 16.294900
19.645400 17.095700
19.665700 18.501200
19.686000 18.569700
19.706300 18.148800
19.726500 16.676500
19.746800 16.588000
19.767100 16.586100
19.787400 13.583200
19.807700 12.023800
19.828000 11.282900
19.848300 10.660100
19.868500 10.357500
19.888800 10.828900
19.909100 11.700800
19.929400 12.698500
19.949700 13.657000
19.970000 14.978300
19.990200 16.055900
20.010500 16.504700
20.030800 16.918900
20.051100 17.300600
20.071400 17.649900
20.091700 23.657400
20.111900 15.342100
20.132200 13.210900
20.152500 12.658100
20.172800 13.694900
20.193100 14.807900
20.213400 15.715700
20.233700 15.340900
20.253900 15.788800
20.274200 16.178900
20.294500 16.002200
20.314800 15.873400
20.335100 15.791900
20.355400 15.972900
20.375600 16.234500
20.395900 10.882100
20.416200 17.430100
20.436500 61.219700
20.456800 42.545300
20.477100 31.623000
20.497300 11.285500
20.517600 11.183300
20.537900 11.815600
20.558200 12.451200
20.578500 13.091100
20.598800 15.022000
20.619100 10.261500
20.639300 32.987400
20.659600 15.500700
20.679900 13.078000
20.700200 15.286700
20.720500 19.698200
20.740800 20.636600
20.761000 23.272100
20.781300 23.118100
20.801600 20.677200
20.821900 17.947800
20.842200 13.066300
20.862500 15.162600
20.882800 17.253600
20.903000 19.162300
20.923300 21.671000
20.943600 23.484800
20.963900 25.323400
20.984200 18.007000
21.004500 14.626500
21.024700 17.640800
21.045000 16.900000
21.065300 16.817900
21.085600 16.607400
21.105900 16.283200
21.126200 15.852100
21.146400 15.299300
21.166700 15.748000
21.187000 16.285700
21.207300 15.405300
21.227600 15.426400
21.247900 15.516900
21.268200 15.727800
21.288400 15.780000
21.308700 16.249500
21.329000 16.212900
21.349300 15.833000
21.369600 15.376100
21.389900 15.046300
21.410100 14.965800
21.430400 17.378000
21.450700 24.076200
21.471000 20.830600
21.491300 19.483900
21.511600 26.037700
21.531800 21.158100
21.552100 19.675000
21.572400 18.913500
21.592700 18.096600
21.613000 18.754600
21.633300 19.838800
21.653600 18.441200
21.673800 18.284200
21.694100 19.788100
21.714400 19.829800
21.734700 19.781100
21.755000 19.830000
21.775300 19.476900
21.795500 18.626900
21.815800 16.529100
21.836100 15.198600
21.856400 14.151500
21.876700 12.496800
21.897000 11.925900
21.917200 11.404100
21.937500 10.881100
21.957800 10.371400
21.978100 9.929400
21.998400 10.208700
22.018700 10.737400
22.039000 10.069500
22.059200 8.906500
22.079500 8.043200
22.099800 7.027900
22.120100 5.848300
22.140400 4.931300
22.160700 4.669200
22.180900 4.420700
22.201200 4.004600
22.221500 3.393200
22.241800 2.819300
22.262100 2.308300
22.282400 1.649200
22.302700 1.356200
22.322900 1.090900
22.343200 0.853000
22.363500 0.642300
22.383800 0.453600
22.404100 0.249300
22.424400 0.021800
22.444600 0.000000
22.464900 0.000000
22.485200 0.000000
22.505500 0.000000
22.525800 0.000000
22.546100 0.000000
22.566300 0.000000
22.586600 0.000000
22.606900 0.000000
22.627200 0.000000
22.647500 0.000000
22.667800 0.000000
22.688100 0.000000
22.708300 0.000000
22.728600 0.000000
22.748900 0.000000
22.769200 0.000000
22.789500 0.000000
22.809800 0.000000
22.830000 0.000000
22.850300 0.000000
22.870600 0.000000
22.890900 0.000000
22.911200 0.000000
22.931500 0.000000
22.951700 0.000000
22.972000 0.000000
22.992300 0.000000
23.012600 0.000000
23.032900 0.000000
23.053200 0.000000
23.073500 0.000000
23.093700 0.000000
23.114000 0.000000
23.134300 0.000000
23.154600 0.000000
23.174900 0.000000
23.195200 0.000000
23.215400 0.000000
23.235700 0.000000
23.256000 0.000000
23.276300 0.000000
23.296600 0.000000
23.316900 0.000000
23.337100 0.000000
23.357400 0.000000
23.377700 0.000000
23.398000 0.000000
23.418300 0.000000
23.438600 0.000000
23.458900 0.000000
23.479100 0.000000
23.499400 0.000000
23.519700 0.000000
23.540000 0.000000
23.560300 0.000000
23.580600 0.000000
23.600800 0.000000
23.621100 0.000000
23.641400 0.000000
23.661700 0.000000
23.682000 0.000000
23.702300 0.000000
23.722500 0.000000
23.742800 0.000000
23.763100 0.000000
23.783400 0.000000
23.803700 0.000000
23.824000 0.000000
23.844300 0.000000
23.864500 0.000000
23.884800 0.000000
23.905100 0.000000
23.925400 0.000000
23.945700 0.000000
23.966000 0.000000
23.986200 0.000000
24.006500 0.000000
24.026800 0.000000
24.047100 0.000000
24.067400 0.000000
24.087700 0.000000
24.108000 0.000000
24.128200 0.000000
24.148500 0.000000
24.168800 0.000000
24.189100 0.000000
24.209400 0.000000
24.229700 0.000000
24.249900 0.000000
24.270200 0.000000
e
