set title 'mp-570459 - Density of States'
set xlabel 'Energy (eV)'
set ylabel 'DOS (states/eV)'
set grid
set xrange [-10:10]
set yrange [0:4.027]
set xzeroaxis lt -1
set terminal png size 800,600
set output 'mp-570459_dos_gnuplot.png'
plot '-' using 1:2 with lines title 'DOS'
-9.825200 0.000000
-9.796700 0.000000
-9.768200 0.000000
-9.739700 0.000000
-9.711200 0.000000
-9.682700 0.000000
-9.654200 0.000000
-9.625600 0.000000
-9.597100 0.000000
-9.568600 0.000000
-9.540100 0.000000
-9.511600 0.000000
-9.483100 0.000000
-9.454600 0.000000
-9.426000 0.000000
-9.397500 0.000000
-9.369000 0.000000
-9.340500 0.000000
-9.312000 0.000000
-9.283500 0.000000
-9.254900 0.000000
-9.226400 0.000000
-9.197900 0.000000
-9.169400 0.000000
-9.140900 0.000000
-9.112400 0.000000
-9.083900 0.000000
-9.055300 0.000000
-9.026800 0.000000
-8.998300 0.000000
-8.969800 0.000000
-8.941300 0.000000
-8.912800 0.000000
-8.884200 0.000000
-8.855700 0.000000
-8.827200 0.000000
-8.798700 0.000000
-8.770200 0.000000
-8.741700 0.000000
-8.713200 0.000000
-8.684600 0.000000
-8.656100 0.000000
-8.627600 0.000000
-8.599100 0.000000
-8.570600 0.000000
-8.542100 0.000000
-8.513600 0.000000
-8.485000 0.000000
-8.456500 0.000000
-8.428000 0.000000
-8.399500 0.000000
-8.371000 0.000000
-8.342500 0.000000
-8.313900 0.000000
-8.285400 0.000000
-8.256900 0.000000
-8.228400 0.000000
-8.199900 0.000000
-8.171400 0.000000
-8.142900 0.000000
-8.114300 0.000000
-8.085800 0.000000
-8.057300 0.000000
-8.028800 0.000000
-8.000300 0.000000
-7.971800 0.000000
-7.943200 0.000000
-7.914700 0.000000
-7.886200 0.000000
-7.857700 0.000000
-7.829200 0.000000
-7.800700 0.000000
-7.772200 0.000000
-7.743600 0.000000
-7.715100 0.000000
-7.686600 0.000000
-7.658100 0.000000
-7.629600 0.000000
-7.601100 0.000000
-7.572600 0.000000
-7.544000 0.000000
-7.515500 0.000000
-7.487000 0.000000
-7.458500 0.000000
-7.430000 0.000000
-7.401500 0.000000
-7.372900 0.000000
-7.344400 0.000000
-7.315900 0.000000
-7.287400 0.000000
-7.258900 0.000000
-7.230400 0.000400
-7.201900 0.050500
-7.173300 0.183800
-7.144800 0.267000
-7.116300 0.280900
-7.087800 0.322200
-7.059300 0.373300
-7.030800 0.426700
-7.002200 0.471900
-6.973700 0.494200
-6.945200 0.509300
-6.916700 0.536700
-6.888200 0.567800
-6.859700 0.599100
-6.831200 0.630400
-6.802600 0.662600
-6.774100 0.696200
-6.745600 0.725200
-6.717100 0.753400
-6.688600 0.783900
-6.660100 0.814800
-6.631600 0.846200
-6.603000 0.878600
-6.574500 0.913000
-6.546000 0.950600
-6.517500 0.989700
-6.489000 1.018600
-6.460500 1.023400
-6.431900 1.031900
-6.403400 1.039500
-6.374900 1.044400
-6.346400 1.051000
-6.317900 1.062200
-6.289400 1.073200
-6.260900 1.084500
-6.232300 1.095400
-6.203800 1.108000
-6.175300 1.136200
-6.146800 1.175000
-6.118300 1.212400
-6.089800 1.253300
-6.061200 1.298200
-6.032700 1.347000
-6.004200 1.399200
-5.975700 1.455100
-5.947200 1.515500
-5.918700 1.582200
-5.890200 1.703300
-5.861600 1.777000
-5.833100 1.821800
-5.804600 1.854600
-5.776100 1.889900
-5.747600 1.981000
-5.719100 2.072500
-5.690600 2.003900
-5.662000 1.969500
-5.633500 2.001300
-5.605000 2.049600
-5.576500 2.110900
-5.548000 2.187400
-5.519500 2.291800
-5.490900 2.489400
-5.462400 2.407200
-5.433900 1.914600
-5.405400 1.842300
-5.376900 1.724200
-5.348400 1.662600
-5.319900 1.674800
-5.291300 1.669100
-5.262800 1.638600
-5.234300 1.440400
-5.205800 1.427500
-5.177300 1.542700
-5.148800 1.648600
-5.120200 1.692200
-5.091700 1.729900
-5.063200 1.825200
-5.034700 2.015400
-5.006200 2.117300
-4.977700 2.221300
-4.949200 2.278500
-4.920600 2.529700
-4.892100 2.808100
-4.863600 2.764100
-4.835100 2.841100
-4.806600 2.617800
-4.778100 2.413300
-4.749600 2.755700
-4.721000 1.912500
-4.692500 1.544200
-4.664000 1.367900
-4.635500 1.250000
-4.607000 1.150600
-4.578500 1.071300
-4.549900 1.026400
-4.521400 1.003400
-4.492900 1.055300
-4.464400 1.070900
-4.435900 1.165500
-4.407400 1.460000
-4.378900 1.451400
-4.350300 1.560000
-4.321800 1.670600
-4.293300 1.747500
-4.264800 1.798500
-4.236300 1.945100
-4.207800 1.864200
-4.179200 1.865600
-4.150700 1.868900
-4.122200 1.883900
-4.093700 1.932400
-4.065200 1.863300
-4.036700 1.863400
-4.008200 1.841500
-3.979600 1.952000
-3.951100 2.112500
-3.922600 2.169900
-3.894100 2.220500
-3.865600 2.076400
-3.837100 1.949400
-3.808600 1.839500
-3.780000 1.701900
-3.751500 1.573900
-3.723000 1.377600
-3.694500 1.282900
-3.666000 1.214600
-3.637500 1.154000
-3.608900 1.108800
-3.580400 1.067200
-3.551900 1.024600
-3.523400 0.978600
-3.494900 0.932400
-3.466400 0.892800
-3.437900 0.856000
-3.409300 0.822300
-3.380800 0.790100
-3.352300 0.757400
-3.323800 0.722800
-3.295300 0.691200
-3.266800 0.665400
-3.238200 0.641500
-3.209700 0.618600
-3.181200 0.596800
-3.152700 0.577600
-3.124200 0.560600
-3.095700 0.543600
-3.067200 0.526100
-3.038600 0.508600
-3.010100 0.490900
-2.981600 0.473000
-2.953100 0.455000
-2.924600 0.436400
-2.896100 0.417200
-2.867600 0.403600
-2.839000 0.390100
-2.810500 0.376800
-2.782000 0.363500
-2.753500 0.350100
-2.725000 0.337200
-2.696500 0.322400
-2.667900 0.306600
-2.639400 0.291400
-2.610900 0.276800
-2.582400 0.263300
-2.553900 0.251500
-2.525400 0.241400
-2.496900 0.230900
-2.468300 0.219600
-2.439800 0.207600
-2.411300 0.195000
-2.382800 0.181600
-2.354300 0.168000
-2.325800 0.154300
-2.297200 0.147300
-2.268700 0.141400
-2.240200 0.130800
-2.211700 0.115300
-2.183200 0.096200
-2.154700 0.077600
-2.126200 0.053400
-2.097600 0.030100
-2.069100 0.013500
-2.040600 0.003400
-2.012100 0.000000
-1.983600 0.000000
-1.955100 0.000000
-1.926600 0.000000
-1.898000 0.000000
-1.869500 0.000000
-1.841000 0.000000
-1.812500 0.000000
-1.784000 0.000000
-1.755500 0.000000
-1.726900 0.000000
-1.698400 0.000000
-1.669900 0.000000
-1.641400 0.000000
-1.612900 0.000000
-1.584400 0.000000
-1.555900 0.000000
-1.527300 0.000000
-1.498800 0.000000
-1.470300 0.000000
-1.441800 0.000000
-1.413300 0.000000
-1.384800 0.000000
-1.356200 0.000000
-1.327700 0.000000
-1.299200 0.000000
-1.270700 0.000000
-1.242200 0.000000
-1.213700 0.000000
-1.185200 0.000000
-1.156600 0.000000
-1.128100 0.000000
-1.099600 0.000000
-1.071100 0.000000
-1.042600 0.000000
-1.014100 0.000000
-0.985600 0.000000
-0.957000 0.000000
-0.928500 0.000000
-0.900000 0.000000
-0.871500 0.000000
-0.843000 0.000000
-0.814500 0.000000
-0.785900 0.000000
-0.757400 0.000000
-0.728900 0.000000
-0.700400 0.000000
-0.671900 0.000000
-0.643400 0.000000
-0.614900 0.000000
-0.586300 0.000000
-0.557800 0.000000
-0.529300 0.000000
-0.500800 0.000000
-0.472300 0.000000
-0.443800 0.000000
-0.415200 0.000000
-0.386700 0.000000
-0.358200 0.000000
-0.329700 0.000000
-0.301200 0.000000
-0.272700 0.000000
-0.244200 0.000000
-0.215600 0.000000
-0.187100 0.000000
-0.158600 0.000000
-0.130100 0.000000
-0.101600 0.000000
-0.073100 0.000000
-0.044600 0.000000
-0.016000 0.000000
0.012500 0.000000
0.041000 0.000000
0.069500 0.000000
0.098000 0.000000
0.126500 0.000000
0.155100 0.000000
0.183600 0.000000
0.212100 0.000000
0.240600 0.000000
0.269100 0.000000
0.297600 0.000000
0.326100 0.000000
0.354700 0.000000
0.383200 0.000000
0.411700 0.000000
0.440200 0.000000
0.468700 0.000000
0.497200 0.000000
0.525800 0.000000
0.554300 0.190900
0.582800 0.263700
0.611300 0.336000
0.639800 0.406800
0.668300 0.493300
0.696800 0.602600
0.725400 0.642000
0.753900 0.650300
0.782400 0.718700
0.810900 0.806200
0.839400 0.831000
0.867900 0.856900
0.896400 0.915700
0.925000 1.016200
0.953500 1.117800
0.982000 1.226000
1.010500 1.332300
1.039000 1.268600
1.067500 1.209100
1.096100 1.189400
1.124600 1.210600
1.153100 1.216000
1.181600 1.254900
1.210100 1.329500
1.238600 1.425000
1.267100 1.455700
1.295700 1.440900
1.324200 1.476000
1.352700 1.541100
1.381200 1.626200
1.409700 1.730100
1.438200 1.816800
1.466800 1.909400
1.495300 2.041000
1.523800 2.230500
1.552300 2.424100
1.580800 2.490200
1.609300 2.444900
1.637800 2.324000
1.666400 2.186200
1.694900 2.059800
1.723400 2.036400
1.751900 2.196700
1.780400 2.463100
1.808900 2.758200
1.837400 3.180100
1.866000 3.269200
1.894500 3.288400
1.923000 3.303000
1.951500 3.232000
1.980000 3.046200
2.008500 2.941700
2.037100 2.905100
2.065600 2.899600
2.094100 2.879500
2.122600 2.730200
2.151100 2.574600
2.179600 2.442800
2.208100 2.299000
2.236700 2.211800
2.265200 2.163400
2.293700 2.124400
2.322200 2.097200
2.350700 2.124400
2.379200 2.211200
2.407800 2.251800
2.436300 2.314200
2.464800 2.400300
2.493300 2.534700
2.521800 2.754000
2.550300 3.061400
2.578800 3.166700
2.607400 3.245600
2.635900 3.247100
2.664400 3.424500
2.692900 3.661000
2.721400 3.392100
2.749900 3.235200
2.778400 3.128900
2.807000 3.052200
2.835500 2.983300
2.864000 2.868500
2.892500 3.027900
2.921000 2.851700
2.949500 2.740300
2.978100 2.628800
3.006600 2.419200
3.035100 2.311400
3.063600 2.179300
3.092100 2.095900
3.120600 2.042300
3.149100 1.993200
3.177700 1.942000
3.206200 1.912700
3.234700 1.920700
3.263200 1.931400
3.291700 1.968400
3.320200 2.012900
3.348800 2.052000
3.377300 2.074600
3.405800 2.097600
3.434300 2.138100
3.462800 2.163900
3.491300 2.151200
3.519800 2.186200
3.548400 2.213500
3.576900 2.240800
3.605400 2.306200
3.633900 2.438800
3.662400 2.569700
3.690900 2.718100
3.719400 2.793200
3.748000 2.737300
3.776500 2.628600
3.805000 2.814600
3.833500 2.475600
3.862000 2.214700
3.890500 2.106200
3.919100 2.130500
3.947600 1.961800
3.976100 1.890700
4.004600 1.853500
4.033100 1.825800
4.061600 1.806000
4.090100 1.796100
4.118700 1.798300
4.147200 1.808100
4.175700 1.823800
4.204200 1.844700
4.232700 1.890400
4.261200 1.943200
4.289800 1.984100
4.318300 2.032300
4.346800 2.090400
4.375300 2.155300
4.403800 2.227500
4.432300 2.264500
4.460800 2.292700
4.489400 2.298400
4.517900 2.328400
4.546400 2.301400
4.574900 2.314000
4.603400 2.365100
4.631900 2.398800
4.660400 2.381700
4.689000 2.365500
4.717500 2.369200
4.746000 2.380700
4.774500 2.349800
4.803000 2.325400
4.831500 2.309300
4.860100 2.292100
4.888600 2.272700
4.917100 2.243100
4.945600 2.205800
4.974100 2.181800
5.002600 2.171000
5.031100 2.163700
5.059700 2.165600
5.088200 2.180700
5.116700 2.202200
5.145200 2.200700
5.173700 2.203500
5.202200 2.210900
5.230800 2.223300
5.259300 2.243600
5.287800 2.280800
5.316300 2.318900
5.344800 2.362300
5.373300 2.409600
5.401800 2.443800
5.430400 2.463700
5.458900 2.482500
5.487400 2.513800
5.515900 2.528700
5.544400 2.512400
5.572900 2.474400
5.601500 2.451800
5.630000 2.426500
5.658500 2.397900
5.687000 2.371800
5.715500 2.353200
5.744000 2.347000
5.772500 2.312600
5.801100 2.270600
5.829600 2.226900
5.858100 2.158700
5.886600 2.066000
5.915100 1.983000
5.943600 1.840600
5.972100 1.697300
6.000700 1.540300
6.029200 1.359100
6.057700 1.172600
6.086200 1.029000
6.114700 0.899000
6.143200 0.773900
6.171800 0.642000
6.200300 0.518800
6.228800 0.377900
6.257300 0.261000
6.285800 0.175600
6.314300 0.126200
6.342800 0.082300
6.371400 0.065200
6.399900 0.074800
6.428400 0.110700
6.456900 0.153800
6.485400 0.210800
6.513900 0.292100
6.542500 0.402200
6.571000 0.534300
6.599500 0.689400
6.628000 0.886700
6.656500 1.134300
6.685000 1.495500
6.713500 1.854800
6.742100 2.121900
6.770600 2.429300
6.799100 2.779800
6.827600 2.999900
6.856100 3.095200
6.884600 3.078400
6.913100 3.034600
6.941700 2.965000
6.970200 2.876400
6.998700 2.757800
7.027200 2.648600
7.055700 2.562900
7.084200 2.500600
7.112800 2.454800
7.141300 2.418400
7.169800 2.394800
7.198300 2.383400
7.226800 2.378400
7.255300 2.374200
7.283800 2.329400
7.312400 2.303400
7.340900 2.273900
7.369400 2.250600
7.397900 2.236500
7.426400 2.258200
7.454900 2.280000
7.483500 2.302100
7.512000 2.284600
7.540500 2.279000
7.569000 2.296700
7.597500 2.323100
7.626000 2.359700
7.654500 2.415800
7.683100 2.527400
7.711600 2.721200
7.740100 2.718200
7.768600 2.689900
7.797100 2.634800
7.825600 2.583000
7.854100 2.551900
7.882700 2.513800
7.911200 2.450900
7.939700 2.423000
7.968200 2.409000
7.996700 2.357700
8.025200 2.328300
8.053800 2.293200
8.082300 2.263100
8.110800 2.254300
8.139300 2.241400
8.167800 2.233600
8.196300 2.233400
8.224800 2.243600
8.253400 2.281300
8.281900 2.325200
8.310400 2.368100
8.338900 2.339200
8.367400 2.278000
8.395900 2.154900
8.424500 2.080800
8.453000 2.025300
8.481500 1.978900
8.510000 1.942300
8.538500 1.941700
8.567000 1.933400
8.595500 1.938100
8.624100 1.973000
8.652600 2.036300
8.681100 2.262800
8.709600 2.023100
8.738100 2.000600
8.766600 2.021200
8.795100 1.997000
8.823700 1.881700
8.852200 1.849800
8.880700 1.760000
8.909200 1.670200
8.937700 1.586600
8.966200 1.480900
8.994800 1.407500
9.023300 1.363000
9.051800 1.325100
9.080300 1.293800
9.108800 1.293400
9.137300 1.333100
9.165800 1.301000
9.194400 1.185300
9.222900 1.237900
9.251400 1.309800
9.279900 1.370400
9.308400 1.315900
9.336900 1.263900
9.365500 1.208900
9.394000 1.164800
9.422500 1.174200
9.451000 1.026100
9.479500 0.920700
9.508000 0.857400
9.536500 0.843000
9.565100 0.848200
9.593600 0.865200
9.622100 0.895000
9.650600 0.931100
9.679100 0.950000
9.707600 0.939700
9.736100 0.970500
9.764700 0.992100
9.793200 1.019000
9.821700 1.044200
9.850200 1.053200
9.878700 1.050100
9.907200 1.026400
9.935800 0.996700
9.964300 0.974000
9.992800 0.966700
10.021300 0.983900
10.049800 1.019400
10.078300 1.064200
10.106800 1.111300
10.135400 1.147400
10.163900 1.179500
10.192400 1.213300
10.220900 1.262300
10.249400 1.328300
10.277900 1.390400
10.306500 1.440400
10.335000 1.494900
10.363500 1.557500
10.392000 1.583700
10.420500 1.528200
10.449000 1.516100
10.477500 1.500500
10.506100 1.476400
10.534600 1.461700
10.563100 1.450900
10.591600 1.429200
10.620100 1.411600
10.648600 1.372800
10.677100 1.313500
10.705700 1.259800
10.734200 1.210000
10.762700 1.167200
10.791200 1.130400
10.819700 1.094500
10.848200 1.043700
10.876800 1.053600
10.905300 1.078500
10.933800 1.074100
10.962300 1.031000
10.990800 0.979500
11.019300 0.922000
11.047800 0.878400
11.076400 0.887800
11.104900 0.923400
11.133400 0.971700
11.161900 1.030500
11.190400 1.076700
11.218900 1.135200
11.247500 1.228500
11.276000 1.353800
11.304500 1.513200
11.333000 1.675900
11.361500 1.712800
11.390000 1.643600
11.418500 1.624300
11.447100 1.618000
11.475600 1.632400
11.504100 1.650200
11.532600 1.626100
11.561100 1.643100
11.589600 1.622100
11.618100 1.568600
11.646700 1.545800
11.675200 1.510700
11.703700 1.511400
11.732200 1.443500
11.760700 1.381700
11.789200 1.343200
11.817800 1.312000
11.846300 1.287300
11.874800 1.266900
11.903300 1.251200
11.931800 1.237700
11.960300 1.214800
11.988800 1.281400
12.017400 1.360700
12.045900 1.417100
12.074400 1.470200
12.102900 1.648500
12.131400 1.714400
12.159900 1.791500
12.188500 1.673400
12.217000 1.612300
12.245500 1.606600
12.274000 1.622400
12.302500 1.630000
12.331000 1.650300
12.359500 1.673900
12.388100 1.750900
12.416600 1.777800
12.445100 1.755700
12.473600 1.724300
12.502100 1.705700
12.530600 1.683800
12.559100 1.671400
12.587700 1.669600
12.616200 1.669600
12.644700 1.671800
12.673200 1.691300
12.701700 1.699500
12.730200 1.681100
12.758800 1.645800
12.787300 1.655600
12.815800 1.711500
12.844300 1.738200
12.872800 1.740500
12.901300 1.783200
12.929800 1.857900
12.958400 1.934100
12.986900 2.016600
13.015400 2.012500
13.043900 2.066500
13.072400 2.117200
13.100900 2.174300
13.129500 2.256600
13.158000 2.315100
13.186500 2.278300
13.215000 2.248900
13.243500 2.230400
13.272000 2.237400
13.300500 2.242400
13.329100 2.242800
13.357600 2.239400
13.386100 2.240700
13.414600 2.252600
13.443100 2.256800
13.471600 2.263800
13.500100 2.291500
13.528700 2.325800
13.557200 2.369200
13.585700 2.421100
13.614200 2.538900
13.642700 2.625500
13.671200 2.793200
13.699800 2.899900
13.728300 2.877300
13.756800 2.945400
13.785300 3.096100
13.813800 3.141000
13.842300 3.131800
13.870800 3.094600
13.899400 3.076900
13.927900 2.978100
13.956400 2.954800
13.984900 2.930300
14.013400 2.911800
14.041900 2.892700
14.070500 2.888200
14.099000 2.900000
14.127500 2.925700
14.156000 2.949600
14.184500 3.004600
14.213000 3.085600
14.241500 3.161700
14.270100 3.166300
14.298600 3.236000
14.327100 3.238400
14.355600 3.373500
14.384100 3.380700
14.412600 3.306900
14.441100 3.174600
14.469700 3.119200
14.498200 3.088300
14.526700 3.194900
14.555200 3.114700
14.583700 3.092200
14.612200 3.192200
14.640800 3.208200
14.669300 3.257100
14.697800 3.335600
14.726300 3.430100
14.754800 3.554500
14.783300 3.663900
14.811800 3.769300
14.840400 3.912300
14.868900 4.021100
14.897400 4.102900
14.925900 4.108200
14.954400 4.085300
14.982900 4.031200
15.011500 3.867500
15.040000 3.635200
15.068500 3.335200
15.097000 3.168000
15.125500 3.121500
15.154000 3.089100
15.182500 3.067200
15.211100 3.041700
15.239600 3.070900
15.268100 3.200200
15.296600 3.272700
15.325100 3.259500
15.353600 3.188900
15.382100 3.185500
15.410700 3.226000
15.439200 3.263700
15.467700 3.306600
15.496200 3.346300
15.524700 3.375300
15.553200 3.403200
15.581800 3.454100
15.610300 3.551800
15.638800 3.607500
15.667300 3.532700
15.695800 3.346300
15.724300 3.159700
15.752800 3.127600
15.781400 3.124700
15.809900 3.174500
15.838400 3.276300
15.866900 3.345500
15.895400 3.350700
15.923900 3.389200
15.952500 3.343100
15.981000 3.410200
16.009500 3.367100
16.038000 3.208500
16.066500 3.101900
16.095000 3.049300
16.123500 2.989000
16.152100 2.918400
16.180600 2.728900
16.209100 2.691600
16.237600 2.676400
16.266100 2.709800
16.294600 2.786100
16.323100 2.812500
16.351700 2.891400
16.380200 2.984800
16.408700 3.161300
16.437200 3.003600
16.465700 2.963200
16.494200 2.867200
16.522800 2.812000
16.551300 2.794600
16.579800 2.758800
16.608300 2.709900
16.636800 2.649100
16.665300 2.607900
16.693800 2.540900
16.722400 2.557100
16.750900 2.665200
16.779400 2.726200
16.807900 2.745400
16.836400 2.813100
16.864900 2.857000
16.893500 2.932000
16.922000 3.049400
16.950500 3.061500
16.979000 2.999700
17.007500 2.951200
17.036000 2.999000
17.064500 3.013400
17.093100 3.099700
17.121600 3.207500
17.150100 3.331800
17.178600 3.455900
17.207100 3.614800
17.235600 3.705000
17.264100 3.748400
17.292700 3.610300
17.321200 3.506200
17.349700 3.422900
17.378200 3.369300
17.406700 3.335300
17.435200 3.154300
17.463800 3.139400
17.492300 3.127500
17.520800 3.116100
17.549300 3.122100
17.577800 3.176500
17.606300 3.238500
17.634800 3.368200
17.663400 3.380500
17.691900 3.360900
17.720400 3.325600
17.748900 3.227400
17.777400 3.117000
17.805900 3.087800
17.834500 3.102700
17.863000 3.119000
17.891500 3.127100
17.920000 3.112700
17.948500 3.118900
17.977000 3.137700
18.005500 3.145900
18.034100 3.156600
18.062600 3.183600
18.091100 3.222200
18.119600 3.205800
18.148100 3.176800
18.176600 3.179500
18.205100 3.204000
18.233700 3.220600
18.262200 3.210700
18.290700 3.247300
18.319200 3.296300
18.347700 3.327400
18.376200 3.413600
18.404800 3.388100
18.433300 3.351600
18.461800 3.307100
18.490300 3.307700
18.518800 3.405800
18.547300 3.463900
18.575800 3.509600
18.604400 3.600500
18.632900 3.728300
18.661400 3.905100
18.689900 3.888800
18.718400 3.868200
18.746900 3.821600
18.775500 3.735900
18.804000 3.565000
18.832500 3.470400
18.861000 3.481000
18.889500 3.420400
18.918000 3.317700
18.946500 3.290000
18.975100 3.307900
19.003600 3.292100
19.032100 3.318900
19.060600 3.378700
19.089100 3.323200
19.117600 3.257100
19.146100 3.306900
19.174700 3.428700
19.203200 3.485300
19.231700 3.487800
19.260200 3.456800
19.288700 3.449800
19.317200 3.513400
19.345800 3.612600
19.374300 3.622200
19.402800 3.659500
19.431300 3.695000
19.459800 3.718000
19.488300 3.769400
19.516800 3.792600
19.545400 3.833600
19.573900 3.826900
19.602400 3.775100
19.630900 3.689700
19.659400 3.640000
19.687900 3.724000
19.716500 3.733200
19.745000 3.742200
19.773500 3.718900
19.802000 3.714500
19.830500 3.689700
19.859000 3.912200
19.887500 3.654500
19.916100 3.665900
19.944600 3.799900
19.973100 3.941400
20.001600 3.945600
20.030100 3.790200
20.058600 3.540300
20.087100 3.457500
20.115700 3.420200
20.144200 3.385900
20.172700 3.369100
20.201200 3.338500
20.229700 3.337000
20.258200 3.325300
20.286800 3.312600
20.315300 3.337900
20.343800 3.368400
20.372300 3.416700
20.400800 3.478200
20.429300 3.529000
20.457800 3.617000
20.486400 3.642600
20.514900 3.685700
20.543400 3.743100
20.571900 3.729700
20.600400 3.758100
20.628900 3.792700
20.657500 3.743100
20.686000 3.750600
20.714500 3.768700
20.743000 3.731400
20.771500 3.704900
20.800000 3.687200
20.828500 3.686300
20.857100 3.687200
20.885600 3.648300
20.914100 3.566400
20.942600 3.524900
20.971100 3.532500
20.999600 3.579600
21.028100 3.694100
21.056700 3.802500
21.085200 3.854000
21.113700 3.958000
21.142200 3.949800
21.170700 3.886500
21.199200 3.820400
21.227800 3.799400
21.256300 3.827600
21.284800 3.851400
21.313300 3.871100
21.341800 3.893800
21.370300 3.900200
21.398800 3.902700
21.427400 3.956100
21.455900 4.007500
21.484400 4.026000
21.512900 4.030300
21.541400 3.980200
21.569900 3.876300
21.598500 3.698400
21.627000 3.515000
21.655500 3.403200
21.684000 3.355400
21.712500 3.426300
21.741000 3.508800
21.769500 3.410200
21.798100 3.399200
21.826600 3.431100
21.855100 3.483100
21.883600 3.532200
21.912100 3.544600
21.940600 3.475800
21.969100 3.387400
21.997700 3.357600
22.026200 3.394700
22.054700 3.419900
22.083200 3.433400
22.111700 3.504600
22.140200 3.608000
22.168800 3.707100
22.197300 3.787600
22.225800 3.892200
22.254300 3.990700
22.282800 4.079600
22.311300 4.092500
22.339800 4.051600
22.368400 4.007700
22.396900 4.031000
22.425400 4.055700
22.453900 4.027500
22.482400 3.960200
22.510900 3.970600
22.539500 4.039800
22.568000 4.100100
22.596500 4.059200
22.625000 3.970400
22.653500 4.027500
22.682000 4.132400
22.710500 4.182800
22.739100 4.221400
22.767600 4.347700
22.796100 4.289800
22.824600 4.196400
22.853100 4.085400
22.881600 3.962300
22.910200 3.848100
22.938700 3.744600
22.967200 3.659600
22.995700 3.627200
23.024200 3.613400
23.052700 3.641600
23.081200 3.619700
23.109800 3.643400
23.138300 3.681200
23.166800 3.743200
23.195300 3.741200
23.223800 3.742000
23.252300 3.659200
23.280800 3.678900
23.309400 3.817900
23.337900 3.958400
23.366400 4.010200
23.394900 3.948600
23.423400 3.926900
23.451900 3.910000
23.480500 3.893300
23.509000 3.874400
23.537500 3.882100
23.566000 3.904600
23.594500 3.939600
23.623000 3.995600
23.651500 4.070600
23.680100 4.148400
23.708600 4.329900
23.737100 4.371800
23.765600 4.399700
23.794100 4.335900
23.822600 4.265200
23.851200 4.300600
23.879700 4.343900
23.908200 4.367300
23.936700 4.336700
23.965200 4.325600
23.993700 4.354000
24.022200 4.379100
24.050800 4.349000
24.079300 4.334000
24.107800 4.248600
24.136300 4.181500
24.164800 4.123500
24.193300 4.113200
24.221800 4.100300
24.250400 4.112400
24.278900 4.117800
24.307400 4.132700
24.335900 4.166800
24.364400 4.229400
24.392900 4.286800
24.421500 4.295100
24.450000 4.294500
24.478500 4.269400
24.507000 4.197100
24.535500 4.173800
24.564000 4.184200
24.592500 4.102800
24.621100 4.037200
24.649600 4.042800
24.678100 4.017200
24.706600 3.932500
24.735100 3.929700
24.763600 3.925400
24.792200 3.914200
24.820700 3.858300
24.849200 3.847700
24.877700 3.895900
24.906200 3.960600
24.934700 3.999800
24.963200 4.007500
24.991800 4.002000
25.020300 4.014700
25.048800 3.994400
25.077300 4.015900
25.105800 4.050400
25.134300 4.125900
25.162800 4.190500
25.191400 4.358500
25.219900 4.455800
25.248400 4.462200
25.276900 4.465600
25.305400 4.360900
25.333900 4.294800
25.362500 4.288900
25.391000 4.184400
25.419500 4.131300
25.448000 4.120400
25.476500 4.168900
25.505000 4.150300
25.533500 4.119800
25.562100 4.114600
25.590600 4.103000
25.619100 4.175000
25.647600 4.202100
25.676100 4.207600
25.704600 4.226400
25.733200 4.236100
25.761700 4.228500
25.790200 4.209500
25.818700 4.021000
25.847200 3.932800
25.875700 3.910900
25.904200 3.937000
25.932800 4.006100
25.961300 4.071100
25.989800 4.097100
26.018300 4.135100
26.046800 4.214700
26.075300 4.348100
26.103800 4.429200
26.132400 4.539600
26.160900 4.551100
26.189400 4.610500
26.217900 4.603300
26.246400 4.500700
26.274900 4.480600
26.303500 4.586400
26.332000 4.680500
26.360500 4.746500
26.389000 4.736900
26.417500 4.711700
26.446000 4.730100
26.474500 4.754600
26.503100 4.660800
26.531600 4.500200
26.560100 4.405100
26.588600 4.354600
26.617100 4.308200
26.645600 4.288800
26.674200 4.310100
26.702700 4.357200
26.731200 4.455700
26.759700 4.464900
26.788200 4.495100
26.816700 4.540000
26.845200 4.646100
26.873800 4.760000
26.902300 4.810500
26.930800 4.845400
26.959300 4.884400
26.987800 4.848600
27.016300 4.747100
27.044800 4.678200
27.073400 4.677900
27.101900 4.701400
27.130400 4.758700
27.158900 4.762300
27.187400 4.846300
27.215900 5.020800
27.244500 5.115900
27.273000 5.146900
27.301500 5.304900
27.330000 5.104400
27.358500 4.985000
27.387000 4.863600
27.415500 4.826600
27.444100 4.852400
27.472600 4.924600
27.501100 5.004100
27.529600 5.007000
27.558100 4.969900
27.586600 4.995500
27.615200 4.916800
27.643700 4.803300
27.672200 4.661500
27.700700 4.624000
27.729200 4.558700
27.757700 4.426900
27.786200 4.354200
27.814800 4.352800
27.843300 4.355900
27.871800 4.362500
27.900300 4.369800
27.928800 4.468600
27.957300 4.500100
27.985800 4.543000
28.014400 4.561700
28.042900 4.555300
28.071400 4.541300
28.099900 4.542200
28.128400 4.571000
28.156900 4.613300
28.185500 4.576400
28.214000 4.497100
28.242500 4.486600
28.271000 4.491000
28.299500 4.485800
28.328000 4.513100
28.356500 4.462600
28.385100 4.454500
28.413600 4.443600
28.442100 4.415700
28.470600 4.364800
28.499100 4.300000
28.527600 4.286300
28.556200 4.335000
28.584700 4.481400
28.613200 4.570000
28.641700 4.671400
28.670200 4.742800
28.698700 4.778700
28.727200 4.802200
28.755800 4.843100
28.784300 4.850700
28.812800 4.895400
28.841300 4.974700
28.869800 4.989500
28.898300 4.863100
28.926800 4.795700
28.955400 4.704600
28.983900 4.563500
29.012400 4.488200
29.040900 4.467200
29.069400 4.535000
29.097900 4.714500
29.126500 4.893500
29.155000 4.953900
29.183500 4.941300
29.212000 4.937700
29.240500 4.830600
29.269000 4.715900
29.297500 4.644600
29.326100 4.593600
29.354600 4.550300
29.383100 4.457800
29.411600 4.374700
29.440100 4.348700
29.468600 4.378700
29.497200 4.439500
29.525700 4.465200
29.554200 4.465500
29.582700 4.489700
29.611200 4.523500
29.639700 4.524700
29.668200 4.473000
29.696800 4.429300
29.725300 4.372700
29.753800 4.317700
29.782300 4.281500
29.810800 4.255300
29.839300 4.165700
29.867800 4.120700
29.896400 4.092700
29.924900 4.142100
29.953400 4.327600
29.981900 4.618300
30.010400 4.722500
30.038900 4.628000
30.067500 4.719300
30.096000 4.730200
30.124500 4.697500
30.153000 4.833600
30.181500 4.902000
30.210000 4.694900
30.238500 4.556000
30.267100 4.583600
30.295600 4.670000
30.324100 4.767900
30.352600 4.689300
30.381100 4.561100
30.409600 4.375600
30.438200 4.401300
30.466700 4.423000
30.495200 4.490700
30.523700 4.547000
30.552200 4.706900
30.580700 4.797900
30.609200 4.793300
30.637800 4.836000
30.666300 4.897400
30.694800 4.990100
30.723300 5.031200
30.751800 4.968900
30.780300 5.062700
30.808800 5.113900
30.837400 5.222600
30.865900 5.405400
30.894400 5.528000
30.922900 5.549000
30.951400 5.537000
30.979900 5.440500
31.008500 5.368600
31.037000 5.374000
31.065500 5.262300
31.094000 5.172600
31.122500 5.115300
31.151000 4.961500
31.179500 4.755400
31.208100 4.661900
31.236600 4.642600
31.265100 4.685100
31.293600 4.766500
31.322100 4.822900
31.350600 4.931700
31.379200 4.955200
31.407700 4.950300
31.436200 4.915400
31.464700 4.867100
31.493200 4.824400
31.521700 4.777500
31.550200 4.883400
31.578800 4.735100
31.607300 4.674600
31.635800 4.699200
31.664300 4.660500
31.692800 4.653600
31.721300 4.567700
31.749800 4.592300
31.778400 4.676200
31.806900 4.795300
31.835400 5.037000
31.863900 5.251600
31.892400 5.343600
31.920900 5.233700
31.949500 4.917900
31.978000 4.692400
32.006500 4.571200
32.035000 4.477100
32.063500 4.478300
32.092000 4.431800
32.120500 4.445600
32.149100 4.458600
32.177600 4.614100
32.206100 4.742400
32.234600 4.745100
32.263100 4.712700
32.291600 4.671000
32.320200 4.684300
32.348700 4.738600
32.377200 4.772800
32.405700 4.849600
32.434200 4.954900
32.462700 4.951300
32.491200 4.925000
32.519800 4.688700
32.548300 4.732800
32.576800 4.908100
32.605300 5.134200
32.633800 5.196000
32.662300 5.033800
32.690800 5.001600
32.719400 5.144300
32.747900 5.305000
32.776400 5.527200
32.804900 5.449900
32.833400 5.308800
32.861900 5.177400
32.890500 5.050000
32.919000 4.925500
32.947500 4.793100
32.976000 4.719100
33.004500 4.626800
33.033000 4.651800
33.061500 4.565600
33.090100 4.654900
33.118600 4.768200
33.147100 4.938500
33.175600 5.023000
33.204100 4.808200
33.232600 4.692900
33.261200 4.704000
33.289700 4.822100
33.318200 4.977500
33.346700 5.048600
33.375200 5.169300
33.403700 5.345500
33.432200 5.488400
33.460800 5.591500
33.489300 5.548200
33.517800 5.483000
33.546300 5.420000
33.574800 5.299200
33.603300 5.169800
33.631800 5.030400
33.660400 4.926100
33.688900 4.888800
33.717400 4.921700
33.745900 4.969000
33.774400 4.998000
33.802900 5.049100
33.831500 5.091100
33.860000 5.108600
33.888500 5.045900
33.917000 4.986700
33.945500 4.963000
33.974000 4.976600
34.002500 5.097700
34.031100 5.162500
34.059600 5.147300
34.088100 5.254100
34.116600 5.277600
34.145100 5.302600
34.173600 5.297800
34.202200 5.263300
34.230700 5.104300
34.259200 4.991900
34.287700 4.899000
34.316200 4.737200
34.344700 4.566600
34.373200 4.241200
34.401800 4.002100
34.430300 3.936700
34.458800 3.905900
34.487300 3.911800
34.515800 4.005300
34.544300 4.103500
34.572800 4.189500
34.601400 4.262600
34.629900 4.356000
34.658400 4.501000
34.686900 4.572000
34.715400 4.608500
34.743900 4.543600
34.772500 4.372700
34.801000 4.233500
34.829500 4.148300
34.858000 4.138200
34.886500 4.194200
34.915000 4.213100
34.943500 4.336300
34.972100 4.558100
35.000600 4.531300
35.029100 4.562100
35.057600 4.739400
35.086100 4.896900
35.114600 5.031100
35.143200 4.911500
35.171700 4.818200
35.200200 4.724600
35.228700 4.661300
35.257200 4.608900
35.285700 4.740300
35.314200 4.800000
35.342800 4.685700
35.371300 4.613600
35.399800 4.589100
35.428300 4.539100
35.456800 4.518800
35.485300 4.469000
35.513800 4.348600
35.542400 4.188900
35.570900 4.197100
35.599400 4.231500
35.627900 4.246900
35.656400 4.314400
35.684900 4.570700
35.713500 4.425500
35.742000 4.441700
35.770500 4.635700
35.799000 4.926100
35.827500 4.833700
35.856000 5.069700
35.884500 5.232000
35.913100 5.342800
35.941600 5.346200
35.970100 5.208800
35.998600 5.018200
36.027100 4.816400
36.055600 4.706500
36.084200 4.536100
36.112700 4.537100
36.141200 4.570700
36.169700 4.731500
36.198200 4.817800
36.226700 4.934400
36.255200 5.177300
36.283800 5.072500
36.312300 5.162300
36.340800 4.994600
36.369300 5.091500
36.397800 4.859100
36.426300 4.861100
36.454800 4.859800
36.483400 4.902200
36.511900 4.871900
36.540400 4.858500
36.568900 4.882800
36.597400 4.838700
36.625900 4.774300
36.654500 4.786000
36.683000 4.932500
36.711500 5.109000
36.740000 5.301200
36.768500 5.250100
36.797000 4.944400
36.825500 4.781200
36.854100 4.696900
36.882600 4.627800
36.911100 4.525400
36.939600 4.618900
36.968100 4.667100
36.996600 4.716900
37.025200 4.760600
37.053700 4.781800
37.082200 4.753500
37.110700 4.828400
37.139200 5.025700
37.167700 4.916200
37.196200 4.792700
37.224800 4.866500
37.253300 4.848800
37.281800 4.901400
37.310300 4.985700
37.338800 5.073100
37.367300 5.207800
37.395800 5.269600
37.424400 5.355600
37.452900 5.281900
37.481400 5.260500
37.509900 5.218400
37.538400 5.322600
37.566900 5.319000
37.595500 5.146500
37.624000 4.952200
37.652500 4.819000
37.681000 4.747500
37.709500 4.705800
37.738000 4.739900
37.766500 4.728000
37.795100 4.752100
37.823600 4.904400
37.852100 5.021100
37.880600 5.373200
37.909100 5.336900
37.937600 5.264200
37.966200 5.073900
37.994700 5.056500
38.023200 5.145900
38.051700 5.225300
38.080200 5.314600
38.108700 5.235400
38.137200 5.072100
38.165800 4.941400
38.194300 4.916100
38.222800 4.933600
38.251300 4.940500
38.279800 5.014400
38.308300 5.105000
38.336800 5.232000
38.365400 5.423300
38.393900 5.612100
38.422400 5.573200
38.450900 5.538300
38.479400 5.493100
38.507900 5.398200
38.536500 5.375800
38.565000 5.453400
38.593500 5.507300
38.622000 5.512600
38.650500 5.515300
38.679000 5.624400
38.707500 5.809600
38.736100 5.523900
38.764600 5.732700
38.793100 5.663800
38.821600 5.768300
38.850100 5.579600
38.878600 5.580400
38.907200 5.646700
38.935700 5.466500
38.964200 5.257400
38.992700 5.195000
39.021200 5.440900
39.049700 5.217900
39.078200 5.169900
39.106800 5.212500
39.135300 5.330700
39.163800 5.408200
39.192300 5.318000
39.220800 5.249800
39.249300 5.235100
39.277800 5.056000
39.306400 4.852500
39.334900 4.714500
39.363400 4.463200
39.391900 4.423500
39.420400 4.396400
39.448900 4.479400
39.477500 4.439100
39.506000 4.389500
39.534500 4.385500
39.563000 4.358000
39.591500 4.346600
39.620000 4.357200
39.648500 4.352100
39.677100 4.479900
39.705600 4.673500
39.734100 4.848000
39.762600 4.946400
39.791100 5.043700
39.819600 4.980300
39.848200 5.167600
39.876700 5.310200
39.905200 5.600000
39.933700 5.376300
39.962200 5.020300
39.990700 4.920200
40.019200 4.998100
40.047800 5.243000
40.076300 5.321800
40.104800 5.486900
40.133300 5.522600
40.161800 5.332600
40.190300 5.211500
40.218800 5.222600
40.247400 5.163000
40.275900 5.111200
40.304400 5.311000
40.332900 5.257000
40.361400 5.145800
40.389900 4.949200
40.418500 4.750600
40.447000 4.691700
40.475500 4.639300
40.504000 4.534200
40.532500 4.436100
40.561000 4.456500
40.589500 4.514000
40.618100 4.597600
40.646600 4.712800
40.675100 4.880500
40.703600 5.045100
40.732100 5.151200
40.760600 5.056600
40.789200 4.822500
40.817700 4.543000
40.846200 4.330500
40.874700 4.237000
40.903200 4.327500
40.931700 4.411600
40.960200 4.535300
40.988800 4.930300
41.017300 4.782800
41.045800 4.850600
41.074300 5.341700
41.102800 5.080600
41.131300 5.016300
41.159900 5.156000
41.188400 5.177300
41.216900 5.319900
41.245400 5.339000
41.273900 5.460100
41.302400 5.610200
41.330900 5.496300
41.359500 5.153300
41.388000 5.194300
41.416500 5.171600
41.445000 5.275700
41.473500 5.404300
41.502000 5.633400
41.530500 5.880400
41.559100 6.162600
41.587600 6.393200
41.616100 6.437900
41.644600 6.327000
41.673100 6.134600
41.701600 6.052700
41.730200 6.030300
41.758700 5.573200
41.787200 5.544100
41.815700 5.708400
41.844200 6.009800
41.872700 6.046100
41.901200 6.220700
41.929800 6.544900
41.958300 6.369600
41.986800 6.181700
42.015300 5.945700
42.043800 5.583600
42.072300 5.672900
42.100900 5.922500
42.129400 6.020400
42.157900 5.947200
42.186400 5.785700
42.214900 5.604900
42.243400 5.390600
42.271900 5.328600
42.300500 5.345600
42.329000 5.228800
42.357500 5.281000
42.386000 5.304100
42.414500 5.291900
42.443000 5.337700
42.471500 5.461400
42.500100 5.608000
42.528600 5.452700
42.557100 5.071000
42.585600 4.781400
42.614100 4.672900
42.642600 4.765300
42.671200 4.710800
42.699700 4.690100
42.728200 4.647700
42.756700 4.650500
42.785200 4.622100
42.813700 4.651400
42.842200 4.656400
42.870800 4.565400
42.899300 4.373600
42.927800 4.205800
42.956300 4.053200
42.984800 3.943700
43.013300 3.846600
43.041900 3.744100
43.070400 3.648000
43.098900 3.572200
43.127400 3.428900
43.155900 3.343800
43.184400 3.295900
43.212900 3.289400
43.241500 3.251700
43.270000 3.192900
43.298500 3.186300
43.327000 3.101100
43.355500 2.928700
43.384000 2.830900
43.412500 2.757900
43.441100 2.682900
43.469600 2.532400
43.498100 2.410400
43.526600 2.294300
43.555100 2.161300
43.583600 2.008400
43.612200 1.871100
43.640700 1.714100
43.669200 1.498500
43.697700 1.273400
43.726200 1.069100
43.754700 0.931500
43.783200 0.842100
43.811800 0.754500
43.840300 0.643000
43.868800 0.540900
43.897300 0.489900
43.925800 0.452000
43.954300 0.420100
43.982900 0.390200
44.011400 0.364300
44.039900 0.337700
44.068400 0.323500
44.096900 0.307800
44.125400 0.282900
44.153900 0.259500
44.182500 0.243900
44.211000 0.230500
44.239500 0.213500
44.268000 0.189700
44.296500 0.152100
44.325000 0.117700
44.353500 0.089000
44.382100 0.068800
44.410600 0.055800
44.439100 0.044200
44.467600 0.033600
44.496100 0.024000
44.524600 0.015600
44.553200 0.008300
44.581700 0.002300
44.610200 0.000000
44.638700 0.000000
44.667200 0.000000
44.695700 0.000000
44.724200 0.000000
44.752800 0.000000
44.781300 0.000000
44.809800 0.000000
44.838300 0.000000
44.866800 0.000000
44.895300 0.000000
44.923900 0.000000
44.952400 0.000000
44.980900 0.000000
45.009400 0.000000
45.037900 0.000000
45.066400 0.000000
45.094900 0.000000
45.123500 0.000000
45.152000 0.000000
45.180500 0.000000
45.209000 0.000000
45.237500 0.000000
45.266000 0.000000
45.294500 0.000000
45.323100 0.000000
45.351600 0.000000
45.380100 0.000000
45.408600 0.000000
45.437100 0.000000
45.465600 0.000000
45.494200 0.000000
45.522700 0.000000
45.551200 0.000000
45.579700 0.000000
45.608200 0.000000
45.636700 0.000000
45.665200 0.000000
45.693800 0.000000
45.722300 0.000000
45.750800 0.000000
45.779300 0.000000
45.807800 0.000000
45.836300 0.000000
45.864900 0.000000
45.893400 0.000000
45.921900 0.000000
45.950400 0.000000
45.978900 0.000000
46.007400 0.000000
46.035900 0.000000
46.064500 0.000000
46.093000 0.000000
46.121500 0.000000
46.150000 0.000000
46.178500 0.000000
46.207000 0.000000
46.235500 0.000000
46.264100 0.000000
46.292600 0.000000
46.321100 0.000000
46.349600 0.000000
46.378100 0.000000
46.406600 0.000000
46.435200 0.000000
46.463700 0.000000
46.492200 0.000000
46.520700 0.000000
46.549200 0.000000
46.577700 0.000000
46.606200 0.000000
46.634800 0.000000
46.663300 0.000000
46.691800 0.000000
46.720300 0.000000
46.748800 0.000000
46.777300 0.000000
46.805900 0.000000
46.834400 0.000000
46.862900 0.000000
46.891400 0.000000
46.919900 0.000000
46.948400 0.000000
46.976900 0.000000
47.005500 0.000000
47.034000 0.000000
47.062500 0.000000
47.091000 0.000000
47.119500 0.000000
47.148000 0.000000
47.176500 0.000000
47.205100 0.000000
e
