set title 'mp-971775 - Density of States'
set xlabel 'Energy (eV)'
set ylabel 'DOS (states/eV)'
set grid
set xrange [-10:10]
set yrange [0:73.525]
set xzeroaxis lt -1
set terminal png size 800,600
set output 'mp-971775_dos_gnuplot.png'
plot '-' using 1:2 with lines title 'DOS'
-13.652600 0.000000
-13.627000 0.000000
-13.601400 0.000000
-13.575800 0.000000
-13.550200 0.000000
-13.524600 0.000000
-13.499000 0.000000
-13.473400 0.000000
-13.447800 0.000000
-13.422200 0.000000
-13.396600 0.000000
-13.371000 0.000000
-13.345400 0.000000
-13.319800 0.000000
-13.294200 0.000000
-13.268600 0.000000
-13.243000 0.000000
-13.217400 0.000000
-13.191800 0.000000
-13.166200 0.000000
-13.140600 0.000000
-13.115000 0.000000
-13.089400 0.000000
-13.063800 0.000000
-13.038200 0.000000
-13.012600 0.000000
-12.987000 0.000000
-12.961400 0.000000
-12.935800 0.000000
-12.910200 0.000000
-12.884600 0.000000
-12.859000 0.000000
-12.833300 0.000000
-12.807700 0.000000
-12.782100 0.000000
-12.756500 0.000000
-12.730900 0.000000
-12.705300 0.000000
-12.679700 0.000000
-12.654100 0.000000
-12.628500 0.000000
-12.602900 0.000000
-12.577300 0.000000
-12.551700 0.000000
-12.526100 0.000000
-12.500500 0.000000
-12.474900 0.000000
-12.449300 0.000000
-12.423700 0.000000
-12.398100 0.000000
-12.372500 0.000000
-12.346900 0.000000
-12.321300 0.000000
-12.295700 0.000000
-12.270100 0.000000
-12.244500 0.000000
-12.218900 0.000000
-12.193300 0.000000
-12.167700 0.000000
-12.142100 0.000000
-12.116500 0.000000
-12.090900 0.000000
-12.065300 0.000000
-12.039700 0.000000
-12.014100 0.000000
-11.988500 0.000000
-11.962900 0.000000
-11.937300 0.000000
-11.911700 0.000000
-11.886100 0.000000
-11.860500 0.000000
-11.834800 0.000000
-11.809200 0.000000
-11.783600 0.000000
-11.758000 0.000000
-11.732400 0.000000
-11.706800 0.000000
-11.681200 0.000000
-11.655600 0.000000
-11.630000 0.000000
-11.604400 0.000000
-11.578800 0.000000
-11.553200 0.000000
-11.527600 0.000000
-11.502000 0.000000
-11.476400 0.000000
-11.450800 0.000200
-11.425200 0.003100
-11.399600 0.030300
-11.374000 0.187500
-11.348400 0.762800
-11.322800 2.162400
-11.297200 4.751300
-11.271600 9.392600
-11.246000 18.183800
-11.220400 32.584200
-11.194800 49.696000
-11.169200 63.316600
-11.143600 70.604400
-11.118000 74.397400
-11.092400 77.335100
-11.066800 78.893500
-11.041200 80.008000
-11.015600 83.426700
-10.990000 87.732100
-10.964400 88.401600
-10.938800 84.467000
-10.913200 77.945100
-10.887600 67.956200
-10.861900 52.066600
-10.836300 33.221400
-10.810700 17.954500
-10.785100 8.940400
-10.759500 4.389200
-10.733900 1.998000
-10.708300 0.725800
-10.682700 0.186100
-10.657100 0.031500
-10.631500 0.003400
-10.605900 0.000200
-10.580300 0.000000
-10.554700 0.000000
-10.529100 0.000000
-10.503500 0.000000
-10.477900 0.000000
-10.452300 0.000000
-10.426700 0.000000
-10.401100 0.000000
-10.375500 0.000000
-10.349900 0.000000
-10.324300 0.000000
-10.298700 0.000000
-10.273100 0.000000
-10.247500 0.000000
-10.221900 0.000000
-10.196300 0.000000
-10.170700 0.000000
-10.145100 0.000000
-10.119500 0.000000
-10.093900 0.000000
-10.068300 0.000000
-10.042700 0.000000
-10.017100 0.000000
-9.991500 0.000000
-9.965900 0.000000
-9.940300 0.000000
-9.914700 0.000000
-9.889000 0.000000
-9.863400 0.000000
-9.837800 0.000000
-9.812200 0.000000
-9.786600 0.000000
-9.761000 0.000000
-9.735400 0.000000
-9.709800 0.000000
-9.684200 0.000000
-9.658600 0.000000
-9.633000 0.000000
-9.607400 0.000000
-9.581800 0.000000
-9.556200 0.000000
-9.530600 0.000000
-9.505000 0.000000
-9.479400 0.000000
-9.453800 0.000000
-9.428200 0.000000
-9.402600 0.000000
-9.377000 0.000000
-9.351400 0.000000
-9.325800 0.000000
-9.300200 0.000000
-9.274600 0.000000
-9.249000 0.000000
-9.223400 0.000000
-9.197800 0.000000
-9.172200 0.000000
-9.146600 0.000000
-9.121000 0.000000
-9.095400 0.000000
-9.069800 0.000000
-9.044200 0.000000
-9.018600 0.000000
-8.993000 0.000000
-8.967400 0.000000
-8.941800 0.000000
-8.916100 0.000000
-8.890500 0.000000
-8.864900 0.000000
-8.839300 0.000000
-8.813700 0.000000
-8.788100 0.000000
-8.762500 0.000000
-8.736900 0.000000
-8.711300 0.000000
-8.685700 0.000000
-8.660100 0.000000
-8.634500 0.000000
-8.608900 0.000000
-8.583300 0.000000
-8.557700 0.000000
-8.532100 0.000000
-8.506500 0.000000
-8.480900 0.000000
-8.455300 0.000000
-8.429700 0.000000
-8.404100 0.000000
-8.378500 0.000000
-8.352900 0.000000
-8.327300 0.000000
-8.301700 0.000000
-8.276100 0.000000
-8.250500 0.000000
-8.224900 0.000000
-8.199300 0.000000
-8.173700 0.000000
-8.148100 0.000000
-8.122500 0.000000
-8.096900 0.000000
-8.071300 0.000000
-8.045700 0.000000
-8.020100 0.000000
-7.994500 0.000000
-7.968900 0.000000
-7.943200 0.000000
-7.917600 0.000000
-7.892000 0.000000
-7.866400 0.000000
-7.840800 0.000000
-7.815200 0.000000
-7.789600 0.000000
-7.764000 0.000000
-7.738400 0.000000
-7.712800 0.000000
-7.687200 0.000000
-7.661600 0.000000
-7.636000 0.000000
-7.610400 0.000000
-7.584800 0.000000
-7.559200 0.000000
-7.533600 0.000000
-7.508000 0.000000
-7.482400 0.000000
-7.456800 0.000000
-7.431200 0.000000
-7.405600 0.000000
-7.380000 0.000000
-7.354400 0.000000
-7.328800 0.000000
-7.303200 0.000000
-7.277600 0.000000
-7.252000 0.000000
-7.226400 0.000000
-7.200800 0.000000
-7.175200 0.000000
-7.149600 0.000000
-7.124000 0.000000
-7.098400 0.000000
-7.072800 0.000000
-7.047200 0.000000
-7.021600 0.000000
-6.996000 0.000000
-6.970400 0.000000
-6.944700 0.000000
-6.919100 0.000000
-6.893500 0.000000
-6.867900 0.000000
-6.842300 0.000000
-6.816700 0.000000
-6.791100 0.000000
-6.765500 0.000000
-6.739900 0.000000
-6.714300 0.000000
-6.688700 0.000000
-6.663100 0.000000
-6.637500 0.000000
-6.611900 0.000000
-6.586300 0.000000
-6.560700 0.000000
-6.535100 0.000000
-6.509500 0.000000
-6.483900 0.000000
-6.458300 0.000000
-6.432700 0.000000
-6.407100 0.000000
-6.381500 0.000000
-6.355900 0.000000
-6.330300 0.000000
-6.304700 0.000000
-6.279100 0.000000
-6.253500 0.000000
-6.227900 0.000000
-6.202300 0.000000
-6.176700 0.000000
-6.151100 0.000000
-6.125500 0.000000
-6.099900 0.000000
-6.074300 0.000000
-6.048700 0.000000
-6.023100 0.000000
-5.997500 0.000000
-5.971800 0.000000
-5.946200 0.000000
-5.920600 0.000000
-5.895000 0.000000
-5.869400 0.000000
-5.843800 0.000000
-5.818200 0.000000
-5.792600 0.000000
-5.767000 0.000000
-5.741400 0.000000
-5.715800 0.000000
-5.690200 0.000000
-5.664600 0.000000
-5.639000 0.000000
-5.613400 0.000000
-5.587800 0.000000
-5.562200 0.000000
-5.536600 0.000000
-5.511000 0.000000
-5.485400 0.000000
-5.459800 0.000000
-5.434200 0.000000
-5.408600 0.000500
-5.383000 0.003300
-5.357400 0.013700
-5.331800 0.036600
-5.306200 0.069800
-5.280600 0.109900
-5.255000 0.165500
-5.229400 0.255600
-5.203800 0.361700
-5.178200 0.389700
-5.152600 0.291700
-5.127000 0.175900
-5.101400 0.187100
-5.075800 0.347400
-5.050200 0.528300
-5.024600 0.588100
-4.998900 0.556600
-4.973300 0.568100
-4.947700 0.629400
-4.922100 0.592400
-4.896500 0.422500
-4.870900 0.287200
-4.845300 0.287900
-4.819700 0.417900
-4.794100 0.652900
-4.768500 0.834400
-4.742900 0.819600
-4.717300 0.745800
-4.691700 0.781000
-4.666100 0.820000
-4.640500 0.674100
-4.614900 0.432800
-4.589300 0.384800
-4.563700 0.631200
-4.538100 0.953700
-4.512500 1.085900
-4.486900 1.040500
-4.461300 1.000100
-4.435700 0.979700
-4.410100 0.849700
-4.384500 0.635500
-4.358900 0.516300
-4.333300 0.539800
-4.307700 0.668600
-4.282100 0.918600
-4.256500 1.168200
-4.230900 1.267700
-4.205300 1.317100
-4.179700 1.352200
-4.154100 1.188500
-4.128500 0.848500
-4.102900 0.621900
-4.077300 0.770300
-4.051700 1.277800
-4.026000 1.704200
-4.000400 1.637600
-3.974800 1.242800
-3.949200 0.908000
-3.923600 0.699800
-3.898000 0.533700
-3.872400 0.464800
-3.846800 0.519600
-3.821200 0.629400
-3.795600 0.817800
-3.770000 1.209300
-3.744400 1.777000
-3.718800 2.193500
-3.693200 2.159100
-3.667600 1.712900
-3.642000 1.150100
-3.616400 0.757200
-3.590800 0.661200
-3.565200 0.858800
-3.539600 1.224300
-3.514000 1.544600
-3.488400 1.606200
-3.462800 1.356700
-3.437200 0.962000
-3.411600 0.600200
-3.386000 0.393700
-3.360400 0.414700
-3.334800 0.546400
-3.309200 0.603700
-3.283600 0.668700
-3.258000 0.940700
-3.232400 1.336600
-3.206800 1.580700
-3.181200 1.496400
-3.155600 1.146300
-3.130000 0.815300
-3.104400 0.745400
-3.078800 0.881600
-3.053100 0.968400
-3.027500 0.931500
-3.001900 0.914800
-2.976300 0.988900
-2.950700 1.152000
-2.925100 1.463400
-2.899500 1.919700
-2.873900 2.276200
-2.848300 2.303600
-2.822700 2.116000
-2.797100 1.947900
-2.771500 1.838900
-2.745900 1.706400
-2.720300 1.528100
-2.694700 1.378300
-2.669100 1.309600
-2.643500 1.295500
-2.617900 1.372700
-2.592300 1.582400
-2.566700 1.749300
-2.541100 1.726900
-2.515500 1.624900
-2.489900 1.540500
-2.464300 1.450400
-2.438700 1.407200
-2.413100 1.536200
-2.387500 1.737900
-2.361900 1.723600
-2.336300 1.466600
-2.310700 1.256100
-2.285100 1.316300
-2.259500 1.664800
-2.233900 2.132700
-2.208300 2.384000
-2.182700 2.207600
-2.157100 1.726400
-2.131500 1.344200
-2.105900 1.395800
-2.080300 1.735700
-2.054600 1.994600
-2.029000 2.049400
-2.003400 1.983300
-1.977800 1.830600
-1.952200 1.557400
-1.926600 1.213800
-1.901000 0.996600
-1.875400 1.069800
-1.849800 1.379300
-1.824200 1.777800
-1.798600 2.130100
-1.773000 2.281900
-1.747400 2.254800
-1.721800 2.309100
-1.696200 2.570800
-1.670600 2.884200
-1.645000 2.978300
-1.619400 2.791800
-1.593800 2.647200
-1.568200 2.711600
-1.542600 2.708900
-1.517000 2.491800
-1.491400 2.278600
-1.465800 2.272800
-1.440200 2.450900
-1.414600 2.669600
-1.389000 2.722300
-1.363400 2.521900
-1.337800 2.312400
-1.312200 2.347500
-1.286600 2.659200
-1.261000 3.201300
-1.235400 3.726400
-1.209800 3.824300
-1.184200 3.404100
-1.158600 2.781000
-1.133000 2.271900
-1.107400 1.941400
-1.081700 1.729900
-1.056100 1.601200
-1.030500 1.804800
-1.004900 3.957600
-0.979300 12.711500
-0.953700 32.758700
-0.928100 57.112100
-0.902500 66.840900
-0.876900 55.830800
-0.851300 38.514000
-0.825700 26.497700
-0.800100 19.532200
-0.774500 15.119400
-0.748900 12.439600
-0.723300 10.716800
-0.697700 8.963400
-0.672100 6.942400
-0.646500 5.106200
-0.620900 3.711300
-0.595300 2.746300
-0.569700 2.180100
-0.544100 1.773500
-0.518500 1.303900
-0.492900 0.866200
-0.467300 0.565400
-0.441700 0.388500
-0.416100 0.351700
-0.390500 0.464000
-0.364900 0.637900
-0.339300 0.735300
-0.313700 0.677300
-0.288100 0.512900
-0.262500 0.431800
-0.236900 0.586500
-0.211300 0.817200
-0.185700 0.794500
-0.160100 0.495400
-0.134500 0.196000
-0.108800 0.056900
-0.083200 0.045800
-0.057600 0.105400
-0.032000 0.182300
-0.006400 0.204500
0.019200 0.147900
0.044800 0.068500
0.070400 0.020200
0.096000 0.003700
0.121600 0.000400
0.147200 0.000000
0.172800 0.000000
0.198400 0.000000
0.224000 0.000000
0.249600 0.000000
0.275200 0.000000
0.300800 0.000000
0.326400 0.000000
0.352000 0.000000
0.377600 0.000000
0.403200 0.000000
0.428800 0.000000
0.454400 0.000000
0.480000 0.000000
0.505600 0.000000
0.531200 0.000000
0.556800 0.000000
0.582400 0.000000
0.608000 0.000000
0.633600 0.000000
0.659200 0.000000
0.684800 0.000000
0.710400 0.000000
0.736000 0.000000
0.761600 0.000000
0.787200 0.000000
0.812800 0.000000
0.838400 0.000000
0.864100 0.000000
0.889700 0.000000
0.915300 0.000000
0.940900 0.000000
0.966500 0.000000
0.992100 0.000000
1.017700 0.000000
1.043300 0.000000
1.068900 0.000000
1.094500 0.000100
1.120100 0.001100
1.145700 0.008200
1.171300 0.036900
1.196900 0.100600
1.222500 0.166300
1.248100 0.168500
1.273700 0.116700
1.299300 0.099900
1.324900 0.159100
1.350500 0.241700
1.376100 0.323500
1.401700 0.506400
1.427300 0.808900
1.452900 0.999600
1.478500 0.935400
1.504100 0.784900
1.529700 0.715100
1.555300 0.743700
1.580900 0.822600
1.606500 0.838500
1.632100 0.740600
1.657700 0.656200
1.683300 0.769000
1.708900 1.095200
1.734500 1.461500
1.760100 1.699000
1.785700 1.696000
1.811300 1.389600
1.837000 0.890700
1.862600 0.487400
1.888200 0.462500
1.913800 0.892100
1.939400 1.552100
1.965000 2.234200
1.990600 3.027600
2.016200 3.738100
2.041800 3.766800
2.067400 3.070100
2.093000 2.224900
2.118600 1.665600
2.144200 1.488800
2.169800 1.572600
2.195400 1.733400
2.221000 1.936900
2.246600 2.173500
2.272200 2.198000
2.297800 1.839400
2.323400 1.420700
2.349000 1.385300
2.374600 1.636000
2.400200 1.664300
2.425800 1.322300
2.451400 0.992600
2.477000 0.979900
2.502600 1.163700
2.528200 1.249600
2.553800 1.115600
2.579400 0.859400
2.605000 0.684200
2.630600 0.779900
2.656200 1.137700
2.681800 1.510400
2.707400 1.688300
2.733000 1.628800
2.758600 1.369900
2.784200 1.061000
2.809800 0.890700
2.835500 0.920600
2.861100 1.079100
2.886700 1.235400
2.912300 1.280000
2.937900 1.191200
2.963500 1.093600
2.989100 1.203500
3.014700 1.500100
3.040300 1.634300
3.065900 1.458900
3.091500 1.231100
3.117100 1.136800
3.142700 1.192300
3.168300 1.462200
3.193900 1.835300
3.219500 1.964300
3.245100 1.682700
3.270700 1.140400
3.296300 0.657900
3.321900 0.531800
3.347500 0.840800
3.373100 1.380800
3.398700 1.722200
3.424300 1.631400
3.449900 1.326800
3.475500 1.111200
3.501100 1.118400
3.526700 1.297300
3.552300 1.489900
3.577900 1.608300
3.603500 1.670700
3.629100 1.650300
3.654700 1.477400
3.680300 1.302800
3.705900 1.298300
3.731500 1.301400
3.757100 1.267400
3.782700 1.409000
3.808400 1.665000
3.834000 1.835000
3.859600 1.898900
3.885200 1.924700
3.910800 2.012400
3.936400 2.143600
3.962000 2.204700
3.987600 2.249800
4.013200 2.362600
4.038800 2.452700
4.064400 2.406100
4.090000 2.219900
4.115600 2.007300
4.141200 1.939900
4.166800 2.106500
4.192400 2.399700
4.218000 2.625600
4.243600 2.823500
4.269200 3.100200
4.294800 3.263500
4.320400 3.171500
4.346000 2.911100
4.371600 2.553900
4.397200 2.298600
4.422800 2.328600
4.448400 2.527400
4.474000 2.760900
4.499600 2.974100
4.525200 2.994600
4.550800 2.770900
4.576400 2.540200
4.602000 2.483700
4.627600 2.522700
4.653200 2.480000
4.678800 2.338800
4.704400 2.147400
4.730000 1.839700
4.755600 1.491400
4.781300 1.316300
4.806900 1.350500
4.832500 1.484600
4.858100 1.648800
4.883700 1.840900
4.909300 2.110200
4.934900 2.505400
4.960500 2.909700
4.986100 3.112900
5.011700 3.167900
5.037300 3.070200
5.062900 2.591800
5.088500 1.969500
5.114100 1.669300
5.139700 1.674700
5.165300 1.696900
5.190900 1.635800
5.216500 1.624900
5.242100 1.718000
5.267700 1.737700
5.293300 1.553100
5.318900 1.288600
5.344500 1.195100
5.370100 1.374800
5.395700 1.620400
5.421300 1.664500
5.446900 1.622100
5.472500 1.783600
5.498100 2.110800
5.523700 2.326500
5.549300 2.266100
5.574900 2.050100
5.600500 1.879100
5.626100 1.778000
5.651700 1.705900
5.677300 1.588700
5.702900 1.453100
5.728500 1.550300
5.754200 1.861400
5.779800 1.946400
5.805400 1.615300
5.831000 1.268100
5.856600 1.366500
5.882200 1.804700
5.907800 2.055900
5.933400 1.958000
5.959000 1.915200
5.984600 2.213600
6.010200 2.583100
6.035800 2.676400
6.061400 2.496000
6.087000 2.166800
6.112600 1.855400
6.138200 1.766100
6.163800 2.000400
6.189400 2.543700
6.215000 3.218700
6.240600 3.633100
6.266200 3.426200
6.291800 2.709900
6.317400 2.028600
6.343000 1.675400
6.368600 1.458200
6.394200 1.271200
6.419800 1.303900
6.445400 1.622400
6.471000 1.977400
6.496600 2.066900
6.522200 1.935100
6.547800 1.947900
6.573400 2.226400
6.599000 2.415200
6.624600 2.240700
6.650200 1.944300
6.675800 1.910000
6.701400 2.099800
6.727100 2.102200
6.752700 1.812100
6.778300 1.616800
6.803900 1.782400
6.829500 2.066600
6.855100 2.074400
6.880700 1.869600
6.906300 1.784900
6.931900 1.928500
6.957500 2.236100
6.983100 2.530500
7.008700 2.726600
7.034300 2.832800
7.059900 2.670800
7.085500 2.238100
7.111100 1.984600
7.136700 2.234300
7.162300 2.630300
7.187900 2.584200
7.213500 2.143000
7.239100 1.855600
7.264700 1.986300
7.290300 2.209500
7.315900 2.047300
7.341500 1.465800
7.367100 0.905300
7.392700 0.770400
7.418300 0.995600
7.443900 1.191500
7.469500 1.243200
7.495100 1.490200
7.520700 2.070700
7.546300 2.544200
7.571900 2.593100
7.597500 2.558300
7.623100 2.709700
7.648700 2.689700
7.674300 2.265500
7.699900 1.885200
7.725600 1.997500
7.751200 2.485800
7.776800 2.924200
7.802400 2.923300
7.828000 2.410000
7.853600 1.789800
7.879200 1.577800
7.904800 1.941500
7.930400 2.617600
7.956000 3.031600
7.981600 2.791000
8.007200 2.150100
8.032800 1.647200
8.058400 1.538300
8.084000 1.735000
8.109600 1.996500
8.135200 2.212400
8.160800 2.522000
8.186400 2.972300
8.212000 3.321600
8.237600 3.467400
8.263200 3.561900
8.288800 3.483400
8.314400 2.998400
8.340000 2.380100
8.365600 2.150500
8.391200 2.276900
8.416800 2.282100
8.442400 2.107200
8.468000 2.147700
8.493600 2.610100
8.519200 3.244000
8.544800 3.643300
8.570400 3.704300
8.596000 3.645500
8.621600 3.674000
8.647200 3.668600
8.672800 3.331300
8.698500 2.783200
8.724100 2.417500
8.749700 2.308800
8.775300 2.391200
8.800900 2.605900
8.826500 2.753800
8.852100 2.816100
8.877700 2.975100
8.903300 3.177600
8.928900 3.119900
8.954500 2.807500
8.980100 2.716800
9.005700 3.032400
9.031300 3.368800
9.056900 3.416200
9.082500 3.201900
9.108100 2.958300
9.133700 2.895100
9.159300 2.805300
9.184900 2.394100
9.210500 1.966400
9.236100 1.891900
9.261700 1.922500
9.287300 1.834200
9.312900 1.799600
9.338500 1.920600
9.364100 2.112900
9.389700 2.331700
9.415300 2.589100
9.440900 2.764800
9.466500 2.766400
9.492100 2.802700
9.517700 3.085700
9.543300 3.347900
9.568900 3.046800
9.594500 2.215700
9.620100 1.456900
9.645700 1.061300
9.671400 0.903100
9.697000 0.930700
9.722600 1.193000
9.748200 1.651400
9.773800 2.157200
9.799400 2.508200
9.825000 2.694400
9.850600 2.958800
9.876200 3.381200
9.901800 3.706600
9.927400 3.626300
9.953000 3.129600
9.978600 2.643200
10.004200 2.472400
10.029800 2.456000
10.055400 2.479500
10.081000 2.625300
10.106600 2.848200
10.132200 3.031700
10.157800 3.310600
10.183400 3.765200
10.209000 3.935700
10.234600 3.375900
10.260200 2.403300
10.285800 1.665700
10.311400 1.490300
10.337000 1.863000
10.362600 2.461700
10.388200 2.848900
10.413800 2.795700
10.439400 2.433000
10.465000 2.298300
10.490600 2.673000
10.516200 3.078500
10.541800 3.060300
10.567400 2.860000
10.593000 2.880800
10.618600 2.988100
10.644300 2.961400
10.669900 2.937800
10.695500 2.979100
10.721100 2.959200
10.746700 2.782900
10.772300 2.493500
10.797900 2.323000
10.823500 2.351000
10.849100 2.350200
10.874700 2.345100
10.900300 2.658300
10.925900 3.113700
10.951500 3.124800
10.977100 2.589600
11.002700 1.943600
11.028300 1.592400
11.053900 1.626300
11.079500 1.781600
11.105100 1.807700
11.130700 1.874900
11.156300 2.205600
11.181900 2.675400
11.207500 3.043500
11.233100 3.192700
11.258700 3.105600
11.284300 2.927600
11.309900 2.883500
11.335500 2.891700
11.361100 2.727600
11.386700 2.543300
11.412300 2.505800
11.437900 2.335100
11.463500 1.876900
11.489100 1.440700
11.514700 1.361100
11.540300 1.616600
11.565900 1.830700
11.591500 1.802700
11.617200 1.832500
11.642800 2.207100
11.668400 2.660600
11.694000 2.713400
11.719600 2.401500
11.745200 2.100800
11.770800 1.961500
11.796400 1.947400
11.822000 1.927500
11.847600 1.757900
11.873200 1.572100
11.898800 1.563300
11.924400 1.614900
11.950000 1.638400
11.975600 1.790800
12.001200 2.298800
12.026800 3.170100
12.052400 3.871100
12.078000 3.788900
12.103600 3.015200
12.129200 2.095400
12.154800 1.434000
12.180400 1.179100
12.206000 1.274400
12.231600 1.596900
12.257200 1.930200
12.282800 1.984400
12.308400 1.769800
12.334000 1.559000
12.359600 1.495000
12.385200 1.634300
12.410800 1.918500
12.436400 2.060100
12.462000 2.014400
12.487600 2.079400
12.513200 2.264100
12.538800 2.271100
12.564400 2.099700
12.590100 2.070900
12.615700 2.363600
12.641300 2.823900
12.666900 3.005900
12.692500 2.654900
12.718100 2.146100
12.743700 1.940700
12.769300 1.981900
12.794900 1.977300
12.820500 1.945100
12.846100 2.067800
12.871700 2.286200
12.897300 2.466100
12.922900 2.514100
12.948500 2.244200
12.974100 1.653800
12.999700 1.110700
13.025300 0.927600
13.050900 1.014000
13.076500 1.236500
13.102100 1.662800
13.127700 2.171300
13.153300 2.477500
13.178900 2.549800
13.204500 2.461000
13.230100 2.122000
13.255700 1.687400
13.281300 1.682400
13.306900 2.170500
13.332500 2.602100
13.358100 2.635900
13.383700 2.350300
13.409300 2.072300
13.434900 2.174600
13.460500 2.583200
13.486100 2.917300
13.511700 3.003000
13.537300 2.816700
13.562900 2.439200
13.588600 2.173100
13.614200 2.272000
13.639800 2.552400
13.665400 2.712200
13.691000 2.849100
13.716600 3.056500
13.742200 3.070900
13.767800 2.790800
13.793400 2.475800
13.819000 2.339000
13.844600 2.321300
13.870200 2.369900
13.895800 2.643100
13.921400 3.125700
13.947000 3.468300
13.972600 3.368800
13.998200 2.910000
14.023800 2.460900
14.049400 2.316900
14.075000 2.547700
14.100600 2.909200
14.126200 3.019000
14.151800 2.807900
14.177400 2.501200
14.203000 2.236100
14.228600 2.054100
14.254200 2.122000
14.279800 2.536600
14.305400 3.059500
14.331000 3.366200
14.356600 3.380100
14.382200 3.197300
14.407800 2.867100
14.433400 2.417600
14.459000 2.011300
14.484600 1.884600
14.510200 2.144800
14.535800 2.682100
14.561500 3.218300
14.587100 3.460500
14.612700 3.279700
14.638300 2.834800
14.663900 2.496900
14.689500 2.551200
14.715100 2.942300
14.740700 3.363900
14.766300 3.629200
14.791900 3.664000
14.817500 3.380900
14.843100 2.949900
14.868700 2.691800
14.894300 2.624900
14.919900 2.522000
14.945500 2.373300
14.971100 2.471700
14.996700 2.957000
15.022300 3.506900
15.047900 3.651600
15.073500 3.436000
15.099100 3.364300
15.124700 3.416500
15.150300 3.105100
15.175900 2.579000
15.201500 2.397400
15.227100 2.638200
15.252700 3.031900
15.278300 3.333500
15.303900 3.417900
15.329500 3.324300
15.355100 3.082300
15.380700 2.682900
15.406300 2.389700
15.431900 2.647000
15.457500 3.291400
15.483100 3.471700
15.508700 2.895000
15.534400 2.158800
15.560000 1.819300
15.585600 2.146300
15.611200 3.102000
15.636800 4.161600
15.662400 4.826500
15.688000 4.966200
15.713600 4.598200
15.739200 3.910800
15.764800 3.164800
15.790400 2.452400
15.816000 1.878200
15.841600 1.716400
15.867200 2.108100
15.892800 2.680400
15.918400 2.882000
15.944000 2.748700
15.969600 2.686900
15.995200 2.685500
16.020800 2.493300
16.046400 2.295200
16.072000 2.516300
16.097600 3.084900
16.123200 3.515500
16.148800 3.630400
16.174400 3.680000
16.200000 3.770100
16.225600 3.749100
16.251200 3.565800
16.276800 3.370300
16.302400 3.353800
16.328000 3.480000
16.353600 3.588400
16.379200 3.643400
16.404800 3.708600
16.430400 3.807900
16.456000 3.794900
16.481600 3.548400
16.507300 3.207300
16.532900 2.951300
16.558500 2.778700
16.584100 2.643600
16.609700 2.637400
16.635300 2.863600
16.660900 3.133000
16.686500 3.168900
16.712100 3.096000
16.737700 3.149500
16.763300 3.299000
16.788900 3.637000
16.814500 4.358200
16.840100 5.026600
16.865700 4.910700
16.891300 4.014500
16.916900 2.912100
16.942500 2.147100
16.968100 1.988200
16.993700 2.161100
17.019300 2.208800
17.044900 2.276900
17.070500 2.780100
17.096100 3.442700
17.121700 3.482700
17.147300 2.683500
17.172900 1.752100
17.198500 1.454100
17.224100 1.823700
17.249700 2.277100
17.275300 2.221700
17.300900 1.705000
17.326500 1.321400
17.352100 1.538100
17.377700 2.220000
17.403300 2.763700
17.428900 2.872800
17.454500 2.825300
17.480200 2.861000
17.505800 2.965700
17.531400 3.012900
17.557000 2.753900
17.582600 2.177600
17.608200 1.726400
17.633800 1.736300
17.659400 2.047000
17.685000 2.329400
17.710600 2.367000
17.736200 2.149400
17.761800 1.995900
17.787400 2.247100
17.813000 2.702000
17.838600 2.832100
17.864200 2.574900
17.889800 2.371200
17.915400 2.447300
17.941000 2.575500
17.966600 2.528200
17.992200 2.335300
18.017800 2.175200
18.043400 2.173800
18.069000 2.308300
18.094600 2.621900
18.120200 3.130300
18.145800 3.476000
18.171400 3.403500
18.197000 3.154100
18.222600 3.023600
18.248200 3.056400
18.273800 3.007100
18.299400 2.690900
18.325000 2.380200
18.350600 2.386200
18.376200 2.619300
18.401800 2.935800
18.427400 3.358400
18.453000 3.727500
18.478700 3.730800
18.504300 3.533100
18.529900 3.631200
18.555500 3.901500
18.581100 3.802300
18.606700 3.429200
18.632300 3.305300
18.657900 3.443200
18.683500 3.353200
18.709100 2.857000
18.734700 2.489100
18.760300 2.778000
18.785900 3.411300
18.811500 3.650500
18.837100 3.364100
18.862700 3.057500
18.888300 3.081500
18.913900 3.205200
18.939500 2.972100
18.965100 2.479400
18.990700 2.267400
19.016300 2.495100
19.041900 2.843900
19.067500 2.996100
19.093100 2.927700
19.118700 2.885600
19.144300 3.132500
19.169900 3.576600
19.195500 3.820000
19.221100 3.729100
19.246700 3.473500
19.272300 3.118300
19.297900 2.736900
19.323500 2.668200
19.349100 3.220800
19.374700 4.199700
19.400300 4.935000
19.425900 4.888700
19.451600 4.297300
19.477200 3.943800
19.502800 4.244200
19.528400 4.849400
19.554000 5.145200
19.579600 4.916500
19.605200 4.386300
19.630800 3.843000
19.656400 3.484500
19.682000 3.534900
19.707600 4.029800
19.733200 4.545800
19.758800 4.593900
19.784400 4.189200
19.810000 3.751300
19.835600 3.602400
19.861200 3.777900
19.886800 3.982900
19.912400 3.951500
19.938000 3.962800
19.963600 4.217700
19.989200 4.260900
20.014800 4.007400
20.040400 4.125900
20.066000 4.652400
20.091600 4.810300
20.117200 4.395900
20.142800 3.942400
20.168400 3.813900
20.194000 3.887800
20.219600 3.827900
20.245200 3.757000
20.270800 4.201900
20.296400 4.925400
20.322000 4.986300
20.347600 4.289900
20.373200 3.729100
20.398800 3.749500
20.424500 4.045500
20.450100 4.344600
20.475700 4.553800
20.501300 4.545900
20.526900 4.319300
20.552500 4.009800
20.578100 3.775100
20.603700 3.876600
20.629300 4.281700
20.654900 4.519200
20.680500 4.482700
20.706100 4.508400
20.731700 4.597600
20.757300 4.430400
20.782900 3.911200
20.808500 3.371600
20.834100 3.473200
20.859700 4.639600
20.885300 6.301800
20.910900 7.238100
20.936500 6.887800
20.962100 5.821000
20.987700 4.904200
21.013300 4.499000
21.038900 4.497600
21.064500 4.432400
21.090100 3.823000
21.115700 2.969600
21.141300 2.683500
21.166900 3.275400
21.192500 4.305600
21.218100 5.062200
21.243700 5.244500
21.269300 5.073500
21.294900 4.715000
21.320500 4.219300
21.346100 3.760900
21.371700 3.469900
21.397400 3.327900
21.423000 3.267100
21.448600 3.388200
21.474200 3.748200
21.499800 4.042000
21.525400 4.122700
21.551000 4.365100
21.576600 5.195600
21.602200 6.458500
21.627800 7.251400
21.653400 6.816400
21.679000 5.524800
21.704600 4.314600
21.730200 3.575300
21.755800 3.206500
21.781400 3.119100
21.807000 3.294900
21.832600 3.595200
21.858200 3.725100
21.883800 3.613400
21.909400 3.612900
21.935000 3.993600
21.960600 4.642900
21.986200 5.384400
22.011800 6.024500
22.037400 6.199400
22.063000 5.659500
22.088600 4.703400
22.114200 3.841800
22.139800 3.246400
22.165400 3.001200
22.191000 3.243600
22.216600 3.854300
22.242200 4.471700
22.267800 4.808900
22.293400 4.894400
22.319000 4.979400
22.344600 5.246400
22.370300 5.576700
22.395900 5.526300
22.421500 4.903600
22.447100 4.188400
22.472700 3.919600
22.498300 4.005700
22.523900 4.006700
22.549500 3.721900
22.575100 3.251700
22.600700 2.915000
22.626300 3.014000
22.651900 3.476800
22.677500 4.089900
22.703100 4.834300
22.728700 5.669600
22.754300 6.346800
22.779900 6.552300
22.805500 6.215900
22.831100 5.675100
22.856700 5.179100
22.882300 4.635900
22.907900 4.138000
22.933500 3.894400
22.959100 3.833000
22.984700 3.810000
23.010300 3.963100
23.035900 4.452200
23.061500 5.008900
23.087100 5.230300
23.112700 5.091700
23.138300 4.896700
23.163900 4.966000
23.189500 5.268700
23.215100 5.335000
23.240700 4.895800
23.266300 4.219400
23.291900 3.646800
23.317500 3.312600
23.343100 3.314800
23.368800 3.747000
23.394400 4.364900
23.420000 4.680600
23.445600 4.668800
23.471200 4.638100
23.496800 4.553000
23.522400 4.284100
23.548000 3.948900
23.573600 3.870500
23.599200 4.427900
23.624800 5.252600
23.650400 5.365500
23.676000 4.720700
23.701600 4.214600
23.727200 4.295000
23.752800 4.816000
23.778400 5.552500
23.804000 6.094200
23.829600 5.798000
23.855200 4.594300
23.880800 3.382400
23.906400 2.974600
23.932000 3.347300
23.957600 3.988300
23.983200 4.379500
24.008800 4.484000
24.034400 4.696900
24.060000 5.082800
24.085600 5.230600
24.111200 5.112100
24.136800 5.197900
24.162400 5.354500
24.188000 4.943600
24.213600 4.277500
24.239200 4.404400
24.264800 5.228100
24.290400 5.501300
24.316000 4.861600
24.341700 4.008300
24.367300 3.292100
24.392900 2.866500
24.418500 3.274900
24.444100 4.700100
24.469700 6.243100
24.495300 6.817300
24.520900 6.462200
24.546500 5.746000
24.572100 4.708200
24.597700 3.713200
24.623300 3.699000
24.648900 4.685100
24.674500 5.635800
24.700100 6.000100
24.725700 6.056300
24.751300 5.925400
24.776900 5.471400
24.802500 4.826400
24.828100 4.262900
24.853700 3.843000
24.879300 3.726500
24.904900 4.273500
24.930500 5.192200
24.956100 5.611800
24.981700 5.280200
25.007300 4.601300
25.032900 3.947800
25.058500 3.565700
25.084100 3.465100
25.109700 3.469500
25.135300 3.545900
25.160900 3.703300
25.186500 3.880100
25.212100 4.063200
25.237700 4.300200
25.263300 4.670000
25.288900 5.214100
25.314600 5.819300
25.340200 6.228800
25.365800 6.301800
25.391400 6.040900
25.417000 5.508600
25.442600 4.955200
25.468200 4.720700
25.493800 4.913400
25.519400 5.261700
25.545000 5.368500
25.570600 5.187100
25.596200 5.047600
25.621800 5.146200
25.647400 5.357500
25.673000 5.344900
25.698600 4.889600
25.724200 4.285300
25.749800 3.911500
25.775400 3.688300
25.801000 3.593800
25.826600 4.188900
25.852200 5.808400
25.877800 7.633900
25.903400 8.384600
25.929000 7.714800
25.954600 6.318400
25.980200 4.936600
26.005800 3.837600
26.031400 3.158200
26.057000 3.091200
26.082600 3.508000
26.108200 3.856900
26.133800 3.814200
26.159400 3.738800
26.185000 3.950500
26.210600 4.107700
26.236200 3.933400
26.261800 3.656600
26.287500 3.519900
26.313100 3.698400
26.338700 4.228300
26.364300 4.839900
26.389900 5.342900
26.415500 5.570200
26.441100 5.298200
26.466700 4.785600
26.492300 4.595100
26.517900 4.735200
26.543500 4.770300
26.569100 4.711500
26.594700 4.875700
26.620300 5.248200
26.645900 5.558200
26.671500 5.504400
26.697100 5.164100
26.722700 5.186300
26.748300 5.701100
26.773900 5.975500
26.799500 5.841000
26.825100 5.855500
26.850700 6.132200
26.876300 6.271900
26.901900 5.893600
26.927500 5.030100
26.953100 4.208900
26.978700 3.734200
27.004300 3.525200
27.029900 3.667900
27.055500 4.212800
27.081100 4.784800
27.106700 4.993100
27.132300 4.795500
27.157900 4.534900
27.183500 4.667700
27.209100 5.004600
27.234700 5.049400
27.260400 4.942200
27.286000 5.009800
27.311600 5.150900
27.337200 5.107200
27.362800 4.777800
27.388400 4.315300
27.414000 4.006400
27.439600 3.930400
27.465200 3.948100
27.490800 3.976700
27.516400 4.126300
27.542000 4.522800
27.567600 5.053400
27.593200 5.328600
27.618800 5.049900
27.644400 4.428800
27.670000 3.883000
27.695600 3.672200
27.721200 3.849900
27.746800 4.105400
27.772400 4.098500
27.798000 3.973900
27.823600 4.031700
27.849200 4.191700
27.874800 4.295700
27.900400 4.415700
27.926000 4.547200
27.951600 4.671400
27.977200 4.851000
28.002800 4.922800
28.028400 4.700600
28.054000 4.435600
28.079600 4.468900
28.105200 4.593100
28.130800 4.429000
28.156400 4.067300
28.182000 3.834300
28.207600 3.907400
28.233200 4.242600
28.258900 4.601600
28.284500 4.848800
28.310100 5.199300
28.335700 5.735100
28.361300 5.934400
28.386900 5.300700
28.412500 4.145800
28.438100 3.330500
28.463700 3.410900
28.489300 4.150300
28.514900 4.805500
28.540500 4.957800
28.566100 4.789000
28.591700 4.652100
28.617300 4.655800
28.642900 4.596600
28.668500 4.535800
28.694100 4.747100
28.719700 4.931400
28.745300 4.615500
28.770900 3.967100
28.796500 3.502200
28.822100 3.406600
28.847700 3.489100
28.873300 3.595800
28.898900 3.619800
28.924500 3.354700
28.950100 2.934200
28.975700 2.758800
29.001300 2.931000
29.026900 3.333800
29.052500 3.860400
29.078100 4.430900
29.103700 4.792700
29.129300 4.593400
29.154900 4.012800
29.180500 3.610100
29.206100 3.528500
29.231800 3.500600
29.257400 3.331200
29.283000 3.131400
29.308600 3.113700
29.334200 3.299300
29.359800 3.474800
29.385400 3.480600
29.411000 3.538400
29.436600 3.811500
29.462200 4.006700
29.487800 3.914700
29.513400 3.715800
29.539000 3.609700
29.564600 3.623200
29.590200 3.649400
29.615800 3.575400
29.641400 3.497500
29.667000 3.583900
29.692600 3.808100
29.718200 4.086100
29.743800 4.386400
29.769400 4.570600
29.795000 4.583700
29.820600 4.659100
29.846200 4.835100
29.871800 4.928000
29.897400 5.061900
29.923000 5.273700
29.948600 5.159500
29.974200 4.597900
29.999800 4.038800
30.025400 3.876700
30.051000 4.105500
30.076600 4.372600
30.102200 4.291400
30.127800 3.894200
30.153400 3.557900
30.179000 3.446200
30.204700 3.503100
30.230300 3.914000
30.255900 4.672300
30.281500 5.273100
30.307100 5.537200
30.332700 5.732800
30.358300 5.860800
30.383900 5.697800
30.409500 5.134800
30.435100 4.298000
30.460700 3.759600
30.486300 3.919500
30.511900 4.331200
30.537500 4.450700
30.563100 4.304100
30.588700 4.234000
30.614300 4.607900
30.639900 5.329500
30.665500 5.707300
30.691100 5.322300
30.716700 4.578900
30.742300 4.073900
30.767900 3.988700
30.793500 4.084800
30.819100 3.986700
30.844700 3.742100
30.870300 3.703800
30.895900 3.865400
30.921500 3.913100
30.947100 3.812400
30.972700 3.985300
30.998300 4.629200
31.023900 5.291600
31.049500 5.635000
31.075100 5.852700
31.100700 5.973600
31.126300 5.655100
31.151900 4.832200
31.177600 4.045400
31.203200 3.885600
31.228800 4.317400
31.254400 4.767200
31.280000 4.837100
31.305600 4.716800
31.331200 4.746700
31.356800 5.098700
31.382400 5.673700
31.408000 5.971800
31.433600 5.726400
31.459200 5.374300
31.484800 5.332700
31.510400 5.329600
31.536000 5.044800
31.561600 4.925800
31.587200 5.384700
31.612800 5.719200
31.638400 5.117300
31.664000 4.094600
31.689600 3.740800
31.715200 4.196900
31.740800 4.784400
31.766400 5.094300
31.792000 5.157800
31.817600 5.021800
31.843200 4.796000
31.868800 4.700300
31.894400 4.763400
31.920000 4.814400
31.945600 4.806300
31.971200 4.890600
31.996800 5.193200
32.022400 5.536600
32.048000 5.591300
32.073600 5.461500
32.099200 5.601600
32.124800 6.062700
32.150500 6.332800
32.176100 6.109600
32.201700 5.541800
32.227300 4.814400
32.252900 4.264900
32.278500 4.412400
32.304100 5.115700
32.329700 5.550300
32.355300 5.347700
32.380900 4.717400
32.406500 4.066400
32.432100 3.809300
32.457700 3.801000
32.483300 3.658100
32.508900 3.715100
32.534500 4.424500
32.560100 5.239000
32.585700 5.436600
32.611300 5.224400
32.636900 5.095600
32.662500 5.236100
32.688100 5.609200
32.713700 5.622000
32.739300 4.812600
32.764900 3.887500
32.790500 3.871500
32.816100 4.755100
32.841700 5.605500
32.867300 5.916400
32.892900 5.957700
32.918500 5.934400
32.944100 5.967300
32.969700 6.120000
32.995300 5.962400
33.020900 5.174200
33.046500 4.328600
33.072100 4.071400
33.097700 4.271500
33.123300 4.718900
33.149000 5.592400
33.174600 6.699800
33.200200 7.293100
33.225800 7.050400
33.251400 6.497100
33.277000 6.416300
33.302600 6.977800
33.328200 7.407700
33.353800 7.134300
33.379400 6.658500
33.405000 6.473500
33.430600 6.273300
33.456200 5.775400
33.481800 5.171700
33.507400 4.691500
33.533000 4.625100
33.558600 5.260900
33.584200 6.260400
33.609800 6.845100
33.635400 6.633000
33.661000 5.985300
33.686600 5.572400
33.712200 5.581900
33.737800 5.796300
33.763400 6.015600
33.789000 5.947900
33.814600 5.428600
33.840200 4.834700
33.865800 4.603000
33.891400 4.693900
33.917000 5.006400
33.942600 5.374300
33.968200 5.304500
33.993800 4.657700
34.019400 4.047200
34.045000 4.096200
34.070600 4.641800
34.096200 5.079300
34.121900 5.233000
34.147500 5.317200
34.173100 5.337200
34.198700 5.183400
34.224300 4.942300
34.249900 4.740400
34.275500 4.537100
34.301100 4.198500
34.326700 3.737500
34.352300 3.444200
34.377900 3.524700
34.403500 3.782200
34.429100 3.975900
34.454700 4.144900
34.480300 4.456400
34.505900 4.686600
34.531500 4.209900
34.557100 3.132400
34.582700 2.376900
34.608300 2.336300
34.633900 2.594000
34.659500 2.714500
34.685100 2.686600
34.710700 2.760200
34.736300 3.057500
34.761900 3.377100
34.787500 3.348100
34.813100 2.819000
34.838700 2.121100
34.864300 1.631000
34.889900 1.249400
34.915500 0.813000
34.941100 0.455400
34.966700 0.266300
34.992300 0.191100
35.017900 0.195400
35.043500 0.276600
35.069100 0.375500
35.094800 0.387000
35.120400 0.319100
35.146000 0.250800
35.171600 0.196300
35.197200 0.172000
35.222800 0.185800
35.248400 0.173900
35.274000 0.107800
35.299600 0.041200
35.325200 0.009500
35.350800 0.001300
35.376400 0.000100
35.402000 0.000000
35.427600 0.000000
35.453200 0.000000
35.478800 0.000000
35.504400 0.000000
35.530000 0.000000
35.555600 0.000000
35.581200 0.000000
35.606800 0.000000
35.632400 0.000000
35.658000 0.000000
35.683600 0.000000
35.709200 0.000000
35.734800 0.000000
35.760400 0.000000
35.786000 0.000000
35.811600 0.000000
35.837200 0.000000
35.862800 0.000000
35.888400 0.000000
35.914000 0.000000
35.939600 0.000000
35.965200 0.000000
35.990800 0.000000
36.016400 0.000000
36.042000 0.000000
36.067700 0.000000
36.093300 0.000000
36.118900 0.000000
36.144500 0.000000
36.170100 0.000000
36.195700 0.000000
36.221300 0.000000
36.246900 0.000000
36.272500 0.000000
36.298100 0.000000
36.323700 0.000000
36.349300 0.000000
36.374900 0.000000
36.400500 0.000000
36.426100 0.000000
36.451700 0.000000
36.477300 0.000000
36.502900 0.000000
36.528500 0.000000
36.554100 0.000000
36.579700 0.000000
36.605300 0.000000
36.630900 0.000000
36.656500 0.000000
36.682100 0.000000
36.707700 0.000000
36.733300 0.000000
36.758900 0.000000
36.784500 0.000000
36.810100 0.000000
36.835700 0.000000
36.861300 0.000000
36.886900 0.000000
36.912500 0.000000
36.938100 0.000000
36.963700 0.000000
36.989300 0.000000
37.014900 0.000000
37.040600 0.000000
37.066200 0.000000
37.091800 0.000000
37.117400 0.000000
37.143000 0.000000
37.168600 0.000000
37.194200 0.000000
37.219800 0.000000
37.245400 0.000000
37.271000 0.000000
37.296600 0.000000
37.322200 0.000000
37.347800 0.000000
37.373400 0.000000
37.399000 0.000000
37.424600 0.000000
37.450200 0.000000
37.475800 0.000000
37.501400 0.000000
37.527000 0.000000
37.552600 0.000000
e
