set title 'mp-1223902 - Density of States'
set xlabel 'Energy (eV)'
set ylabel 'DOS (states/eV)'
set grid
set xrange [-10:10]
set yrange [0:15.118]
set xzeroaxis lt -1
set terminal png size 800,600
set output 'mp-1223902_dos_gnuplot.png'
plot '-' using 1:2 with lines title 'DOS'
-10.591900 0.000000
-10.564000 0.000000
-10.536000 0.000000
-10.508100 0.000000
-10.480100 0.000000
-10.452200 0.000000
-10.424200 0.000000
-10.396200 0.000000
-10.368300 0.000000
-10.340300 0.000000
-10.312400 0.000000
-10.284400 0.000000
-10.256400 0.000000
-10.228500 0.000000
-10.200500 0.000000
-10.172600 0.000000
-10.144600 0.000000
-10.116600 0.000000
-10.088700 0.000000
-10.060700 0.000000
-10.032800 0.000000
-10.004800 0.000000
-9.976900 0.000000
-9.948900 0.000000
-9.920900 0.000000
-9.893000 0.000000
-9.865000 0.000000
-9.837100 0.000000
-9.809100 0.000000
-9.781100 0.000000
-9.753200 0.000000
-9.725200 0.000000
-9.697300 0.000000
-9.669300 0.000000
-9.641300 0.000000
-9.613400 0.000000
-9.585400 0.000000
-9.557500 0.000000
-9.529500 0.000000
-9.501600 0.000000
-9.473600 0.000000
-9.445600 0.000000
-9.417700 0.000000
-9.389700 0.000000
-9.361800 0.000000
-9.333800 0.000000
-9.305800 0.000000
-9.277900 0.000000
-9.249900 0.000000
-9.222000 0.000000
-9.194000 0.000000
-9.166000 0.000000
-9.138100 0.000000
-9.110100 0.000000
-9.082200 0.000000
-9.054200 0.000000
-9.026300 0.000000
-8.998300 0.000000
-8.970300 0.000000
-8.942400 0.000000
-8.914400 0.000000
-8.886500 0.000000
-8.858500 0.000000
-8.830500 0.000000
-8.802600 0.000000
-8.774600 0.000000
-8.746700 0.000000
-8.718700 0.000000
-8.690700 0.000000
-8.662800 0.000000
-8.634800 0.000000
-8.606900 0.000000
-8.578900 0.000000
-8.551000 0.000000
-8.523000 0.000000
-8.495000 0.000000
-8.467100 0.000000
-8.439100 0.000000
-8.411200 0.000000
-8.383200 0.000000
-8.355200 0.000000
-8.327300 0.000000
-8.299300 0.000000
-8.271400 0.000000
-8.243400 0.000000
-8.215400 0.000000
-8.187500 0.000000
-8.159500 0.000200
-8.131600 0.001600
-8.103600 0.009400
-8.075700 0.031800
-8.047700 0.069000
-8.019700 0.115400
-7.991800 0.173400
-7.963800 0.244100
-7.935900 0.320800
-7.907900 0.384600
-7.879900 0.437000
-7.852000 0.485700
-7.824000 0.478100
-7.796100 0.440500
-7.768100 0.502500
-7.740100 0.623300
-7.712200 0.675600
-7.684200 0.713700
-7.656300 0.840100
-7.628300 1.048800
-7.600400 1.272500
-7.572400 1.412200
-7.544400 1.510100
-7.516500 1.689000
-7.488500 1.839700
-7.460600 1.768100
-7.432600 1.558000
-7.404600 1.376600
-7.376700 1.141100
-7.348700 0.806600
-7.320800 0.602300
-7.292800 0.644500
-7.264800 0.814200
-7.236900 1.041000
-7.208900 1.291800
-7.181000 1.420500
-7.153000 1.345600
-7.125100 1.126900
-7.097100 0.804700
-7.069100 0.502100
-7.041200 0.394500
-7.013200 0.429900
-6.985300 0.443500
-6.957300 0.425800
-6.929300 0.463800
-6.901400 0.574500
-6.873400 0.673000
-6.845500 0.766300
-6.817500 0.967700
-6.789500 1.198800
-6.761600 1.270700
-6.733600 1.127600
-6.705700 0.817700
-6.677700 0.471800
-6.649800 0.269600
-6.621800 0.252800
-6.593800 0.308200
-6.565900 0.339200
-6.537900 0.359900
-6.510000 0.406800
-6.482000 0.433100
-6.454000 0.429000
-6.426100 0.483300
-6.398100 0.577500
-6.370200 0.627500
-6.342200 0.717400
-6.314200 0.932700
-6.286300 1.215800
-6.258300 1.442300
-6.230400 1.420500
-6.202400 1.058400
-6.174500 0.552900
-6.146500 0.189800
-6.118500 0.045700
-6.090600 0.036500
-6.062600 0.108000
-6.034700 0.236000
-6.006700 0.367900
-5.978700 0.461900
-5.950800 0.518800
-5.922800 0.583000
-5.894900 0.675200
-5.866900 0.798400
-5.838900 1.048400
-5.811000 1.496800
-5.783000 1.955500
-5.755100 1.905300
-5.727100 1.217200
-5.699200 0.582700
-5.671200 0.514400
-5.643200 0.858300
-5.615300 1.225100
-5.587300 1.305500
-5.559400 1.037200
-5.531400 0.610100
-5.503400 0.255500
-5.475500 0.071300
-5.447500 0.012400
-5.419600 0.001300
-5.391600 0.000100
-5.363600 0.000000
-5.335700 0.000000
-5.307700 0.000000
-5.279800 0.000000
-5.251800 0.000000
-5.223900 0.000000
-5.195900 0.000000
-5.167900 0.000000
-5.140000 0.000000
-5.112000 0.000000
-5.084100 0.000000
-5.056100 0.000000
-5.028100 0.000000
-5.000200 0.000000
-4.972200 0.000000
-4.944300 0.000000
-4.916300 0.000000
-4.888300 0.000000
-4.860400 0.000000
-4.832400 0.000000
-4.804500 0.000000
-4.776500 0.000000
-4.748600 0.000000
-4.720600 0.000000
-4.692600 0.000000
-4.664700 0.000000
-4.636700 0.000000
-4.608800 0.000000
-4.580800 0.000000
-4.552800 0.000000
-4.524900 0.000000
-4.496900 0.000000
-4.469000 0.000000
-4.441000 0.000000
-4.413000 0.000000
-4.385100 0.000000
-4.357100 0.000000
-4.329200 0.000000
-4.301200 0.000000
-4.273300 0.000000
-4.245300 0.000000
-4.217300 0.000000
-4.189400 0.000000
-4.161400 0.000000
-4.133500 0.000000
-4.105500 0.000000
-4.077500 0.000000
-4.049600 0.000000
-4.021600 0.000000
-3.993700 0.000000
-3.965700 0.000000
-3.937700 0.000000
-3.909800 0.000000
-3.881800 0.000000
-3.853900 0.000000
-3.825900 0.000000
-3.798000 0.000000
-3.770000 0.000000
-3.742000 0.000000
-3.714100 0.000000
-3.686100 0.000000
-3.658200 0.000000
-3.630200 0.000000
-3.602200 0.000000
-3.574300 0.000000
-3.546300 0.000000
-3.518400 0.000000
-3.490400 0.000000
-3.462400 0.000000
-3.434500 0.000000
-3.406500 0.000000
-3.378600 0.000000
-3.350600 0.000000
-3.322700 0.000000
-3.294700 0.000000
-3.266700 0.000000
-3.238800 0.000000
-3.210800 0.000000
-3.182900 0.000000
-3.154900 0.000000
-3.126900 0.000000
-3.099000 0.001100
-3.071000 0.015100
-3.043100 0.113000
-3.015100 0.483100
-2.987100 1.192800
-2.959200 1.745700
-2.931200 1.711800
-2.903300 1.817900
-2.875300 2.790900
-2.847400 3.543600
-2.819400 2.778400
-2.791400 1.283100
-2.763500 0.347000
-2.735500 0.054800
-2.707600 0.007200
-2.679600 0.030000
-2.651600 0.234300
-2.623700 1.087000
-2.595700 3.034700
-2.567800 5.352300
-2.539800 6.616200
-2.511800 6.760100
-2.483900 6.518100
-2.455900 6.356700
-2.428000 7.011500
-2.400000 8.896400
-2.372100 11.117700
-2.344100 12.491600
-2.316100 12.851700
-2.288200 12.388500
-2.260200 11.368500
-2.232300 10.759400
-2.204300 11.455200
-2.176300 12.989600
-2.148400 13.744000
-2.120400 12.580300
-2.092500 10.353400
-2.064500 8.939800
-2.036500 9.288500
-2.008600 11.065200
-1.980600 13.018600
-1.952700 13.706100
-1.924700 12.551200
-1.896800 10.040500
-1.868800 7.495000
-1.840800 6.340800
-1.812900 7.141900
-1.784900 9.219800
-1.757000 10.848300
-1.729000 10.815200
-1.701000 8.868700
-1.673100 5.744900
-1.645100 3.128500
-1.617200 1.802700
-1.589200 1.294100
-1.561200 1.204300
-1.533300 1.276000
-1.505300 1.233800
-1.477400 1.139300
-1.449400 1.078800
-1.421500 0.937700
-1.393500 0.771500
-1.365500 0.689300
-1.337600 0.607500
-1.309600 0.500700
-1.281700 0.450600
-1.253700 0.458100
-1.225700 0.532400
-1.197800 0.673600
-1.169800 0.750100
-1.141900 0.752300
-1.113900 0.776900
-1.085900 0.743100
-1.058000 0.587300
-1.030000 0.407500
-1.002100 0.304900
-0.974100 0.310200
-0.946200 0.414100
-0.918200 0.559100
-0.890200 0.703200
-0.862300 0.875500
-0.834300 1.085600
-0.806400 1.232200
-0.778400 1.174200
-0.750400 0.964100
-0.722500 0.813300
-0.694500 0.795800
-0.666600 0.820100
-0.638600 0.763800
-0.610600 0.651200
-0.582700 0.649600
-0.554700 0.756500
-0.526800 0.805100
-0.498800 0.685500
-0.470900 0.482200
-0.442900 0.457100
-0.414900 0.644400
-0.387000 0.741800
-0.359000 0.600200
-0.331100 0.419100
-0.303100 0.351400
-0.275100 0.404700
-0.247200 0.752700
-0.219200 1.427400
-0.191300 1.950500
-0.163300 1.965600
-0.135300 1.626900
-0.107400 1.340500
-0.079400 1.338500
-0.051500 1.356200
-0.023500 1.127100
0.004400 0.769200
0.032400 0.463000
0.060400 0.332000
0.088300 0.523800
0.116300 1.146500
0.144200 2.133000
0.172200 2.906200
0.200200 2.816000
0.228100 2.109100
0.256100 1.462200
0.284000 1.067500
0.312000 0.841000
0.340000 0.796900
0.367900 0.871500
0.395900 0.944800
0.423800 1.012800
0.451800 1.138100
0.479700 1.183300
0.507700 0.952200
0.535700 0.611900
0.563600 0.409700
0.591600 0.330500
0.619500 0.292900
0.647500 0.319800
0.675500 0.424900
0.703400 0.557000
0.731400 0.682400
0.759300 0.754600
0.787300 0.717200
0.815300 0.580000
0.843200 0.409300
0.871200 0.301700
0.899100 0.329000
0.927100 0.469600
0.955000 0.615300
0.983000 0.672000
1.011000 0.669400
1.038900 0.700600
1.066900 0.733600
1.094800 0.711400
1.122800 0.712600
1.150800 0.813100
1.178700 0.915100
1.206700 0.867000
1.234600 0.807200
1.262600 0.943400
1.290600 1.169100
1.318500 1.304200
1.346500 1.397200
1.374400 1.523400
1.402400 1.539000
1.430300 1.319100
1.458300 0.947500
1.486300 0.674500
1.514200 0.745600
1.542200 1.040800
1.570100 1.282700
1.598100 1.394200
1.626100 1.318400
1.654000 1.064200
1.682000 0.933700
1.709900 1.025100
1.737900 1.030900
1.765900 0.938800
1.793800 0.993300
1.821800 1.179400
1.849700 1.278800
1.877700 1.159000
1.905600 1.050500
1.933600 1.201100
1.961600 1.372500
1.989500 1.278100
2.017500 0.989400
2.045400 0.743900
2.073400 0.753900
2.101400 0.993500
2.129300 1.149400
2.157300 1.083400
2.185200 1.092600
2.213200 1.277400
2.241200 1.267900
2.269100 0.958000
2.297100 0.718800
2.325000 0.835400
2.353000 1.273000
2.380900 1.676400
2.408900 1.734200
2.436900 1.507800
2.464800 1.191900
2.492800 0.909700
2.520700 0.737400
2.548700 0.693700
2.576700 0.719700
2.604600 0.784700
2.632600 0.978500
2.660500 1.342400
2.688500 1.659900
2.716500 1.712400
2.744400 1.590500
2.772400 1.453400
2.800300 1.367200
2.828300 1.434100
2.856200 1.560800
2.884200 1.504400
2.912200 1.361900
2.940100 1.391100
2.968100 1.556900
2.996000 1.590000
3.024000 1.388200
3.052000 1.217600
3.079900 1.378400
3.107900 1.749700
3.135800 1.974000
3.163800 1.888500
3.191800 1.557300
3.219700 1.297200
3.247700 1.434500
3.275600 1.957500
3.303600 2.511100
3.331500 2.700200
3.359500 2.518400
3.387500 2.259200
3.415400 2.121900
3.443400 2.080200
3.471300 1.944400
3.499300 1.612300
3.527300 1.294000
3.555200 1.177600
3.583200 1.149900
3.611100 1.046600
3.639100 0.881300
3.667100 0.723700
3.695000 0.534200
3.723000 0.343700
3.750900 0.313400
3.778900 0.481100
3.806800 0.689800
3.834800 0.772300
3.862800 0.728200
3.890700 0.654200
3.918700 0.542600
3.946600 0.382800
3.974600 0.283500
4.002600 0.295300
4.030500 0.367600
4.058500 0.478300
4.086400 0.580400
4.114400 0.607000
4.142400 0.662300
4.170300 0.783900
4.198300 0.761300
4.226200 0.545800
4.254200 0.365800
4.282100 0.377600
4.310100 0.479000
4.338100 0.500000
4.366000 0.471800
4.394000 0.485700
4.421900 0.457200
4.449900 0.332400
4.477900 0.275000
4.505800 0.460700
4.533800 0.836000
4.561700 1.157800
4.589700 1.211700
4.617700 1.041600
4.645600 0.911200
4.673600 0.961800
4.701500 1.162600
4.729500 1.464300
4.757400 1.713500
4.785400 1.713300
4.813400 1.559600
4.841300 1.475700
4.869300 1.398500
4.897200 1.204200
4.925200 1.057800
4.953200 1.195000
4.981100 1.563000
5.009100 1.831500
5.037000 1.760500
5.065000 1.593700
5.093000 1.625100
5.120900 1.743100
5.148900 1.680500
5.176800 1.439000
5.204800 1.300500
5.232700 1.292300
5.260700 1.250700
5.288700 1.259400
5.316600 1.350200
5.344600 1.330600
5.372500 1.045400
5.400500 0.575000
5.428500 0.214300
5.456400 0.129600
5.484400 0.290900
5.512300 0.565800
5.540300 0.743000
5.568300 0.741100
5.596200 0.645500
5.624200 0.503600
5.652100 0.377100
5.680100 0.380500
5.708000 0.501700
5.736000 0.616000
5.764000 0.634000
5.791900 0.546400
5.819900 0.430800
5.847800 0.366000
5.875800 0.385900
5.903800 0.488900
5.931700 0.559400
5.959700 0.519000
5.987600 0.470100
6.015600 0.439300
6.043600 0.343100
6.071500 0.264800
6.099500 0.299400
6.127400 0.341600
6.155400 0.303100
6.183300 0.279600
6.211300 0.404600
6.239300 0.582200
6.267200 0.542300
6.295200 0.297400
6.323100 0.106300
6.351100 0.078100
6.379100 0.168600
6.407000 0.308400
6.435000 0.477100
6.462900 0.665700
6.490900 0.812600
6.518900 0.985500
6.546800 1.298100
6.574800 1.673600
6.602700 1.889000
6.630700 1.751300
6.658600 1.358100
6.686600 0.984100
6.714600 0.782100
6.742500 0.725400
6.770500 0.754300
6.798400 0.897400
6.826400 1.084300
6.854400 1.146500
6.882300 0.988900
6.910300 0.631000
6.938200 0.290800
6.966200 0.174200
6.994200 0.239700
7.022100 0.353600
7.050100 0.494800
7.078000 0.681800
7.106000 0.860500
7.134000 0.954800
7.161900 1.001000
7.189900 1.034700
7.217800 0.888200
7.245800 0.581300
7.273700 0.428300
7.301700 0.532400
7.329700 0.706400
7.357600 0.754400
7.385600 0.661300
7.413500 0.606700
7.441500 0.789000
7.469500 1.161400
7.497400 1.421700
7.525400 1.368200
7.553300 1.085800
7.581300 0.779400
7.609300 0.636600
7.637200 0.715600
7.665200 0.943100
7.693100 1.155200
7.721100 1.160300
7.749000 1.012300
7.777000 0.899200
7.805000 0.811400
7.832900 0.731000
7.860900 0.700400
7.888800 0.743400
7.916800 0.952200
7.944800 1.294400
7.972700 1.515800
8.000700 1.427900
8.028600 1.093800
8.056600 0.746200
8.084600 0.565700
8.112500 0.577300
8.140500 0.674100
8.168400 0.678100
8.196400 0.552800
8.224300 0.521500
8.252300 0.752500
8.280300 1.084400
8.308200 1.234900
8.336200 1.155300
8.364100 0.961600
8.392100 0.731900
8.420100 0.620700
8.448000 0.755600
8.476000 0.994900
8.503900 1.115900
8.531900 1.040500
8.559900 0.916500
8.587800 0.989600
8.615800 1.246800
8.643700 1.438400
8.671700 1.438500
8.699600 1.309200
8.727600 1.211900
8.755600 1.177000
8.783500 1.022400
8.811500 0.882700
8.839400 1.088900
8.867400 1.460500
8.895400 1.590400
8.923300 1.411700
8.951300 1.089300
8.979200 0.777600
9.007200 0.632600
9.035200 0.775300
9.063100 1.078600
9.091100 1.238300
9.119000 1.215200
9.147000 1.315500
9.174900 1.638700
9.202900 2.038300
9.230900 2.380600
9.258800 2.487100
9.286800 2.289400
9.314700 1.846500
9.342700 1.394700
9.370700 1.233400
9.398600 1.276600
9.426600 1.283200
9.454500 1.220600
9.482500 1.135500
9.510500 1.068200
9.538400 0.984500
9.566400 0.889500
9.594300 0.998000
9.622300 1.425500
9.650200 1.910900
9.678200 2.137400
9.706200 2.155200
9.734100 2.055000
9.762100 1.748800
9.790000 1.344200
9.818000 1.108700
9.846000 1.170500
9.873900 1.420600
9.901900 1.531300
9.929800 1.337100
9.957800 1.160500
9.985800 1.254600
10.013700 1.384800
10.041700 1.316200
10.069600 1.297700
10.097600 1.583200
10.125500 1.981400
10.153500 2.215900
10.181500 2.161800
10.209400 1.991900
10.237400 1.909200
10.265300 1.761600
10.293300 1.476200
10.321300 1.284300
10.349200 1.355500
10.377200 1.610400
10.405100 1.850200
10.433100 2.045800
10.461100 2.172300
10.489000 2.057400
10.517000 1.705100
10.544900 1.334600
10.572900 1.099000
10.600800 0.950600
10.628800 0.873400
10.656800 0.941500
10.684700 1.137400
10.712700 1.290400
10.740600 1.202600
10.768600 0.953300
10.796600 0.766000
10.824500 0.669700
10.852500 0.611900
10.880400 0.642900
10.908400 0.818600
10.936400 1.028700
10.964300 1.015700
10.992300 0.733800
11.020200 0.515800
11.048200 0.545200
11.076100 0.624000
11.104100 0.573700
11.132100 0.494500
11.160000 0.576900
11.188000 0.848100
11.215900 1.093800
11.243900 1.090200
11.271900 0.938500
11.299800 0.795000
11.327800 0.648300
11.355700 0.638500
11.383700 0.946000
11.411700 1.333200
11.439600 1.341000
11.467600 0.961400
11.495500 0.586600
11.523500 0.448700
11.551400 0.484000
11.579400 0.526100
11.607400 0.598000
11.635300 0.799100
11.663300 0.923200
11.691200 0.836300
11.719200 0.821200
11.747200 1.062500
11.775100 1.309500
11.803100 1.240300
11.831000 0.930000
11.859000 0.681000
11.887000 0.603000
11.914900 0.659500
11.942900 0.835800
11.970800 1.047600
11.998800 1.223300
12.026700 1.407700
12.054700 1.632300
12.082700 1.862800
12.110600 1.869100
12.138600 1.457400
12.166500 0.926000
12.194500 0.741900
12.222500 0.884100
12.250400 1.061900
12.278400 1.198900
12.306300 1.271700
12.334300 1.254000
12.362300 1.215000
12.390200 1.143400
12.418200 1.072000
12.446100 1.193900
12.474100 1.569700
12.502000 1.957600
12.530000 2.069500
12.558000 1.835700
12.585900 1.379800
12.613900 0.961700
12.641800 0.753300
12.669800 0.718500
12.697800 0.804600
12.725700 0.995900
12.753700 1.246500
12.781600 1.494200
12.809600 1.635700
12.837600 1.634700
12.865500 1.605400
12.893500 1.646400
12.921400 1.705200
12.949400 1.658000
12.977300 1.532000
13.005300 1.444800
13.033300 1.352800
13.061200 1.246300
13.089200 1.254300
13.117100 1.440500
13.145100 1.711600
13.173100 1.799100
13.201000 1.570400
13.229000 1.277900
13.256900 1.257200
13.284900 1.522400
13.312900 1.749900
13.340800 1.636100
13.368800 1.309400
13.396700 1.131000
13.424700 1.141300
13.452600 1.154600
13.480600 1.241700
13.508600 1.604800
13.536500 1.935500
13.564500 1.898800
13.592400 1.717500
13.620400 1.557600
13.648400 1.438300
13.676300 1.433500
13.704300 1.509100
13.732200 1.630000
13.760200 1.807100
13.788200 1.875100
13.816100 1.669100
13.844100 1.360000
13.872000 1.181800
13.900000 1.137100
13.927900 1.164800
13.955900 1.280600
13.983900 1.402000
14.011800 1.493300
14.039800 1.757700
14.067700 2.106300
14.095700 2.061800
14.123700 1.612700
14.151600 1.220100
14.179600 1.010100
14.207500 0.890400
14.235500 0.888600
14.263500 1.017300
14.291400 1.211000
14.319400 1.324300
14.347300 1.310900
14.375300 1.369100
14.403200 1.672600
14.431200 2.047700
14.459200 2.201500
14.487100 2.128600
14.515100 1.902700
14.543000 1.599800
14.571000 1.552100
14.599000 1.814000
14.626900 1.922800
14.654900 1.761300
14.682800 1.625900
14.710800 1.618600
14.738800 1.675400
14.766700 1.713000
14.794700 1.589100
14.822600 1.325700
14.850600 1.198100
14.878500 1.395200
14.906500 1.711200
14.934500 1.822900
14.962400 1.676400
14.990400 1.404500
15.018300 1.280800
15.046300 1.625300
15.074300 2.327200
15.102200 2.760100
15.130200 2.502200
15.158100 1.917600
15.186100 1.569200
15.214100 1.508200
15.242000 1.610100
15.270000 1.774700
15.297900 1.924000
15.325900 2.118000
15.353800 2.250600
15.381800 2.249200
15.409800 2.368200
15.437700 2.611300
15.465700 2.617300
15.493600 2.373500
15.521600 2.177300
15.549600 2.013700
15.577500 1.622700
15.605500 1.108300
15.633400 0.915000
15.661400 1.158700
15.689400 1.485900
15.717300 1.678600
15.745300 1.858300
15.773200 2.051600
15.801200 2.127200
15.829100 2.064200
15.857100 1.961600
15.885100 1.850800
15.913000 1.804100
15.941000 1.821100
15.968900 1.733200
15.996900 1.591600
16.024900 1.533500
16.052800 1.538400
16.080800 1.645200
16.108700 1.796400
16.136700 1.835900
16.164700 1.824000
16.192600 1.830500
16.220600 1.813700
16.248500 1.802600
16.276500 1.792500
16.304400 1.646000
16.332400 1.471500
16.360400 1.641500
16.388300 2.106600
16.416300 2.334200
16.444200 2.203300
16.472200 2.073300
16.500200 1.972500
16.528100 1.735100
16.556100 1.485400
16.584000 1.416500
16.612000 1.505500
16.640000 1.621100
16.667900 1.662500
16.695900 1.669100
16.723800 1.776800
16.751800 1.979200
16.779700 2.120000
16.807700 2.096800
16.835700 1.964800
16.863600 1.851700
16.891600 1.823900
16.919500 1.821400
16.947500 1.797000
16.975500 1.888700
17.003400 2.243400
17.031400 2.651400
17.059300 2.750800
17.087300 2.507000
17.115300 2.105800
17.143200 1.618800
17.171200 1.166800
17.199100 0.944300
17.227100 0.957500
17.255000 1.083400
17.283000 1.275200
17.311000 1.528000
17.338900 1.690100
17.366900 1.683500
17.394800 1.703100
17.422800 1.810500
17.450800 1.819200
17.478700 1.676400
17.506700 1.550700
17.534600 1.639200
17.562600 2.079700
17.590600 2.631300
17.618500 2.653500
17.646500 2.131500
17.674400 1.662900
17.702400 1.399100
17.730300 1.234700
17.758300 1.304300
17.786300 1.853100
17.814200 2.677800
17.842200 3.098600
17.870100 2.887200
17.898100 2.462900
17.926100 2.184800
17.954000 2.089800
17.982000 2.128600
18.009900 2.106400
18.037900 1.912100
18.065900 1.839400
18.093800 2.063700
18.121800 2.288700
18.149700 2.117400
18.177700 1.591600
18.205600 1.106600
18.233600 0.865800
18.261600 0.885400
18.289500 1.160400
18.317500 1.523700
18.345400 1.675100
18.373400 1.570500
18.401400 1.533500
18.429300 1.776300
18.457300 2.012000
18.485200 1.927800
18.513200 1.740600
18.541200 1.774500
18.569100 1.999400
18.597100 2.215900
18.625000 2.364000
18.653000 2.385000
18.680900 2.168800
18.708900 1.803400
18.736900 1.484300
18.764800 1.411100
18.792800 1.644200
18.820700 1.882900
18.848700 1.759600
18.876700 1.403300
18.904600 1.262200
18.932600 1.337000
18.960500 1.305600
18.988500 1.136900
19.016500 1.010900
19.044400 0.977600
19.072400 1.003900
19.100300 1.169400
19.128300 1.520600
19.156200 1.919800
19.184200 2.151600
19.212200 2.175900
19.240100 2.151400
19.268100 2.170100
19.296000 2.186900
19.324000 2.161700
19.352000 2.065200
19.379900 1.945500
19.407900 1.881600
19.435800 1.860600
19.463800 1.811300
19.491800 1.660500
19.519700 1.442300
19.547700 1.253000
19.575600 1.134100
19.603600 1.117500
19.631500 1.243200
19.659500 1.558400
19.687500 2.042400
19.715400 2.495200
19.743400 2.675400
19.771300 2.469700
19.799300 2.077500
19.827300 1.909700
19.855200 2.117900
19.883200 2.460100
19.911100 2.582000
19.939100 2.436600
19.967100 2.365300
19.995000 2.438600
20.023000 2.253200
20.050900 1.807200
20.078900 1.499200
20.106800 1.479700
20.134800 1.628200
20.162800 1.699500
20.190700 1.693900
20.218700 1.868300
20.246600 2.042100
20.274600 1.870300
20.302600 1.625400
20.330500 1.586900
20.358500 1.562000
20.386400 1.481100
20.414400 1.470900
20.442400 1.485100
20.470300 1.548800
20.498300 1.810400
20.526200 2.050000
20.554200 2.056700
20.582100 2.118300
20.610100 2.261500
20.638100 2.107200
20.666000 1.756800
20.694000 1.713300
20.721900 2.091300
20.749900 2.505600
20.777900 2.640600
20.805800 2.443800
20.833800 1.995000
20.861700 1.632100
20.889700 1.626400
20.917700 1.678400
20.945600 1.558900
20.973600 1.579600
21.001500 1.825400
21.029500 1.995400
21.057400 2.012400
21.085400 2.031100
21.113400 2.078500
21.141300 2.031300
21.169300 1.951800
21.197200 2.068500
21.225200 2.422400
21.253200 2.807700
21.281100 2.833600
21.309100 2.511500
21.337000 2.263000
21.365000 2.175900
21.393000 2.168700
21.420900 2.258700
21.448900 2.391200
21.476800 2.429100
21.504800 2.307400
21.532700 2.151200
21.560700 2.321000
21.588700 2.767600
21.616600 2.943300
21.644600 2.894400
21.672500 2.970100
21.700500 3.015400
21.728500 2.880200
21.756400 2.759500
21.784400 2.810600
21.812300 2.829000
21.840300 2.653300
21.868300 2.567500
21.896200 2.767100
21.924200 2.949700
21.952100 2.856000
21.980100 2.695500
22.008000 2.642400
22.036000 2.643400
22.064000 2.697800
22.091900 2.742200
22.119900 2.693300
22.147800 2.487600
22.175800 2.169700
22.203800 2.143800
22.231700 2.588100
22.259700 2.867000
22.287600 2.517700
22.315600 1.993600
22.343600 1.789900
22.371500 1.938900
22.399500 2.262100
22.427400 2.535500
22.455400 2.596500
22.483300 2.492700
22.511300 2.352400
22.539300 2.169000
22.567200 1.892800
22.595200 1.538800
22.623100 1.228900
22.651100 1.156000
22.679100 1.326600
22.707000 1.643800
22.735000 2.057700
22.762900 2.306900
22.790900 2.269500
22.818900 2.308800
22.846800 2.516600
22.874800 2.632900
22.902700 2.769000
22.930700 3.149500
22.958600 3.440000
22.986600 3.086200
23.014600 2.225200
23.042500 1.744500
23.070500 2.025600
23.098400 2.388300
23.126400 2.288200
23.154400 1.958000
23.182300 1.683000
23.210300 1.523700
23.238200 1.519300
23.266200 1.796600
23.294200 2.301800
23.322100 2.559200
23.350100 2.359600
23.378000 2.162300
23.406000 2.198400
23.433900 2.218800
23.461900 2.111700
23.489900 1.865000
23.517800 1.607000
23.545800 1.640700
23.573700 1.793100
23.601700 1.778600
23.629700 1.844400
23.657600 2.055500
23.685600 2.054100
23.713500 1.735800
23.741500 1.493000
23.769500 1.654500
23.797400 2.005300
23.825400 2.237000
23.853300 2.321400
23.881300 2.237400
23.909200 2.115500
23.937200 2.110700
23.965200 2.086000
23.993100 2.081600
24.021100 2.337300
24.049000 2.745800
24.077000 2.969800
24.105000 2.949000
24.132900 2.823500
24.160900 2.564400
24.188800 2.298500
24.216800 2.333400
24.244800 2.530000
24.272700 2.549200
24.300700 2.459900
24.328600 2.525900
24.356600 2.664800
24.384500 2.594900
24.412500 2.379800
24.440500 2.271600
24.468400 2.300700
24.496400 2.357300
24.524300 2.311700
24.552300 2.106100
24.580300 1.841100
24.608200 1.704400
24.636200 1.850100
24.664100 2.302700
24.692100 2.899200
24.720100 3.244400
24.748000 3.144900
24.776000 2.815800
24.803900 2.353900
24.831900 1.768400
24.859800 1.290900
24.887800 1.150700
24.915800 1.209800
24.943700 1.257500
24.971700 1.538700
24.999600 2.308300
25.027600 3.208100
25.055600 3.573100
25.083500 3.176400
25.111500 2.524500
25.139400 2.144000
25.167400 2.015000
25.195400 2.102500
25.223300 2.502300
25.251300 3.005200
25.279200 3.294200
25.307200 3.316600
25.335100 3.154200
25.363100 2.840100
25.391100 2.487200
25.419000 2.263300
25.447000 2.078100
25.474900 1.838600
25.502900 1.739200
25.530900 1.899800
25.558800 2.075300
25.586800 1.983300
25.614700 1.705400
25.642700 1.581300
25.670700 1.781400
25.698600 2.051300
25.726600 2.096300
25.754500 2.005800
25.782500 1.935300
25.810400 1.923500
25.838400 2.158100
25.866400 2.640300
25.894300 2.857400
25.922300 2.745200
25.950200 2.971400
25.978200 3.509800
26.006200 3.610100
26.034100 3.199600
26.062100 2.772900
26.090000 2.454700
26.118000 2.295400
26.146000 2.452800
26.173900 2.707700
26.201900 2.800300
26.229800 2.809500
26.257800 2.777600
26.285700 2.557700
26.313700 2.143000
26.341700 1.792500
26.369600 1.720600
26.397600 1.929000
26.425500 2.280000
26.453500 2.434800
26.481500 2.296200
26.509400 2.224600
26.537400 2.337000
26.565300 2.308400
26.593300 1.987400
26.621300 1.708200
26.649200 1.840700
26.677200 2.351000
26.705100 2.869500
26.733100 3.077800
26.761000 2.955500
26.789000 2.608100
26.817000 2.289000
26.844900 2.550700
26.872900 3.311400
26.900800 3.605700
26.928800 3.242600
26.956800 2.799300
26.984700 2.356400
27.012700 1.942800
27.040600 1.805400
27.068600 1.866000
27.096600 1.977000
27.124500 2.196700
27.152500 2.386300
27.180400 2.260100
27.208400 1.991500
27.236300 2.031300
27.264300 2.399000
27.292300 2.576400
27.320200 2.275200
27.348200 1.906500
27.376100 1.842600
27.404100 1.905900
27.432100 1.846700
27.460000 1.806400
27.488000 2.015100
27.515900 2.251800
27.543900 2.217000
27.571900 2.064300
27.599800 2.013600
27.627800 1.955000
27.655700 1.799000
27.683700 1.677800
27.711600 1.717900
27.739600 1.953400
27.767600 2.552600
27.795500 3.425300
27.823500 3.776500
27.851400 3.265200
27.879400 2.622600
27.907400 2.437300
27.935300 2.556700
27.963300 2.742400
27.991200 2.905800
28.019200 2.873100
28.047200 2.589300
28.075100 2.240500
28.103100 2.021000
28.131000 1.842800
28.159000 1.612400
28.186900 1.585200
28.214900 2.010600
28.242900 2.626400
28.270800 3.048600
28.298800 3.223000
28.326700 3.201600
28.354700 3.189700
28.382700 3.294600
28.410600 3.201800
28.438600 2.754300
28.466500 2.357200
28.494500 2.325900
28.522500 2.638600
28.550400 3.326700
28.578400 4.018700
28.606300 4.107200
28.634300 3.739800
28.662200 3.325300
28.690200 2.860700
28.718200 2.430100
28.746100 2.369000
28.774100 2.765700
28.802000 3.193900
28.830000 3.169500
28.858000 2.833100
28.885900 2.635300
28.913900 2.634400
28.941800 2.563200
28.969800 2.269100
28.997800 1.977300
29.025700 1.903400
29.053700 1.941300
29.081600 2.025000
29.109600 2.187300
29.137500 2.470600
29.165500 2.876000
29.193500 3.095600
29.221400 2.900300
29.249400 2.769600
29.277300 3.110500
29.305300 3.300700
29.333300 2.860700
29.361200 2.349000
29.389200 2.213100
29.417100 2.277100
29.445100 2.404500
29.473100 2.738200
29.501000 3.141900
29.529000 3.081200
29.556900 2.540300
29.584900 2.220100
29.612800 2.309400
29.640800 2.293400
29.668800 1.973600
29.696700 1.653700
29.724700 1.728000
29.752600 2.288900
29.780600 2.979300
29.808600 3.304600
29.836500 3.120500
29.864500 2.830800
29.892400 2.834600
29.920400 2.829100
29.948400 2.322000
29.976300 1.732900
30.004300 1.802600
30.032200 2.378700
30.060200 2.849800
30.088100 3.049000
30.116100 3.062500
30.144100 2.825000
30.172000 2.511000
30.200000 2.560800
30.227900 2.910700
30.255900 3.109200
30.283900 3.087900
30.311800 2.980900
30.339800 2.801700
30.367700 2.713400
30.395700 2.854800
30.423700 3.075400
30.451600 3.213200
30.479600 3.231300
30.507500 3.181000
30.535500 3.131400
30.563400 3.029300
30.591400 2.902600
30.619400 2.895000
30.647300 2.972600
30.675300 2.971100
30.703200 2.785000
30.731200 2.519700
30.759200 2.398100
30.787100 2.401200
30.815100 2.346800
30.843000 2.116700
30.871000 1.821400
30.899000 1.755700
30.926900 1.964600
30.954900 2.214600
30.982800 2.349100
31.010800 2.412600
31.038700 2.612700
31.066700 2.867500
31.094700 2.867300
31.122600 2.755900
31.150600 2.754500
31.178500 2.734700
31.206500 2.593100
31.234500 2.348300
31.262400 2.173800
31.290400 2.124500
31.318300 1.968100
31.346300 1.874200
31.374300 2.178300
31.402200 2.507900
31.430200 2.509500
31.458100 2.528500
31.486100 2.789900
31.514000 3.163900
31.542000 3.668900
31.570000 3.956600
31.597900 3.379100
31.625900 2.316100
31.653800 1.644000
31.681800 1.426600
31.709800 1.329100
31.737700 1.407700
31.765700 1.990900
31.793600 3.074900
31.821600 4.033900
31.849600 4.140400
31.877500 3.470100
31.905500 2.824800
31.933400 2.746400
31.961400 2.954200
31.989300 2.774200
32.017300 2.013300
32.045300 1.247900
32.073200 1.075300
32.101200 1.464000
32.129100 1.945200
32.157100 2.226700
32.185100 2.391000
32.213000 2.571500
32.241000 2.731000
32.268900 2.652100
32.296900 2.274700
32.324900 1.927100
32.352800 1.979600
32.380800 2.273100
32.408700 2.408600
32.436700 2.413200
32.464600 2.492900
32.492600 2.619800
32.520600 2.801000
32.548500 3.159200
32.576500 3.580700
32.604400 3.631700
32.632400 3.226800
32.660400 2.998100
32.688300 3.250600
32.716300 3.485700
32.744200 3.437100
32.772200 3.396400
32.800200 3.494500
32.828100 3.507400
32.856100 3.289900
32.884000 2.962200
32.912000 2.681400
32.940000 2.549300
32.967900 2.668300
32.995900 2.903600
33.023800 2.966400
33.051800 2.905000
33.079700 2.923200
33.107700 2.975900
33.135700 2.991000
33.163600 2.979500
33.191600 3.018200
33.219500 3.147500
33.247500 3.079700
33.275500 2.586300
33.303400 2.015900
33.331400 1.748300
33.359300 1.744400
33.387300 1.860600
33.415300 2.073100
33.443200 2.457600
33.471200 2.978800
33.499100 3.306400
33.527100 3.083700
33.555000 2.513200
33.583000 2.187300
33.611000 2.258600
33.638900 2.382700
33.666900 2.386600
33.694800 2.412800
33.722800 2.483700
33.750800 2.551000
33.778700 2.552300
33.806700 2.412600
33.834600 2.267500
33.862600 2.328000
33.890600 2.527900
33.918500 2.748000
33.946500 3.128600
33.974400 3.573900
34.002400 3.600300
34.030300 3.133100
34.058300 2.659700
34.086300 2.473000
34.114200 2.490300
34.142200 2.526200
34.170100 2.620400
34.198100 2.945100
34.226100 3.196500
34.254000 3.136500
34.282000 3.291700
34.309900 3.862900
34.337900 4.087800
34.365900 3.588300
34.393800 2.965900
34.421800 2.852200
34.449700 3.197200
34.477700 3.450500
34.505600 3.263000
34.533600 2.851700
34.561600 2.673500
34.589500 2.672300
34.617500 2.376600
34.645400 1.868700
34.673400 1.632300
34.701400 1.709800
34.729300 1.896200
34.757300 2.263300
34.785200 2.913700
34.813200 3.505900
34.841200 3.516700
34.869100 3.093600
34.897100 2.944500
34.925000 3.149500
34.953000 3.232400
34.980900 3.182000
35.008900 3.212100
35.036900 3.290600
35.064800 3.234300
35.092800 2.912300
35.120700 2.601700
35.148700 2.646000
35.176700 2.941100
35.204600 3.253000
35.232600 3.433300
35.260500 3.294400
35.288500 3.012300
35.316500 3.006100
35.344400 3.112300
35.372400 2.872300
35.400300 2.337800
35.428300 1.984600
35.456200 2.020000
35.484200 2.312300
35.512200 2.797100
35.540100 3.362200
35.568100 3.661600
35.596000 3.592500
35.624000 3.435600
35.652000 3.248400
35.679900 3.064500
35.707900 3.028800
35.735800 3.078300
35.763800 3.108400
35.791800 3.011100
35.819700 2.743000
35.847700 2.480500
35.875600 2.303800
35.903600 2.136900
35.931500 1.961200
35.959500 1.837700
35.987500 1.832200
36.015400 1.854500
36.043400 1.976200
36.071300 2.487300
36.099300 3.251500
36.127300 3.658600
36.155200 3.387500
36.183200 2.911700
36.211100 2.710200
36.239100 2.660800
36.267100 2.721200
36.295000 2.863600
36.323000 2.861900
36.350900 2.741700
36.378900 2.768300
36.406800 3.080300
36.434800 3.376800
36.462800 3.250400
36.490700 2.904000
36.518700 2.818700
36.546600 3.000400
36.574600 3.142800
36.602600 3.125000
36.630500 3.055100
36.658500 2.990800
36.686400 2.849400
36.714400 2.674000
36.742400 2.690100
36.770300 2.918800
36.798300 2.863400
36.826200 2.283400
36.854200 1.812100
36.882100 2.004800
36.910100 2.593600
36.938100 2.905300
36.966000 2.748500
36.994000 2.540100
37.021900 2.439300
37.049900 2.342700
37.077900 2.397800
37.105800 2.743500
37.133800 3.339400
37.161700 3.927700
37.189700 4.080500
37.217700 3.687800
37.245600 3.069000
37.273600 2.564400
37.301500 2.299000
37.329500 2.241300
37.357400 2.354600
37.385400 2.569600
37.413400 2.705900
37.441300 2.554400
37.469300 2.107300
37.497200 1.630400
37.525200 1.335400
37.553200 1.297200
37.581100 1.545500
37.609100 1.932700
37.637000 2.290400
37.665000 2.610200
37.693000 2.933100
37.720900 3.349700
37.748900 3.692500
37.776800 3.651200
37.804800 3.310800
37.832700 3.057900
37.860700 3.117800
37.888700 3.223700
37.916600 3.164800
37.944600 3.125200
37.972500 3.121300
38.000500 2.993100
38.028500 2.903600
38.056400 3.160700
38.084400 3.670600
38.112300 3.936400
38.140300 3.640700
38.168300 3.084900
38.196200 2.688000
38.224200 2.459500
38.252100 2.320900
38.280100 2.356400
38.308000 2.484700
38.336000 2.404400
38.364000 2.084800
38.391900 1.808500
38.419900 1.793400
38.447800 2.117100
38.475800 2.577800
38.503800 2.767500
38.531700 2.702700
38.559700 2.832100
38.587600 3.130400
38.615600 3.116600
38.643600 2.780800
38.671500 2.523900
38.699500 2.522800
38.727400 2.602800
38.755400 2.580800
38.783300 2.372000
38.811300 2.029900
38.839300 1.932800
38.867200 2.181500
38.895200 2.355500
38.923100 2.333000
38.951100 2.287200
38.979100 2.298800
39.007000 2.302600
39.035000 2.138400
39.062900 1.890200
39.090900 1.857100
39.118900 2.187200
39.146800 2.595600
39.174800 2.671900
39.202700 2.592200
39.230700 2.879900
39.258600 3.683700
39.286600 4.487300
39.314600 4.484900
39.342500 3.785400
39.370500 3.205900
39.398400 2.989200
39.426400 2.941100
39.454400 3.005600
39.482300 3.125600
39.510300 3.105800
39.538200 2.803100
39.566200 2.330200
39.594200 2.042500
39.622100 2.199300
39.650100 2.784200
39.678000 3.633800
39.706000 4.295600
39.733900 4.274800
39.761900 3.772800
39.789900 3.307400
39.817800 3.059700
39.845800 3.069100
39.873700 3.345200
39.901700 3.594700
39.929700 3.459700
39.957600 3.018000
39.985600 2.594200
40.013500 2.463200
40.041500 2.622700
40.069500 2.813700
40.097400 2.869400
40.125400 2.950100
40.153300 3.244600
40.181300 3.468100
40.209200 3.387700
40.237200 3.265700
40.265200 3.308200
40.293100 3.299500
40.321100 3.076600
40.349000 2.909200
40.377000 2.885200
40.405000 2.797900
40.432900 2.832700
40.460900 3.186000
40.488800 3.524700
40.516800 3.495000
40.544800 3.223600
40.572700 3.064800
40.600700 3.117700
40.628600 3.167700
40.656600 2.958400
40.684500 2.586300
40.712500 2.382600
40.740500 2.397700
40.768400 2.545200
40.796400 2.668300
40.824300 2.585700
40.852300 2.495600
40.880300 2.539100
40.908200 2.445000
40.936200 2.192400
40.964100 2.141700
40.992100 2.415100
41.020100 2.760800
41.048000 2.913100
41.076000 2.869300
41.103900 2.685300
41.131900 2.444500
41.159800 2.411100
41.187800 2.650700
41.215800 2.883500
41.243700 2.938300
41.271700 2.960600
41.299600 3.110200
41.327600 3.247300
41.355600 3.120400
41.383500 2.783600
41.411500 2.479700
41.439400 2.472700
41.467400 2.822500
41.495400 3.018000
41.523300 2.873400
41.551300 3.060300
41.579200 3.657500
41.607200 3.789700
41.635100 3.099000
41.663100 2.166000
41.691100 1.625800
41.719000 1.610500
41.747000 1.842100
41.774900 2.064700
41.802900 2.213600
41.830900 2.231100
41.858800 2.061300
41.886800 1.832400
41.914700 1.693400
41.942700 1.625000
41.970700 1.593500
41.998600 1.619900
42.026600 1.673100
42.054500 1.597900
42.082500 1.315400
42.110400 1.048700
42.138400 0.987800
42.166400 1.032200
42.194300 1.050600
42.222300 1.015100
42.250200 0.878600
42.278200 0.679800
42.306200 0.515100
42.334100 0.365900
42.362100 0.243800
42.390000 0.239000
42.418000 0.334900
42.446000 0.389700
42.473900 0.327100
42.501900 0.225000
42.529800 0.184800
42.557800 0.195300
42.585700 0.180600
42.613700 0.135400
42.641700 0.105300
42.669600 0.105800
42.697600 0.133200
42.725500 0.169700
42.753500 0.185100
42.781500 0.162300
42.809400 0.104000
42.837400 0.043500
42.865300 0.010900
42.893300 0.001600
42.921300 0.000100
42.949200 0.000000
42.977200 0.000000
43.005100 0.000000
43.033100 0.000000
43.061000 0.000000
43.089000 0.000000
43.117000 0.000000
43.144900 0.000000
43.172900 0.000000
43.200800 0.000000
43.228800 0.000000
43.256800 0.000000
43.284700 0.000000
43.312700 0.000000
43.340600 0.000000
43.368600 0.000000
43.396600 0.000000
43.424500 0.000000
43.452500 0.000000
43.480400 0.000000
43.508400 0.000000
43.536300 0.000000
43.564300 0.000000
43.592300 0.000000
43.620200 0.000000
43.648200 0.000000
43.676100 0.000000
43.704100 0.000000
43.732100 0.000000
43.760000 0.000000
43.788000 0.000000
43.815900 0.000000
43.843900 0.000000
43.871900 0.000000
43.899800 0.000000
43.927800 0.000000
43.955700 0.000000
43.983700 0.000000
44.011600 0.000000
44.039600 0.000000
44.067600 0.000000
44.095500 0.000000
44.123500 0.000000
44.151400 0.000000
44.179400 0.000000
44.207400 0.000000
44.235300 0.000000
44.263300 0.000000
44.291200 0.000000
44.319200 0.000000
44.347200 0.000000
44.375100 0.000000
44.403100 0.000000
44.431000 0.000000
44.459000 0.000000
44.486900 0.000000
44.514900 0.000000
44.542900 0.000000
44.570800 0.000000
44.598800 0.000000
44.626700 0.000000
44.654700 0.000000
44.682700 0.000000
44.710600 0.000000
44.738600 0.000000
44.766500 0.000000
44.794500 0.000000
44.822500 0.000000
44.850400 0.000000
44.878400 0.000000
44.906300 0.000000
44.934300 0.000000
44.962200 0.000000
44.990200 0.000000
45.018200 0.000000
45.046100 0.000000
45.074100 0.000000
45.102000 0.000000
45.130000 0.000000
45.158000 0.000000
45.185900 0.000000
45.213900 0.000000
45.241800 0.000000
45.269800 0.000000
45.297800 0.000000
45.325700 0.000000
e
