set title 'mp-1218920 - Density of States'
set xlabel 'Energy (eV)'
set ylabel 'DOS (states/eV)'
set grid
set xrange [-10:10]
set yrange [0:1.615]
set xzeroaxis lt -1
set terminal png size 800,600
set output 'mp-1218920_dos_gnuplot.png'
plot '-' using 1:2 with lines title 'DOS'
-17.458200 0.000000
-17.426900 0.000000
-17.395500 0.000000
-17.364200 0.000000
-17.332900 0.000000
-17.301600 0.000000
-17.270200 0.000000
-17.238900 0.000000
-17.207600 0.000000
-17.176300 0.000000
-17.145000 0.000000
-17.113600 0.000000
-17.082300 0.000000
-17.051000 0.000000
-17.019700 0.000000
-16.988300 0.000000
-16.957000 0.000000
-16.925700 0.000000
-16.894400 0.000000
-16.863000 0.000000
-16.831700 0.000000
-16.800400 0.000000
-16.769100 0.000000
-16.737700 0.000000
-16.706400 0.000000
-16.675100 0.000000
-16.643800 0.000000
-16.612400 0.000000
-16.581100 0.000000
-16.549800 0.000000
-16.518500 0.000000
-16.487100 0.000000
-16.455800 0.000000
-16.424500 0.000000
-16.393200 0.000000
-16.361900 0.000000
-16.330500 0.000000
-16.299200 0.000000
-16.267900 0.000000
-16.236600 0.000000
-16.205200 0.000000
-16.173900 0.000000
-16.142600 0.000000
-16.111300 0.000000
-16.079900 0.000000
-16.048600 0.000000
-16.017300 0.000000
-15.986000 0.000000
-15.954600 0.000000
-15.923300 0.000000
-15.892000 0.000000
-15.860700 0.000000
-15.829300 0.000000
-15.798000 0.000000
-15.766700 0.000000
-15.735400 0.000000
-15.704000 0.000000
-15.672700 0.000000
-15.641400 0.000000
-15.610100 0.000000
-15.578700 0.000000
-15.547400 0.000000
-15.516100 0.000000
-15.484800 0.000000
-15.453500 0.000000
-15.422100 0.000000
-15.390800 0.000000
-15.359500 0.000000
-15.328200 0.000000
-15.296800 0.000000
-15.265500 0.000000
-15.234200 0.000000
-15.202900 0.000000
-15.171500 0.000000
-15.140200 0.000000
-15.108900 0.000000
-15.077600 0.000000
-15.046200 0.000000
-15.014900 0.000000
-14.983600 0.000000
-14.952300 0.000000
-14.920900 0.000000
-14.889600 0.000000
-14.858300 0.000000
-14.827000 0.000000
-14.795600 0.000000
-14.764300 0.000000
-14.733000 0.000000
-14.701700 0.000000
-14.670300 0.000000
-14.639000 0.000000
-14.607700 1.250200
-14.576400 3.814800
-14.545100 6.428900
-14.513700 12.042400
-14.482400 13.776100
-14.451100 18.223300
-14.419800 73.957400
-14.388400 52.494600
-14.357100 50.723900
-14.325800 103.808600
-14.294500 16.894900
-14.263100 22.955500
-14.231800 5.883400
-14.200500 3.830200
-14.169200 2.927800
-14.137800 2.584400
-14.106500 0.000000
-14.075200 0.000000
-14.043900 0.000000
-14.012500 0.000000
-13.981200 0.000000
-13.949900 0.000000
-13.918600 0.000000
-13.887200 0.000000
-13.855900 0.000000
-13.824600 0.000000
-13.793300 0.000000
-13.762000 0.000000
-13.730600 0.000000
-13.699300 0.000000
-13.668000 0.000000
-13.636700 0.000000
-13.605300 0.000000
-13.574000 0.000000
-13.542700 0.000000
-13.511400 0.000000
-13.480000 0.000000
-13.448700 0.000000
-13.417400 0.000000
-13.386100 0.000000
-13.354700 0.000000
-13.323400 0.000000
-13.292100 0.000000
-13.260800 0.000000
-13.229400 0.000000
-13.198100 0.000000
-13.166800 0.000000
-13.135500 0.000000
-13.104100 0.000000
-13.072800 0.000000
-13.041500 0.000000
-13.010200 0.000000
-12.978800 0.000000
-12.947500 0.000000
-12.916200 0.000000
-12.884900 0.000000
-12.853600 0.000000
-12.822200 0.000000
-12.790900 0.000000
-12.759600 0.000000
-12.728300 0.000000
-12.696900 0.000000
-12.665600 0.000000
-12.634300 0.000000
-12.603000 0.000000
-12.571600 0.000000
-12.540300 0.000000
-12.509000 0.000000
-12.477700 0.000000
-12.446300 0.000000
-12.415000 0.000000
-12.383700 0.000000
-12.352400 0.000000
-12.321000 0.000000
-12.289700 0.000000
-12.258400 0.000000
-12.227100 0.000000
-12.195700 0.000000
-12.164400 0.000000
-12.133100 0.000000
-12.101800 0.000000
-12.070500 0.000000
-12.039100 0.000000
-12.007800 0.000000
-11.976500 0.000000
-11.945200 0.000000
-11.913800 0.000000
-11.882500 0.000000
-11.851200 0.000000
-11.819900 0.000000
-11.788500 0.000000
-11.757200 0.000000
-11.725900 0.000000
-11.694600 0.000000
-11.663200 0.000000
-11.631900 0.000000
-11.600600 0.000000
-11.569300 0.000000
-11.537900 0.000000
-11.506600 0.000000
-11.475300 0.000000
-11.444000 0.000000
-11.412600 0.000000
-11.381300 0.000000
-11.350000 0.000000
-11.318700 0.000000
-11.287300 0.000000
-11.256000 0.000000
-11.224700 0.000000
-11.193400 0.000000
-11.162100 0.000000
-11.130700 0.000000
-11.099400 0.000000
-11.068100 0.000000
-11.036800 0.000000
-11.005400 0.000000
-10.974100 0.000000
-10.942800 0.000000
-10.911500 0.000000
-10.880100 0.000000
-10.848800 0.000000
-10.817500 0.000000
-10.786200 0.000000
-10.754800 0.000000
-10.723500 0.000000
-10.692200 0.000000
-10.660900 0.000000
-10.629500 0.000000
-10.598200 0.000000
-10.566900 0.000000
-10.535600 0.000000
-10.504200 0.000000
-10.472900 0.000000
-10.441600 0.000000
-10.410300 0.000000
-10.379000 0.000000
-10.347600 0.000000
-10.316300 0.000000
-10.285000 0.000000
-10.253700 0.000000
-10.222300 0.000000
-10.191000 0.000000
-10.159700 0.000000
-10.128400 0.000000
-10.097000 0.000000
-10.065700 0.000000
-10.034400 0.000000
-10.003100 0.000000
-9.971700 0.000000
-9.940400 0.000000
-9.909100 0.000000
-9.877800 0.000000
-9.846400 0.000000
-9.815100 0.000000
-9.783800 0.000000
-9.752500 0.000000
-9.721100 0.000000
-9.689800 0.000000
-9.658500 0.000000
-9.627200 0.000000
-9.595800 0.000000
-9.564500 0.000000
-9.533200 0.000000
-9.501900 0.000000
-9.470600 0.000000
-9.439200 0.000000
-9.407900 0.000000
-9.376600 0.000000
-9.345300 0.000000
-9.313900 0.000000
-9.282600 0.000000
-9.251300 0.000000
-9.220000 0.000000
-9.188600 0.000000
-9.157300 0.000000
-9.126000 0.000000
-9.094700 0.000000
-9.063300 0.000000
-9.032000 0.000000
-9.000700 0.000000
-8.969400 0.000000
-8.938000 0.000000
-8.906700 0.000000
-8.875400 0.000000
-8.844100 0.000000
-8.812700 0.000000
-8.781400 0.000000
-8.750100 0.000000
-8.718800 0.000000
-8.687400 0.000000
-8.656100 0.000000
-8.624800 0.000000
-8.593500 0.000000
-8.562200 0.000000
-8.530800 0.000000
-8.499500 0.000000
-8.468200 0.000000
-8.436900 0.000000
-8.405500 0.000000
-8.374200 0.000000
-8.342900 0.000000
-8.311600 0.000000
-8.280200 0.000000
-8.248900 0.000000
-8.217600 0.000000
-8.186300 0.000000
-8.154900 0.000000
-8.123600 0.000000
-8.092300 0.000000
-8.061000 0.000000
-8.029600 0.000000
-7.998300 0.000000
-7.967000 0.000000
-7.935700 0.000000
-7.904300 0.000000
-7.873000 0.000000
-7.841700 0.000000
-7.810400 0.000000
-7.779100 0.000000
-7.747700 0.000000
-7.716400 0.000000
-7.685100 0.000000
-7.653800 0.000000
-7.622400 0.000000
-7.591100 0.000000
-7.559800 0.000000
-7.528500 0.000000
-7.497100 0.000000
-7.465800 0.000000
-7.434500 0.000000
-7.403200 0.000000
-7.371800 0.000000
-7.340500 0.000000
-7.309200 0.000000
-7.277900 0.000000
-7.246500 0.000000
-7.215200 0.000000
-7.183900 0.000000
-7.152600 0.000000
-7.121200 0.000000
-7.089900 0.000000
-7.058600 0.000000
-7.027300 0.000000
-6.995900 0.000000
-6.964600 0.000000
-6.933300 0.000000
-6.902000 0.000000
-6.870700 0.000000
-6.839300 0.000000
-6.808000 0.000000
-6.776700 0.000000
-6.745400 0.000000
-6.714000 0.000000
-6.682700 0.000000
-6.651400 0.000000
-6.620100 0.000000
-6.588700 0.000000
-6.557400 0.000000
-6.526100 0.000000
-6.494800 0.000000
-6.463400 0.000000
-6.432100 0.000000
-6.400800 0.000000
-6.369500 0.000000
-6.338100 0.000000
-6.306800 0.000000
-6.275500 0.000000
-6.244200 0.000000
-6.212800 0.000000
-6.181500 0.000000
-6.150200 0.000000
-6.118900 0.000000
-6.087600 0.000000
-6.056200 0.000000
-6.024900 0.000000
-5.993600 0.000000
-5.962300 0.000000
-5.930900 0.000000
-5.899600 0.000000
-5.868300 0.000000
-5.837000 0.000000
-5.805600 0.000000
-5.774300 0.000000
-5.743000 0.000000
-5.711700 0.000000
-5.680300 0.000000
-5.649000 0.000000
-5.617700 0.000000
-5.586400 0.000000
-5.555000 0.000000
-5.523700 0.000000
-5.492400 0.000000
-5.461100 0.000000
-5.429700 0.000000
-5.398400 0.000000
-5.367100 0.000000
-5.335800 0.000000
-5.304400 0.000000
-5.273100 0.000000
-5.241800 0.000000
-5.210500 0.000000
-5.179200 0.000000
-5.147800 0.000000
-5.116500 0.000000
-5.085200 0.000000
-5.053900 0.000000
-5.022500 0.000000
-4.991200 0.000000
-4.959900 0.000000
-4.928600 0.000000
-4.897200 0.000000
-4.865900 0.000000
-4.834600 0.000000
-4.803300 0.000000
-4.771900 0.000000
-4.740600 0.000000
-4.709300 0.004900
-4.678000 0.052400
-4.646600 0.128700
-4.615300 0.164400
-4.584000 0.176600
-4.552700 0.203500
-4.521300 0.238300
-4.490000 0.274900
-4.458700 0.308300
-4.427400 0.331300
-4.396100 0.374500
-4.364700 0.421600
-4.333400 0.419000
-4.302100 0.406800
-4.270800 0.413500
-4.239400 0.421600
-4.208100 0.428600
-4.176800 0.432600
-4.145500 0.423800
-4.114100 0.417300
-4.082800 0.419000
-4.051500 0.421200
-4.020200 0.423000
-3.988800 0.424400
-3.957500 0.425500
-3.926200 0.426900
-3.894900 0.428500
-3.863500 0.426800
-3.832200 0.426300
-3.800900 0.429700
-3.769600 0.432400
-3.738200 0.432600
-3.706900 0.432500
-3.675600 0.433300
-3.644300 0.434500
-3.612900 0.435900
-3.581600 0.437000
-3.550300 0.437800
-3.519000 0.438600
-3.487700 0.438700
-3.456300 0.438000
-3.425000 0.438900
-3.393700 0.440900
-3.362400 0.443100
-3.331000 0.445600
-3.299700 0.448200
-3.268400 0.450100
-3.237100 0.451500
-3.205700 0.453300
-3.174400 0.455200
-3.143100 0.457100
-3.111800 0.458900
-3.080400 0.460600
-3.049100 0.462300
-3.017800 0.464000
-2.986500 0.465200
-2.955100 0.466800
-2.923800 0.469200
-2.892500 0.471600
-2.861200 0.474100
-2.829800 0.476700
-2.798500 0.479400
-2.767200 0.482200
-2.735900 0.486000
-2.704600 0.491200
-2.673200 0.496200
-2.641900 0.501100
-2.610600 0.527100
-2.579300 0.576800
-2.547900 0.603000
-2.516600 0.607200
-2.485300 0.620500
-2.454000 0.641000
-2.422600 0.661400
-2.391300 0.682000
-2.360000 0.695700
-2.328700 0.705500
-2.297300 0.719800
-2.266000 0.742800
-2.234700 0.781000
-2.203400 0.820100
-2.172000 0.856000
-2.140700 0.894400
-2.109400 0.936100
-2.078100 0.980300
-2.046700 1.000600
-2.015400 1.002200
-1.984100 1.007900
-1.952800 1.006000
-1.921400 0.996000
-1.890100 0.979800
-1.858800 0.957400
-1.827500 0.925700
-1.796200 0.883700
-1.764800 0.859400
-1.733500 0.854100
-1.702200 0.849000
-1.670900 0.844300
-1.639500 0.840300
-1.608200 0.837000
-1.576900 0.837700
-1.545600 0.837600
-1.514200 0.828100
-1.482900 0.813200
-1.451600 0.801900
-1.420300 0.793100
-1.388900 0.784300
-1.357600 0.775400
-1.326300 0.766000
-1.295000 0.757200
-1.263600 0.751500
-1.232300 0.746200
-1.201000 0.740300
-1.169700 0.733900
-1.138300 0.727100
-1.107000 0.719700
-1.075700 0.711900
-1.044400 0.704900
-1.013000 0.698000
-0.981700 0.692000
-0.950400 0.687100
-0.919100 0.682800
-0.887800 0.679100
-0.856400 0.676200
-0.825100 0.673300
-0.793800 0.669800
-0.762500 0.666100
-0.731100 0.662200
-0.699800 0.658300
-0.668500 0.654100
-0.637200 0.649700
-0.605800 0.645200
-0.574500 0.640900
-0.543200 0.637400
-0.511900 0.634600
-0.480500 0.632400
-0.449200 0.630500
-0.417900 0.628600
-0.386600 0.627100
-0.355200 0.626000
-0.323900 0.625000
-0.292600 0.624000
-0.261300 0.622600
-0.229900 0.621300
-0.198600 0.620100
-0.167300 0.618900
-0.136000 0.617900
-0.104700 0.616800
-0.073300 0.615800
-0.042000 0.614900
-0.010700 0.614100
0.020600 0.613500
0.052000 0.613400
0.083300 0.622100
0.114600 0.631700
0.145900 0.637100
0.177300 0.642900
0.208600 0.649000
0.239900 0.655600
0.271200 0.663300
0.302600 0.672000
0.333900 0.677700
0.365200 0.668400
0.396500 0.660000
0.427900 0.658800
0.459200 0.657100
0.490500 0.655400
0.521800 0.650300
0.553200 0.641700
0.584500 0.631800
0.615800 0.620500
0.647100 0.606900
0.678500 0.590900
0.709800 0.572400
0.741100 0.551900
0.772400 0.533100
0.803700 0.517300
0.835100 0.502900
0.866400 0.489900
0.897700 0.479200
0.929000 0.470900
0.960400 0.465700
0.991700 0.462900
1.023000 0.460300
1.054300 0.457700
1.085700 0.455200
1.117000 0.452900
1.148300 0.450700
1.179600 0.448400
1.211000 0.444300
1.242300 0.437200
1.273600 0.428600
1.304900 0.419200
1.336300 0.409200
1.367600 0.398300
1.398900 0.386500
1.430200 0.373900
1.461600 0.360600
1.492900 0.346800
1.524200 0.334100
1.555500 0.323800
1.586800 0.314700
1.618200 0.306100
1.649500 0.298000
1.680800 0.290300
1.712100 0.283100
1.743500 0.276400
1.774800 0.269900
1.806100 0.263700
1.837400 0.257600
1.868800 0.252000
1.900100 0.251400
1.931400 0.265500
1.962700 0.285800
1.994100 0.302200
2.025400 0.319000
2.056700 0.343200
2.088000 0.373600
2.119400 0.404000
2.150700 0.433000
2.182000 0.462700
2.213300 0.494300
2.244700 0.527000
2.276000 0.557100
2.307300 0.586600
2.338600 0.609000
2.370000 0.627500
2.401300 0.644100
2.432600 0.658300
2.463900 0.669800
2.495200 0.676500
2.526600 0.679600
2.557900 0.682700
2.589200 0.685000
2.620500 0.681200
2.651900 0.675400
2.683200 0.675800
2.714500 0.678000
2.745800 0.680900
2.777200 0.683700
2.808500 0.687300
2.839800 0.692300
2.871100 0.698100
2.902500 0.704000
2.933800 0.709800
2.965100 0.715600
2.996400 0.721600
3.027800 0.728100
3.059100 0.734900
3.090400 0.742000
3.121700 0.748600
3.153100 0.764200
3.184400 0.789800
3.215700 0.807800
3.247000 0.817400
3.278300 0.825900
3.309700 0.833600
3.341000 0.840000
3.372300 0.843000
3.403600 0.842600
3.435000 0.840900
3.466300 0.840400
3.497600 0.849500
3.528900 0.859600
3.560300 0.865300
3.591600 0.871400
3.622900 0.878200
3.654200 0.885100
3.685600 0.892100
3.716900 0.899100
3.748200 0.905800
3.779500 0.914000
3.810900 0.928200
3.842200 0.948000
3.873500 0.969500
3.904800 0.986600
3.936200 1.033000
3.967500 1.064500
3.998800 1.077500
4.030100 1.089200
4.061500 1.108000
4.092800 1.209800
4.124100 1.248900
4.155400 1.315900
4.186700 1.361700
4.218100 1.386700
4.249400 1.426400
4.280700 1.426700
4.312000 1.415100
4.343400 1.394900
4.374700 1.350300
4.406000 1.325500
4.437300 1.321500
4.468700 1.378600
4.500000 1.422900
4.531300 1.356500
4.562600 1.337800
4.594000 1.318100
4.625300 1.303300
4.656600 1.283900
4.687900 1.274800
4.719300 1.298600
4.750600 1.304300
4.781900 1.293300
4.813200 1.230300
4.844600 1.244600
4.875900 1.257000
4.907200 1.283300
4.938500 1.306300
4.969900 1.270900
5.001200 1.245500
5.032500 1.246100
5.063800 1.250500
5.095100 1.264400
5.126500 1.283100
5.157800 1.304100
5.189100 1.340600
5.220400 1.368700
5.251800 1.390000
5.283100 1.408500
5.314400 1.432300
5.345700 1.457500
5.377100 1.467800
5.408400 1.462800
5.439700 1.440800
5.471000 1.369400
5.502400 1.260700
5.533700 1.139000
5.565000 1.042600
5.596300 1.005600
5.627700 1.001800
5.659000 1.006400
5.690300 1.156900
5.721600 1.106000
5.753000 1.093400
5.784300 1.087600
5.815600 1.096000
5.846900 1.110000
5.878200 1.159600
5.909600 1.227900
5.940900 1.273800
5.972200 1.312500
6.003500 1.344000
6.034900 1.368000
6.066200 1.314500
6.097500 1.296900
6.128800 1.281000
6.160200 1.249500
6.191500 1.236800
6.222800 1.223000
6.254100 1.201400
6.285500 1.211700
6.316800 1.158900
6.348100 1.132300
6.379400 1.117400
6.410800 1.131100
6.442100 1.184900
6.473400 1.315200
6.504700 1.348400
6.536100 1.341300
6.567400 1.267100
6.598700 1.219600
6.630000 1.149800
6.661400 1.130900
6.692700 1.150000
6.724000 1.127700
6.755300 1.099200
6.786600 1.112900
6.818000 1.114300
6.849300 1.117300
6.880600 1.129800
6.911900 1.138400
6.943300 1.147400
6.974600 1.156200
7.005900 1.162200
7.037200 1.169100
7.068600 1.207300
7.099900 1.233300
7.131200 1.205800
7.162500 1.205100
7.193900 1.248900
7.225200 1.230000
7.256500 1.207200
7.287800 1.122300
7.319200 1.051600
7.350500 1.012000
7.381800 0.990500
7.413100 0.994700
7.444500 0.980300
7.475800 0.985100
7.507100 1.009000
7.538400 0.984700
7.569700 0.977600
7.601100 0.977600
7.632400 0.942300
7.663700 0.893900
7.695000 0.886300
7.726400 0.877500
7.757700 0.868100
7.789000 0.862300
7.820300 0.865400
7.851700 0.854600
7.883000 0.844300
7.914300 0.811800
7.945600 0.774600
7.977000 0.769300
8.008300 0.770200
8.039600 0.786900
8.070900 0.819000
8.102300 0.863700
8.133600 0.923700
8.164900 0.951300
8.196200 0.945500
8.227600 0.905700
8.258900 0.947300
8.290200 0.922100
8.321500 0.880500
8.352900 0.860700
8.384200 0.848900
8.415500 0.835000
8.446800 0.828200
8.478100 0.841500
8.509500 0.863700
8.540800 0.892200
8.572100 0.922300
8.603400 0.928000
8.634800 0.944100
8.666100 0.961100
8.697400 0.975800
8.728700 0.980700
8.760100 1.001400
8.791400 0.992200
8.822700 0.980600
8.854000 0.973400
8.885400 0.969100
8.916700 1.006400
8.948000 0.954900
8.979300 0.958700
9.010700 0.988100
9.042000 1.023900
9.073300 1.062100
9.104600 1.094000
9.136000 1.082700
9.167300 1.063100
9.198600 1.093600
9.229900 1.005500
9.261200 1.028200
9.292600 1.048800
9.323900 1.071400
9.355200 1.090000
9.386500 1.085200
9.417900 1.046300
9.449200 1.006400
9.480500 1.030100
9.511800 1.059700
9.543200 1.053700
9.574500 1.034600
9.605800 1.009500
9.637100 1.008300
9.668500 1.028100
9.699800 1.051100
9.731100 1.066800
9.762400 1.104600
9.793800 1.095400
9.825100 1.106800
9.856400 1.118400
9.887700 1.132400
9.919100 1.148100
9.950400 1.162700
9.981700 1.172500
10.013000 1.177300
10.044400 1.181200
10.075700 1.184400
10.107000 1.193900
10.138300 1.200600
10.169600 1.193600
10.201000 1.204200
10.232300 1.224200
10.263600 1.245500
10.294900 1.262800
10.326300 1.277100
10.357600 1.337100
10.388900 1.390100
10.420200 1.404900
10.451600 1.404300
10.482900 1.406300
10.514200 1.425700
10.545500 1.447500
10.576900 1.474000
10.608200 1.505800
10.639500 1.524300
10.670800 1.532900
10.702200 1.499500
10.733500 1.418800
10.764800 1.390500
10.796100 1.384800
10.827500 1.401600
10.858800 1.418800
10.890100 1.389500
10.921400 1.406200
10.952700 1.435600
10.984100 1.464200
11.015400 1.510900
11.046700 1.566900
11.078000 1.628500
11.109400 1.635100
11.140700 1.635700
11.172000 1.664700
11.203300 1.616800
11.234700 1.540300
11.266000 1.519300
11.297300 1.505400
11.328600 1.502100
11.360000 1.460000
11.391300 1.429300
11.422600 1.453900
11.453900 1.481700
11.485300 1.469700
11.516600 1.490200
11.547900 1.532700
11.579200 1.578100
11.610600 1.659000
11.641900 1.706000
11.673200 1.668900
11.704500 1.628900
11.735900 1.606400
11.767200 1.555300
11.798500 1.524200
11.829800 1.517600
11.861100 1.517000
11.892500 1.535600
11.923800 1.547300
11.955100 1.552400
11.986400 1.568200
12.017800 1.580200
12.049100 1.601600
12.080400 1.652700
12.111700 1.631600
12.143100 1.586300
12.174400 1.547600
12.205700 1.514000
12.237000 1.474600
12.268400 1.450500
12.299700 1.427100
12.331000 1.397400
12.362300 1.375000
12.393700 1.355100
12.425000 1.360800
12.456300 1.414100
12.487600 1.411900
12.519000 1.443900
12.550300 1.487400
12.581600 1.500400
12.612900 1.499200
12.644300 1.509400
12.675600 1.526300
12.706900 1.548000
12.738200 1.577100
12.769500 1.556900
12.800900 1.555800
12.832200 1.547600
12.863500 1.534400
12.894800 1.527200
12.926200 1.526000
12.957500 1.528100
12.988800 1.531500
13.020100 1.532500
13.051500 1.533200
13.082800 1.549400
13.114100 1.542700
13.145400 1.535900
13.176800 1.527400
13.208100 1.508500
13.239400 1.505800
13.270700 1.503300
13.302100 1.479000
13.333400 1.460500
13.364700 1.421400
13.396000 1.396600
13.427400 1.362100
13.458700 1.366200
13.490000 1.366400
13.521300 1.345000
13.552600 1.335900
13.584000 1.330700
13.615300 1.329600
13.646600 1.310300
13.677900 1.307800
13.709300 1.326000
13.740600 1.334200
13.771900 1.338800
13.803200 1.332600
13.834600 1.320400
13.865900 1.311300
13.897200 1.296000
13.928500 1.278500
13.959900 1.262700
13.991200 1.241800
14.022500 1.224500
14.053800 1.206100
14.085200 1.182500
14.116500 1.180600
14.147800 1.199400
14.179100 1.223800
14.210500 1.226700
14.241800 1.213600
14.273100 1.208000
14.304400 1.212200
14.335800 1.232500
14.367100 1.225100
14.398400 1.208400
14.429700 1.282000
14.461000 1.251700
14.492400 1.252000
14.523700 1.248800
14.555000 1.254400
14.586300 1.270700
14.617700 1.305500
14.649000 1.326000
14.680300 1.334700
14.711600 1.347400
14.743000 1.355200
14.774300 1.361200
14.805600 1.363500
14.836900 1.337900
14.868300 1.331400
14.899600 1.325800
14.930900 1.321700
14.962200 1.319400
14.993600 1.323700
15.024900 1.334600
15.056200 1.354200
15.087500 1.368400
15.118900 1.373000
15.150200 1.369300
15.181500 1.360600
15.212800 1.361100
15.244100 1.367800
15.275500 1.375200
15.306800 1.340000
15.338100 1.335100
15.369400 1.374100
15.400800 1.372500
15.432100 1.371000
15.463400 1.377500
15.494700 1.397600
15.526100 1.414200
15.557400 1.446100
15.588700 1.476200
15.620000 1.495600
15.651400 1.515100
15.682700 1.519600
15.714000 1.504600
15.745300 1.501100
15.776700 1.497200
15.808000 1.517800
15.839300 1.515100
15.870600 1.531100
15.902000 1.534300
15.933300 1.531300
15.964600 1.524600
15.995900 1.520100
16.027300 1.510000
16.058600 1.505900
16.089900 1.514500
16.121200 1.524700
16.152500 1.536400
16.183900 1.546500
16.215200 1.594200
16.246500 1.612900
16.277800 1.634200
16.309200 1.655700
16.340500 1.667700
16.371800 1.737800
16.403100 1.740300
16.434500 1.751900
16.465800 1.764800
16.497100 1.770300
16.528400 1.773300
16.559800 1.770900
16.591100 1.786800
16.622400 1.782300
16.653700 1.787600
16.685100 1.787300
16.716400 1.776800
16.747700 1.779200
16.779000 1.760200
16.810400 1.737700
16.841700 1.693500
16.873000 1.648200
16.904300 1.618400
16.935600 1.594700
16.967000 1.577500
16.998300 1.569200
17.029600 1.566500
17.060900 1.599300
17.092300 1.682900
17.123600 1.742500
17.154900 1.806800
17.186200 1.865300
17.217600 1.918000
17.248900 1.974100
17.280200 2.041300
17.311500 2.061900
17.342900 2.048600
17.374200 2.014700
17.405500 1.944300
17.436800 1.891100
17.468200 1.873900
17.499500 1.878300
17.530800 1.934800
17.562100 1.934000
17.593500 1.963700
17.624800 1.975200
17.656100 1.991000
17.687400 1.997900
17.718800 2.078400
17.750100 1.971300
17.781400 1.917900
17.812700 1.865300
17.844000 1.852900
17.875400 1.831100
17.906700 1.805100
17.938000 1.817500
17.969300 1.855100
18.000700 1.871200
18.032000 1.906500
18.063300 1.955800
18.094600 1.939500
18.126000 1.915600
18.157300 1.909200
18.188600 1.921400
18.219900 1.953400
18.251300 1.954700
18.282600 1.823900
18.313900 1.753700
18.345200 1.691300
18.376600 1.635800
18.407900 1.627900
18.439200 1.631400
18.470500 1.625800
18.501900 1.608800
18.533200 1.606900
18.564500 1.615800
18.595800 1.645500
18.627200 1.670200
18.658500 1.693200
18.689800 1.706000
18.721100 1.696100
18.752400 1.683200
18.783800 1.668700
18.815100 1.677000
18.846400 1.663600
18.877700 1.619900
18.909100 1.548900
18.940400 1.491700
18.971700 1.488600
19.003000 1.504800
19.034400 1.546200
19.065700 1.586400
19.097000 1.629600
19.128300 1.675900
19.159700 1.723300
19.191000 1.783500
19.222300 1.836800
19.253600 1.907200
19.285000 2.017600
19.316300 2.141100
19.347600 2.221300
19.378900 2.269700
19.410300 2.295500
19.441600 2.284500
19.472900 2.257100
19.504200 2.239600
19.535500 2.228400
19.566900 2.223800
19.598200 2.226800
19.629500 2.222400
19.660800 2.262900
19.692200 2.205100
19.723500 2.137600
19.754800 2.083600
19.786100 1.924000
19.817500 1.879900
19.848800 1.894000
19.880100 1.891500
19.911400 1.889300
19.942800 1.979900
19.974100 1.997200
20.005400 2.015300
20.036700 2.062000
20.068100 2.081200
20.099400 2.068300
20.130700 2.057200
20.162000 2.051800
20.193400 2.055900
20.224700 2.021500
20.256000 2.048900
20.287300 2.111100
20.318700 2.151800
20.350000 2.241900
20.381300 2.263400
20.412600 2.310100
20.443900 2.314700
20.475300 2.349800
20.506600 2.280100
20.537900 2.139200
20.569200 2.071500
20.600600 2.003700
20.631900 1.971800
20.663200 1.960400
20.694500 1.966600
20.725900 1.960800
20.757200 1.942600
20.788500 1.952500
20.819800 1.958700
20.851200 1.946600
20.882500 1.923900
20.913800 1.907900
20.945100 1.903500
20.976500 1.912400
21.007800 1.924600
21.039100 1.920000
21.070400 1.923400
21.101800 1.939300
21.133100 1.960500
21.164400 1.976000
21.195700 1.994900
21.227000 2.016500
21.258400 2.062300
21.289700 2.064700
21.321000 2.102200
21.352300 2.137400
21.383700 2.167500
21.415000 2.207700
21.446300 2.229400
21.477600 2.272100
21.509000 2.244500
21.540300 2.253000
21.571600 2.265500
21.602900 2.301900
21.634300 2.339400
21.665600 2.377700
21.696900 2.426800
21.728200 2.478600
21.759600 2.548100
21.790900 2.581700
21.822200 2.481500
21.853500 2.477100
21.884900 2.489700
21.916200 2.343000
21.947500 2.241600
21.978800 2.200300
22.010200 2.197500
22.041500 2.210800
22.072800 2.143500
22.104100 2.074700
22.135400 1.994500
22.166800 1.924100
22.198100 1.928300
22.229400 1.912800
22.260700 1.938000
22.292100 1.963500
22.323400 1.990600
22.354700 2.053600
22.386000 2.128000
22.417400 2.198200
22.448700 2.300200
22.480000 2.267600
22.511300 2.249800
22.542700 2.294300
22.574000 2.307400
22.605300 2.310600
22.636600 2.319400
22.668000 2.300200
22.699300 2.311400
22.730600 2.335300
22.761900 2.348200
22.793300 2.352800
22.824600 2.388200
22.855900 2.290400
22.887200 2.247400
22.918500 2.256900
22.949900 2.406600
22.981200 2.629600
23.012500 2.684300
23.043800 2.725900
23.075200 2.774700
23.106500 2.922500
23.137800 2.701600
23.169100 2.527400
23.200500 2.393600
23.231800 2.269300
23.263100 2.174300
23.294400 2.081300
23.325800 2.135200
23.357100 2.068000
23.388400 2.127200
23.419700 2.049800
23.451100 2.108300
23.482400 2.206700
23.513700 2.280000
23.545000 2.022900
23.576400 2.035200
23.607700 2.108300
23.639000 2.256800
23.670300 2.381500
23.701700 2.445900
23.733000 2.585500
23.764300 2.699100
23.795600 2.787000
23.826900 2.805600
23.858300 2.775800
23.889600 2.781000
23.920900 2.766100
23.952200 2.702900
23.983600 2.720100
24.014900 2.743500
24.046200 2.642500
24.077500 2.511300
24.108900 2.492000
24.140200 2.477800
24.171500 2.465400
24.202800 2.560100
24.234200 2.464900
24.265500 2.434500
24.296800 2.408700
24.328100 2.517700
24.359500 2.671500
24.390800 2.622300
24.422100 2.474100
24.453400 2.440700
24.484800 2.471400
24.516100 2.458500
24.547400 2.420500
24.578700 2.398500
24.610100 2.376400
24.641400 2.402400
24.672700 2.440200
24.704000 2.479600
24.735300 2.455700
24.766700 2.446000
24.798000 2.413800
24.829300 2.358700
24.860600 2.380600
24.892000 2.420700
24.923300 2.454700
24.954600 2.475700
24.985900 2.481000
25.017300 2.513500
25.048600 2.536600
25.079900 2.601700
25.111200 2.621200
25.142600 2.594100
25.173900 2.547200
25.205200 2.463900
25.236500 3.242600
25.267900 2.232600
25.299200 2.173500
25.330500 2.151800
25.361800 2.133400
25.393200 2.142200
25.424500 2.135800
25.455800 2.156600
25.487100 2.146600
25.518400 2.247800
25.549800 2.338100
25.581100 2.460600
25.612400 2.585500
25.643700 2.784000
25.675100 2.933300
25.706400 2.947000
25.737700 2.861800
25.769000 2.819600
25.800400 2.767200
25.831700 2.710400
25.863000 2.660200
25.894300 2.614700
25.925700 2.543200
25.957000 2.547400
25.988300 2.529000
26.019600 2.557400
26.051000 2.542900
26.082300 2.547100
26.113600 2.592000
26.144900 2.689400
26.176300 2.777300
26.207600 2.879600
26.238900 2.990100
26.270200 3.073000
26.301600 3.088000
26.332900 2.966100
26.364200 2.928800
26.395500 2.882300
26.426800 2.790100
26.458200 2.728400
26.489500 2.677400
26.520800 2.586800
26.552100 2.596800
26.583500 2.362300
26.614800 2.382500
26.646100 2.474000
26.677400 2.478500
26.708800 2.491500
26.740100 2.509500
26.771400 2.546300
26.802700 2.550700
26.834100 2.549400
26.865400 2.573900
26.896700 2.679000
26.928000 2.701700
26.959400 2.663000
26.990700 2.688500
27.022000 2.691300
27.053300 2.705400
27.084700 2.693600
27.116000 2.604100
27.147300 2.584900
27.178600 2.567700
27.209900 2.557000
27.241300 2.572600
27.272600 2.616700
27.303900 2.782000
27.335200 2.728700
27.366600 2.696100
27.397900 2.649600
27.429200 2.638400
27.460500 2.622800
27.491900 2.609400
27.523200 2.603400
27.554500 2.586900
27.585800 2.572800
27.617200 2.553600
27.648500 2.550400
27.679800 2.563700
27.711100 2.509900
27.742500 2.510600
27.773800 2.525800
27.805100 2.541200
27.836400 2.553300
27.867800 2.557100
27.899100 2.549200
27.930400 2.570300
27.961700 2.916800
27.993100 2.892900
28.024400 2.966600
28.055700 2.818400
28.087000 2.771700
28.118300 2.738000
28.149700 2.707900
28.181000 2.680200
28.212300 2.690300
28.243600 2.711200
28.275000 2.730000
28.306300 2.726900
28.337600 2.744000
28.368900 2.792100
28.400300 2.910500
28.431600 2.942400
28.462900 2.961400
28.494200 3.065800
28.525600 2.973800
28.556900 2.958800
28.588200 2.898400
28.619500 2.709400
28.650900 2.544700
28.682200 2.497300
28.713500 2.506100
28.744800 2.563100
28.776200 2.717700
28.807500 2.810000
28.838800 2.844400
28.870100 2.842200
28.901400 2.809600
28.932800 2.765900
28.964100 2.785700
28.995400 2.913800
29.026700 3.006000
29.058100 3.077700
29.089400 3.184500
29.120700 3.055000
29.152000 2.956600
29.183400 2.912900
29.214700 2.878100
29.246000 2.875200
29.277300 2.904200
29.308700 2.883500
29.340000 2.910800
29.371300 3.024900
29.402600 3.096700
29.434000 3.130900
29.465300 3.195300
29.496600 3.184200
29.527900 3.254200
29.559300 3.398100
29.590600 3.443000
29.621900 3.470700
29.653200 3.434600
29.684600 3.400300
29.715900 3.349600
29.747200 3.317400
29.778500 3.373700
29.809800 3.421000
29.841200 3.530700
29.872500 3.669600
29.903800 3.585100
29.935100 3.418600
29.966500 3.361600
29.997800 3.271600
30.029100 3.196600
30.060400 3.227000
30.091800 3.199100
30.123100 3.151900
30.154400 3.118000
30.185700 3.086000
30.217100 3.070100
30.248400 3.182400
30.279700 3.451600
30.311000 3.237100
30.342400 3.105900
30.373700 2.975200
30.405000 2.905400
30.436300 2.850900
30.467700 2.796700
30.499000 2.769700
30.530300 2.729700
30.561600 2.645100
30.592900 2.592700
30.624300 2.572100
30.655600 2.550600
30.686900 2.536800
30.718200 2.557100
30.749600 2.525300
30.780900 2.488300
30.812200 2.458800
30.843500 2.447700
30.874900 2.525100
30.906200 2.601400
30.937500 2.651700
30.968800 2.702900
31.000200 2.752000
31.031500 2.815700
31.062800 2.885700
31.094100 2.977200
31.125500 3.059700
31.156800 3.122300
31.188100 3.131000
31.219400 3.186600
31.250800 3.198100
31.282100 3.206700
31.313400 3.209400
31.344700 3.222700
31.376100 3.363900
31.407400 3.296000
31.438700 3.399000
31.470000 3.589700
31.501300 3.676700
31.532700 3.743800
31.564000 3.766700
31.595300 3.701300
31.626600 3.671900
31.658000 3.638200
31.689300 3.583900
31.720600 3.553100
31.751900 3.492700
31.783300 3.477900
31.814600 3.457600
31.845900 3.487600
31.877200 3.549800
31.908600 3.577600
31.939900 3.438500
31.971200 3.633100
32.002500 3.267200
32.033900 3.078300
32.065200 2.924100
32.096500 2.828600
32.127800 2.753000
32.159200 2.720100
32.190500 2.716300
32.221800 3.065600
32.253100 3.002300
32.284500 2.958500
32.315800 2.824800
32.347100 2.784600
32.378400 2.807900
32.409700 2.874800
32.441100 2.898300
32.472400 2.961200
32.503700 3.005600
32.535000 3.050200
32.566400 3.171400
32.597700 3.471400
32.629000 3.494300
32.660300 3.327200
32.691700 3.097400
32.723000 3.013400
32.754300 2.986900
32.785600 2.974100
32.817000 3.011300
32.848300 2.978200
32.879600 2.972400
32.910900 2.962800
32.942300 2.971800
32.973600 3.086900
33.004900 3.161400
33.036200 3.249700
33.067600 3.246300
33.098900 3.246500
33.130200 3.171500
33.161500 3.159800
33.192800 3.135800
33.224200 3.111800
33.255500 3.054300
33.286800 2.961400
33.318100 3.064500
33.349500 2.931000
33.380800 2.809700
33.412100 2.709700
33.443400 2.685100
33.474800 2.699900
33.506100 2.738700
33.537400 2.771900
33.568700 2.816600
33.600100 2.847800
33.631400 2.866000
33.662700 2.875400
33.694000 2.784200
33.725400 2.694300
33.756700 2.610900
33.788000 2.571800
33.819300 2.541500
33.850700 2.543000
33.882000 2.518400
33.913300 2.497200
33.944600 2.479200
33.976000 2.404500
34.007300 2.377600
34.038600 2.384000
34.069900 2.408500
34.101200 2.475700
34.132600 2.556500
34.163900 2.609700
34.195200 2.724200
34.226500 2.809000
34.257900 2.856700
34.289200 2.921900
34.320500 3.022200
34.351800 3.076700
34.383200 3.216100
34.414500 3.176500
34.445800 3.087900
34.477100 3.002700
34.508500 2.954600
34.539800 2.927400
34.571100 2.933000
34.602400 3.021200
34.633800 3.072000
34.665100 3.032200
34.696400 3.034400
34.727700 3.121100
34.759100 3.178000
34.790400 3.247400
34.821700 3.305400
34.853000 3.300300
34.884300 3.004100
34.915700 2.986600
34.947000 2.933800
34.978300 2.893300
35.009600 2.824700
35.041000 2.786800
35.072300 2.757800
35.103600 2.686700
35.134900 2.619600
35.166300 2.532600
35.197600 2.460800
35.228900 2.424000
35.260200 2.473600
35.291600 2.580000
35.322900 2.682600
35.354200 2.831700
35.385500 2.979500
35.416900 3.107600
35.448200 3.225700
35.479500 3.397700
35.510800 3.625800
35.542200 3.659100
35.573500 3.979600
35.604800 3.685000
35.636100 3.473100
35.667500 3.188500
35.698800 2.900500
35.730100 2.713300
35.761400 2.657800
35.792700 2.631000
35.824100 2.624300
35.855400 2.587900
35.886700 2.577900
35.918000 2.620900
35.949400 2.684200
35.980700 2.784700
36.012000 3.056900
36.043300 3.274900
36.074700 3.281100
36.106000 3.466500
36.137300 3.683500
36.168600 4.037800
36.200000 3.945500
36.231300 3.778400
36.262600 3.490900
36.293900 3.169600
36.325300 2.861300
36.356600 2.726500
36.387900 2.622000
36.419200 2.601400
36.450600 2.641800
36.481900 2.779000
36.513200 2.828900
36.544500 2.825300
36.575800 3.129300
36.607200 2.692000
36.638500 2.637400
36.669800 2.714800
36.701100 2.695200
36.732500 2.615200
36.763800 2.508600
36.795100 2.494400
36.826400 2.483000
36.857800 2.540100
36.889100 2.587400
36.920400 2.552200
36.951700 2.541000
36.983100 2.645700
37.014400 2.722900
37.045700 2.734600
37.077000 2.692700
37.108400 2.664900
37.139700 2.699900
37.171000 2.842800
37.202300 3.002800
37.233700 3.052900
37.265000 2.827900
37.296300 2.699600
37.327600 2.660000
37.359000 2.649200
37.390300 2.646500
37.421600 2.694400
37.452900 2.684600
37.484200 2.631400
37.515600 2.572700
37.546900 2.514000
37.578200 2.494800
37.609500 2.473700
37.640900 2.454700
37.672200 2.437400
37.703500 2.443200
37.734800 2.450900
37.766200 2.469200
37.797500 2.501800
37.828800 2.518300
37.860100 2.521900
37.891500 2.468500
37.922800 2.376500
37.954100 2.336800
37.985400 2.305400
38.016800 2.303600
38.048100 2.315000
38.079400 2.304300
38.110700 2.271200
38.142100 2.213100
38.173400 2.201500
38.204700 2.211200
38.236000 2.234000
38.267400 2.309800
38.298700 2.370800
38.330000 2.438200
38.361300 2.541200
38.392600 2.616400
38.424000 2.730000
38.455300 2.799900
38.486600 2.835900
38.517900 2.863900
38.549300 2.977200
38.580600 2.898100
38.611900 2.836100
38.643200 2.762300
38.674600 2.677200
38.705900 2.664100
38.737200 2.570100
38.768500 2.514800
38.799900 2.477600
38.831200 2.508100
38.862500 2.550600
38.893800 2.582200
38.925200 2.622200
38.956500 2.630100
38.987800 2.665900
39.019100 2.698000
39.050500 2.769000
39.081800 2.854400
39.113100 2.907500
39.144400 3.000800
39.175700 3.205100
39.207100 3.206500
39.238400 3.220600
39.269700 3.202600
39.301000 3.262000
39.332400 3.450900
39.363700 3.459700
39.395000 3.454800
39.426300 3.290100
39.457700 2.985500
39.489000 2.856200
39.520300 2.788300
39.551600 2.748100
39.583000 2.733700
39.614300 2.738100
39.645600 2.746800
39.676900 2.820600
39.708300 3.030600
39.739600 3.040700
39.770900 3.092700
39.802200 3.005500
39.833600 2.939900
39.864900 3.129200
39.896200 3.155100
39.927500 3.146100
39.958900 3.134200
39.990200 3.150900
40.021500 3.165200
40.052800 3.034300
40.084100 2.967800
40.115500 2.900400
40.146800 2.902800
40.178100 2.884300
40.209400 2.879200
40.240800 2.746800
40.272100 2.722100
40.303400 2.725000
40.334700 2.694000
40.366100 2.670100
40.397400 2.804700
40.428700 2.889800
40.460000 2.924900
40.491400 2.933600
40.522700 2.953200
40.554000 2.988500
40.585300 2.954700
40.616700 2.878600
40.648000 2.763400
40.679300 2.580800
40.710600 2.570100
40.742000 2.600500
40.773300 2.646500
40.804600 2.577000
40.835900 2.557000
40.867200 2.505600
40.898600 2.591400
40.929900 2.609900
40.961200 2.483800
40.992500 2.387200
41.023900 2.313200
41.055200 2.246400
41.086500 2.178600
41.117800 2.110300
41.149200 2.015800
41.180500 1.962500
41.211800 1.945500
41.243100 1.761300
41.274500 1.612100
41.305800 1.481400
41.337100 1.429500
41.368400 1.492400
41.399800 1.423700
41.431100 1.379200
41.462400 1.352400
41.493700 1.309100
41.525100 1.233800
41.556400 1.131900
41.587700 1.091300
41.619000 1.050500
41.650400 0.968200
41.681700 0.876700
41.713000 0.788100
41.744300 0.726200
41.775600 0.684500
41.807000 0.642300
41.838300 0.588900
41.869600 0.527700
41.900900 0.461900
41.932300 0.356700
41.963600 0.224400
41.994900 0.140000
42.026200 0.105500
42.057600 0.080000
42.088900 0.057800
42.120200 0.038700
42.151500 0.011400
42.182900 0.006800
42.214200 0.003700
42.245500 0.001800
42.276800 0.000700
42.308200 0.000200
42.339500 0.000000
42.370800 0.000000
42.402100 0.000000
42.433500 0.000000
42.464800 0.000000
42.496100 0.000000
42.527400 0.000000
42.558700 0.000000
42.590100 0.000000
42.621400 0.000000
42.652700 0.000000
42.684000 0.000000
42.715400 0.000000
42.746700 0.000000
42.778000 0.000000
42.809300 0.000000
42.840700 0.000000
42.872000 0.000000
42.903300 0.000000
42.934600 0.000000
42.966000 0.000000
42.997300 0.000000
43.028600 0.000000
43.059900 0.000000
43.091300 0.000000
43.122600 0.000000
43.153900 0.000000
43.185200 0.000000
43.216600 0.000000
43.247900 0.000000
43.279200 0.000000
43.310500 0.000000
43.341900 0.000000
43.373200 0.000000
43.404500 0.000000
43.435800 0.000000
43.467100 0.000000
43.498500 0.000000
43.529800 0.000000
43.561100 0.000000
43.592400 0.000000
43.623800 0.000000
43.655100 0.000000
43.686400 0.000000
43.717700 0.000000
43.749100 0.000000
43.780400 0.000000
43.811700 0.000000
43.843000 0.000000
43.874400 0.000000
43.905700 0.000000
43.937000 0.000000
43.968300 0.000000
43.999700 0.000000
44.031000 0.000000
44.062300 0.000000
44.093600 0.000000
44.125000 0.000000
44.156300 0.000000
44.187600 0.000000
44.218900 0.000000
44.250200 0.000000
44.281600 0.000000
44.312900 0.000000
44.344200 0.000000
44.375500 0.000000
44.406900 0.000000
44.438200 0.000000
44.469500 0.000000
44.500800 0.000000
44.532200 0.000000
44.563500 0.000000
44.594800 0.000000
44.626100 0.000000
44.657500 0.000000
44.688800 0.000000
44.720100 0.000000
44.751400 0.000000
44.782800 0.000000
44.814100 0.000000
44.845400 0.000000
44.876700 0.000000
44.908100 0.000000
44.939400 0.000000
44.970700 0.000000
45.002000 0.000000
45.033400 0.000000
45.064700 0.000000
45.096000 0.000000
45.127300 0.000000
45.158600 0.000000
45.190000 0.000000
e
