set title 'mp-611836 - Density of States'
set xlabel 'Energy (eV)'
set ylabel 'DOS (states/eV)'
set grid
set xrange [-10:10]
set yrange [0:3.714]
set xzeroaxis lt -1
set terminal png size 800,600
set output 'mp-611836_dos_gnuplot.png'
plot '-' using 1:2 with lines title 'DOS'
-34.716700 0.000000
-34.650500 0.000000
-34.584300 0.000000
-34.518000 0.000000
-34.451800 0.000000
-34.385600 0.000000
-34.319300 0.000000
-34.253100 0.000000
-34.186900 0.000000
-34.120700 0.000000
-34.054400 0.000000
-33.988200 0.000000
-33.922000 0.000000
-33.855700 0.000000
-33.789500 0.000000
-33.723300 0.000000
-33.657000 0.000000
-33.590800 0.000000
-33.524600 0.000000
-33.458300 0.000000
-33.392100 0.000000
-33.325900 0.000000
-33.259600 0.000000
-33.193400 0.000000
-33.127200 0.000000
-33.060900 0.000000
-32.994700 0.000000
-32.928500 0.000000
-32.862200 0.000000
-32.796000 0.000000
-32.729800 0.000000
-32.663600 0.000000
-32.597300 0.000000
-32.531100 0.000000
-32.464900 0.000000
-32.398600 0.000000
-32.332400 0.000000
-32.266200 0.000000
-32.199900 0.000000
-32.133700 0.000000
-32.067500 0.000000
-32.001200 0.000000
-31.935000 0.000000
-31.868800 0.000000
-31.802500 0.000000
-31.736300 0.000000
-31.670100 0.000000
-31.603800 0.000000
-31.537600 0.000000
-31.471400 0.000000
-31.405100 0.000000
-31.338900 0.000000
-31.272700 0.000000
-31.206500 0.000000
-31.140200 0.000000
-31.074000 0.000000
-31.007800 0.000000
-30.941500 0.000000
-30.875300 0.000000
-30.809100 0.000000
-30.742800 0.000000
-30.676600 0.000000
-30.610400 0.000000
-30.544100 0.000000
-30.477900 0.000000
-30.411700 0.000000
-30.345400 0.000000
-30.279200 0.000000
-30.213000 0.000000
-30.146700 0.000000
-30.080500 0.000000
-30.014300 0.000000
-29.948100 0.000000
-29.881800 0.000000
-29.815600 0.000000
-29.749400 0.000000
-29.683100 0.000000
-29.616900 0.000000
-29.550700 0.000000
-29.484400 0.000000
-29.418200 0.000000
-29.352000 0.000000
-29.285700 0.000000
-29.219500 0.000000
-29.153300 0.000000
-29.087000 0.000000
-29.020800 0.000000
-28.954600 0.000000
-28.888300 0.000000
-28.822100 0.000000
-28.755900 0.000000
-28.689600 0.000000
-28.623400 0.000000
-28.557200 0.000000
-28.491000 0.000000
-28.424700 0.000000
-28.358500 0.000000
-28.292300 0.000000
-28.226000 0.000000
-28.159800 0.000000
-28.093600 0.000000
-28.027300 0.000000
-27.961100 0.000000
-27.894900 0.000000
-27.828600 0.000000
-27.762400 0.000000
-27.696200 0.000000
-27.629900 0.000000
-27.563700 0.000000
-27.497500 0.000000
-27.431200 7.122700
-27.365000 0.000000
-27.298800 0.000000
-27.232500 0.000000
-27.166300 0.000000
-27.100100 0.000000
-27.033900 0.000000
-26.967600 0.000000
-26.901400 0.000000
-26.835200 0.000000
-26.768900 0.000000
-26.702700 0.000000
-26.636500 0.000000
-26.570200 0.000000
-26.504000 0.000000
-26.437800 0.000000
-26.371500 0.000000
-26.305300 0.000000
-26.239100 0.000000
-26.172800 0.000000
-26.106600 0.000000
-26.040400 0.000000
-25.974100 0.000000
-25.907900 0.000000
-25.841700 0.000000
-25.775500 0.000000
-25.709200 0.000000
-25.643000 0.000000
-25.576800 0.000000
-25.510500 0.000000
-25.444300 0.000000
-25.378100 0.000000
-25.311800 0.000000
-25.245600 0.000000
-25.179400 0.000000
-25.113100 0.000000
-25.046900 0.000000
-24.980700 0.000000
-24.914400 0.000000
-24.848200 0.000000
-24.782000 0.000000
-24.715700 0.000000
-24.649500 0.000000
-24.583300 0.000000
-24.517000 0.000000
-24.450800 0.000000
-24.384600 0.000000
-24.318400 0.000000
-24.252100 0.000000
-24.185900 0.000000
-24.119700 0.000000
-24.053400 0.000000
-23.987200 0.000000
-23.921000 0.000000
-23.854700 0.000000
-23.788500 0.000000
-23.722300 0.000000
-23.656000 0.000000
-23.589800 0.000000
-23.523600 0.000000
-23.457300 0.000000
-23.391100 0.000000
-23.324900 0.000000
-23.258600 0.000000
-23.192400 0.000000
-23.126200 0.000000
-23.059900 0.000000
-22.993700 0.000000
-22.927500 0.000000
-22.861300 0.000000
-22.795000 0.000000
-22.728800 0.000000
-22.662600 0.000000
-22.596300 0.000000
-22.530100 0.000000
-22.463900 0.000000
-22.397600 0.000000
-22.331400 0.000000
-22.265200 0.000000
-22.198900 0.000000
-22.132700 0.000000
-22.066500 0.000000
-22.000200 0.000000
-21.934000 0.000000
-21.867800 0.000000
-21.801500 0.000000
-21.735300 0.000000
-21.669100 0.000000
-21.602900 0.000000
-21.536600 0.000000
-21.470400 0.000000
-21.404200 0.000000
-21.337900 0.000000
-21.271700 0.000000
-21.205500 0.000000
-21.139200 0.000000
-21.073000 0.000000
-21.006800 0.000000
-20.940500 0.000000
-20.874300 0.000000
-20.808100 0.000000
-20.741800 0.000000
-20.675600 0.000000
-20.609400 0.000000
-20.543100 0.000000
-20.476900 0.000000
-20.410700 0.000000
-20.344400 0.000000
-20.278200 0.000000
-20.212000 0.000000
-20.145800 0.000000
-20.079500 0.000000
-20.013300 0.000000
-19.947100 0.000000
-19.880800 0.000000
-19.814600 0.000000
-19.748400 0.000000
-19.682100 0.000000
-19.615900 0.000000
-19.549700 0.000000
-19.483400 0.000000
-19.417200 0.000000
-19.351000 0.000000
-19.284700 0.000000
-19.218500 0.000000
-19.152300 0.000000
-19.086000 0.000000
-19.019800 0.000000
-18.953600 0.000000
-18.887300 0.000000
-18.821100 0.000000
-18.754900 0.000000
-18.688700 0.000000
-18.622400 0.000000
-18.556200 0.000000
-18.490000 0.000000
-18.423700 0.000000
-18.357500 0.000000
-18.291300 0.000000
-18.225000 0.000000
-18.158800 0.000000
-18.092600 0.000000
-18.026300 0.000000
-17.960100 0.000000
-17.893900 0.000000
-17.827600 0.000000
-17.761400 0.000000
-17.695200 0.000000
-17.628900 0.000000
-17.562700 0.000000
-17.496500 0.000000
-17.430300 0.000000
-17.364000 0.000000
-17.297800 0.000000
-17.231600 0.000000
-17.165300 0.000000
-17.099100 0.000000
-17.032900 0.000000
-16.966600 0.000000
-16.900400 0.000000
-16.834200 0.000000
-16.767900 0.000000
-16.701700 0.000000
-16.635500 0.000000
-16.569200 0.000000
-16.503000 0.000000
-16.436800 0.000000
-16.370500 0.000000
-16.304300 0.000000
-16.238100 0.000000
-16.171800 0.000000
-16.105600 0.000000
-16.039400 0.000000
-15.973200 0.000000
-15.906900 0.000000
-15.840700 0.000000
-15.774500 0.000000
-15.708200 0.000000
-15.642000 0.000000
-15.575800 0.000000
-15.509500 0.000000
-15.443300 0.000000
-15.377100 0.000000
-15.310800 0.000000
-15.244600 0.376000
-15.178400 0.699800
-15.112100 1.094900
-15.045900 1.733400
-14.979700 3.137300
-14.913400 4.084500
-14.847200 5.174300
-14.781000 0.000000
-14.714800 0.000000
-14.648500 0.000000
-14.582300 0.000000
-14.516100 0.000000
-14.449800 0.000000
-14.383600 0.000000
-14.317400 0.000000
-14.251100 0.000000
-14.184900 0.000000
-14.118700 0.000000
-14.052400 0.000000
-13.986200 0.000000
-13.920000 0.000000
-13.853700 0.000000
-13.787500 0.000000
-13.721300 0.000000
-13.655000 0.000000
-13.588800 0.000000
-13.522600 0.000000
-13.456300 0.000000
-13.390100 0.000000
-13.323900 0.000000
-13.257700 0.000000
-13.191400 0.000000
-13.125200 0.000000
-13.059000 0.000000
-12.992700 0.000000
-12.926500 0.000000
-12.860300 0.000000
-12.794000 0.000000
-12.727800 0.000000
-12.661600 0.000000
-12.595300 0.000000
-12.529100 0.000000
-12.462900 0.000000
-12.396600 0.000000
-12.330400 0.000000
-12.264200 0.000000
-12.197900 0.000000
-12.131700 0.000000
-12.065500 0.000000
-11.999200 0.000000
-11.933000 0.000000
-11.866800 0.000000
-11.800600 0.000000
-11.734300 0.000000
-11.668100 0.000000
-11.601900 0.000000
-11.535600 0.000000
-11.469400 0.000000
-11.403200 0.000000
-11.336900 0.000000
-11.270700 0.000000
-11.204500 0.000000
-11.138200 0.000000
-11.072000 0.000000
-11.005800 0.000000
-10.939500 0.000000
-10.873300 0.000000
-10.807100 0.000000
-10.740800 0.000000
-10.674600 0.000000
-10.608400 0.000000
-10.542200 0.000000
-10.475900 0.000000
-10.409700 0.000000
-10.343500 0.000000
-10.277200 0.000000
-10.211000 0.000000
-10.144800 0.000000
-10.078500 0.000000
-10.012300 0.000000
-9.946100 0.000000
-9.879800 0.000000
-9.813600 0.000000
-9.747400 0.000000
-9.681100 0.000000
-9.614900 0.000000
-9.548700 0.000000
-9.482400 0.000000
-9.416200 0.000000
-9.350000 0.000000
-9.283700 0.000000
-9.217500 0.028400
-9.151300 0.256100
-9.085100 0.369800
-9.018800 0.491800
-8.952600 0.616100
-8.886400 0.760000
-8.820100 0.938500
-8.753900 1.196700
-8.687700 1.501600
-8.621400 1.682900
-8.555200 1.745000
-8.489000 1.864700
-8.422700 2.007500
-8.356500 1.347100
-8.290300 0.317700
-8.224000 0.000000
-8.157800 0.000000
-8.091600 0.000000
-8.025300 0.649200
-7.959100 1.931200
-7.892900 3.210300
-7.826600 2.300300
-7.760400 1.306800
-7.694200 1.047300
-7.628000 1.309500
-7.561700 1.629900
-7.495500 2.209800
-7.429300 2.333500
-7.363000 2.553000
-7.296800 2.979300
-7.230600 3.376500
-7.164300 2.385300
-7.098100 0.888300
-7.031900 0.000000
-6.965600 0.000000
-6.899400 0.000000
-6.833200 0.000000
-6.766900 0.000000
-6.700700 0.000000
-6.634500 0.000000
-6.568200 0.000000
-6.502000 0.000000
-6.435800 0.000000
-6.369600 0.000000
-6.303300 0.000000
-6.237100 0.000000
-6.170900 0.000000
-6.104600 0.000000
-6.038400 0.000000
-5.972200 0.000000
-5.905900 0.000000
-5.839700 0.000000
-5.773500 0.000000
-5.707200 0.000000
-5.641000 0.000000
-5.574800 0.000000
-5.508500 0.000000
-5.442300 0.000000
-5.376100 0.000000
-5.309800 0.000000
-5.243600 0.000000
-5.177400 0.000000
-5.111100 0.000000
-5.044900 0.000000
-4.978700 0.000000
-4.912500 0.000000
-4.846200 0.000000
-4.780000 0.000000
-4.713800 0.000000
-4.647500 0.000000
-4.581300 0.000000
-4.515100 0.000000
-4.448800 0.000000
-4.382600 0.000000
-4.316400 0.000000
-4.250100 0.000000
-4.183900 0.000000
-4.117700 0.000000
-4.051400 0.000000
-3.985200 0.000000
-3.919000 0.000000
-3.852700 0.000000
-3.786500 0.000000
-3.720300 0.000000
-3.654000 0.000000
-3.587800 0.000000
-3.521600 0.000000
-3.455400 0.000000
-3.389100 0.000000
-3.322900 0.000000
-3.256700 0.000000
-3.190400 0.000000
-3.124200 0.000000
-3.058000 0.000000
-2.991700 0.000000
-2.925500 0.000000
-2.859300 0.000000
-2.793000 0.000000
-2.726800 0.000000
-2.660600 0.000000
-2.594300 0.000000
-2.528100 0.000000
-2.461900 0.000000
-2.395600 0.000000
-2.329400 0.000000
-2.263200 0.000000
-2.197000 0.000000
-2.130700 0.000000
-2.064500 0.000000
-1.998300 0.000000
-1.932000 0.000000
-1.865800 0.000000
-1.799600 0.000000
-1.733300 0.000000
-1.667100 0.000000
-1.600900 0.000000
-1.534600 0.000000
-1.468400 0.000000
-1.402200 0.000000
-1.335900 0.370600
-1.269700 0.627100
-1.203500 1.472800
-1.137200 1.950900
-1.071000 2.043700
-1.004800 1.801500
-0.938500 1.867300
-0.872300 1.446300
-0.806100 1.798300
-0.739900 2.191800
-0.673600 2.750600
-0.607400 2.948600
-0.541200 3.006300
-0.474900 2.863900
-0.408700 2.274500
-0.342500 0.486300
-0.276200 0.000000
-0.210000 0.000000
-0.143800 0.000000
-0.077500 0.000000
-0.011300 0.000000
0.054900 0.000000
0.121200 0.000000
0.187400 0.000000
0.253600 0.000000
0.319900 0.000000
0.386100 0.000000
0.452300 0.000000
0.518600 0.000000
0.584800 0.000000
0.651000 0.000000
0.717200 0.000000
0.783500 0.000000
0.849700 0.000000
0.915900 0.000000
0.982200 0.000000
1.048400 0.000000
1.114600 0.000000
1.180900 0.000000
1.247100 0.000000
1.313300 0.000000
1.379600 0.000000
1.445800 0.000000
1.512000 0.000000
1.578300 0.000000
1.644500 0.000000
1.710700 0.000000
1.777000 0.000000
1.843200 0.000000
1.909400 0.000000
1.975600 0.000000
2.041900 0.000000
2.108100 0.000000
2.174300 0.000000
2.240600 0.000000
2.306800 0.000000
2.373000 0.000000
2.439300 0.000000
2.505500 0.000000
2.571700 0.000000
2.638000 0.000000
2.704200 0.000000
2.770400 0.000000
2.836700 0.000000
2.902900 0.000000
2.969100 0.000000
3.035400 0.000000
3.101600 0.000000
3.167800 0.000000
3.234100 0.000000
3.300300 0.000000
3.366500 0.000000
3.432700 0.000000
3.499000 0.000000
3.565200 0.000000
3.631400 0.000000
3.697700 0.000000
3.763900 0.000000
3.830100 0.000000
3.896400 0.000000
3.962600 0.000000
4.028800 0.000000
4.095100 0.000000
4.161300 0.000000
4.227500 0.000000
4.293800 0.000000
4.360000 0.000000
4.426200 0.000000
4.492500 0.000000
4.558700 0.034600
4.624900 0.086000
4.691200 0.140900
4.757400 0.158000
4.823600 0.148800
4.889800 0.165000
4.956100 0.181300
5.022300 0.194100
5.088500 0.202300
5.154800 0.204100
5.221000 0.211600
5.287200 0.218600
5.353500 0.223700
5.419700 0.227500
5.485900 0.231200
5.552200 0.235300
5.618400 0.238300
5.684600 0.242500
5.750900 0.248300
5.817100 0.254200
5.883300 0.307600
5.949600 0.291500
6.015800 0.304600
6.082000 0.317200
6.148200 0.329500
6.214500 0.342700
6.280700 0.355700
6.346900 0.368600
6.413200 0.381500
6.479400 0.394400
6.545600 0.416400
6.611900 0.460100
6.678100 0.513900
6.744300 0.559100
6.810600 0.558300
6.876800 0.570100
6.943000 0.603300
7.009300 0.622700
7.075500 0.656700
7.141700 0.695100
7.208000 0.767900
7.274200 0.720700
7.340400 0.682100
7.406700 0.605700
7.472900 0.567200
7.539100 0.325400
7.605300 0.213100
7.671600 0.149300
7.737800 0.139600
7.804000 0.147500
7.870300 0.164600
7.936500 0.190200
8.002700 0.236800
8.069000 0.316400
8.135200 0.523800
8.201400 0.660700
8.267700 0.793800
8.333900 1.046800
8.400100 1.319900
8.466400 1.433900
8.532600 1.484900
8.598800 1.312100
8.665100 1.001700
8.731300 1.010400
8.797500 0.643300
8.863800 0.333800
8.930000 0.267700
8.996200 0.190100
9.062400 0.070100
9.128700 0.017400
9.194900 0.004200
9.261100 0.016100
9.327400 0.035400
9.393600 0.061600
9.459800 0.096300
9.526100 0.199000
9.592300 0.359100
9.658500 0.415100
9.724800 0.502600
9.791000 0.611500
9.857200 0.801900
9.923500 1.040700
9.989700 1.550600
10.055900 1.120900
10.122200 0.777900
10.188400 0.707400
10.254600 0.663500
10.320800 0.612400
10.387100 0.558400
10.453300 0.514800
10.519500 0.473400
10.585800 0.415500
10.652000 0.363600
10.718200 0.323600
10.784500 0.302400
10.850700 0.273900
10.916900 0.287200
10.983200 0.338000
11.049400 0.392200
11.115600 0.552900
11.181900 0.690000
11.248100 0.813500
11.314300 0.891700
11.380600 0.986800
11.446800 0.847100
11.513000 0.737800
11.579300 0.679000
11.645500 0.612500
11.711700 0.576200
11.777900 0.549300
11.844200 0.522300
11.910400 0.472100
11.976600 0.434100
12.042900 0.421500
12.109100 0.418800
12.175300 0.417100
12.241600 0.419400
12.307800 0.425600
12.374000 0.416900
12.440300 0.393000
12.506500 0.364900
12.572700 0.348900
12.639000 0.324000
12.705200 0.292000
12.771400 0.266000
12.837700 0.229500
12.903900 0.184300
12.970100 0.155300
13.036400 0.136900
13.102600 0.122100
13.168800 0.109400
13.235000 0.112800
13.301300 0.147600
13.367500 0.234900
13.433700 0.288600
13.500000 0.335100
13.566200 0.388700
13.632400 0.440200
13.698700 0.522800
13.764900 0.585500
13.831100 0.590100
13.897400 0.586000
13.963600 0.858500
14.029800 0.639100
14.096100 0.594700
14.162300 0.568200
14.228500 0.554800
14.294800 0.530700
14.361000 0.500800
14.427200 0.473900
14.493400 0.455500
14.559700 0.456200
14.625900 0.450700
14.692100 0.400600
14.758400 0.409200
14.824600 0.431000
14.890800 0.443700
14.957100 0.482900
15.023300 0.512400
15.089500 0.526700
15.155800 0.564800
15.222000 0.618900
15.288200 0.652400
15.354500 0.660700
15.420700 0.707500
15.486900 0.798600
15.553200 0.813000
15.619400 0.792200
15.685600 0.773500
15.751900 0.739100
15.818100 0.702300
15.884300 0.673000
15.950500 0.748400
16.016800 0.660200
16.083000 0.619500
16.149200 0.600500
16.215500 0.576500
16.281700 0.553700
16.347900 0.549200
16.414200 0.578100
16.480400 0.554100
16.546600 0.533300
16.612900 0.505400
16.679100 0.495300
16.745300 0.490900
16.811600 0.468400
16.877800 0.434400
16.944000 0.419300
17.010300 0.429800
17.076500 0.448600
17.142700 0.466000
17.209000 0.487700
17.275200 0.507600
17.341400 0.501800
17.407600 0.482700
17.473900 0.474800
17.540100 0.498700
17.606300 0.523500
17.672600 0.505500
17.738800 0.492900
17.805000 0.502300
17.871300 0.529900
17.937500 0.545700
18.003700 0.586000
18.070000 0.601800
18.136200 0.548000
18.202400 0.522500
18.268700 0.507300
18.334900 0.480400
18.401100 0.461200
18.467400 0.445400
18.533600 0.461500
18.599800 0.440700
18.666000 0.426100
18.732300 0.438600
18.798500 0.411400
18.864700 0.417000
18.931000 0.438400
18.997200 0.457500
19.063400 0.476100
19.129700 0.493900
19.195900 0.507200
19.262100 0.521400
19.328400 0.552800
19.394600 0.597400
19.460800 0.553200
19.527100 0.503700
19.593300 0.490700
19.659500 0.485800
19.725800 0.481200
19.792000 0.482400
19.858200 0.483200
19.924500 0.470800
19.990700 0.453800
20.056900 0.443700
20.123100 0.435200
20.189400 0.422600
20.255600 0.412500
20.321800 0.409500
20.388100 0.416200
20.454300 0.458100
20.520500 0.507800
20.586800 0.530600
20.653000 0.531500
20.719200 0.543000
20.785500 0.559800
20.851700 0.579400
20.917900 0.607800
20.984200 0.606500
21.050400 0.604500
21.116600 0.600300
21.182900 0.597200
21.249100 0.586000
21.315300 0.567900
21.381600 0.565900
21.447800 0.559700
21.514000 0.564100
21.580200 0.593100
21.646500 0.624800
21.712700 0.659200
21.778900 0.705400
21.845200 0.752700
21.911400 0.793900
21.977600 0.823700
22.043900 0.850300
22.110100 0.864800
22.176300 0.837400
22.242600 0.811900
22.308800 0.770500
22.375000 0.729600
22.441300 0.689000
22.507500 0.656800
22.573700 0.657900
22.640000 0.614800
22.706200 0.558800
22.772400 0.537200
22.838600 0.529000
22.904900 0.517700
22.971100 0.508100
23.037300 0.485100
23.103600 0.454100
23.169800 0.445800
23.236000 0.449700
23.302300 0.495400
23.368500 0.567200
23.434700 0.640100
23.501000 0.715200
23.567200 0.771500
23.633400 0.803400
23.699700 0.838900
23.765900 0.886700
23.832100 0.849000
23.898400 0.828300
23.964600 0.799600
24.030800 0.766400
24.097100 0.677000
24.163300 0.521900
24.229500 0.425100
24.295700 0.388400
24.362000 0.376300
24.428200 0.429300
24.494400 0.489000
24.560700 0.547300
24.626900 0.597000
24.693100 0.631300
24.759400 0.656000
24.825600 0.688000
24.891800 0.756900
24.958100 0.815700
25.024300 0.866600
25.090500 0.947300
25.156800 0.931000
25.223000 0.940800
25.289200 0.984500
25.355500 0.942500
25.421700 0.905000
25.487900 0.768700
25.554200 0.718700
25.620400 0.618800
25.686600 0.566700
25.752800 0.628600
25.819100 0.755600
25.885300 0.789000
25.951500 0.809600
26.017800 0.841800
26.084000 0.881100
26.150200 0.961500
26.216500 0.991700
26.282700 1.051000
26.348900 1.086700
26.415200 1.126300
26.481400 1.100500
26.547600 1.021000
26.613900 0.970200
26.680100 0.948600
26.746300 1.004300
26.812600 0.887500
26.878800 0.781400
26.945000 0.688000
27.011200 0.623000
27.077500 0.565900
27.143700 0.581100
27.209900 0.653100
27.276200 0.674300
27.342400 0.730700
27.408600 0.802100
27.474900 0.855300
27.541100 0.889900
27.607300 0.828100
27.673600 0.805400
27.739800 0.807300
27.806000 0.851700
27.872300 0.819100
27.938500 0.757700
28.004700 0.736400
28.071000 0.747400
28.137200 0.793700
28.203400 0.815200
28.269700 0.851900
28.335900 0.842900
28.402100 0.995600
28.468300 1.041700
28.534600 1.069700
28.600800 1.101100
28.667000 1.134200
28.733300 1.083500
28.799500 1.058100
28.865700 1.059300
28.932000 1.040600
28.998200 1.045200
29.064400 0.986300
29.130700 0.961800
29.196900 0.948200
29.263100 0.904800
29.329400 0.863600
29.395600 0.786200
29.461800 0.731400
29.528100 0.708800
29.594300 0.685000
29.660500 0.671900
29.726800 0.727600
29.793000 0.771200
29.859200 0.893700
29.925400 1.062400
29.991700 0.907300
30.057900 0.774300
30.124100 0.693300
30.190400 0.650600
30.256600 0.731800
30.322800 0.692200
30.389100 0.731400
30.455300 0.740300
30.521500 0.699600
30.587800 0.677900
30.654000 0.654000
30.720200 0.629700
30.786500 0.615500
30.852700 0.658300
30.918900 0.720500
30.985200 0.737400
31.051400 0.748500
31.117600 0.745200
31.183800 0.731600
31.250100 0.725300
31.316300 0.725700
31.382500 0.734700
31.448800 0.734500
31.515000 0.768200
31.581200 0.755600
31.647500 0.771400
31.713700 0.802900
31.779900 0.767800
31.846200 0.725800
31.912400 0.700700
31.978600 0.686000
32.044900 0.700100
32.111100 0.672300
32.177300 0.637600
32.243600 0.613400
32.309800 0.598400
32.376000 0.594000
32.442300 0.584400
32.508500 0.584300
32.574700 0.596800
32.640900 0.610200
32.707200 0.621000
32.773400 0.635000
32.839600 0.665500
32.905900 0.663800
32.972100 0.686600
33.038300 0.723200
33.104600 0.748900
33.170800 0.812400
33.237000 0.745000
33.303300 0.731100
33.369500 0.710100
33.435700 0.707800
33.502000 0.698800
33.568200 0.689300
33.634400 0.692000
33.700700 0.653800
33.766900 0.631100
33.833100 0.591100
33.899400 0.581400
33.965600 0.586200
34.031800 0.579400
34.098000 0.581000
34.164300 0.585800
34.230500 0.533600
34.296700 0.537100
34.363000 0.547200
34.429200 0.562800
34.495400 0.580700
34.561700 0.613600
34.627900 0.640300
34.694100 0.646900
34.760400 0.659600
34.826600 0.685900
34.892800 0.694000
34.959100 0.728300
35.025300 0.725000
35.091500 0.716500
35.157800 0.710800
35.224000 0.708500
35.290200 0.698300
35.356400 0.685900
35.422700 0.676300
35.488900 0.659200
35.555100 0.645000
35.621400 0.635200
35.687600 0.749300
35.753800 0.751400
35.820100 0.771100
35.886300 0.785300
35.952500 0.799200
36.018800 0.796700
36.085000 0.818000
36.151200 0.861000
36.217500 0.855900
36.283700 0.837400
36.349900 0.832300
36.416200 0.982900
36.482400 0.903400
36.548600 0.850400
36.614900 0.831100
36.681100 0.834300
36.747300 0.839600
36.813500 0.836600
36.879800 0.828200
36.946000 0.796000
37.012200 0.771400
37.078500 0.750900
37.144700 0.753600
37.210900 0.778700
37.277200 0.801000
37.343400 0.808100
37.409600 0.814900
37.475900 0.826400
37.542100 0.812900
37.608300 0.767800
37.674600 0.772500
37.740800 0.798900
37.807000 0.801300
37.873300 0.802500
37.939500 0.807600
38.005700 0.812200
38.071900 0.794500
38.138200 0.731300
38.204400 0.696400
38.270600 0.704000
38.336900 0.754600
38.403100 0.792200
38.469300 0.785000
38.535600 0.782600
38.601800 0.781500
38.668000 0.779900
38.734300 0.777100
38.800500 0.781300
38.866700 0.790900
38.933000 0.800300
38.999200 0.818200
39.065400 0.859400
39.131700 0.900500
39.197900 0.901000
39.264100 0.852400
39.330400 0.813700
39.396600 0.803100
39.462800 0.832000
39.529000 0.848800
39.595300 0.857700
39.661500 0.870600
39.727700 0.943900
39.794000 1.013300
39.860200 1.003900
39.926400 0.992800
39.992700 1.008800
40.058900 1.017800
40.125100 0.994200
40.191400 0.949500
40.257600 0.940300
40.323800 0.914500
40.390100 0.856700
40.456300 0.863800
40.522500 0.835500
40.588800 0.789700
40.655000 0.761800
40.721200 0.737600
40.787500 0.737300
40.853700 0.770100
40.919900 0.842700
40.986100 0.904000
41.052400 0.980200
41.118600 1.064700
41.184800 1.082600
41.251100 1.074200
41.317300 1.023300
41.383500 0.985600
41.449800 0.837100
41.516000 0.789300
41.582200 0.768200
41.648500 0.771700
41.714700 0.761100
41.780900 0.761400
41.847200 0.769900
41.913400 0.761800
41.979600 0.726400
42.045900 0.713700
42.112100 0.740000
42.178300 0.768400
42.244500 0.797900
42.310800 0.831400
42.377000 0.859600
42.443200 0.891500
42.509500 0.926000
42.575700 0.953000
42.641900 0.979100
42.708200 0.978500
42.774400 0.951800
42.840600 0.916600
42.906900 0.866100
42.973100 0.832700
43.039300 0.816600
43.105600 0.818300
43.171800 0.812000
43.238000 0.812400
43.304300 0.778400
43.370500 0.751100
43.436700 0.754100
43.503000 0.723100
43.569200 0.730300
43.635400 0.750300
43.701600 0.771400
43.767900 0.813200
43.834100 0.839300
43.900300 0.843000
43.966600 0.839800
44.032800 0.858400
44.099000 0.854100
44.165300 0.847100
44.231500 0.843900
44.297700 0.830800
44.364000 0.813900
44.430200 0.789300
44.496400 0.771900
44.562700 0.781400
44.628900 0.795400
44.695100 0.816000
44.761400 0.829000
44.827600 0.837800
44.893800 0.872300
44.960100 0.901900
45.026300 0.938200
45.092500 0.962800
45.158700 0.979600
45.225000 0.973200
45.291200 0.977200
45.357400 0.995900
45.423700 0.971700
45.489900 0.945200
45.556100 0.913300
45.622400 0.900300
45.688600 0.897400
45.754800 0.903800
45.821100 0.908400
45.887300 0.909000
45.953500 0.910400
46.019800 0.912600
46.086000 0.906800
46.152200 0.894900
46.218500 0.893700
46.284700 0.892400
46.350900 0.927300
46.417100 1.009300
46.483400 1.046700
46.549600 1.096000
46.615800 1.141500
46.682100 1.122900
46.748300 1.105300
46.814500 1.071700
46.880800 1.026300
46.947000 0.961800
47.013200 0.936000
47.079500 0.934800
47.145700 0.925200
47.211900 0.922200
47.278200 0.949900
47.344400 0.987000
47.410600 0.999700
47.476900 1.014800
47.543100 1.008400
47.609300 0.984900
47.675600 0.957300
47.741800 0.997100
47.808000 1.028500
47.874200 1.071600
47.940500 1.105300
48.006700 1.021300
48.072900 0.992100
48.139200 0.989300
48.205400 0.983100
48.271600 1.009400
48.337900 1.053900
48.404100 1.058200
48.470300 1.061600
48.536600 1.046700
48.602800 1.032700
48.669000 1.031500
48.735300 1.029800
48.801500 1.012700
48.867700 1.008500
48.934000 1.029800
49.000200 1.032500
49.066400 1.018900
49.132700 1.020200
49.198900 1.038800
49.265100 1.033800
49.331300 1.001900
49.397600 0.976300
49.463800 0.957200
49.530000 0.949500
49.596300 0.990500
49.662500 1.005500
49.728700 0.972800
49.795000 0.888300
49.861200 0.864100
49.927400 0.861600
49.993700 0.866700
50.059900 0.883100
50.126100 0.905900
50.192400 0.930700
50.258600 0.953000
50.324800 0.981500
50.391100 0.926900
50.457300 0.906900
50.523500 0.911900
50.589700 0.921700
50.656000 0.908900
50.722200 0.884600
50.788400 0.875000
50.854700 0.884800
50.920900 0.892000
50.987100 0.902100
51.053400 0.949600
51.119600 0.944500
51.185800 0.938500
51.252100 0.941300
51.318300 0.943600
51.384500 0.945400
51.450800 0.946600
51.517000 0.932200
51.583200 0.912100
51.649500 0.906500
51.715700 0.905900
51.781900 0.913100
51.848200 0.918400
51.914400 0.906200
51.980600 0.880900
52.046800 0.886400
52.113100 0.906200
52.179300 0.922900
52.245500 0.932200
52.311800 0.971600
52.378000 0.986300
52.444200 0.983500
52.510500 0.997900
52.576700 0.996500
52.642900 0.982500
52.709200 0.969600
52.775400 0.954300
52.841600 0.928800
52.907900 0.876600
52.974100 0.860300
53.040300 0.846700
53.106600 0.851300
53.172800 0.861100
53.239000 0.860400
53.305300 0.845300
53.371500 0.854500
53.437700 0.972900
53.503900 0.921400
53.570200 0.888600
53.636400 0.876100
53.702600 0.867100
53.768900 0.858100
53.835100 0.867400
53.901300 0.886500
53.967600 0.903400
54.033800 0.916500
54.100000 0.938100
54.166300 0.989400
54.232500 0.987000
54.298700 1.018600
54.365000 1.101000
54.431200 1.029900
54.497400 1.020800
54.563700 1.015400
54.629900 1.005300
54.696100 0.987800
54.762300 0.975200
54.828600 0.963600
54.894800 0.957300
54.961000 0.977800
55.027300 0.993700
55.093500 1.017500
55.159700 1.029800
55.226000 1.016700
55.292200 1.024900
55.358400 1.045900
55.424700 1.085200
55.490900 1.131900
55.557100 1.143900
55.623400 1.137900
55.689600 1.116000
55.755800 1.111500
55.822100 1.092300
55.888300 1.065000
55.954500 1.076800
56.020800 1.039300
56.087000 1.025100
56.153200 1.027500
56.219400 1.084100
56.285700 0.990900
56.351900 0.979000
56.418100 0.973800
56.484400 0.974900
56.550600 0.999900
56.616800 1.055500
56.683100 1.022200
56.749300 1.040500
56.815500 1.074400
56.881800 1.111900
56.948000 1.141600
57.014200 1.182400
57.080500 1.226300
57.146700 1.168900
57.212900 1.166500
57.279200 1.179300
57.345400 1.125100
57.411600 1.049000
57.477900 0.970600
57.544100 0.899900
57.610300 0.887300
57.676500 0.901200
57.742800 0.897300
57.809000 0.903800
57.875200 0.947700
57.941500 0.974500
58.007700 0.947300
58.073900 0.964400
58.140200 1.009200
58.206400 1.057600
58.272600 1.059100
58.338900 0.989700
58.405100 0.931900
58.471300 0.916400
58.537600 0.861100
58.603800 0.857100
58.670000 0.889800
58.736300 0.939200
58.802500 0.995900
58.868700 1.046800
58.934900 1.045000
59.001200 0.977500
59.067400 0.952200
59.133600 0.909200
59.199900 0.877000
59.266100 0.838900
59.332300 0.838500
59.398600 0.857400
59.464800 0.875000
59.531000 0.927800
59.597300 0.860400
59.663500 0.834900
59.729700 0.850000
59.796000 0.827700
59.862200 0.832600
59.928400 0.839700
59.994700 0.848400
60.060900 0.860300
60.127100 0.891600
60.193400 0.928100
60.259600 0.952900
60.325800 0.969400
60.392000 0.986500
60.458300 1.022700
60.524500 1.053200
60.590700 1.044000
60.657000 1.013000
60.723200 1.010700
60.789400 1.026100
60.855700 1.049200
60.921900 1.030200
60.988100 1.022500
61.054400 1.032000
61.120600 1.056400
61.186800 1.098700
61.253100 1.163100
61.319300 1.250800
61.385500 1.257300
61.451800 1.242000
61.518000 1.135200
61.584200 1.064600
61.650500 1.024200
61.716700 0.979100
61.782900 1.000500
61.849100 0.931600
61.915400 0.982000
61.981600 1.001900
62.047800 1.042600
62.114100 1.056900
62.180300 1.049300
62.246500 1.027100
62.312800 1.035000
62.379000 1.030100
62.445200 1.045800
62.511500 1.071600
62.577700 1.091900
62.643900 1.092400
62.710200 1.082100
62.776400 1.171800
62.842600 1.116900
62.908900 1.086200
62.975100 1.054000
63.041300 1.065200
63.107500 1.062400
63.173800 1.068600
63.240000 1.111900
63.306200 1.131700
63.372500 1.128000
63.438700 1.102600
63.504900 1.073200
63.571200 1.022500
63.637400 1.000600
63.703600 0.945800
63.769900 0.941200
63.836100 0.956500
63.902300 0.988800
63.968600 1.015400
64.034800 1.034000
64.101000 1.077500
64.167300 1.077600
64.233500 1.044300
64.299700 0.994300
64.366000 0.914000
64.432200 0.892000
64.498400 0.926200
64.564600 0.975800
64.630900 1.012600
64.697100 1.060200
64.763300 1.065400
64.829600 1.097100
64.895800 1.125900
64.962000 1.167800
65.028300 1.212100
65.094500 1.228000
65.160700 1.280600
65.227000 1.275200
65.293200 1.230100
65.359400 1.187500
65.425700 1.130800
65.491900 1.085700
65.558100 1.067200
65.624400 1.096900
65.690600 1.100000
65.756800 1.084100
65.823100 1.086700
65.889300 1.075500
65.955500 1.063300
66.021700 1.047500
66.088000 1.048700
66.154200 1.030300
66.220400 1.078100
66.286700 1.151300
66.352900 1.141900
66.419100 1.158000
66.485400 1.152400
66.551600 1.159600
66.617800 1.163200
66.684100 1.071400
66.750300 0.997700
66.816500 0.965700
66.882800 0.943400
66.949000 0.930700
67.015200 0.923900
67.081500 0.919300
67.147700 0.934800
67.213900 0.973400
67.280100 0.998400
67.346400 1.038100
67.412600 1.085000
67.478800 1.119100
67.545100 1.144200
67.611300 1.157600
67.677500 1.211600
67.743800 1.198600
67.810000 1.243300
67.876200 1.285300
67.942500 1.253100
68.008700 1.180300
68.074900 1.143300
68.141200 1.095200
68.207400 1.065100
68.273600 1.044500
68.339900 1.042700
68.406100 1.053000
68.472300 1.058200
68.538600 1.082500
68.604800 1.116900
68.671000 1.200300
68.737200 1.217200
68.803500 1.146000
68.869700 1.105400
68.935900 1.112500
69.002200 1.129000
69.068400 1.128800
69.134600 1.137900
69.200900 1.137000
69.267100 1.100200
69.333300 1.056900
69.399600 1.081200
69.465800 1.093500
69.532000 1.097900
69.598300 1.135400
69.664500 1.114300
69.730700 1.065100
69.797000 1.038700
69.863200 1.025100
69.929400 1.047000
69.995700 1.049500
70.061900 1.051000
70.128100 1.023700
70.194300 0.999000
70.260600 1.022600
70.326800 1.060800
70.393000 1.104500
70.459300 1.117900
70.525500 1.094700
70.591700 1.093600
70.658000 1.105900
70.724200 1.108700
70.790400 1.123300
70.856700 1.126200
70.922900 1.136800
70.989100 1.148100
71.055400 1.155100
71.121600 1.151700
71.187800 1.138800
71.254100 1.103900
71.320300 1.077200
71.386500 1.066100
71.452700 1.052100
71.519000 1.034500
71.585200 1.021400
71.651400 1.024500
71.717700 1.032800
71.783900 1.041700
71.850100 1.029900
71.916400 1.016900
71.982600 1.002900
72.048800 1.022600
72.115100 1.039200
72.181300 1.042500
72.247500 1.020000
72.313800 0.991100
72.380000 0.991500
72.446200 0.998900
72.512500 1.024500
72.578700 1.056300
72.644900 1.101300
72.711200 1.144500
72.777400 1.152900
72.843600 1.154200
72.909800 1.171500
72.976100 1.180100
73.042300 1.185600
73.108500 1.178700
73.174800 1.167800
73.241000 1.161300
73.307200 1.163700
73.373500 1.148100
73.439700 1.141000
73.505900 1.144500
73.572200 1.149000
73.638400 1.152400
73.704600 1.171000
73.770900 1.161800
73.837100 1.160800
73.903300 1.151400
73.969600 1.139200
74.035800 1.116900
74.102000 1.104400
74.168300 1.114800
74.234500 1.125400
74.300700 1.115800
74.366900 1.120500
74.433200 1.159300
74.499400 1.164100
74.565600 1.140700
74.631900 1.110900
74.698100 1.096800
74.764300 1.095700
74.830600 1.118000
74.896800 1.150600
74.963000 1.163800
75.029300 1.176400
75.095500 1.189700
75.161700 1.203400
75.228000 1.208100
75.294200 1.201900
75.360400 1.137800
75.426700 1.070400
75.492900 1.056100
75.559100 1.067100
75.625300 1.091800
75.691600 1.114900
75.757800 1.150300
75.824000 1.150400
75.890300 1.157200
75.956500 1.157100
76.022700 1.158800
76.089000 1.147100
76.155200 1.050900
76.221400 1.052200
76.287700 1.066400
76.353900 1.087800
76.420100 1.096900
76.486400 1.119500
76.552600 1.132900
76.618800 1.191800
76.685100 1.334500
76.751300 1.339500
76.817500 1.316700
76.883800 1.284200
76.950000 1.266000
77.016200 1.260400
77.082400 1.265500
77.148700 1.274800
77.214900 1.317600
77.281100 1.316000
77.347400 1.296800
77.413600 1.257400
77.479800 1.228900
77.546100 1.192700
77.612300 1.164600
77.678500 1.136900
77.744800 1.164000
77.811000 1.155800
77.877200 1.161300
77.943500 1.178600
78.009700 1.195100
78.075900 1.202200
78.142200 1.200700
78.208400 1.170300
78.274600 1.131200
78.340900 1.118400
78.407100 1.089400
78.473300 1.073900
78.539500 1.093500
78.605800 1.122400
78.672000 1.147800
78.738200 1.159500
78.804500 1.191700
78.870700 1.224400
78.936900 1.239200
79.003200 1.223700
79.069400 1.222400
79.135600 1.223800
79.201900 1.229700
79.268100 1.220400
79.334300 1.182700
79.400600 1.156800
79.466800 1.133500
79.533000 1.113800
79.599300 1.116600
79.665500 1.098800
79.731700 1.095600
79.797900 1.092900
79.864200 1.119200
79.930400 1.147000
79.996600 1.179700
80.062900 1.160900
80.129100 1.121500
80.195300 1.104000
80.261600 1.093300
80.327800 1.114200
80.394000 1.120500
80.460300 1.131800
80.526500 1.149200
80.592700 1.173400
80.659000 1.187700
80.725200 1.191300
80.791400 1.179900
80.857700 1.157000
80.923900 1.125600
80.990100 1.105900
81.056400 1.101200
81.122600 1.114000
81.188800 1.157900
81.255000 1.184300
81.321300 1.148400
81.387500 1.290100
81.453700 1.279900
81.520000 1.251100
81.586200 1.224600
81.652400 1.194500
81.718700 1.138600
81.784900 1.074500
81.851100 1.009600
81.917400 1.014300
81.983600 0.999800
82.049800 1.028900
82.116100 1.117100
82.182300 1.125200
82.248500 1.141500
82.314800 1.150000
82.381000 1.142800
82.447200 1.135100
82.513500 1.116900
82.579700 1.090800
82.645900 1.114500
82.712100 1.179500
82.778400 1.230000
82.844600 1.259700
82.910800 1.169700
82.977100 1.142600
83.043300 1.102700
83.109500 1.131800
83.175800 1.104700
83.242000 1.089900
83.308200 1.051500
83.374500 1.039100
83.440700 1.065000
83.506900 1.109800
83.573200 1.209000
83.639400 1.295400
83.705600 1.365300
83.771900 1.331500
83.838100 1.310200
83.904300 1.263300
83.970500 1.235400
84.036800 1.276500
84.103000 1.241000
84.169200 1.191700
84.235500 1.176100
84.301700 1.162600
84.367900 1.176400
84.434200 1.180500
84.500400 1.191500
84.566600 1.212500
84.632900 1.255100
84.699100 1.288900
84.765300 1.347900
84.831600 1.364300
84.897800 1.262000
84.964000 1.241900
85.030300 1.270100
85.096500 1.263200
85.162700 1.311300
85.229000 1.311200
85.295200 1.316000
85.361400 1.367100
85.427600 1.437900
85.493900 1.382900
85.560100 1.300900
85.626300 1.228100
85.692600 1.170700
85.758800 1.125800
85.825000 1.109400
85.891300 1.141900
85.957500 1.239500
86.023700 1.317800
86.090000 1.233600
86.156200 1.228200
86.222400 1.230100
86.288700 1.204000
86.354900 1.174500
86.421100 1.122300
86.487400 1.098400
86.553600 1.091300
86.619800 1.101100
86.686100 1.140100
86.752300 1.242300
86.818500 1.240800
86.884700 1.319400
86.951000 1.351200
87.017200 1.302700
87.083400 1.287400
87.149700 1.216200
87.215900 1.135300
87.282100 1.003600
87.348400 0.940900
87.414600 0.909800
87.480800 0.908100
87.547100 0.945900
87.613300 0.926400
87.679500 0.888000
87.745800 0.861500
87.812000 0.823100
87.878200 0.767000
87.944500 0.693800
88.010700 0.645800
88.076900 0.611500
88.143100 0.579200
88.209400 0.548900
88.275600 0.535200
88.341800 0.475000
88.408100 0.441700
88.474300 0.416800
88.540500 0.402600
88.606800 0.392600
88.673000 0.387800
88.739200 0.375700
88.805500 0.336900
88.871700 0.313700
88.937900 0.293600
89.004200 0.276500
89.070400 0.262800
89.136600 0.253600
89.202900 0.248400
89.269100 0.237900
89.335300 0.220200
89.401600 0.199400
89.467800 0.179100
89.534000 0.164400
89.600200 0.149500
89.666500 0.133400
89.732700 0.114300
89.798900 0.099100
89.865200 0.086700
89.931400 0.077900
89.997600 0.072000
90.063900 0.067600
90.130100 0.068000
90.196300 0.070500
90.262600 0.055100
90.328800 0.039900
90.395000 0.031000
90.461300 0.025700
90.527500 0.020400
90.593700 0.015100
90.660000 0.010700
90.726200 0.007900
90.792400 0.006600
90.858700 0.005700
90.924900 0.004900
90.991100 0.004100
91.057300 0.003400
91.123600 0.002800
91.189800 0.002200
91.256000 0.001700
91.322300 0.001200
91.388500 0.000900
91.454700 0.000600
91.521000 0.000300
91.587200 0.000100
91.653400 0.000000
91.719700 0.000000
91.785900 0.000000
91.852100 0.000000
91.918400 0.000000
91.984600 0.000000
92.050800 0.000000
92.117100 0.000000
92.183300 0.000000
92.249500 0.000000
92.315700 0.000000
92.382000 0.000000
92.448200 0.000000
92.514400 0.000000
92.580700 0.000000
92.646900 0.000000
92.713100 0.000000
92.779400 0.000000
92.845600 0.000000
92.911800 0.000000
92.978100 0.000000
93.044300 0.000000
93.110500 0.000000
93.176800 0.000000
93.243000 0.000000
93.309200 0.000000
93.375500 0.000000
93.441700 0.000000
93.507900 0.000000
93.574200 0.000000
93.640400 0.000000
93.706600 0.000000
93.772800 0.000000
93.839100 0.000000
93.905300 0.000000
93.971500 0.000000
94.037800 0.000000
94.104000 0.000000
94.170200 0.000000
94.236500 0.000000
94.302700 0.000000
94.368900 0.000000
94.435200 0.000000
94.501400 0.000000
94.567600 0.000000
94.633900 0.000000
94.700100 0.000000
94.766300 0.000000
94.832600 0.000000
94.898800 0.000000
94.965000 0.000000
95.031200 0.000000
95.097500 0.000000
95.163700 0.000000
95.229900 0.000000
95.296200 0.000000
95.362400 0.000000
95.428600 0.000000
95.494900 0.000000
95.561100 0.000000
95.627300 0.000000
95.693600 0.000000
95.759800 0.000000
95.826000 0.000000
95.892300 0.000000
95.958500 0.000000
96.024700 0.000000
96.091000 0.000000
96.157200 0.000000
96.223400 0.000000
96.289700 0.000000
96.355900 0.000000
96.422100 0.000000
96.488300 0.000000
96.554600 0.000000
96.620800 0.000000
96.687000 0.000000
96.753300 0.000000
96.819500 0.000000
96.885700 0.000000
96.952000 0.000000
97.018200 0.000000
97.084400 0.000000
97.150700 0.000000
97.216900 0.000000
97.283100 0.000000
97.349400 0.000000
97.415600 0.000000
97.481800 0.000000
97.548100 0.000000
97.614300 0.000000
97.680500 0.000000
97.746800 0.000000
e
