set title 'mp-1096804 - Density of States'
set xlabel 'Energy (eV)'
set ylabel 'DOS (states/eV)'
set grid
set xrange [-10:10]
set yrange [0:28.661]
set xzeroaxis lt -1
set terminal png size 800,600
set output 'mp-1096804_dos_gnuplot.png'
plot '-' using 1:2 with lines title 'DOS'
-9.472200 0.000000
-9.440900 0.000000
-9.409600 0.000000
-9.378300 0.000000
-9.347000 0.000000
-9.315700 0.000000
-9.284400 0.000000
-9.253100 0.000000
-9.221800 0.000000
-9.190500 0.000000
-9.159200 0.000000
-9.127900 0.000000
-9.096600 0.000000
-9.065300 0.000000
-9.034000 0.000000
-9.002700 0.000000
-8.971400 0.000000
-8.940100 0.000000
-8.908700 0.000000
-8.877400 0.000000
-8.846100 0.000000
-8.814800 0.000000
-8.783500 0.000000
-8.752200 0.000000
-8.720900 0.000000
-8.689600 0.000000
-8.658300 0.000000
-8.627000 0.000000
-8.595700 0.000000
-8.564400 0.000000
-8.533100 0.000000
-8.501800 0.000000
-8.470500 0.000000
-8.439200 0.000000
-8.407900 0.000000
-8.376600 0.000000
-8.345300 0.000000
-8.314000 0.000000
-8.282700 0.000000
-8.251400 0.000000
-8.220100 0.000000
-8.188800 0.000000
-8.157500 0.000000
-8.126200 0.000000
-8.094800 0.000000
-8.063500 0.000000
-8.032200 0.000000
-8.000900 0.000000
-7.969600 0.000000
-7.938300 0.000000
-7.907000 0.000000
-7.875700 0.000000
-7.844400 0.000000
-7.813100 0.000000
-7.781800 0.000000
-7.750500 0.000000
-7.719200 0.000000
-7.687900 0.000000
-7.656600 0.000000
-7.625300 0.000000
-7.594000 0.000000
-7.562700 0.000000
-7.531400 0.000000
-7.500100 0.000000
-7.468800 0.000000
-7.437500 0.000000
-7.406200 0.000000
-7.374900 0.000000
-7.343600 0.000000
-7.312300 0.000000
-7.281000 0.000000
-7.249600 0.000000
-7.218300 0.000000
-7.187000 0.000000
-7.155700 0.000000
-7.124400 0.000000
-7.093100 0.000000
-7.061800 0.000000
-7.030500 0.000000
-6.999200 0.000000
-6.967900 0.000000
-6.936600 0.000000
-6.905300 0.000000
-6.874000 0.000000
-6.842700 0.000000
-6.811400 0.000000
-6.780100 0.000000
-6.748800 0.000000
-6.717500 0.000000
-6.686200 0.000000
-6.654900 0.000000
-6.623600 0.000000
-6.592300 0.003900
-6.561000 0.014500
-6.529700 0.031600
-6.498400 0.055400
-6.467100 0.085800
-6.435800 0.122800
-6.404400 0.158700
-6.373100 0.179900
-6.341800 0.197700
-6.310500 0.212000
-6.279200 0.222800
-6.247900 0.230100
-6.216600 0.235300
-6.185300 0.251500
-6.154000 0.268200
-6.122700 0.285200
-6.091400 0.302700
-6.060100 0.320500
-6.028800 0.338800
-5.997500 0.357200
-5.966200 0.375800
-5.934900 0.394400
-5.903600 0.413200
-5.872300 0.451600
-5.841000 0.495000
-5.809700 0.536600
-5.778400 0.576600
-5.747100 0.615000
-5.715800 0.651800
-5.684500 0.602900
-5.653200 0.620700
-5.621900 0.638500
-5.590600 0.656500
-5.559200 0.674700
-5.527900 0.693000
-5.496600 0.711400
-5.465300 0.730900
-5.434000 0.761100
-5.402700 0.796800
-5.371400 0.843200
-5.340100 0.913400
-5.308800 1.031600
-5.277500 1.166500
-5.246200 1.318400
-5.214900 1.486500
-5.183600 1.552800
-5.152300 1.694600
-5.121000 1.847800
-5.089700 2.049400
-5.058400 2.400500
-5.027100 3.210900
-4.995800 3.734300
-4.964500 4.060200
-4.933200 4.110800
-4.901900 4.240500
-4.870600 4.451700
-4.839300 4.752500
-4.808000 5.124300
-4.776700 5.821800
-4.745400 5.491200
-4.714000 6.764900
-4.682700 12.320200
-4.651400 16.432700
-4.620100 9.019500
-4.588800 4.618400
-4.557500 2.268500
-4.526200 0.000000
-4.494900 0.000000
-4.463600 0.000000
-4.432300 0.000000
-4.401000 0.000000
-4.369700 0.000000
-4.338400 0.000000
-4.307100 0.000000
-4.275800 0.000000
-4.244500 0.000000
-4.213200 0.000000
-4.181900 0.000000
-4.150600 0.000000
-4.119300 0.000000
-4.088000 0.000000
-4.056700 0.000000
-4.025400 0.000000
-3.994100 0.000000
-3.962800 0.000000
-3.931500 0.000000
-3.900200 0.000000
-3.868800 0.000000
-3.837500 0.000000
-3.806200 0.000000
-3.774900 0.000000
-3.743600 0.000000
-3.712300 0.000000
-3.681000 0.000000
-3.649700 0.000000
-3.618400 0.000000
-3.587100 0.000000
-3.555800 0.000000
-3.524500 0.000000
-3.493200 0.000000
-3.461900 0.000000
-3.430600 0.000000
-3.399300 0.000000
-3.368000 0.000000
-3.336700 0.000000
-3.305400 0.000000
-3.274100 0.000000
-3.242800 0.000000
-3.211500 0.000000
-3.180200 0.000000
-3.148900 0.000000
-3.117600 0.000000
-3.086300 0.000000
-3.055000 0.000000
-3.023600 0.000000
-2.992300 0.175600
-2.961000 3.957700
-2.929700 7.204300
-2.898400 8.306700
-2.867100 7.528800
-2.835800 7.847300
-2.804500 8.265700
-2.773200 9.647800
-2.741900 8.662300
-2.710600 7.639000
-2.679300 7.403600
-2.648000 7.029600
-2.616700 6.498200
-2.585400 6.167900
-2.554100 6.099300
-2.522800 6.115000
-2.491500 5.648900
-2.460200 5.147100
-2.428900 5.019400
-2.397600 9.602600
-2.366300 14.078000
-2.335000 15.931500
-2.303700 12.797400
-2.272400 9.587900
-2.241100 8.372700
-2.209800 10.249500
-2.178400 13.196500
-2.147100 10.705900
-2.115800 11.275000
-2.084500 11.466500
-2.053200 11.218100
-2.021900 8.593400
-1.990600 7.564300
-1.959300 8.167100
-1.928000 9.150900
-1.896700 9.279800
-1.865400 9.205200
-1.834100 7.554800
-1.802800 9.151200
-1.771500 10.878200
-1.740200 8.340000
-1.708900 7.792000
-1.677600 6.687200
-1.646300 6.600600
-1.615000 8.064700
-1.583700 6.809800
-1.552400 7.307600
-1.521100 8.855400
-1.489800 8.001200
-1.458500 7.585100
-1.427200 11.048400
-1.395900 13.923200
-1.364600 13.139900
-1.333200 11.716200
-1.301900 12.324200
-1.270600 16.895200
-1.239300 26.055600
-1.208000 3.221900
-1.176700 1.402600
-1.145400 1.237000
-1.114100 0.986400
-1.082800 0.900000
-1.051500 0.917100
-1.020200 0.935200
-0.988900 0.953700
-0.957600 0.972400
-0.926300 0.991300
-0.895000 1.010300
-0.863700 1.029100
-0.832400 1.043600
-0.801100 1.057500
-0.769800 1.070800
-0.738500 1.084500
-0.707200 1.100800
-0.675900 1.114300
-0.644600 1.060200
-0.613300 1.031500
-0.582000 1.024900
-0.550700 1.021700
-0.519400 1.017600
-0.488000 1.012800
-0.456700 1.016300
-0.425400 1.048700
-0.394100 1.071300
-0.362800 1.064400
-0.331500 1.081500
-0.300200 1.073600
-0.268900 1.065400
-0.237600 1.057000
-0.206300 1.052600
-0.175000 1.052400
-0.143700 1.052400
-0.112400 1.052800
-0.081100 1.053400
-0.049800 1.054300
-0.018500 1.055300
0.012800 1.056500
0.044100 1.057700
0.075400 1.059100
0.106700 1.060600
0.138000 1.062200
0.169300 1.063900
0.200600 1.065700
0.231900 1.067600
0.263200 1.069700
0.294500 1.210100
0.325800 1.262700
0.357200 1.255200
0.388500 1.238600
0.419800 1.221400
0.451100 1.203600
0.482400 1.197900
0.513700 1.207000
0.545000 1.695900
0.576300 1.647200
0.607600 1.222300
0.638900 1.178100
0.670200 1.163000
0.701500 1.147600
0.732800 1.135200
0.764100 1.138300
0.795400 1.149700
0.826700 1.127900
0.858000 1.143200
0.889300 1.152600
0.920600 1.156200
0.951900 1.153800
0.983200 1.147500
1.014500 1.143400
1.045800 1.140800
1.077100 1.134400
1.108400 1.123600
1.139700 1.108400
1.171000 1.088600
1.202400 1.064100
1.233700 1.034900
1.265000 1.076300
1.296300 1.058200
1.327600 1.043700
1.358900 1.029000
1.390200 1.014000
1.421500 0.997200
1.452800 0.977800
1.484100 0.955900
1.515400 0.931400
1.546700 0.904400
1.578000 0.875100
1.609300 0.843500
1.640600 0.809700
1.671900 1.005700
1.703200 1.113700
1.734500 0.976600
1.765800 0.900200
1.797100 0.813800
1.828400 0.717400
1.859700 0.608400
1.891000 0.477700
1.922300 0.344400
1.953600 0.270900
1.984900 0.214800
2.016300 0.171200
2.047600 0.132600
2.078900 0.098900
2.110200 0.070100
2.141500 0.046300
2.172800 0.027400
2.204100 0.013400
2.235400 0.004400
2.266700 0.000300
2.298000 0.000000
2.329300 0.000000
2.360600 0.000000
2.391900 0.000000
2.423200 0.000000
2.454500 0.000000
2.485800 0.000000
2.517100 0.000000
2.548400 0.000000
2.579700 0.000000
2.611000 0.000000
2.642300 0.000000
2.673600 0.000000
2.704900 0.000000
2.736200 0.000000
2.767500 0.000000
2.798800 0.000000
2.830100 0.000000
2.861500 0.000000
2.892800 0.000000
2.924100 0.000000
2.955400 0.000000
2.986700 0.000000
3.018000 0.000000
3.049300 0.000000
3.080600 0.000000
3.111900 0.000000
3.143200 0.000000
3.174500 0.000000
3.205800 0.001100
3.237100 0.004400
3.268400 0.009900
3.299700 0.017600
3.331000 0.023300
3.362300 0.027100
3.393600 0.031100
3.424900 0.035200
3.456200 0.039400
3.487500 0.043600
3.518800 0.048000
3.550100 0.052500
3.581400 0.057000
3.612700 0.061700
3.644000 0.066400
3.675300 0.071200
3.706700 0.075700
3.738000 0.080000
3.769300 0.084100
3.800600 0.088000
3.831900 0.091600
3.863200 0.095100
3.894500 0.098600
3.925800 0.102200
3.957100 0.106300
3.988400 0.111100
4.019700 0.116600
4.051000 0.122900
4.082300 0.130000
4.113600 0.137800
4.144900 0.235800
4.176200 0.496900
4.207500 0.874800
4.238800 0.671800
4.270100 0.647200
4.301400 0.646800
4.332700 0.672100
4.364000 0.723600
4.395300 0.790200
4.426600 0.865700
4.457900 0.950200
4.489200 1.043600
4.520500 1.146100
4.551900 1.260200
4.583200 1.387200
4.614500 1.547500
4.645800 1.727700
4.677100 1.899800
4.708400 1.874500
4.739700 1.993000
4.771000 2.005200
4.802300 1.879900
4.833600 1.713900
4.864900 1.495400
4.896200 1.406000
4.927500 1.331800
4.958800 1.282900
4.990100 1.248000
5.021400 1.216600
5.052700 1.190000
5.084000 1.165600
5.115300 1.143300
5.146600 1.123100
5.177900 1.104900
5.209200 1.088800
5.240500 2.362800
5.271800 1.156400
5.303100 1.145600
5.334400 1.134400
5.365700 1.123100
5.397100 1.111900
5.428400 1.100700
5.459700 1.089400
5.491000 1.078200
5.522300 1.066900
5.553600 1.056100
5.584900 1.054200
5.616200 1.072600
5.647500 1.113400
5.678800 1.089400
5.710100 1.140200
5.741400 1.206500
5.772700 1.281700
5.804000 1.355200
5.835300 1.413400
5.866600 1.461400
5.897900 1.499200
5.929200 1.530500
5.960500 1.557900
5.991800 1.579500
6.023100 1.595500
6.054400 1.605800
6.085700 1.600400
6.117000 1.550500
6.148300 1.471900
6.179600 1.390600
6.210900 1.310200
6.242300 1.232600
6.273600 1.157900
6.304900 1.086500
6.336200 1.022100
6.367500 0.970800
6.398800 0.932800
6.430100 0.917000
6.461400 0.914300
6.492700 0.916400
6.524000 0.922800
6.555300 0.930900
6.586600 0.941200
6.617900 0.953000
6.649200 0.966900
6.680500 0.983100
6.711800 0.988300
6.743100 0.985300
6.774400 0.981100
6.805700 0.975700
6.837000 1.007200
6.868300 1.031000
6.899600 1.056700
6.930900 1.080700
6.962200 1.103100
6.993500 1.123900
7.024800 1.085500
7.056100 1.093200
7.087500 1.099400
7.118800 1.104900
7.150100 1.117200
7.181400 1.129500
7.212700 0.748400
7.244000 0.686300
7.275300 0.687100
7.306600 0.688300
7.337900 0.689900
7.369200 0.692000
7.400500 0.694500
7.431800 0.697500
7.463100 0.706600
7.494400 0.710900
7.525700 0.715300
7.557000 0.719800
7.588300 0.726300
7.619600 0.755700
7.650900 0.796500
7.682200 0.848600
7.713500 0.912100
7.744800 0.945800
7.776100 0.972000
7.807400 0.998400
7.838700 1.025000
7.870000 1.054200
7.901300 1.088400
7.932700 1.122400
7.964000 1.156200
7.995300 1.189900
8.026600 1.224000
8.057900 1.263400
8.089200 1.317600
8.120500 1.374800
8.151800 1.433100
8.183100 1.494500
8.214400 1.559700
8.245700 1.625400
8.277000 1.661500
8.308300 1.661200
8.339600 1.697500
8.370900 2.042600
8.402200 1.544300
8.433500 1.508100
8.464800 1.481900
8.496100 1.469500
8.527400 1.466800
8.558700 1.464900
8.590000 1.463600
8.621300 1.463200
8.652600 1.447300
8.683900 1.427300
8.715200 1.402400
8.746500 1.371700
8.777900 1.326100
8.809200 1.272700
8.840500 1.443200
8.871800 1.341800
8.903100 1.242600
8.934400 0.909200
8.965700 0.906600
8.997000 0.904600
9.028300 0.902800
9.059600 0.901300
9.090900 0.899900
9.122200 0.898800
9.153500 0.897900
9.184800 0.897200
9.216100 0.898300
9.247400 0.910200
9.278700 0.922600
9.310000 0.935800
9.341300 0.947600
9.372600 0.955800
9.403900 0.972300
9.435200 0.993600
9.466500 1.019100
9.497800 1.048700
9.529100 1.082500
9.560400 1.128000
9.591700 1.157400
9.623100 1.165100
9.654400 1.176700
9.685700 1.192600
9.717000 1.212600
9.748300 1.271700
9.779600 1.215200
9.810900 1.180900
9.842200 1.149500
9.873500 1.120900
9.904800 1.095300
9.936100 1.079300
9.967400 1.071400
9.998700 1.061000
10.030000 1.050400
10.061300 1.041800
10.092600 1.034600
10.123900 1.028000
10.155200 1.021800
10.186500 1.016100
10.217800 1.010800
10.249100 1.006000
10.280400 1.001400
10.311700 0.996900
10.343000 0.992600
10.374300 0.990000
10.405600 0.971200
10.436900 0.973600
10.468300 0.976300
10.499600 0.979200
10.530900 0.982600
10.562200 0.986500
10.593500 0.992100
10.624800 1.012600
10.656100 1.045600
10.687400 1.077300
10.718700 1.108600
10.750000 1.139400
10.781300 1.169100
10.812600 1.198000
10.843900 1.226000
10.875200 1.255300
10.906500 1.290300
10.937800 1.323400
10.969100 1.350100
11.000400 1.367700
11.031700 1.383900
11.063000 1.398900
11.094300 1.412700
11.125600 1.425000
11.156900 1.435700
11.188200 1.444500
11.219500 1.451500
11.250800 1.456100
11.282200 1.457700
11.313500 1.432900
11.344800 1.428000
11.376100 1.418800
11.407400 1.405300
11.438700 1.360700
11.470000 1.330600
11.501300 1.165800
11.532600 1.170800
11.563900 1.159100
11.595200 1.147500
11.626500 1.136700
11.657800 1.127100
11.689100 0.979000
11.720400 0.961700
11.751700 0.944300
11.783000 0.929700
11.814300 0.915800
11.845600 0.902500
11.876900 0.889900
11.908200 0.878100
11.939500 0.867300
11.970800 0.857300
12.002100 0.848200
12.033400 0.840000
12.064700 0.836400
12.096000 0.836100
12.127400 0.836100
12.158700 0.837700
12.190000 0.843700
12.221300 0.851900
12.252600 0.861600
12.283900 0.872700
12.315200 0.885200
12.346500 0.899300
12.377800 0.915000
12.409100 0.931700
12.440400 0.949000
12.471700 0.965000
12.503000 0.980800
12.534300 0.996200
12.565600 1.012100
12.596900 1.037000
12.628200 1.072000
12.659500 1.115900
12.690800 1.187500
12.722100 1.294900
12.753400 1.599400
12.784700 1.744800
12.816000 1.896600
12.847300 2.048300
12.878600 2.197800
12.909900 2.342700
12.941200 2.338000
12.972600 2.281700
13.003900 2.232100
13.035200 2.126200
13.066500 2.026100
13.097800 1.918000
13.129100 1.825400
13.160400 1.713300
13.191700 1.634100
13.223000 1.611500
13.254300 1.101100
13.285600 1.109400
13.316900 1.116500
13.348200 1.113600
13.379500 1.110000
13.410800 1.105900
13.442100 1.101100
13.473400 1.095700
13.504700 1.090900
13.536000 1.086500
13.567300 1.081300
13.598600 1.079900
13.629900 1.081000
13.661200 1.081600
13.692500 1.081400
13.723800 1.085400
13.755100 1.113100
13.786400 1.120500
13.817800 1.127500
13.849100 1.134200
13.880400 1.139700
13.911700 1.143200
13.943000 1.145400
13.974300 1.146200
14.005600 1.147000
14.036900 1.149000
14.068200 1.153400
14.099500 1.158700
14.130800 1.165000
14.162100 1.175400
14.193400 1.187000
14.224700 1.199900
14.256000 1.216900
14.287300 1.239500
14.318600 1.268600
14.349900 1.301200
14.381200 1.337500
14.412500 1.283700
14.443800 1.243000
14.475100 1.259200
14.506400 1.275100
14.537700 1.290800
14.569000 1.310700
14.600300 1.330000
14.631600 1.347400
14.663000 1.367500
14.694300 1.386300
14.725600 1.403800
14.756900 1.416000
14.788200 1.427800
14.819500 1.439400
14.850800 1.450700
14.882100 1.461800
14.913400 1.479200
14.944700 1.487400
14.976000 1.496600
15.007300 1.506500
15.038600 1.517200
15.069900 1.528600
15.101200 1.540800
15.132500 1.568200
15.163800 1.588900
15.195100 1.612400
15.226400 1.628500
15.257700 1.635300
15.289000 1.633300
15.320300 1.629300
15.351600 1.625200
15.382900 1.621300
15.414200 1.850300
15.445500 1.845800
15.476800 1.776000
15.508200 1.710600
15.539500 1.858800
15.570800 1.780700
15.602100 1.699800
15.633400 1.620400
15.664700 1.535300
15.696000 1.444300
15.727300 1.393800
15.758600 1.346000
15.789900 1.337800
15.821200 1.334700
15.852500 1.330800
15.883800 1.326100
15.915100 1.320600
15.946400 1.314200
15.977700 1.333200
16.009000 1.359100
16.040300 1.384900
16.071600 1.410600
16.102900 2.567000
16.134200 1.924200
16.165500 1.599000
16.196800 1.519600
16.228100 1.452500
16.259400 1.397900
16.290700 1.863600
16.322000 1.716200
16.353400 1.559000
16.384700 1.391900
16.416000 1.239200
16.447300 1.082500
16.478600 0.998800
16.509900 0.924000
16.541200 0.858200
16.572500 0.819500
16.603800 0.787800
16.635100 0.757700
16.666400 0.730400
16.697700 0.703200
16.729000 0.677700
16.760300 0.654200
16.791600 0.631100
16.822900 0.604800
16.854200 0.578100
16.885500 0.556600
16.916800 0.540100
16.948100 0.528800
16.979400 0.520500
17.010700 0.513300
17.042000 0.507000
17.073300 0.557300
17.104600 0.565400
17.135900 0.575200
17.167200 0.587000
17.198600 0.602500
17.229900 0.619800
17.261200 0.669300
17.292500 0.706400
17.323800 0.749100
17.355100 0.797300
17.386400 0.851000
17.417700 0.950400
17.449000 1.106500
17.480300 1.282400
17.511600 1.448600
17.542900 1.604700
17.574200 1.746100
17.605500 1.873600
17.636800 1.839300
17.668100 1.710100
17.699400 1.747100
17.730700 1.781000
17.762000 1.812000
17.793300 1.839900
17.824600 1.860000
17.855900 1.866000
17.887200 1.857700
17.918500 1.852000
17.949800 1.832500
17.981100 1.798100
18.012400 1.761900
18.043800 1.725600
18.075100 1.686300
18.106400 1.646800
18.137700 1.616300
18.169000 1.594300
18.200300 1.473700
18.231600 1.433400
18.262900 1.396600
18.294200 1.359200
18.325500 1.322800
18.356800 1.320100
18.388100 1.347700
18.419400 1.264500
18.450700 1.153600
18.482000 1.043700
18.513300 0.987200
18.544600 0.950800
18.575900 0.930600
18.607200 0.933600
18.638500 0.938400
18.669800 0.945700
18.701100 0.957400
18.732400 0.949300
18.763700 0.982700
18.795000 1.033600
18.826300 1.101900
18.857600 1.194100
18.889000 1.312900
18.920300 1.311400
18.951600 1.314400
18.982900 1.323600
19.014200 1.334200
19.045500 1.347800
19.076800 1.375400
19.108100 1.404900
19.139400 1.436600
19.170700 1.508100
19.202000 1.579400
19.233300 1.544500
19.264600 1.581400
19.295900 1.613600
19.327200 1.641100
19.358500 1.810800
19.389800 1.759700
19.421100 1.678200
19.452400 1.598600
19.483700 1.520100
19.515000 1.594400
19.546300 1.465100
19.577600 1.353600
19.608900 1.271200
19.640200 1.240400
19.671500 1.208000
19.702800 1.173700
19.734200 1.137700
19.765500 1.106100
19.796800 1.075000
19.828100 1.057400
19.859400 1.046600
19.890700 1.027100
19.922000 0.966900
19.953300 0.926700
19.984600 0.908200
20.015900 0.891100
20.047200 0.883000
20.078500 0.874100
20.109800 0.776800
20.141100 0.564500
20.172400 0.568500
20.203700 0.576100
20.235000 0.588400
20.266300 0.602600
20.297600 0.669600
20.328900 0.919200
20.360200 0.997100
20.391500 1.007000
20.422800 1.016600
20.454100 1.026000
20.485400 1.035100
20.516700 1.044000
20.548000 1.052700
20.579400 1.061200
20.610700 1.069500
20.642000 1.077200
20.673300 1.084200
20.704600 1.090800
20.735900 1.096900
20.767200 1.103700
20.798500 1.028800
20.829800 1.065200
20.861100 1.105700
20.892400 1.150900
20.923700 1.201000
20.955000 1.254400
20.986300 1.311000
21.017600 1.373600
21.048900 1.435100
21.080200 1.447300
21.111500 1.460900
21.142800 1.477100
21.174100 1.497100
21.205400 1.520800
21.236700 1.548300
21.268000 1.579600
21.299300 1.665200
21.330600 1.737400
21.361900 1.816100
21.393300 1.882800
21.424600 1.939200
21.455900 1.986500
21.487200 1.980900
21.518500 2.014700
21.549800 1.992100
21.581100 1.983800
21.612400 1.974900
21.643700 1.963800
21.675000 1.950200
21.706300 1.938100
21.737600 1.905700
21.768900 1.871700
21.800200 1.866600
21.831500 1.864400
21.862800 1.869400
21.894100 1.874700
21.925400 1.948800
21.956700 1.930100
21.988000 1.908400
22.019300 1.895300
22.050600 1.892500
22.081900 1.882600
22.113200 1.871300
22.144500 1.837000
22.175800 1.785400
22.207100 1.747300
22.238500 1.739500
22.269800 1.723300
22.301100 1.711000
22.332400 1.703700
22.363700 1.696900
22.395000 1.690700
22.426300 1.686400
22.457600 1.680800
22.488900 1.672700
22.520200 1.666800
22.551500 1.665800
22.582800 1.663100
22.614100 1.658800
22.645400 1.652900
22.676700 1.645300
22.708000 1.636200
22.739300 1.625500
22.770600 1.612500
22.801900 1.596600
22.833200 1.580200
22.864500 1.568900
22.895800 1.557700
22.927100 1.546700
22.958400 1.528800
22.989700 1.477400
23.021000 1.467900
23.052300 1.506700
23.083700 1.727200
23.115000 1.669400
23.146300 1.714200
23.177600 1.702600
23.208900 1.657800
23.240200 1.647200
23.271500 1.650300
23.302800 1.733700
23.334100 2.016600
23.365400 2.095700
23.396700 2.013700
23.428000 1.925300
23.459300 1.810400
23.490600 1.671700
23.521900 1.525700
23.553200 1.713600
23.584500 1.296700
23.615800 1.106500
23.647100 1.127700
23.678400 1.168400
23.709700 1.224100
23.741000 1.275700
23.772300 1.225600
23.803600 1.149400
23.834900 1.149200
23.866200 1.150300
23.897500 1.174300
23.928900 1.213700
23.960200 1.254800
23.991500 1.297500
24.022800 1.341900
24.054100 1.387900
24.085400 1.435600
24.116700 1.484100
24.148000 1.533200
24.179300 1.590400
24.210600 1.652800
24.241900 1.717000
24.273200 1.783000
24.304500 1.850600
24.335800 1.919600
24.367100 1.982900
24.398400 2.040300
24.429700 2.101700
24.461000 2.166100
24.492300 2.234600
24.523600 2.307100
24.554900 2.315900
24.586200 2.490400
24.617500 2.352600
24.648800 2.402400
24.680100 2.440700
24.711400 2.463800
24.742700 2.282100
24.774100 2.125100
24.805400 2.011800
24.836700 1.919000
24.868000 1.845400
24.899300 1.790600
24.930600 1.725200
24.961900 1.621800
24.993200 1.548400
25.024500 1.560900
25.055800 1.596400
25.087100 1.633200
25.118400 1.670500
25.149700 1.707300
25.181000 1.686000
25.212300 1.640400
25.243600 1.679800
25.274900 1.655500
25.306200 1.607000
25.337500 2.272600
25.368800 2.208900
25.400100 2.157000
25.431400 1.908400
25.462700 1.986600
25.494000 2.186700
25.525300 2.139800
25.556600 1.777600
25.587900 1.824500
25.619300 1.850300
25.650600 1.847400
25.681900 1.825400
25.713200 1.797200
25.744500 1.756600
25.775800 1.710000
25.807100 1.656400
25.838400 1.716400
25.869700 1.694200
25.901000 1.638400
25.932300 1.613100
25.963600 1.586800
25.994900 1.579800
26.026200 1.574500
26.057500 1.570800
26.088800 1.568800
26.120100 1.568200
26.151400 1.569200
26.182700 1.571600
26.214000 1.575500
26.245300 1.580900
26.276600 1.622300
26.307900 1.685600
26.339200 1.745600
26.370500 1.802000
26.401800 1.702500
26.433100 1.695600
26.464500 1.690000
26.495800 1.672800
26.527100 1.671700
26.558400 1.679000
26.589700 1.689800
26.621000 1.706400
26.652300 1.728100
26.683600 1.752700
26.714900 1.780300
26.746200 1.811600
26.777500 1.848000
26.808800 1.883600
26.840100 1.911600
26.871400 1.944400
26.902700 2.011300
26.934000 2.025800
26.965300 2.041800
26.996600 2.061400
27.027900 2.083900
27.059200 2.108200
27.090500 2.141800
27.121800 2.200700
27.153100 2.250900
27.184400 2.300700
27.215700 2.354100
27.247000 2.411100
27.278300 2.389800
27.309700 2.402400
27.341000 2.411900
27.372300 2.415600
27.403600 2.383600
27.434900 2.318300
27.466200 2.279600
27.497500 2.267900
27.528800 2.258600
27.560100 2.164500
27.591400 2.164200
27.622700 2.168700
27.654000 2.177100
27.685300 2.186300
27.716600 2.196000
27.747900 2.207800
27.779200 2.222100
27.810500 2.249000
27.841800 2.277500
27.873100 2.303500
27.904400 2.345900
27.935700 2.275100
27.967000 2.357600
27.998300 2.461100
28.029600 2.223500
28.060900 2.257700
28.092200 2.225900
28.123500 2.188000
28.154900 2.148500
28.186200 2.089100
28.217500 2.021800
28.248800 1.966400
28.280100 1.921500
28.311400 1.887200
28.342700 1.858200
28.374000 1.831400
28.405300 1.808000
28.436600 1.787600
28.467900 1.769100
28.499200 1.752200
28.530500 1.737500
28.561800 1.730400
28.593100 1.723800
28.624400 1.719500
28.655700 1.646500
28.687000 1.640600
28.718300 1.632900
28.749600 1.620700
28.780900 1.539500
28.812200 1.524700
28.843500 1.512700
28.874800 1.511900
28.906100 1.506700
28.937400 1.503700
28.968700 1.692900
29.000100 1.679900
29.031400 1.670100
29.062700 1.663300
29.094000 1.695000
29.125300 1.740500
29.156600 1.797000
29.187900 1.849500
29.219200 1.883800
29.250500 1.913500
29.281800 1.938600
29.313100 1.959000
29.344400 1.984400
29.375700 2.030100
29.407000 2.022100
29.438300 2.051200
29.469600 1.920700
29.500900 2.411300
29.532200 2.426500
29.563500 2.209500
29.594800 2.081400
29.626100 2.012300
29.657400 2.025200
29.688700 2.112600
29.720000 2.214100
29.751300 2.189200
29.782600 2.198900
29.813900 2.225700
29.845300 2.227400
29.876600 2.141500
29.907900 2.084600
29.939200 2.050900
29.970500 2.032200
30.001800 2.016500
30.033100 2.004600
30.064400 1.988100
30.095700 1.916100
30.127000 1.920000
30.158300 1.924200
30.189600 1.928700
30.220900 1.933600
30.252200 1.939400
30.283500 1.945600
30.314800 1.950800
30.346100 1.952400
30.377400 1.950900
30.408700 2.031600
30.440000 2.215600
30.471300 2.818300
30.502600 1.984100
30.533900 1.924900
30.565200 1.874900
30.596500 1.842600
30.627800 1.790300
30.659100 1.768800
30.690500 1.739400
30.721800 1.691000
30.753100 1.648700
30.784400 1.621100
30.815700 1.622700
30.847000 1.648600
30.878300 1.675400
30.909600 1.703300
30.940900 1.714900
30.972200 1.721500
31.003500 1.726800
31.034800 1.730800
31.066100 1.733200
31.097400 1.734000
31.128700 1.779900
31.160000 1.858800
31.191300 1.962300
31.222600 2.054400
31.253900 2.702100
31.285200 1.998600
31.316500 1.992300
31.347800 1.993000
31.379100 1.987100
31.410400 1.973400
31.441700 1.916000
31.473000 1.938200
31.504400 2.174100
31.535700 2.161700
31.567000 2.113300
31.598300 2.076800
31.629600 2.004300
31.660900 1.973200
31.692200 1.949800
31.723500 1.991000
31.754800 1.939500
31.786100 1.889900
31.817400 1.844700
31.848700 1.806900
31.880000 1.776800
31.911300 1.743100
31.942600 1.698900
31.973900 1.647200
32.005200 1.605600
32.036500 1.571800
32.067800 1.545700
32.099100 1.527500
32.130400 1.540800
32.161700 1.562100
32.193000 1.586700
32.224300 1.613000
32.255600 1.641200
32.286900 1.671000
32.318200 1.732600
32.349600 1.818000
32.380900 1.889000
32.412200 1.970600
32.443500 2.036900
32.474800 2.088200
32.506100 2.130700
32.537400 2.164600
32.568700 2.190500
32.600000 2.208800
32.631300 2.220500
32.662600 2.219900
32.693900 2.208600
32.725200 2.216500
32.756500 2.281800
32.787800 2.357000
32.819100 2.379800
32.850400 2.297500
32.881700 2.204200
32.913000 2.097500
32.944300 1.973800
32.975600 1.917100
33.006900 1.891800
33.038200 1.870300
33.069500 1.849300
33.100800 1.828800
33.132100 1.808900
33.163400 1.790500
33.194800 1.775900
33.226100 1.848100
33.257400 1.930000
33.288700 1.982700
33.320000 2.002700
33.351300 2.012000
33.382600 2.041900
33.413900 2.068000
33.445200 2.092100
33.476500 2.109500
33.507800 2.105200
33.539100 2.108900
33.570400 2.109400
33.601700 2.058500
33.633000 1.984600
33.664300 1.907700
33.695600 1.848300
33.726900 1.822600
33.758200 1.809500
33.789500 2.157800
33.820800 2.077200
33.852100 2.004200
33.883400 1.942600
33.914700 1.894100
33.946000 1.849300
33.977300 1.868000
34.008600 1.915400
34.040000 1.962100
34.071300 2.080500
34.102600 2.145500
34.133900 2.153200
34.165200 2.157100
34.196500 2.164500
34.227800 2.188100
34.259100 2.212200
34.290400 2.237100
34.321700 2.264600
34.353000 2.143500
34.384300 2.113700
34.415600 2.075200
34.446900 2.029800
34.478200 1.981100
34.509500 1.929800
34.540800 1.874900
34.572100 1.816500
34.603400 1.761200
34.634700 1.719400
34.666000 1.758200
34.697300 1.803300
34.728600 1.852200
34.759900 1.932700
34.791200 2.021100
34.822500 2.107100
34.853800 2.149800
34.885200 2.210400
34.916500 2.076500
34.947800 1.939800
34.979100 1.948500
35.010400 1.965600
35.041700 1.994500
35.073000 2.014100
35.104300 2.024400
35.135600 2.025300
35.166900 2.193000
35.198200 2.170700
35.229500 2.157900
35.260800 2.141700
35.292100 2.122100
35.323400 2.071600
35.354700 2.003400
35.386000 1.926000
35.417300 1.899300
35.448600 1.881900
35.479900 1.867300
35.511200 1.693400
35.542500 1.675200
35.573800 1.660200
35.605100 1.720800
35.636400 1.723100
35.667700 1.729400
35.699000 1.740000
35.730400 1.758200
35.761700 1.777600
35.793000 1.794200
35.824300 1.808300
35.855600 1.821500
35.886900 1.923900
35.918200 2.697600
35.949500 1.839600
35.980800 1.885500
36.012100 1.940400
36.043400 1.990800
36.074700 1.996900
36.106000 2.027700
36.137300 2.053800
36.168600 2.075300
36.199900 2.092200
36.231200 2.097700
36.262500 2.078300
36.293800 2.031400
36.325100 1.982400
36.356400 1.931400
36.387700 1.878300
36.419000 1.823200
36.450300 1.571600
36.481600 1.525000
36.512900 1.481800
36.544200 1.456000
36.575600 1.447900
36.606900 1.386400
36.638200 1.395500
36.669500 1.634500
36.700800 1.921500
36.732100 2.162000
36.763400 2.544800
36.794700 2.676200
36.826000 2.831000
36.857300 3.016000
36.888600 3.221700
36.919900 3.268400
36.951200 3.160300
36.982500 3.244100
37.013800 3.083200
37.045100 2.900900
37.076400 2.708100
37.107700 2.541400
37.139000 2.213600
37.170300 2.072200
37.201600 2.166400
37.232900 2.035300
37.264200 1.908000
37.295500 1.827400
37.326800 1.769500
37.358100 1.719800
37.389400 1.678100
37.420800 1.644700
37.452100 1.617500
37.483400 1.609500
37.514700 1.643500
37.546000 1.663500
37.577300 1.682600
37.608600 1.699500
37.639900 1.706200
37.671200 1.711000
37.702500 1.721500
37.733800 1.771500
37.765100 1.848900
37.796400 1.932600
37.827700 2.144400
37.859000 2.227300
37.890300 2.305300
37.921600 2.378200
37.952900 2.427200
37.984200 2.592600
38.015500 2.503500
38.046800 2.404000
38.078100 2.305800
38.109400 2.211100
38.140700 2.245200
38.172000 2.044800
38.203300 1.910700
38.234600 1.933900
38.266000 2.123200
38.297300 2.016800
38.328600 1.984200
38.359900 2.157000
38.391200 2.136300
38.422500 2.249300
38.453800 2.419400
38.485100 2.592900
38.516400 2.666600
38.547700 2.671100
38.579000 2.591600
38.610300 2.477200
38.641600 2.466800
38.672900 2.145500
38.704200 2.075000
38.735500 1.950300
38.766800 1.947300
38.798100 1.956600
38.829400 1.978100
38.860700 2.011900
38.892000 2.133100
38.923300 2.597900
38.954600 2.589000
38.985900 2.573000
39.017200 2.518800
39.048500 2.245000
39.079800 2.212000
39.111200 2.204900
39.142500 2.195600
39.173800 2.184500
39.205100 2.315600
39.236400 2.420500
39.267700 2.543300
39.299000 2.683800
39.330300 2.862000
39.361600 2.825400
39.392900 2.806100
39.424200 2.831200
39.455500 2.422100
39.486800 1.841900
39.518100 1.408200
39.549400 1.329600
39.580700 1.394000
39.612000 1.412300
39.643300 1.460000
39.674600 1.515600
39.705900 1.566800
39.737200 1.594400
39.768500 1.622700
39.799800 1.651800
39.831100 1.682200
39.862400 1.716000
39.893700 1.750600
39.925000 1.809800
39.956400 1.888100
39.987700 2.218500
40.019000 2.506000
40.050300 2.520800
40.081600 2.523500
40.112900 2.643900
40.144200 2.681200
40.175500 2.673700
40.206800 2.675400
40.238100 2.661200
40.269400 2.576400
40.300700 2.512200
40.332000 2.468800
40.363300 2.338500
40.394600 2.304600
40.425900 2.263100
40.457200 2.226300
40.488500 2.194700
40.519800 2.169500
40.551100 2.161900
40.582400 2.168300
40.613700 2.177500
40.645000 2.189600
40.676300 3.588000
40.707600 2.471800
40.738900 2.471800
40.770300 2.473600
40.801600 2.477900
40.832900 2.541200
40.864200 2.588500
40.895500 2.615100
40.926800 2.656600
40.958100 2.726300
40.989400 3.000600
41.020700 2.725400
41.052000 2.642500
41.083300 2.604900
41.114600 2.600900
41.145900 2.849600
41.177200 3.059400
41.208500 2.756100
41.239800 2.686200
41.271100 2.616400
41.302400 2.547300
41.333700 2.480400
41.365000 2.415800
41.396300 2.463900
41.427600 2.544900
41.458900 2.521300
41.490200 2.484500
41.521500 2.413600
41.552800 2.359800
41.584100 2.314700
41.615500 2.257300
41.646800 2.201100
41.678100 2.145100
41.709400 2.088300
41.740700 2.030500
41.772000 1.976600
41.803300 1.936800
41.834600 1.900100
41.865900 1.866800
41.897200 1.842000
41.928500 1.825700
41.959800 1.823900
41.991100 1.820200
42.022400 1.834500
42.053700 1.846400
42.085000 1.899400
42.116300 1.929800
42.147600 1.949900
42.178900 1.969100
42.210200 1.989400
42.241500 2.015700
42.272800 2.340300
42.304100 2.375100
42.335400 2.413000
42.366700 2.454100
42.398000 2.414000
42.429300 2.373600
42.460700 2.344600
42.492000 2.324800
42.523300 2.308300
42.554600 2.294400
42.585900 2.324100
42.617200 2.616800
42.648500 2.546300
42.679800 2.442400
42.711100 2.305200
42.742400 2.192800
42.773700 2.202500
42.805000 2.267000
42.836300 2.367100
42.867600 2.475700
42.898900 2.296100
42.930200 2.249000
42.961500 2.247400
42.992800 2.171900
43.024100 2.180000
43.055400 2.188200
43.086700 2.200700
43.118000 2.209700
43.149300 2.218800
43.180600 2.213100
43.211900 2.201700
43.243200 2.196500
43.274500 2.197500
43.305900 2.203400
43.337200 2.125400
43.368500 2.041200
43.399800 1.983000
43.431100 1.936800
43.462400 1.907100
43.493700 2.012300
43.525000 2.143700
43.556300 2.298600
43.587600 1.950500
43.618900 1.957400
43.650200 1.971500
43.681500 1.938000
43.712800 1.949600
43.744100 1.958600
43.775400 1.970600
43.806700 1.983200
43.838000 1.996500
43.869300 1.998700
43.900600 1.994900
43.931900 2.024000
43.963200 2.052300
43.994500 2.104000
44.025800 2.185900
44.057100 2.302300
44.088400 2.460000
44.119700 2.622800
44.151100 2.443600
44.182400 2.805500
44.213700 2.819800
44.245000 2.835500
44.276300 2.852300
44.307600 2.865600
44.338900 2.882900
44.370200 2.885000
44.401500 2.879700
44.432800 2.827800
44.464100 2.850900
44.495400 2.881400
44.526700 2.926100
44.558000 2.982500
44.589300 2.777000
44.620600 2.718200
44.651900 2.634300
44.683200 2.532700
44.714500 2.424200
44.745800 2.338800
44.777100 2.261200
44.808400 2.191600
44.839700 2.142700
44.871000 2.128400
44.902300 1.934500
44.933600 1.993700
44.964900 2.218000
44.996300 1.912300
45.027600 1.762400
45.058900 1.759700
45.090200 1.756900
45.121500 1.757500
45.152800 1.758500
45.184100 1.760000
45.215400 1.763000
45.246700 1.767900
45.278000 1.773200
45.309300 1.781300
45.340600 1.796100
45.371900 1.710800
45.403200 1.745100
45.434500 1.911500
45.465800 1.925900
45.497100 1.847700
45.528400 1.858600
45.559700 1.878300
45.591000 1.858200
45.622300 1.815600
45.653600 1.774100
45.684900 1.741100
45.716200 1.778100
45.747500 1.625200
45.778800 1.586600
45.810100 1.560300
45.841500 1.546100
45.872800 1.540400
45.904100 1.453600
45.935400 1.451700
45.966700 1.457900
45.998000 1.468600
46.029300 1.483900
46.060600 1.503700
46.091900 1.527900
46.123200 1.553200
46.154500 1.576900
46.185800 1.591700
46.217100 1.585700
46.248400 1.553900
46.279700 1.507400
46.311000 1.453700
46.342300 1.388300
46.373600 1.275900
46.404900 1.152600
46.436200 1.061100
46.467500 0.961000
46.498800 0.879700
46.530100 0.828700
46.561400 0.781900
46.592700 0.739200
46.624000 0.700600
46.655300 0.666200
46.686700 0.635500
46.718000 0.606400
46.749300 0.578700
46.780600 0.556900
46.811900 0.537000
46.843200 0.517500
46.874500 0.498700
46.905800 0.480300
46.937100 0.465800
46.968400 0.452700
46.999700 0.440900
47.031000 0.430400
47.062300 0.421100
47.093600 0.411600
47.124900 0.407400
47.156200 0.396200
47.187500 0.384400
47.218800 0.371900
47.250100 0.358800
47.281400 0.345000
47.312700 0.285800
47.344000 0.277600
47.375300 0.269500
47.406600 0.261500
47.437900 0.253800
47.469200 0.246100
47.500500 0.238700
47.531900 0.231600
47.563200 0.225300
47.594500 0.219500
47.625800 0.214200
47.657100 0.209300
47.688400 0.204800
47.719700 0.200800
47.751000 0.197300
47.782300 0.194200
47.813600 0.191400
47.844900 0.188700
47.876200 0.186200
47.907500 0.183900
47.938800 0.181600
47.970100 0.179500
48.001400 0.177600
48.032700 0.175800
48.064000 0.174200
48.095300 0.173000
48.126600 0.172000
48.157900 0.171000
48.189200 0.170200
48.220500 0.170300
48.251800 0.170500
48.283100 0.170800
48.314400 0.171300
48.345700 0.171900
48.377100 0.170100
48.408400 0.192800
48.439700 0.188900
48.471000 0.180300
48.502300 0.167000
48.533600 0.153400
48.564900 0.142300
48.596200 0.131700
48.627500 0.121400
48.658800 0.111700
48.690100 0.102300
48.721400 0.093300
48.752700 0.084800
48.784000 0.076700
48.815300 0.069000
48.846600 0.061800
48.877900 0.054900
48.909200 0.050400
48.940500 0.048000
48.971800 0.045700
49.003100 0.043400
49.034400 0.041100
49.065700 0.039000
49.097000 0.036900
49.128300 0.034800
49.159600 0.032800
49.190900 0.030900
49.222300 0.029000
49.253600 0.027200
49.284900 0.025500
49.316200 0.023800
49.347500 0.022200
49.378800 0.020600
49.410100 0.019100
49.441400 0.017700
49.472700 0.016300
49.504000 0.015000
49.535300 0.013700
49.566600 0.012500
49.597900 0.011400
49.629200 0.010300
49.660500 0.009300
49.691800 0.008400
49.723100 0.007500
49.754400 0.006600
49.785700 0.005900
49.817000 0.005100
49.848300 0.004500
49.879600 0.003900
49.910900 0.003300
49.942200 0.002800
49.973500 0.002300
50.004800 0.001900
50.036100 0.001500
50.067500 0.001100
50.098800 0.000800
50.130100 0.000600
50.161400 0.000400
50.192700 0.000200
50.224000 0.000100
50.255300 0.000000
50.286600 0.000000
50.317900 0.000000
50.349200 0.000000
50.380500 0.000000
50.411800 0.000000
50.443100 0.000000
50.474400 0.000000
50.505700 0.000000
50.537000 0.000000
50.568300 0.000000
50.599600 0.000000
50.630900 0.000000
50.662200 0.000000
50.693500 0.000000
50.724800 0.000000
50.756100 0.000000
50.787400 0.000000
50.818700 0.000000
50.850000 0.000000
50.881400 0.000000
50.912700 0.000000
50.944000 0.000000
50.975300 0.000000
51.006600 0.000000
51.037900 0.000000
51.069200 0.000000
51.100500 0.000000
51.131800 0.000000
51.163100 0.000000
51.194400 0.000000
51.225700 0.000000
51.257000 0.000000
51.288300 0.000000
51.319600 0.000000
51.350900 0.000000
51.382200 0.000000
51.413500 0.000000
51.444800 0.000000
51.476100 0.000000
51.507400 0.000000
51.538700 0.000000
51.570000 0.000000
51.601300 0.000000
51.632600 0.000000
51.663900 0.000000
51.695200 0.000000
51.726600 0.000000
51.757900 0.000000
51.789200 0.000000
51.820500 0.000000
51.851800 0.000000
51.883100 0.000000
51.914400 0.000000
51.945700 0.000000
51.977000 0.000000
52.008300 0.000000
52.039600 0.000000
52.070900 0.000000
52.102200 0.000000
52.133500 0.000000
52.164800 0.000000
52.196100 0.000000
52.227400 0.000000
52.258700 0.000000
52.290000 0.000000
52.321300 0.000000
52.352600 0.000000
52.383900 0.000000
52.415200 0.000000
52.446500 0.000000
52.477800 0.000000
52.509100 0.000000
52.540400 0.000000
52.571800 0.000000
52.603100 0.000000
52.634400 0.000000
52.665700 0.000000
52.697000 0.000000
52.728300 0.000000
52.759600 0.000000
52.790900 0.000000
52.822200 0.000000
52.853500 0.000000
52.884800 0.000000
52.916100 0.000000
52.947400 0.000000
52.978700 0.000000
53.010000 0.000000
53.041300 0.000000
53.072600 0.000000
53.103900 0.000000
53.135200 0.000000
e
