set title 'mp-1184680 - Density of States'
set xlabel 'Energy (eV)'
set ylabel 'DOS (states/eV)'
set grid
set xrange [-10:10]
set yrange [0:8.336]
set xzeroaxis lt -1
set terminal png size 800,600
set output 'mp-1184680_dos_gnuplot.png'
plot '-' using 1:2 with lines title 'DOS'
-6.885200 0.000000
-6.854800 0.000000
-6.824400 0.000000
-6.794000 0.000000
-6.763600 0.000000
-6.733200 0.000000
-6.702800 0.000000
-6.672400 0.000000
-6.642000 0.000000
-6.611600 0.000000
-6.581200 0.000000
-6.550800 0.000000
-6.520400 0.000000
-6.490000 0.000000
-6.459600 0.000000
-6.429200 0.000000
-6.398800 0.000000
-6.368400 0.000000
-6.338000 0.000000
-6.307600 0.000000
-6.277200 0.000000
-6.246800 0.000000
-6.216400 0.000000
-6.186000 0.000000
-6.155600 0.000000
-6.125200 0.000000
-6.094800 0.000000
-6.064400 0.000000
-6.034000 0.000000
-6.003600 0.000000
-5.973200 0.000000
-5.942800 0.000000
-5.912400 0.000000
-5.882000 0.000000
-5.851600 0.000000
-5.821200 0.000000
-5.790800 0.000000
-5.760400 0.000000
-5.730000 0.000000
-5.699600 0.000000
-5.669200 0.000000
-5.638800 0.000000
-5.608400 0.000000
-5.577900 0.000000
-5.547500 0.000000
-5.517100 0.000000
-5.486700 0.000000
-5.456300 0.000000
-5.425900 0.000000
-5.395500 0.000000
-5.365100 0.000000
-5.334700 0.000000
-5.304300 0.000000
-5.273900 0.000000
-5.243500 0.000000
-5.213100 0.000000
-5.182700 0.000000
-5.152300 0.000000
-5.121900 0.000000
-5.091500 0.000000
-5.061100 0.000000
-5.030700 0.000000
-5.000300 0.000000
-4.969900 0.000000
-4.939500 0.000000
-4.909100 0.000000
-4.878700 0.000000
-4.848300 0.000000
-4.817900 0.000000
-4.787500 0.000000
-4.757100 0.000000
-4.726700 0.000000
-4.696300 0.000000
-4.665900 0.000000
-4.635500 0.000000
-4.605100 0.000000
-4.574700 0.000000
-4.544300 0.000000
-4.513900 0.000000
-4.483500 0.000000
-4.453100 0.000000
-4.422700 0.000000
-4.392300 0.000000
-4.361900 0.000000
-4.331500 0.000000
-4.301100 0.000000
-4.270700 0.000000
-4.240300 0.000000
-4.209900 0.000000
-4.179500 0.000000
-4.149100 0.000000
-4.118600 0.000100
-4.088200 0.007500
-4.057800 0.027400
-4.027400 0.056300
-3.997000 0.066500
-3.966600 0.069400
-3.936200 0.075500
-3.905800 0.085400
-3.875400 0.095600
-3.845000 0.106200
-3.814600 0.115300
-3.784200 0.121000
-3.753800 0.124000
-3.723400 0.128200
-3.693000 0.134100
-3.662600 0.140500
-3.632200 0.147000
-3.601800 0.153400
-3.571400 0.159900
-3.541000 0.166600
-3.510600 0.173600
-3.480200 0.179300
-3.449800 0.184300
-3.419400 0.189200
-3.389000 0.194100
-3.358600 0.199300
-3.328200 0.204500
-3.297800 0.209900
-3.267400 0.215300
-3.237000 0.221000
-3.206600 0.227100
-3.176200 0.233300
-3.145800 0.239700
-3.115400 0.246200
-3.085000 0.252500
-3.054600 0.258400
-3.024200 0.279600
-2.993800 0.299900
-2.963400 0.292200
-2.933000 0.296400
-2.902600 0.300700
-2.872200 0.305100
-2.841800 0.309300
-2.811400 0.313400
-2.781000 0.315100
-2.750600 0.316600
-2.720200 0.318900
-2.689800 0.322800
-2.659300 0.326600
-2.628900 0.330400
-2.598500 0.334200
-2.568100 0.338000
-2.537700 0.360600
-2.507300 0.388000
-2.476900 0.386300
-2.446500 0.396300
-2.416100 0.406600
-2.385700 0.417300
-2.355300 0.428400
-2.324900 0.439400
-2.294500 0.447800
-2.264100 0.456200
-2.233700 0.466400
-2.203300 0.477200
-2.172900 0.488300
-2.142500 0.499900
-2.112100 0.512300
-2.081700 0.525800
-2.051300 0.540800
-2.020900 0.555100
-1.990500 0.570700
-1.960100 0.586700
-1.929700 0.603500
-1.899300 0.621000
-1.868900 0.638900
-1.838500 0.657300
-1.808100 0.676000
-1.777700 0.695300
-1.747300 0.717300
-1.716900 0.740100
-1.686500 0.765400
-1.656100 0.793200
-1.625700 0.821700
-1.595300 0.854100
-1.564900 0.892000
-1.534500 0.931900
-1.504100 0.974600
-1.473700 1.021100
-1.443300 1.080100
-1.412900 1.154000
-1.382500 1.227000
-1.352100 1.283300
-1.321700 1.337500
-1.291300 1.404600
-1.260900 1.494500
-1.230500 1.686700
-1.200000 1.909000
-1.169600 2.101900
-1.139200 2.025600
-1.108800 2.020700
-1.078400 2.091700
-1.048000 2.132500
-1.017600 2.125600
-0.987200 2.133300
-0.956800 2.154200
-0.926400 2.275200
-0.896000 2.183500
-0.865600 2.091000
-0.835200 2.151800
-0.804800 2.208400
-0.774400 2.299000
-0.744000 2.511400
-0.713600 2.456600
-0.683200 2.510600
-0.652800 2.568300
-0.622400 2.626200
-0.592000 2.722600
-0.561600 2.826700
-0.531200 2.905500
-0.500800 2.975500
-0.470400 3.121200
-0.440000 3.262500
-0.409600 3.351200
-0.379200 3.411700
-0.348800 3.501300
-0.318400 3.505800
-0.288000 3.041400
-0.257600 2.476800
-0.227200 2.124300
-0.196800 2.042200
-0.166400 1.757300
-0.136000 1.189400
-0.105600 0.000000
-0.075200 0.000000
-0.044800 0.000000
-0.014400 0.000000
0.016000 0.000000
0.046400 0.000000
0.076800 0.000000
0.107200 0.000000
0.137600 0.000000
0.168000 0.000000
0.198400 0.000000
0.228800 0.000000
0.259300 0.000000
0.289700 0.000000
0.320100 0.000000
0.350500 0.000000
0.380900 0.000000
0.411300 0.000000
0.441700 0.000000
0.472100 0.000000
0.502500 0.000000
0.532900 0.000000
0.563300 0.000000
0.593700 0.000000
0.624100 0.000000
0.654500 0.000000
0.684900 0.000000
0.715300 0.000000
0.745700 0.000000
0.776100 0.000000
0.806500 0.000000
0.836900 0.000000
0.867300 0.000000
0.897700 0.000000
0.928100 0.000000
0.958500 0.000000
0.988900 0.000000
1.019300 0.000000
1.049700 0.000000
1.080100 0.000000
1.110500 0.000000
1.140900 0.000000
1.171300 0.000000
1.201700 0.000000
1.232100 0.000000
1.262500 0.000000
1.292900 0.000000
1.323300 0.000000
1.353700 0.000000
1.384100 0.000000
1.414500 0.000000
1.444900 0.000000
1.475300 0.000000
1.505700 0.000000
1.536100 0.000000
1.566500 0.000000
1.596900 0.000000
1.627300 0.000000
1.657700 0.000000
1.688100 0.000000
1.718600 0.000000
1.749000 0.000000
1.779400 0.000000
1.809800 0.000000
1.840200 0.000000
1.870600 0.000000
1.901000 0.000000
1.931400 0.000000
1.961800 0.000000
1.992200 1.728900
2.022600 2.301700
2.053000 2.296400
2.083400 1.835400
2.113800 1.869400
2.144200 1.965700
2.174600 2.058000
2.205000 2.140300
2.235400 2.121900
2.265800 2.118900
2.296200 2.169300
2.326600 2.243700
2.357000 2.486100
2.387400 2.756900
2.417800 3.169800
2.448200 3.315800
2.478600 3.833000
2.509000 4.372100
2.539400 4.294500
2.569800 4.047900
2.600200 3.937600
2.630600 3.978400
2.661000 4.130800
2.691400 3.890500
2.721800 3.954800
2.752200 4.306400
2.782600 4.656800
2.813000 4.133200
2.843400 3.599800
2.873800 3.928700
2.904200 3.938200
2.934600 3.267600
2.965000 3.044300
2.995400 2.767700
3.025800 2.643500
3.056200 2.601300
3.086600 2.582800
3.117000 2.505400
3.147400 2.402200
3.177800 2.267500
3.208300 2.182100
3.238700 1.898600
3.269100 1.288500
3.299500 0.965700
3.329900 0.708400
3.360300 0.524900
3.390700 0.408800
3.421100 0.319300
3.451500 0.264200
3.481900 0.234300
3.512300 0.213300
3.542700 0.191400
3.573100 0.168600
3.603500 0.142700
3.633900 0.210700
3.664300 0.587600
3.694700 0.942900
3.725100 1.470300
3.755500 2.004300
3.785900 2.071400
3.816300 2.187400
3.846700 2.787800
3.877100 3.257500
3.907500 3.700200
3.937900 4.345100
3.968300 5.200200
3.998700 6.781500
4.029100 7.578400
4.059500 6.210800
4.089900 5.123700
4.120300 4.359500
4.150700 4.667400
4.181100 4.822800
4.211500 4.560400
4.241900 4.362200
4.272300 4.251100
4.302700 3.814400
4.333100 3.659200
4.363500 3.272500
4.393900 3.055500
4.424300 2.885400
4.454700 2.756500
4.485100 2.511700
4.515500 2.222800
4.545900 1.996900
4.576300 1.878600
4.606700 1.645000
4.637100 1.524300
4.667600 1.729800
4.698000 1.592500
4.728400 1.567400
4.758800 1.623400
4.789200 1.966600
4.819600 2.348200
4.850000 2.519400
4.880400 2.627400
4.910800 2.665400
4.941200 2.715600
4.971600 2.673700
5.002000 2.557200
5.032400 2.464500
5.062800 2.389500
5.093200 2.344700
5.123600 2.454800
5.154000 2.557500
5.184400 2.448500
5.214800 2.600500
5.245200 2.689700
5.275600 2.672500
5.306000 2.774600
5.336400 2.748100
5.366800 2.873500
5.397200 2.936400
5.427600 2.981200
5.458000 3.070000
5.488400 3.131500
5.518800 3.106500
5.549200 3.047000
5.579600 3.033500
5.610000 3.011900
5.640400 2.997300
5.670800 3.065900
5.701200 3.158900
5.731600 3.264900
5.762000 3.359400
5.792400 3.499300
5.822800 4.022700
5.853200 3.510100
5.883600 3.245900
5.914000 3.168900
5.944400 3.094700
5.974800 2.915000
6.005200 2.692400
6.035600 2.573200
6.066000 2.734600
6.096400 2.493800
6.126900 2.152900
6.157300 2.135100
6.187700 2.267100
6.218100 2.552100
6.248500 2.651400
6.278900 2.755900
6.309300 2.873500
6.339700 3.051900
6.370100 3.868900
6.400500 4.894200
6.430900 4.252700
6.461300 3.841000
6.491700 3.598400
6.522100 3.428600
6.552500 3.376000
6.582900 3.340800
6.613300 3.324800
6.643700 3.241200
6.674100 3.290800
6.704500 3.222100
6.734900 3.171300
6.765300 3.123600
6.795700 3.010900
6.826100 2.892600
6.856500 2.910700
6.886900 3.099700
6.917300 3.142100
6.947700 3.151200
6.978100 3.125400
7.008500 3.291800
7.038900 3.910300
7.069300 3.342800
7.099700 3.303200
7.130100 3.359000
7.160500 3.515400
7.190900 3.870400
7.221300 4.408200
7.251700 4.881400
7.282100 4.701000
7.312500 4.247700
7.342900 4.503000
7.373300 4.534800
7.403700 4.600200
7.434100 4.385700
7.464500 4.107100
7.494900 3.830100
7.525300 3.737200
7.555700 3.868900
7.586200 2.852000
7.616600 2.094000
7.647000 1.951100
7.677400 1.785900
7.707800 1.654300
7.738200 1.573500
7.768600 1.522000
7.799000 1.478100
7.829400 1.444600
7.859800 1.414300
7.890200 1.384500
7.920600 1.355400
7.951000 1.326200
7.981400 1.296700
8.011800 1.267200
8.042200 1.227500
8.072600 1.194100
8.103000 1.173000
8.133400 1.160000
8.163800 1.146000
8.194200 1.133200
8.224600 1.127500
8.255000 1.120700
8.285400 1.113400
8.315800 1.107500
8.346200 1.094200
8.376600 1.082800
8.407000 1.070800
8.437400 1.060000
8.467800 1.050100
8.498200 1.044100
8.528600 1.056400
8.559000 1.067400
8.589400 1.075100
8.619800 1.082000
8.650200 1.087300
8.680600 1.102700
8.711000 1.117100
8.741400 1.119000
8.771800 1.115000
8.802200 1.086700
8.832600 1.028700
8.863000 0.972800
8.893400 0.964300
8.923800 0.956000
8.954200 0.947900
8.984600 0.940100
9.015000 0.933000
9.045500 0.920700
9.075900 0.914300
9.106300 0.908000
9.136700 0.900400
9.167100 0.891600
9.197500 0.881800
9.227900 0.871800
9.258300 0.861800
9.288700 0.855000
9.319100 0.849100
9.349500 0.841800
9.379900 0.834900
9.410300 0.835400
9.440700 0.895900
9.471100 0.946400
9.501500 0.986100
9.531900 0.987600
9.562300 0.983700
9.592700 0.981500
9.623100 0.979900
9.653500 0.982300
9.683900 0.985700
9.714300 0.987900
9.744700 0.990500
9.775100 0.991900
9.805500 0.991900
9.835900 0.980900
9.866300 0.967300
9.896700 0.954800
9.927100 0.942600
9.957500 0.932000
9.987900 0.923100
10.018300 0.913800
10.048700 0.904000
10.079100 0.893900
10.109500 0.885100
10.139900 0.877500
10.170300 0.870400
10.200700 0.863400
10.231100 0.857300
10.261500 0.851100
10.291900 0.847200
10.322300 0.845800
10.352700 0.848200
10.383100 0.852800
10.413500 0.855500
10.443900 0.859200
10.474300 0.863100
10.504800 0.870900
10.535200 0.878100
10.565600 0.875600
10.596000 0.873000
10.626400 0.871100
10.656800 0.869700
10.687200 0.868100
10.717600 0.867000
10.748000 0.865800
10.778400 0.893300
10.808800 0.930600
10.839200 0.939600
10.869600 0.941800
10.900000 0.944200
10.930400 0.938400
10.960800 0.900500
10.991200 0.805000
11.021600 0.747700
11.052000 0.727200
11.082400 0.728500
11.112800 0.762000
11.143200 0.764800
11.173600 0.766700
11.204000 0.607400
11.234400 0.538600
11.264800 0.505700
11.295200 0.476400
11.325600 0.448700
11.356000 0.422400
11.386400 0.398200
11.416800 0.381600
11.447200 0.363000
11.477600 0.327800
11.508000 0.319400
11.538400 0.329000
11.568800 0.338200
11.599200 0.346900
11.629600 0.355200
11.660000 0.362200
11.690400 0.367000
11.720800 0.372300
11.751200 0.378000
11.781600 0.383000
11.812000 0.387200
11.842400 0.390600
11.872800 0.393100
11.903200 0.391500
11.933600 0.393700
11.964100 0.400200
11.994500 0.407900
12.024900 0.415400
12.055300 0.422600
12.085700 0.429500
12.116100 0.435900
12.146500 0.441800
12.176900 0.448100
12.207300 0.454900
12.237700 0.462500
12.268100 0.471100
12.298500 0.480900
12.328900 0.491900
12.359300 0.504000
12.389700 0.517300
12.420100 0.532500
12.450500 0.549100
12.480900 0.571800
12.511300 0.599300
12.541700 0.628700
12.572100 0.657800
12.602500 0.689400
12.632900 0.745300
12.663300 0.798200
12.693700 0.857300
12.724100 0.947900
12.754500 1.053800
12.784900 1.179600
12.815300 1.773600
12.845700 1.885800
12.876100 1.708000
12.906500 1.563800
12.936900 1.417200
12.967300 1.428300
12.997700 1.528200
13.028100 1.705400
13.058500 1.783500
13.088900 1.940000
13.119300 2.013000
13.149700 1.822500
13.180100 1.794000
13.210500 1.531000
13.240900 1.410800
13.271300 1.336000
13.301700 1.269000
13.332100 1.209500
13.362500 1.155500
13.392900 1.093700
13.423400 1.064700
13.453800 1.041100
13.484200 1.022200
13.514600 1.010400
13.545000 1.009600
13.575400 1.025900
13.605800 1.142100
13.636200 1.288200
13.666600 1.372100
13.697000 1.368700
13.727400 1.325300
13.757800 1.255800
13.788200 1.159900
13.818600 1.094600
13.849000 1.033900
13.879400 0.975800
13.909800 0.934100
13.940200 0.908800
13.970600 0.901700
14.001000 0.901700
14.031400 1.034100
14.061800 0.868800
14.092200 0.826000
14.122600 0.805100
14.153000 0.757500
14.183400 0.732100
14.213800 0.709900
14.244200 0.728100
14.274600 0.830000
14.305000 0.611100
14.335400 0.617500
14.365800 0.624300
14.396200 0.631900
14.426600 0.639800
14.457000 0.648700
14.487400 0.660900
14.517800 0.674900
14.548200 0.690000
14.578600 0.709600
14.609000 0.732900
14.639400 0.759000
14.669800 0.796600
14.700200 1.081200
14.730600 0.937800
14.761000 0.910100
14.791400 0.900000
14.821800 0.900900
14.852200 0.896000
14.882700 0.892900
14.913100 0.889900
14.943500 0.891000
14.973900 0.898000
15.004300 0.909500
15.034700 0.923400
15.065100 0.951200
15.095500 1.001500
15.125900 0.996500
15.156300 0.981500
15.186700 0.971900
15.217100 0.978100
15.247500 1.011600
15.277900 1.020600
15.308300 1.001500
15.338700 1.010900
15.369100 0.981000
15.399500 0.945500
15.429900 0.923800
15.460300 0.928100
15.490700 0.937700
15.521100 0.947200
15.551500 0.957400
15.581900 0.973800
15.612300 0.991000
15.642700 1.011700
15.673100 1.033800
15.703500 1.115600
15.733900 1.278200
15.764300 1.284200
15.794700 1.153400
15.825100 1.052400
15.855500 0.996600
15.885900 0.965200
15.916300 0.937300
15.946700 0.913200
15.977100 0.895200
16.007500 0.882400
16.037900 0.867100
16.068300 0.849500
16.098700 0.858700
16.129100 0.864100
16.159500 0.846600
16.189900 0.835500
16.220300 0.834700
16.250700 0.836500
16.281100 0.838300
16.311500 0.856600
16.342000 0.876200
16.372400 0.902600
16.402800 0.915800
16.433200 0.927400
16.463600 0.945600
16.494000 0.976600
16.524400 0.981800
16.554800 0.987000
16.585200 0.991800
16.615600 1.000200
16.646000 1.002300
16.676400 1.003800
16.706800 1.010100
16.737200 1.015200
16.767600 1.013500
16.798000 1.012700
16.828400 1.014500
16.858800 1.021000
16.889200 1.030200
16.919600 1.042600
16.950000 1.058500
16.980400 1.126100
17.010800 1.234300
17.041200 1.200400
17.071600 1.200200
17.102000 1.199300
17.132400 1.204200
17.162800 1.208900
17.193200 1.217800
17.223600 1.211100
17.254000 1.195200
17.284400 1.191800
17.314800 1.192900
17.345200 1.191200
17.375600 1.187000
17.406000 1.173900
17.436400 1.164000
17.466800 1.146300
17.497200 1.115400
17.527600 1.106600
17.558000 1.100400
17.588400 1.115400
17.618800 1.158400
17.649200 1.289400
17.679600 1.280100
17.710000 1.236100
17.740400 1.212800
17.770800 1.216900
17.801300 1.224600
17.831700 1.284000
17.862100 1.297000
17.892500 1.304300
17.922900 1.311200
17.953300 1.383100
17.983700 1.703100
18.014100 1.657500
18.044500 1.383100
18.074900 1.195300
18.105300 1.197900
18.135700 1.239400
18.166100 1.298800
18.196500 1.368200
18.226900 1.434600
18.257300 1.400100
18.287700 1.369100
18.318100 1.332200
18.348500 1.309800
18.378900 1.337300
18.409300 1.361400
18.439700 1.386000
18.470100 1.407100
18.500500 1.566300
18.530900 1.588200
18.561300 1.553700
18.591700 1.365400
18.622100 1.394900
18.652500 1.440600
18.682900 1.430600
18.713300 1.416000
18.743700 1.408000
18.774100 1.419700
18.804500 1.452100
18.834900 1.495000
18.865300 1.494300
18.895700 1.425600
18.926100 1.613000
18.956500 1.524100
18.986900 1.469800
19.017300 1.511200
19.047700 1.566700
19.078100 1.551400
19.108500 1.533100
19.138900 1.473700
19.169300 1.484200
19.199700 1.541300
19.230100 1.547100
19.260600 1.518400
19.291000 1.489800
19.321400 1.449500
19.351800 1.438600
19.382200 1.435600
19.412600 1.455500
19.443000 1.480100
19.473400 1.508200
19.503800 1.509800
19.534200 1.508200
19.564600 1.511300
19.595000 1.510400
19.625400 1.503600
19.655800 1.496100
19.686200 1.490200
19.716600 1.485700
19.747000 1.459300
19.777400 1.429600
19.807800 1.378700
19.838200 1.336800
19.868600 1.302200
19.899000 1.273400
19.929400 1.249500
19.959800 1.229400
19.990200 1.210400
20.020600 1.196600
20.051000 1.180600
20.081400 1.141800
20.111800 1.116100
20.142200 1.092900
20.172600 1.080800
20.203000 1.069100
20.233400 1.054800
20.263800 1.038400
20.294200 1.021600
20.324600 1.006300
20.355000 0.995000
20.385400 0.983100
20.415800 0.873300
20.446200 0.846400
20.476600 0.833500
20.507000 0.819600
20.537400 0.804700
20.567800 0.789600
20.598200 0.775900
20.628600 0.755100
20.659000 0.742000
20.689400 0.734700
20.719900 0.746200
20.750300 0.798700
20.780700 0.754100
20.811100 0.725000
20.841500 0.725800
20.871900 0.726900
20.902300 0.728100
20.932700 0.729100
20.963100 0.729600
20.993500 0.729800
21.023900 0.714500
21.054300 0.712300
21.084700 0.733100
21.115100 0.723500
21.145500 0.711100
21.175900 0.709500
21.206300 0.709200
21.236700 0.708800
21.267100 0.708300
21.297500 0.710100
21.327900 0.716000
21.358300 0.725800
21.388700 0.735800
21.419100 0.745200
21.449500 0.753500
21.479900 0.759400
21.510300 0.763200
21.540700 0.767600
21.571100 0.776500
21.601500 0.803100
21.631900 0.839500
21.662300 0.842400
21.692700 0.852400
21.723100 0.855300
21.753500 0.857800
21.783900 0.866200
21.814300 0.887700
21.844700 0.908600
21.875100 0.938200
21.905500 0.999300
21.935900 1.073900
21.966300 1.156700
21.996700 1.244300
22.027100 1.353500
22.057500 1.461700
22.087900 1.614700
22.118300 1.917100
22.148700 1.628600
22.179200 1.557000
22.209600 1.484700
22.240000 1.404100
22.270400 1.319100
22.300800 1.257500
22.331200 1.211700
22.361600 1.184900
22.392000 1.172300
22.422400 1.155000
22.452800 1.137100
22.483200 1.125900
22.513600 1.126800
22.544000 1.143700
22.574400 1.167700
22.604800 1.196800
22.635200 1.288000
22.665600 1.382500
22.696000 1.500400
22.726400 1.556200
22.756800 1.503100
22.787200 1.441200
22.817600 1.384300
22.848000 1.348500
22.878400 1.344200
22.908800 1.339700
22.939200 1.326200
22.969600 1.321400
23.000000 1.316200
23.030400 1.310800
23.060800 1.305700
23.091200 1.300200
23.121600 1.293300
23.152000 1.284000
23.182400 1.277300
23.212800 1.274700
23.243200 1.275200
23.273600 1.273600
23.304000 1.270500
23.334400 1.268700
23.364800 1.269300
23.395200 1.270600
23.425600 1.269500
23.456000 1.268100
23.486400 1.267100
23.516800 1.266100
23.547200 1.264700
23.577600 1.260200
23.608000 1.257600
23.638500 1.269800
23.668900 1.247000
23.699300 1.212400
23.729700 1.200000
23.760100 1.188400
23.790500 1.177600
23.820900 1.167400
23.851300 1.156300
23.881700 1.144000
23.912100 1.130900
23.942500 1.116500
23.972900 1.098800
24.003300 1.082000
24.033700 1.063400
24.064100 1.047200
24.094500 1.032200
24.124900 1.016600
24.155300 1.000500
24.185700 0.989100
24.216100 0.982400
24.246500 0.981700
24.276900 0.985500
24.307300 0.989500
24.337700 0.997700
24.368100 1.007600
24.398500 1.021800
24.428900 1.038200
24.459300 1.069900
24.489700 1.115500
24.520100 1.151500
24.550500 1.126600
24.580900 1.100900
24.611300 1.078100
24.641700 1.060100
24.672100 1.046700
24.702500 1.037600
24.732900 1.029600
24.763300 1.023500
24.793700 1.025300
24.824100 1.024200
24.854500 1.021000
24.884900 1.010300
24.915300 1.013800
24.945700 1.013800
24.976100 0.997000
25.006500 0.972900
25.036900 0.955200
25.067300 0.939600
25.097800 0.923700
25.128200 0.909600
25.158600 0.898600
25.189000 0.912500
25.219400 0.955800
25.249800 1.020000
25.280200 1.069200
25.310600 1.125100
25.341000 1.159900
25.371400 1.212500
25.401800 1.262700
25.432200 1.295400
25.462600 1.339900
25.493000 1.392200
25.523400 1.497900
25.553800 1.600000
25.584200 1.654000
25.614600 1.724100
25.645000 1.820400
25.675400 1.916000
25.705800 1.995500
25.736200 2.059600
25.766600 2.009100
25.797000 1.988200
25.827400 1.924300
25.857800 1.867500
25.888200 1.834300
25.918600 1.763200
25.949000 1.718400
25.979400 1.655200
26.009800 1.559500
26.040200 1.463500
26.070600 1.397700
26.101000 1.354800
26.131400 1.306800
26.161800 1.253600
26.192200 1.224100
26.222600 1.207900
26.253000 1.195700
26.283400 1.190500
26.313800 1.191000
26.344200 1.206100
26.374600 1.217700
26.405000 1.202700
26.435400 1.177000
26.465800 1.149300
26.496200 1.130100
26.526600 1.113100
26.557100 1.095900
26.587500 1.047100
26.617900 1.029700
26.648300 1.013300
26.678700 1.001800
26.709100 1.000000
26.739500 1.003200
26.769900 1.010300
26.800300 1.017700
26.830700 1.023000
26.861100 1.030800
26.891500 1.038800
26.921900 1.076500
26.952300 1.196900
26.982700 1.296500
27.013100 1.324100
27.043500 1.294500
27.073900 1.279000
27.104300 1.297500
27.134700 1.309300
27.165100 1.345700
27.195500 1.389800
27.225900 1.427500
27.256300 1.479900
27.286700 1.517900
27.317100 1.544600
27.347500 1.566300
27.377900 1.573600
27.408300 1.577300
27.438700 1.586400
27.469100 1.551500
27.499500 1.524500
27.529900 1.515500
27.560300 1.631500
27.590700 1.610300
27.621100 1.583700
27.651500 1.560700
27.681900 1.535200
27.712300 1.547800
27.742700 1.451100
27.773100 1.351100
27.803500 1.329000
27.833900 1.503600
27.864300 1.463100
27.894700 1.373600
27.925100 1.364000
27.955500 1.357600
27.985900 1.364000
28.016400 1.375100
28.046800 1.392100
28.077200 1.393900
28.107600 1.350100
28.138000 1.325500
28.168400 1.327800
28.198800 1.333700
28.229200 1.337700
28.259600 1.360100
28.290000 1.297800
28.320400 1.257100
28.350800 1.237500
28.381200 1.209400
28.411600 1.177100
28.442000 1.145100
28.472400 1.193600
28.502800 1.238800
28.533200 1.123200
28.563600 1.087600
28.594000 1.064900
28.624400 1.048600
28.654800 0.988800
28.685200 0.869900
28.715600 0.756400
28.746000 0.662800
28.776400 0.597400
28.806800 0.525900
28.837200 0.522600
28.867600 0.385700
28.898000 0.338500
28.928400 0.319700
28.958800 0.309100
28.989200 0.299100
29.019600 0.312000
29.050000 0.303500
29.080400 0.296300
29.110800 0.290300
29.141200 0.285900
29.171600 0.288500
29.202000 0.290400
29.232400 0.321000
29.262800 0.366000
29.293200 0.412600
29.323600 0.492100
29.354000 0.534500
29.384400 0.584800
29.414800 0.728900
29.445200 0.793100
29.475700 0.741700
29.506100 0.725700
29.536500 0.770200
29.566900 0.824200
29.597300 0.917400
29.627700 1.044700
29.658100 1.077200
29.688500 1.125900
29.718900 1.204400
29.749300 1.410600
29.779700 1.365900
29.810100 1.373200
29.840500 1.355000
29.870900 1.320400
29.901300 1.288200
29.931700 1.246600
29.962100 1.244400
29.992500 1.246500
30.022900 1.289600
30.053300 1.316500
30.083700 1.339200
30.114100 1.353400
30.144500 1.358400
30.174900 1.353900
30.205300 1.345800
30.235700 1.336800
30.266100 1.310800
30.296500 1.275900
30.326900 1.263600
30.357300 1.273300
30.387700 1.284200
30.418100 1.309600
30.448500 1.336300
30.478900 1.368400
30.509300 1.408000
30.539700 1.451300
30.570100 1.505300
30.600500 1.592000
30.630900 1.762100
30.661300 1.931000
30.691700 2.109900
30.722100 2.201500
30.752500 2.206600
30.782900 2.213200
30.813300 2.235800
30.843700 2.383200
30.874100 2.452600
30.904500 2.154500
30.935000 2.116700
30.965400 2.291800
30.995800 2.402900
31.026200 2.416000
31.056600 2.326700
31.087000 2.282900
31.117400 2.338700
31.147800 2.337800
31.178200 2.309800
31.208600 2.323700
31.239000 2.461800
31.269400 2.346100
31.299800 2.247900
31.330200 2.181600
31.360600 2.166300
31.391000 2.039500
31.421400 1.830200
31.451800 1.763600
31.482200 1.715000
31.512600 1.685400
31.543000 1.705100
31.573400 1.733000
31.603800 1.806500
31.634200 1.898800
31.664600 1.942400
31.695000 1.748400
31.725400 1.541000
31.755800 1.492800
31.786200 1.447600
31.816600 1.420400
31.847000 1.408300
31.877400 1.405600
31.907800 1.413100
31.938200 1.430100
31.968600 1.449100
31.999000 1.571700
32.029400 1.695400
32.059800 1.804800
32.090200 1.844100
32.120600 1.904000
32.151000 1.868700
32.181400 1.799900
32.211800 1.799100
32.242200 1.764100
32.272600 1.761100
32.303000 1.791500
32.333400 1.799600
32.363800 1.774400
32.394200 1.769100
32.424700 1.795500
32.455100 1.794600
32.485500 1.771700
32.515900 1.774000
32.546300 1.663400
32.576700 1.567100
32.607100 1.538700
32.637500 1.517600
32.667900 1.501100
32.698300 1.515200
32.728700 1.534400
32.759100 1.570800
32.789500 1.618500
32.819900 1.628900
32.850300 1.655000
32.880700 1.694100
32.911100 1.733500
32.941500 1.805300
32.971900 1.921400
33.002300 2.072000
33.032700 2.508700
33.063100 2.214000
33.093500 2.258600
33.123900 2.280600
33.154300 2.294300
33.184700 2.285400
33.215100 2.238500
33.245500 2.112600
33.275900 2.016300
33.306300 1.961400
33.336700 1.897200
33.367100 1.821800
33.397500 1.753100
33.427900 1.692800
33.458300 1.679600
33.488700 1.716000
33.519100 1.729700
33.549500 1.999800
33.579900 2.035300
33.610300 2.010800
33.640700 1.991400
33.671100 2.013200
33.701500 1.999800
33.731900 1.966200
33.762300 1.913200
33.792700 1.857900
33.823100 1.810600
33.853500 1.789700
33.884000 1.748600
33.914400 1.708200
33.944800 1.693000
33.975200 1.670300
34.005600 1.649200
34.036000 1.626900
34.066400 1.614200
34.096800 1.612400
34.127200 1.607000
34.157600 1.603000
34.188000 1.600000
34.218400 1.601100
34.248800 1.604300
34.279200 1.612700
34.309600 1.621800
34.340000 1.630900
34.370400 1.624200
34.400800 1.629100
34.431200 1.636600
34.461600 1.648200
34.492000 1.683700
34.522400 1.735700
34.552800 1.770600
34.583200 1.812100
34.613600 1.831600
34.644000 1.832800
34.674400 1.734100
34.704800 1.719600
34.735200 1.700900
34.765600 1.659900
34.796000 1.680100
34.826400 1.749700
34.856800 1.606400
34.887200 1.569300
34.917600 1.531200
34.948000 1.575300
34.978400 1.563000
35.008800 1.563400
35.039200 1.562500
35.069600 1.577100
35.100000 1.536000
35.130400 1.519100
35.160800 1.504600
35.191200 1.501900
35.221600 1.496000
35.252000 1.489600
35.282400 1.486800
35.312800 1.502300
35.343300 1.622100
35.373700 1.708100
35.404100 1.590800
35.434500 1.628600
35.464900 1.673600
35.495300 1.724400
35.525700 1.780700
35.556100 1.844300
35.586500 1.898300
35.616900 1.774000
35.647300 1.807200
35.677700 1.817400
35.708100 1.804100
35.738500 1.748900
35.768900 1.626000
35.799300 1.614900
35.829700 1.608700
35.860100 1.597000
35.890500 1.583800
35.920900 1.590800
35.951300 1.593400
35.981700 1.626800
36.012100 1.675900
36.042500 1.709900
36.072900 1.728300
36.103300 1.739200
36.133700 1.773300
36.164100 1.635900
36.194500 1.639600
36.224900 1.649200
36.255300 1.644100
36.285700 1.625300
36.316100 1.648100
36.346500 1.688800
36.376900 1.656000
36.407300 1.630100
36.437700 1.630600
36.468100 1.650000
36.498500 1.707300
36.528900 1.789700
36.559300 1.734500
36.589700 1.710100
36.620100 1.751100
36.650500 1.802000
36.680900 1.817500
36.711300 1.852300
36.741700 1.871800
36.772100 1.884200
36.802600 1.874100
36.833000 1.821900
36.863400 1.799800
36.893800 1.747400
36.924200 1.688300
36.954600 1.666100
36.985000 1.647000
37.015400 1.635600
37.045800 1.690300
37.076200 1.701500
37.106600 1.673600
37.137000 1.574100
37.167400 1.489100
37.197800 1.450400
37.228200 1.448500
37.258600 1.456500
37.289000 1.444200
37.319400 1.413700
37.349800 1.396100
37.380200 1.403800
37.410600 1.423700
37.441000 1.430600
37.471400 1.469600
37.501800 1.526600
37.532200 1.585600
37.562600 1.645400
37.593000 1.763500
37.623400 1.844500
37.653800 1.946700
37.684200 2.068400
37.714600 2.054900
37.745000 2.273400
37.775400 2.109700
37.805800 1.964300
37.836200 1.875200
37.866600 1.865700
37.897000 1.859600
37.927400 1.966800
37.957800 1.981000
37.988200 2.055800
38.018600 2.014300
38.049000 2.038000
38.079400 2.163800
38.109800 2.176300
38.140200 2.169900
38.170600 2.051500
38.201000 1.871500
38.231400 1.783100
38.261900 1.735900
38.292300 1.705000
38.322700 1.668000
38.353100 1.685800
38.383500 1.648900
38.413900 1.646800
38.444300 1.641200
38.474700 1.657600
38.505100 1.671300
38.535500 1.691300
38.565900 1.721100
38.596300 1.737000
38.626700 1.781600
38.657100 2.092400
38.687500 1.760300
38.717900 1.712100
38.748300 1.702900
38.778700 1.708500
38.809100 1.698400
38.839500 1.687200
38.869900 1.683400
38.900300 1.711500
38.930700 1.808400
38.961100 1.834800
38.991500 1.858100
39.021900 1.882900
39.052300 1.941700
39.082700 1.991900
39.113100 1.979300
39.143500 1.959900
39.173900 1.922000
39.204300 1.907900
39.234700 1.983000
39.265100 1.963300
39.295500 1.962300
39.325900 2.009900
39.356300 2.188800
39.386700 2.241200
39.417100 2.311900
39.447500 2.318400
39.477900 2.348900
39.508300 2.390600
39.538700 2.431200
39.569100 2.498500
39.599500 2.621700
39.629900 2.832100
39.660300 3.088300
39.690700 3.372200
39.721200 3.627700
39.751600 3.760700
39.782000 3.888000
39.812400 4.116500
39.842800 4.469900
39.873200 4.802300
39.903600 4.907300
39.934000 5.348800
39.964400 5.755200
39.994800 6.271000
40.025200 7.131500
40.055600 7.805000
40.086000 9.298200
40.116400 9.071000
40.146800 13.915200
40.177200 40.318300
40.207600 17.369900
40.238000 18.385000
40.268400 29.428600
40.298800 25.425700
40.329200 15.831000
40.359600 15.830800
40.390000 15.338100
40.420400 15.811000
40.450800 12.221900
40.481200 11.059900
40.511600 11.758200
40.542000 11.779200
40.572400 10.703200
40.602800 9.441600
40.633200 8.385100
40.663600 7.885000
40.694000 6.927100
40.724400 5.835800
40.754800 5.091000
40.785200 4.422000
40.815600 4.113100
40.846000 3.943600
40.876400 3.896100
40.906800 3.916600
40.937200 3.571200
40.967600 3.481100
40.998000 3.536500
41.028400 3.414300
41.058800 3.251600
41.089200 3.280300
41.119600 3.045200
41.150000 3.046200
41.180500 2.947000
41.210900 2.723700
41.241300 2.614800
41.271700 2.588600
41.302100 2.572700
41.332500 2.401800
41.362900 2.243800
41.393300 2.138500
41.423700 2.069600
41.454100 2.013100
41.484500 1.955200
41.514900 1.915400
41.545300 1.878900
41.575700 1.845300
41.606100 1.823500
41.636500 1.797500
41.666900 1.763800
41.697300 1.748800
41.727700 1.725700
41.758100 1.704000
41.788500 1.685100
41.818900 1.674700
41.849300 1.669300
41.879700 1.644000
41.910100 1.585900
41.940500 1.517300
41.970900 1.432500
42.001300 1.412300
42.031700 1.407800
42.062100 1.412900
42.092500 1.429100
42.122900 1.474700
42.153300 1.508800
42.183700 1.514400
42.214100 1.544600
42.244500 1.588100
42.274900 1.664600
42.305300 1.727200
42.335700 1.773400
42.366100 1.821900
42.396500 1.854700
42.426900 1.869600
42.457300 1.843900
42.487700 1.849900
42.518100 1.850100
42.548500 1.870700
42.578900 1.967800
42.609300 2.006500
42.639800 2.016100
42.670200 2.037200
42.700600 2.078600
42.731000 2.121600
42.761400 2.129700
42.791800 2.127400
42.822200 2.114700
42.852600 2.168400
42.883000 2.154500
42.913400 2.091900
42.943800 2.046700
42.974200 2.059700
43.004600 2.143500
43.035000 2.084200
43.065400 2.073400
43.095800 2.056900
43.126200 1.996800
43.156600 1.986400
43.187000 1.942900
43.217400 1.893700
43.247800 1.857100
43.278200 1.841700
43.308600 1.830100
43.339000 1.822800
43.369400 1.819200
43.399800 1.857900
43.430200 1.875000
43.460600 1.881200
43.491000 1.870100
43.521400 1.858500
43.551800 1.843400
43.582200 1.812500
43.612600 1.799000
43.643000 1.792500
43.673400 1.804800
43.703800 1.841900
43.734200 1.888200
43.764600 1.947600
43.795000 2.043600
43.825400 2.183700
43.855800 2.357700
43.886200 2.517100
43.916600 2.627200
43.947000 2.718100
43.977400 2.731800
44.007800 2.803000
44.038200 2.865000
44.068600 2.868100
44.099100 2.882700
44.129500 2.880100
44.159900 2.936200
44.190300 2.886600
44.220700 2.777000
44.251100 2.639700
44.281500 2.498900
44.311900 2.383100
44.342300 2.283000
44.372700 2.256200
44.403100 2.261200
44.433500 2.192000
44.463900 2.065800
44.494300 2.027900
44.524700 2.105400
44.555100 2.160500
44.585500 2.240500
44.615900 2.463600
44.646300 2.511000
44.676700 2.477300
44.707100 2.526600
44.737500 2.461900
44.767900 2.414900
44.798300 2.416600
44.828700 2.450700
44.859100 2.456000
44.889500 2.444700
44.919900 2.450500
44.950300 2.475800
44.980700 2.534900
45.011100 2.575500
45.041500 2.623800
45.071900 2.649300
45.102300 2.580700
45.132700 2.600000
45.163100 2.562700
45.193500 2.506700
45.223900 2.425300
45.254300 2.360500
45.284700 2.336700
45.315100 2.376500
45.345500 2.281400
45.375900 2.271000
45.406300 2.241400
45.436700 2.291400
45.467100 2.396000
45.497500 2.438400
45.527900 2.301900
45.558400 2.178300
45.588800 2.047400
45.619200 1.917600
45.649600 1.799900
45.680000 1.681100
45.710400 1.588500
45.740800 1.524700
45.771200 1.470800
45.801600 1.427100
45.832000 1.379100
45.862400 1.333600
45.892800 1.303300
45.923200 1.280600
45.953600 1.246300
45.984000 1.230100
46.014400 1.238600
46.044800 1.311700
46.075200 1.328100
46.105600 1.320900
46.136000 1.331400
46.166400 1.356200
46.196800 1.384700
46.227200 1.419300
46.257600 1.463700
46.288000 1.525400
46.318400 1.581000
46.348800 1.632300
46.379200 1.677200
46.409600 1.688600
46.440000 1.747900
46.470400 1.798500
46.500800 1.856600
46.531200 1.927100
46.561600 1.997900
46.592000 2.047800
46.622400 2.128700
46.652800 2.223900
46.683200 2.295600
46.713600 2.433900
46.744000 2.463800
46.774400 2.543800
46.804800 3.074100
46.835200 2.439700
46.865600 2.227200
46.896000 2.103600
46.926400 2.077200
46.956800 2.065500
46.987200 2.067800
47.017700 2.102700
47.048100 2.189800
47.078500 2.272100
47.108900 2.387200
47.139300 2.507500
47.169700 2.449400
47.200100 2.378100
47.230500 2.298400
47.260900 2.200200
47.291300 2.109500
47.321700 2.060300
47.352100 2.019200
47.382500 1.947700
47.412900 1.853200
47.443300 1.719500
47.473700 1.637400
47.504100 1.570900
47.534500 1.515500
47.564900 1.462100
47.595300 1.416000
47.625700 1.371500
47.656100 1.332100
47.686500 1.322500
47.716900 1.348200
47.747300 1.358400
47.777700 1.361100
47.808100 1.379600
47.838500 1.505200
47.868900 1.559200
47.899300 1.604900
47.929700 1.748200
47.960100 1.757100
47.990500 1.903600
48.020900 2.107700
48.051300 2.240400
48.081700 2.277400
48.112100 2.296600
48.142500 2.293400
48.172900 2.440800
48.203300 2.314400
48.233700 2.275700
48.264100 2.236400
48.294500 2.166000
48.324900 2.111600
48.355300 2.056700
48.385700 2.036300
48.416100 1.942100
48.446500 1.832900
48.477000 1.761800
48.507400 1.687000
48.537800 1.697900
48.568200 1.718200
48.598600 1.625600
48.629000 1.564500
48.659400 1.584700
48.689800 1.610800
48.720200 1.642800
48.750600 1.679300
48.781000 1.728800
48.811400 1.837400
48.841800 2.006700
48.872200 2.226100
48.902600 2.446700
48.933000 2.760800
48.963400 3.000100
48.993800 3.052200
49.024200 3.004100
49.054600 2.911500
49.085000 2.882500
49.115400 2.878000
49.145800 2.796400
49.176200 2.766600
49.206600 2.862700
49.237000 3.002800
49.267400 3.040900
49.297800 3.045700
49.328200 3.170100
49.358600 2.910500
49.389000 2.744300
49.419400 2.950400
49.449800 2.773500
49.480200 2.700300
49.510600 2.919000
49.541000 3.138900
49.571400 3.234600
49.601800 3.474500
49.632200 4.286200
49.662600 4.517800
49.693000 4.555700
49.723400 4.424100
49.753800 4.284900
49.784200 4.162900
49.814600 4.155100
49.845000 4.161100
49.875400 3.811200
49.905800 3.567300
49.936300 3.444600
49.966700 3.498400
49.997100 3.510300
50.027500 3.073400
50.057900 3.064900
50.088300 3.056400
50.118700 3.086100
50.149100 3.206700
50.179500 3.333000
50.209900 3.275800
50.240300 3.297600
50.270700 3.593500
50.301100 3.489500
50.331500 3.376300
50.361900 3.388600
50.392300 2.995200
50.422700 2.039100
50.453100 1.586100
50.483500 1.171600
50.513900 0.932600
50.544300 0.790700
50.574700 0.663400
50.605100 1.264700
50.635500 0.373100
50.665900 0.302000
50.696300 0.215100
50.726700 0.164400
50.757100 0.128400
50.787500 0.102300
50.817900 0.085700
50.848300 0.074300
50.878700 0.063600
50.909100 0.053700
50.939500 0.044500
50.969900 0.036000
51.000300 0.028200
51.030700 0.021200
51.061100 0.014900
51.091500 0.009300
51.121900 0.004400
51.152300 0.000300
51.182700 0.000000
51.213100 0.000000
51.243500 0.000000
51.273900 0.000000
51.304300 0.000000
51.334700 0.000000
51.365100 0.000000
51.395600 0.000000
51.426000 0.000000
51.456400 0.000000
51.486800 0.000000
51.517200 0.000000
51.547600 0.000000
51.578000 0.000000
51.608400 0.000000
51.638800 0.000000
51.669200 0.000000
51.699600 0.000000
51.730000 0.000000
51.760400 0.000000
51.790800 0.000000
51.821200 0.000000
51.851600 0.000000
51.882000 0.000000
51.912400 0.000000
51.942800 0.000000
51.973200 0.000000
52.003600 0.000000
52.034000 0.000000
52.064400 0.000000
52.094800 0.000000
52.125200 0.000000
52.155600 0.000000
52.186000 0.000000
52.216400 0.000000
52.246800 0.000000
52.277200 0.000000
52.307600 0.000000
52.338000 0.000000
52.368400 0.000000
52.398800 0.000000
52.429200 0.000000
52.459600 0.000000
52.490000 0.000000
52.520400 0.000000
52.550800 0.000000
52.581200 0.000000
52.611600 0.000000
52.642000 0.000000
52.672400 0.000000
52.702800 0.000000
52.733200 0.000000
52.763600 0.000000
52.794000 0.000000
52.824400 0.000000
52.854900 0.000000
52.885300 0.000000
52.915700 0.000000
52.946100 0.000000
52.976500 0.000000
53.006900 0.000000
53.037300 0.000000
53.067700 0.000000
53.098100 0.000000
53.128500 0.000000
53.158900 0.000000
53.189300 0.000000
53.219700 0.000000
53.250100 0.000000
53.280500 0.000000
53.310900 0.000000
53.341300 0.000000
53.371700 0.000000
53.402100 0.000000
53.432500 0.000000
53.462900 0.000000
53.493300 0.000000
53.523700 0.000000
53.554100 0.000000
53.584500 0.000000
53.614900 0.000000
53.645300 0.000000
53.675700 0.000000
53.706100 0.000000
53.736500 0.000000
53.766900 0.000000
53.797300 0.000000
53.827700 0.000000
53.858100 0.000000
53.888500 0.000000
53.918900 0.000000
e
