set title 'mp-1018152 - Density of States'
set xlabel 'Energy (eV)'
set ylabel 'DOS (states/eV)'
set grid
set xrange [-10:10]
set yrange [0:13.342]
set xzeroaxis lt -1
set terminal png size 800,600
set output 'mp-1018152_dos_gnuplot.png'
plot '-' using 1:2 with lines title 'DOS'
-26.066500 0.000000
-26.024200 0.000000
-25.981900 0.000000
-25.939600 0.000000
-25.897200 0.000000
-25.854900 0.000000
-25.812600 0.000000
-25.770300 0.000000
-25.728000 0.000000
-25.685700 0.000000
-25.643400 0.000000
-25.601100 0.000000
-25.558800 0.000000
-25.516500 0.000000
-25.474200 0.000000
-25.431900 0.000000
-25.389600 0.000000
-25.347300 0.000000
-25.305000 0.000000
-25.262700 0.000000
-25.220400 0.000000
-25.178100 0.000000
-25.135800 0.000000
-25.093500 0.000000
-25.051200 0.000000
-25.008900 0.000000
-24.966600 0.000000
-24.924300 0.000000
-24.882000 0.000000
-24.839700 0.000000
-24.797400 0.000000
-24.755100 0.000000
-24.712800 0.000000
-24.670500 0.000000
-24.628200 0.000000
-24.585900 0.000000
-24.543600 0.000000
-24.501300 0.000000
-24.459000 0.000000
-24.416700 0.000000
-24.374400 0.000000
-24.332000 0.000000
-24.289700 0.000000
-24.247400 0.000000
-24.205100 0.000000
-24.162800 0.000000
-24.120500 0.000000
-24.078200 0.000000
-24.035900 0.000000
-23.993600 0.000000
-23.951300 0.000000
-23.909000 0.000000
-23.866700 0.000000
-23.824400 0.000000
-23.782100 0.000000
-23.739800 0.000000
-23.697500 0.000000
-23.655200 0.000000
-23.612900 0.000000
-23.570600 0.000000
-23.528300 0.000000
-23.486000 0.000000
-23.443700 0.000000
-23.401400 0.000000
-23.359100 0.000000
-23.316800 0.000000
-23.274500 0.000000
-23.232200 0.000000
-23.189900 0.000000
-23.147600 0.000000
-23.105300 0.000000
-23.063000 0.000000
-23.020700 0.000000
-22.978400 0.000000
-22.936100 0.000000
-22.893800 0.000000
-22.851500 0.000000
-22.809200 0.000000
-22.766800 0.000000
-22.724500 0.000000
-22.682200 0.000000
-22.639900 0.000000
-22.597600 0.000000
-22.555300 0.000000
-22.513000 0.000000
-22.470700 0.000000
-22.428400 0.000000
-22.386100 0.000000
-22.343800 0.001400
-22.301500 0.086100
-22.259200 1.550000
-22.216900 8.862300
-22.174600 19.969900
-22.132300 30.710500
-22.090000 40.929300
-22.047700 29.396400
-22.005400 9.171400
-21.963100 1.112300
-21.920800 0.044700
-21.878500 0.000500
-21.836200 0.000000
-21.793900 0.000000
-21.751600 0.000000
-21.709300 0.000000
-21.667000 0.000000
-21.624700 0.000000
-21.582400 0.000000
-21.540100 0.000000
-21.497800 0.000000
-21.455500 0.000000
-21.413200 0.000000
-21.370900 0.000000
-21.328600 0.000000
-21.286300 0.000000
-21.244000 0.000000
-21.201600 0.000000
-21.159300 0.000000
-21.117000 0.000000
-21.074700 0.000000
-21.032400 0.000000
-20.990100 0.000000
-20.947800 0.000000
-20.905500 0.000000
-20.863200 0.000000
-20.820900 0.000000
-20.778600 0.000000
-20.736300 0.000000
-20.694000 0.000000
-20.651700 0.000000
-20.609400 0.000000
-20.567100 0.000000
-20.524800 0.000000
-20.482500 0.000000
-20.440200 0.000000
-20.397900 0.000000
-20.355600 0.000000
-20.313300 0.000000
-20.271000 0.000000
-20.228700 0.000000
-20.186400 0.000000
-20.144100 0.000000
-20.101800 0.000000
-20.059500 0.000000
-20.017200 0.000000
-19.974900 0.000000
-19.932600 0.000000
-19.890300 0.000000
-19.848000 0.000000
-19.805700 0.000000
-19.763400 0.000000
-19.721100 0.000000
-19.678700 0.000000
-19.636400 0.000000
-19.594100 0.000000
-19.551800 0.000000
-19.509500 0.000000
-19.467200 0.000000
-19.424900 0.000000
-19.382600 0.000000
-19.340300 0.000000
-19.298000 0.000000
-19.255700 0.000000
-19.213400 0.000000
-19.171100 0.000000
-19.128800 0.000000
-19.086500 0.000000
-19.044200 0.000000
-19.001900 0.000000
-18.959600 0.000000
-18.917300 0.000000
-18.875000 0.000000
-18.832700 0.000000
-18.790400 0.000000
-18.748100 0.000000
-18.705800 0.000000
-18.663500 0.000000
-18.621200 0.000000
-18.578900 0.000000
-18.536600 0.000000
-18.494300 0.000000
-18.452000 0.000000
-18.409700 0.000000
-18.367400 0.000000
-18.325100 0.000000
-18.282800 0.000000
-18.240500 0.000000
-18.198200 0.000000
-18.155900 0.000000
-18.113500 0.000000
-18.071200 0.000000
-18.028900 0.000000
-17.986600 0.000000
-17.944300 0.000000
-17.902000 0.000000
-17.859700 0.000000
-17.817400 0.000000
-17.775100 0.000000
-17.732800 0.000000
-17.690500 0.000000
-17.648200 0.000000
-17.605900 0.000000
-17.563600 0.000000
-17.521300 0.000000
-17.479000 0.000000
-17.436700 0.000000
-17.394400 0.000000
-17.352100 0.000000
-17.309800 0.000000
-17.267500 0.000000
-17.225200 0.000000
-17.182900 0.000000
-17.140600 0.000000
-17.098300 0.000000
-17.056000 0.000000
-17.013700 0.000000
-16.971400 0.000000
-16.929100 0.000000
-16.886800 0.000000
-16.844500 0.000000
-16.802200 0.000000
-16.759900 0.000000
-16.717600 0.000000
-16.675300 0.000000
-16.633000 0.000000
-16.590700 0.000000
-16.548300 0.000000
-16.506000 0.000000
-16.463700 0.000000
-16.421400 0.000000
-16.379100 0.000000
-16.336800 0.000000
-16.294500 0.000000
-16.252200 0.000000
-16.209900 0.000000
-16.167600 0.000000
-16.125300 0.000000
-16.083000 0.000000
-16.040700 0.000000
-15.998400 0.000000
-15.956100 0.000000
-15.913800 0.000000
-15.871500 0.000000
-15.829200 0.000000
-15.786900 0.000000
-15.744600 0.000000
-15.702300 0.000000
-15.660000 0.000000
-15.617700 0.000000
-15.575400 0.000000
-15.533100 0.000000
-15.490800 0.000000
-15.448500 0.000000
-15.406200 0.000000
-15.363900 0.000000
-15.321600 0.000000
-15.279300 0.000000
-15.237000 0.000000
-15.194700 0.000000
-15.152400 0.000000
-15.110100 0.000000
-15.067800 0.000000
-15.025500 0.000000
-14.983100 0.000000
-14.940800 0.000000
-14.898500 0.000000
-14.856200 0.000000
-14.813900 0.000000
-14.771600 0.000000
-14.729300 0.000000
-14.687000 0.000000
-14.644700 0.000000
-14.602400 0.000000
-14.560100 0.000000
-14.517800 0.000000
-14.475500 0.000000
-14.433200 0.000000
-14.390900 0.000000
-14.348600 0.000000
-14.306300 0.000000
-14.264000 0.000000
-14.221700 0.000000
-14.179400 0.000000
-14.137100 0.000000
-14.094800 0.000000
-14.052500 0.000000
-14.010200 0.000000
-13.967900 0.000000
-13.925600 0.000000
-13.883300 0.000000
-13.841000 0.000000
-13.798700 0.000000
-13.756400 0.000000
-13.714100 0.000000
-13.671800 0.000000
-13.629500 0.000000
-13.587200 0.000000
-13.544900 0.000000
-13.502600 0.000000
-13.460300 0.000000
-13.417900 0.000000
-13.375600 0.000000
-13.333300 0.000000
-13.291000 0.000000
-13.248700 0.000000
-13.206400 0.000000
-13.164100 0.000000
-13.121800 0.000000
-13.079500 0.000000
-13.037200 0.000000
-12.994900 0.000000
-12.952600 0.000000
-12.910300 0.000000
-12.868000 0.000000
-12.825700 0.000000
-12.783400 0.000000
-12.741100 0.000000
-12.698800 0.000000
-12.656500 0.000000
-12.614200 0.000000
-12.571900 0.000000
-12.529600 0.000000
-12.487300 0.000000
-12.445000 0.000000
-12.402700 0.000000
-12.360400 0.000000
-12.318100 0.000000
-12.275800 0.000000
-12.233500 0.000000
-12.191200 0.000000
-12.148900 0.000000
-12.106600 0.000000
-12.064300 0.000000
-12.022000 0.000000
-11.979700 0.000000
-11.937400 0.000000
-11.895000 0.000000
-11.852700 0.000000
-11.810400 0.000000
-11.768100 0.000000
-11.725800 0.000000
-11.683500 0.000000
-11.641200 0.000000
-11.598900 0.000000
-11.556600 0.000000
-11.514300 0.000000
-11.472000 0.000000
-11.429700 0.000000
-11.387400 0.000000
-11.345100 0.000000
-11.302800 0.000000
-11.260500 0.000000
-11.218200 0.000000
-11.175900 0.000000
-11.133600 0.000000
-11.091300 0.000000
-11.049000 0.000000
-11.006700 0.000000
-10.964400 0.000000
-10.922100 0.000000
-10.879800 0.000000
-10.837500 0.000000
-10.795200 0.000000
-10.752900 0.000000
-10.710600 0.000000
-10.668300 0.000000
-10.626000 0.000000
-10.583700 0.000000
-10.541400 0.000000
-10.499100 0.000000
-10.456800 0.000000
-10.414500 0.000000
-10.372200 0.000000
-10.329800 0.000000
-10.287500 0.000000
-10.245200 0.000000
-10.202900 0.000000
-10.160600 0.000000
-10.118300 0.000000
-10.076000 0.000000
-10.033700 0.000000
-9.991400 0.000000
-9.949100 0.000000
-9.906800 0.000000
-9.864500 0.000000
-9.822200 0.000000
-9.779900 0.000000
-9.737600 0.000000
-9.695300 0.000000
-9.653000 0.000000
-9.610700 0.000000
-9.568400 0.000000
-9.526100 0.000000
-9.483800 0.000000
-9.441500 0.000000
-9.399200 0.000000
-9.356900 0.000000
-9.314600 0.000000
-9.272300 0.000000
-9.230000 0.000000
-9.187700 0.000000
-9.145400 0.000000
-9.103100 0.000000
-9.060800 0.000000
-9.018500 0.000000
-8.976200 0.000000
-8.933900 0.000000
-8.891600 0.000000
-8.849300 0.000000
-8.807000 0.000000
-8.764600 0.000000
-8.722300 0.000000
-8.680000 0.000000
-8.637700 0.000000
-8.595400 0.000000
-8.553100 0.000000
-8.510800 0.000000
-8.468500 0.000000
-8.426200 0.000000
-8.383900 0.000000
-8.341600 0.000000
-8.299300 0.000000
-8.257000 0.000000
-8.214700 0.000000
-8.172400 0.000000
-8.130100 0.000000
-8.087800 0.000000
-8.045500 0.000000
-8.003200 0.000000
-7.960900 0.000000
-7.918600 0.000000
-7.876300 0.000000
-7.834000 0.000000
-7.791700 0.000000
-7.749400 0.000000
-7.707100 0.000000
-7.664800 0.000000
-7.622500 0.000000
-7.580200 0.000000
-7.537900 0.000000
-7.495600 0.000000
-7.453300 0.000000
-7.411000 0.000000
-7.368700 0.000000
-7.326400 0.000000
-7.284100 0.000000
-7.241800 0.000000
-7.199400 0.000000
-7.157100 0.000000
-7.114800 0.000000
-7.072500 0.000000
-7.030200 0.000000
-6.987900 0.000000
-6.945600 0.000000
-6.903300 0.000000
-6.861000 0.000000
-6.818700 0.000000
-6.776400 0.000000
-6.734100 0.000000
-6.691800 0.000000
-6.649500 0.000000
-6.607200 0.000000
-6.564900 0.000000
-6.522600 0.000000
-6.480300 0.000000
-6.438000 0.000000
-6.395700 0.000000
-6.353400 0.000000
-6.311100 0.000000
-6.268800 0.000000
-6.226500 0.000000
-6.184200 0.000000
-6.141900 0.000000
-6.099600 0.000000
-6.057300 0.000000
-6.015000 0.000000
-5.972700 0.000000
-5.930400 0.000000
-5.888100 0.000000
-5.845800 0.000000
-5.803500 0.000000
-5.761200 0.000000
-5.718900 0.000000
-5.676500 0.000000
-5.634200 0.000000
-5.591900 0.000000
-5.549600 0.000000
-5.507300 0.000000
-5.465000 0.000000
-5.422700 0.000000
-5.380400 0.000000
-5.338100 0.000000
-5.295800 0.000000
-5.253500 0.000000
-5.211200 0.000000
-5.168900 0.000000
-5.126600 0.000000
-5.084300 0.000000
-5.042000 0.000000
-4.999700 0.000000
-4.957400 0.000000
-4.915100 0.000000
-4.872800 0.000000
-4.830500 0.000000
-4.788200 0.000000
-4.745900 0.000000
-4.703600 0.000000
-4.661300 0.000000
-4.619000 0.000000
-4.576700 0.000000
-4.534400 0.000000
-4.492100 0.000000
-4.449800 0.000000
-4.407500 0.000000
-4.365200 0.000000
-4.322900 0.000000
-4.280600 0.000000
-4.238300 0.000000
-4.196000 0.000000
-4.153700 0.000000
-4.111300 0.000000
-4.069000 0.000000
-4.026700 0.000000
-3.984400 0.000000
-3.942100 0.000000
-3.899800 0.000300
-3.857500 0.004800
-3.815200 0.020200
-3.772900 0.031600
-3.730600 0.050300
-3.688300 0.091000
-3.646000 0.157400
-3.603700 0.178000
-3.561400 0.100500
-3.519100 0.036300
-3.476800 0.097900
-3.434500 0.225700
-3.392200 0.239200
-3.349900 0.174500
-3.307600 0.182200
-3.265300 0.291200
-3.223000 0.303800
-3.180700 0.177400
-3.138400 0.112700
-3.096100 0.173200
-3.053800 0.347400
-3.011500 0.349600
-2.969200 0.224300
-2.926900 0.196300
-2.884600 0.274600
-2.842300 0.350200
-2.800000 0.289300
-2.757700 0.288900
-2.715400 0.473300
-2.673100 0.560300
-2.630800 0.553800
-2.588500 0.426400
-2.546100 0.210900
-2.503800 0.135100
-2.461500 0.245900
-2.419200 0.313300
-2.376900 0.439900
-2.334600 0.604600
-2.292300 0.634600
-2.250000 0.473200
-2.207700 0.575400
-2.165400 0.749900
-2.123100 0.698900
-2.080800 0.610100
-2.038500 0.698400
-1.996200 0.633500
-1.953900 0.543500
-1.911600 0.556800
-1.869300 0.606600
-1.827000 0.805900
-1.784700 1.209700
-1.742400 1.506800
-1.700100 1.535200
-1.657800 1.367400
-1.615500 1.578900
-1.573200 1.750100
-1.530900 1.690700
-1.488600 2.544700
-1.446300 3.416400
-1.404000 3.484700
-1.361700 3.436700
-1.319400 3.958000
-1.277100 5.216200
-1.234800 6.195600
-1.192500 6.693100
-1.150200 6.395900
-1.107900 5.162900
-1.065600 5.409100
-1.023300 6.723200
-0.980900 6.828600
-0.938600 5.932100
-0.896300 5.866400
-0.854000 6.424400
-0.811700 6.973200
-0.769400 8.776900
-0.727100 10.687100
-0.684800 11.114000
-0.642500 9.781800
-0.600200 8.039000
-0.557900 8.252000
-0.515600 9.616900
-0.473300 9.524700
-0.431000 9.360800
-0.388700 9.418400
-0.346400 8.820600
-0.304100 8.412200
-0.261800 7.916100
-0.219500 6.645300
-0.177200 5.487400
-0.134900 4.099200
-0.092600 3.525300
-0.050300 4.637500
-0.008000 4.433600
0.034300 3.072900
0.076600 2.703900
0.118900 3.158600
0.161200 3.942900
0.203500 4.481300
0.245800 4.689300
0.288100 5.467900
0.330400 7.183800
0.372700 8.537100
0.415000 9.492900
0.457300 11.402200
0.499600 12.129300
0.541900 10.204200
0.584300 8.287300
0.626600 6.939600
0.668900 6.147300
0.711200 5.900800
0.753500 6.019400
0.795800 5.530700
0.838100 5.532100
0.880400 6.376100
0.922700 7.323200
0.965000 7.890400
1.007300 7.607200
1.049600 7.988000
1.091900 8.919100
1.134200 8.704100
1.176500 7.720500
1.218800 6.786600
1.261100 6.279200
1.303400 5.783500
1.345700 4.707500
1.388000 4.374700
1.430300 4.243500
1.472600 3.614700
1.514900 2.963500
1.557200 2.368000
1.599500 2.297500
1.641800 2.268400
1.684100 2.450700
1.726400 2.500500
1.768700 2.180100
1.811000 2.453600
1.853300 3.307300
1.895600 3.164400
1.937900 2.228100
1.980200 1.127100
2.022500 0.545400
2.064800 0.786300
2.107200 1.267800
2.149500 1.390000
2.191800 1.148500
2.234100 0.987500
2.276400 1.072400
2.318700 1.234100
2.361000 1.390900
2.403300 1.276500
2.445600 1.012300
2.487900 0.937900
2.530200 1.128200
2.572500 1.394900
2.614800 1.183900
2.657100 0.957600
2.699400 0.873200
2.741700 0.673200
2.784000 0.672000
2.826300 1.065900
2.868600 1.329200
2.910900 1.341700
2.953200 1.004400
2.995500 0.649600
3.037800 0.543900
3.080100 0.751500
3.122400 1.227500
3.164700 1.334800
3.207000 0.921500
3.249300 0.426700
3.291600 0.462100
3.333900 0.711500
3.376200 1.018900
3.418500 1.010500
3.460800 0.750900
3.503100 0.836600
3.545400 1.080200
3.587700 1.156400
3.630000 1.196200
3.672400 1.026900
3.714700 0.599300
3.757000 0.474800
3.799300 0.874600
3.841600 1.340000
3.883900 1.631200
3.926200 1.518500
3.968500 1.243400
4.010800 1.119300
4.053100 1.050900
4.095400 1.166800
4.137700 1.595800
4.180000 1.237400
4.222300 0.810200
4.264600 0.968700
4.306900 1.255100
4.349200 1.434900
4.391500 1.218100
4.433800 0.999400
4.476100 0.802800
4.518400 0.558200
4.560700 0.539700
4.603000 0.553500
4.645300 0.836500
4.687600 1.452600
4.729900 1.226600
4.772200 0.753800
4.814500 0.768100
4.856800 1.306700
4.899100 1.447600
4.941400 1.140600
4.983700 1.295500
5.026000 1.247500
5.068300 1.019100
5.110600 0.754300
5.152900 0.580900
5.195200 0.645900
5.237600 0.549700
5.279900 0.609900
5.322200 0.635000
5.364500 0.633600
5.406800 0.371500
5.449100 0.293300
5.491400 0.549000
5.533700 0.922700
5.576000 1.197900
5.618300 1.073500
5.660600 0.812200
5.702900 0.518200
5.745200 0.342200
5.787500 0.361200
5.829800 0.511700
5.872100 0.710500
5.914400 1.188400
5.956700 1.790700
5.999000 1.880400
6.041300 1.348800
6.083600 1.107400
6.125900 1.236200
6.168200 1.586700
6.210500 1.694500
6.252800 2.003200
6.295100 2.575900
6.337400 2.765200
6.379700 2.590900
6.422000 2.487400
6.464300 2.526700
6.506600 2.200300
6.548900 2.049400
6.591200 1.458500
6.633500 1.415500
6.675800 2.210900
6.718100 2.146600
6.760400 1.767200
6.802800 1.815800
6.845100 1.868600
6.887400 2.224100
6.929700 2.349300
6.972000 2.469700
7.014300 2.389900
7.056600 2.200400
7.098900 2.149400
7.141200 1.912700
7.183500 2.038300
7.225800 2.819000
7.268100 3.424500
7.310400 3.941200
7.352700 3.752100
7.395000 3.697600
7.437300 3.921800
7.479600 4.114000
7.521900 4.217300
7.564200 3.538700
7.606500 2.407100
7.648800 2.137400
7.691100 2.321100
7.733400 2.714600
7.775700 3.477800
7.818000 3.865800
7.860300 3.458000
7.902600 3.640500
7.944900 4.807500
7.987200 4.713600
8.029500 3.329700
8.071800 2.546800
8.114100 2.543300
8.156400 2.401300
8.198700 2.169400
8.241000 1.928100
8.283300 1.657700
8.325700 1.356900
8.368000 1.266300
8.410300 1.312800
8.452600 1.413500
8.494900 1.400200
8.537200 1.080100
8.579500 1.088100
8.621800 1.574300
8.664100 1.547800
8.706400 0.932700
8.748700 0.948100
8.791000 1.668600
8.833300 2.144000
8.875600 1.552500
8.917900 1.441400
8.960200 2.313500
9.002500 2.510200
9.044800 2.116400
9.087100 2.082000
9.129400 1.779400
9.171700 1.931700
9.214000 2.605600
9.256300 2.575100
9.298600 1.909700
9.340900 1.472200
9.383200 1.489100
9.425500 1.587700
9.467800 1.791000
9.510100 1.500000
9.552400 0.987200
9.594700 0.762500
9.637000 0.783900
9.679300 0.754400
9.721600 0.536700
9.763900 0.266100
9.806200 0.102400
9.848500 0.109100
9.890900 0.458500
9.933200 0.865500
9.975500 0.828300
10.017800 0.673800
10.060100 0.745300
10.102400 1.320200
10.144700 1.921100
10.187000 1.863000
10.229300 1.807600
10.271600 1.704000
10.313900 1.943800
10.356200 2.558700
10.398500 2.413600
10.440800 1.836600
10.483100 1.630600
10.525400 1.921400
10.567700 2.162800
10.610000 1.972400
10.652300 1.730900
10.694600 1.430000
10.736900 1.246900
10.779200 1.437600
10.821500 1.264200
10.863800 0.860800
10.906100 0.809100
10.948400 1.048900
10.990700 1.326800
11.033000 1.696000
11.075300 1.415600
11.117600 1.027400
11.159900 1.252900
11.202200 1.356900
11.244500 1.395500
11.286800 1.559900
11.329100 1.329300
11.371400 0.938800
11.413700 1.062600
11.456100 1.512600
11.498400 1.820400
11.540700 1.721300
11.583000 2.050700
11.625300 2.268700
11.667600 2.249800
11.709900 2.395700
11.752200 1.809900
11.794500 1.105600
11.836800 1.011700
11.879100 1.068000
11.921400 1.300300
11.963700 1.369700
12.006000 1.528100
12.048300 1.297500
12.090600 0.995600
12.132900 1.270000
12.175200 1.530600
12.217500 1.634900
12.259800 2.021800
12.302100 2.249700
12.344400 1.629500
12.386700 1.133800
12.429000 1.053000
12.471300 1.081100
12.513600 1.135600
12.555900 1.311700
12.598200 1.581500
12.640500 1.483900
12.682800 1.260900
12.725100 1.287300
12.767400 1.828300
12.809700 2.351200
12.852000 2.378800
12.894300 2.649400
12.936600 2.909300
12.978900 2.435100
13.021300 2.242300
13.063600 2.020100
13.105900 1.532100
13.148200 1.176600
13.190500 1.239600
13.232800 1.877800
13.275100 2.313900
13.317400 1.915900
13.359700 1.267700
13.402000 1.086500
13.444300 1.350300
13.486600 1.745400
13.528900 1.886200
13.571200 1.729000
13.613500 1.264900
13.655800 0.960500
13.698100 0.879100
13.740400 0.869400
13.782700 1.214700
13.825000 1.566000
13.867300 1.457000
13.909600 1.439700
13.951900 1.610800
13.994200 1.289200
14.036500 0.760800
14.078800 0.845900
14.121100 1.257400
14.163400 1.648500
14.205700 1.881300
14.248000 1.920800
14.290300 1.953700
14.332600 1.895400
14.374900 1.517100
14.417200 1.498600
14.459500 1.733700
14.501800 2.026900
14.544100 2.135300
14.586500 1.958300
14.628800 1.749000
14.671100 1.472100
14.713400 1.130400
14.755700 1.098800
14.798000 1.342300
14.840300 1.516800
14.882600 1.405300
14.924900 0.997800
14.967200 1.154100
15.009500 1.457000
15.051800 1.123400
15.094100 1.142800
15.136400 1.342800
15.178700 1.397900
15.221000 1.745400
15.263300 1.957900
15.305600 1.945000
15.347900 1.902100
15.390200 1.828700
15.432500 1.851300
15.474800 2.042300
15.517100 2.153600
15.559400 1.796400
15.601700 1.874900
15.644000 2.395400
15.686300 2.684100
15.728600 2.503300
15.770900 2.113000
15.813200 1.617200
15.855500 1.473900
15.897800 1.854000
15.940100 2.146100
15.982400 2.012100
16.024700 1.559700
16.067000 1.229600
16.109400 1.370300
16.151700 2.123200
16.194000 2.392800
16.236300 1.838100
16.278600 1.317900
16.320900 1.620100
16.363200 2.027700
16.405500 1.734400
16.447800 1.176900
16.490100 1.334200
16.532400 2.098000
16.574700 2.487700
16.617000 2.311400
16.659300 2.205700
16.701600 2.271500
16.743900 2.732700
16.786200 2.624700
16.828500 1.796100
16.870800 1.267900
16.913100 1.400400
16.955400 1.861900
16.997700 2.652800
17.040000 2.974000
17.082300 2.413400
17.124600 2.135700
17.166900 2.248800
17.209200 2.098100
17.251500 1.948800
17.293800 1.984600
17.336100 2.134000
17.378400 2.318700
17.420700 2.401600
17.463000 2.664400
17.505300 2.553300
17.547600 2.059000
17.589900 1.435600
17.632200 1.333100
17.674600 1.552200
17.716900 1.678900
17.759200 1.915600
17.801500 2.383700
17.843800 2.518100
17.886100 2.494700
17.928400 2.259100
17.970700 1.532900
18.013000 1.182100
18.055300 1.495500
18.097600 1.808400
18.139900 1.747500
18.182200 1.839100
18.224500 1.942200
18.266800 1.920900
18.309100 1.637500
18.351400 1.391300
18.393700 1.210600
18.436000 1.547200
18.478300 2.047000
18.520600 1.919100
18.562900 1.750600
18.605200 1.928500
18.647500 2.379700
18.689800 2.915100
18.732100 2.945600
18.774400 2.301400
18.816700 1.963700
18.859000 1.923000
18.901300 2.062200
18.943600 2.255400
18.985900 2.397700
19.028200 2.389800
19.070500 2.110700
19.112800 1.736400
19.155100 1.182800
19.197400 1.048200
19.239800 1.740000
19.282100 2.546400
19.324400 2.919000
19.366700 2.574500
19.409000 2.375800
19.451300 2.715200
19.493600 2.383400
19.535900 1.671700
19.578200 1.576200
19.620500 1.688800
19.662800 1.744600
19.705100 1.685800
19.747400 1.436800
19.789700 1.192400
19.832000 1.067100
19.874300 1.485000
19.916600 1.723000
19.958900 1.314700
20.001200 1.498000
20.043500 2.129500
20.085800 2.188500
20.128100 1.771700
20.170400 1.307400
20.212700 1.239400
20.255000 1.673500
20.297300 1.761600
20.339600 1.489900
20.381900 1.534100
20.424200 1.629600
20.466500 1.648500
20.508800 1.746100
20.551100 1.822300
20.593400 1.950200
20.635700 1.847600
20.678000 1.846900
20.720300 2.354400
20.762600 2.161400
20.805000 2.121200
20.847300 2.503600
20.889600 2.186200
20.931900 1.955100
20.974200 1.935200
21.016500 1.703300
21.058800 1.437400
21.101100 1.349600
21.143400 1.320700
21.185700 1.238300
21.228000 1.616100
21.270300 2.145600
21.312600 2.034200
21.354900 1.802700
21.397200 1.308200
21.439500 0.698400
21.481800 0.999400
21.524100 1.754700
21.566400 1.987700
21.608700 1.811800
21.651000 1.361300
21.693300 1.200100
21.735600 1.362000
21.777900 1.677600
21.820200 2.450300
21.862500 2.614800
21.904800 2.330100
21.947100 2.369400
21.989400 2.528100
22.031700 2.726100
22.074000 2.186600
22.116300 1.737500
22.158600 2.007000
22.200900 2.092500
22.243200 1.718700
22.285500 1.316500
22.327900 1.489200
22.370200 1.935800
22.412500 1.855900
22.454800 1.524900
22.497100 2.059600
22.539400 2.318700
22.581700 1.730600
22.624000 1.503200
22.666300 1.575400
22.708600 1.873400
22.750900 2.126400
22.793200 2.190400
22.835500 1.938800
22.877800 1.566400
22.920100 1.599400
22.962400 1.856700
23.004700 2.239300
23.047000 2.552300
23.089300 2.146700
23.131600 2.055000
23.173900 2.477800
23.216200 2.292200
23.258500 1.700900
23.300800 1.372500
23.343100 1.182400
23.385400 1.590300
23.427700 2.345000
23.470000 2.579800
23.512300 2.691000
23.554600 2.680200
23.596900 2.717900
23.639200 2.723200
23.681500 2.706500
23.723800 2.608400
23.766100 2.251100
23.808400 1.850200
23.850700 1.610500
23.893100 1.899200
23.935400 2.171400
23.977700 2.411300
24.020000 2.816500
24.062300 2.538300
24.104600 1.673100
24.146900 1.334000
24.189200 1.568800
24.231500 1.652000
24.273800 1.517700
24.316100 1.709200
24.358400 2.172000
24.400700 2.480200
24.443000 2.461200
24.485300 2.251400
24.527600 2.026300
24.569900 2.034600
24.612200 2.394700
24.654500 2.546400
24.696800 2.883400
24.739100 2.950300
24.781400 3.029400
24.823700 2.939500
24.866000 2.810800
24.908300 2.269500
24.950600 1.817100
24.992900 2.131400
25.035200 2.611800
25.077500 2.823100
25.119800 2.716900
25.162100 2.590100
25.204400 2.569100
25.246700 2.603800
25.289000 2.433900
25.331300 2.027700
25.373600 1.478100
25.415900 1.862200
25.458300 2.703200
25.500600 2.872000
25.542900 2.378400
25.585200 1.759900
25.627500 1.686000
25.669800 2.284700
25.712100 3.152300
25.754400 3.419500
25.796700 2.770100
25.839000 2.323400
25.881300 2.497100
25.923600 2.316100
25.965900 2.548000
26.008200 2.802100
26.050500 2.379000
26.092800 1.978900
26.135100 1.845100
26.177400 1.931000
26.219700 2.108600
26.262000 2.240000
26.304300 2.062200
26.346600 1.625400
26.388900 1.649200
26.431200 2.059500
26.473500 2.375900
26.515800 2.528800
26.558100 2.207000
26.600400 1.874100
26.642700 1.871200
26.685000 2.137200
26.727300 2.281100
26.769600 2.568900
26.811900 3.026900
26.854200 2.782100
26.896500 2.221600
26.938800 1.772300
26.981100 1.494500
27.023500 1.746600
27.065800 2.720300
27.108100 3.705800
27.150400 3.691800
27.192700 3.211000
27.235000 3.235800
27.277300 3.519600
27.319600 2.970500
27.361900 2.280000
27.404200 2.123300
27.446500 2.498500
27.488800 2.695300
27.531100 2.806300
27.573400 2.805200
27.615700 2.238200
27.658000 2.151900
27.700300 1.866100
27.742600 1.781400
27.784900 2.459100
27.827200 3.420300
27.869500 3.551400
27.911800 3.245800
27.954100 3.158800
27.996400 2.614600
28.038700 2.002700
28.081000 2.085000
28.123300 2.512000
28.165600 3.183200
28.207900 3.405400
28.250200 2.402200
28.292500 1.879500
28.334800 2.497200
28.377100 2.589200
28.419400 2.171900
28.461700 2.116600
28.504000 2.574700
28.546300 3.444800
28.588700 3.168800
28.631000 2.104200
28.673300 1.700500
28.715600 1.771800
28.757900 2.158400
28.800200 2.697700
28.842500 2.643900
28.884800 1.983400
28.927100 1.816700
28.969400 2.092400
29.011700 2.308400
29.054000 2.402700
29.096300 2.508400
29.138600 2.579000
29.180900 2.006800
29.223200 2.018700
29.265500 2.666200
29.307800 2.757600
29.350100 2.533600
29.392400 2.129000
29.434700 2.149500
29.477000 2.105400
29.519300 2.035500
29.561600 2.218200
29.603900 2.393200
29.646200 2.532300
29.688500 2.159400
29.730800 1.508200
29.773100 1.378600
29.815400 1.833000
29.857700 2.029500
29.900000 1.648900
29.942300 1.587400
29.984600 1.713800
30.026900 2.155900
30.069200 2.764800
30.111600 2.820200
30.153900 2.649900
30.196200 2.467600
30.238500 2.055700
30.280800 1.659500
30.323100 1.629800
30.365400 1.509500
30.407700 1.661000
30.450000 2.186000
30.492300 2.764000
30.534600 2.904700
30.576900 2.473600
30.619200 1.912600
30.661500 1.626900
30.703800 1.297800
30.746100 1.898200
30.788400 2.947300
30.830700 2.428900
30.873000 1.995800
30.915300 2.631500
30.957600 3.062400
30.999900 2.797900
31.042200 2.322400
31.084500 2.268200
31.126800 2.505300
31.169100 2.729900
31.211400 2.493400
31.253700 2.200300
31.296000 1.950300
31.338300 1.725800
31.380600 1.805100
31.422900 1.892500
31.465200 2.171800
31.507500 2.568000
31.549800 2.107600
31.592100 1.774900
31.634400 2.044300
31.676800 2.340700
31.719100 2.218400
31.761400 2.185900
31.803700 2.691300
31.846000 2.401100
31.888300 2.255700
31.930600 2.587300
31.972900 2.789900
32.015200 2.314800
32.057500 1.879000
32.099800 2.086800
32.142100 2.357400
32.184400 2.422000
32.226700 2.662500
32.269000 2.765700
32.311300 2.057400
32.353600 1.750500
32.395900 1.654200
32.438200 2.022200
32.480500 2.747000
32.522800 2.747800
32.565100 2.722500
32.607400 3.296800
32.649700 3.822200
32.692000 3.710900
32.734300 3.180000
32.776600 2.357500
32.818900 1.645100
32.861200 1.466100
32.903500 1.965300
32.945800 2.686500
32.988100 3.197100
33.030400 3.427800
33.072700 3.509700
33.115000 3.207700
33.157300 3.011000
33.199600 2.817900
33.242000 2.290800
33.284300 2.068200
33.326600 2.716100
33.368900 3.100900
33.411200 2.491200
33.453500 2.240100
33.495800 2.696600
33.538100 3.296100
33.580400 2.967800
33.622700 2.650200
33.665000 2.960700
33.707300 2.920400
33.749600 2.369600
33.791900 2.044800
33.834200 2.543500
33.876500 3.336800
33.918800 3.817600
33.961100 3.921000
34.003400 3.597100
34.045700 3.135200
34.088000 3.243000
34.130300 3.192800
34.172600 2.399000
34.214900 1.818400
34.257200 2.071400
34.299500 2.340400
34.341800 2.605500
34.384100 3.130300
34.426400 2.858400
34.468700 2.467900
34.511000 2.486600
34.553300 2.785100
34.595600 2.606300
34.637900 2.552600
34.680200 2.351500
34.722500 2.155900
34.764800 2.152300
34.807200 2.012200
34.849500 2.237300
34.891800 2.935000
34.934100 3.207300
34.976400 3.215500
35.018700 3.023000
35.061000 2.523600
35.103300 2.469500
35.145600 3.089900
35.187900 3.264400
35.230200 2.777400
35.272500 2.625600
35.314800 2.685800
35.357100 2.673300
35.399400 3.254200
35.441700 3.829200
35.484000 3.356000
35.526300 2.658300
35.568600 2.328200
35.610900 2.396600
35.653200 3.107000
35.695500 3.247300
35.737800 2.919900
35.780100 2.870700
35.822400 2.516300
35.864700 2.348600
35.907000 2.720000
35.949300 2.962400
35.991600 3.128700
36.033900 3.674500
36.076200 4.406700
36.118500 3.962500
36.160800 3.263800
36.203100 2.770600
36.245400 2.660500
36.287700 3.084600
36.330100 3.528700
36.372400 3.546100
36.414700 3.668200
36.457000 3.421200
36.499300 2.824800
36.541600 3.060700
36.583900 3.502800
36.626200 3.356800
36.668500 3.535200
36.710800 3.623400
36.753100 3.255200
36.795400 3.573800
36.837700 3.862100
36.880000 3.650500
36.922300 3.118600
36.964600 2.842900
37.006900 3.506200
37.049200 3.832700
37.091500 3.300800
37.133800 3.252000
37.176100 2.985000
37.218400 2.447700
37.260700 2.364700
37.303000 2.386900
37.345300 2.334200
37.387600 2.490100
37.429900 2.793500
37.472200 2.823500
37.514500 2.888600
37.556800 3.410100
37.599100 3.625400
37.641400 3.255800
37.683700 3.397400
37.726000 4.064200
37.768300 2.853400
37.810600 1.630800
37.852900 1.896800
37.895300 3.042300
37.937600 3.117700
37.979900 2.259800
38.022200 2.156400
38.064500 2.630300
38.106800 2.696800
38.149100 2.744000
38.191400 3.128600
38.233700 3.162800
38.276000 3.081400
38.318300 3.033500
38.360600 3.381100
38.402900 3.416400
38.445200 3.209600
38.487500 3.300200
38.529800 3.737200
38.572100 3.446600
38.614400 2.790800
38.656700 2.739900
38.699000 2.899500
38.741300 2.339500
38.783600 2.258600
38.825900 2.799000
38.868200 2.776400
38.910500 2.384000
38.952800 2.183400
38.995100 2.006700
39.037400 2.292300
39.079700 2.973300
39.122000 3.285400
39.164300 3.448300
39.206600 3.213500
39.248900 2.678100
39.291200 2.625900
39.333500 3.167100
39.375800 3.536500
39.418100 3.420200
39.460500 3.006500
39.502800 2.394100
39.545100 2.376200
39.587400 2.854100
39.629700 2.939700
39.672000 2.813500
39.714300 2.963900
39.756600 2.586900
39.798900 2.270900
39.841200 2.480700
39.883500 2.347400
39.925800 2.558500
39.968100 3.162100
40.010400 3.444400
40.052700 3.065500
40.095000 2.932400
40.137300 3.491100
40.179600 3.136100
40.221900 2.452000
40.264200 2.776400
40.306500 3.788100
40.348800 3.638000
40.391100 2.600000
40.433400 2.671600
40.475700 3.156100
40.518000 3.390500
40.560300 3.507100
40.602600 3.453700
40.644900 3.774200
40.687200 3.594200
40.729500 3.066700
40.771800 2.908800
40.814100 2.626100
40.856400 2.504700
40.898700 2.829100
40.941000 3.007700
40.983300 2.844300
41.025700 3.400000
41.068000 4.137000
41.110300 3.770700
41.152600 2.882200
41.194900 2.330800
41.237200 2.501500
41.279500 3.072900
41.321800 3.161800
41.364100 3.341100
41.406400 3.919300
41.448700 4.428800
41.491000 4.329800
41.533300 3.457600
41.575600 3.164300
41.617900 3.255600
41.660200 3.121600
41.702500 2.923300
41.744800 3.018800
41.787100 3.137600
41.829400 3.774300
41.871700 3.897100
41.914000 3.493200
41.956300 3.296300
41.998600 2.968600
42.040900 3.178400
42.083200 3.870700
42.125500 4.097000
42.167800 3.898300
42.210100 3.342800
42.252400 2.691300
42.294700 2.846700
42.337000 3.866600
42.379300 4.555300
42.421600 4.140700
42.463900 3.012100
42.506200 2.733400
42.548500 2.669600
42.590900 2.918000
42.633200 3.353400
42.675500 3.090000
42.717800 2.392100
42.760100 2.553900
42.802400 3.566200
42.844700 3.895500
42.887000 3.947900
42.929300 3.728000
42.971600 3.642700
43.013900 3.920500
43.056200 4.085500
43.098500 3.647800
43.140800 2.886600
43.183100 2.820500
43.225400 3.238500
43.267700 3.693700
43.310000 4.145900
43.352300 4.326700
43.394600 4.072800
43.436900 3.838700
43.479200 3.695000
43.521500 3.547400
43.563800 3.160500
43.606100 3.475800
43.648400 4.571200
43.690700 5.631400
43.733000 6.106600
43.775300 5.379400
43.817600 4.687300
43.859900 4.845600
43.902200 5.379000
43.944500 5.802100
43.986800 6.191400
44.029100 5.780000
44.071400 5.619900
44.113800 6.109400
44.156100 6.263700
44.198400 6.230900
44.240700 6.775200
44.283000 7.368900
44.325300 6.978200
44.367600 6.269700
44.409900 5.506300
44.452200 4.704300
44.494500 4.432200
44.536800 4.315000
44.579100 4.418600
44.621400 5.251100
44.663700 5.409300
44.706000 4.888600
44.748300 4.601500
44.790600 4.416400
44.832900 4.846500
44.875200 4.864500
44.917500 4.559600
44.959800 4.549600
45.002100 4.440500
45.044400 4.954200
45.086700 5.489300
45.129000 5.165500
45.171300 5.345100
45.213600 5.770200
45.255900 5.857300
45.298200 5.750500
45.340500 5.967100
45.382800 6.326100
45.425100 6.216700
45.467400 5.701700
45.509700 5.527500
45.552000 6.144400
45.594300 6.561900
45.636600 6.895900
45.679000 6.585000
45.721300 6.290200
45.763600 6.219800
45.805900 4.992200
45.848200 4.526500
45.890500 4.742900
45.932800 5.380000
45.975100 5.735300
46.017400 4.844100
46.059700 4.119600
46.102000 4.322900
46.144300 5.050900
46.186600 5.444800
46.228900 4.767700
46.271200 3.662100
46.313500 3.806500
46.355800 4.328400
46.398100 4.470900
46.440400 4.421200
46.482700 4.377700
46.525000 4.870300
46.567300 5.296200
46.609600 4.221800
46.651900 2.873000
46.694200 2.630300
46.736500 3.245400
46.778800 3.784600
46.821100 3.834800
46.863400 3.587800
46.905700 3.868000
46.948000 4.225100
46.990300 3.834600
47.032600 3.502900
47.074900 3.036500
47.117200 2.994600
47.159500 3.998000
47.201800 4.642100
47.244200 4.069700
47.286500 3.583900
47.328800 3.363300
47.371100 3.387200
47.413400 3.630600
47.455700 4.069100
47.498000 4.097600
47.540300 3.732600
47.582600 3.509300
47.624900 3.310300
47.667200 3.263700
47.709500 2.887800
47.751800 2.383300
47.794100 2.746000
47.836400 3.288400
47.878700 3.065900
47.921000 2.920000
47.963300 3.119600
48.005600 3.402200
48.047900 3.624000
48.090200 4.217500
48.132500 5.173900
48.174800 5.747100
48.217100 5.156700
48.259400 4.207900
48.301700 3.555800
48.344000 4.317200
48.386300 5.263600
48.428600 4.637800
48.470900 3.728300
48.513200 3.154100
48.555500 2.939300
48.597800 2.971900
48.640100 2.739500
48.682400 2.581200
48.724700 3.116400
48.767000 3.727500
48.809400 4.658000
48.851700 5.451800
48.894000 5.500800
48.936300 5.201000
48.978600 5.058900
49.020900 5.946200
49.063200 6.016600
49.105500 5.241400
49.147800 5.401400
49.190100 5.558300
49.232400 4.936200
49.274700 4.042200
49.317000 3.715900
49.359300 3.758000
49.401600 3.522800
49.443900 3.627800
49.486200 3.433200
49.528500 3.500400
49.570800 3.754800
49.613100 3.654000
49.655400 3.607500
49.697700 3.432900
49.740000 3.995200
49.782300 4.362800
49.824600 4.575500
49.866900 4.900400
49.909200 4.850700
49.951500 4.315600
49.993800 3.667600
50.036100 3.928700
50.078400 4.594100
50.120700 4.429500
50.163000 3.922700
50.205300 3.432200
50.247600 3.596900
50.289900 3.903800
50.332300 3.709000
50.374600 3.798600
50.416900 4.277500
50.459200 4.600600
50.501500 4.518800
50.543800 3.765100
50.586100 3.056000
50.628400 3.243900
50.670700 3.194200
50.713000 2.835900
50.755300 2.955400
50.797600 3.519400
50.839900 3.414800
50.882200 3.303600
50.924500 3.534900
50.966800 3.669800
51.009100 3.647700
51.051400 3.500000
51.093700 3.159100
51.136000 3.120100
51.178300 3.029900
51.220600 2.693300
51.262900 2.562200
51.305200 2.819700
51.347500 3.170500
51.389800 3.207900
51.432100 3.028100
51.474400 3.400500
51.516700 3.468700
51.559000 2.950100
51.601300 2.875900
51.643600 3.231700
51.685900 4.054500
51.728200 4.895300
51.770500 3.937200
51.812800 2.742100
51.855100 2.799500
51.897500 3.419000
51.939800 3.696700
51.982100 3.454700
52.024400 3.083500
52.066700 3.103700
52.109000 2.939000
52.151300 2.643700
52.193600 2.915900
52.235900 3.455000
52.278200 4.077600
52.320500 4.277100
52.362800 3.450800
52.405100 2.476700
52.447400 1.976300
52.489700 1.687100
52.532000 2.217300
52.574300 2.734600
52.616600 2.781800
52.658900 2.972500
52.701200 2.836300
52.743500 2.554300
52.785800 2.782100
52.828100 3.145400
52.870400 3.296300
52.912700 3.251200
52.955000 3.321900
52.997300 3.674500
53.039600 4.090700
53.081900 3.949000
53.124200 3.247700
53.166500 2.538900
53.208800 2.252600
53.251100 1.954400
53.293400 1.541200
53.335700 1.364800
53.378000 1.613800
53.420300 1.880900
53.462700 1.833500
53.505000 1.486700
53.547300 1.096900
53.589600 0.791900
53.631900 0.787100
53.674200 1.118300
53.716500 1.390400
53.758800 1.328400
53.801100 1.067200
53.843400 0.726700
53.885700 0.439000
53.928000 0.372700
53.970300 0.357500
54.012600 0.289500
54.054900 0.316200
54.097200 0.341900
54.139500 0.245900
54.181800 0.180000
54.224100 0.208800
54.266400 0.189000
54.308700 0.125400
54.351000 0.097200
54.393300 0.065700
54.435600 0.041600
54.477900 0.050400
54.520200 0.026400
54.562500 0.003900
54.604800 0.000500
54.647100 0.004900
54.689400 0.019700
54.731700 0.022200
54.774000 0.007000
54.816300 0.000600
54.858600 0.000000
54.900900 0.000000
54.943200 0.000000
54.985500 0.000000
55.027900 0.000000
55.070200 0.000000
55.112500 0.000000
55.154800 0.000000
55.197100 0.000000
55.239400 0.000000
55.281700 0.000000
55.324000 0.000000
55.366300 0.000000
55.408600 0.000000
55.450900 0.000000
55.493200 0.000000
55.535500 0.000000
55.577800 0.000000
55.620100 0.000000
55.662400 0.000000
55.704700 0.000000
55.747000 0.000000
55.789300 0.000000
55.831600 0.000000
55.873900 0.000000
55.916200 0.000000
55.958500 0.000000
56.000800 0.000000
56.043100 0.000000
56.085400 0.000000
56.127700 0.000000
56.170000 0.000000
56.212300 0.000000
56.254600 0.000000
56.296900 0.000000
56.339200 0.000000
56.381500 0.000000
56.423800 0.000000
56.466100 0.000000
56.508400 0.000000
56.550700 0.000000
56.593100 0.000000
56.635400 0.000000
56.677700 0.000000
56.720000 0.000000
56.762300 0.000000
56.804600 0.000000
56.846900 0.000000
56.889200 0.000000
56.931500 0.000000
56.973800 0.000000
57.016100 0.000000
57.058400 0.000000
57.100700 0.000000
57.143000 0.000000
57.185300 0.000000
57.227600 0.000000
57.269900 0.000000
57.312200 0.000000
57.354500 0.000000
57.396800 0.000000
57.439100 0.000000
57.481400 0.000000
57.523700 0.000000
57.566000 0.000000
57.608300 0.000000
57.650600 0.000000
57.692900 0.000000
57.735200 0.000000
57.777500 0.000000
57.819800 0.000000
57.862100 0.000000
57.904400 0.000000
57.946700 0.000000
57.989000 0.000000
58.031300 0.000000
58.073600 0.000000
58.116000 0.000000
58.158300 0.000000
58.200600 0.000000
58.242900 0.000000
58.285200 0.000000
58.327500 0.000000
58.369800 0.000000
58.412100 0.000000
58.454400 0.000000
58.496700 0.000000
58.539000 0.000000
e
