set title 'mp-1056579 - Density of States'
set xlabel 'Energy (eV)'
set ylabel 'DOS (states/eV)'
set grid
set xrange [-10:10]
set yrange [0:0.455]
set xzeroaxis lt -1
set terminal png size 800,600
set output 'mp-1056579_dos_gnuplot.png'
plot '-' using 1:2 with lines title 'DOS'
-7.117000 0.000000
-7.086400 0.000000
-7.055800 0.000000
-7.025200 0.000000
-6.994600 0.000000
-6.964000 0.000000
-6.933400 0.000000
-6.902800 0.000000
-6.872200 0.000000
-6.841600 0.000000
-6.811000 0.000000
-6.780400 0.000000
-6.749800 0.000000
-6.719200 0.000000
-6.688600 0.000000
-6.658000 0.000000
-6.627400 0.000000
-6.596800 0.000000
-6.566200 0.000000
-6.535600 0.000000
-6.505000 0.000000
-6.474400 0.000000
-6.443800 0.000000
-6.413200 0.000000
-6.382600 0.000000
-6.352000 0.000000
-6.321400 0.000000
-6.290800 0.000000
-6.260200 0.000000
-6.229600 0.000000
-6.199000 0.000000
-6.168400 0.000000
-6.137800 0.000000
-6.107200 0.000000
-6.076600 0.000000
-6.046000 0.000000
-6.015400 0.000000
-5.984800 0.000000
-5.954200 0.000000
-5.923600 0.000000
-5.893000 0.000000
-5.862400 0.000000
-5.831800 0.000000
-5.801200 0.000000
-5.770600 0.000000
-5.740000 0.000000
-5.709400 0.000000
-5.678800 0.000000
-5.648200 0.000000
-5.617600 0.000000
-5.587000 0.000000
-5.556400 0.000000
-5.525800 0.000000
-5.495200 0.000000
-5.464600 0.000000
-5.434000 0.000000
-5.403400 0.000000
-5.372800 0.000000
-5.342200 0.000000
-5.311600 0.000000
-5.281000 0.000000
-5.250300 0.000000
-5.219700 0.000000
-5.189100 0.000000
-5.158500 0.000000
-5.127900 0.000000
-5.097300 0.000000
-5.066700 0.000000
-5.036100 0.000000
-5.005500 0.000000
-4.974900 0.000000
-4.944300 0.000000
-4.913700 0.000000
-4.883100 0.000000
-4.852500 0.000000
-4.821900 0.000000
-4.791300 0.000000
-4.760700 0.000000
-4.730100 0.000000
-4.699500 0.000000
-4.668900 0.000000
-4.638300 0.000000
-4.607700 0.000000
-4.577100 0.000000
-4.546500 0.000000
-4.515900 0.000000
-4.485300 0.000000
-4.454700 0.000000
-4.424100 0.000000
-4.393500 0.000000
-4.362900 0.000000
-4.332300 0.000100
-4.301700 0.012700
-4.271100 0.022300
-4.240500 0.028200
-4.209900 0.035400
-4.179300 0.040000
-4.148700 0.042700
-4.118100 0.045900
-4.087500 0.050100
-4.056900 0.054500
-4.026300 0.057500
-3.995700 0.059600
-3.965100 0.061800
-3.934500 0.064300
-3.903900 0.067100
-3.873300 0.070000
-3.842700 0.073000
-3.812100 0.075600
-3.781500 0.077100
-3.750900 0.078900
-3.720300 0.080900
-3.689700 0.082800
-3.659100 0.084900
-3.628500 0.087000
-3.597900 0.089300
-3.567300 0.091600
-3.536700 0.093600
-3.506100 0.095200
-3.475500 0.096600
-3.444900 0.098100
-3.414300 0.099700
-3.383700 0.101400
-3.353100 0.103100
-3.322500 0.104800
-3.291900 0.106600
-3.261300 0.108400
-3.230700 0.110300
-3.200100 0.111900
-3.169500 0.113400
-3.138900 0.114700
-3.108300 0.116000
-3.077700 0.117400
-3.047100 0.118700
-3.016500 0.120100
-2.985900 0.121500
-2.955300 0.123000
-2.924700 0.124500
-2.894100 0.126100
-2.863500 0.127600
-2.832900 0.129200
-2.802300 0.130500
-2.771700 0.131900
-2.741100 0.133100
-2.710500 0.134200
-2.679900 0.135400
-2.649300 0.136600
-2.618700 0.137800
-2.588100 0.139000
-2.557500 0.140300
-2.526900 0.141600
-2.496300 0.142900
-2.465700 0.144200
-2.435100 0.145500
-2.404400 0.146900
-2.373800 0.148200
-2.343200 0.149400
-2.312600 0.150600
-2.282000 0.151800
-2.251400 0.152800
-2.220800 0.153900
-2.190200 0.154900
-2.159600 0.156000
-2.129000 0.157100
-2.098400 0.158200
-2.067800 0.159300
-2.037200 0.160500
-2.006600 0.161600
-1.976000 0.162800
-1.945400 0.164000
-1.914800 0.165200
-1.884200 0.166400
-1.853600 0.167500
-1.823000 0.168600
-1.792400 0.169700
-1.761800 0.170800
-1.731200 0.171800
-1.700600 0.172800
-1.670000 0.173700
-1.639400 0.174700
-1.608800 0.175700
-1.578200 0.176700
-1.547600 0.177700
-1.517000 0.178700
-1.486400 0.179800
-1.455800 0.180800
-1.425200 0.181900
-1.394600 0.182900
-1.364000 0.184000
-1.333400 0.185100
-1.302800 0.186200
-1.272200 0.187200
-1.241600 0.188200
-1.211000 0.189200
-1.180400 0.190300
-1.149800 0.191200
-1.119200 0.192100
-1.088600 0.193000
-1.058000 0.193900
-1.027400 0.194900
-0.996800 0.195800
-0.966200 0.196700
-0.935600 0.197700
-0.905000 0.198600
-0.874400 0.199600
-0.843800 0.200600
-0.813200 0.201600
-0.782600 0.202600
-0.752000 0.203600
-0.721400 0.204600
-0.690800 0.205600
-0.660200 0.206600
-0.629600 0.207500
-0.599000 0.208500
-0.568400 0.209400
-0.537800 0.210400
-0.507200 0.211300
-0.476600 0.212200
-0.446000 0.213100
-0.415400 0.214000
-0.384800 0.214800
-0.354200 0.215700
-0.323600 0.216600
-0.293000 0.217500
-0.262400 0.218500
-0.231800 0.219400
-0.201200 0.220300
-0.170600 0.221300
-0.140000 0.222200
-0.109400 0.223200
-0.078800 0.224200
-0.048200 0.225100
-0.017600 0.226100
0.013000 0.227100
0.043600 0.228000
0.074200 0.229000
0.104800 0.229900
0.135400 0.230900
0.166000 0.231800
0.196600 0.232800
0.227200 0.233700
0.257800 0.234600
0.288400 0.235500
0.319000 0.236500
0.349600 0.237400
0.380200 0.238400
0.410800 0.239300
0.441500 0.240300
0.472100 0.241300
0.502700 0.242300
0.533300 0.243300
0.563900 0.244400
0.594500 0.245400
0.625100 0.246500
0.655700 0.247600
0.686300 0.248800
0.716900 0.249900
0.747500 0.251100
0.778100 0.252200
0.808700 0.253400
0.839300 0.254600
0.869900 0.255800
0.900500 0.257100
0.931100 0.258500
0.961700 0.260000
0.992300 0.261600
1.022900 0.263300
1.053500 0.265100
1.084100 0.266900
1.114700 0.268800
1.145300 0.270800
1.175900 0.275500
1.206500 0.279700
1.237100 0.281200
1.267700 0.282400
1.298300 0.289800
1.328900 0.293900
1.359500 0.286400
1.390100 0.284800
1.420700 0.284000
1.451300 0.282600
1.481900 0.281600
1.512500 0.280700
1.543100 0.279600
1.573700 0.278600
1.604300 0.279200
1.634900 0.281700
1.665500 0.282300
1.696100 0.280300
1.726700 0.278900
1.757300 0.278400
1.787900 0.277800
1.818500 0.276800
1.849100 0.275900
1.879700 0.275300
1.910300 0.274600
1.940900 0.273900
1.971500 0.273100
2.002100 0.272200
2.032700 0.271300
2.063300 0.270400
2.093900 0.269500
2.124500 0.269100
2.155100 0.268800
2.185700 0.268600
2.216300 0.268600
2.246900 0.268600
2.277500 0.268200
2.308100 0.267500
2.338700 0.266500
2.369300 0.265400
2.399900 0.264700
2.430500 0.264100
2.461100 0.263700
2.491700 0.263300
2.522300 0.262900
2.552900 0.262500
2.583500 0.262000
2.614100 0.261400
2.644700 0.260800
2.675300 0.260100
2.705900 0.259500
2.736500 0.258800
2.767100 0.258100
2.797700 0.257400
2.828300 0.256700
2.858900 0.256600
2.889500 0.259200
2.920100 0.263200
2.950700 0.268400
2.981300 0.271700
3.011900 0.270800
3.042500 0.273100
3.073100 0.275400
3.103700 0.291100
3.134300 0.285900
3.164900 0.284900
3.195500 0.286100
3.226100 0.286900
3.256700 0.287500
3.287400 0.288600
3.318000 0.289700
3.348600 0.291300
3.379200 0.292900
3.409800 0.294600
3.440400 0.296500
3.471000 0.299500
3.501600 0.303200
3.532200 0.307000
3.562800 0.309000
3.593400 0.310400
3.624000 0.312600
3.654600 0.315100
3.685200 0.317700
3.715800 0.320800
3.746400 0.324300
3.777000 0.327100
3.807600 0.329300
3.838200 0.330800
3.868800 0.330700
3.899400 0.330200
3.930000 0.329400
3.960600 0.327600
3.991200 0.325100
4.021800 0.322200
4.052400 0.320700
4.083000 0.321000
4.113600 0.320000
4.144200 0.320500
4.174800 0.320700
4.205400 0.320300
4.236000 0.318300
4.266600 0.313200
4.297200 0.309500
4.327800 0.307100
4.358400 0.304700
4.389000 0.302900
4.419600 0.302900
4.450200 0.300800
4.480800 0.298100
4.511400 0.296700
4.542000 0.296300
4.572600 0.298000
4.603200 0.299700
4.633800 0.304300
4.664400 0.309100
4.695000 0.310600
4.725600 0.312100
4.756200 0.314000
4.786800 0.315100
4.817400 0.316600
4.848000 0.318100
4.878600 0.321600
4.909200 0.325400
4.939800 0.326400
4.970400 0.328100
5.001000 0.328600
5.031600 0.331100
5.062200 0.333600
5.092800 0.332900
5.123400 0.331300
5.154000 0.329900
5.184600 0.330100
5.215200 0.328400
5.245800 0.324600
5.276400 0.321700
5.307000 0.319700
5.337600 0.318500
5.368200 0.319300
5.398800 0.317800
5.429400 0.317300
5.460000 0.315800
5.490600 0.318200
5.521200 0.319300
5.551800 0.317800
5.582400 0.316900
5.613000 0.315900
5.643600 0.316900
5.674200 0.317900
5.704800 0.319500
5.735400 0.324800
5.766000 0.322100
5.796600 0.323400
5.827200 0.327400
5.857800 0.331500
5.888400 0.334600
5.919000 0.338200
5.949600 0.342600
5.980200 0.346700
6.010800 0.351700
6.041400 0.354500
6.072000 0.357900
6.102700 0.365500
6.133300 0.367500
6.163900 0.369600
6.194500 0.373100
6.225100 0.377000
6.255700 0.381900
6.286300 0.384700
6.316900 0.390500
6.347500 0.393000
6.378100 0.394900
6.408700 0.394400
6.439300 0.392500
6.469900 0.390200
6.500500 0.388100
6.531100 0.386700
6.561700 0.386400
6.592300 0.387200
6.622900 0.384800
6.653500 0.384900
6.684100 0.384400
6.714700 0.384800
6.745300 0.385700
6.775900 0.387000
6.806500 0.385700
6.837100 0.383400
6.867700 0.381200
6.898300 0.380200
6.928900 0.382800
6.959500 0.383500
6.990100 0.381000
7.020700 0.380400
7.051300 0.380900
7.081900 0.382000
7.112500 0.383700
7.143100 0.386200
7.173700 0.388900
7.204300 0.393400
7.234900 0.399700
7.265500 0.405200
7.296100 0.407200
7.326700 0.408000
7.357300 0.408900
7.387900 0.407800
7.418500 0.407300
7.449100 0.411100
7.479700 0.413800
7.510300 0.410800
7.540900 0.410100
7.571500 0.408400
7.602100 0.407300
7.632700 0.406200
7.663300 0.405200
7.693900 0.404400
7.724500 0.404300
7.755100 0.404200
7.785700 0.403800
7.816300 0.403600
7.846900 0.403600
7.877500 0.403700
7.908100 0.403000
7.938700 0.401600
7.969300 0.401100
7.999900 0.401500
8.030500 0.401700
8.061100 0.401900
8.091700 0.402800
8.122300 0.403900
8.152900 0.405300
8.183500 0.404600
8.214100 0.404300
8.244700 0.403700
8.275300 0.401200
8.305900 0.396700
8.336500 0.392700
8.367100 0.391800
8.397700 0.392800
8.428300 0.394500
8.458900 0.400900
8.489500 0.402300
8.520100 0.404400
8.550700 0.406800
8.581300 0.407100
8.611900 0.406700
8.642500 0.405700
8.673100 0.405200
8.703700 0.404900
8.734300 0.405800
8.764900 0.405800
8.795500 0.403800
8.826100 0.403300
8.856700 0.403900
8.887300 0.404100
8.917900 0.404000
8.948600 0.403100
8.979200 0.402400
9.009800 0.402200
9.040400 0.401900
9.071000 0.401400
9.101600 0.402200
9.132200 0.401900
9.162800 0.401400
9.193400 0.401400
9.224000 0.402400
9.254600 0.403600
9.285200 0.404900
9.315800 0.407100
9.346400 0.409000
9.377000 0.409600
9.407600 0.409900
9.438200 0.409600
9.468800 0.408600
9.499400 0.408200
9.530000 0.409000
9.560600 0.409100
9.591200 0.408300
9.621800 0.408400
9.652400 0.407600
9.683000 0.406700
9.713600 0.406200
9.744200 0.406200
9.774800 0.406700
9.805400 0.407400
9.836000 0.408300
9.866600 0.409500
9.897200 0.410400
9.927800 0.411200
9.958400 0.412100
9.989000 0.412600
10.019600 0.412500
10.050200 0.412000
10.080800 0.411900
10.111400 0.412000
10.142000 0.412900
10.172600 0.414600
10.203200 0.416100
10.233800 0.417400
10.264400 0.417900
10.295000 0.417700
10.325600 0.416500
10.356200 0.416000
10.386800 0.415500
10.417400 0.415400
10.448000 0.415400
10.478600 0.415500
10.509200 0.415800
10.539800 0.416400
10.570400 0.417300
10.601000 0.417700
10.631600 0.417900
10.662200 0.418800
10.692800 0.420500
10.723400 0.422300
10.754000 0.423700
10.784600 0.424500
10.815200 0.424400
10.845800 0.424300
10.876400 0.424100
10.907000 0.424900
10.937600 0.425000
10.968200 0.424900
10.998800 0.425000
11.029400 0.424200
11.060000 0.423900
11.090600 0.424300
11.121200 0.424800
11.151800 0.425200
11.182400 0.425700
11.213000 0.426200
11.243600 0.426800
11.274200 0.428000
11.304800 0.429600
11.335400 0.431900
11.366000 0.432800
11.396600 0.434700
11.427200 0.436600
11.457800 0.439600
11.488400 0.445200
11.519000 0.443500
11.549600 0.443500
11.580200 0.443300
11.610800 0.443200
11.641400 0.443200
11.672000 0.442800
11.702600 0.442900
11.733200 0.443600
11.763800 0.443600
11.794500 0.443400
11.825100 0.443500
11.855700 0.444400
11.886300 0.446300
11.916900 0.448400
11.947500 0.450000
11.978100 0.451400
12.008700 0.452100
12.039300 0.452900
12.069900 0.453800
12.100500 0.455100
12.131100 0.455800
12.161700 0.456500
12.192300 0.457400
12.222900 0.458300
12.253500 0.459100
12.284100 0.459700
12.314700 0.459800
12.345300 0.461100
12.375900 0.462400
12.406500 0.462400
12.437100 0.463200
12.467700 0.464800
12.498300 0.465800
12.528900 0.466500
12.559500 0.467200
12.590100 0.468200
12.620700 0.469300
12.651300 0.470000
12.681900 0.470100
12.712500 0.470200
12.743100 0.470500
12.773700 0.470900
12.804300 0.471400
12.834900 0.472200
12.865500 0.472800
12.896100 0.473100
12.926700 0.473600
12.957300 0.474800
12.987900 0.475800
13.018500 0.476500
13.049100 0.477000
13.079700 0.477400
13.110300 0.478200
13.140900 0.479000
13.171500 0.479900
13.202100 0.480700
13.232700 0.481500
13.263300 0.482400
13.293900 0.483400
13.324500 0.484500
13.355100 0.485800
13.385700 0.486900
13.416300 0.488300
13.446900 0.489500
13.477500 0.490800
13.508100 0.492000
13.538700 0.492900
13.569300 0.494100
13.599900 0.495200
13.630500 0.496300
13.661100 0.497200
13.691700 0.497700
13.722300 0.498300
13.752900 0.499000
13.783500 0.500100
13.814100 0.501700
13.844700 0.502900
13.875300 0.504100
13.905900 0.505000
13.936500 0.505300
13.967100 0.505800
13.997700 0.506700
14.028300 0.507800
14.058900 0.509300
14.089500 0.510600
14.120100 0.512000
14.150700 0.513200
14.181300 0.514400
14.211900 0.515600
14.242500 0.516800
14.273100 0.518100
14.303700 0.519500
14.334300 0.521100
14.364900 0.522600
14.395500 0.524000
14.426100 0.526800
14.456700 0.528800
14.487300 0.530000
14.517900 0.529100
14.548500 0.526800
14.579100 0.525000
14.609700 0.525800
14.640400 0.524900
14.671000 0.523900
14.701600 0.524200
14.732200 0.525200
14.762800 0.527000
14.793400 0.528400
14.824000 0.529400
14.854600 0.530500
14.885200 0.532200
14.915800 0.533900
14.946400 0.536000
14.977000 0.538300
15.007600 0.540600
15.038200 0.543200
15.068800 0.545700
15.099400 0.548300
15.130000 0.551300
15.160600 0.554400
15.191200 0.558100
15.221800 0.562200
15.252400 0.566800
15.283000 0.572400
15.313600 0.578700
15.344200 0.585300
15.374800 0.592700
15.405400 0.601900
15.436000 0.614100
15.466600 0.633200
15.497200 0.651000
15.527800 0.662600
15.558400 0.665300
15.589000 0.664700
15.619600 0.662500
15.650200 0.660600
15.680800 0.660900
15.711400 0.659100
15.742000 0.659500
15.772600 0.660400
15.803200 0.656700
15.833800 0.646700
15.864400 0.640400
15.895000 0.636900
15.925600 0.634000
15.956200 0.627800
15.986800 0.618600
16.017400 0.610900
16.048000 0.603700
16.078600 0.597200
16.109200 0.584500
16.139800 0.567300
16.170400 0.554500
16.201000 0.542300
16.231600 0.534200
16.262200 0.527400
16.292800 0.520400
16.323400 0.514200
16.354000 0.507500
16.384600 0.500700
16.415200 0.495200
16.445800 0.490700
16.476400 0.486100
16.507000 0.481600
16.537600 0.476900
16.568200 0.472300
16.598800 0.468600
16.629400 0.464800
16.660000 0.464400
16.690600 0.463200
16.721200 0.460000
16.751800 0.457900
16.782400 0.455800
16.813000 0.453400
16.843600 0.450200
16.874200 0.447500
16.904800 0.445300
16.935400 0.443000
16.966000 0.441000
16.996600 0.439300
17.027200 0.437800
17.057800 0.436300
17.088400 0.435100
17.119000 0.433900
17.149600 0.432500
17.180200 0.430600
17.210800 0.429600
17.241400 0.429000
17.272000 0.427800
17.302600 0.426900
17.333200 0.426100
17.363800 0.425100
17.394400 0.424100
17.425000 0.423200
17.455700 0.422200
17.486300 0.421300
17.516900 0.420600
17.547500 0.420900
17.578100 0.421300
17.608700 0.421600
17.639300 0.421800
17.669900 0.422800
17.700500 0.424000
17.731100 0.424300
17.761700 0.425100
17.792300 0.426500
17.822900 0.427400
17.853500 0.428400
17.884100 0.429400
17.914700 0.431100
17.945300 0.433000
17.975900 0.434900
18.006500 0.436800
18.037100 0.439400
18.067700 0.442800
18.098300 0.447300
18.128900 0.451400
18.159500 0.451700
18.190100 0.454700
18.220700 0.457500
18.251300 0.460600
18.281900 0.463700
18.312500 0.467100
18.343100 0.470700
18.373700 0.474600
18.404300 0.478700
18.434900 0.483100
18.465500 0.487400
18.496100 0.490900
18.526700 0.495200
18.557300 0.499600
18.587900 0.503700
18.618500 0.508300
18.649100 0.514500
18.679700 0.522700
18.710300 0.531100
18.740900 0.538700
18.771500 0.546300
18.802100 0.553900
18.832700 0.561400
18.863300 0.570800
18.893900 0.581000
18.924500 0.589100
18.955100 0.593400
18.985700 0.603000
19.016300 0.605600
19.046900 0.609500
19.077500 0.609400
19.108100 0.605900
19.138700 0.590700
19.169300 0.576500
19.199900 0.563000
19.230500 0.554600
19.261100 0.546200
19.291700 0.541300
19.322300 0.538800
19.352900 0.534100
19.383500 0.530200
19.414100 0.526500
19.444700 0.521800
19.475300 0.517700
19.505900 0.516800
19.536500 0.516500
19.567100 0.514800
19.597700 0.513200
19.628300 0.511600
19.658900 0.510300
19.689500 0.509600
19.720100 0.509000
19.750700 0.507200
19.781300 0.507200
19.811900 0.508900
19.842500 0.511100
19.873100 0.516200
19.903700 0.524800
19.934300 0.533700
19.964900 0.542700
19.995500 0.545300
20.026100 0.549400
20.056700 0.545700
20.087300 0.551000
20.117900 0.559000
20.148500 0.567500
20.179100 0.575600
20.209700 0.582300
20.240300 0.586600
20.270900 0.588200
20.301600 0.587300
20.332200 0.586100
20.362800 0.584100
20.393400 0.582600
20.424000 0.582000
20.454600 0.582800
20.485200 0.583400
20.515800 0.582800
20.546400 0.582300
20.577000 0.580400
20.607600 0.578400
20.638200 0.578100
20.668800 0.578900
20.699400 0.579500
20.730000 0.579400
20.760600 0.579200
20.791200 0.579200
20.821800 0.579300
20.852400 0.579700
20.883000 0.580900
20.913600 0.581900
20.944200 0.583900
20.974800 0.585400
21.005400 0.585900
21.036000 0.586600
21.066600 0.588900
21.097200 0.590600
21.127800 0.590800
21.158400 0.589800
21.189000 0.583600
21.219600 0.583500
21.250200 0.583700
21.280800 0.583900
21.311400 0.584000
21.342000 0.584900
21.372600 0.586400
21.403200 0.587200
21.433800 0.587700
21.464400 0.592000
21.495000 0.614600
21.525600 0.615400
21.556200 0.614200
21.586800 0.611200
21.617400 0.610600
21.648000 0.599200
21.678600 0.591300
21.709200 0.587800
21.739800 0.586900
21.770400 0.588000
21.801000 0.589600
21.831600 0.593700
21.862200 0.599200
21.892800 0.602500
21.923400 0.609900
21.954000 0.616000
21.984600 0.620100
22.015200 0.625300
22.045800 0.629200
22.076400 0.633500
22.107000 0.639100
22.137600 0.645200
22.168200 0.652800
22.198800 0.661300
22.229400 0.661200
22.260000 0.663500
22.290600 0.665000
22.321200 0.670400
22.351800 0.685000
22.382400 0.711600
22.413000 0.737900
22.443600 0.733900
22.474200 0.708700
22.504800 0.680800
22.535400 0.664100
22.566000 0.649100
22.596600 0.634700
22.627200 0.625300
22.657800 0.620000
22.688400 0.617400
22.719000 0.614900
22.749600 0.612000
22.780200 0.608800
22.810800 0.605000
22.841400 0.601300
22.872000 0.599100
22.902600 0.597700
22.933200 0.597700
22.963800 0.598500
22.994400 0.601000
23.025000 0.611400
23.055600 0.610000
23.086200 0.617000
23.116800 0.630400
23.147500 0.632300
23.178100 0.632400
23.208700 0.629600
23.239300 0.623500
23.269900 0.618300
23.300500 0.618900
23.331100 0.620600
23.361700 0.621900
23.392300 0.622100
23.422900 0.621800
23.453500 0.621400
23.484100 0.620800
23.514700 0.620500
23.545300 0.620300
23.575900 0.619900
23.606500 0.618200
23.637100 0.615100
23.667700 0.609400
23.698300 0.604300
23.728900 0.599400
23.759500 0.595000
23.790100 0.592500
23.820700 0.590800
23.851300 0.590100
23.881900 0.590300
23.912500 0.591300
23.943100 0.593200
23.973700 0.595100
24.004300 0.596900
24.034900 0.599100
24.065500 0.601100
24.096100 0.602400
24.126700 0.603900
24.157300 0.606600
24.187900 0.607700
24.218500 0.606100
24.249100 0.603700
24.279700 0.602700
24.310300 0.603600
24.340900 0.604300
24.371500 0.607700
24.402100 0.606400
24.432700 0.601900
24.463300 0.598500
24.493900 0.595800
24.524500 0.596300
24.555100 0.590600
24.585700 0.586900
24.616300 0.584000
24.646900 0.581500
24.677500 0.580200
24.708100 0.579300
24.738700 0.578600
24.769300 0.576900
24.799900 0.574300
24.830500 0.572700
24.861100 0.571700
24.891700 0.571200
24.922300 0.571400
24.952900 0.575100
24.983500 0.583700
25.014100 0.592100
25.044700 0.598800
25.075300 0.607600
25.105900 0.613600
25.136500 0.614500
25.167100 0.617400
25.197700 0.620900
25.228300 0.619300
25.258900 0.619600
25.289500 0.620900
25.320100 0.624300
25.350700 0.627400
25.381300 0.630200
25.411900 0.626600
25.442500 0.623200
25.473100 0.622200
25.503700 0.623300
25.534300 0.625400
25.564900 0.625300
25.595500 0.624900
25.626100 0.626100
25.656700 0.626600
25.687300 0.628300
25.717900 0.630400
25.748500 0.633500
25.779100 0.635400
25.809700 0.637800
25.840300 0.640000
25.870900 0.642900
25.901500 0.645800
25.932100 0.649200
25.962700 0.653700
25.993400 0.659800
26.024000 0.667800
26.054600 0.676000
26.085200 0.685200
26.115800 0.691300
26.146400 0.695200
26.177000 0.703400
26.207600 0.706800
26.238200 0.708100
26.268800 0.694800
26.299400 0.687600
26.330000 0.681700
26.360600 0.677000
26.391200 0.673700
26.421800 0.671900
26.452400 0.672600
26.483000 0.669800
26.513600 0.670400
26.544200 0.672800
26.574800 0.673100
26.605400 0.674500
26.636000 0.674400
26.666600 0.669400
26.697200 0.661600
26.727800 0.658900
26.758400 0.659000
26.789000 0.660500
26.819600 0.657100
26.850200 0.654300
26.880800 0.651400
26.911400 0.648300
26.942000 0.649100
26.972600 0.646100
27.003200 0.643100
27.033800 0.635800
27.064400 0.629200
27.095000 0.626700
27.125600 0.625500
27.156200 0.624500
27.186800 0.623400
27.217400 0.622900
27.248000 0.622200
27.278600 0.621500
27.309200 0.619800
27.339800 0.614800
27.370400 0.615900
27.401000 0.615700
27.431600 0.617400
27.462200 0.617700
27.492800 0.620600
27.523400 0.625400
27.554000 0.637000
27.584600 0.640800
27.615200 0.641900
27.645800 0.644100
27.676400 0.647800
27.707000 0.650700
27.737600 0.655600
27.768200 0.661900
27.798800 0.669200
27.829400 0.676600
27.860000 0.683700
27.890600 0.693800
27.921200 0.702900
27.951800 0.713600
27.982400 0.724100
28.013000 0.733800
28.043600 0.741800
28.074200 0.744800
28.104800 0.752100
28.135400 0.763000
28.166000 0.770500
28.196600 0.776600
28.227200 0.780600
28.257800 0.785700
28.288400 0.787800
28.319000 0.788200
28.349600 0.785300
28.380200 0.788700
28.410800 0.787400
28.441400 0.781200
28.472000 0.776700
28.502600 0.781000
28.533200 0.780000
28.563800 0.771000
28.594400 0.761200
28.625000 0.754800
28.655600 0.747800
28.686200 0.733000
28.716800 0.717000
28.747400 0.709500
28.778000 0.690500
28.808700 0.679400
28.839300 0.667300
28.869900 0.661600
28.900500 0.648500
28.931100 0.632800
28.961700 0.572300
28.992300 0.565000
29.022900 0.568100
29.053500 0.569400
29.084100 0.568500
29.114700 0.572200
29.145300 0.579600
29.175900 0.591200
29.206500 0.605600
29.237100 0.623900
29.267700 0.639700
29.298300 0.647600
29.328900 0.651500
29.359500 0.649100
29.390100 0.650200
29.420700 0.653600
29.451300 0.644900
29.481900 0.634600
29.512500 0.627300
29.543100 0.625100
29.573700 0.624100
29.604300 0.622800
29.634900 0.626800
29.665500 0.623800
29.696100 0.628000
29.726700 0.637200
29.757300 0.638100
29.787900 0.635500
29.818500 0.631300
29.849100 0.627100
29.879700 0.624300
29.910300 0.631500
29.940900 0.633200
29.971500 0.613500
30.002100 0.590900
30.032700 0.572700
30.063300 0.559200
30.093900 0.548400
30.124500 0.534500
30.155100 0.530700
30.185700 0.529300
30.216300 0.528000
30.246900 0.526500
30.277500 0.524900
30.308100 0.523300
30.338700 0.522400
30.369300 0.522700
30.399900 0.522800
30.430500 0.524500
30.461100 0.524800
30.491700 0.524300
30.522300 0.524400
30.552900 0.524500
30.583500 0.524400
30.614100 0.524000
30.644700 0.524000
30.675300 0.523900
30.705900 0.524100
30.736500 0.526400
30.767100 0.531000
30.797700 0.534700
30.828300 0.539600
30.858900 0.543800
30.889500 0.548800
30.920100 0.554800
30.950700 0.561900
30.981300 0.567100
31.011900 0.572800
31.042500 0.578100
31.073100 0.581200
31.103700 0.584500
31.134300 0.588600
31.164900 0.593000
31.195500 0.597200
31.226100 0.601300
31.256700 0.604300
31.287300 0.607300
31.317900 0.613400
31.348500 0.613700
31.379100 0.611900
31.409700 0.607700
31.440300 0.603600
31.470900 0.602800
31.501500 0.600500
31.532100 0.598200
31.562700 0.593500
31.593300 0.591100
31.623900 0.591800
31.654600 0.584100
31.685200 0.575500
31.715800 0.566400
31.746400 0.559900
31.777000 0.555600
31.807600 0.553500
31.838200 0.552900
31.868800 0.553700
31.899400 0.555800
31.930000 0.558700
31.960600 0.561400
31.991200 0.564600
32.021800 0.568300
32.052400 0.560800
32.083000 0.557600
32.113600 0.556900
32.144200 0.558700
32.174800 0.563600
32.205400 0.571400
32.236000 0.576500
32.266600 0.581900
32.297200 0.586300
32.327800 0.594500
32.358400 0.600900
32.389000 0.607700
32.419600 0.615900
32.450200 0.624700
32.480800 0.634400
32.511400 0.646000
32.542000 0.656200
32.572600 0.662000
32.603200 0.667100
32.633800 0.675800
32.664400 0.688700
32.695000 0.702400
32.725600 0.710500
32.756200 0.722600
32.786800 0.732700
32.817400 0.751900
32.848000 0.744300
32.878600 0.746000
32.909200 0.755000
32.939800 0.763500
32.970400 0.764300
33.001000 0.767100
33.031600 0.769600
33.062200 0.772500
33.092800 0.774800
33.123400 0.776800
33.154000 0.776600
33.184600 0.778300
33.215200 0.784300
33.245800 0.789300
33.276400 0.793700
33.307000 0.800900
33.337600 0.807000
33.368200 0.814200
33.398800 0.819200
33.429400 0.824600
33.460000 0.833400
33.490600 0.845200
33.521200 0.852400
33.551800 0.854500
33.582400 0.849400
33.613000 0.847500
33.643600 0.850600
33.674200 0.855900
33.704800 0.860100
33.735400 0.866300
33.766000 0.872600
33.796600 0.875600
33.827200 0.872000
33.857800 0.866300
33.888400 0.861300
33.919000 0.857400
33.949600 0.856300
33.980200 0.857100
34.010800 0.862500
34.041400 0.868800
34.072000 0.873300
34.102600 0.878300
34.133200 0.883800
34.163800 0.899000
34.194400 0.912900
34.225000 0.850800
34.255600 0.828100
34.286200 0.821500
34.316800 0.821400
34.347400 0.830800
34.378000 0.837300
34.408600 0.838400
34.439200 0.835000
34.469800 0.833300
34.500500 0.830500
34.531100 0.828500
34.561700 0.831400
34.592300 0.823100
34.622900 0.825100
34.653500 0.820600
34.684100 0.829300
34.714700 0.837400
34.745300 0.840500
34.775900 0.837500
34.806500 0.832700
34.837100 0.826800
34.867700 0.823300
34.898300 0.822000
34.928900 0.821200
34.959500 0.821800
34.990100 0.819900
35.020700 0.816500
35.051300 0.816900
35.081900 0.820000
35.112500 0.820900
35.143100 0.819200
35.173700 0.818300
35.204300 0.814400
35.234900 0.806500
35.265500 0.802400
35.296100 0.794700
35.326700 0.784800
35.357300 0.776600
35.387900 0.773600
35.418500 0.772400
35.449100 0.779300
35.479700 0.787900
35.510300 0.775600
35.540900 0.760300
35.571500 0.753100
35.602100 0.748700
35.632700 0.748100
35.663300 0.748300
35.693900 0.748500
35.724500 0.745900
35.755100 0.738700
35.785700 0.730400
35.816300 0.722500
35.846900 0.716600
35.877500 0.712400
35.908100 0.710000
35.938700 0.707500
35.969300 0.703500
35.999900 0.700400
36.030500 0.696900
36.061100 0.699600
36.091700 0.685500
36.122300 0.676800
36.152900 0.668300
36.183500 0.657300
36.214100 0.648400
36.244700 0.647300
36.275300 0.626100
36.305900 0.611400
36.336500 0.585800
36.367100 0.577300
36.397700 0.576900
36.428300 0.577300
36.458900 0.577200
36.489500 0.574300
36.520100 0.564200
36.550700 0.557900
36.581300 0.556900
36.611900 0.524000
36.642500 0.503500
36.673100 0.474400
36.703700 0.448600
36.734300 0.435500
36.764900 0.428200
36.795500 0.422500
36.826100 0.418100
36.856700 0.415200
36.887300 0.411900
36.917900 0.408900
36.948500 0.405900
36.979100 0.403800
37.009700 0.401500
37.040300 0.399300
37.070900 0.397100
37.101500 0.395600
37.132100 0.394700
37.162700 0.393400
37.193300 0.391400
37.223900 0.390100
37.254500 0.390200
37.285100 0.388800
37.315700 0.382400
37.346400 0.382300
37.377000 0.383000
37.407600 0.383700
37.438200 0.384200
37.468800 0.384600
37.499400 0.385200
37.530000 0.385900
37.560600 0.386600
37.591200 0.387400
37.621800 0.388000
37.652400 0.388800
37.683000 0.389700
37.713600 0.390400
37.744200 0.391300
37.774800 0.392300
37.805400 0.393200
37.836000 0.394100
37.866600 0.395000
37.897200 0.395900
37.927800 0.396500
37.958400 0.397200
37.989000 0.397700
38.019600 0.398100
38.050200 0.398500
38.080800 0.398800
38.111400 0.399200
38.142000 0.399500
38.172600 0.400000
38.203200 0.400500
38.233800 0.401000
38.264400 0.401700
38.295000 0.402400
38.325600 0.403300
38.356200 0.404300
38.386800 0.405300
38.417400 0.406400
38.448000 0.407800
38.478600 0.409400
38.509200 0.411200
38.539800 0.413100
38.570400 0.414900
38.601000 0.416400
38.631600 0.417800
38.662200 0.419200
38.692800 0.420600
38.723400 0.421900
38.754000 0.423000
38.784600 0.424600
38.815200 0.426600
38.845800 0.428600
38.876400 0.430700
38.907000 0.433000
38.937600 0.435700
38.968200 0.437900
38.998800 0.438700
39.029400 0.438200
39.060000 0.437300
39.090600 0.437700
39.121200 0.437500
39.151800 0.436600
39.182400 0.435900
39.213000 0.436100
39.243600 0.436300
39.274200 0.436600
39.304800 0.436800
39.335400 0.437000
39.366000 0.437200
39.396600 0.437600
39.427200 0.437900
39.457800 0.438500
39.488400 0.439400
39.519000 0.440100
39.549600 0.441100
39.580200 0.441900
39.610800 0.441700
39.641400 0.441600
39.672000 0.441400
39.702600 0.441300
39.733200 0.441600
39.763800 0.442300
39.794400 0.442700
39.825000 0.443100
39.855600 0.443300
39.886200 0.444100
39.916800 0.444600
39.947400 0.444900
39.978000 0.444400
40.008600 0.444200
40.039200 0.443400
40.069800 0.442800
40.100400 0.442500
40.131000 0.441900
40.161700 0.441200
40.192300 0.440600
40.222900 0.439700
40.253500 0.439800
40.284100 0.440500
40.314700 0.441400
40.345300 0.442900
40.375900 0.444500
40.406500 0.444700
40.437100 0.445600
40.467700 0.446900
40.498300 0.448300
40.528900 0.449400
40.559500 0.452200
40.590100 0.454000
40.620700 0.454800
40.651300 0.455500
40.681900 0.456200
40.712500 0.457000
40.743100 0.457700
40.773700 0.458700
40.804300 0.459800
40.834900 0.460600
40.865500 0.461500
40.896100 0.462400
40.926700 0.463400
40.957300 0.464700
40.987900 0.467200
41.018500 0.469000
41.049100 0.469300
41.079700 0.470500
41.110300 0.471800
41.140900 0.473600
41.171500 0.476400
41.202100 0.481300
41.232700 0.487100
41.263300 0.498200
41.293900 0.510300
41.324500 0.519100
41.355100 0.525900
41.385700 0.531700
41.416300 0.537900
41.446900 0.541100
41.477500 0.536300
41.508100 0.530900
41.538700 0.525400
41.569300 0.520300
41.599900 0.517200
41.630500 0.515300
41.661100 0.513400
41.691700 0.511900
41.722300 0.510400
41.752900 0.508500
41.783500 0.506500
41.814100 0.507300
41.844700 0.505800
41.875300 0.503400
41.905900 0.501400
41.936500 0.500200
41.967100 0.499800
41.997700 0.499300
42.028300 0.498800
42.058900 0.498200
42.089500 0.498300
42.120100 0.499700
42.150700 0.500700
42.181300 0.501500
42.211900 0.502800
42.242500 0.503400
42.273100 0.503000
42.303700 0.501700
42.334300 0.499700
42.364900 0.497900
42.395500 0.495700
42.426100 0.493100
42.456700 0.490600
42.487300 0.486300
42.517900 0.480400
42.548500 0.468300
42.579100 0.451500
42.609700 0.443700
42.640300 0.437600
42.670900 0.433900
42.701500 0.431700
42.732100 0.430400
42.762700 0.428900
42.793300 0.432200
42.823900 0.433800
42.854500 0.435900
42.885100 0.449900
42.915700 0.458500
42.946300 0.417500
42.976900 0.366000
43.007600 0.343600
43.038200 0.338300
43.068800 0.338100
43.099400 0.352000
43.130000 0.354300
43.160600 0.360200
43.191200 0.368000
43.221800 0.376200
43.252400 0.392400
43.283000 0.406900
43.313600 0.425600
43.344200 0.446900
43.374800 0.471900
43.405400 0.505600
43.436000 0.540900
43.466600 0.598000
43.497200 0.620300
43.527800 0.646500
43.558400 0.652700
43.589000 0.653300
43.619600 0.669300
43.650200 0.688500
43.680800 0.707000
43.711400 0.724300
43.742000 0.734400
43.772600 0.716300
43.803200 0.713800
43.833800 0.720300
43.864400 0.732800
43.895000 0.746900
43.925600 0.752300
43.956200 0.753300
43.986800 0.752300
44.017400 0.749600
44.048000 0.765500
44.078600 0.744100
44.109200 0.718900
44.139800 0.684200
44.170400 0.648900
44.201000 0.611900
44.231600 0.567500
44.262200 0.539100
44.292800 0.516300
44.323400 0.500000
44.354000 0.480100
44.384600 0.458100
44.415200 0.439500
44.445800 0.423200
44.476400 0.407200
44.507000 0.394600
44.537600 0.386000
44.568200 0.379800
44.598800 0.375600
44.629400 0.373300
44.660000 0.371800
44.690600 0.370300
44.721200 0.369400
44.751800 0.367700
44.782400 0.360900
44.813000 0.348400
44.843600 0.334600
44.874200 0.322000
44.904800 0.308000
44.935400 0.290700
44.966000 0.279900
44.996600 0.268400
45.027200 0.255000
45.057800 0.243400
45.088400 0.231400
45.119000 0.220200
45.149600 0.213400
45.180200 0.207900
45.210800 0.203000
45.241400 0.198200
45.272000 0.193100
45.302600 0.187900
45.333200 0.182500
45.363800 0.176800
45.394400 0.172100
45.425000 0.168400
45.455600 0.164900
45.486200 0.161500
45.516800 0.158300
45.547400 0.155100
45.578000 0.152100
45.608600 0.149100
45.639200 0.146200
45.669800 0.143400
45.700400 0.140600
45.731000 0.137900
45.761600 0.135300
45.792200 0.132800
45.822800 0.130500
45.853500 0.128300
45.884100 0.126200
45.914700 0.124800
45.945300 0.125400
45.975900 0.122500
46.006500 0.112500
46.037100 0.110200
46.067700 0.108600
46.098300 0.107100
46.128900 0.105600
46.159500 0.104200
46.190100 0.102800
46.220700 0.101300
46.251300 0.099900
46.281900 0.098500
46.312500 0.097200
46.343100 0.096000
46.373700 0.094800
46.404300 0.093700
46.434900 0.092500
46.465500 0.091400
46.496100 0.090200
46.526700 0.088900
46.557300 0.087600
46.587900 0.086300
46.618500 0.085100
46.649100 0.083800
46.679700 0.082600
46.710300 0.081500
46.740900 0.080300
46.771500 0.079200
46.802100 0.078000
46.832700 0.076900
46.863300 0.075800
46.893900 0.074800
46.924500 0.073700
46.955100 0.072600
46.985700 0.071500
47.016300 0.070500
47.046900 0.069400
47.077500 0.068300
47.108100 0.067300
47.138700 0.066300
47.169300 0.065300
47.199900 0.064300
47.230500 0.063400
47.261100 0.062400
47.291700 0.061300
47.322300 0.060200
47.352900 0.059100
47.383500 0.058000
47.414100 0.056900
47.444700 0.055900
47.475300 0.054900
47.505900 0.053900
47.536500 0.052900
47.567100 0.051800
47.597700 0.050800
47.628300 0.049800
47.658900 0.048700
47.689500 0.047600
47.720100 0.043900
47.750700 0.043200
47.781300 0.042500
47.811900 0.041800
47.842500 0.041100
47.873100 0.040400
47.903700 0.039700
47.934300 0.039000
47.964900 0.038400
47.995500 0.037700
48.026100 0.037000
48.056700 0.036300
48.087300 0.035600
48.117900 0.034900
48.148500 0.034200
48.179100 0.033600
48.209700 0.032900
48.240300 0.032200
48.270900 0.031600
48.301500 0.031000
48.332100 0.030400
48.362700 0.029800
48.393300 0.029100
48.423900 0.028500
48.454500 0.027900
48.485100 0.027300
48.515700 0.026800
48.546300 0.026200
48.576900 0.025700
48.607500 0.025300
48.638100 0.024800
48.668700 0.024300
48.699400 0.023700
48.730000 0.023200
48.760600 0.022700
48.791200 0.022100
48.821800 0.021700
48.852400 0.021200
48.883000 0.020800
48.913600 0.020400
48.944200 0.019800
48.974800 0.019300
49.005400 0.018800
49.036000 0.018300
49.066600 0.017800
49.097200 0.017400
49.127800 0.017000
49.158400 0.016500
49.189000 0.016100
49.219600 0.015700
49.250200 0.015300
49.280800 0.014900
49.311400 0.014500
49.342000 0.014100
49.372600 0.013700
49.403200 0.013400
49.433800 0.013000
49.464400 0.012600
49.495000 0.012300
49.525600 0.011900
49.556200 0.011600
49.586800 0.011300
49.617400 0.011000
49.648000 0.010700
49.678600 0.010400
49.709200 0.010100
49.739800 0.009800
49.770400 0.009400
49.801000 0.009100
49.831600 0.008800
49.862200 0.008500
49.892800 0.008300
49.923400 0.008000
49.954000 0.007700
49.984600 0.007500
50.015200 0.007300
50.045800 0.007000
50.076400 0.006800
50.107000 0.006600
50.137600 0.006500
50.168200 0.006300
50.198800 0.006100
50.229400 0.005900
50.260000 0.005700
50.290600 0.005500
50.321200 0.005200
50.351800 0.005000
50.382400 0.004700
50.413000 0.004500
50.443600 0.004200
50.474200 0.004000
50.504800 0.003700
50.535400 0.003500
50.566000 0.003200
50.596600 0.003100
50.627200 0.003000
50.657800 0.002800
50.688400 0.002600
50.719000 0.002500
50.749600 0.002300
50.780200 0.002100
50.810800 0.002000
50.841400 0.001800
50.872000 0.001600
50.902600 0.001400
50.933200 0.001300
50.963800 0.001100
50.994400 0.000900
51.025000 0.000800
51.055600 0.000600
51.086200 0.000500
51.116800 0.000400
51.147400 0.000200
51.178000 0.000200
51.208600 0.000100
51.239200 0.000000
51.269800 0.000000
51.300400 0.000000
51.331000 0.000000
51.361600 0.000000
51.392200 0.000000
51.422800 0.000000
51.453400 0.000000
51.484000 0.000000
51.514700 0.000000
51.545300 0.000000
51.575900 0.000000
51.606500 0.000000
51.637100 0.000000
51.667700 0.000000
51.698300 0.000000
51.728900 0.000000
51.759500 0.000000
51.790100 0.000000
51.820700 0.000000
51.851300 0.000000
51.881900 0.000000
51.912500 0.000000
51.943100 0.000000
51.973700 0.000000
52.004300 0.000000
52.034900 0.000000
52.065500 0.000000
52.096100 0.000000
52.126700 0.000000
52.157300 0.000000
52.187900 0.000000
52.218500 0.000000
52.249100 0.000000
52.279700 0.000000
52.310300 0.000000
52.340900 0.000000
52.371500 0.000000
52.402100 0.000000
52.432700 0.000000
52.463300 0.000000
52.493900 0.000000
52.524500 0.000000
52.555100 0.000000
52.585700 0.000000
52.616300 0.000000
52.646900 0.000000
52.677500 0.000000
52.708100 0.000000
52.738700 0.000000
52.769300 0.000000
52.799900 0.000000
52.830500 0.000000
52.861100 0.000000
52.891700 0.000000
52.922300 0.000000
52.952900 0.000000
52.983500 0.000000
53.014100 0.000000
53.044700 0.000000
53.075300 0.000000
53.105900 0.000000
53.136500 0.000000
53.167100 0.000000
53.197700 0.000000
53.228300 0.000000
53.258900 0.000000
53.289500 0.000000
53.320100 0.000000
53.350700 0.000000
53.381300 0.000000
53.411900 0.000000
53.442500 0.000000
53.473100 0.000000
53.503700 0.000000
53.534300 0.000000
53.564900 0.000000
53.595500 0.000000
53.626100 0.000000
53.656700 0.000000
53.687300 0.000000
53.717900 0.000000
53.748500 0.000000
53.779100 0.000000
53.809700 0.000000
53.840300 0.000000
53.870900 0.000000
53.901500 0.000000
53.932100 0.000000
53.962700 0.000000
53.993300 0.000000
54.023900 0.000000
54.054500 0.000000
54.085100 0.000000
e
