set title 'mp-614006 - Density of States'
set xlabel 'Energy (eV)'
set ylabel 'DOS (states/eV)'
set grid
set xrange [-10:10]
set yrange [0:6.458]
set xzeroaxis lt -1
set terminal png size 800,600
set output 'mp-614006_dos_gnuplot.png'
plot '-' using 1:2 with lines title 'DOS'
-23.345200 0.000000
-23.311700 0.000000
-23.278300 0.000000
-23.244800 0.000000
-23.211300 0.000000
-23.177900 0.000000
-23.144400 0.000000
-23.110900 0.000000
-23.077500 0.000000
-23.044000 0.000000
-23.010500 0.000000
-22.977000 0.000000
-22.943600 0.000000
-22.910100 0.000000
-22.876600 0.000000
-22.843200 0.000000
-22.809700 0.000000
-22.776200 0.000000
-22.742800 0.000000
-22.709300 0.000000
-22.675800 0.000000
-22.642400 0.000000
-22.608900 0.000000
-22.575400 0.000000
-22.542000 0.000000
-22.508500 0.000000
-22.475000 0.000000
-22.441600 0.000000
-22.408100 0.000000
-22.374600 0.000000
-22.341100 0.000000
-22.307700 0.000000
-22.274200 0.000000
-22.240700 0.000000
-22.207300 0.000000
-22.173800 0.000000
-22.140300 0.000000
-22.106900 0.000000
-22.073400 0.000000
-22.039900 0.000000
-22.006500 0.000000
-21.973000 0.000000
-21.939500 0.000000
-21.906100 0.000000
-21.872600 0.000000
-21.839100 0.000000
-21.805600 0.000000
-21.772200 0.000000
-21.738700 0.000000
-21.705200 0.000000
-21.671800 0.000000
-21.638300 0.000000
-21.604800 0.000000
-21.571400 0.000000
-21.537900 0.000000
-21.504400 0.000000
-21.471000 0.000000
-21.437500 0.000000
-21.404000 0.000000
-21.370600 0.000000
-21.337100 0.000000
-21.303600 0.000000
-21.270100 0.000000
-21.236700 0.000000
-21.203200 0.000000
-21.169700 0.000000
-21.136300 0.000000
-21.102800 0.000000
-21.069300 0.000000
-21.035900 0.000000
-21.002400 0.000000
-20.968900 0.000000
-20.935500 0.000000
-20.902000 0.000000
-20.868500 0.000000
-20.835100 0.000000
-20.801600 0.000000
-20.768100 0.000000
-20.734700 0.000000
-20.701200 0.000000
-20.667700 0.000000
-20.634200 0.000000
-20.600800 0.000000
-20.567300 0.000000
-20.533800 0.000000
-20.500400 0.000000
-20.466900 0.000000
-20.433400 0.000000
-20.400000 0.000000
-20.366500 0.000000
-20.333000 0.000000
-20.299600 0.059600
-20.266100 0.731300
-20.232600 0.445300
-20.199200 0.503000
-20.165700 0.481400
-20.132200 0.460300
-20.098700 0.481900
-20.065300 0.503500
-20.031800 0.486800
-19.998300 0.485700
-19.964900 0.484600
-19.931400 0.496300
-19.897900 0.508600
-19.864500 0.520800
-19.831000 0.511200
-19.797500 0.507700
-19.764100 0.777700
-19.730600 0.962300
-19.697100 1.037800
-19.663700 1.091500
-19.630200 1.037200
-19.596700 1.060500
-19.563300 1.087900
-19.529800 1.079200
-19.496300 1.085600
-19.462800 1.092800
-19.429400 1.114600
-19.395900 1.137000
-19.362400 1.156700
-19.329000 1.145000
-19.295500 1.157400
-19.262000 1.171400
-19.228600 1.186700
-19.195100 1.206100
-19.161600 1.225600
-19.128200 1.233600
-19.094700 1.245800
-19.061200 1.262400
-19.027800 1.284400
-18.994300 1.305600
-18.960800 1.326700
-18.927300 1.348600
-18.893900 1.369700
-18.860400 1.392400
-18.826900 1.415400
-18.793500 1.439000
-18.760000 1.463100
-18.726500 1.504900
-18.693100 1.539600
-18.659600 1.574400
-18.626100 1.622600
-18.592700 1.665200
-18.559200 1.707400
-18.525700 1.750800
-18.492300 1.794600
-18.458800 1.856100
-18.425300 1.941600
-18.391800 2.044200
-18.358400 2.154500
-18.324900 2.262400
-18.291400 2.389700
-18.258000 2.531100
-18.224500 2.707800
-18.191000 3.081300
-18.157600 8.892100
-18.124100 3.334200
-18.090600 3.040400
-18.057200 3.274600
-18.023700 3.293800
-17.990200 3.867300
-17.956800 4.174800
-17.923300 3.066300
-17.889800 2.949700
-17.856400 2.785000
-17.822900 2.576500
-17.789400 2.119100
-17.755900 2.213400
-17.722500 0.000000
-17.689000 0.000000
-17.655500 0.000000
-17.622100 0.000000
-17.588600 0.000000
-17.555100 0.000000
-17.521700 0.000000
-17.488200 0.000000
-17.454700 0.000000
-17.421300 0.000000
-17.387800 0.000000
-17.354300 0.000000
-17.320900 0.000000
-17.287400 0.000000
-17.253900 0.000000
-17.220400 0.000000
-17.187000 0.000000
-17.153500 0.000000
-17.120000 0.000000
-17.086600 0.000000
-17.053100 0.000000
-17.019600 0.000000
-16.986200 0.000000
-16.952700 0.000000
-16.919200 0.000000
-16.885800 0.000000
-16.852300 0.000000
-16.818800 0.000000
-16.785400 0.000000
-16.751900 0.000000
-16.718400 0.000000
-16.684900 0.000000
-16.651500 0.000000
-16.618000 0.000000
-16.584500 0.000000
-16.551100 0.000000
-16.517600 0.000000
-16.484100 0.000000
-16.450700 0.000000
-16.417200 0.000000
-16.383700 0.000000
-16.350300 0.000000
-16.316800 0.000000
-16.283300 0.000000
-16.249900 0.000000
-16.216400 0.000000
-16.182900 0.000000
-16.149500 0.000000
-16.116000 0.000000
-16.082500 0.000000
-16.049000 0.000000
-16.015600 0.000000
-15.982100 0.000000
-15.948600 0.000000
-15.915200 0.000000
-15.881700 0.000000
-15.848200 0.000000
-15.814800 0.000000
-15.781300 0.000000
-15.747800 0.000000
-15.714400 0.000000
-15.680900 0.000000
-15.647400 0.000000
-15.614000 0.000000
-15.580500 0.000000
-15.547000 0.000000
-15.513500 0.000000
-15.480100 0.000000
-15.446600 0.000000
-15.413100 0.000000
-15.379700 0.000000
-15.346200 0.000000
-15.312700 0.000000
-15.279300 0.000000
-15.245800 0.000000
-15.212300 0.000000
-15.178900 0.000000
-15.145400 0.000000
-15.111900 0.000000
-15.078500 0.000000
-15.045000 0.000000
-15.011500 0.000000
-14.978100 0.000000
-14.944600 0.000000
-14.911100 0.000000
-14.877600 0.000000
-14.844200 0.000000
-14.810700 0.000000
-14.777200 0.000000
-14.743800 0.000000
-14.710300 0.000000
-14.676800 0.000000
-14.643400 0.000000
-14.609900 0.000000
-14.576400 0.000000
-14.543000 0.000000
-14.509500 0.000000
-14.476000 0.000000
-14.442600 0.000000
-14.409100 0.000000
-14.375600 0.000000
-14.342100 0.000000
-14.308700 0.000000
-14.275200 0.000000
-14.241700 0.000000
-14.208300 0.000000
-14.174800 0.000000
-14.141300 0.000000
-14.107900 0.000000
-14.074400 0.000000
-14.040900 0.000000
-14.007500 0.000000
-13.974000 0.000000
-13.940500 0.000000
-13.907100 0.000000
-13.873600 0.000000
-13.840100 0.000000
-13.806600 0.000000
-13.773200 0.000000
-13.739700 0.000000
-13.706200 0.000000
-13.672800 0.000000
-13.639300 0.000000
-13.605800 0.000000
-13.572400 0.000000
-13.538900 0.000000
-13.505400 0.000000
-13.472000 0.000000
-13.438500 0.000000
-13.405000 0.000000
-13.371600 0.000000
-13.338100 0.000000
-13.304600 0.000000
-13.271200 0.000000
-13.237700 0.000000
-13.204200 0.000000
-13.170700 0.000000
-13.137300 0.000000
-13.103800 0.000000
-13.070300 0.000000
-13.036900 0.000000
-13.003400 0.000000
-12.969900 0.000000
-12.936500 0.000000
-12.903000 0.000000
-12.869500 0.000000
-12.836100 0.000000
-12.802600 0.000000
-12.769100 0.000000
-12.735700 0.000000
-12.702200 0.000000
-12.668700 0.000000
-12.635200 0.000000
-12.601800 0.000000
-12.568300 0.000000
-12.534800 0.000000
-12.501400 0.000000
-12.467900 0.000000
-12.434400 0.000000
-12.401000 0.000000
-12.367500 0.000000
-12.334000 0.000000
-12.300600 0.000000
-12.267100 0.000000
-12.233600 0.000000
-12.200200 0.000000
-12.166700 0.000000
-12.133200 0.000000
-12.099700 0.000000
-12.066300 0.000000
-12.032800 0.000000
-11.999300 0.000000
-11.965900 0.000000
-11.932400 0.000000
-11.898900 0.000000
-11.865500 0.000000
-11.832000 0.000000
-11.798500 0.000000
-11.765100 0.000000
-11.731600 0.000000
-11.698100 0.000000
-11.664700 0.000000
-11.631200 0.000000
-11.597700 0.000000
-11.564300 0.000000
-11.530800 0.000000
-11.497300 0.000000
-11.463800 0.000000
-11.430400 0.000000
-11.396900 0.000000
-11.363400 0.000000
-11.330000 0.000000
-11.296500 0.000000
-11.263000 0.000000
-11.229600 0.000000
-11.196100 0.000000
-11.162600 0.000000
-11.129200 0.000000
-11.095700 0.000000
-11.062200 0.000000
-11.028800 0.000000
-10.995300 0.000000
-10.961800 0.000000
-10.928300 0.000000
-10.894900 0.000000
-10.861400 0.000000
-10.827900 0.000000
-10.794500 0.000000
-10.761000 0.000000
-10.727500 0.000000
-10.694100 0.000000
-10.660600 0.000000
-10.627100 0.000000
-10.593700 0.000000
-10.560200 0.000000
-10.526700 0.000000
-10.493300 0.000000
-10.459800 0.000000
-10.426300 0.000000
-10.392900 0.000000
-10.359400 0.000000
-10.325900 0.000000
-10.292400 0.000000
-10.259000 0.000000
-10.225500 0.000000
-10.192000 0.000000
-10.158600 0.000000
-10.125100 0.000000
-10.091600 0.000000
-10.058200 0.000000
-10.024700 0.000000
-9.991200 0.000000
-9.957800 0.000000
-9.924300 0.000000
-9.890800 0.000000
-9.857400 0.000000
-9.823900 0.000000
-9.790400 0.000000
-9.756900 0.000000
-9.723500 0.000000
-9.690000 0.000000
-9.656500 0.000000
-9.623100 0.000000
-9.589600 0.000000
-9.556100 0.000000
-9.522700 0.000000
-9.489200 0.000000
-9.455700 0.000000
-9.422300 0.000000
-9.388800 0.000000
-9.355300 0.000000
-9.321900 0.000000
-9.288400 0.000000
-9.254900 0.000000
-9.221400 0.000000
-9.188000 0.000000
-9.154500 0.000000
-9.121000 0.000000
-9.087600 0.000000
-9.054100 0.000000
-9.020600 0.000000
-8.987200 0.000000
-8.953700 0.000000
-8.920200 0.000000
-8.886800 0.000000
-8.853300 0.000000
-8.819800 0.000000
-8.786400 0.000000
-8.752900 0.000000
-8.719400 0.000000
-8.686000 0.000000
-8.652500 0.000000
-8.619000 0.097700
-8.585500 0.543200
-8.552100 0.846100
-8.518600 1.211600
-8.485100 1.075500
-8.451700 0.990800
-8.418200 1.015100
-8.384700 1.072800
-8.351300 1.141800
-8.317800 1.142200
-8.284300 1.090000
-8.250900 1.100600
-8.217400 1.093200
-8.183900 1.111300
-8.150500 1.533000
-8.117000 2.005000
-8.083500 1.963000
-8.050000 1.852800
-8.016600 1.900800
-7.983100 1.981900
-7.949600 2.056400
-7.916200 2.104400
-7.882700 2.086000
-7.849200 2.079600
-7.815800 2.198900
-7.782300 2.317200
-7.748800 3.011700
-7.715400 2.682000
-7.681900 2.352300
-7.648400 2.310600
-7.615000 2.301400
-7.581500 1.823100
-7.548000 1.836700
-7.514500 1.854000
-7.481100 1.871400
-7.447600 1.892200
-7.414100 1.913600
-7.380700 1.927700
-7.347200 2.079700
-7.313700 2.432200
-7.280300 2.179500
-7.246800 1.928400
-7.213300 1.771500
-7.179900 2.114600
-7.146400 1.938500
-7.112900 1.945200
-7.079500 1.997200
-7.046000 1.839500
-7.012500 1.886900
-6.979100 1.911400
-6.945600 2.013400
-6.912100 1.932700
-6.878600 1.804900
-6.845200 1.669600
-6.811700 1.543800
-6.778200 1.420100
-6.744800 1.342000
-6.711300 1.298200
-6.677800 1.523800
-6.644400 1.708900
-6.610900 1.721600
-6.577400 1.930100
-6.544000 1.908900
-6.510500 1.653800
-6.477000 1.908100
-6.443600 2.073600
-6.410100 2.431400
-6.376600 3.233200
-6.343100 1.130200
-6.309700 0.384800
-6.276200 0.966800
-6.242700 0.992400
-6.209300 1.010400
-6.175800 1.036400
-6.142300 1.062400
-6.108900 1.088300
-6.075400 1.114300
-6.041900 1.140300
-6.008500 1.914800
-5.975000 1.260900
-5.941500 1.099700
-5.908100 1.082600
-5.874600 1.078300
-5.841100 1.074400
-5.807700 1.070500
-5.774200 1.076100
-5.740700 1.082100
-5.707200 1.104600
-5.673800 1.112600
-5.640300 1.120700
-5.606800 1.128000
-5.573400 1.134200
-5.539900 1.175600
-5.506400 1.224100
-5.473000 1.271600
-5.439500 1.318900
-5.406000 1.366300
-5.372600 1.438400
-5.339100 1.536200
-5.305600 1.337700
-5.272200 1.258200
-5.238700 1.179700
-5.205200 1.151500
-5.171700 1.188300
-5.138300 1.225200
-5.104800 1.262100
-5.071300 1.282400
-5.037900 1.263400
-5.004400 1.264400
-4.970900 1.149300
-4.937500 1.204700
-4.904000 2.652100
-4.870500 4.145200
-4.837100 2.784200
-4.803600 2.575700
-4.770100 2.416600
-4.736700 2.615400
-4.703200 2.537400
-4.669700 2.445500
-4.636200 2.364400
-4.602800 2.300400
-4.569300 2.235200
-4.535800 2.117900
-4.502400 2.170500
-4.468900 2.202500
-4.435400 2.105700
-4.402000 2.009200
-4.368500 1.958300
-4.335000 2.015400
-4.301600 2.039300
-4.268100 2.060800
-4.234600 2.101500
-4.201200 2.142200
-4.167700 2.182900
-4.134200 2.279300
-4.100800 2.253400
-4.067300 2.385600
-4.033800 2.461900
-4.000300 2.656200
-3.966900 2.590900
-3.933400 2.476200
-3.899900 2.460600
-3.866500 2.546600
-3.833000 2.732600
-3.799500 2.897900
-3.766100 2.786100
-3.732600 2.940500
-3.699100 3.117100
-3.665700 2.904200
-3.632200 2.716500
-3.598700 2.529600
-3.565300 2.410700
-3.531800 2.432500
-3.498300 2.469500
-3.464800 3.066100
-3.431400 3.098200
-3.397900 2.658300
-3.364400 2.541300
-3.331000 2.453500
-3.297500 2.351200
-3.264000 2.263600
-3.230600 2.188100
-3.197100 2.111900
-3.163600 2.249200
-3.130200 2.203300
-3.096700 2.158900
-3.063200 2.120400
-3.029800 2.334300
-2.996300 2.457000
-2.962800 2.344800
-2.929300 2.232600
-2.895900 2.558800
-2.862400 2.642300
-2.828900 2.104000
-2.795500 1.778500
-2.762000 1.678600
-2.728500 1.639600
-2.695100 2.039300
-2.661600 2.855700
-2.628100 2.823400
-2.594700 1.972700
-2.561200 2.089300
-2.527700 2.518800
-2.494300 1.830000
-2.460800 1.868900
-2.427300 2.940400
-2.393900 3.589400
-2.360400 3.702400
-2.326900 3.597300
-2.293400 3.218400
-2.260000 3.130700
-2.226500 3.240800
-2.193000 3.247300
-2.159600 3.919700
-2.126100 3.391600
-2.092600 3.554900
-2.059200 3.767600
-2.025700 3.818000
-1.992200 4.178400
-1.958800 5.870900
-1.925300 4.541100
-1.891800 4.884700
-1.858400 4.022300
-1.824900 3.834200
-1.791400 3.143500
-1.757900 3.557600
-1.724500 0.468500
-1.691000 0.450700
-1.657500 0.432900
-1.624100 0.415000
-1.590600 0.402700
-1.557100 0.396900
-1.523700 0.391100
-1.490200 0.385300
-1.456700 0.379500
-1.423300 0.373700
-1.389800 0.367900
-1.356300 0.362100
-1.322900 0.356300
-1.289400 0.352400
-1.255900 0.349200
-1.222500 0.345900
-1.189000 0.342700
-1.155500 0.339400
-1.122000 0.336200
-1.088600 0.332900
-1.055100 0.333900
-1.021600 0.339100
-0.988200 0.344300
-0.954700 0.349500
-0.921200 0.354800
-0.887800 0.360200
-0.854300 0.495300
-0.820800 0.490900
-0.787400 0.415100
-0.753900 0.405900
-0.720400 0.396600
-0.687000 0.387400
-0.653500 0.378200
-0.620000 0.380900
-0.586500 0.436300
-0.553100 0.516100
-0.519600 0.510100
-0.486100 0.543400
-0.452700 0.586900
-0.419200 0.646100
-0.385700 0.687000
-0.352300 0.685200
-0.318800 0.687000
-0.285300 0.694900
-0.251900 0.698400
-0.218400 0.697700
-0.184900 0.700800
-0.151500 0.702800
-0.118000 0.706800
-0.084500 0.948000
-0.051000 0.964200
-0.017600 0.978900
0.015900 0.994100
0.049400 1.014100
0.082800 1.227800
0.116300 1.282100
0.149800 1.288100
0.183200 1.270600
0.216700 1.299100
0.250200 1.395000
0.283600 1.511500
0.317100 1.573600
0.350600 1.544600
0.384000 1.859400
0.417500 1.783200
0.451000 2.049800
0.484400 2.964600
0.517900 2.479900
0.551400 2.185900
0.584900 2.009800
0.618300 1.939200
0.651800 1.901400
0.685300 1.871600
0.718700 1.862400
0.752200 1.864200
0.785700 1.868800
0.819100 1.889300
0.852600 1.941500
0.886100 2.022100
0.919500 2.122200
0.953000 2.147800
0.986500 2.111200
1.019900 2.031500
1.053400 2.010200
1.086900 1.565400
1.120400 1.477300
1.153800 1.435700
1.187300 1.396700
1.220800 1.192000
1.254200 1.068500
1.287700 0.948000
1.321200 0.915200
1.354600 0.911000
1.388100 0.905300
1.421600 0.899900
1.455000 0.894800
1.488500 0.890000
1.522000 0.887000
1.555400 0.897600
1.588900 0.916200
1.622400 0.941000
1.655900 0.963700
1.689300 0.979700
1.722800 1.066900
1.756300 1.210900
1.789700 1.386200
1.823200 1.596400
1.856700 1.869500
1.890100 2.586100
1.923600 2.985000
1.957100 2.286300
1.990500 2.006400
2.024000 1.789900
2.057500 0.263200
2.090900 0.265700
2.124400 0.268200
2.157900 0.279600
2.191300 0.285600
2.224800 0.291700
2.258300 0.296400
2.291800 0.301100
2.325200 0.305800
2.358700 0.310500
2.392200 0.315200
2.425600 0.328200
2.459100 0.349500
2.492600 0.370900
2.526000 0.392200
2.559500 0.451800
2.593000 0.597700
2.626400 0.828400
2.659900 1.522900
2.693400 1.762800
2.726800 1.527700
2.760300 1.292600
2.793800 1.095300
2.827300 1.009200
2.860700 0.929400
2.894200 0.850400
2.927700 0.780800
2.961100 0.752400
2.994600 0.765400
3.028100 0.773700
3.061500 0.778300
3.095000 0.782800
3.128500 0.755600
3.161900 0.714100
3.195400 0.718700
3.228900 0.760900
3.262300 0.812700
3.295800 0.883600
3.329300 0.949200
3.362700 0.951800
3.396200 0.953600
3.429700 0.955400
3.463200 0.957200
3.496600 0.911400
3.530100 0.923500
3.563600 0.935600
3.597000 1.043800
3.630500 1.124300
3.664000 1.286600
3.697400 1.250800
3.730900 1.225900
3.764400 1.214000
3.797800 1.199700
3.831300 1.106100
3.864800 0.924700
3.898200 0.851800
3.931700 0.858600
3.965200 0.868500
3.998700 0.967500
4.032100 1.261800
4.065600 1.502500
4.099100 1.361800
4.132500 1.221800
4.166000 1.107100
4.199500 1.079700
4.232900 1.061600
4.266400 1.043400
4.299900 1.025200
4.333300 0.984500
4.366800 0.943800
4.400300 0.932300
4.433700 0.921300
4.467200 0.921300
4.500700 0.920500
4.534200 0.919500
4.567600 0.920400
4.601100 0.921900
4.634600 0.923500
4.668000 0.925000
4.701500 0.935500
4.735000 0.952800
4.768400 0.957200
4.801900 1.294200
4.835400 1.112600
4.868800 0.883800
4.902300 0.857800
4.935800 0.831500
4.969200 0.804500
5.002700 0.777500
5.036200 0.750500
5.069600 0.733500
5.103100 0.716100
5.136600 0.743500
5.170100 0.775400
5.203500 0.813600
5.237000 0.681200
5.270500 0.663300
5.303900 0.646700
5.337400 0.632000
5.370900 0.617300
5.404300 0.602600
5.437800 0.588000
5.471300 0.573300
5.504700 0.558600
5.538200 0.543800
5.571700 0.529000
5.605100 0.514200
5.638600 0.499400
5.672100 0.491700
5.705600 0.491200
5.739000 0.490600
5.772500 0.490100
5.806000 0.494100
5.839400 0.498300
5.872900 0.502400
5.906400 0.429400
5.939800 0.434000
5.973300 0.427900
6.006800 0.420300
6.040200 0.460700
6.073700 0.570700
6.107200 0.713200
6.140600 0.880000
6.174100 0.942600
6.207600 0.965100
6.241100 0.962600
6.274500 0.951800
6.308000 0.936300
6.341500 0.917200
6.374900 0.919100
6.408400 0.932700
6.441900 0.946100
6.475300 0.963900
6.508800 0.914600
6.542300 0.913400
6.575700 0.900600
6.609200 0.902200
6.642700 0.907100
6.676100 0.912400
6.709600 0.917800
6.743100 0.923700
6.776500 0.929900
6.810000 0.933100
6.843500 0.936500
6.877000 0.945000
6.910400 0.958300
6.943900 0.986900
6.977400 1.014400
7.010800 1.040900
7.044300 1.061400
7.077800 1.273100
7.111200 1.174900
7.144700 1.205900
7.178200 1.274600
7.211600 1.399300
7.245100 1.660700
7.278600 1.776000
7.312000 2.368600
7.345500 2.406400
7.379000 2.275700
7.412500 2.278100
7.445900 2.392100
7.479400 2.692100
7.512900 2.507400
7.546300 2.491000
7.579800 2.398500
7.613300 2.308200
7.646700 2.266400
7.680200 2.345000
7.713700 2.080500
7.747100 1.977200
7.780600 1.893100
7.814100 1.906600
7.847500 1.843100
7.881000 1.917800
7.914500 1.943400
7.947900 1.790600
7.981400 1.443900
8.014900 1.175500
8.048400 0.999400
8.081800 1.074800
8.115300 1.321800
8.148800 1.481100
8.182200 1.661300
8.215700 1.282900
8.249200 1.256800
8.282600 1.343200
8.316100 1.507800
8.349600 1.645700
8.383000 1.603100
8.416500 1.545400
8.450000 1.467500
8.483400 1.717000
8.516900 2.180600
8.550400 2.535800
8.583900 2.639200
8.617300 2.662100
8.650800 2.656300
8.684300 2.666300
8.717700 2.736800
8.751200 2.969000
8.784700 3.290700
8.818100 3.371500
8.851600 3.105100
8.885100 2.935800
8.918500 2.616700
8.952000 2.388700
8.985500 2.199700
9.018900 2.063400
9.052400 1.960500
9.085900 1.857300
9.119400 1.625700
9.152800 1.640800
9.186300 1.714000
9.219800 1.774500
9.253200 1.811000
9.286700 1.840500
9.320200 1.907500
9.353600 1.955700
9.387100 2.031900
9.420600 2.059400
9.454000 2.012200
9.487500 1.924300
9.521000 1.857100
9.554400 1.820900
9.587900 1.821900
9.621400 2.221100
9.654800 2.575900
9.688300 2.223900
9.721800 2.044800
9.755300 1.867900
9.788700 1.647400
9.822200 1.367300
9.855700 1.167200
9.889100 0.754400
9.922600 0.509200
9.956100 0.514900
9.989500 0.529700
10.023000 0.552300
10.056500 0.582200
10.089900 0.612200
10.123400 0.642300
10.156900 0.679700
10.190300 0.689500
10.223800 0.746000
10.257300 0.967100
10.290800 1.376700
10.324200 1.648900
10.357700 1.881200
10.391200 2.065500
10.424600 2.367300
10.458100 2.203000
10.491600 2.063700
10.525000 2.029900
10.558500 1.839100
10.592000 1.706400
10.625400 1.790800
10.658900 1.741800
10.692400 1.692900
10.725800 1.645200
10.759300 1.789200
10.792800 1.698200
10.826300 1.612700
10.859700 1.481800
10.893200 1.415700
10.926700 1.401500
10.960100 1.387300
10.993600 1.374100
11.027100 1.371100
11.060500 1.368800
11.094000 1.366600
11.127500 1.365800
11.160900 1.359100
11.194400 1.424800
11.227900 1.807600
11.261300 1.341500
11.294800 1.371800
11.328300 1.751900
11.361700 1.707100
11.395200 1.416800
11.428700 1.346800
11.462200 1.219500
11.495600 1.065000
11.529100 0.719900
11.562600 0.718400
11.596000 0.718200
11.629500 0.744200
11.663000 0.780100
11.696400 0.819600
11.729900 1.558400
11.763400 2.695600
11.796800 3.575800
11.830300 4.813900
11.863800 4.888600
11.897200 3.519400
11.930700 2.984600
11.964200 3.029400
11.997700 2.385100
12.031100 2.103200
12.064600 2.089700
12.098100 2.119900
12.131500 1.995800
12.165000 2.187700
12.198500 2.417400
12.231900 2.169800
12.265400 2.025700
12.298900 1.807800
12.332300 1.537400
12.365800 1.476000
12.399300 1.650900
12.432700 1.832800
12.466200 2.038400
12.499700 2.174900
12.533100 2.444500
12.566600 2.861000
12.600100 2.916800
12.633600 3.225100
12.667000 3.302500
12.700500 3.285800
12.734000 2.951700
12.767400 2.753900
12.800900 2.480300
12.834400 2.269900
12.867800 2.130600
12.901300 2.042300
12.934800 1.999700
12.968200 1.976400
13.001700 1.871300
13.035200 2.133500
13.068600 2.477000
13.102100 2.804700
13.135600 3.117700
13.169100 3.434600
13.202500 3.441700
13.236000 3.354000
13.269500 3.257000
13.302900 3.131500
13.336400 2.713200
13.369900 2.591400
13.403300 2.516000
13.436800 2.213000
13.470300 2.183100
13.503700 2.133200
13.537200 2.191000
13.570700 2.324600
13.604100 2.321600
13.637600 2.227400
13.671100 1.977800
13.704600 2.082500
13.738000 1.996500
13.771500 1.979900
13.805000 2.031500
13.838400 2.178600
13.871900 2.331600
13.905400 2.705000
13.938800 3.305600
13.972300 3.105300
14.005800 3.342600
14.039200 3.255100
14.072700 3.104000
14.106200 2.992400
14.139600 2.763800
14.173100 2.691200
14.206600 2.603100
14.240000 2.542400
14.273500 2.528400
14.307000 2.536800
14.340500 2.499600
14.373900 2.521600
14.407400 2.180300
14.440900 2.218300
14.474300 2.383600
14.507800 2.752900
14.541300 2.436200
14.574700 2.444600
14.608200 2.416700
14.641700 2.389100
14.675100 2.562400
14.708600 3.008300
14.742100 2.919700
14.775500 2.543700
14.809000 2.349500
14.842500 2.146400
14.876000 1.862600
14.909400 1.800900
14.942900 1.732400
14.976400 1.709400
15.009800 1.783800
15.043300 1.851700
15.076800 1.952500
15.110200 2.166700
15.143700 2.288900
15.177200 2.135100
15.210600 2.094500
15.244100 1.521400
15.277600 1.507100
15.311000 1.357200
15.344500 1.312800
15.378000 1.916800
15.411500 2.146500
15.444900 2.443800
15.478400 3.222600
15.511900 4.300100
15.545300 5.771800
15.578800 6.818600
15.612300 6.995200
15.645700 6.045200
15.679200 4.741800
15.712700 4.352700
15.746100 3.745300
15.779600 3.516700
15.813100 3.364800
15.846500 3.206300
15.880000 3.409500
15.913500 2.096600
15.946900 1.690500
15.980400 1.422000
16.013900 1.388000
16.047400 1.468900
16.080800 1.676100
16.114300 1.799000
16.147800 1.843600
16.181200 2.110700
16.214700 2.426800
16.248200 2.697900
16.281600 2.866200
16.315100 2.929400
16.348600 2.688500
16.382000 2.335200
16.415500 2.011400
16.449000 1.824800
16.482400 1.769100
16.515900 1.724100
16.549400 1.754300
16.582900 1.835800
16.616300 2.072100
16.649800 2.445400
16.683300 2.612800
16.716700 2.708300
16.750200 2.693100
16.783700 2.624000
16.817100 2.353700
16.850600 2.148700
16.884100 1.934800
16.917500 1.667200
16.951000 1.343600
16.984500 0.975700
17.017900 0.757000
17.051400 0.651300
17.084900 0.563900
17.118300 0.500700
17.151800 0.464100
17.185300 0.438800
17.218800 0.413500
17.252200 0.388400
17.285700 0.387300
17.319200 0.404100
17.352600 0.415500
17.386100 0.427100
17.419600 0.164200
17.453000 0.176600
17.486500 0.189300
17.520000 0.243300
17.553400 0.366600
17.586900 0.565800
17.620400 0.768000
17.653800 1.111200
17.687300 1.461300
17.720800 1.648100
17.754300 1.683200
17.787700 1.707400
17.821200 2.091800
17.854700 1.836300
17.888100 1.604400
17.921600 1.665300
17.955100 1.902900
17.988500 1.850000
18.022000 1.860700
18.055500 1.915100
18.088900 1.983500
18.122400 2.013600
18.155900 1.978400
18.189300 1.938600
18.222800 1.880200
18.256300 1.915800
18.289800 2.013100
18.323200 2.024200
18.356700 2.080200
18.390200 2.094900
18.423600 2.058000
18.457100 2.077300
18.490600 2.119000
18.524000 2.102300
18.557500 1.780900
18.591000 1.838500
18.624400 1.964900
18.657900 2.164000
18.691400 2.321700
18.724800 2.333700
18.758300 2.532700
18.791800 2.984400
18.825200 3.668300
18.858700 4.025100
18.892200 4.059800
18.925700 3.499400
18.959100 2.965400
18.992600 2.593700
19.026100 2.425900
19.059500 2.282700
19.093000 2.132300
19.126500 2.010200
19.159900 1.962800
19.193400 1.892800
19.226900 1.815300
19.260300 1.749600
19.293800 1.669000
19.327300 1.615800
19.360700 1.574400
19.394200 1.541700
19.427700 1.427800
19.461200 1.328500
19.494600 1.252400
19.528100 1.197400
19.561600 1.155200
19.595000 1.175000
19.628500 1.337400
19.662000 0.927600
19.695400 0.942900
19.728900 0.970600
19.762400 0.987000
19.795800 1.095000
19.829300 1.191500
19.862800 1.327900
19.896200 1.604600
19.929700 1.948900
19.963200 1.343000
19.996600 1.166900
20.030100 1.032000
20.063600 0.969600
20.097100 1.044000
20.130500 1.221000
20.164000 1.414400
20.197500 1.602400
20.230900 1.754800
20.264400 1.823200
20.297900 1.816800
20.331300 1.812700
20.364800 1.869700
20.398300 1.895700
20.431700 1.943400
20.465200 1.961700
20.498700 2.000800
20.532100 1.991000
20.565600 1.958100
20.599100 1.928400
20.632600 1.888300
20.666000 1.859200
20.699500 1.848100
20.733000 1.837700
20.766400 1.798500
20.799900 1.754600
20.833400 1.736600
20.866800 1.728000
20.900300 1.948000
20.933800 2.211500
20.967200 2.412100
21.000700 2.441000
21.034200 2.499900
21.067600 2.285600
21.101100 2.159700
21.134600 2.128700
21.168100 2.148200
21.201500 2.218900
21.235000 2.122200
21.268500 2.001500
21.301900 1.828700
21.335400 1.630900
21.368900 1.532100
21.402300 1.580300
21.435800 1.768900
21.469300 2.042300
21.502700 2.269500
21.536200 2.643900
21.569700 2.844100
21.603100 2.772800
21.636600 2.707400
21.670100 2.665300
21.703500 2.573700
21.737000 2.520100
21.770500 1.667300
21.804000 1.487800
21.837400 1.382400
21.870900 1.318800
21.904400 1.291500
21.937800 1.374000
21.971300 1.417300
22.004800 1.768700
22.038200 5.103200
22.071700 2.933400
22.105200 3.031500
22.138600 3.080300
22.172100 3.243300
22.205600 3.314300
22.239000 3.240500
22.272500 3.346300
22.306000 3.500500
22.339500 3.567700
22.372900 3.608700
22.406400 3.591500
22.439900 3.358400
22.473300 3.195100
22.506800 3.502500
22.540300 4.078500
22.573700 2.330600
22.607200 2.151500
22.640700 2.098400
22.674100 2.106000
22.707600 2.134800
22.741100 2.170800
22.774500 2.187000
22.808000 2.260300
22.841500 2.421600
22.875000 2.462500
22.908400 2.576600
22.941900 2.654100
22.975400 2.692000
23.008800 2.730500
23.042300 2.760700
23.075800 2.787400
23.109200 2.793600
23.142700 2.534000
23.176200 2.814000
23.209600 2.607000
23.243100 2.593900
23.276600 2.743700
23.310000 3.005600
23.343500 3.200500
23.377000 3.198600
23.410400 3.068400
23.443900 2.933500
23.477400 2.830900
23.510900 2.792000
23.544300 2.741700
23.577800 2.813000
23.611300 2.669200
23.644700 2.685100
23.678200 2.739000
23.711700 2.613300
23.745100 2.612100
23.778600 2.610600
23.812100 2.608600
23.845500 2.689800
23.879000 2.808200
23.912500 2.832800
23.945900 2.764300
23.979400 2.720600
24.012900 2.710900
24.046400 2.712400
24.079800 2.763300
24.113300 2.845500
24.146800 2.598000
24.180200 2.825800
24.213700 2.235400
24.247200 2.105200
24.280600 2.033700
24.314100 2.011100
24.347600 1.994900
24.381000 1.987600
24.414500 1.984300
24.448000 1.992600
24.481400 2.025900
24.514900 2.074700
24.548400 2.114900
24.581800 2.213000
24.615300 2.249300
24.648800 2.325500
24.682300 2.535500
24.715700 2.818500
24.749200 2.998300
24.782700 2.997800
24.816100 3.002400
24.849600 2.984100
24.883100 2.972000
24.916500 2.735100
24.950000 2.618600
24.983500 2.486200
25.016900 2.536100
25.050400 2.459100
25.083900 2.440200
25.117300 2.427000
25.150800 2.414300
25.184300 2.430700
25.217800 2.353400
25.251200 2.309400
25.284700 2.284600
25.318200 2.285000
25.351600 2.378500
25.385100 2.401500
25.418600 2.209200
25.452000 2.197700
25.485500 2.121500
25.519000 2.066600
25.552400 2.515400
25.585900 2.121700
25.619400 1.955700
25.652800 1.879100
25.686300 1.883100
25.719800 1.915500
25.753300 1.992600
25.786700 2.065800
25.820200 2.074400
25.853700 2.067400
25.887100 2.062400
25.920600 2.119100
25.954100 2.040100
25.987500 1.857700
26.021000 1.797400
26.054500 1.769600
26.087900 1.745800
26.121400 1.721700
26.154900 1.693100
26.188300 1.652800
26.221800 1.597300
26.255300 1.694100
26.288700 1.736500
26.322200 1.762700
26.355700 1.778700
26.389200 1.796300
26.422600 1.806500
26.456100 1.831900
26.489600 1.759300
26.523000 1.724600
26.556500 1.758900
26.590000 1.815700
26.623400 1.920100
26.656900 2.017400
26.690400 2.126800
26.723800 2.269300
26.757300 2.384300
26.790800 2.449000
26.824200 2.498100
26.857700 2.549100
26.891200 2.576600
26.924700 2.501100
26.958100 2.394900
26.991600 2.387500
27.025100 2.357800
27.058500 2.253600
27.092000 2.032900
27.125500 1.911100
27.158900 1.838300
27.192400 1.957700
27.225900 1.979600
27.259300 2.141300
27.292800 2.262500
27.326300 2.267800
27.359700 2.147400
27.393200 2.096000
27.426700 2.004300
27.460200 1.987300
27.493600 2.016600
27.527100 2.069800
27.560600 2.173500
27.594000 2.210600
27.627500 2.023100
27.661000 1.984700
27.694400 1.963100
27.727900 1.832600
27.761400 1.509800
27.794800 1.266800
27.828300 1.190900
27.861800 1.141000
27.895200 1.122900
27.928700 1.164600
27.962200 1.310300
27.995600 1.361500
28.029100 1.384700
28.062600 1.458900
28.096100 1.581500
28.129500 1.744700
28.163000 1.895300
28.196500 2.117300
28.229900 2.257900
28.263400 2.407000
28.296900 2.591600
28.330300 2.650600
28.363800 2.656200
28.397300 2.621100
28.430700 2.568500
28.464200 2.523400
28.497700 2.449500
28.531100 2.428600
28.564600 2.495500
28.598100 2.394000
28.631600 2.195600
28.665000 2.182500
28.698500 2.121900
28.732000 2.010700
28.765400 1.936600
28.798900 1.903100
28.832400 1.952000
28.865800 1.980500
28.899300 1.985500
28.932800 1.984300
28.966200 1.993600
28.999700 1.895800
29.033200 1.819300
29.066600 1.796200
29.100100 1.765400
29.133600 1.744400
29.167000 1.727100
29.200500 1.794400
29.234000 1.939900
29.267500 2.069100
29.300900 1.839400
29.334400 1.877700
29.367900 1.919200
29.401300 1.986300
29.434800 2.048600
29.468300 2.102800
29.501700 2.159500
29.535200 2.270100
29.568700 2.420900
29.602100 2.532400
29.635600 2.552500
29.669100 2.161400
29.702500 1.923000
29.736000 1.753500
29.769500 1.646800
29.803000 1.579800
29.836400 1.570400
29.869900 1.579600
29.903400 1.596500
29.936800 1.642600
29.970300 1.683300
30.003800 1.724100
30.037200 1.784000
30.070700 1.861600
30.104200 1.977000
30.137600 2.168700
30.171100 2.251100
30.204600 2.296800
30.238000 2.389300
30.271500 2.566800
30.305000 2.507300
30.338500 2.465200
30.371900 2.397700
30.405400 2.257400
30.438900 2.274000
30.472300 2.407000
30.505800 2.429300
30.539300 2.348500
30.572700 2.330100
30.606200 2.372600
30.639700 2.456600
30.673100 2.547900
30.706600 2.553500
30.740100 2.595000
30.773500 2.790800
30.807000 2.878300
30.840500 2.921700
30.873900 2.813000
30.907400 2.585700
30.940900 2.401100
30.974400 2.367200
31.007800 2.389400
31.041300 2.451500
31.074800 2.594600
31.108200 2.872300
31.141700 3.359600
31.175200 3.118800
31.208600 3.097700
31.242100 3.241900
31.275600 3.246100
31.309000 3.070000
31.342500 2.769000
31.376000 2.523900
31.409400 2.359900
31.442900 2.313500
31.476400 2.220600
31.509900 2.157100
31.543300 2.106600
31.576800 2.074700
31.610300 2.002100
31.643700 1.914100
31.677200 1.812400
31.710700 1.731400
31.744100 1.727000
31.777600 1.664700
31.811100 1.530600
31.844500 1.484000
31.878000 1.518300
31.911500 1.529400
31.944900 1.557000
31.978400 1.592700
32.011900 1.624300
32.045400 1.673700
32.078800 1.749200
32.112300 1.846700
32.145800 1.957400
32.179200 2.176000
32.212700 2.251200
32.246200 2.304800
32.279600 2.537300
32.313100 2.687200
32.346600 2.707200
32.380000 2.486600
32.413500 2.371400
32.447000 2.339700
32.480400 2.253500
32.513900 2.146000
32.547400 2.086400
32.580800 2.054700
32.614300 2.030200
32.647800 2.007000
32.681300 1.988600
32.714700 2.023900
32.748200 2.058500
32.781700 2.114300
32.815100 2.265500
32.848600 2.470700
32.882100 2.394100
32.915500 2.391700
32.949000 2.357900
32.982500 2.324900
33.015900 2.315100
33.049400 2.164500
33.082900 2.082300
33.116300 2.101900
33.149800 2.269900
33.183300 2.355800
33.216800 2.603400
33.250200 2.756700
33.283700 2.878600
33.317200 2.966100
33.350600 2.834600
33.384100 2.787300
33.417600 2.739100
33.451000 2.735400
33.484500 2.630400
33.518000 2.628000
33.551400 2.632600
33.584900 2.647100
33.618400 3.083200
33.651800 3.094300
33.685300 3.168100
33.718800 2.987500
33.752200 3.054000
33.785700 3.295100
33.819200 3.411400
33.852700 3.508100
33.886100 3.461900
33.919600 3.359000
33.953100 3.222600
33.986500 2.924300
34.020000 2.904900
34.053500 3.171600
34.086900 3.189100
34.120400 2.752000
34.153900 2.713100
34.187300 2.582700
34.220800 2.583000
34.254300 2.548800
34.287700 2.490200
34.321200 2.499100
34.354700 2.503000
34.388200 2.498000
34.421600 2.479800
34.455100 2.447500
34.488600 2.470300
34.522000 2.551200
34.555500 2.642400
34.589000 2.726000
34.622400 2.815500
34.655900 2.704300
34.689400 2.714900
34.722800 2.673100
34.756300 2.642000
34.789800 2.791700
34.823200 2.765800
34.856700 2.791700
34.890200 2.840300
34.923700 2.839400
34.957100 2.784600
34.990600 2.697800
35.024100 2.630600
35.057500 2.577800
35.091000 2.454400
35.124500 2.426400
35.157900 2.466400
35.191400 2.572600
35.224900 2.757100
35.258300 2.833300
35.291800 2.877400
35.325300 2.945200
35.358700 3.026600
35.392200 3.054000
35.425700 2.970400
35.459100 2.886300
35.492600 2.786000
35.526100 2.661600
35.559600 2.499800
35.593000 2.441400
35.626500 2.359500
35.660000 2.313900
35.693400 2.288900
35.726900 2.289400
35.760400 2.325100
35.793800 2.452800
35.827300 2.357100
35.860800 2.265600
35.894200 2.131300
35.927700 2.114400
35.961200 2.135700
35.994600 2.160300
36.028100 2.204300
36.061600 2.231300
36.095100 2.240000
36.128500 2.256900
36.162000 2.309900
36.195500 2.390100
36.228900 2.421700
36.262400 2.482500
36.295900 2.516300
36.329300 2.446800
36.362800 2.230500
36.396300 2.082300
36.429700 1.971800
36.463200 1.932400
36.496700 1.889400
36.530100 1.857600
36.563600 1.852300
36.597100 1.832500
36.630600 1.852200
36.664000 1.881400
36.697500 1.980900
36.731000 2.111800
36.764400 2.296800
36.797900 2.429400
36.831400 2.525300
36.864800 2.554700
36.898300 2.560900
36.931800 2.403600
36.965200 2.246900
36.998700 2.070200
37.032200 1.877100
37.065600 1.821900
37.099100 1.794400
37.132600 1.816300
37.166000 1.883600
37.199500 1.953900
37.233000 2.043400
37.266500 2.155500
37.299900 2.164300
37.333400 2.142700
37.366900 2.125200
37.400300 2.084400
37.433800 1.968100
37.467300 1.851900
37.500700 1.798500
37.534200 1.767900
37.567700 1.739600
37.601100 1.814200
37.634600 1.799100
37.668100 1.872200
37.701500 1.984800
37.735000 2.124500
37.768500 2.028100
37.802000 2.037600
37.835400 2.066800
37.868900 2.073100
37.902400 2.080400
37.935800 2.089300
37.969300 2.103500
38.002800 2.096500
38.036200 2.039100
38.069700 2.039600
38.103200 1.998300
38.136600 1.958300
38.170100 1.983300
38.203600 2.128200
38.237000 2.112800
38.270500 2.100500
38.304000 2.271900
38.337400 2.237800
38.370900 2.013800
38.404400 1.919300
38.437900 1.819700
38.471300 1.720300
38.504800 1.682900
38.538300 1.672900
38.571700 1.604200
38.605200 1.539700
38.638700 1.464500
38.672100 1.283600
38.705600 1.161800
38.739100 1.053700
38.772500 0.948100
38.806000 0.855000
38.839500 0.798000
38.872900 0.759800
38.906400 0.724300
38.939900 0.693800
38.973400 0.660900
39.006800 0.607300
39.040300 0.590700
39.073800 0.578700
39.107200 0.567700
39.140700 0.556600
39.174200 0.543200
39.207600 0.530200
39.241100 0.518000
39.274600 0.511900
39.308000 0.509500
39.341500 0.510400
39.375000 0.514000
39.408400 0.519800
39.441900 0.529000
39.475400 0.540200
39.508900 0.541100
39.542300 0.543600
39.575800 0.458300
39.609300 0.408600
39.642700 0.376800
39.676200 0.358700
39.709700 0.346600
39.743100 0.335800
39.776600 0.324500
39.810100 0.306000
39.843500 0.289700
39.877000 0.275600
39.910500 0.262900
39.943900 0.248500
39.977400 0.232400
40.010900 0.215000
40.044300 0.200300
40.077800 0.191200
40.111300 0.182500
40.144800 0.172800
40.178200 0.168600
40.211700 0.165900
40.245200 0.162300
40.278600 0.159300
40.312100 0.156800
40.345600 0.154900
40.379000 0.153600
40.412500 0.171000
40.446000 0.130400
40.479400 0.070000
40.512900 0.046700
40.546400 0.028300
40.579800 0.000000
40.613300 0.000000
40.646800 0.000000
40.680300 0.000000
40.713700 0.000000
40.747200 0.000000
40.780700 0.000000
40.814100 0.000000
40.847600 0.000000
40.881100 0.000000
40.914500 0.000000
40.948000 0.000000
40.981500 0.000000
41.014900 0.000000
41.048400 0.000000
41.081900 0.000000
41.115300 0.000000
41.148800 0.000000
41.182300 0.000000
41.215800 0.000000
41.249200 0.000000
41.282700 0.000000
41.316200 0.000000
41.349600 0.000000
41.383100 0.000000
41.416600 0.000000
41.450000 0.000000
41.483500 0.000000
41.517000 0.000000
41.550400 0.000000
41.583900 0.000000
41.617400 0.000000
41.650800 0.000000
41.684300 0.000000
41.717800 0.000000
41.751200 0.000000
41.784700 0.000000
41.818200 0.000000
41.851700 0.000000
41.885100 0.000000
41.918600 0.000000
41.952100 0.000000
41.985500 0.000000
42.019000 0.000000
42.052500 0.000000
42.085900 0.000000
42.119400 0.000000
42.152900 0.000000
42.186300 0.000000
42.219800 0.000000
42.253300 0.000000
42.286700 0.000000
42.320200 0.000000
42.353700 0.000000
42.387200 0.000000
42.420600 0.000000
42.454100 0.000000
42.487600 0.000000
42.521000 0.000000
42.554500 0.000000
42.588000 0.000000
42.621400 0.000000
42.654900 0.000000
42.688400 0.000000
42.721800 0.000000
42.755300 0.000000
42.788800 0.000000
42.822200 0.000000
42.855700 0.000000
42.889200 0.000000
42.922600 0.000000
42.956100 0.000000
42.989600 0.000000
43.023100 0.000000
43.056500 0.000000
43.090000 0.000000
43.123500 0.000000
43.156900 0.000000
43.190400 0.000000
43.223900 0.000000
43.257300 0.000000
43.290800 0.000000
43.324300 0.000000
43.357700 0.000000
43.391200 0.000000
43.424700 0.000000
43.458100 0.000000
43.491600 0.000000
43.525100 0.000000
43.558600 0.000000
43.592000 0.000000
e
