set title 'mp-8636 - Density of States'
set xlabel 'Energy (eV)'
set ylabel 'DOS (states/eV)'
set grid
set xrange [-10:10]
set yrange [0:2.616]
set xzeroaxis lt -1
set terminal png size 800,600
set output 'mp-8636_dos_gnuplot.png'
plot '-' using 1:2 with lines title 'DOS'
-32.681900 0.000000
-32.613400 0.000000
-32.544800 0.000000
-32.476200 0.000000
-32.407700 0.000000
-32.339100 0.000000
-32.270600 0.000000
-32.202000 0.000000
-32.133500 0.000000
-32.064900 0.000000
-31.996300 0.000000
-31.927800 0.000000
-31.859200 0.000000
-31.790700 0.000000
-31.722100 0.000000
-31.653600 0.000000
-31.585000 0.000000
-31.516400 0.000000
-31.447900 0.000000
-31.379300 0.000000
-31.310800 0.000000
-31.242200 0.000000
-31.173600 0.000000
-31.105100 0.000000
-31.036500 0.000000
-30.968000 0.000000
-30.899400 0.000000
-30.830900 0.000000
-30.762300 0.000000
-30.693700 0.000000
-30.625200 0.000000
-30.556600 0.000000
-30.488100 0.000000
-30.419500 0.000000
-30.351000 0.000000
-30.282400 0.000000
-30.213800 0.000000
-30.145300 0.000000
-30.076700 0.000000
-30.008200 0.000000
-29.939600 0.000000
-29.871100 0.000000
-29.802500 0.000000
-29.733900 0.000000
-29.665400 0.000000
-29.596800 0.000000
-29.528300 0.000000
-29.459700 0.000000
-29.391100 0.000000
-29.322600 0.000000
-29.254000 0.000000
-29.185500 0.000000
-29.116900 0.000000
-29.048400 0.000000
-28.979800 0.000000
-28.911200 0.000000
-28.842700 0.000000
-28.774100 0.000000
-28.705600 0.000000
-28.637000 0.000000
-28.568500 0.000000
-28.499900 0.000000
-28.431300 0.000000
-28.362800 0.000000
-28.294200 0.000000
-28.225700 0.000000
-28.157100 0.000000
-28.088600 0.000000
-28.020000 0.000000
-27.951400 0.000000
-27.882900 0.000000
-27.814300 0.000000
-27.745800 0.000000
-27.677200 0.000000
-27.608600 0.000000
-27.540100 0.000000
-27.471500 0.000000
-27.403000 0.000000
-27.334400 0.000000
-27.265900 0.000000
-27.197300 0.000000
-27.128700 0.000000
-27.060200 0.000000
-26.991600 0.000000
-26.923100 0.000000
-26.854500 0.000000
-26.786000 0.000000
-26.717400 0.000000
-26.648800 0.000000
-26.580300 0.000000
-26.511700 0.000000
-26.443200 0.368700
-26.374600 1.518700
-26.306100 3.846600
-26.237500 8.209500
-26.168900 6.918300
-26.100400 2.687200
-26.031800 2.347000
-25.963300 3.163100
-25.894700 3.659400
-25.826100 4.054600
-25.757600 4.399700
-25.689000 8.613000
-25.620500 9.013900
-25.551900 9.566700
-25.483400 10.366800
-25.414800 6.273300
-25.346200 3.294100
-25.277700 0.000000
-25.209100 0.000000
-25.140600 0.000000
-25.072000 0.000000
-25.003500 0.000000
-24.934900 0.000000
-24.866300 0.000000
-24.797800 0.000000
-24.729200 0.000000
-24.660700 0.000000
-24.592100 0.000000
-24.523600 0.000000
-24.455000 0.000000
-24.386400 0.000000
-24.317900 0.000000
-24.249300 0.000000
-24.180800 0.000000
-24.112200 0.000000
-24.043600 0.000000
-23.975100 0.000000
-23.906500 0.000000
-23.838000 0.000000
-23.769400 0.000000
-23.700900 0.000000
-23.632300 0.000000
-23.563700 0.000000
-23.495200 0.000000
-23.426600 0.000000
-23.358100 0.000000
-23.289500 0.000000
-23.221000 0.000000
-23.152400 0.000000
-23.083800 0.000000
-23.015300 0.000000
-22.946700 0.000000
-22.878200 0.000000
-22.809600 0.000000
-22.741100 0.000000
-22.672500 0.000000
-22.603900 0.000000
-22.535400 0.000000
-22.466800 0.000000
-22.398300 0.000000
-22.329700 0.000000
-22.261100 0.000000
-22.192600 0.000000
-22.124000 0.000000
-22.055500 0.000000
-21.986900 0.000000
-21.918400 0.000000
-21.849800 0.000000
-21.781200 0.000000
-21.712700 0.000000
-21.644100 0.000000
-21.575600 0.000000
-21.507000 0.000000
-21.438500 0.000000
-21.369900 0.000000
-21.301300 0.000000
-21.232800 0.000000
-21.164200 0.000000
-21.095700 0.000000
-21.027100 0.000000
-20.958600 0.000000
-20.890000 0.000000
-20.821400 0.000000
-20.752900 0.000000
-20.684300 0.000000
-20.615800 0.000000
-20.547200 0.000000
-20.478600 0.000000
-20.410100 0.000000
-20.341500 0.000000
-20.273000 0.000000
-20.204400 0.000000
-20.135900 0.000000
-20.067300 0.000000
-19.998700 0.000000
-19.930200 0.000000
-19.861600 0.000000
-19.793100 0.000000
-19.724500 0.000000
-19.656000 0.000000
-19.587400 0.000000
-19.518800 0.000000
-19.450300 0.000000
-19.381700 0.000000
-19.313200 0.000000
-19.244600 0.000000
-19.176100 0.000000
-19.107500 0.000000
-19.038900 0.000000
-18.970400 0.000000
-18.901800 0.000000
-18.833300 0.000000
-18.764700 0.000000
-18.696100 0.000000
-18.627600 0.000000
-18.559000 0.000000
-18.490500 0.000000
-18.421900 0.000000
-18.353400 0.000000
-18.284800 0.000000
-18.216200 0.000000
-18.147700 0.000000
-18.079100 0.000000
-18.010600 0.000000
-17.942000 0.000000
-17.873500 0.000000
-17.804900 0.000000
-17.736300 0.000000
-17.667800 0.000000
-17.599200 0.000000
-17.530700 0.000000
-17.462100 0.000000
-17.393600 0.000000
-17.325000 0.000000
-17.256400 0.000000
-17.187900 0.000000
-17.119300 0.000000
-17.050800 0.000000
-16.982200 0.000000
-16.913600 0.000000
-16.845100 0.000000
-16.776500 0.000000
-16.708000 0.000000
-16.639400 0.000000
-16.570900 0.000000
-16.502300 0.000000
-16.433700 0.000000
-16.365200 0.000000
-16.296600 0.000000
-16.228100 0.000000
-16.159500 0.000000
-16.091000 0.000000
-16.022400 0.000000
-15.953800 0.000000
-15.885300 0.000000
-15.816700 0.000000
-15.748200 0.000000
-15.679600 0.000000
-15.611100 0.000000
-15.542500 0.000000
-15.473900 0.000000
-15.405400 0.000000
-15.336800 0.000000
-15.268300 0.000000
-15.199700 0.000000
-15.131100 0.000000
-15.062600 0.000000
-14.994000 0.000000
-14.925500 0.000000
-14.856900 0.000000
-14.788400 0.000000
-14.719800 0.000000
-14.651200 0.000000
-14.582700 0.000000
-14.514100 0.000000
-14.445600 0.000000
-14.377000 0.000000
-14.308500 0.000000
-14.239900 0.000000
-14.171300 0.000000
-14.102800 0.000000
-14.034200 0.000000
-13.965700 0.000000
-13.897100 0.000000
-13.828600 0.000000
-13.760000 0.000000
-13.691400 0.000000
-13.622900 0.000000
-13.554300 0.000000
-13.485800 0.000000
-13.417200 0.000000
-13.348600 0.000000
-13.280100 0.000000
-13.211500 0.000000
-13.143000 0.000000
-13.074400 0.000000
-13.005900 0.000000
-12.937300 0.000000
-12.868700 0.000000
-12.800200 0.000000
-12.731600 0.000000
-12.663100 0.000000
-12.594500 0.000000
-12.526000 0.000000
-12.457400 0.000000
-12.388800 0.000000
-12.320300 0.000000
-12.251700 0.000000
-12.183200 0.000000
-12.114600 0.000000
-12.046100 0.000000
-11.977500 0.000000
-11.908900 0.000000
-11.840400 0.000000
-11.771800 0.000000
-11.703300 0.000000
-11.634700 0.000000
-11.566100 0.000000
-11.497600 0.000000
-11.429000 0.000000
-11.360500 0.000000
-11.291900 0.000000
-11.223400 0.000000
-11.154800 0.000000
-11.086200 0.000000
-11.017700 0.000000
-10.949100 0.000000
-10.880600 0.000000
-10.812000 0.000000
-10.743500 0.000000
-10.674900 0.000000
-10.606300 0.000000
-10.537800 0.000000
-10.469200 0.000000
-10.400700 0.000000
-10.332100 0.000000
-10.263600 0.000000
-10.195000 0.000000
-10.126400 0.000000
-10.057900 0.000000
-9.989300 0.000000
-9.920800 0.000000
-9.852200 0.000000
-9.783600 0.000000
-9.715100 0.000000
-9.646500 0.000000
-9.578000 0.000000
-9.509400 0.000000
-9.440900 0.000000
-9.372300 0.000000
-9.303700 0.000000
-9.235200 0.000000
-9.166600 0.000000
-9.098100 0.000000
-9.029500 0.000000
-8.961000 0.000000
-8.892400 0.000000
-8.823800 0.000000
-8.755300 0.000000
-8.686700 0.000000
-8.618200 0.000000
-8.549600 0.000000
-8.481100 0.000000
-8.412500 0.000000
-8.343900 0.000000
-8.275400 0.000000
-8.206800 0.000000
-8.138300 0.000000
-8.069700 0.000000
-8.001100 0.000000
-7.932600 0.000000
-7.864000 0.000000
-7.795500 0.000000
-7.726900 0.000000
-7.658400 0.000000
-7.589800 0.000000
-7.521200 0.000000
-7.452700 0.000000
-7.384100 0.000000
-7.315600 0.000000
-7.247000 0.000000
-7.178500 0.000000
-7.109900 0.000000
-7.041300 0.000000
-6.972800 0.000000
-6.904200 0.000000
-6.835700 0.000000
-6.767100 0.000000
-6.698600 0.000000
-6.630000 0.000000
-6.561400 0.000000
-6.492900 0.000000
-6.424300 0.000000
-6.355800 0.000000
-6.287200 0.000000
-6.218600 0.000000
-6.150100 0.000000
-6.081500 0.000000
-6.013000 0.000000
-5.944400 0.000000
-5.875900 0.000000
-5.807300 0.000000
-5.738700 0.000000
-5.670200 0.000000
-5.601600 0.000000
-5.533100 0.000000
-5.464500 0.000000
-5.396000 0.000000
-5.327400 0.000000
-5.258800 0.000000
-5.190300 0.000000
-5.121700 0.000000
-5.053200 0.000000
-4.984600 0.000000
-4.916100 0.000000
-4.847500 0.000000
-4.778900 0.000000
-4.710400 0.000000
-4.641800 0.000000
-4.573300 0.000000
-4.504700 0.000000
-4.436100 0.000000
-4.367600 0.000000
-4.299000 0.000000
-4.230500 0.000000
-4.161900 0.000000
-4.093400 0.000000
-4.024800 0.000000
-3.956200 0.000000
-3.887700 0.000000
-3.819100 0.000000
-3.750600 0.000000
-3.682000 0.000000
-3.613500 0.000000
-3.544900 0.000000
-3.476300 0.000000
-3.407800 0.000000
-3.339200 0.000000
-3.270700 0.000000
-3.202100 0.000000
-3.133600 0.000000
-3.065000 0.000000
-2.996400 0.000000
-2.927900 0.000000
-2.859300 0.000000
-2.790800 0.000000
-2.722200 0.000000
-2.653600 0.000000
-2.585100 0.000000
-2.516500 0.000000
-2.448000 0.000000
-2.379400 0.000000
-2.310900 0.000000
-2.242300 0.000000
-2.173700 0.000000
-2.105200 0.000000
-2.036600 0.000000
-1.968100 0.000000
-1.899500 0.000000
-1.831000 0.000000
-1.762400 0.000000
-1.693800 0.000000
-1.625300 0.000000
-1.556700 0.000000
-1.488200 0.000000
-1.419600 0.000000
-1.351100 0.000000
-1.282500 0.000000
-1.213900 0.007200
-1.145400 0.023300
-1.076800 0.027800
-1.008300 0.035700
-0.939700 0.040600
-0.871100 0.045300
-0.802600 0.051300
-0.734000 0.055900
-0.665500 0.060100
-0.596900 0.064700
-0.528400 0.069800
-0.459800 0.074700
-0.391200 0.078800
-0.322700 0.083300
-0.254100 0.088400
-0.185600 0.093700
-0.117000 0.098500
-0.048500 0.103600
0.020100 0.109100
0.088700 0.114700
0.157200 0.120500
0.225800 0.127200
0.294300 0.133900
0.362900 0.140900
0.431400 0.148200
0.500000 0.156500
0.568600 0.165700
0.637100 0.176000
0.705700 0.186900
0.774200 0.200000
0.842800 0.214900
0.911400 0.231900
0.979900 0.315200
1.048500 0.405400
1.117000 0.491800
1.185600 0.788900
1.254100 0.844200
1.322700 0.912300
1.391300 0.995400
1.459800 1.078100
1.528400 1.088000
1.596900 1.110200
1.665500 1.128300
1.734000 1.260700
1.802600 1.330700
1.871200 1.391700
1.939700 1.454900
2.008300 1.455300
2.076800 1.454900
2.145400 1.436600
2.213900 1.409700
2.282500 1.420400
2.351100 1.440000
2.419600 1.376400
2.488200 1.324300
2.556700 1.260100
2.625300 1.197100
2.693900 1.140700
2.762400 1.093800
2.831000 0.975900
2.899500 0.870000
2.968100 0.843500
3.036600 0.884900
3.105200 1.326200
3.173800 1.452100
3.242300 1.455500
3.310900 1.303600
3.379400 1.152700
3.448000 1.037200
3.516500 0.979300
3.585100 0.978000
3.653700 0.889000
3.722200 1.015700
3.790800 1.042800
3.859300 1.060200
3.927900 1.127600
3.996400 1.209100
4.065000 1.489800
4.133600 1.319000
4.202100 1.342400
4.270700 1.318900
4.339200 1.322200
4.407800 1.311800
4.476400 1.342000
4.544900 1.396500
4.613500 1.502500
4.682000 1.656900
4.750600 1.655700
4.819100 1.658700
4.887700 1.613800
4.956300 1.491300
5.024800 1.463500
5.093400 1.586000
5.161900 1.510200
5.230500 1.546000
5.299000 1.605700
5.367600 1.595300
5.436200 2.377900
5.504700 1.749400
5.573300 1.494500
5.641800 1.302000
5.710400 1.174500
5.778900 1.094300
5.847500 1.047800
5.916100 0.992000
5.984600 0.965200
6.053200 0.944000
6.121700 0.935100
6.190300 0.990700
6.258900 0.898300
6.327400 0.861100
6.396000 0.852800
6.464500 0.854000
6.533100 0.935000
6.601600 1.052200
6.670200 1.144100
6.738800 1.144200
6.807300 1.208000
6.875900 1.275400
6.944400 1.484800
7.013000 1.260800
7.081500 1.147400
7.150100 1.068700
7.218700 1.008400
7.287200 0.946500
7.355800 0.900800
7.424300 0.824700
7.492900 0.824800
7.561400 0.872800
7.630000 0.969700
7.698600 0.935400
7.767100 0.916600
7.835700 0.886000
7.904200 0.884500
7.972800 0.870100
8.041400 0.866000
8.109900 0.864900
8.178500 0.866800
8.247000 0.868600
8.315600 0.873400
8.384100 0.876000
8.452700 0.885100
8.521300 0.898700
8.589800 0.920400
8.658400 0.945800
8.726900 0.974100
8.795500 1.004000
8.864000 1.044300
8.932600 1.098500
9.001200 1.160700
9.069700 1.266800
9.138300 1.425100
9.206800 1.638300
9.275400 1.620800
9.344000 1.639100
9.412500 1.630700
9.481100 1.630300
9.549600 1.321300
9.618200 1.204000
9.686700 1.079100
9.755300 0.943200
9.823900 0.856500
9.892400 0.864800
9.961000 0.735000
10.029500 2.154600
10.098100 0.371300
10.166600 0.372100
10.235200 0.372200
10.303800 0.372600
10.372300 0.373200
10.440900 0.373500
10.509400 0.373300
10.578000 0.372000
10.646500 0.370500
10.715100 0.370100
10.783700 0.370300
10.852200 0.370000
10.920800 0.369900
10.989300 0.369700
11.057900 0.369400
11.126500 0.370500
11.195000 0.369800
11.263600 0.368800
11.332100 0.367800
11.400700 0.367000
11.469200 0.368000
11.537800 0.366700
11.606400 0.365700
11.674900 0.364900
11.743500 0.366200
11.812000 0.365300
11.880600 0.362700
11.949100 0.360600
12.017700 0.359000
12.086300 0.355400
12.154800 0.350900
12.223400 0.347800
12.291900 0.344200
12.360500 0.340200
12.429000 0.335400
12.497600 0.328100
12.566200 0.318100
12.634700 0.310600
12.703300 0.304200
12.771800 0.296200
12.840400 0.289000
12.909000 0.279200
12.977500 0.272400
13.046100 0.261100
13.114600 0.251000
13.183200 0.240600
13.251700 0.234700
13.320300 0.224200
13.388900 0.213700
13.457400 0.202900
13.526000 0.185500
13.594500 0.171800
13.663100 0.147800
13.731600 0.128700
13.800200 0.118800
13.868800 0.109700
13.937300 0.099700
14.005900 0.104300
14.074400 0.088000
14.143000 0.094900
14.211500 0.127700
14.280100 0.165600
14.348700 0.224100
14.417200 0.302500
14.485800 0.454800
14.554300 0.480000
14.622900 0.522900
14.691500 0.525600
14.760000 0.529200
14.828600 0.552000
14.897100 0.543600
14.965700 0.540100
15.034200 0.556300
15.102800 0.559100
15.171400 0.573100
15.239900 0.576500
15.308500 0.561800
15.377000 0.517400
15.445600 0.498300
15.514100 0.484800
15.582700 0.474400
15.651300 0.470600
15.719800 0.464700
15.788400 0.460500
15.856900 0.453500
15.925500 0.447000
15.994000 0.439700
16.062600 0.433000
16.131200 0.427200
16.199700 0.439700
16.268300 0.438700
16.336800 0.441300
16.405400 0.445900
16.474000 0.450900
16.542500 0.451400
16.611100 0.456200
16.679600 0.465200
16.748200 0.507100
16.816700 0.514500
16.885300 0.520200
16.953900 0.519400
17.022400 0.509600
17.091000 0.509800
17.159500 0.512100
17.228100 0.521000
17.296600 0.533600
17.365200 0.557400
17.433800 0.593700
17.502300 0.805400
17.570900 0.601600
17.639400 0.615800
17.708000 0.621800
17.776500 0.630300
17.845100 0.635400
17.913700 0.645400
17.982200 0.660500
18.050800 0.677100
18.119300 0.645300
18.187900 0.643500
18.256500 0.696400
18.325000 0.746500
18.393600 0.782500
18.462100 0.827100
18.530700 0.923400
18.599200 0.939000
18.667800 0.947700
18.736400 0.932100
18.804900 0.928400
18.873500 0.940200
18.942000 0.962900
19.010600 0.987200
19.079100 1.011000
19.147700 1.034800
19.216300 1.067500
19.284800 1.144600
19.353400 1.213300
19.421900 1.210300
19.490500 1.174200
19.559000 1.151400
19.627600 1.108500
19.696200 1.042600
19.764700 0.979600
19.833300 0.908600
19.901800 0.850100
19.970400 0.813300
20.039000 0.791400
20.107500 0.841500
20.176100 0.864400
20.244600 0.869600
20.313200 0.859000
20.381700 0.853100
20.450300 0.842900
20.518900 0.847300
20.587400 0.862700
20.656000 0.888500
20.724500 0.932900
20.793100 0.933900
20.861600 0.924700
20.930200 0.932800
20.998800 0.932900
21.067300 0.955300
21.135900 0.960500
21.204400 0.943100
21.273000 0.875300
21.341500 0.807500
21.410100 0.750500
21.478700 0.665500
21.547200 0.627700
21.615800 0.578600
21.684300 0.533900
21.752900 0.482400
21.821500 0.437700
21.890000 0.398600
21.958600 0.363200
22.027100 0.337200
22.095700 0.313300
22.164200 0.296000
22.232800 0.284700
22.301400 0.276700
22.369900 0.270300
22.438500 0.264600
22.507000 0.344800
22.575600 0.323100
22.644100 0.344300
22.712700 0.368000
22.781300 0.397800
22.849800 0.473000
22.918400 0.527200
22.986900 0.590500
23.055500 0.681400
23.124000 0.846500
23.192600 0.991200
23.261200 0.959500
23.329700 0.879700
23.398300 0.847300
23.466800 0.815600
23.535400 0.809200
23.604000 0.793100
23.672500 0.775900
23.741100 0.765700
23.809600 0.766000
23.878200 0.770000
23.946700 0.776100
24.015300 0.786400
24.083900 0.812400
24.152400 0.854900
24.221000 0.874600
24.289500 0.866700
24.358100 0.848200
24.426600 0.832700
24.495200 0.821400
24.563800 0.807800
24.632300 0.811000
24.700900 0.810700
24.769400 0.823000
24.838000 0.809100
24.906500 0.817300
24.975100 0.829500
25.043700 0.807600
25.112200 0.774900
25.180800 0.748300
25.249300 0.716900
25.317900 0.696500
25.386500 0.646100
25.455000 0.598900
25.523600 0.540700
25.592100 0.475400
25.660700 0.433900
25.729200 0.398500
25.797800 0.368300
25.866400 0.342400
25.934900 0.324900
26.003500 0.310200
26.072000 0.311200
26.140600 0.299100
26.209100 0.297300
26.277700 0.298200
26.346300 0.298500
26.414800 0.301900
26.483400 0.312800
26.551900 0.318000
26.620500 0.322800
26.689000 0.342400
26.757600 0.375300
26.826200 0.449000
26.894700 0.444300
26.963300 0.471800
27.031800 0.498200
27.100400 0.513700
27.169000 0.537600
27.237500 0.556700
27.306100 0.599300
27.374600 0.647900
27.443200 0.703500
27.511700 0.735800
27.580300 0.727000
27.648900 0.691400
27.717400 0.719800
27.786000 0.766900
27.854500 0.838900
27.923100 0.853500
27.991600 0.838300
28.060200 0.814500
28.128800 0.803300
28.197300 0.780200
28.265900 0.780000
28.334400 0.781500
28.403000 0.781600
28.471500 0.809400
28.540100 0.796200
28.608700 0.760200
28.677200 0.690700
28.745800 0.624200
28.814300 0.598900
28.882900 0.592200
28.951500 0.581600
29.020000 0.561100
29.088600 0.561500
29.157100 0.572900
29.225700 0.608000
29.294200 0.617900
29.362800 0.625100
29.431400 0.641300
29.499900 0.650900
29.568500 0.814000
29.637000 0.663300
29.705600 0.659400
29.774100 0.680100
29.842700 0.673000
29.911300 0.670200
29.979800 0.682600
30.048400 0.690000
30.116900 0.705400
30.185500 0.706900
30.254000 0.710700
30.322600 0.717100
30.391200 0.730100
30.459700 0.754100
30.528300 0.806200
30.596800 0.983400
30.665400 1.211500
30.734000 1.322700
30.802500 1.472900
30.871100 1.606700
30.939600 1.675600
31.008200 1.790300
31.076700 2.053500
31.145300 1.688000
31.213900 1.431300
31.282400 1.313900
31.351000 1.236300
31.419500 1.207300
31.488100 1.118400
31.556600 1.020100
31.625200 0.947600
31.693800 0.918100
31.762300 0.912600
31.830900 0.904500
31.899400 0.921100
31.968000 0.928000
32.036500 0.906100
32.105100 0.871000
32.173700 0.801200
32.242200 0.759900
32.310800 0.714900
32.379300 0.689800
32.447900 0.652100
32.516500 0.619800
32.585000 0.581700
32.653600 0.527700
32.722100 0.485900
32.790700 0.472900
32.859200 0.482600
32.927800 0.489100
32.996400 0.496100
33.064900 0.518900
33.133500 0.549800
33.202000 0.582800
33.270600 0.600600
33.339100 0.599300
33.407700 0.596700
33.476300 0.597300
33.544800 0.586600
33.613400 0.580200
33.681900 0.572500
33.750500 0.564900
33.819000 0.559200
33.887600 0.561300
33.956200 0.563400
34.024700 0.571600
34.093300 0.588000
34.161800 0.601000
34.230400 0.616200
34.299000 0.644100
34.367500 0.677600
34.436100 0.738500
34.504600 0.771100
34.573200 0.760400
34.641700 0.744300
34.710300 0.749200
34.778900 0.789800
34.847400 0.855900
34.916000 0.783700
34.984500 0.804000
35.053100 0.781300
35.121600 0.755900
35.190200 0.723100
35.258800 0.689000
35.327300 0.682100
35.395900 0.675900
35.464400 0.687500
35.533000 0.701500
35.601500 0.725700
35.670100 0.740400
35.738700 0.737100
35.807200 0.740000
35.875800 0.756600
35.944300 0.780400
36.012900 0.809800
36.081500 0.905600
36.150000 1.092500
36.218600 1.083600
36.287100 1.016100
36.355700 0.851100
36.424200 0.754300
36.492800 0.717100
36.561400 0.692000
36.629900 0.696500
36.698500 0.699800
36.767000 0.709300
36.835600 0.717500
36.904100 0.733500
36.972700 0.791500
37.041300 0.837100
37.109800 0.751700
37.178400 0.748100
37.246900 0.757300
37.315500 0.773900
37.384000 0.777100
37.452600 0.782200
37.521200 0.781300
37.589700 0.790100
37.658300 0.802300
37.726800 0.812900
37.795400 0.842000
37.864000 0.839600
37.932500 0.838600
38.001100 0.861600
38.069600 0.881200
38.138200 0.891000
38.206700 0.903000
38.275300 0.899400
38.343900 0.927500
38.412400 0.973400
38.481000 1.030500
38.549500 1.085900
38.618100 1.158600
38.686600 1.136700
38.755200 1.195700
38.823800 1.080300
38.892300 1.028800
38.960900 0.985500
39.029400 0.922900
39.098000 0.898900
39.166500 0.866200
39.235100 0.913300
39.303700 0.966800
39.372200 1.074600
39.440800 1.200800
39.509300 1.232900
39.577900 1.303400
39.646500 1.403300
39.715000 1.532600
39.783600 1.788700
39.852100 2.237100
39.920700 2.315600
39.989200 2.347100
40.057800 2.353900
40.126400 3.402700
40.194900 3.264100
40.263500 6.152000
40.332000 4.490700
40.400600 4.667300
40.469100 1.695700
40.537700 1.383500
40.606300 1.253000
40.674800 1.162200
40.743400 1.110800
40.811900 1.194400
40.880500 1.181900
40.949000 1.046800
41.017600 0.971600
41.086200 0.983700
41.154700 1.219200
41.223300 1.029300
41.291800 0.929100
41.360400 0.925100
41.429000 0.866700
41.497500 0.772900
41.566100 0.671300
41.634600 0.539300
41.703200 0.518100
41.771700 0.557800
41.840300 0.601000
41.908900 0.630800
41.977400 0.664900
42.046000 0.714200
42.114500 0.780600
42.183100 0.837400
42.251600 0.882300
42.320200 0.960400
42.388800 0.948400
42.457300 0.968400
42.525900 0.991100
42.594400 0.998400
42.663000 0.981500
42.731500 0.973000
42.800100 0.979800
42.868700 1.024800
42.937200 1.044500
43.005800 1.034800
43.074300 0.942200
43.142900 0.867900
43.211500 0.799600
43.280000 0.731900
43.348600 0.663100
43.417100 0.644300
43.485700 0.650500
43.554200 0.649100
43.622800 0.658200
43.691400 0.676500
43.759900 0.703000
43.828500 0.745000
43.897000 0.802100
43.965600 0.856700
44.034100 0.910400
44.102700 0.947400
44.171300 0.981300
44.239800 0.963700
44.308400 0.964600
44.376900 0.959000
44.445500 0.970200
44.514000 0.986600
44.582600 1.026500
44.651200 1.057800
44.719700 1.062800
44.788300 1.115800
44.856800 1.155900
44.925400 1.115000
44.994000 1.137200
45.062500 1.130400
45.131100 1.141000
45.199600 1.110100
45.268200 1.106000
45.336700 1.104100
45.405300 1.111700
45.473900 1.089500
45.542400 1.042500
45.611000 0.977000
45.679500 0.922400
45.748100 0.883400
45.816600 0.857700
45.885200 0.837000
45.953800 0.768500
46.022300 0.711900
46.090900 0.675100
46.159400 0.667200
46.228000 0.667700
46.296500 0.693500
46.365100 0.718900
46.433700 0.736800
46.502200 0.792600
46.570800 0.836400
46.639300 0.860100
46.707900 0.870700
46.776500 0.861100
46.845000 0.850900
46.913600 0.871400
46.982100 0.872300
47.050700 0.875500
47.119200 0.881700
47.187800 0.875200
47.256400 0.858800
47.324900 0.863100
47.393500 0.870200
47.462000 0.886000
47.530600 0.945600
47.599100 0.954700
47.667700 1.001100
47.736300 1.017900
47.804800 1.025800
47.873400 1.036500
47.941900 1.061800
48.010500 1.095900
48.079000 1.103500
48.147600 1.083700
48.216200 1.090100
48.284700 1.062400
48.353300 1.024200
48.421800 1.005000
48.490400 0.983300
48.559000 0.978300
48.627500 0.993100
48.696100 1.017400
48.764600 0.987400
48.833200 1.002600
48.901700 1.019100
48.970300 1.036900
49.038900 1.037200
49.107400 1.004500
49.176000 0.992500
49.244500 0.991500
49.313100 0.973000
49.381600 0.924800
49.450200 0.885100
49.518800 0.844900
49.587300 0.809500
49.655900 0.813700
49.724400 0.808400
49.793000 0.812400
49.861500 0.832100
49.930100 0.822500
49.998700 0.816700
50.067200 0.799600
50.135800 0.777600
50.204300 0.754900
50.272900 0.738200
50.341500 0.747400
50.410000 0.792400
50.478600 0.827300
50.547100 0.863400
50.615700 0.982800
50.684200 1.035700
50.752800 1.061100
50.821400 1.072800
50.889900 1.103900
50.958500 1.157700
51.027000 1.188600
51.095600 1.235700
51.164100 1.195700
51.232700 1.115900
51.301300 1.068700
51.369800 1.036600
51.438400 1.012700
51.506900 0.992800
51.575500 0.940400
51.644000 0.901300
51.712600 0.872600
51.781200 0.860600
51.849700 0.861200
51.918300 0.867100
51.986800 0.893500
52.055400 0.919500
52.124000 0.966500
52.192500 0.979700
52.261100 0.988300
52.329600 0.984600
52.398200 0.985600
52.466700 0.984600
52.535300 0.966400
52.603900 0.946700
52.672400 0.918100
52.741000 0.886100
52.809500 0.869100
52.878100 0.837500
52.946600 0.831300
53.015200 0.833200
53.083800 0.848100
53.152300 0.857100
53.220900 0.873100
53.289400 0.894700
53.358000 0.920000
53.426500 0.950100
53.495100 1.014800
53.563700 0.981400
53.632200 0.934100
53.700800 0.879100
53.769300 0.871300
53.837900 0.879900
53.906500 0.894800
53.975000 0.910200
54.043600 0.937000
54.112100 0.938600
54.180700 0.954700
54.249200 1.003600
54.317800 1.008400
54.386400 1.040900
54.454900 1.089700
54.523500 1.143100
54.592000 1.156900
54.660600 1.146600
54.729100 1.097800
54.797700 1.082900
54.866300 1.053300
54.934800 1.079200
55.003400 1.035700
55.071900 0.993100
55.140500 0.967600
55.209000 0.919200
55.277600 0.910500
55.346200 0.909900
55.414700 0.915700
55.483300 0.940500
55.551800 0.979400
55.620400 0.990700
55.689000 0.991700
55.757500 1.035300
55.826100 1.068500
55.894600 1.097500
55.963200 1.109800
56.031700 1.127800
56.100300 1.131000
56.168900 1.158000
56.237400 1.165500
56.306000 1.134900
56.374500 1.100300
56.443100 1.110900
56.511600 1.122500
56.580200 1.112200
56.648800 1.057300
56.717300 1.004600
56.785900 0.975800
56.854400 0.976800
56.923000 1.019900
56.991500 1.084500
57.060100 1.065300
57.128700 1.081300
57.197200 1.073500
57.265800 1.052300
57.334300 1.035800
57.402900 1.015500
57.471500 0.992500
57.540000 0.986000
57.608600 0.981200
57.677100 0.998800
57.745700 0.952400
57.814200 0.914600
57.882800 0.905000
57.951400 0.901300
58.019900 0.938600
58.088500 0.979800
58.157000 0.896300
58.225600 0.897600
58.294100 0.891100
58.362700 0.865000
58.431300 0.852900
58.499800 0.851100
58.568400 0.848900
58.636900 0.860600
58.705500 0.855800
58.774000 0.866800
58.842600 0.889100
58.911200 0.906800
58.979700 0.929400
59.048300 0.963900
59.116800 1.011800
59.185400 1.039800
59.254000 1.064400
59.322500 1.074900
59.391100 1.069100
59.459600 1.050300
59.528200 1.038100
59.596700 1.031900
59.665300 1.033600
59.733900 1.040400
59.802400 1.045800
59.871000 1.057100
59.939500 1.065700
60.008100 1.063000
60.076600 1.040100
60.145200 1.032500
60.213800 1.026300
60.282300 1.041200
60.350900 1.095100
60.419400 1.115800
60.488000 1.192600
60.556500 1.234700
60.625100 1.215600
60.693700 1.218800
60.762200 1.228800
60.830800 1.231500
60.899300 1.231800
60.967900 1.240100
61.036500 1.243300
61.105000 1.234700
61.173600 1.242500
61.242100 1.222400
61.310700 1.212600
61.379200 1.227000
61.447800 1.233900
61.516400 1.246300
61.584900 1.270100
61.653500 1.261000
61.722000 1.212100
61.790600 1.170100
61.859100 1.161800
61.927700 1.089300
61.996300 1.031100
62.064800 0.989300
62.133400 0.976600
62.201900 0.974300
62.270500 0.943700
62.339100 0.936200
62.407600 0.923600
62.476200 0.923000
62.544700 0.911100
62.613300 0.902400
62.681800 0.917900
62.750400 0.943000
62.819000 0.835100
62.887500 0.816800
62.956100 0.809600
63.024600 0.877500
63.093200 0.819500
63.161700 0.841200
63.230300 0.870700
63.298900 0.917700
63.367400 0.952100
63.436000 0.994500
63.504500 0.996000
63.573100 1.055000
63.641600 1.096300
63.710200 1.076100
63.778800 1.023100
63.847300 1.008900
63.915900 1.043300
63.984400 0.985600
64.053000 0.968100
64.121600 0.977700
64.190100 0.970600
64.258700 0.974800
64.327200 0.978400
64.395800 0.980400
64.464300 0.963700
64.532900 0.951100
64.601500 0.944300
64.670000 0.927500
64.738600 0.912400
64.807100 0.918200
64.875700 0.932300
64.944200 0.966200
65.012800 1.074600
65.081400 0.995300
65.149900 0.974800
65.218500 0.941200
65.287000 0.880800
65.355600 0.864700
65.424100 0.845200
65.492700 0.829300
65.561300 0.803300
65.629800 0.783300
65.698400 0.781800
65.766900 0.786500
65.835500 0.797300
65.904100 0.844000
65.972600 0.870000
66.041200 0.909200
66.109700 0.973500
66.178300 1.116100
66.246800 1.109900
66.315400 1.164500
66.384000 1.186400
66.452500 1.169200
66.521100 1.142100
66.589600 1.137300
66.658200 1.229600
66.726700 1.127700
66.795300 1.126200
66.863900 1.133100
66.932400 1.144700
67.001000 1.162500
67.069500 1.165800
67.138100 1.163700
67.206600 1.206100
67.275200 1.207200
67.343800 1.207700
67.412300 1.195500
67.480900 1.203500
67.549400 1.203600
67.618000 1.211000
67.686600 1.233500
67.755100 1.192600
67.823700 1.146400
67.892200 1.122300
67.960800 1.116600
68.029300 1.127300
68.097900 1.168900
68.166500 1.141500
68.235000 1.139000
68.303600 1.098100
68.372100 1.093800
68.440700 1.120900
68.509200 1.133400
68.577800 1.153400
68.646400 1.187000
68.714900 1.221500
68.783500 1.241500
68.852000 1.283400
68.920600 1.326700
68.989100 1.334100
69.057700 1.303900
69.126300 1.256000
69.194800 1.220700
69.263400 1.210100
69.331900 1.185500
69.400500 1.182100
69.469100 1.197700
69.537600 1.281300
69.606200 1.250300
69.674700 1.240800
69.743300 1.243600
69.811800 1.228200
69.880400 1.208200
69.949000 1.177100
70.017500 1.154600
70.086100 1.120600
70.154600 1.119500
70.223200 1.128600
70.291700 1.175000
70.360300 1.189400
70.428900 1.238300
70.497400 1.204800
70.566000 1.165600
70.634500 1.147500
70.703100 1.129400
70.771600 1.099900
70.840200 1.113000
70.908800 1.112200
70.977300 1.132500
71.045900 1.135000
71.114400 1.128100
71.183000 1.115500
71.251600 1.109700
71.320100 1.098400
71.388700 1.055000
71.457200 1.073000
71.525800 1.014200
71.594300 1.011800
71.662900 1.025000
71.731500 1.020600
71.800000 1.017100
71.868600 0.997300
71.937100 0.988200
72.005700 1.034000
72.074200 0.978900
72.142800 0.970700
72.211400 0.981400
72.279900 0.991200
72.348500 1.006300
72.417000 1.008000
72.485600 1.028900
72.554100 1.021700
72.622700 1.007400
72.691300 0.996700
72.759800 0.994600
72.828400 1.045500
72.896900 1.032800
72.965500 1.049600
73.034100 1.058600
73.102600 1.098500
73.171200 1.110000
73.239700 1.122700
73.308300 1.125900
73.376800 1.133800
73.445400 1.098900
73.514000 1.071800
73.582500 1.061500
73.651100 1.031100
73.719600 1.000700
73.788200 0.989500
73.856700 0.973700
73.925300 1.023100
73.993900 1.058800
74.062400 1.032800
74.131000 1.012400
74.199500 0.989800
74.268100 0.970300
74.336600 0.992900
74.405200 0.996600
74.473800 1.007800
74.542300 1.045400
74.610900 1.069100
74.679400 1.181500
74.748000 1.205700
74.816600 1.183200
74.885100 1.137100
74.953700 1.114400
75.022200 1.122300
75.090800 1.141400
75.159300 1.157600
75.227900 1.154500
75.296500 1.166300
75.365000 1.185000
75.433600 1.186500
75.502100 1.208400
75.570700 1.212000
75.639200 1.220200
75.707800 1.193400
75.776400 1.203500
75.844900 1.220900
75.913500 1.245800
75.982000 1.255200
76.050600 1.248400
76.119100 1.214400
76.187700 1.180900
76.256300 1.138900
76.324800 1.124500
76.393400 1.116600
76.461900 1.062600
76.530500 1.043200
76.599100 1.058200
76.667600 1.067900
76.736200 1.099700
76.804700 1.116100
76.873300 1.129000
76.941800 1.136800
77.010400 1.150300
77.079000 1.130800
77.147500 1.144500
77.216100 1.180400
77.284600 1.196000
77.353200 1.187400
77.421700 1.215200
77.490300 1.222100
77.558900 1.228300
77.627400 1.228500
77.696000 1.208500
77.764500 1.196500
77.833100 1.166100
77.901600 1.136800
77.970200 1.090600
78.038800 1.056900
78.107300 1.014700
78.175900 1.002700
78.244400 0.976500
78.313000 0.977100
78.381600 0.954900
78.450100 0.963200
78.518700 0.981600
78.587200 1.014600
78.655800 1.047000
78.724300 1.045400
78.792900 1.074400
78.861500 1.130300
78.930000 1.170300
78.998600 1.196200
79.067100 1.200200
79.135700 1.164900
79.204200 1.145300
79.272800 1.126300
79.341400 1.110400
79.409900 1.083300
79.478500 1.105900
79.547000 1.177900
79.615600 1.085000
79.684100 1.093800
79.752700 1.089400
79.821300 1.107800
79.889800 1.123200
79.958400 1.133800
80.026900 1.148600
80.095500 1.189300
80.164100 1.215100
80.232600 1.209700
80.301200 1.224100
80.369700 1.236900
80.438300 1.251100
80.506800 1.215100
80.575400 1.179900
80.644000 1.165200
80.712500 1.134900
80.781100 1.171100
80.849600 1.243700
80.918200 1.211300
80.986700 1.182800
81.055300 1.163000
81.123900 1.181300
81.192400 1.157600
81.261000 1.139000
81.329500 1.159500
81.398100 1.231400
81.466600 1.213600
81.535200 1.195200
81.603800 1.174700
81.672300 1.157100
81.740900 1.166600
81.809400 1.142300
81.878000 1.139500
81.946600 1.170500
82.015100 1.195600
82.083700 1.202300
82.152200 1.181100
82.220800 1.175900
82.289300 1.189200
82.357900 1.218200
82.426500 1.236200
82.495000 1.268700
82.563600 1.293600
82.632100 1.272500
82.700700 1.279300
82.769200 1.302600
82.837800 1.292500
82.906400 1.283300
82.974900 1.285900
83.043500 1.360500
83.112000 1.288900
83.180600 1.260100
83.249100 1.236500
83.317700 1.206100
83.386300 1.192200
83.454800 1.186600
83.523400 1.173300
83.591900 1.166600
83.660500 1.154100
83.729100 1.161800
83.797600 1.163400
83.866200 1.159500
83.934700 1.169400
84.003300 1.185900
84.071800 1.201300
84.140400 1.167800
84.209000 1.188000
84.277500 1.161400
84.346100 1.136000
84.414600 1.099000
84.483200 1.094100
84.551700 1.073800
84.620300 1.073500
84.688900 1.091600
84.757400 1.109100
84.826000 1.131500
84.894500 1.139100
84.963100 1.144300
85.031600 1.164400
85.100200 1.214400
85.168800 1.178800
85.237300 1.189000
85.305900 1.143800
85.374400 1.138300
85.443000 1.122400
85.511600 1.105600
85.580100 1.090600
85.648700 1.087400
85.717200 1.091200
85.785800 1.095200
85.854300 1.100400
85.922900 1.126600
85.991500 1.142400
86.060000 1.179700
86.128600 1.254700
86.197100 1.294700
86.265700 1.278400
86.334200 1.264800
86.402800 1.255200
86.471400 1.221100
86.539900 1.183100
86.608500 1.170200
86.677000 1.148200
86.745600 1.128700
86.814100 1.108600
86.882700 1.106000
86.951300 1.127700
87.019800 1.155100
87.088400 1.149200
87.156900 1.136200
87.225500 1.149000
87.294100 1.139400
87.362600 1.131200
87.431200 1.104700
87.499700 1.069700
87.568300 1.049100
87.636800 1.072100
87.705400 1.040300
87.774000 1.041300
87.842500 1.055500
87.911100 1.050700
87.979600 1.045100
88.048200 1.049300
88.116700 1.056000
88.185300 1.079600
88.253900 1.098800
88.322400 1.092800
88.391000 1.097600
88.459500 1.089600
88.528100 1.077600
88.596600 1.084600
88.665200 1.106100
88.733800 1.164700
88.802300 1.176300
88.870900 1.144700
88.939400 1.107800
89.008000 1.099500
89.076600 1.101200
89.145100 1.093400
89.213700 1.097100
89.282200 1.110200
89.350800 1.121200
89.419300 1.102800
89.487900 1.099400
89.556500 1.106600
89.625000 1.132500
89.693600 1.158300
89.762100 1.186500
89.830700 1.202300
89.899200 1.208600
89.967800 1.184500
90.036400 1.153000
90.104900 1.106500
90.173500 1.080000
90.242000 1.055300
90.310600 1.044600
90.379100 1.060100
90.447700 1.039600
90.516300 1.053400
90.584800 1.061400
90.653400 1.058500
90.721900 1.071400
90.790500 1.088100
90.859100 1.090200
90.927600 1.100700
90.996200 1.111400
91.064700 1.102200
91.133300 1.091800
91.201800 1.092100
91.270400 1.076500
91.339000 1.064100
91.407500 1.039900
91.476100 1.009500
91.544600 0.982900
91.613200 0.989500
91.681700 1.016000
91.750300 1.028800
91.818900 1.066000
91.887400 1.120700
91.956000 1.150900
92.024500 1.189100
92.093100 1.155400
92.161600 1.110300
92.230200 1.093600
92.298800 1.069700
92.367300 1.063000
92.435900 1.057600
92.504400 1.018600
92.573000 1.000400
92.641600 0.979400
92.710100 0.980700
92.778700 0.996900
92.847200 0.975000
92.915800 0.981300
92.984300 0.981400
93.052900 0.981300
93.121500 0.992500
93.190000 1.012100
93.258600 1.028400
93.327100 1.027200
93.395700 1.040700
93.464200 1.013800
93.532800 0.988700
93.601400 0.961900
93.669900 0.935500
93.738500 0.908300
93.807000 0.879600
93.875600 0.848800
93.944100 0.816900
94.012700 0.782900
94.081300 0.740300
94.149800 0.703500
94.218400 0.670900
94.286900 0.648400
94.355500 0.631600
94.424100 0.633300
94.492600 0.588500
94.561200 0.574900
94.629700 0.576700
94.698300 0.577100
94.766800 0.578000
94.835400 0.562200
94.904000 0.531600
94.972500 0.507400
95.041100 0.488400
95.109600 0.463200
95.178200 0.447300
95.246700 0.402200
95.315300 0.371500
95.383900 0.335400
95.452400 0.301900
95.521000 0.274700
95.589500 0.237900
95.658100 0.202900
95.726600 0.158900
95.795200 0.139200
95.863800 0.113700
95.932300 0.096900
96.000900 0.085400
96.069400 0.076600
96.138000 0.066700
96.206600 0.058800
96.275100 0.054400
96.343700 0.053800
96.412200 0.051600
96.480800 0.050700
96.549300 0.049800
96.617900 0.048500
96.686500 0.046800
96.755000 0.044600
96.823600 0.042300
96.892100 0.040100
96.960700 0.037900
97.029200 0.036400
97.097800 0.035000
97.166400 0.033900
97.234900 0.035200
97.303500 0.032600
97.372000 0.033400
97.440600 0.030700
97.509100 0.027900
97.577700 0.019100
97.646300 0.014400
97.714800 0.007800
97.783400 0.006500
97.851900 0.005300
97.920500 0.004100
97.989100 0.003000
98.057600 0.001900
98.126200 0.001000
98.194700 0.000100
98.263300 0.000000
98.331800 0.000000
98.400400 0.000000
98.469000 0.000000
98.537500 0.000000
98.606100 0.000000
98.674600 0.000000
98.743200 0.000000
98.811700 0.000000
98.880300 0.000000
98.948900 0.000000
99.017400 0.000000
99.086000 0.000000
99.154500 0.000000
99.223100 0.000000
99.291600 0.000000
99.360200 0.000000
99.428800 0.000000
99.497300 0.000000
99.565900 0.000000
99.634400 0.000000
99.703000 0.000000
99.771600 0.000000
99.840100 0.000000
99.908700 0.000000
99.977200 0.000000
100.045800 0.000000
100.114300 0.000000
100.182900 0.000000
100.251500 0.000000
100.320000 0.000000
100.388600 0.000000
100.457100 0.000000
100.525700 0.000000
100.594200 0.000000
100.662800 0.000000
100.731400 0.000000
100.799900 0.000000
100.868500 0.000000
100.937000 0.000000
101.005600 0.000000
101.074100 0.000000
101.142700 0.000000
101.211300 0.000000
101.279800 0.000000
101.348400 0.000000
101.416900 0.000000
101.485500 0.000000
101.554100 0.000000
101.622600 0.000000
101.691200 0.000000
101.759700 0.000000
101.828300 0.000000
101.896800 0.000000
101.965400 0.000000
102.034000 0.000000
102.102500 0.000000
102.171100 0.000000
102.239600 0.000000
102.308200 0.000000
102.376700 0.000000
102.445300 0.000000
102.513900 0.000000
102.582400 0.000000
102.651000 0.000000
102.719500 0.000000
102.788100 0.000000
102.856600 0.000000
102.925200 0.000000
102.993800 0.000000
103.062300 0.000000
103.130900 0.000000
103.199400 0.000000
103.268000 0.000000
103.336600 0.000000
103.405100 0.000000
103.473700 0.000000
103.542200 0.000000
103.610800 0.000000
103.679300 0.000000
103.747900 0.000000
103.816500 0.000000
103.885000 0.000000
103.953600 0.000000
104.022100 0.000000
104.090700 0.000000
104.159200 0.000000
104.227800 0.000000
104.296400 0.000000
104.364900 0.000000
104.433500 0.000000
e
