set title 'mp-23224 - Density of States'
set xlabel 'Energy (eV)'
set ylabel 'DOS (states/eV)'
set grid
set xrange [-10:10]
set yrange [0:22.754]
set xzeroaxis lt -1
set terminal png size 800,600
set output 'mp-23224_dos_gnuplot.png'
plot '-' using 1:2 with lines title 'DOS'
-8.966500 0.000000
-8.956800 0.000000
-8.947200 0.000000
-8.937500 0.000000
-8.927900 0.000000
-8.918200 0.000000
-8.908600 0.000000
-8.898900 0.000000
-8.889300 0.000000
-8.879600 0.000000
-8.870000 0.000000
-8.860300 0.000000
-8.850700 0.000000
-8.841000 0.000000
-8.831400 0.000000
-8.821700 0.000000
-8.812100 0.000000
-8.802400 0.000000
-8.792700 0.000000
-8.783100 0.000000
-8.773400 0.000000
-8.763800 0.000000
-8.754100 0.000000
-8.744500 0.000000
-8.734800 0.000000
-8.725200 0.000000
-8.715500 0.000000
-8.705900 0.000000
-8.696200 0.000000
-8.686600 0.000000
-8.676900 0.000000
-8.667300 0.000000
-8.657600 0.000000
-8.648000 0.000000
-8.638300 0.000000
-8.628700 0.000000
-8.619000 0.000000
-8.609400 0.000000
-8.599700 0.000000
-8.590100 0.000000
-8.580400 0.000000
-8.570800 0.000000
-8.561100 0.000000
-8.551500 0.000000
-8.541800 0.000000
-8.532100 0.000000
-8.522500 0.000000
-8.512800 0.000000
-8.503200 0.000000
-8.493500 0.000000
-8.483900 0.000000
-8.474200 0.000000
-8.464600 0.000000
-8.454900 0.000000
-8.445300 0.000000
-8.435600 0.000000
-8.426000 0.000000
-8.416300 0.000000
-8.406700 0.000000
-8.397000 0.000000
-8.387400 0.000000
-8.377700 0.000000
-8.368100 0.000000
-8.358400 0.000000
-8.348800 0.000000
-8.339100 0.000000
-8.329500 0.000000
-8.319800 0.000000
-8.310200 0.000000
-8.300500 0.000000
-8.290800 0.000000
-8.281200 0.000000
-8.271500 0.000000
-8.261900 0.000000
-8.252200 0.000000
-8.242600 0.000000
-8.232900 0.000000
-8.223300 0.000000
-8.213600 0.000000
-8.204000 0.000000
-8.194300 0.000000
-8.184700 0.000000
-8.175000 0.000000
-8.165400 0.000000
-8.155700 0.000000
-8.146100 0.000000
-8.136400 0.000000
-8.126800 0.000000
-8.117100 0.000000
-8.107500 0.000000
-8.097800 0.000000
-8.088200 0.002000
-8.078500 0.251400
-8.068900 0.597400
-8.059200 0.943500
-8.049500 1.398300
-8.039900 1.209300
-8.030200 1.587900
-8.020600 1.966700
-8.010900 1.908800
-8.001300 1.655000
-7.991600 1.714200
-7.982000 1.773400
-7.972300 1.832500
-7.962700 1.888000
-7.953000 1.891200
-7.943400 1.886300
-7.933700 1.881400
-7.924100 1.840600
-7.914400 1.802900
-7.904800 1.778800
-7.895100 1.754700
-7.885500 1.747000
-7.875800 1.768400
-7.866200 1.790100
-7.856500 1.811800
-7.846900 1.833600
-7.837200 1.855300
-7.827600 1.877000
-7.817900 1.898700
-7.808300 1.920400
-7.798600 1.893800
-7.788900 1.881000
-7.779300 1.890700
-7.769600 1.878600
-7.760000 1.830600
-7.750300 1.828300
-7.740700 1.825900
-7.731000 1.823600
-7.721400 1.821400
-7.711700 1.824900
-7.702100 1.829800
-7.692400 1.834600
-7.682800 1.843700
-7.673100 1.855800
-7.663500 1.867800
-7.653800 1.904300
-7.644200 2.055900
-7.634500 2.330900
-7.624900 2.720500
-7.615200 2.959900
-7.605600 2.993600
-7.595900 2.901700
-7.586300 2.814600
-7.576600 2.926400
-7.567000 3.150200
-7.557300 3.486900
-7.547600 3.865100
-7.538000 3.980500
-7.528300 3.965200
-7.518700 3.822100
-7.509000 3.790600
-7.499400 3.796500
-7.489700 3.819500
-7.480100 3.860100
-7.470400 3.911400
-7.460800 3.944200
-7.451100 3.953800
-7.441500 3.941600
-7.431800 3.923300
-7.422200 3.919900
-7.412500 3.934700
-7.402900 3.966600
-7.393200 3.999100
-7.383600 4.006000
-7.373900 4.008100
-7.364300 4.013900
-7.354600 4.036000
-7.345000 4.058100
-7.335300 4.080200
-7.325700 4.078200
-7.316000 4.069200
-7.306400 4.058200
-7.296700 4.025700
-7.287000 4.033000
-7.277400 4.040300
-7.267700 4.047500
-7.258100 4.054900
-7.248400 4.065800
-7.238800 4.079700
-7.229100 4.097200
-7.219500 4.119600
-7.209800 4.141800
-7.200200 4.158500
-7.190500 4.167600
-7.180900 4.171500
-7.171200 4.176700
-7.161600 4.187900
-7.151900 4.205300
-7.142300 4.223000
-7.132600 4.234200
-7.123000 4.238200
-7.113300 4.238400
-7.103700 4.242600
-7.094000 4.253000
-7.084400 4.269000
-7.074700 4.286200
-7.065100 4.304100
-7.055400 4.323200
-7.045700 4.342900
-7.036100 4.362500
-7.026400 4.377900
-7.016800 4.391700
-7.007100 4.404900
-6.997500 4.416600
-6.987800 4.432400
-6.978200 4.453200
-6.968500 4.719500
-6.958900 5.107400
-6.949200 5.496400
-6.939600 5.850900
-6.929900 5.323200
-6.920300 5.373000
-6.910600 5.421700
-6.901000 5.465700
-6.891300 5.513000
-6.881700 5.567000
-6.872000 5.623500
-6.862400 5.680000
-6.852700 5.705500
-6.843100 5.694200
-6.833400 5.685900
-6.823800 5.678200
-6.814100 5.691800
-6.804500 5.732900
-6.794800 5.774100
-6.785100 5.815500
-6.775500 5.858800
-6.765800 5.902300
-6.756200 5.945700
-6.746500 5.992400
-6.736900 6.039900
-6.727200 6.093400
-6.717600 6.148900
-6.707900 6.203400
-6.698300 6.183300
-6.688600 6.224900
-6.679000 6.271100
-6.669300 6.322000
-6.659700 6.374300
-6.650000 6.429400
-6.640400 6.486600
-6.630700 6.557000
-6.621100 6.641000
-6.611400 6.752500
-6.601800 6.864200
-6.592100 6.975900
-6.582500 7.087700
-6.572800 7.212200
-6.563200 7.350300
-6.553500 8.447400
-6.543800 9.504400
-6.534200 9.157000
-6.524500 8.831500
-6.514900 8.570400
-6.505200 8.299500
-6.495600 8.040800
-6.485900 7.973900
-6.476300 8.240400
-6.466600 8.577800
-6.457000 8.919400
-6.447300 9.086800
-6.437700 9.126700
-6.428000 9.188700
-6.418400 8.861900
-6.408700 8.096400
-6.399100 8.283600
-6.389400 8.386900
-6.379800 7.721800
-6.370100 7.041900
-6.360500 6.739000
-6.350800 7.174600
-6.341200 7.814000
-6.331500 6.291100
-6.321900 4.959800
-6.312200 4.883500
-6.302600 4.807200
-6.292900 4.731000
-6.283200 4.654700
-6.273600 4.568800
-6.263900 4.485700
-6.254300 4.406700
-6.244600 4.327700
-6.235000 4.248800
-6.225300 4.169800
-6.215700 4.090900
-6.206000 3.931900
-6.196400 3.854800
-6.186700 3.864800
-6.177100 3.874900
-6.167400 3.885000
-6.157800 3.865400
-6.148100 3.820300
-6.138500 3.759800
-6.128800 3.665800
-6.119200 3.571900
-6.109500 3.478000
-6.099900 3.384100
-6.090200 3.294500
-6.080600 3.205700
-6.070900 3.145600
-6.061300 3.216200
-6.051600 3.169500
-6.041900 3.068900
-6.032300 2.741100
-6.022600 2.409300
-6.013000 2.655900
-6.003300 2.919700
-5.993700 3.150900
-5.984000 3.248200
-5.974400 3.264700
-5.964700 3.353200
-5.955100 3.538000
-5.945400 3.869100
-5.935800 4.183900
-5.926100 4.737400
-5.916500 5.909800
-5.906800 7.162400
-5.897200 8.422200
-5.887500 9.983400
-5.877900 11.655600
-5.868200 10.396000
-5.858600 8.865900
-5.848900 9.628800
-5.839300 12.671500
-5.829600 9.521100
-5.820000 9.671900
-5.810300 9.847900
-5.800700 10.052500
-5.791000 10.290900
-5.781300 10.817600
-5.771700 12.010100
-5.762000 13.278200
-5.752400 13.535500
-5.742700 13.921100
-5.733100 15.546800
-5.723400 18.923100
-5.713800 17.694100
-5.704100 15.705700
-5.694500 15.113100
-5.684800 15.322100
-5.675200 15.886000
-5.665500 19.756600
-5.655900 17.832100
-5.646200 18.503000
-5.636600 16.482900
-5.626900 20.685700
-5.617300 12.845100
-5.607600 8.188100
-5.598000 7.405900
-5.588300 6.917500
-5.578700 6.658100
-5.569000 6.299000
-5.559400 5.848700
-5.549700 6.063700
-5.540000 5.566400
-5.530400 6.252900
-5.520700 6.958300
-5.511100 6.890000
-5.501400 3.250700
-5.491800 2.204700
-5.482100 2.306500
-5.472500 2.325100
-5.462800 2.528500
-5.453200 2.946400
-5.443500 3.410800
-5.433900 3.095600
-5.424200 3.150500
-5.414600 3.255800
-5.404900 3.411500
-5.395300 3.590100
-5.385600 4.088200
-5.376000 5.480700
-5.366300 5.939400
-5.356700 6.580600
-5.347000 6.722700
-5.337400 6.542400
-5.327700 5.796100
-5.318100 5.843400
-5.308400 5.927800
-5.298800 6.146400
-5.289100 6.724300
-5.279400 7.517600
-5.269800 7.818200
-5.260100 7.714700
-5.250500 6.803800
-5.240800 6.681600
-5.231200 6.603700
-5.221500 6.533600
-5.211900 8.135100
-5.202200 7.288800
-5.192600 6.473800
-5.182900 5.334000
-5.173300 5.270800
-5.163600 5.213600
-5.154000 5.181400
-5.144300 5.154800
-5.134700 5.134000
-5.125000 5.116600
-5.115400 5.100400
-5.105700 5.085500
-5.096100 5.071800
-5.086400 5.059400
-5.076800 5.048800
-5.067100 5.041500
-5.057500 5.046600
-5.047800 5.077900
-5.038100 5.123700
-5.028500 5.181900
-5.018800 5.242000
-5.009200 5.295800
-4.999500 5.380900
-4.989900 5.473100
-4.980200 5.565800
-4.970600 5.658900
-4.960900 5.704000
-4.951300 5.739200
-4.941600 5.774000
-4.932000 5.808300
-4.922300 5.842400
-4.912700 5.844100
-4.903000 6.753800
-4.893400 6.931600
-4.883700 6.808800
-4.874100 6.697800
-4.864400 6.915500
-4.854800 6.847400
-4.845100 6.786600
-4.835500 8.592000
-4.825800 7.831200
-4.816200 7.601100
-4.806500 7.397100
-4.796900 7.222800
-4.787200 7.081800
-4.777500 6.955000
-4.767900 6.835800
-4.758200 6.727100
-4.748600 6.623000
-4.738900 6.523100
-4.729300 6.438600
-4.719600 6.364600
-4.710000 6.299100
-4.700300 6.284000
-4.690700 6.284400
-4.681000 6.276300
-4.671400 6.256300
-4.661700 6.194500
-4.652100 6.139900
-4.642400 6.104900
-4.632800 6.073800
-4.623100 6.360700
-4.613500 6.355800
-4.603800 6.422800
-4.594200 6.485100
-4.584500 6.530000
-4.574900 6.557400
-4.565200 6.647000
-4.555600 6.788500
-4.545900 6.894100
-4.536200 7.009500
-4.526600 6.848800
-4.516900 6.683800
-4.507300 6.535100
-4.497600 6.414900
-4.488000 6.285200
-4.478300 6.156400
-4.468700 6.048300
-4.459000 5.974600
-4.449400 5.940900
-4.439700 5.885200
-4.430100 5.806200
-4.420400 5.722100
-4.410800 5.639300
-4.401100 5.560800
-4.391500 5.487200
-4.381800 5.568900
-4.372200 5.729400
-4.362500 5.700400
-4.352900 5.592200
-4.343200 5.425700
-4.333600 5.263000
-4.323900 5.103200
-4.314300 4.946000
-4.304600 4.791300
-4.295000 4.644800
-4.285300 4.498200
-4.275600 4.352600
-4.266000 4.209200
-4.256300 4.068300
-4.246700 3.932100
-4.237000 3.807600
-4.227400 3.679600
-4.217700 3.555400
-4.208100 3.436700
-4.198400 3.323700
-4.188800 3.216100
-4.179100 3.084000
-4.169500 2.972800
-4.159800 2.923000
-4.150200 2.891800
-4.140500 2.869000
-4.130900 2.846900
-4.121200 2.825300
-4.111600 2.804100
-4.101900 2.783200
-4.092300 2.763500
-4.082600 2.750800
-4.073000 2.743600
-4.063300 2.732400
-4.053700 2.722400
-4.044000 2.711100
-4.034300 2.698500
-4.024700 2.684600
-4.015000 2.669400
-4.005400 2.652900
-3.995700 2.635300
-3.986100 2.617700
-3.976400 2.606900
-3.966800 2.598100
-3.957100 2.588000
-3.947500 2.576400
-3.937800 2.563500
-3.928200 2.549100
-3.918500 2.533500
-3.908900 2.518200
-3.899200 2.504400
-3.889600 2.492300
-3.879900 2.481800
-3.870300 2.472900
-3.860600 2.464900
-3.851000 2.455400
-3.841300 2.446300
-3.831700 2.443600
-3.822000 2.440200
-3.812400 2.436000
-3.802700 2.430900
-3.793100 2.425000
-3.783400 2.418200
-3.773700 2.411800
-3.764100 2.405000
-3.754400 2.398600
-3.744800 2.392700
-3.735100 2.386800
-3.725500 2.368400
-3.715800 2.347200
-3.706200 2.327500
-3.696500 2.315100
-3.686900 2.316200
-3.677200 2.324800
-3.667600 2.337100
-3.657900 2.346800
-3.648300 2.353700
-3.638600 2.358100
-3.629000 2.359700
-3.619300 2.358500
-3.609700 2.352900
-3.600000 2.340100
-3.590400 2.350000
-3.580700 2.352300
-3.571100 2.333100
-3.561400 2.292200
-3.551800 2.237300
-3.542100 2.181900
-3.532400 2.126200
-3.522800 2.072900
-3.513100 2.022600
-3.503500 1.974900
-3.493800 1.930400
-3.484200 1.888700
-3.474500 1.846300
-3.464900 1.803800
-3.455200 1.761100
-3.445600 1.718300
-3.435900 1.675400
-3.426300 1.632300
-3.416600 1.589000
-3.407000 1.531700
-3.397300 1.465600
-3.387700 1.412000
-3.378000 1.371200
-3.368400 1.343000
-3.358700 1.336500
-3.349100 1.333600
-3.339400 1.328300
-3.329800 1.316400
-3.320100 1.296300
-3.310500 1.267900
-3.300800 1.231700
-3.291200 1.194100
-3.281500 1.157200
-3.271800 1.121100
-3.262200 1.085700
-3.252500 1.051100
-3.242900 1.036000
-3.233200 1.000000
-3.223600 0.964800
-3.213900 0.930300
-3.204300 0.896600
-3.194600 0.851400
-3.185000 0.803900
-3.175300 0.762800
-3.165700 0.727900
-3.156000 0.699200
-3.146400 0.676800
-3.136700 0.660700
-3.127100 0.650800
-3.117400 0.643900
-3.107800 0.636900
-3.098100 0.630000
-3.088500 0.623000
-3.078800 0.620500
-3.069200 0.627300
-3.059500 0.635100
-3.049900 0.642700
-3.040200 0.650100
-3.030500 0.657300
-3.020900 0.658500
-3.011200 0.648600
-3.001600 0.634900
-2.991900 0.621100
-2.982300 0.607300
-2.972600 0.593600
-2.963000 0.579800
-2.953300 0.566100
-2.943700 0.552300
-2.934000 0.538600
-2.924400 0.524800
-2.914700 0.511100
-2.905100 0.575900
-2.895400 0.669000
-2.885800 0.717600
-2.876100 0.640300
-2.866500 0.500000
-2.856800 0.364500
-2.847200 0.233800
-2.837500 0.123500
-2.827900 0.048100
-2.818200 0.007600
-2.808600 0.000000
-2.798900 0.000000
-2.789300 0.000000
-2.779600 0.000000
-2.769900 0.000000
-2.760300 0.000000
-2.750600 0.000000
-2.741000 0.000000
-2.731300 0.000000
-2.721700 0.000000
-2.712000 0.000000
-2.702400 0.000000
-2.692700 0.000000
-2.683100 0.000000
-2.673400 0.000000
-2.663800 0.000000
-2.654100 0.000000
-2.644500 0.000000
-2.634800 0.000000
-2.625200 0.000000
-2.615500 0.000000
-2.605900 0.000000
-2.596200 0.000000
-2.586600 0.000000
-2.576900 0.000000
-2.567300 0.000000
-2.557600 0.000000
-2.548000 0.000000
-2.538300 0.000000
-2.528600 0.000000
-2.519000 0.000000
-2.509300 0.000000
-2.499700 0.000000
-2.490000 0.000000
-2.480400 0.000000
-2.470700 0.000000
-2.461100 0.000000
-2.451400 0.000000
-2.441800 0.000000
-2.432100 0.000000
-2.422500 0.000000
-2.412800 0.000000
-2.403200 0.000000
-2.393500 0.000000
-2.383900 0.000000
-2.374200 0.000000
-2.364600 0.000000
-2.354900 0.000000
-2.345300 0.000000
-2.335600 0.000000
-2.326000 0.000000
-2.316300 0.000000
-2.306700 0.000000
-2.297000 0.000000
-2.287400 0.000000
-2.277700 0.000000
-2.268000 0.000000
-2.258400 0.000000
-2.248700 0.000000
-2.239100 0.000000
-2.229400 0.000000
-2.219800 0.000000
-2.210100 0.000000
-2.200500 0.000000
-2.190800 0.000000
-2.181200 0.000000
-2.171500 0.000000
-2.161900 0.000000
-2.152200 0.000000
-2.142600 0.000000
-2.132900 0.000000
-2.123300 0.000000
-2.113600 0.000000
-2.104000 0.000000
-2.094300 0.000000
-2.084700 0.000000
-2.075000 0.000000
-2.065400 0.000000
-2.055700 0.000000
-2.046100 0.000000
-2.036400 0.000000
-2.026700 0.000000
-2.017100 0.000000
-2.007400 0.000000
-1.997800 0.000000
-1.988100 0.000000
-1.978500 0.000000
-1.968800 0.000000
-1.959200 0.000000
-1.949500 0.000000
-1.939900 0.000000
-1.930200 0.000000
-1.920600 0.000000
-1.910900 0.000000
-1.901300 0.000000
-1.891600 0.000000
-1.882000 0.000000
-1.872300 0.000000
-1.862700 0.000000
-1.853000 0.000000
-1.843400 0.000000
-1.833700 0.000000
-1.824100 0.000000
-1.814400 0.000000
-1.804800 0.000000
-1.795100 0.000000
-1.785500 0.000000
-1.775800 0.000000
-1.766100 0.000000
-1.756500 0.000000
-1.746800 0.000000
-1.737200 0.000000
-1.727500 0.000000
-1.717900 0.000000
-1.708200 0.000000
-1.698600 0.000000
-1.688900 0.000000
-1.679300 0.000000
-1.669600 0.000000
-1.660000 0.000000
-1.650300 0.000000
-1.640700 0.000000
-1.631000 0.000000
-1.621400 0.000000
-1.611700 0.000000
-1.602100 0.000000
-1.592400 0.000000
-1.582800 0.000000
-1.573100 0.000000
-1.563500 0.000000
-1.553800 0.000000
-1.544200 0.000000
-1.534500 0.000000
-1.524800 0.000000
-1.515200 0.000000
-1.505500 0.000000
-1.495900 0.000000
-1.486200 0.000000
-1.476600 0.000000
-1.466900 0.000000
-1.457300 0.000000
-1.447600 0.000000
-1.438000 0.000000
-1.428300 0.000000
-1.418700 0.000000
-1.409000 0.000000
-1.399400 0.000000
-1.389700 0.000000
-1.380100 0.000000
-1.370400 0.000000
-1.360800 0.000000
-1.351100 0.000000
-1.341500 0.000000
-1.331800 0.000000
-1.322200 0.000000
-1.312500 0.000000
-1.302900 0.000000
-1.293200 0.000000
-1.283500 0.000000
-1.273900 0.000000
-1.264200 0.000000
-1.254600 0.000000
-1.244900 0.000000
-1.235300 0.000000
-1.225600 0.000000
-1.216000 0.000000
-1.206300 0.000000
-1.196700 0.000000
-1.187000 0.000000
-1.177400 0.000000
-1.167700 0.000000
-1.158100 0.000000
-1.148400 0.000000
-1.138800 0.000000
-1.129100 0.000000
-1.119500 0.000000
-1.109800 0.000000
-1.100200 0.000000
-1.090500 0.000000
-1.080900 0.000000
-1.071200 0.000000
-1.061600 0.000000
-1.051900 0.000000
-1.042300 0.000000
-1.032600 0.000000
-1.022900 0.000000
-1.013300 0.000000
-1.003600 0.000000
-0.994000 0.000000
-0.984300 0.000000
-0.974700 0.000000
-0.965000 0.000000
-0.955400 0.000000
-0.945700 0.000000
-0.936100 0.000000
-0.926400 0.000000
-0.916800 0.000000
-0.907100 0.000000
-0.897500 0.000000
-0.887800 0.000000
-0.878200 0.000000
-0.868500 0.000000
-0.858900 0.000000
-0.849200 0.000000
-0.839600 0.000000
-0.829900 0.000000
-0.820300 0.000000
-0.810600 0.000000
-0.801000 0.000000
-0.791300 0.000000
-0.781600 0.000000
-0.772000 0.000000
-0.762300 0.000000
-0.752700 0.000000
-0.743000 0.000000
-0.733400 0.000000
-0.723700 0.000000
-0.714100 0.000000
-0.704400 0.000000
-0.694800 0.000000
-0.685100 0.000000
-0.675500 0.000000
-0.665800 0.000000
-0.656200 0.000000
-0.646500 0.000000
-0.636900 0.000000
-0.627200 0.000000
-0.617600 0.000000
-0.607900 0.000000
-0.598300 0.000000
-0.588600 0.000000
-0.579000 0.000000
-0.569300 0.000000
-0.559700 0.000000
-0.550000 0.000000
-0.540400 0.000000
-0.530700 0.000000
-0.521000 0.000000
-0.511400 0.000000
-0.501700 0.000000
-0.492100 0.000000
-0.482400 0.000000
-0.472800 0.000000
-0.463100 0.000000
-0.453500 0.000000
-0.443800 0.000000
-0.434200 0.000000
-0.424500 0.000000
-0.414900 0.000000
-0.405200 0.000000
-0.395600 0.000000
-0.385900 0.000000
-0.376300 0.000000
-0.366600 0.000000
-0.357000 0.000000
-0.347300 0.000000
-0.337700 0.000000
-0.328000 0.000000
-0.318400 0.000000
-0.308700 0.000000
-0.299100 0.000000
-0.289400 0.000000
-0.279700 0.000000
-0.270100 0.000000
-0.260400 0.000000
-0.250800 0.000000
-0.241100 0.000000
-0.231500 0.000000
-0.221800 0.000000
-0.212200 0.000000
-0.202500 0.000000
-0.192900 0.000000
-0.183200 0.000000
-0.173600 0.000000
-0.163900 0.000000
-0.154300 0.000000
-0.144600 0.000000
-0.135000 0.000000
-0.125300 0.000000
-0.115700 0.000000
-0.106000 0.000000
-0.096400 0.000000
-0.086700 0.000000
-0.077100 0.000000
-0.067400 0.000000
-0.057800 0.000000
-0.048100 0.000000
-0.038500 0.000000
-0.028800 0.000000
-0.019100 0.000000
-0.009500 0.000000
0.000200 0.000000
0.009800 0.000000
0.019500 0.000000
0.029100 0.000000
0.038800 0.000000
0.048400 0.000000
0.058100 0.042700
0.067700 0.242700
0.077400 0.606300
0.087000 1.133800
0.096700 1.834100
0.106300 2.676600
0.116000 2.659600
0.125600 2.261400
0.135300 2.042000
0.144900 1.925200
0.154600 1.964500
0.164200 2.129000
0.173900 2.377900
0.183500 2.710100
0.193200 3.125600
0.202800 3.716800
0.212500 4.553300
0.222200 4.917800
0.231800 4.661300
0.241500 4.495400
0.251100 4.337500
0.260800 4.230100
0.270400 4.194200
0.280100 4.198500
0.289700 4.226000
0.299400 4.257300
0.309000 4.291400
0.318700 4.409500
0.328300 4.565900
0.338000 4.656100
0.347600 4.722100
0.357300 4.720400
0.366900 4.711100
0.376600 4.700000
0.386200 4.699900
0.395900 4.718600
0.405500 4.753000
0.415200 5.451900
0.424800 6.116900
0.434500 5.945000
0.444100 5.877300
0.453800 5.675500
0.463400 6.089600
0.473100 6.164000
0.482800 6.705700
0.492400 5.841100
0.502100 4.759400
0.511700 4.541800
0.521400 4.330200
0.531000 4.124700
0.540700 3.925300
0.550300 4.382000
0.560000 4.137400
0.569600 3.852500
0.579300 3.655500
0.588900 3.336700
0.598600 2.788100
0.608200 2.736000
0.617900 2.712800
0.627500 2.720000
0.637200 2.756900
0.646800 2.804000
0.656500 2.851800
0.666100 2.900700
0.675800 2.951200
0.685400 3.003300
0.695100 3.057100
0.704700 3.112100
0.714400 3.200900
0.724100 3.347500
0.733700 3.586100
0.743400 3.884700
0.753000 4.206700
0.762700 4.540900
0.772300 5.019500
0.782000 5.403300
0.791600 5.307800
0.801300 5.730000
0.810900 5.473800
0.820600 4.922100
0.830200 4.833900
0.839900 4.747800
0.849500 4.743100
0.859200 4.591400
0.868800 5.749500
0.878500 5.145300
0.888100 4.621200
0.897800 4.340200
0.907400 4.199000
0.917100 4.098400
0.926700 4.177600
0.936400 4.131700
0.946000 4.126800
0.955700 4.185200
0.965300 4.256300
0.975000 4.365000
0.984700 4.347400
0.994300 4.542700
1.004000 5.027700
1.013600 5.430500
1.023300 6.308500
1.032900 6.898000
1.042600 7.478400
1.052200 7.818900
1.061900 8.311100
1.071500 8.840400
1.081200 9.416200
1.090800 9.905200
1.100500 9.699400
1.110100 9.200900
1.119800 8.671400
1.129400 8.367600
1.139100 8.085800
1.148700 7.882600
1.158400 7.770900
1.168000 7.771700
1.177700 7.908800
1.187300 8.084800
1.197000 8.255200
1.206600 8.170500
1.216300 8.050000
1.226000 7.843900
1.235600 7.683500
1.245300 7.756500
1.254900 7.779700
1.264600 7.913600
1.274200 8.159000
1.283900 8.615800
1.293500 8.997100
1.303200 9.458300
1.312800 10.113500
1.322500 10.279400
1.332100 10.448300
1.341800 10.509200
1.351400 10.466900
1.361100 10.407100
1.370700 10.350100
1.380400 10.234900
1.390000 10.083900
1.399700 9.887500
1.409300 9.610900
1.419000 9.588400
1.428600 9.845800
1.438300 10.205900
1.447900 10.429200
1.457600 10.487900
1.467200 10.647800
1.476900 10.789400
1.486600 10.933700
1.496200 10.872700
1.505900 10.459200
1.515500 10.301900
1.525200 10.186600
1.534800 10.216000
1.544500 10.298500
1.554100 10.362800
1.563800 10.408000
1.573400 10.422500
1.583100 10.432300
1.592700 10.432200
1.602400 10.545200
1.612000 10.705500
1.621700 10.864200
1.631300 10.979700
1.641000 10.969100
1.650600 10.930900
1.660300 10.955400
1.669900 11.226800
1.679600 11.470600
1.689200 11.676900
1.698900 11.806000
1.708500 11.963300
1.718200 12.060600
1.727900 11.937700
1.737500 11.746100
1.747200 11.658600
1.756800 11.528200
1.766500 11.490400
1.776100 11.464500
1.785800 11.244900
1.795400 10.981000
1.805100 10.693900
1.814700 10.602400
1.824400 10.750300
1.834000 10.739600
1.843700 10.778400
1.853300 10.675900
1.863000 10.546900
1.872600 10.375500
1.882300 10.265800
1.891900 10.180900
1.901600 10.152800
1.911200 10.067400
1.920900 10.003300
1.930500 9.968900
1.940200 9.964500
1.949800 9.988900
1.959500 10.065800
1.969100 10.445500
1.978800 11.319400
1.988500 10.994800
1.998100 10.288300
2.007800 9.976900
2.017400 9.899800
2.027100 9.939000
2.036700 9.992900
2.046400 10.041300
2.056000 10.069200
2.065700 10.126700
2.075300 10.470800
2.085000 11.107200
2.094600 11.095800
2.104300 11.124100
2.113900 11.130900
2.123600 11.170100
2.133200 11.260100
2.142900 11.445300
2.152500 11.559000
2.162200 11.381600
2.171800 11.589700
2.181500 12.435600
2.191100 12.828200
2.200800 12.827200
2.210400 12.339000
2.220100 12.458700
2.229800 12.610500
2.239400 12.672200
2.249100 12.445700
2.258700 12.452600
2.268400 12.795400
2.278000 12.798100
2.287700 12.719100
2.297300 12.558300
2.307000 12.670600
2.316600 12.701900
2.326300 12.638100
2.335900 12.565300
2.345600 12.503600
2.355200 12.461100
2.364900 12.200300
2.374500 11.770300
2.384200 11.560500
2.393800 11.672400
2.403500 12.931800
2.413100 14.064700
2.422800 14.610600
2.432400 14.284400
2.442100 11.956400
2.451700 10.990900
2.461400 11.197200
2.471000 11.182900
2.480700 11.326700
2.490400 11.525500
2.500000 11.708100
2.509700 12.059200
2.519300 12.405900
2.529000 12.207700
2.538600 12.113800
2.548300 12.039300
2.557900 12.266000
2.567600 11.928800
2.577200 11.830000
2.586900 11.647800
2.596500 11.424300
2.606200 11.324300
2.615800 11.379900
2.625500 11.444100
2.635100 11.494000
2.644800 11.481000
2.654400 11.432700
2.664100 11.319000
2.673700 11.193900
2.683400 11.004400
2.693000 10.391400
2.702700 10.017700
2.712300 9.890100
2.722000 9.728900
2.731700 9.492300
2.741300 9.173400
2.751000 8.800900
2.760600 8.425500
2.770300 8.268400
2.779900 8.122300
2.789600 7.949800
2.799200 7.779400
2.808900 7.560400
2.818500 7.321600
2.828200 7.104200
2.837800 7.083900
2.847500 7.424300
2.857100 7.596200
2.866800 7.791600
2.876400 8.013000
2.886100 8.243600
2.895700 8.463700
2.905400 8.694000
2.915000 8.872700
2.924700 8.980700
2.934300 9.036500
2.944000 9.055100
2.953600 8.783800
2.963300 8.925000
2.972900 8.633600
2.982600 8.461100
2.992300 8.399600
3.001900 8.388400
3.011600 8.429600
3.021200 8.636100
3.030900 8.606200
3.040500 8.454100
3.050200 8.986800
3.059800 8.845200
3.069500 8.745600
3.079100 8.516400
3.088800 7.900900
3.098400 7.858800
3.108100 7.887300
3.117700 8.188800
3.127400 8.471200
3.137000 8.727600
3.146700 8.923600
3.156300 8.967300
3.166000 9.042400
3.175600 9.137200
3.185300 9.263100
3.194900 9.376500
3.204600 9.399700
3.214200 9.461500
3.223900 9.274400
3.233600 10.017800
3.243200 9.247700
3.252900 9.083600
3.262500 9.627900
3.272200 9.547100
3.281800 9.604100
3.291500 9.801600
3.301100 10.150400
3.310800 10.354500
3.320400 10.363600
3.330100 11.223600
3.339700 13.622800
3.349400 10.146100
3.359000 10.381000
3.368700 10.277900
3.378300 9.776800
3.388000 13.448100
3.397600 10.850100
3.407300 11.239500
3.416900 11.507600
3.426600 11.720800
3.436200 11.750900
3.445900 11.576500
3.455500 12.026600
3.465200 10.435200
3.474800 9.312900
3.484500 8.764900
3.494200 8.733500
3.503800 8.840800
3.513500 9.039100
3.523100 9.393300
3.532800 9.850400
3.542400 9.243400
3.552100 9.160400
3.561700 9.435700
3.571400 9.748100
3.581000 10.526200
3.590700 10.791300
3.600300 10.959700
3.610000 10.970900
3.619600 10.781700
3.629300 10.783300
3.638900 10.906200
3.648600 10.987100
3.658200 10.946200
3.667900 11.146200
3.677500 11.578500
3.687200 12.089400
3.696800 12.394600
3.706500 12.725400
3.716100 12.434800
3.725800 12.438800
3.735500 12.472900
3.745100 13.090700
3.754800 13.486800
3.764400 13.619800
3.774100 13.672600
3.783700 13.714000
3.793400 13.781500
3.803000 13.728200
3.812700 13.967100
3.822300 14.477900
3.832000 15.077900
3.841600 16.137900
3.851300 16.995400
3.860900 16.933400
3.870600 16.148400
3.880200 17.063000
3.889900 17.967500
3.899500 16.761000
3.909200 15.127100
3.918800 13.690400
3.928500 12.605100
3.938100 12.052800
3.947800 12.401500
3.957400 12.735000
3.967100 12.865000
3.976700 14.075900
3.986400 13.681100
3.996100 12.810300
4.005700 11.492900
4.015400 11.022400
4.025000 12.250200
4.034700 12.167100
4.044300 11.912200
4.054000 11.682400
4.063600 11.130500
4.073300 9.830900
4.082900 9.371000
4.092600 9.113500
4.102200 8.997600
4.111900 9.005000
4.121500 9.053200
4.131200 9.203800
4.140800 9.630800
4.150500 10.509400
4.160100 11.283300
4.169800 12.337000
4.179400 14.166200
4.189100 16.811600
4.198700 17.417400
4.208400 16.901400
4.218000 15.114600
4.227700 13.417700
4.237400 12.391700
4.247000 11.163800
4.256700 10.379300
4.266300 9.270300
4.276000 8.085000
4.285600 7.212000
4.295300 6.554300
4.304900 6.309300
4.314600 6.135700
4.324200 6.015300
4.333900 5.915700
4.343500 5.835900
4.353200 5.775800
4.362800 5.746500
4.372500 5.788300
4.382100 5.931100
4.391800 6.175900
4.401400 6.522400
4.411100 6.871900
4.420700 7.334600
4.430400 7.510100
4.440000 7.250200
4.449700 7.166300
4.459300 7.137500
4.469000 7.064400
4.478600 6.984400
4.488300 6.866000
4.498000 6.723900
4.507600 6.910600
4.517300 6.489600
4.526900 5.963800
4.536600 5.506100
4.546200 5.155400
4.555900 4.909700
4.565500 4.669900
4.575200 4.482700
4.584800 4.339600
4.594500 4.151800
4.604100 3.965500
4.613800 3.796300
4.623400 3.648500
4.633100 3.526500
4.642700 3.426800
4.652400 3.348100
4.662000 3.290500
4.671700 3.224700
4.681300 3.110600
4.691000 3.024900
4.700600 2.958300
4.710300 2.897800
4.719900 2.843500
4.729600 2.795300
4.739300 2.751400
4.748900 2.707800
4.758600 2.956900
4.768200 2.886200
4.777900 2.926600
4.787500 3.119300
4.797200 2.801600
4.806800 2.486600
4.816500 2.174200
4.826100 1.864500
4.835800 1.655100
4.845400 1.615900
4.855100 1.538400
4.864700 1.447800
4.874400 1.431800
4.884000 1.433100
4.893700 1.425900
4.903300 1.412400
4.913000 1.397200
4.922600 1.380300
4.932300 1.361900
4.941900 1.341800
4.951600 1.320100
4.961200 1.296800
4.970900 1.271900
4.980500 1.245400
4.990200 1.217500
4.999900 1.262000
5.009500 1.438000
5.019200 1.374600
5.028800 1.221200
5.038500 1.188900
5.048100 1.175200
5.057800 1.166900
5.067400 1.163800
5.077100 1.165300
5.086700 1.168400
5.096400 1.172600
5.106000 1.178100
5.115700 1.186500
5.125300 1.211000
5.135000 1.254700
5.144600 1.317800
5.154300 1.400000
5.163900 1.708600
5.173600 1.769200
5.183200 1.364500
5.192900 0.959100
5.202500 0.552700
5.212200 0.145600
5.221800 0.037400
5.231500 0.052000
5.241200 0.067300
5.250800 0.082600
5.260500 0.097800
5.270100 0.112900
5.279800 0.127900
5.289400 0.142900
5.299100 0.157700
5.308700 0.172500
5.318400 0.187200
5.328000 0.201800
5.337700 0.216300
5.347300 0.230100
5.357000 0.240400
5.366600 0.253700
5.376300 0.269900
5.385900 0.288900
5.395600 0.310900
5.405200 0.335800
5.414900 0.363600
5.424500 0.394200
5.434200 0.427800
5.443800 0.464300
5.453500 0.503700
5.463100 0.535500
5.472800 0.561900
5.482500 0.587000
5.492100 0.610800
5.501800 0.633300
5.511400 0.656000
5.521100 0.681600
5.530700 0.710300
5.540400 0.742000
5.550000 0.780600
5.559700 0.829500
5.569300 0.888600
5.579000 0.961700
5.588600 1.053400
5.598300 1.164700
5.607900 1.308800
5.617600 1.814700
5.627200 2.469000
5.636900 3.133100
5.646500 3.487000
5.656200 3.304200
5.665800 3.352100
5.675500 3.558500
5.685100 3.921300
5.694800 4.043300
5.704400 4.166300
5.714100 4.290100
5.723700 4.416200
5.733400 4.541000
5.743100 4.664000
5.752700 4.789500
5.762400 4.499600
5.772000 4.842300
5.781700 5.091600
5.791300 5.245300
5.801000 5.317300
5.810600 5.394100
5.820300 5.513800
5.829900 5.752100
5.839600 5.917400
5.849200 6.130200
5.858900 6.440800
5.868500 6.869000
5.878200 7.440600
5.887800 8.065800
5.897500 8.375900
5.907100 8.617500
5.916800 8.821600
5.926400 9.046300
5.936100 9.279100
5.945700 9.539300
5.955400 9.487800
5.965000 9.373800
5.974700 9.579500
5.984400 9.881700
5.994000 10.085200
6.003700 10.190000
6.013300 10.295600
6.023000 10.471800
6.032600 10.458300
6.042300 10.405900
6.051900 10.322400
6.061600 10.200400
6.071200 10.085900
6.080900 10.009800
6.090500 10.065200
6.100200 11.396900
6.109800 12.759100
6.119500 12.607600
6.129100 12.043500
6.138800 11.597600
6.148400 11.189800
6.158100 10.633500
6.167700 10.337100
6.177400 10.848900
6.187000 11.300200
6.196700 11.840900
6.206300 12.829600
6.216000 13.810200
6.225600 15.092000
6.235300 15.049600
6.245000 15.037000
6.254600 15.278100
6.264300 15.050300
6.273900 14.282000
6.283600 12.775600
6.293200 11.896000
6.302900 11.504700
6.312500 11.580700
6.322200 11.763900
6.331800 12.206400
6.341500 12.310600
6.351100 12.476400
6.360800 12.408800
6.370400 12.281400
6.380100 12.404300
6.389700 13.539800
6.399400 13.726800
6.409000 12.703900
6.418700 11.645800
6.428300 10.581000
6.438000 9.774100
6.447600 9.204100
6.457300 8.818700
6.466900 8.561700
6.476600 8.440800
6.486300 8.443100
6.495900 8.648900
6.505600 8.879700
6.515200 9.695300
6.524900 10.404400
6.534500 11.321400
6.544200 12.396400
6.553800 12.876600
6.563500 12.674900
6.573100 12.075300
6.582800 11.335700
6.592400 10.700800
6.602100 10.201600
6.611700 9.554400
6.621400 8.750200
6.631000 7.828100
6.640700 7.124400
6.650300 6.717700
6.660000 6.459600
6.669600 6.307700
6.679300 6.155600
6.688900 6.104100
6.698600 6.247400
6.708200 6.412800
6.717900 6.711000
6.727500 7.322900
6.737200 7.339200
6.746900 7.538200
6.756500 7.787800
6.766200 7.922100
6.775800 8.199600
6.785500 8.318700
6.795100 8.452100
6.804800 8.595100
6.814400 8.752200
6.824100 8.741000
6.833700 8.743900
6.843400 8.744000
6.853000 8.961700
6.862700 9.086400
6.872300 9.067900
6.882000 8.990200
6.891600 8.854500
6.901300 8.769000
6.910900 8.542300
6.920600 8.426900
6.930200 8.343100
6.939900 8.460600
6.949500 8.617900
6.959200 8.699900
6.968800 8.434300
6.978500 8.239900
6.988200 8.057700
6.997800 7.954600
7.007500 7.945700
7.017100 7.962700
7.026800 7.989400
7.036400 7.997400
7.046100 7.960200
7.055700 7.789400
7.065400 7.583100
7.075000 7.299400
7.084700 7.029400
7.094300 6.794900
7.104000 6.586000
7.113600 6.390800
7.123300 6.131500
7.132900 5.989300
7.142600 5.857000
7.152200 5.748400
7.161900 5.633300
7.171500 5.623100
7.181200 5.627300
7.190800 5.638200
7.200500 5.628700
7.210100 5.689100
7.219800 5.793200
7.229400 5.897500
7.239100 6.026800
7.248800 6.181800
7.258400 6.373700
7.268100 6.604400
7.277700 6.831900
7.287400 6.977400
7.297000 7.042300
7.306700 7.052900
7.316300 7.067300
7.326000 7.075800
7.335600 6.947100
7.345300 6.700500
7.354900 6.531200
7.364600 6.406300
7.374200 6.299500
7.383900 6.272200
7.393500 6.259000
7.403200 6.282400
7.412800 6.315500
7.422500 6.351300
7.432100 6.377100
7.441800 6.393100
7.451400 6.447300
7.461100 6.638500
7.470700 6.875800
7.480400 7.081200
7.490100 7.341100
7.499700 7.658700
7.509400 8.145700
7.519000 8.680200
7.528700 9.232700
7.538300 9.775400
7.548000 10.262900
7.557600 10.665600
7.567300 10.881600
7.576900 11.066200
7.586600 11.221300
7.596200 10.480800
7.605900 9.972100
7.615500 9.673200
7.625200 9.578800
7.634800 9.468700
7.644500 9.310300
7.654100 9.290400
7.663800 9.244100
7.673400 9.450000
7.683100 9.674900
7.692700 9.894000
7.702400 10.192700
7.712000 10.733000
7.721700 11.126400
7.731300 11.372700
7.741000 11.609300
7.750700 11.896700
7.760300 12.240500
7.770000 12.436700
7.779600 12.564100
7.789300 12.822200
7.798900 12.850200
7.808600 12.481500
7.818200 11.700000
7.827900 10.995500
7.837500 10.539300
7.847200 10.232400
7.856800 9.950300
7.866500 9.700500
7.876100 9.593900
7.885800 9.863800
7.895400 9.659000
7.905100 9.915200
7.914700 9.853400
7.924400 9.715300
7.934000 9.669900
7.943700 9.556400
7.953300 10.136400
7.963000 10.523100
7.972600 10.291900
7.982300 10.002700
7.992000 10.085500
8.001600 10.174600
8.011300 10.262700
8.020900 10.336900
8.030600 10.323300
8.040200 10.273300
8.049900 10.167800
8.059500 10.052100
8.069200 9.933400
8.078800 9.835100
8.088500 9.751500
8.098100 9.614800
8.107800 9.536900
8.117400 9.429900
8.127100 9.263400
8.136700 9.033700
8.146400 8.838200
8.156000 8.811800
8.165700 8.835400
8.175300 8.854300
8.185000 8.865100
8.194600 8.699400
8.204300 8.625700
8.213900 8.540000
8.223600 8.441400
8.233200 8.359000
8.242900 8.270500
8.252600 8.147800
8.262200 7.997300
8.271900 7.811500
8.281500 7.609500
8.291200 7.461400
8.300800 7.437500
8.310500 7.425200
8.320100 7.423700
8.329800 7.522500
8.339400 7.664200
8.349100 7.684400
8.358700 7.664700
8.368400 7.906900
8.378000 8.130700
8.387700 8.327300
8.397300 8.441000
8.407000 8.776900
8.416600 8.998400
8.426300 9.110800
8.435900 9.346700
8.445600 9.743400
8.455200 10.230800
8.464900 12.046600
8.474500 10.261500
8.484200 9.485200
8.493900 9.042500
8.503500 11.163000
8.513200 8.779600
8.522800 8.873800
8.532500 8.907000
8.542100 8.879700
8.551800 8.775900
8.561400 8.595700
8.571100 8.833800
8.580700 8.718100
8.590400 8.220100
8.600000 7.927000
8.609700 7.754600
8.619300 7.720100
8.629000 7.710200
8.638600 7.620300
8.648300 7.516500
8.657900 7.710300
8.667600 9.234300
8.677200 7.336400
8.686900 7.458600
8.696500 7.936800
8.706200 8.344000
8.715800 8.696200
8.725500 8.967600
8.735100 9.115400
8.744800 9.193800
8.754500 8.903500
8.764100 8.412900
8.773800 7.726800
8.783400 6.986400
8.793100 6.357700
8.802700 5.750600
8.812400 5.267000
8.822000 5.032700
8.831700 4.904700
8.841300 4.901500
8.851000 4.963700
8.860600 5.051200
8.870300 5.164800
8.879900 5.240000
8.889600 5.265000
8.899200 5.242000
8.908900 5.217000
8.918500 5.268700
8.928200 5.324100
8.937800 5.375400
8.947500 5.419100
8.957100 5.441000
8.966800 5.481400
8.976400 4.971900
8.986100 5.072500
8.995800 5.328000
9.005400 5.224100
9.015100 5.333000
9.024700 4.733400
9.034400 4.141600
9.044000 3.116800
9.053700 2.436000
9.063300 2.279300
9.073000 2.141700
9.082600 2.023100
9.092300 1.923600
9.101900 1.843000
9.111600 1.781500
9.121200 1.739000
9.130900 1.708100
9.140500 1.678100
9.150200 1.648900
9.159800 1.620600
9.169500 1.593100
9.179100 1.566500
9.188800 2.578500
9.198400 2.287800
9.208100 2.017600
9.217700 1.510700
9.227400 1.386900
9.237000 1.287600
9.246700 1.270700
9.256400 1.311700
9.266000 1.410400
9.275700 1.567000
9.285300 1.781400
9.295000 1.922000
9.304600 2.102000
9.314300 2.372900
9.323900 2.650300
9.333600 2.654300
9.343200 2.396500
9.352900 2.054700
9.362500 1.629100
9.372200 1.120600
9.381800 0.777500
9.391500 0.623600
9.401100 0.531900
9.410800 0.445100
9.420400 0.363200
9.430100 0.286200
9.439700 0.214000
9.449400 0.146700
9.459000 0.084300
9.468700 0.000000
9.478300 0.000000
9.488000 0.000000
9.497700 0.000000
9.507300 0.000000
9.517000 0.000000
9.526600 0.000000
9.536300 0.000000
9.545900 0.000000
9.555600 0.000000
9.565200 0.000000
9.574900 0.000000
9.584500 0.000000
9.594200 0.000000
9.603800 0.000000
9.613500 0.000000
9.623100 0.000000
9.632800 0.000000
9.642400 0.000000
9.652100 0.000000
9.661700 0.000000
9.671400 0.000000
9.681000 0.000000
9.690700 0.000000
9.700300 0.000000
9.710000 0.000000
9.719600 0.000000
9.729300 0.000000
9.738900 0.000000
9.748600 0.000000
9.758300 0.000000
9.767900 0.000000
9.777600 0.000000
9.787200 0.000000
9.796900 0.000000
9.806500 0.000000
9.816200 0.000000
9.825800 0.000000
9.835500 0.000000
9.845100 0.000000
9.854800 0.000000
9.864400 0.000000
9.874100 0.000000
9.883700 0.000000
9.893400 0.000000
9.903000 0.000000
9.912700 0.000000
9.922300 0.000000
9.932000 0.000000
9.941600 0.000000
9.951300 0.000000
9.960900 0.000000
9.970600 0.000000
9.980200 0.000000
9.989900 0.000000
9.999600 0.000000
10.009200 0.000000
10.018900 0.000000
10.028500 0.000000
10.038200 0.000000
10.047800 0.000000
10.057500 0.000000
10.067100 0.000000
10.076800 0.000000
10.086400 0.000000
10.096100 0.000000
10.105700 0.000000
10.115400 0.000000
10.125000 0.000000
10.134700 0.000000
10.144300 0.000000
10.154000 0.000000
10.163600 0.000000
10.173300 0.000000
10.182900 0.000000
10.192600 0.000000
10.202200 0.000000
10.211900 0.000000
10.221500 0.000000
10.231200 0.000000
10.240800 0.000000
10.250500 0.000000
10.260200 0.000000
10.269800 0.000000
10.279500 0.000000
10.289100 0.000000
10.298800 0.000000
10.308400 0.000000
10.318100 0.000000
10.327700 0.000000
10.337400 0.000000
e
