set title 'mp-23152 - Density of States'
set xlabel 'Energy (eV)'
set ylabel 'DOS (states/eV)'
set grid
set xrange [-10:10]
set yrange [0:2.574]
set xzeroaxis lt -1
set terminal png size 800,600
set output 'mp-23152_dos_gnuplot.png'
plot '-' using 1:2 with lines title 'DOS'
-9.484000 0.000000
-9.467900 0.000000
-9.451800 0.000000
-9.435600 0.000000
-9.419500 0.000000
-9.403400 0.000000
-9.387200 0.000000
-9.371100 0.000000
-9.355000 0.000000
-9.338800 0.000000
-9.322700 0.000000
-9.306600 0.000000
-9.290400 0.000000
-9.274300 0.000000
-9.258200 0.000000
-9.242000 0.000000
-9.225900 0.000000
-9.209700 0.000000
-9.193600 0.000000
-9.177500 0.000000
-9.161300 0.000000
-9.145200 0.000000
-9.129100 0.000000
-9.112900 0.000000
-9.096800 0.000000
-9.080700 0.000000
-9.064500 0.000000
-9.048400 0.000000
-9.032300 0.000000
-9.016100 0.000000
-9.000000 0.000000
-8.983900 0.000000
-8.967700 0.000000
-8.951600 0.000000
-8.935500 0.000000
-8.919300 0.000000
-8.903200 0.000000
-8.887100 0.000000
-8.870900 0.000000
-8.854800 0.000000
-8.838700 0.000000
-8.822500 0.000000
-8.806400 0.000000
-8.790200 0.000000
-8.774100 0.000000
-8.758000 0.000000
-8.741800 0.000000
-8.725700 0.000000
-8.709600 0.000000
-8.693400 0.000000
-8.677300 0.000000
-8.661200 0.000000
-8.645000 0.000000
-8.628900 0.000000
-8.612800 0.000000
-8.596600 0.000000
-8.580500 0.000000
-8.564400 0.000000
-8.548200 0.000000
-8.532100 0.000000
-8.516000 0.000000
-8.499800 0.000000
-8.483700 0.000000
-8.467600 0.000000
-8.451400 0.000000
-8.435300 0.000000
-8.419200 0.000000
-8.403000 0.000000
-8.386900 0.000000
-8.370700 0.000000
-8.354600 0.000000
-8.338500 0.000000
-8.322300 0.000000
-8.306200 0.000000
-8.290100 0.000000
-8.273900 0.000000
-8.257800 0.000000
-8.241700 0.000000
-8.225500 0.000000
-8.209400 0.000000
-8.193300 0.000000
-8.177100 0.000000
-8.161000 0.000000
-8.144900 0.000000
-8.128700 0.000000
-8.112600 0.000000
-8.096500 0.000000
-8.080300 0.000000
-8.064200 0.000000
-8.048100 0.000000
-8.031900 0.000000
-8.015800 0.000200
-7.999700 0.030100
-7.983500 0.110700
-7.967400 0.126200
-7.951200 0.149000
-7.935100 0.174700
-7.919000 0.202100
-7.902800 0.227700
-7.886700 0.242200
-7.870600 0.249500
-7.854400 0.262900
-7.838300 0.278800
-7.822200 0.295100
-7.806000 0.311700
-7.789900 0.328600
-7.773800 0.342600
-7.757600 0.353000
-7.741500 0.363400
-7.725400 0.374000
-7.709200 0.384600
-7.693100 0.395500
-7.677000 0.407100
-7.660800 0.419600
-7.644700 0.432600
-7.628600 0.445600
-7.612400 0.457700
-7.596300 0.469200
-7.580200 0.479900
-7.564000 0.489300
-7.547900 0.498200
-7.531700 0.508300
-7.515600 0.518600
-7.499500 0.529200
-7.483300 0.539900
-7.467200 0.550800
-7.451100 0.561800
-7.434900 0.573200
-7.418800 0.584500
-7.402700 0.595600
-7.386500 0.607000
-7.370400 0.618300
-7.354300 0.629900
-7.338100 0.640100
-7.322000 0.650700
-7.305900 0.661400
-7.289700 0.672100
-7.273600 0.683100
-7.257500 0.694500
-7.241300 0.706300
-7.225200 0.718200
-7.209100 0.730200
-7.192900 0.742600
-7.176800 0.755300
-7.160700 0.768400
-7.144500 0.782100
-7.128400 0.796200
-7.112200 0.810800
-7.096100 0.825800
-7.080000 0.841200
-7.063800 0.856400
-7.047700 0.871700
-7.031600 0.887900
-7.015400 0.905000
-6.999300 0.923100
-6.983200 0.942000
-6.967000 0.962000
-6.950900 0.986200
-6.934800 1.013800
-6.918600 1.067800
-6.902500 1.137900
-6.886400 1.105200
-6.870200 1.115300
-6.854100 1.125000
-6.838000 1.131900
-6.821800 1.124600
-6.805700 1.133400
-6.789600 1.147000
-6.773400 1.159800
-6.757300 1.170600
-6.741200 1.175500
-6.725000 1.176900
-6.708900 1.186300
-6.692700 1.197100
-6.676600 1.209000
-6.660500 1.222100
-6.644300 1.234600
-6.628200 1.246600
-6.612100 1.258000
-6.595900 1.268700
-6.579800 1.279300
-6.563700 1.295800
-6.547500 1.313200
-6.531400 1.331200
-6.515300 1.351000
-6.499100 1.373200
-6.483000 1.396900
-6.466900 1.422300
-6.450700 1.449400
-6.434600 1.476000
-6.418500 1.510000
-6.402300 1.551500
-6.386200 1.606500
-6.370100 1.680400
-6.353900 1.780100
-6.337800 1.869100
-6.321700 1.945700
-6.305500 1.993100
-6.289400 2.024500
-6.273200 2.069900
-6.257100 2.101300
-6.241000 2.166200
-6.224800 2.150400
-6.208700 2.110900
-6.192600 1.940500
-6.176400 1.695100
-6.160300 1.523400
-6.144200 1.462000
-6.128000 1.390000
-6.111900 1.222300
-6.095800 1.177700
-6.079600 1.113600
-6.063500 1.027300
-6.047400 0.946300
-6.031200 0.903400
-6.015100 0.862600
-5.999000 0.799800
-5.982800 0.731700
-5.966700 0.671400
-5.950600 0.622500
-5.934400 0.575700
-5.918300 0.532700
-5.902200 0.496200
-5.886000 0.462200
-5.869900 0.425600
-5.853700 0.363900
-5.837600 0.291500
-5.821500 0.252200
-5.805300 0.212500
-5.789200 0.172500
-5.773100 0.132000
-5.756900 0.091200
-5.740800 0.050000
-5.724700 0.009600
-5.708500 0.000000
-5.692400 0.000000
-5.676300 0.002400
-5.660100 0.032400
-5.644000 0.069400
-5.627900 0.106500
-5.611700 0.143600
-5.595600 0.180700
-5.579500 0.218100
-5.563300 0.281200
-5.547200 0.417500
-5.531100 0.646500
-5.514900 0.838800
-5.498800 0.962600
-5.482700 0.997300
-5.466500 1.016900
-5.450400 1.076400
-5.434200 1.125200
-5.418100 1.105200
-5.402000 1.114800
-5.385800 1.116000
-5.369700 1.111300
-5.353600 1.131900
-5.337400 1.150700
-5.321300 1.176000
-5.305200 1.193000
-5.289000 1.197200
-5.272900 1.202400
-5.256800 1.211700
-5.240600 1.222800
-5.224500 1.232700
-5.208400 1.243300
-5.192200 1.257700
-5.176100 1.277100
-5.160000 1.301400
-5.143800 1.322600
-5.127700 1.334500
-5.111600 1.345500
-5.095400 1.358400
-5.079300 1.371500
-5.063200 1.382900
-5.047000 1.406900
-5.030900 1.439700
-5.014700 1.468900
-4.998600 1.491700
-4.982500 1.500800
-4.966300 1.518800
-4.950200 1.552000
-4.934100 1.629600
-4.917900 1.639000
-4.901800 1.687200
-4.885700 1.863900
-4.869500 2.339700
-4.853400 1.968500
-4.837300 1.801900
-4.821100 1.697700
-4.805000 1.619900
-4.788900 1.544600
-4.772700 1.504700
-4.756600 1.485000
-4.740500 1.456200
-4.724300 1.432500
-4.708200 1.423200
-4.692100 1.415800
-4.675900 1.398300
-4.659800 1.361900
-4.643700 1.288200
-4.627500 1.194000
-4.611400 1.136900
-4.595200 1.096000
-4.579100 1.061900
-4.563000 1.028000
-4.546800 0.998000
-4.530700 0.971100
-4.514600 0.947100
-4.498400 0.927100
-4.482300 0.907500
-4.466200 0.887900
-4.450000 0.867900
-4.433900 0.848000
-4.417800 0.828100
-4.401600 0.808100
-4.385500 0.788200
-4.369400 0.767500
-4.353200 0.744700
-4.337100 0.724100
-4.321000 0.706100
-4.304800 0.690100
-4.288700 0.676000
-4.272600 0.660400
-4.256400 0.646000
-4.240300 0.632600
-4.224200 0.622000
-4.208000 0.611700
-4.191900 0.601300
-4.175700 0.590900
-4.159600 0.580400
-4.143500 0.569700
-4.127300 0.558800
-4.111200 0.548000
-4.095100 0.537200
-4.078900 0.526500
-4.062800 0.515800
-4.046700 0.505100
-4.030500 0.493800
-4.014400 0.481900
-3.998300 0.470400
-3.982100 0.459100
-3.966000 0.448200
-3.949900 0.439200
-3.933700 0.430500
-3.917600 0.422000
-3.901500 0.414800
-3.885300 0.407900
-3.869200 0.401000
-3.853100 0.394200
-3.836900 0.387300
-3.820800 0.380500
-3.804700 0.373500
-3.788500 0.366400
-3.772400 0.359300
-3.756200 0.352100
-3.740100 0.345000
-3.724000 0.337900
-3.707800 0.330900
-3.691700 0.323900
-3.675600 0.316900
-3.659400 0.309700
-3.643300 0.302300
-3.627200 0.295000
-3.611000 0.288000
-3.594900 0.281500
-3.578800 0.275700
-3.562600 0.270300
-3.546500 0.265000
-3.530400 0.259700
-3.514200 0.254400
-3.498100 0.249100
-3.482000 0.243900
-3.465800 0.238700
-3.449700 0.233500
-3.433600 0.228300
-3.417400 0.223100
-3.401300 0.217800
-3.385200 0.212600
-3.369000 0.207400
-3.352900 0.202200
-3.336700 0.197100
-3.320600 0.192000
-3.304500 0.186900
-3.288300 0.181900
-3.272200 0.176900
-3.256100 0.172000
-3.239900 0.167100
-3.223800 0.162200
-3.207700 0.157400
-3.191500 0.152600
-3.175400 0.147900
-3.159300 0.143200
-3.143100 0.138500
-3.127000 0.133900
-3.110900 0.129400
-3.094700 0.125100
-3.078600 0.121200
-3.062500 0.117700
-3.046300 0.114000
-3.030200 0.109600
-3.014100 0.104700
-2.997900 0.099100
-2.981800 0.093100
-2.965700 0.087200
-2.949500 0.081400
-2.933400 0.075800
-2.917300 0.070200
-2.901100 0.064900
-2.885000 0.059600
-2.868800 0.055700
-2.852700 0.061400
-2.836600 0.047400
-2.820400 0.030200
-2.804300 0.016900
-2.788200 0.007400
-2.772000 0.001800
-2.755900 0.000000
-2.739800 0.000000
-2.723600 0.000000
-2.707500 0.000000
-2.691400 0.000000
-2.675200 0.000000
-2.659100 0.000000
-2.643000 0.000000
-2.626800 0.000000
-2.610700 0.000000
-2.594600 0.000000
-2.578400 0.000000
-2.562300 0.000000
-2.546200 0.000000
-2.530000 0.000000
-2.513900 0.000000
-2.497800 0.000000
-2.481600 0.000000
-2.465500 0.000000
-2.449300 0.000000
-2.433200 0.000000
-2.417100 0.000000
-2.400900 0.000000
-2.384800 0.000000
-2.368700 0.000000
-2.352500 0.000000
-2.336400 0.000000
-2.320300 0.000000
-2.304100 0.000000
-2.288000 0.000000
-2.271900 0.000000
-2.255700 0.000000
-2.239600 0.000000
-2.223500 0.000000
-2.207300 0.000000
-2.191200 0.000000
-2.175100 0.000000
-2.158900 0.000000
-2.142800 0.000000
-2.126700 0.000000
-2.110500 0.000000
-2.094400 0.000000
-2.078300 0.000000
-2.062100 0.000000
-2.046000 0.000000
-2.029800 0.000000
-2.013700 0.000000
-1.997600 0.000000
-1.981400 0.000000
-1.965300 0.000000
-1.949200 0.000000
-1.933000 0.000000
-1.916900 0.000000
-1.900800 0.000000
-1.884600 0.000000
-1.868500 0.000000
-1.852400 0.000000
-1.836200 0.000000
-1.820100 0.000000
-1.804000 0.000000
-1.787800 0.000000
-1.771700 0.000000
-1.755600 0.000000
-1.739400 0.000000
-1.723300 0.000000
-1.707200 0.000000
-1.691000 0.000000
-1.674900 0.000000
-1.658800 0.000000
-1.642600 0.000000
-1.626500 0.000000
-1.610300 0.000000
-1.594200 0.000000
-1.578100 0.000000
-1.561900 0.000000
-1.545800 0.000000
-1.529700 0.000000
-1.513500 0.000000
-1.497400 0.000000
-1.481300 0.000000
-1.465100 0.000000
-1.449000 0.000000
-1.432900 0.000000
-1.416700 0.000000
-1.400600 0.000000
-1.384500 0.000000
-1.368300 0.000000
-1.352200 0.000000
-1.336100 0.000000
-1.319900 0.000000
-1.303800 0.000000
-1.287700 0.000000
-1.271500 0.000000
-1.255400 0.000000
-1.239300 0.000000
-1.223100 0.000000
-1.207000 0.000000
-1.190800 0.000000
-1.174700 0.000000
-1.158600 0.000000
-1.142400 0.000000
-1.126300 0.000000
-1.110200 0.000000
-1.094000 0.000000
-1.077900 0.000000
-1.061800 0.000000
-1.045600 0.000000
-1.029500 0.000000
-1.013400 0.000000
-0.997200 0.000000
-0.981100 0.000000
-0.965000 0.000000
-0.948800 0.000000
-0.932700 0.000000
-0.916600 0.000000
-0.900400 0.000000
-0.884300 0.000000
-0.868200 0.000000
-0.852000 0.000000
-0.835900 0.000000
-0.819800 0.000000
-0.803600 0.000000
-0.787500 0.000000
-0.771300 0.000000
-0.755200 0.000000
-0.739100 0.000000
-0.722900 0.000000
-0.706800 0.000000
-0.690700 0.000000
-0.674500 0.000000
-0.658400 0.000000
-0.642300 0.000000
-0.626100 0.000000
-0.610000 0.000000
-0.593900 0.000000
-0.577700 0.000000
-0.561600 0.000000
-0.545500 0.000000
-0.529300 0.000000
-0.513200 0.000000
-0.497100 0.000000
-0.480900 0.000000
-0.464800 0.000000
-0.448700 0.000000
-0.432500 0.000000
-0.416400 0.000000
-0.400300 0.000000
-0.384100 0.000000
-0.368000 0.000000
-0.351800 0.000000
-0.335700 0.000000
-0.319600 0.000000
-0.303400 0.000000
-0.287300 0.000000
-0.271200 0.000000
-0.255000 0.000000
-0.238900 0.000000
-0.222800 0.000000
-0.206600 0.000000
-0.190500 0.000000
-0.174400 0.000000
-0.158200 0.000000
-0.142100 0.000000
-0.126000 0.000000
-0.109800 0.000000
-0.093700 0.000000
-0.077600 0.000000
-0.061400 0.000000
-0.045300 0.000000
-0.029200 0.000000
-0.013000 0.000000
0.003100 0.000000
0.019200 0.000000
0.035400 0.000000
0.051500 0.000000
0.067700 0.000000
0.083800 0.000000
0.099900 0.000000
0.116100 0.000000
0.132200 0.000000
0.148300 0.000000
0.164500 0.000000
0.180600 0.000000
0.196700 0.000000
0.212900 0.000000
0.229000 0.000000
0.245100 0.000000
0.261300 0.000000
0.277400 0.000000
0.293500 0.000000
0.309700 0.000000
0.325800 0.000000
0.341900 0.000000
0.358100 0.000000
0.374200 0.000000
0.390300 0.000000
0.406500 0.082300
0.422600 0.179200
0.438700 0.253700
0.454900 0.337800
0.471000 0.397500
0.487200 0.386500
0.503300 0.413800
0.519400 0.443200
0.535600 0.474800
0.551700 0.497900
0.567800 0.523800
0.584000 0.560800
0.600100 0.584400
0.616200 0.585800
0.632400 0.602800
0.648500 0.618400
0.664600 0.633300
0.680800 0.650100
0.696900 0.666300
0.713000 0.681100
0.729200 0.698600
0.745300 0.721900
0.761400 0.742800
0.777600 0.766200
0.793700 0.792000
0.809800 0.818800
0.826000 0.846800
0.842100 0.882100
0.858200 0.925900
0.874400 0.976000
0.890500 1.019100
0.906700 1.037000
0.922800 1.025900
0.938900 1.003200
0.955100 0.979800
0.971200 0.966200
0.987300 0.957800
1.003500 0.951000
1.019600 0.945200
1.035700 0.942400
1.051900 0.940700
1.068000 0.937000
1.084100 0.933900
1.100300 0.923400
1.116400 0.912100
1.132500 0.917500
1.148700 0.938000
1.164800 0.966700
1.180900 0.982300
1.197100 0.984600
1.213200 0.990100
1.229300 0.998100
1.245500 1.007400
1.261600 1.017000
1.277700 1.026300
1.293900 1.034700
1.310000 1.042700
1.326200 1.051100
1.342300 1.059400
1.358400 1.067100
1.374600 1.074200
1.390700 1.078700
1.406800 1.086300
1.423000 1.095400
1.439100 1.104600
1.455200 1.113300
1.471400 1.124700
1.487500 1.137000
1.503600 1.148900
1.519800 1.159200
1.535900 1.168500
1.552000 1.177600
1.568200 1.187700
1.584300 1.201900
1.600400 1.214900
1.616600 1.227400
1.632700 1.239400
1.648800 1.252600
1.665000 1.267700
1.681100 1.282600
1.697200 1.296600
1.713400 1.310000
1.729500 1.323700
1.745700 1.338100
1.761800 1.353600
1.777900 1.370000
1.794100 1.387100
1.810200 1.404700
1.826300 1.423700
1.842500 1.444100
1.858600 1.465300
1.874700 1.485000
1.890900 1.504700
1.907000 1.525700
1.923100 1.553500
1.939300 1.582900
1.955400 1.641900
1.971500 1.757800
1.987700 1.820000
2.003800 1.838500
2.019900 1.861300
2.036100 1.860200
2.052200 1.847400
2.068300 1.830200
2.084500 1.854600
2.100600 1.875700
2.116700 1.882500
2.132900 1.881700
2.149000 1.881300
2.165200 1.880500
2.181300 1.878600
2.197400 1.870800
2.213600 1.864400
2.229700 1.853000
2.245800 1.846000
2.262000 1.844300
2.278100 1.843800
2.294200 1.840100
2.310400 1.839100
2.326500 1.840500
2.342600 1.844100
2.358800 1.847400
2.374900 1.849400
2.391000 1.852100
2.407200 1.852800
2.423300 1.849200
2.439400 1.843200
2.455600 1.837300
2.471700 1.834300
2.487800 1.830500
2.504000 1.824400
2.520100 1.819600
2.536200 1.816700
2.552400 1.815500
2.568500 1.814200
2.584700 1.812500
2.600800 1.810600
2.616900 1.808700
2.633100 1.807100
2.649200 1.806800
2.665300 1.807600
2.681500 1.808500
2.697600 1.810000
2.713700 1.811600
2.729900 1.814000
2.746000 1.816900
2.762100 1.818300
2.778300 1.818500
2.794400 1.817100
2.810500 1.815300
2.826700 1.814000
2.842800 1.813200
2.858900 1.814000
2.875100 1.819800
2.891200 1.823500
2.907300 1.825600
2.923500 1.826800
2.939600 1.827400
2.955700 1.829500
2.971900 1.832200
2.988000 1.834700
3.004200 1.834400
3.020300 1.831000
3.036400 1.830900
3.052600 1.833400
3.068700 1.836900
3.084800 1.840400
3.101000 1.840700
3.117100 1.836900
3.133200 1.832200
3.149400 1.828600
3.165500 1.828700
3.181600 1.831500
3.197800 1.835600
3.213900 1.839700
3.230000 1.840700
3.246200 1.840600
3.262300 1.841600
3.278400 1.843400
3.294600 1.847200
3.310700 1.856700
3.326800 1.874300
3.343000 1.878900
3.359100 1.879700
3.375200 1.880400
3.391400 1.878000
3.407500 1.878200
3.423700 1.881600
3.439800 1.890900
3.455900 1.902500
3.472100 1.913500
3.488200 1.927900
3.504300 1.923600
3.520500 1.886100
3.536600 1.918400
3.552700 1.961800
3.568900 1.996800
3.585000 2.034200
3.601100 2.081600
3.617300 2.069500
3.633400 1.993200
3.649500 1.905000
3.665700 1.820000
3.681800 1.787100
3.697900 1.772900
3.714100 1.754900
3.730200 1.713600
3.746300 1.688200
3.762500 1.667600
3.778600 1.649000
3.794700 1.635300
3.810900 1.625500
3.827000 1.617000
3.843200 1.608200
3.859300 1.607100
3.875400 1.611800
3.891600 1.624900
3.907700 1.638400
3.923800 1.641100
3.940000 1.646200
3.956100 1.664500
3.972200 1.687700
3.988400 1.706000
4.004500 1.712600
4.020600 1.707000
4.036800 1.691300
4.052900 1.678700
4.069000 1.655600
4.085200 1.623800
4.101300 1.592600
4.117400 1.549100
4.133600 1.492800
4.149700 1.442800
4.165800 1.390200
4.182000 1.330900
4.198100 1.285800
4.214200 1.246900
4.230400 1.205800
4.246500 1.200500
4.262700 1.208900
4.278800 1.184700
4.294900 1.174000
4.311100 1.162100
4.327200 1.134500
4.343300 1.097800
4.359500 1.057900
4.375600 1.017000
4.391700 0.979700
4.407900 0.956400
4.424000 0.939100
4.440100 0.930500
4.456300 0.916100
4.472400 0.890200
4.488500 0.864300
4.504700 0.850700
4.520800 0.826500
4.536900 0.788400
4.553100 0.735100
4.569200 0.669900
4.585300 0.611500
4.601500 0.602600
4.617600 0.636800
4.633700 0.585000
4.649900 0.503900
4.666000 0.379100
4.682200 0.257800
4.698300 0.137600
4.714400 0.051500
4.730600 0.016900
4.746700 0.009500
4.762800 0.008200
4.779000 0.009900
4.795100 0.012700
4.811200 0.016300
4.827400 0.020800
4.843500 0.026300
4.859600 0.032900
4.875800 0.040600
4.891900 0.049200
4.908000 0.058100
4.924200 0.067600
4.940300 0.077900
4.956400 0.088900
4.972600 0.100800
4.988700 0.114300
5.004800 0.129400
5.021000 0.145900
5.037100 0.164100
5.053200 0.184500
5.069400 0.210400
5.085500 0.249800
5.101700 0.347900
5.117800 0.346800
5.133900 0.354100
5.150100 0.389400
5.166200 0.417300
5.182300 0.451400
5.198500 0.497000
5.214600 0.550500
5.230700 0.646600
5.246900 0.813100
5.263000 0.821700
5.279100 0.820600
5.295300 0.788900
5.311400 0.731000
5.327500 0.684000
5.343700 0.687300
5.359800 0.700400
5.375900 0.721200
5.392100 0.749000
5.408200 0.793400
5.424300 0.855300
5.440500 0.931200
5.456600 1.005300
5.472700 1.082900
5.488900 1.159400
5.505000 1.203100
5.521200 1.273700
5.537300 1.344300
5.553400 1.405600
5.569600 1.462200
5.585700 1.536200
5.601800 1.613600
5.618000 1.690400
5.634100 1.765700
5.650200 1.832100
5.666400 1.876300
5.682500 1.897200
5.698600 1.900400
5.714800 1.884400
5.730900 1.855600
5.747000 1.814000
5.763200 1.761400
5.779300 1.706500
5.795400 1.651900
5.811600 1.600800
5.827700 1.555200
5.843800 1.514700
5.860000 1.478600
5.876100 1.446200
5.892200 1.417300
5.908400 1.391400
5.924500 1.371100
5.940700 1.354700
5.956800 1.340100
5.972900 1.329500
5.989100 1.322400
6.005200 1.318100
6.021300 1.318600
6.037500 1.319500
6.053600 1.320100
6.069700 1.319900
6.085900 1.319100
6.102000 1.318000
6.118100 1.316900
6.134300 1.315700
6.150400 1.314600
6.166500 1.313300
6.182700 1.311800
6.198800 1.310300
6.214900 1.309000
6.231100 1.307900
6.247200 1.307000
6.263300 1.306200
6.279500 1.305500
6.295600 1.304900
6.311700 1.304500
6.327900 1.304100
6.344000 1.303800
6.360200 1.303400
6.376300 1.303000
6.392400 1.302600
6.408600 1.301900
6.424700 1.300300
6.440800 1.298500
6.457000 1.295900
6.473100 1.291900
6.489200 1.287300
6.505400 1.282500
6.521500 1.278700
6.537600 1.276400
6.553800 1.274800
6.569900 1.273700
6.586000 1.273000
6.602200 1.272600
6.618300 1.272600
6.634400 1.272900
6.650600 1.273500
6.666700 1.274400
6.682800 1.275600
6.699000 1.277100
6.715100 1.278700
6.731200 1.280900
6.747400 1.283300
6.763500 1.286200
6.779700 1.289300
6.795800 1.292600
6.811900 1.296100
6.828100 1.300100
6.844200 1.304400
6.860300 1.309100
6.876500 1.313900
6.892600 1.319000
6.908700 1.324200
6.924900 1.329800
6.941000 1.335900
6.957100 1.342800
6.973300 1.350300
6.989400 1.360700
7.005500 1.369300
7.021700 1.377400
7.037800 1.385000
7.053900 1.392500
7.070100 1.399000
7.086200 1.404700
7.102300 1.409600
7.118500 1.410600
7.134600 1.413800
7.150700 1.421500
7.166900 1.433200
7.183000 1.448300
7.199200 1.499900
7.215300 1.553400
7.231400 1.617900
7.247600 1.693500
7.263700 1.779000
7.279800 1.878700
7.296000 2.003400
7.312100 2.130900
7.328200 2.260800
7.344400 2.282100
7.360500 2.252900
7.376600 2.249800
7.392800 2.304300
7.408900 2.338900
7.425000 2.174600
7.441200 1.842800
7.457300 1.706200
7.473400 1.636500
7.489600 1.584300
7.505700 1.548000
7.521800 1.466900
7.538000 1.409200
7.554100 1.367400
7.570200 1.337500
7.586400 1.333400
7.602500 1.303000
7.618700 1.263500
7.634800 1.258700
7.650900 1.257600
7.667100 1.262400
7.683200 1.342400
7.699300 1.334900
7.715500 1.306400
7.731600 1.266600
7.747700 1.223800
7.763900 1.188600
7.780000 1.162700
7.796100 1.153100
7.812300 1.148500
7.828400 1.149300
7.844500 1.162800
7.860700 1.190200
7.876800 1.217500
7.892900 1.240500
7.909100 1.252100
7.925200 1.259400
7.941300 1.261800
7.957500 1.247400
7.973600 1.231000
7.989700 1.221100
8.005900 1.218100
8.022000 1.219300
8.038100 1.228900
8.054300 1.244000
8.070400 1.264700
8.086600 1.285600
8.102700 1.309400
8.118800 1.324900
8.135000 1.333000
8.151100 1.341600
8.167200 1.349400
8.183400 1.357800
8.199500 1.366300
8.215600 1.374900
8.231800 1.385800
8.247900 1.395900
8.264000 1.405000
8.280200 1.411900
8.296300 1.413700
8.312400 1.405900
8.328600 1.407800
8.344700 1.420500
8.360800 1.428700
8.377000 1.436000
8.393100 1.458100
8.409200 1.472000
8.425400 1.494100
8.441500 1.531500
8.457600 1.558600
8.473800 1.575600
8.489900 1.618800
8.506100 1.665600
8.522200 1.680400
8.538300 1.631800
8.554500 1.583700
8.570600 1.538400
8.586700 1.492900
8.602900 1.446700
8.619000 1.400200
8.635100 1.357500
8.651300 1.319000
8.667400 1.283800
8.683500 1.252700
8.699700 1.223400
8.715800 1.195900
8.731900 1.169300
8.748100 1.144400
8.764200 1.122000
8.780300 1.101800
8.796500 1.082900
8.812600 1.065500
8.828700 1.049000
8.844900 1.032700
8.861000 1.016500
8.877100 1.000400
8.893300 0.985200
8.909400 0.971100
8.925600 0.958000
8.941700 0.945900
8.957800 0.934300
8.974000 0.922700
8.990100 0.911100
9.006200 0.899900
9.022400 0.888800
9.038500 0.878400
9.054600 0.868800
9.070800 0.859500
9.086900 0.850500
9.103000 0.841800
9.119200 0.833500
9.135300 0.825300
9.151400 0.817000
9.167600 0.808200
9.183700 0.799700
9.199800 0.796400
9.216000 0.803300
9.232100 0.816500
9.248200 0.835100
9.264400 0.860600
9.280500 0.901600
9.296600 0.960300
9.312800 1.048800
9.328900 1.185600
9.345100 1.378800
9.361200 1.591800
9.377300 1.556800
9.393500 1.567300
9.409600 1.608400
9.425700 1.654400
9.441900 1.704600
9.458000 1.762200
9.474100 1.805300
9.490300 1.847700
9.506400 1.883500
9.522500 1.929500
9.538700 1.973100
9.554800 1.925100
9.570900 1.931000
9.587100 1.951300
9.603200 1.974900
9.619300 1.983600
9.635500 1.990400
9.651600 1.999500
9.667700 2.008500
9.683900 2.016400
9.700000 2.012700
9.716100 2.019900
9.732300 2.033100
9.748400 2.045200
9.764600 2.050400
9.780700 2.056900
9.796800 2.070300
9.813000 2.084000
9.829100 2.090600
9.845200 2.086900
9.861400 2.074400
9.877500 2.046300
9.893600 1.987700
9.909800 1.902200
9.925900 1.832600
9.942000 1.775200
9.958200 1.724900
9.974300 1.689400
9.990400 1.672100
10.006600 1.605300
10.022700 1.544100
10.038800 1.489900
10.055000 1.441500
10.071100 1.397800
10.087200 1.357800
10.103400 1.326800
10.119500 1.312500
10.135600 1.301800
10.151800 1.290300
10.167900 1.281500
10.184100 1.277300
10.200200 1.260900
10.216300 1.252800
10.232500 1.246400
10.248600 1.244400
10.264700 1.254300
10.280900 1.277800
10.297000 1.306100
10.313100 1.329200
10.329300 1.343000
10.345400 1.360600
10.361500 1.387800
10.377700 1.398900
10.393800 1.377300
10.409900 1.376200
10.426100 1.509500
10.442200 1.524700
10.458300 1.540200
10.474500 1.559500
10.490600 1.588400
10.506700 1.613300
10.522900 1.614100
10.539000 1.598800
10.555100 1.572800
10.571300 1.550800
10.587400 1.527400
10.603600 1.480200
10.619700 1.438600
10.635800 1.394100
10.652000 1.357600
10.668100 1.324200
10.684200 1.294600
10.700400 1.269400
10.716500 1.238600
10.732600 1.209000
10.748800 1.154100
10.764900 1.097000
10.781000 1.063400
10.797200 1.039500
10.813300 1.018200
10.829400 0.999100
10.845600 0.981000
10.861700 0.962700
10.877800 0.945500
10.894000 0.931300
10.910100 0.920700
10.926200 0.915900
10.942400 0.927200
10.958500 0.952100
10.974600 0.984000
10.990800 1.010000
11.006900 1.021500
11.023100 1.025500
11.039200 1.029400
11.055300 1.034800
11.071500 1.043800
11.087600 1.051500
11.103700 1.054300
11.119900 1.050900
11.136000 1.042700
11.152100 1.030100
11.168300 1.018700
11.184400 1.006100
11.200500 0.992400
11.216700 0.981300
11.232800 0.981100
11.248900 0.986800
11.265100 0.995100
11.281200 1.004500
11.297300 1.014200
11.313500 1.025900
11.329600 1.040100
11.345700 1.054700
11.361900 1.071200
11.378000 1.088300
11.394100 1.105800
11.410300 1.125200
11.426400 1.150600
11.442600 1.184200
11.458700 1.226400
11.474800 1.305400
11.491000 1.240500
11.507100 1.226200
11.523200 1.231300
11.539400 1.241700
11.555500 1.243400
11.571600 1.251100
11.587800 1.260800
11.603900 1.269200
11.620000 1.274800
11.636200 1.302200
11.652300 1.345500
11.668400 1.332100
11.684600 1.343100
11.700700 1.353000
11.716800 1.359200
11.733000 1.361900
11.749100 1.360400
11.765200 1.358500
11.781400 1.355900
11.797500 1.352400
11.813600 1.355100
11.829800 1.355500
11.845900 1.335300
11.862100 1.327500
11.878200 1.326400
11.894300 1.326700
11.910500 1.328600
11.926600 1.333000
11.942700 1.338600
11.958900 1.346900
11.975000 1.354800
11.991100 1.358200
12.007300 1.360600
12.023400 1.362000
12.039500 1.350200
12.055700 1.338700
12.071800 1.340800
12.087900 1.344100
12.104100 1.346400
12.120200 1.347800
12.136300 1.348700
12.152500 1.348800
12.168600 1.351400
12.184700 1.354500
12.200900 1.356100
12.217000 1.360500
12.233100 1.365900
12.249300 1.372300
12.265400 1.379800
12.281600 1.388300
12.297700 1.398000
12.313800 1.409000
12.330000 1.419200
12.346100 1.429000
12.362200 1.441700
12.378400 1.463000
12.394500 1.486700
12.410600 1.525800
12.426800 1.563700
12.442900 1.614600
12.459000 1.644600
12.475200 1.679300
12.491300 1.713600
12.507400 1.734700
12.523600 1.766800
12.539700 1.807500
12.555800 1.836500
12.572000 1.862700
12.588100 1.898900
12.604200 1.947400
12.620400 1.949800
12.636500 1.951600
12.652600 1.939500
12.668800 1.917500
12.684900 1.904800
12.701100 1.887400
12.717200 1.878800
12.733300 1.867000
12.749500 1.851100
12.765600 1.830400
12.781700 1.813800
12.797900 1.800900
12.814000 1.789500
12.830100 1.782200
12.846300 1.782100
12.862400 1.788900
12.878500 1.797900
12.894700 1.808700
12.910800 1.818900
12.926900 1.827900
12.943100 1.836400
12.959200 1.845600
12.975300 1.848000
12.991500 1.847300
13.007600 1.849600
13.023700 1.854500
13.039900 1.859900
13.056000 1.864900
13.072100 1.869000
13.088300 1.872200
13.104400 1.874400
13.120600 1.876700
13.136700 1.879500
13.152800 1.883900
13.169000 1.885600
13.185100 1.888900
13.201200 1.888100
13.217400 1.882500
13.233500 1.904700
13.249600 1.927000
13.265800 1.942500
13.281900 1.955900
13.298000 1.969100
13.314200 1.980000
13.330300 1.988500
13.346400 1.999200
13.362600 2.003000
13.378700 2.001800
13.394800 1.996300
13.411000 1.984900
13.427100 1.976500
13.443200 1.975200
13.459400 1.977400
13.475500 1.984500
13.491600 1.996300
13.507800 2.005400
13.523900 2.018100
13.540100 2.031200
13.556200 2.047900
13.572300 2.026600
13.588500 2.011400
13.604600 2.006300
13.620700 1.999300
13.636900 2.006000
13.653000 2.013400
13.669100 2.022100
13.685300 2.032700
13.701400 2.046000
13.717500 2.081500
13.733700 2.114000
13.749800 2.123100
13.765900 2.150600
13.782100 2.202000
13.798200 2.237500
13.814300 2.250900
13.830500 2.245900
13.846600 2.262500
13.862700 2.276800
13.878900 2.279100
13.895000 2.295700
13.911100 2.323900
13.927300 2.355100
13.943400 2.392800
13.959600 2.421200
13.975700 2.476200
13.991800 2.522100
14.008000 2.545700
14.024100 2.585100
14.040200 2.627100
14.056400 2.689800
14.072500 2.786300
14.088600 2.850500
14.104800 2.955000
14.120900 3.043200
14.137000 3.083100
14.153200 2.978600
14.169300 2.844700
14.185400 2.732500
14.201600 2.634900
14.217700 2.549100
14.233800 2.457500
14.250000 2.373700
14.266100 2.316200
14.282200 2.273800
14.298400 2.228400
14.314500 2.180900
14.330600 2.167300
14.346800 2.163800
14.362900 2.146000
14.379100 2.125000
14.395200 2.107100
14.411300 2.104000
14.427500 2.111200
14.443600 2.132600
14.459700 2.155900
14.475900 2.184100
14.492000 2.197700
14.508100 2.221000
14.524300 2.250900
14.540400 2.290600
14.556500 2.345200
14.572700 2.427200
14.588800 2.515300
14.604900 2.604700
14.621100 2.674400
14.637200 2.691700
14.653300 2.725600
14.669500 2.741100
14.685600 2.750900
14.701700 2.756100
14.717900 2.760600
14.734000 2.779100
14.750100 2.779400
14.766300 2.755200
14.782400 2.711800
14.798600 2.637500
14.814700 2.561000
14.830800 2.521000
14.847000 2.438400
14.863100 2.331100
14.879200 2.159100
14.895400 1.996000
14.911500 1.881200
14.927600 1.783700
14.943800 1.725400
14.959900 1.685700
14.976000 1.651700
14.992200 1.604800
15.008300 1.567400
15.024400 1.547900
15.040600 1.534700
15.056700 1.522300
15.072800 1.515300
15.089000 1.539300
15.105100 1.598500
15.121200 1.638100
15.137400 1.662700
15.153500 1.680700
15.169600 1.696400
15.185800 1.706900
15.201900 1.724700
15.218100 1.751300
15.234200 1.783100
15.250300 1.818000
15.266500 1.856300
15.282600 1.903000
15.298700 1.965200
15.314900 2.025300
15.331000 2.037500
15.347100 2.072400
15.363300 2.102600
15.379400 2.133900
15.395500 2.151600
15.411700 2.137800
15.427800 2.124700
15.443900 2.094900
15.460100 2.051500
15.476200 2.020900
15.492300 2.017000
15.508500 2.019700
15.524600 2.037100
15.540700 2.064900
15.556900 2.103900
15.573000 2.155000
15.589100 2.204600
15.605300 2.265500
15.621400 2.244300
15.637600 2.264800
15.653700 2.294900
15.669800 2.326300
15.686000 2.352500
15.702100 2.349600
15.718200 2.338900
15.734400 2.375000
15.750500 2.383000
15.766600 2.407000
15.782800 2.427300
15.798900 2.450000
15.815000 2.469200
15.831200 2.456700
15.847300 2.466200
15.863400 2.461000
15.879600 2.460000
15.895700 2.462300
15.911800 2.469600
15.928000 2.482400
15.944100 2.436100
15.960200 2.445600
15.976400 2.424000
15.992500 2.411100
16.008600 2.401200
16.024800 2.395000
16.040900 2.397300
16.057100 2.402200
16.073200 2.412500
16.089300 2.433500
16.105500 2.473100
16.121600 2.498500
16.137700 2.494000
16.153900 2.472700
16.170000 2.463100
16.186100 2.425500
16.202300 2.416100
16.218400 2.418000
16.234500 2.411400
16.250700 2.382700
16.266800 2.334300
16.282900 2.285900
16.299100 2.262500
16.315200 2.242400
16.331300 2.214100
16.347500 2.182500
16.363600 2.139700
16.379700 2.090800
16.395900 2.053300
16.412000 2.016500
16.428100 1.967700
16.444300 1.943200
16.460400 1.923700
16.476600 1.913600
16.492700 1.905300
16.508800 1.897900
16.525000 1.894000
16.541100 1.892400
16.557200 1.898400
16.573400 1.920000
16.589500 1.955600
16.605600 1.993400
16.621800 2.037100
16.637900 2.072100
16.654000 2.090400
16.670200 2.097900
16.686300 2.105300
16.702400 2.112200
16.718600 2.127300
16.734700 2.159700
16.750800 2.205300
16.767000 2.248700
16.783100 2.280500
16.799200 2.288400
16.815400 2.303400
16.831500 2.317200
16.847600 2.309600
16.863800 2.305500
16.879900 2.299200
16.896100 2.304400
16.912200 2.314800
16.928300 2.328700
16.944500 2.332100
16.960600 2.320600
16.976700 2.340500
16.992900 2.360100
17.009000 2.353800
17.025100 2.366900
17.041300 2.384300
17.057400 2.409700
17.073500 2.447300
17.089700 2.484500
17.105800 2.510400
17.121900 2.529100
17.138100 2.537000
17.154200 2.489700
17.170300 2.471500
17.186500 2.458900
17.202600 2.446800
17.218700 2.430500
17.234900 2.406400
17.251000 2.382700
17.267100 2.353500
17.283300 2.333100
17.299400 2.293900
17.315600 2.257100
17.331700 2.227400
17.347800 2.199500
17.364000 2.172500
17.380100 2.141300
17.396200 2.116700
17.412400 2.097800
17.428500 2.082600
17.444600 2.078600
17.460800 2.080700
17.476900 2.068400
17.493000 2.034300
17.509200 1.970600
17.525300 1.911100
17.541400 1.875400
17.557600 1.854200
17.573700 1.810600
17.589800 1.788200
17.606000 1.765000
17.622100 1.743000
17.638200 1.723100
17.654400 1.697400
17.670500 1.674700
17.686600 1.658800
17.702800 1.643400
17.718900 1.626000
17.735100 1.610800
17.751200 1.597800
17.767300 1.588400
17.783500 1.575800
17.799600 1.556800
17.815700 1.531400
17.831900 1.500000
17.848000 1.471500
17.864100 1.439700
17.880300 1.400500
17.896400 1.354300
17.912500 1.309100
17.928700 1.265700
17.944800 1.226700
17.960900 1.202900
17.977100 1.165600
17.993200 1.133400
18.009300 1.082500
18.025500 1.033400
18.041600 0.975600
18.057700 0.921300
18.073900 0.886300
18.090000 0.855200
18.106100 0.823000
18.122300 0.797000
18.138400 0.774700
18.154600 0.754700
18.170700 0.737300
18.186800 0.719600
18.203000 0.701600
18.219100 0.679800
18.235200 0.656100
18.251400 0.635700
18.267500 0.617200
18.283600 0.591000
18.299800 0.568300
18.315900 0.559700
18.332000 0.526400
18.348200 0.498000
18.364300 0.473300
18.380400 0.448400
18.396600 0.422900
18.412700 0.396900
18.428800 0.370400
18.445000 0.344000
18.461100 0.317700
18.477200 0.298900
18.493400 0.281800
18.509500 0.264500
18.525600 0.246800
18.541800 0.229700
18.557900 0.212100
18.574100 0.195100
18.590200 0.179200
18.606300 0.164100
18.622500 0.149800
18.638600 0.136300
18.654700 0.123200
18.670900 0.110800
18.687000 0.099200
18.703100 0.089500
18.719300 0.081300
18.735400 0.074500
18.751500 0.068500
18.767700 0.063300
18.783800 0.058800
18.799900 0.055000
18.816100 0.053000
18.832200 0.051600
18.848300 0.050600
18.864500 0.049800
18.880600 0.049300
18.896700 0.048900
18.912900 0.048400
18.929000 0.047900
18.945100 0.047500
18.961300 0.047000
18.977400 0.046600
18.993500 0.046100
19.009700 0.045700
19.025800 0.045200
19.042000 0.044800
19.058100 0.044300
19.074200 0.043900
19.090400 0.043400
19.106500 0.043000
19.122600 0.042600
19.138800 0.042100
19.154900 0.041700
19.171000 0.041300
19.187200 0.040800
19.203300 0.040400
19.219400 0.040000
19.235600 0.039600
19.251700 0.039300
19.267800 0.038900
19.284000 0.038500
19.300100 0.038100
19.316200 0.037700
19.332400 0.037400
19.348500 0.037000
19.364600 0.036700
19.380800 0.036400
19.396900 0.036100
19.413000 0.035800
19.429200 0.035500
19.445300 0.035200
19.461500 0.034800
19.477600 0.034400
19.493700 0.034000
19.509900 0.033600
19.526000 0.033200
19.542100 0.032800
19.558300 0.032400
19.574400 0.031900
19.590500 0.031500
19.606700 0.031100
19.622800 0.030700
19.638900 0.030300
19.655100 0.029900
19.671200 0.029600
19.687300 0.029200
19.703500 0.028800
19.719600 0.028400
19.735700 0.028000
19.751900 0.027600
19.768000 0.027300
19.784100 0.026900
19.800300 0.026500
19.816400 0.026100
19.832500 0.025800
19.848700 0.025400
19.864800 0.025000
19.881000 0.024700
19.897100 0.024300
19.913200 0.024000
19.929400 0.023600
19.945500 0.023300
19.961600 0.022900
19.977800 0.022600
19.993900 0.022300
20.010000 0.021900
20.026200 0.021600
20.042300 0.021200
20.058400 0.020900
20.074600 0.020600
20.090700 0.020300
20.106800 0.019900
20.123000 0.019600
20.139100 0.019300
20.155200 0.019000
20.171400 0.018700
20.187500 0.018400
20.203600 0.018100
20.219800 0.017800
20.235900 0.017500
20.252000 0.017200
20.268200 0.016900
20.284300 0.016600
20.300500 0.016300
20.316600 0.016000
20.332700 0.015700
20.348900 0.015400
20.365000 0.015100
20.381100 0.014900
20.397300 0.014600
20.413400 0.014300
20.429500 0.014100
20.445700 0.013800
20.461800 0.013500
20.477900 0.014900
20.494100 0.018700
20.510200 0.022800
20.526300 0.026100
20.542500 0.028400
20.558600 0.029700
20.574700 0.029200
20.590900 0.027400
20.607000 0.024300
20.623100 0.019900
20.639300 0.010800
20.655400 0.008900
20.671500 0.008400
20.687700 0.008000
20.703800 0.007600
20.720000 0.007200
20.736100 0.006800
20.752200 0.006500
20.768400 0.006100
20.784500 0.005700
20.800600 0.005400
20.816800 0.005100
20.832900 0.004800
20.849000 0.004400
20.865200 0.004100
20.881300 0.003900
20.897400 0.003600
20.913600 0.003300
20.929700 0.003000
20.945800 0.002800
20.962000 0.002600
20.978100 0.002300
20.994200 0.002100
21.010400 0.001900
21.026500 0.001700
21.042600 0.001500
21.058800 0.001400
21.074900 0.001200
21.091000 0.001000
21.107200 0.000900
21.123300 0.000800
21.139500 0.000600
21.155600 0.000500
21.171700 0.000400
21.187900 0.000300
21.204000 0.000300
21.220100 0.000200
21.236300 0.000100
21.252400 0.000100
21.268500 0.000100
21.284700 0.000000
21.300800 0.000000
21.316900 0.000000
21.333100 0.000000
21.349200 0.000000
21.365300 0.000000
21.381500 0.000000
21.397600 0.000000
21.413700 0.000000
21.429900 0.000000
21.446000 0.000000
21.462100 0.000000
21.478300 0.000000
21.494400 0.000000
21.510500 0.000000
21.526700 0.000000
21.542800 0.000000
21.559000 0.000000
21.575100 0.000000
21.591200 0.000000
21.607400 0.000000
21.623500 0.000000
21.639600 0.000000
21.655800 0.000000
21.671900 0.000000
21.688000 0.000000
21.704200 0.000000
21.720300 0.000000
21.736400 0.000000
21.752600 0.000000
21.768700 0.000000
21.784800 0.000000
21.801000 0.000000
21.817100 0.000000
21.833200 0.000000
21.849400 0.000000
21.865500 0.000000
21.881600 0.000000
21.897800 0.000000
21.913900 0.000000
21.930000 0.000000
21.946200 0.000000
21.962300 0.000000
21.978500 0.000000
21.994600 0.000000
22.010700 0.000000
22.026900 0.000000
22.043000 0.000000
22.059100 0.000000
22.075300 0.000000
22.091400 0.000000
22.107500 0.000000
22.123700 0.000000
22.139800 0.000000
22.155900 0.000000
22.172100 0.000000
22.188200 0.000000
22.204300 0.000000
22.220500 0.000000
22.236600 0.000000
22.252700 0.000000
22.268900 0.000000
22.285000 0.000000
22.301100 0.000000
22.317300 0.000000
22.333400 0.000000
22.349500 0.000000
22.365700 0.000000
22.381800 0.000000
22.398000 0.000000
22.414100 0.000000
22.430200 0.000000
22.446400 0.000000
22.462500 0.000000
22.478600 0.000000
22.494800 0.000000
22.510900 0.000000
22.527000 0.000000
22.543200 0.000000
22.559300 0.000000
22.575400 0.000000
22.591600 0.000000
22.607700 0.000000
22.623800 0.000000
22.640000 0.000000
22.656100 0.000000
22.672200 0.000000
22.688400 0.000000
22.704500 0.000000
22.720600 0.000000
22.736800 0.000000
22.752900 0.000000
22.769000 0.000000
22.785200 0.000000
e
