set title 'mp-567505 - Density of States'
set xlabel 'Energy (eV)'
set ylabel 'DOS (states/eV)'
set grid
set xrange [-10:10]
set yrange [0:18.432]
set xzeroaxis lt -1
set terminal png size 800,600
set output 'mp-567505_dos_gnuplot.png'
plot '-' using 1:2 with lines title 'DOS'
-8.999700 0.000000
-8.981500 0.000000
-8.963300 0.000000
-8.945100 0.000000
-8.926900 0.000000
-8.908700 0.000000
-8.890500 0.000000
-8.872300 0.000000
-8.854100 0.000000
-8.835900 0.000000
-8.817700 0.000000
-8.799600 0.000000
-8.781400 0.000000
-8.763200 0.000000
-8.745000 0.000000
-8.726800 0.000000
-8.708600 0.000000
-8.690400 0.000000
-8.672200 0.000000
-8.654000 0.000000
-8.635800 0.000000
-8.617600 0.000000
-8.599400 0.000000
-8.581200 0.000000
-8.563000 0.000000
-8.544800 0.000000
-8.526600 0.000000
-8.508400 0.000000
-8.490200 0.000000
-8.472000 0.000000
-8.453900 0.000000
-8.435700 0.000000
-8.417500 0.000000
-8.399300 0.000000
-8.381100 0.000000
-8.362900 0.000000
-8.344700 0.000000
-8.326500 0.000000
-8.308300 0.000000
-8.290100 0.000000
-8.271900 0.000000
-8.253700 0.000000
-8.235500 0.000000
-8.217300 0.000000
-8.199100 0.000000
-8.180900 0.000000
-8.162700 0.000000
-8.144500 0.000000
-8.126400 0.000000
-8.108200 0.000000
-8.090000 0.000000
-8.071800 0.000000
-8.053600 0.000000
-8.035400 0.000000
-8.017200 0.000000
-7.999000 0.000000
-7.980800 0.000000
-7.962600 0.000000
-7.944400 0.000000
-7.926200 0.000000
-7.908000 0.000000
-7.889800 0.000000
-7.871600 0.000000
-7.853400 0.000000
-7.835200 0.000000
-7.817000 0.000000
-7.798800 0.000000
-7.780700 0.000000
-7.762500 0.000000
-7.744300 0.000000
-7.726100 0.000000
-7.707900 0.000000
-7.689700 0.000000
-7.671500 0.000000
-7.653300 0.000000
-7.635100 0.000000
-7.616900 0.000000
-7.598700 0.000000
-7.580500 0.000000
-7.562300 0.000000
-7.544100 0.000000
-7.525900 0.000000
-7.507700 0.000000
-7.489500 0.000000
-7.471300 0.000000
-7.453100 0.000000
-7.435000 0.000000
-7.416800 0.000000
-7.398600 0.000000
-7.380400 0.000000
-7.362200 0.000000
-7.344000 0.005500
-7.325800 0.065700
-7.307600 0.125800
-7.289400 0.186000
-7.271200 0.246200
-7.253000 0.306400
-7.234800 0.366600
-7.216600 0.426800
-7.198400 0.487000
-7.180200 0.547100
-7.162000 0.607300
-7.143800 0.667500
-7.125600 0.356300
-7.107400 0.361500
-7.089300 0.366800
-7.071100 0.372000
-7.052900 0.421500
-7.034700 0.488000
-7.016500 0.573900
-6.998300 0.701300
-6.980100 0.828700
-6.961900 0.956100
-6.943700 1.083500
-6.925500 1.210900
-6.907300 1.338300
-6.889100 1.465700
-6.870900 1.593100
-6.852700 1.361000
-6.834500 1.432500
-6.816300 1.504000
-6.798100 1.185300
-6.779900 1.201200
-6.761700 1.217000
-6.743600 1.232900
-6.725400 1.248700
-6.707200 1.259700
-6.689000 1.264700
-6.670800 1.269700
-6.652600 1.274700
-6.634400 1.279700
-6.616200 1.284700
-6.598000 1.289700
-6.579800 1.294700
-6.561600 1.299700
-6.543400 1.304700
-6.525200 1.309700
-6.507000 1.315500
-6.488800 1.328300
-6.470600 1.341000
-6.452400 1.353700
-6.434200 1.361800
-6.416100 1.363500
-6.397900 1.365300
-6.379700 1.357000
-6.361500 1.347700
-6.343300 1.338500
-6.325100 1.329300
-6.306900 1.320100
-6.288700 1.310900
-6.270500 1.301600
-6.252300 1.292400
-6.234100 1.284800
-6.215900 1.283400
-6.197700 1.281900
-6.179500 1.285600
-6.161300 1.330100
-6.143100 1.448300
-6.124900 1.583300
-6.106700 1.718300
-6.088500 1.853300
-6.070400 1.988300
-6.052200 2.123300
-6.034000 2.258200
-6.015800 2.393200
-5.997600 2.528200
-5.979400 2.663200
-5.961200 2.421200
-5.943000 2.114200
-5.924800 2.132000
-5.906600 2.149700
-5.888400 2.138200
-5.870200 2.154200
-5.852000 2.170300
-5.833800 2.186300
-5.815600 2.202300
-5.797400 2.218400
-5.779200 2.234400
-5.761000 2.250500
-5.742800 2.266500
-5.724700 2.282600
-5.706500 2.298600
-5.688300 2.314600
-5.670100 2.330700
-5.651900 2.346700
-5.633700 2.335400
-5.615500 2.349800
-5.597300 2.364300
-5.579100 2.350600
-5.560900 2.360600
-5.542700 2.358800
-5.524500 2.349100
-5.506300 2.339800
-5.488100 2.331300
-5.469900 2.322900
-5.451700 2.314400
-5.433500 2.306000
-5.415300 2.297500
-5.397100 2.289100
-5.379000 2.280600
-5.360800 2.275700
-5.342600 2.278800
-5.324400 2.286500
-5.306200 2.294100
-5.288000 2.301700
-5.269800 2.309300
-5.251600 2.317500
-5.233400 2.326400
-5.215200 2.335400
-5.197000 2.345000
-5.178800 2.355200
-5.160600 2.365500
-5.142400 2.375700
-5.124200 2.386000
-5.106000 2.396200
-5.087800 2.406400
-5.069600 2.416700
-5.051400 2.426900
-5.033300 2.437200
-5.015100 2.447400
-4.996900 2.457600
-4.978700 2.467900
-4.960500 2.478100
-4.942300 2.488400
-4.924100 2.498100
-4.905900 2.507600
-4.887700 2.517200
-4.869500 2.526800
-4.851300 2.536300
-4.833100 2.586100
-4.814900 2.677200
-4.796700 2.831600
-4.778500 2.962900
-4.760300 3.094800
-4.742100 3.251200
-4.723900 3.407600
-4.705800 3.564000
-4.687600 3.720800
-4.669400 3.877800
-4.651200 4.034900
-4.633000 3.756000
-4.614800 3.439800
-4.596600 3.465600
-4.578400 3.491400
-4.560200 3.517200
-4.542000 3.542900
-4.523800 3.573900
-4.505600 3.605700
-4.487400 3.637600
-4.469200 3.671600
-4.451000 3.707800
-4.432800 3.744900
-4.414600 3.783200
-4.396400 3.822900
-4.378200 3.862500
-4.360100 3.902200
-4.341900 3.941800
-4.323700 3.981500
-4.305500 4.021200
-4.287300 4.328200
-4.269100 4.341700
-4.250900 4.347100
-4.232700 4.342400
-4.214500 4.336300
-4.196300 4.330100
-4.178100 4.323900
-4.159900 4.317800
-4.141700 4.311600
-4.123500 4.305400
-4.105300 4.640900
-4.087100 4.599300
-4.068900 4.563000
-4.050700 4.534700
-4.032500 4.824100
-4.014400 4.767900
-3.996200 4.711700
-3.978000 4.655600
-3.959800 4.599400
-3.941600 4.543200
-3.923400 4.488200
-3.905200 4.441400
-3.887000 4.400300
-3.868800 4.361800
-3.850600 4.323300
-3.832400 4.299700
-3.814200 4.347100
-3.796000 4.398200
-3.777800 4.369100
-3.759600 4.451000
-3.741400 4.538800
-3.723200 4.659400
-3.705000 4.941100
-3.686800 5.222900
-3.668700 5.504700
-3.650500 5.353300
-3.632300 5.557600
-3.614100 4.678500
-3.595900 4.708900
-3.577700 4.738100
-3.559500 6.082500
-3.541300 8.177900
-3.523100 4.823000
-3.504900 5.492000
-3.486700 5.388200
-3.468500 5.284400
-3.450300 5.752000
-3.432100 5.544900
-3.413900 5.337900
-3.395700 5.130800
-3.377500 4.923800
-3.359300 4.716700
-3.341100 4.509700
-3.323000 4.360200
-3.304800 4.275500
-3.286600 4.189300
-3.268400 4.109200
-3.250200 4.033500
-3.232000 3.958800
-3.213800 3.939700
-3.195600 3.984400
-3.177400 4.029000
-3.159200 4.074200
-3.141000 4.127800
-3.122800 4.181400
-3.104600 4.234900
-3.086400 4.399800
-3.068200 4.393800
-3.050000 4.387700
-3.031800 4.322200
-3.013600 4.213800
-2.995500 4.105400
-2.977300 3.997000
-2.959100 3.888600
-2.940900 3.780200
-2.922700 3.671800
-2.904500 3.563400
-2.886300 3.455000
-2.868100 3.501900
-2.849900 3.704500
-2.831700 4.006700
-2.813500 7.396100
-2.795300 16.756200
-2.777100 5.678100
-2.758900 6.175900
-2.740700 7.495400
-2.722500 6.481900
-2.704300 5.423000
-2.686100 4.745400
-2.667900 4.989700
-2.649800 5.233900
-2.631600 5.478100
-2.613400 5.722300
-2.595200 5.966600
-2.577000 6.210800
-2.558800 6.455000
-2.540600 4.118100
-2.522400 4.300300
-2.504200 1.593900
-2.486000 1.744400
-2.467800 1.894900
-2.449600 2.045400
-2.431400 2.195900
-2.413200 2.346400
-2.395000 5.755200
-2.376800 5.969400
-2.358600 5.930200
-2.340400 5.891100
-2.322200 5.851900
-2.304100 5.812800
-2.285900 8.402200
-2.267700 5.103700
-2.249500 0.000000
-2.231300 0.000000
-2.213100 0.000000
-2.194900 0.000000
-2.176700 0.000000
-2.158500 0.000000
-2.140300 0.000000
-2.122100 0.000000
-2.103900 0.000000
-2.085700 0.000000
-2.067500 0.000000
-2.049300 0.000000
-2.031100 0.000000
-2.012900 0.000000
-1.994700 0.000000
-1.976500 0.000000
-1.958400 0.000000
-1.940200 0.000000
-1.922000 0.000000
-1.903800 0.000000
-1.885600 0.000000
-1.867400 0.000000
-1.849200 0.000000
-1.831000 0.000000
-1.812800 0.000000
-1.794600 0.000000
-1.776400 0.000000
-1.758200 0.000000
-1.740000 0.000000
-1.721800 0.000000
-1.703600 0.000000
-1.685400 0.000000
-1.667200 0.000000
-1.649000 0.000000
-1.630800 0.000000
-1.612700 0.000000
-1.594500 0.000000
-1.576300 0.000000
-1.558100 0.000000
-1.539900 0.000000
-1.521700 0.000000
-1.503500 0.000000
-1.485300 0.000000
-1.467100 0.000000
-1.448900 0.000000
-1.430700 0.000000
-1.412500 0.000000
-1.394300 0.000000
-1.376100 0.000000
-1.357900 0.000000
-1.339700 0.000000
-1.321500 0.000000
-1.303300 0.000000
-1.285200 0.000000
-1.267000 0.000000
-1.248800 0.000000
-1.230600 0.000000
-1.212400 0.000000
-1.194200 0.000000
-1.176000 0.000000
-1.157800 0.000000
-1.139600 0.000000
-1.121400 0.000000
-1.103200 0.000000
-1.085000 0.000000
-1.066800 0.000000
-1.048600 0.000000
-1.030400 0.000000
-1.012200 0.000000
-0.994000 0.000000
-0.975800 0.000000
-0.957600 0.000000
-0.939500 0.000000
-0.921300 0.000000
-0.903100 0.000000
-0.884900 0.000000
-0.866700 0.000000
-0.848500 0.000000
-0.830300 0.000000
-0.812100 0.000000
-0.793900 0.000000
-0.775700 0.000000
-0.757500 0.000000
-0.739300 0.000000
-0.721100 0.000000
-0.702900 0.000000
-0.684700 0.000000
-0.666500 0.000000
-0.648300 0.000000
-0.630100 0.000000
-0.611900 0.000000
-0.593800 0.000000
-0.575600 0.000000
-0.557400 0.000000
-0.539200 0.000000
-0.521000 0.000000
-0.502800 0.028400
-0.484600 0.101800
-0.466400 0.175100
-0.448200 0.248400
-0.430000 0.321700
-0.411800 0.395000
-0.393600 0.468300
-0.375400 0.541600
-0.357200 0.614900
-0.339000 0.688200
-0.320800 0.761500
-0.302600 0.823900
-0.284400 1.611500
-0.266200 2.399100
-0.248100 3.186700
-0.229900 0.976900
-0.211700 1.002500
-0.193500 1.028200
-0.175300 1.053900
-0.157100 1.079500
-0.138900 1.214900
-0.120700 1.759200
-0.102500 2.303500
-0.084300 2.847800
-0.066100 3.392200
-0.047900 1.837900
-0.029700 1.882600
-0.011500 1.927300
0.006700 1.972000
0.024900 2.016700
0.043100 2.061400
0.061300 2.101600
0.079500 2.140000
0.097600 2.178300
0.115800 2.216700
0.134000 2.255000
0.152200 2.293400
0.170400 4.124900
0.188600 3.703000
0.206800 3.281200
0.225000 3.019300
0.243200 3.696200
0.261400 3.782600
0.279600 4.746800
0.297800 4.745700
0.316000 4.744700
0.334200 4.743700
0.352400 4.742600
0.370600 4.774800
0.388800 4.834900
0.407000 6.568300
0.425100 6.405300
0.443300 6.242400
0.461500 6.079400
0.479700 5.915800
0.497900 5.784700
0.516100 5.767500
0.534300 5.773600
0.552500 5.880100
0.570700 6.077600
0.588900 6.441100
0.607100 6.804600
0.625300 9.813000
0.643500 9.576200
0.661700 9.030700
0.679900 12.621500
0.698100 8.846200
0.716300 5.583200
0.734500 5.522500
0.752700 5.538400
0.770800 5.554200
0.789000 5.614900
0.807200 5.155600
0.825400 5.280700
0.843600 5.509900
0.861800 5.739100
0.880000 5.968200
0.898200 6.197400
0.916400 6.426600
0.934600 6.661700
0.952800 6.997300
0.971000 5.933500
0.989200 5.435400
1.007400 5.731200
1.025600 6.062600
1.043800 6.394100
1.062000 4.927000
1.080200 5.097100
1.098400 8.656800
1.116500 5.530100
1.134700 5.593800
1.152900 5.390100
1.171100 5.536800
1.189300 5.683500
1.207500 5.830100
1.225700 5.976800
1.243900 6.123500
1.262100 6.270200
1.280300 9.072300
1.298500 5.930700
1.316700 5.982800
1.334900 6.034800
1.353100 6.086800
1.371300 6.139300
1.389500 6.593500
1.407700 7.101500
1.425900 7.994700
1.444100 9.050900
1.462200 10.139400
1.480400 9.758100
1.498600 8.856500
1.516800 6.016400
1.535000 4.802500
1.553200 3.325000
1.571400 3.433700
1.589600 3.542300
1.607800 3.651000
1.626000 3.760200
1.644200 3.873100
1.662400 3.985900
1.680600 2.792700
1.698800 2.798200
1.717000 2.803800
1.735200 2.809300
1.753400 2.814800
1.771600 2.820600
1.789700 2.828200
1.807900 2.835900
1.826100 2.843500
1.844300 2.851100
1.862500 2.858800
1.880700 2.520000
1.898900 2.505500
1.917100 2.499400
1.935300 2.493900
1.953500 2.488400
1.971700 2.483000
1.989900 2.477500
2.008100 2.472000
2.026300 2.466600
2.044500 2.461100
2.062700 2.455600
2.080900 2.452300
2.099100 2.448900
2.117300 2.445600
2.135400 2.442300
2.153600 2.439000
2.171800 2.435700
2.190000 2.432400
2.208200 2.431000
2.226400 2.436700
2.244600 2.442300
2.262800 2.448000
2.281000 2.453600
2.299200 2.459300
2.317400 2.465000
2.335600 2.477400
2.353800 2.518800
2.372000 2.560300
2.390200 2.574500
2.408400 2.616900
2.426600 2.659200
2.444800 2.701500
2.463000 2.743800
2.481100 2.786100
2.499300 2.828400
2.517500 2.842000
2.535700 2.882000
2.553900 2.946400
2.572100 3.010700
2.590300 3.075100
2.608500 3.141600
2.626700 3.904400
2.644900 4.817600
2.663100 5.730800
2.681300 7.458600
2.699500 6.735700
2.717700 5.578400
2.735900 4.820600
2.754100 4.062800
2.772300 4.120800
2.790500 4.181700
2.808700 4.242600
2.826800 4.303400
2.845000 4.364300
2.863200 4.425200
2.881400 4.393200
2.899600 4.456000
2.917800 4.823400
2.936000 4.794900
2.954200 4.766400
2.972400 4.737900
2.990600 4.709400
3.008800 4.680900
3.027000 4.466100
3.045200 4.422600
3.063400 4.385700
3.081600 4.357700
3.099800 4.329700
3.118000 4.301600
3.136200 4.281300
3.154400 4.285700
3.172500 4.290100
3.190700 4.294500
3.208900 4.256500
3.227100 4.257100
3.245300 4.268900
3.263500 4.280700
3.281700 4.292500
3.299900 4.349500
3.318100 4.409700
3.336300 4.506400
3.354500 4.637800
3.372700 4.759500
3.390900 4.891700
3.409100 5.023900
3.427300 5.156000
3.445500 5.288200
3.463700 5.421500
3.481900 5.685000
3.500000 6.022400
3.518200 6.415000
3.536400 6.807600
3.554600 7.200100
3.572800 7.510600
3.591000 7.905400
3.609200 8.336000
3.627400 8.447700
3.645600 8.466700
3.663800 8.376800
3.682000 8.858400
3.700200 10.904000
3.718400 13.408200
3.736600 10.853500
3.754800 7.350900
3.773000 7.683400
3.791200 7.961800
3.809400 8.139100
3.827600 8.314600
3.845700 8.379100
3.863900 8.443600
3.882100 8.508100
3.900300 8.572500
3.918500 7.521300
3.936700 7.364300
3.954900 7.207300
3.973100 7.055300
3.991300 6.905500
4.009500 6.110500
4.027700 6.015800
4.045900 5.921200
4.064100 5.826600
4.082300 5.731900
4.100500 5.637300
4.118700 5.411300
4.136900 5.374500
4.155100 5.337700
4.173300 6.133800
4.191400 7.192600
4.209600 6.555300
4.227800 6.451000
4.246000 6.346800
4.264200 6.242000
4.282400 6.136300
4.300600 4.801900
4.318800 4.801500
4.337000 4.802300
4.355200 4.805200
4.373400 4.809200
4.391600 4.813100
4.409800 4.817000
4.428000 4.820900
4.446200 4.825200
4.464400 4.842500
4.482600 4.861700
4.500800 4.882500
4.519000 4.904700
4.537100 4.927500
4.555300 4.951400
4.573500 4.975300
4.591700 5.385300
4.609900 9.082600
4.628100 12.783100
4.646300 7.120700
4.664500 7.465800
4.682700 7.839300
4.700900 8.213800
4.719100 8.588300
4.737300 7.360100
4.755500 7.394100
4.773700 7.428000
4.791900 7.462000
4.810100 7.497000
4.828300 7.533500
4.846500 7.324500
4.864700 7.496900
4.882800 7.544600
4.901000 7.592200
4.919200 7.639800
4.937400 7.687400
4.955600 7.736600
4.973800 9.999700
4.992000 9.940500
5.010200 9.881300
5.028400 9.820300
5.046600 9.690800
5.064800 9.594000
5.083000 9.534700
5.101200 9.177200
5.119400 9.050200
5.137600 8.923200
5.155800 10.535000
5.174000 10.046400
5.192200 9.914800
5.210300 9.805100
5.228500 9.695300
5.246700 9.585600
5.264900 9.470200
5.283100 9.350300
5.301300 9.232700
5.319500 9.115500
5.337700 8.998000
5.355900 8.879000
5.374100 8.770200
5.392300 8.668100
5.410500 8.299300
5.428700 8.232100
5.446900 8.164900
5.465100 8.185800
5.483300 8.242200
5.501500 8.280000
5.519700 8.267100
5.537900 8.450000
5.556000 8.635300
5.574200 8.546200
5.592400 8.687700
5.610600 8.756500
5.628800 8.825300
5.647000 8.897400
5.665200 9.021900
5.683400 9.146300
5.701600 8.957300
5.719800 8.454700
5.738000 8.710800
5.756200 10.394200
5.774400 12.001200
5.792600 8.919800
5.810800 8.953200
5.829000 8.498300
5.847200 8.460700
5.865400 8.483000
5.883600 8.632600
5.901700 8.648300
5.919900 8.664100
5.938100 8.679800
5.956300 8.703300
5.974500 8.770200
5.992700 8.794600
6.010900 8.844200
6.029100 8.922900
6.047300 9.001700
6.065500 9.081700
6.083700 8.597600
6.101900 8.603100
6.120100 8.608600
6.138300 8.753600
6.156500 8.789800
6.174700 8.838300
6.192900 8.939700
6.211100 8.771600
6.229300 8.780800
6.247400 8.790100
6.265600 8.799400
6.283800 8.808700
6.302000 8.818000
6.320200 8.803600
6.338400 8.781200
6.356600 8.758800
6.374800 9.409200
6.393000 9.379600
6.411200 9.349900
6.429400 9.400600
6.447600 9.538500
6.465800 9.679300
6.484000 10.000000
6.502200 9.715200
6.520400 9.816900
6.538600 9.532400
6.556800 9.815900
6.575000 9.951800
6.593100 10.269800
6.611300 9.586200
6.629500 9.344900
6.647700 9.100100
6.665900 8.896400
6.684100 8.782300
6.702300 8.740400
6.720500 8.638300
6.738700 8.486100
6.756900 8.334100
6.775100 8.117900
6.793300 7.974900
6.811500 7.970500
6.829700 7.847400
6.847900 7.724400
6.866100 7.604300
6.884300 7.489700
6.902500 7.375100
6.920600 7.260500
6.938800 6.750400
6.957000 6.537100
6.975200 6.299700
6.993400 6.062300
7.011600 5.752800
7.029800 5.607200
7.048000 5.466200
7.066200 5.347600
7.084400 5.611100
7.102600 5.446500
7.120800 4.978200
7.139000 4.815600
7.157200 4.652900
7.175400 4.506200
7.193600 4.406100
7.211800 4.302300
7.230000 4.316400
7.248200 4.226200
7.266300 4.117200
7.284500 4.008100
7.302700 3.899000
7.320900 3.865900
7.339100 3.710800
7.357300 3.556200
7.375500 3.401700
7.393700 3.268900
7.411900 3.170000
7.430100 3.071100
7.448300 2.972200
7.466500 2.879300
7.484700 2.788200
7.502900 2.697200
7.521100 2.606100
7.539300 2.515000
7.557500 2.423900
7.575700 2.351000
7.593900 2.282900
7.612000 2.214700
7.630200 2.626900
7.648400 2.497800
7.666600 2.501800
7.684800 2.358200
7.703000 2.214700
7.721200 2.071100
7.739400 1.926400
7.757600 1.786500
7.775800 1.654500
7.794000 1.522400
7.812200 1.436000
7.830400 2.016300
7.848600 1.879700
7.866800 1.743000
7.885000 1.606300
7.903200 1.933900
7.921400 1.471500
7.939600 1.009200
7.957700 0.555300
7.975900 0.122600
7.994100 0.000000
8.012300 0.000000
8.030500 0.000000
8.048700 0.000000
8.066900 0.000000
8.085100 0.000000
8.103300 0.000000
8.121500 0.000000
8.139700 0.000000
8.157900 0.000000
8.176100 0.000000
8.194300 0.000000
8.212500 0.000000
8.230700 0.000000
8.248900 0.000000
8.267100 0.000000
8.285300 0.000000
8.303400 0.000000
8.321600 0.000000
8.339800 0.000000
8.358000 0.000000
8.376200 0.000000
8.394400 0.000000
8.412600 0.000000
8.430800 0.000000
8.449000 0.000000
8.467200 0.000000
8.485400 0.000000
8.503600 0.000000
8.521800 0.000000
8.540000 0.000000
8.558200 0.000000
8.576400 0.000000
8.594600 0.000000
8.612800 0.000000
8.630900 0.000000
8.649100 0.000000
8.667300 0.000000
8.685500 0.000000
8.703700 0.000000
8.721900 0.000000
8.740100 0.000000
8.758300 0.000000
8.776500 0.000000
8.794700 0.000000
8.812900 0.000000
8.831100 0.000000
8.849300 0.000000
8.867500 0.000000
8.885700 0.000000
8.903900 0.000000
8.922100 0.000000
8.940300 0.000000
8.958500 0.000000
8.976600 0.000000
8.994800 0.000000
9.013000 0.000000
9.031200 0.000000
9.049400 0.000000
9.067600 0.000000
9.085800 0.000000
9.104000 0.000000
9.122200 0.000000
9.140400 0.000000
9.158600 0.000000
9.176800 0.000000
9.195000 0.000000
9.213200 0.000000
9.231400 0.000000
9.249600 0.000000
9.267800 0.000000
9.286000 0.000000
9.304200 0.000000
9.322300 0.000000
9.340500 0.000000
9.358700 0.000000
9.376900 0.000000
9.395100 0.000000
9.413300 0.000000
9.431500 0.000000
9.449700 0.000000
9.467900 0.000000
9.486100 0.000000
9.504300 0.000000
9.522500 0.000000
9.540700 0.000000
9.558900 0.000000
9.577100 0.000000
9.595300 0.000000
9.613500 0.000000
9.631700 0.000000
9.649900 0.000000
9.668000 0.000000
9.686200 0.000000
9.704400 0.000000
9.722600 0.000000
9.740800 0.000000
9.759000 0.000000
9.777200 0.000000
9.795400 0.000000
9.813600 0.000000
9.831800 0.000000
9.850000 0.000000
9.868200 0.000000
9.886400 0.311600
9.904600 0.320000
9.922800 0.328400
9.941000 0.336800
9.959200 0.345200
9.977400 0.353600
9.995600 0.362000
10.013700 0.370400
10.031900 0.378800
10.050100 0.618800
10.068300 0.636500
10.086500 0.654200
10.104700 0.671900
10.122900 0.689600
10.141100 0.707300
10.159300 0.724900
10.177500 0.742600
10.195700 0.760300
10.213900 0.778000
10.232100 0.795700
10.250300 0.813400
10.268500 0.831100
10.286700 0.848800
10.304900 0.866500
10.323100 0.884200
10.341200 0.901900
10.359400 0.920100
10.377600 0.941800
10.395800 0.963500
10.414000 0.985100
10.432200 1.006800
10.450400 1.028500
10.468600 1.050200
10.486800 1.071900
10.505000 1.093500
10.523200 1.115200
10.541400 1.136900
10.559600 1.158600
10.577800 1.180200
10.596000 1.201900
10.614200 1.223600
10.632400 1.245300
10.650600 1.266900
10.668800 1.288600
10.686900 1.303500
10.705100 1.301300
10.723300 1.299800
10.741500 1.297000
10.759700 1.287400
10.777900 1.289800
10.796100 1.297300
10.814300 1.304800
10.832500 1.312300
10.850700 1.319800
10.868900 1.327400
10.887100 1.542700
10.905300 1.564400
10.923500 1.586200
10.941700 1.608000
10.959900 1.629700
10.978100 1.651500
10.996300 1.673200
11.014500 1.695000
11.032600 1.716800
11.050800 1.738500
11.069000 1.761500
11.087200 1.786000
11.105400 1.810600
11.123600 1.835200
11.141800 1.859700
11.160000 2.137200
11.178200 2.176500
11.196400 6.828200
11.214600 5.272500
11.232800 3.716900
11.251000 2.340400
11.269200 2.364000
11.287400 2.387600
11.305600 2.411200
11.323800 2.434900
11.342000 2.452200
11.360200 2.467000
11.378300 2.481700
11.396500 2.496500
11.414700 2.511300
11.432900 2.526100
11.451100 2.540900
11.469300 2.555700
11.487500 2.570500
11.505700 2.585200
11.523900 2.600000
11.542100 2.614800
11.560300 2.629600
11.578500 2.644400
11.596700 2.659200
11.614900 2.674000
11.633100 2.715200
11.651300 2.806800
11.669500 2.898400
11.687700 2.982700
11.705900 4.158000
11.724000 4.152500
11.742200 4.147000
11.760400 4.142300
11.778600 4.149400
11.796800 4.156600
11.815000 4.163800
11.833200 4.312200
11.851400 4.480300
11.869600 4.836500
11.887800 4.986600
11.906000 5.134500
11.924200 5.282500
11.942400 6.324300
11.960600 5.878300
11.978800 5.437700
11.997000 5.056800
12.015200 4.676000
12.033400 4.295000
12.051500 5.022500
12.069700 4.550400
12.087900 4.340600
12.106100 4.130900
12.124300 3.921100
12.142500 3.706500
12.160700 3.491800
12.178900 3.298300
12.197100 3.363300
12.215300 3.437700
12.233500 3.810500
12.251700 3.898200
12.269900 3.985800
12.288100 4.074000
12.306300 4.162200
12.324500 4.250500
12.342700 4.338700
12.360900 4.426400
12.379100 4.512200
12.397200 4.080400
12.415400 4.019400
12.433600 3.958500
12.451800 4.307400
12.470000 6.833100
12.488200 9.358800
12.506400 4.921800
12.524600 4.896100
12.542800 4.631600
12.561000 4.602900
12.579200 4.574200
12.597400 4.545500
12.615600 4.516800
12.633800 4.711400
12.652000 5.081600
12.670200 5.451700
12.688400 5.737800
12.706600 4.276600
12.724800 4.582300
12.742900 4.528900
12.761100 4.486200
12.779300 4.443500
12.797500 4.400800
12.815700 4.358000
12.833900 4.315300
12.852100 4.318500
12.870300 4.356700
12.888500 4.401600
12.906700 4.455500
12.924900 4.508200
12.943100 4.556700
12.961300 4.605200
12.979500 4.653700
12.997700 4.702200
13.015900 4.750600
13.034100 4.862500
13.052300 4.985600
13.070500 5.131300
13.088600 5.300400
13.106800 5.469500
13.125000 5.639300
13.143200 5.836700
13.161400 6.496000
13.179600 6.891800
13.197800 7.282900
13.216000 8.281900
13.234200 6.215000
13.252400 6.058000
13.270600 6.844500
13.288800 8.616500
13.307000 6.112000
13.325200 6.634900
13.343400 6.943700
13.361600 7.934800
13.379800 7.759900
13.398000 7.624400
13.416200 7.810000
13.434300 6.419600
13.452500 7.327200
13.470700 7.498600
13.488900 7.853400
13.507100 8.129600
13.525300 8.410200
13.543500 8.698400
13.561700 8.199000
13.579900 6.199900
13.598100 6.245700
13.616300 6.298500
13.634500 6.385600
13.652700 6.493700
13.670900 6.619600
13.689100 6.745500
13.707300 5.881300
13.725500 5.978000
13.743700 6.115000
13.761800 6.251900
13.780000 6.388900
13.798200 6.525900
13.816400 6.662900
13.834600 6.800500
13.852800 5.130700
13.871000 5.216900
13.889200 5.303000
13.907400 5.389100
13.925600 6.561200
13.943800 7.410700
13.962000 3.948300
13.980200 3.945300
13.998400 3.944900
14.016600 3.944500
14.034800 3.944100
14.053000 3.943700
14.071200 3.943300
14.089400 3.942900
14.107500 4.730600
14.125700 4.712900
14.143900 6.004500
14.162100 6.053400
14.180300 6.126900
14.198500 6.200400
14.216700 6.273900
14.234900 6.347400
14.253100 6.420900
14.271300 6.980000
14.289500 7.078200
14.307700 7.259700
14.325900 7.441200
14.344100 9.469200
14.362300 9.299800
14.380500 8.194800
14.398700 8.060100
14.416900 7.978100
14.435100 7.896100
14.453200 7.814000
14.471400 6.641100
14.489600 6.631900
14.507800 6.584900
14.526000 6.537900
14.544200 6.490900
14.562400 7.136800
14.580600 5.392800
14.598800 3.891800
14.617000 3.731500
14.635200 3.672900
14.653400 3.681600
14.671600 3.711600
14.689800 4.556900
14.708000 5.893000
14.726200 8.457300
14.744400 9.846300
14.762600 5.941400
14.780800 9.300300
14.798900 8.397800
14.817100 7.495400
14.835300 6.592900
14.853500 5.795300
14.871700 5.747700
14.889900 9.175000
14.908100 14.464400
14.926300 4.822800
14.944500 5.681500
14.962700 6.614400
14.980900 5.695800
14.999100 5.856500
15.017300 6.017100
15.035500 6.177800
15.053700 6.352800
15.071900 6.582000
15.090100 6.812500
15.108300 10.078300
15.126400 12.988000
15.144600 10.956000
15.162800 9.981600
15.181000 8.252500
15.199200 7.301800
15.217400 7.046200
15.235600 8.518200
15.253800 10.327100
15.272000 10.053700
15.290200 9.780300
15.308400 9.506900
15.326600 8.945100
15.344800 7.900700
15.363000 6.856300
15.381200 6.954200
15.399400 12.583300
15.417600 14.090300
15.435800 9.120000
15.454000 9.700500
15.472100 10.346100
15.490300 10.680900
15.508500 10.792700
15.526700 11.978200
15.544900 12.683800
15.563100 9.595700
15.581300 9.246300
15.599500 9.101700
15.617700 9.055400
15.635900 9.009100
15.654100 9.089900
15.672300 9.155000
15.690500 8.831600
15.708700 8.508200
15.726900 8.184800
15.745100 7.302200
15.763300 8.737900
15.781500 9.790600
15.799700 10.027600
15.817800 10.126700
15.836000 10.133000
15.854200 10.139300
15.872400 8.897600
15.890600 8.480200
15.908800 8.954900
15.927000 10.311800
15.945200 11.678500
15.963400 12.914400
15.981600 12.037900
15.999800 10.144800
16.018000 9.877400
16.036200 10.163000
16.054400 10.561200
16.072600 10.959500
16.090800 10.539000
16.109000 10.975000
16.127200 9.985200
16.145400 10.131800
16.163500 10.292700
16.181700 10.027700
16.199900 10.713200
16.218100 14.468500
16.236300 18.285900
16.254500 12.184800
16.272700 10.749900
16.290900 9.912300
16.309100 14.661900
16.327300 12.861300
16.345500 8.692400
16.363700 8.076300
16.381900 7.501700
16.400100 6.980300
16.418300 6.663600
16.436500 6.725600
16.454700 6.787700
16.472900 6.849800
16.491100 6.911800
16.509200 6.973900
16.527400 7.036000
16.545600 7.098000
16.563800 7.160100
16.582000 7.106900
16.600200 7.514600
16.618400 7.943500
16.636600 8.382500
16.654800 8.831000
16.673000 9.450500
16.691200 9.374200
16.709400 9.302400
16.727600 8.038600
16.745800 7.986400
16.764000 7.955600
16.782200 7.924800
16.800400 7.894000
16.818600 7.836400
16.836700 7.734100
16.854900 7.634400
16.873100 6.675100
16.891300 7.847300
16.909500 7.565000
16.927700 7.282800
16.945900 7.043500
16.964100 6.878700
16.982300 6.753700
17.000500 6.876000
17.018700 7.654200
17.036900 7.825300
17.055100 7.996400
17.073300 8.159700
17.091500 8.243300
17.109700 8.302000
17.127900 8.355900
17.146100 8.153400
17.164300 8.049100
17.182400 8.292800
17.200600 8.245400
17.218800 8.068200
17.237000 8.872700
17.255200 9.677200
17.273400 7.766700
17.291600 7.635000
17.309800 7.510600
17.328000 7.386200
17.346200 7.261800
17.364400 7.137400
17.382600 7.013000
17.400800 6.888500
17.419000 6.618900
17.437200 6.546200
17.455400 6.918600
17.473600 6.817300
17.491800 6.452100
17.510000 6.392600
17.528100 6.340300
17.546300 6.210800
17.564500 6.191400
17.582700 6.190000
17.600900 6.193000
17.619100 6.196000
17.637300 6.199000
17.655500 6.250500
17.673700 6.309700
17.691900 6.369000
17.710100 6.428200
17.728300 6.487400
17.746500 6.546700
17.764700 7.463600
17.782900 8.319900
17.801100 9.176200
17.819300 7.333800
17.837500 7.368600
17.855700 7.717300
17.873800 8.135900
17.892000 8.556300
17.910200 8.891000
17.928400 9.197300
17.946600 8.069200
17.964800 8.047500
17.983000 8.284800
18.001200 8.544800
18.019400 8.798800
18.037600 10.400500
18.055800 10.372400
18.074000 10.651100
18.092200 10.964500
18.110400 9.589100
18.128600 8.117000
18.146800 7.951500
18.165000 9.305400
18.183200 9.755400
18.201400 10.209700
18.219500 10.664000
18.237700 11.118300
18.255900 10.992000
18.274100 10.108300
18.292300 9.193100
18.310500 12.226800
18.328700 9.471000
18.346900 8.876200
18.365100 11.494900
18.383300 11.310100
18.401500 11.351100
18.419700 8.728200
18.437900 5.853100
18.456100 5.645500
18.474300 5.456100
18.492500 5.356400
18.510700 6.081300
18.528900 6.995000
18.547000 6.856300
18.565200 6.844400
18.583400 6.916900
18.601600 6.989400
18.619800 7.064300
18.638000 7.160800
18.656200 11.195200
18.674400 10.464100
18.692600 9.733000
18.710800 8.273300
18.729000 7.436600
18.747200 6.392600
18.765400 6.352400
18.783600 6.312300
18.801800 7.487700
18.820000 7.383100
18.838200 7.278500
18.856400 7.007700
18.874600 6.723700
18.892700 6.439600
18.910900 6.155600
18.929100 5.871600
18.947300 5.587600
18.965500 5.303600
18.983700 5.019600
19.001900 4.764200
19.020100 5.687000
19.038300 5.462200
19.056500 5.379000
19.074700 7.124400
19.092900 8.975800
19.111100 10.070700
19.129300 8.929200
19.147500 8.213600
19.165700 6.766900
19.183900 7.744300
19.202100 8.590200
19.220300 7.416900
19.238400 6.243600
19.256600 5.143400
19.274800 5.743700
19.293000 7.254200
19.311200 8.764700
19.329400 10.275200
19.347600 6.583400
19.365800 6.945100
19.384000 7.306800
19.402200 7.804700
19.420400 6.969700
19.438600 6.263400
19.456800 5.936500
19.475000 5.602000
19.493200 5.267500
19.511400 4.933000
19.529600 4.831600
19.547800 4.946900
19.566000 4.993400
19.584100 5.040000
19.602300 5.086500
19.620500 5.133000
19.638700 5.179500
19.656900 5.226100
19.675100 5.271300
19.693300 5.309100
19.711500 5.597700
19.729700 5.946500
19.747900 6.295300
19.766100 6.644100
19.784300 6.992200
19.802500 7.336700
19.820700 6.858400
19.838900 6.944700
19.857100 7.381900
19.875300 7.822900
19.893500 8.263900
19.911700 7.173500
19.929800 8.206700
19.948000 9.239900
19.966200 10.273100
19.984400 6.014200
20.002600 5.976500
20.020800 5.936900
20.039000 5.897300
20.057200 5.856000
20.075400 5.941500
20.093600 5.889600
20.111800 5.837600
20.130000 5.785700
20.148200 5.743000
20.166400 5.744000
20.184600 5.747200
20.202800 5.820600
20.221000 5.824600
20.239200 5.999900
20.257300 5.957100
20.275500 6.344200
20.293700 7.563200
20.311900 8.783300
20.330100 10.003500
20.348300 11.285900
20.366500 10.843000
20.384700 6.205000
20.402900 6.155800
20.421100 6.143400
20.439300 6.484400
20.457500 8.237100
20.475700 8.141000
20.493900 8.045000
20.512100 7.948900
20.530300 7.852900
20.548500 7.756800
20.566700 7.660800
20.584900 7.674700
20.603000 7.774100
20.621200 7.873500
20.639400 7.793600
20.657600 9.111700
20.675800 10.451400
20.694000 7.596500
20.712200 7.848000
20.730400 8.102000
20.748600 6.826200
20.766800 7.533400
20.785000 7.230300
20.803200 6.927100
20.821400 6.624000
20.839600 6.615800
20.857800 6.631400
20.876000 6.728300
20.894200 6.826300
20.912400 6.932300
20.930600 7.135900
20.948700 7.391700
20.966900 7.647500
20.985100 8.164900
21.003300 7.354800
21.021500 7.692600
21.039700 8.584300
21.057900 8.859900
21.076100 7.268000
21.094300 7.138800
21.112500 7.009500
21.130700 6.880300
21.148900 6.751000
21.167100 11.740600
21.185300 9.945200
21.203500 10.163900
21.221700 10.783500
21.239900 11.436300
21.258100 12.096900
21.276300 12.757600
21.294400 8.944800
21.312600 9.187500
21.330800 8.211900
21.349000 8.121900
21.367200 8.032000
21.385400 7.982700
21.403600 7.969400
21.421800 7.964100
21.440000 7.501800
21.458200 9.758400
21.476400 9.754100
21.494600 9.787200
21.512800 9.820300
21.531000 9.853400
21.549200 8.956300
21.567400 8.932600
21.585600 8.889900
21.603800 8.826500
21.622000 7.906500
21.640100 7.790200
21.658300 6.967900
21.676500 6.856500
21.694700 6.745200
21.712900 12.991600
21.731100 9.646200
21.749300 8.697700
21.767500 7.811000
21.785700 6.957300
21.803900 6.242900
21.822100 9.406500
21.840300 9.180500
21.858500 8.919000
21.876700 8.213600
21.894900 6.711000
21.913100 6.285300
21.931300 6.193500
21.949500 5.338100
21.967600 5.366500
21.985800 6.101200
22.004000 4.040700
22.022200 4.146800
22.040400 4.253000
22.058600 5.549500
22.076800 5.140600
22.095000 4.601400
22.113200 3.915300
22.131400 3.349700
22.149600 2.848000
22.167800 3.634400
22.186000 3.833400
22.204200 3.967800
22.222400 4.088400
22.240600 4.050300
22.258800 4.021000
22.277000 3.996900
22.295200 3.976200
22.313300 3.955500
22.331500 3.934800
22.349700 3.914100
22.367900 3.893400
22.386100 3.872800
22.404300 3.852100
22.422500 3.831400
22.440700 3.810700
22.458900 3.790000
22.477100 3.769300
22.495300 3.748600
22.513500 3.728000
22.531700 3.707300
22.549900 3.572700
22.568100 3.702000
22.586300 3.286200
22.604500 3.432200
22.622700 3.555300
22.640900 3.678300
22.659000 3.832400
22.677200 3.914600
22.695400 3.998000
22.713600 4.081500
22.731800 4.165000
22.750000 4.248500
22.768200 4.106200
22.786400 4.188800
22.804600 4.299800
22.822800 4.411300
22.841000 4.519900
22.859200 4.537300
22.877400 4.497700
22.895600 4.536700
22.913800 4.101600
22.932000 4.133300
22.950200 4.165000
22.968400 4.214500
22.986600 4.257500
23.004700 4.300500
23.022900 4.343400
23.041100 4.386400
23.059300 4.429400
23.077500 4.472400
23.095700 4.515300
23.113900 4.655200
23.132100 5.114200
23.150300 4.989500
23.168500 5.046100
23.186700 5.102700
23.204900 5.159300
23.223100 4.632300
23.241300 4.668200
23.259500 4.704100
23.277700 4.761200
23.295900 4.907300
23.314100 5.041300
23.332300 5.175300
23.350400 5.309200
23.368600 5.443500
23.386800 5.548700
23.405000 5.653900
23.423200 5.334400
23.441400 4.498200
23.459600 4.525300
23.477800 4.552500
23.496000 4.573900
23.514200 4.490300
23.532400 4.406700
23.550600 4.323200
23.568800 4.649000
23.587000 4.609700
23.605200 4.572400
23.623400 4.643400
23.641600 4.721600
23.659800 4.811600
23.677900 4.906700
23.696100 5.236100
23.714300 5.494600
23.732500 5.560800
23.750700 5.838400
23.768900 6.416600
23.787100 7.043100
23.805300 7.669600
23.823500 5.890500
23.841700 6.050800
23.859900 6.486900
23.878100 6.692300
23.896300 6.897800
23.914500 7.103300
23.932700 7.308800
23.950900 7.255800
23.969100 7.400800
23.987300 7.573100
24.005500 7.105800
24.023600 7.238400
24.041800 7.277300
24.060000 7.261800
24.078200 6.875800
24.096400 7.005400
24.114600 7.135000
24.132800 7.264600
24.151000 7.361600
24.169200 7.398300
24.187400 7.359600
24.205600 7.320800
24.223800 6.510500
24.242000 6.513100
24.260200 6.523100
24.278400 6.597800
24.296600 6.672500
24.314800 8.471400
24.333000 7.788000
24.351200 7.359700
24.369300 7.413500
24.387500 6.407800
24.405700 6.183100
24.423900 5.958300
24.442100 5.781000
24.460300 5.617800
24.478500 5.454600
24.496700 5.291400
24.514900 5.128200
24.533100 4.965000
24.551300 4.801800
24.569500 4.638600
24.587700 4.477800
24.605900 4.459900
24.624100 4.256000
24.642300 4.199300
24.660500 4.150500
24.678700 4.224800
24.696900 4.310500
24.715000 4.660400
24.733200 4.792400
24.751400 5.050300
24.769600 5.525800
24.787800 6.001300
24.806000 5.235600
24.824200 5.231300
24.842400 5.227000
24.860600 5.222700
24.878800 5.218400
24.897000 5.563200
24.915200 5.156300
24.933400 5.008700
24.951600 4.995300
24.969800 4.356800
24.988000 4.479800
25.006200 4.720600
25.024400 5.072500
25.042600 5.325300
25.060700 6.713300
25.078900 6.217200
25.097100 5.721100
25.115300 5.225000
25.133500 4.729000
25.151700 4.232900
25.169900 3.736800
25.188100 4.397100
25.206300 4.391700
25.224500 4.386300
25.242700 4.380900
25.260900 4.375500
25.279100 4.370100
25.297300 4.380500
25.315500 4.435100
25.333700 4.489600
25.351900 4.223200
25.370100 3.665600
25.388200 3.108100
25.406400 1.736200
25.424600 1.731600
25.442800 2.278200
25.461000 2.350200
25.479200 2.422200
25.497400 2.494200
25.515600 2.566200
25.533800 2.638200
25.552000 2.609700
25.570200 2.343400
25.588400 2.068200
25.606600 1.792900
25.624800 1.517700
25.643000 1.242500
25.661200 0.967300
25.679400 0.692100
25.697600 0.416900
25.715800 0.141600
25.733900 0.005200
25.752100 0.000000
25.770300 0.000000
25.788500 0.000000
25.806700 0.000000
25.824900 0.000000
25.843100 0.000000
25.861300 0.000000
25.879500 0.000000
25.897700 0.000000
25.915900 0.000000
25.934100 0.000000
25.952300 0.000000
25.970500 0.000000
25.988700 0.000000
26.006900 0.000000
26.025100 0.000000
26.043300 0.000000
26.061500 0.000000
26.079600 0.000000
26.097800 0.000000
26.116000 0.000000
26.134200 0.000000
26.152400 0.000000
26.170600 0.000000
26.188800 0.000000
26.207000 0.000000
26.225200 0.000000
26.243400 0.000000
26.261600 0.000000
26.279800 0.000000
26.298000 0.000000
26.316200 0.000000
26.334400 0.000000
26.352600 0.000000
26.370800 0.000000
26.389000 0.000000
26.407200 0.000000
26.425300 0.000000
26.443500 0.000000
26.461700 0.000000
26.479900 0.000000
26.498100 0.000000
26.516300 0.000000
26.534500 0.000000
26.552700 0.000000
26.570900 0.000000
26.589100 0.000000
26.607300 0.000000
26.625500 0.000000
26.643700 0.000000
26.661900 0.000000
26.680100 0.000000
26.698300 0.000000
26.716500 0.000000
26.734700 0.000000
26.752900 0.000000
26.771000 0.000000
26.789200 0.000000
26.807400 0.000000
26.825600 0.000000
26.843800 0.000000
26.862000 0.000000
26.880200 0.000000
26.898400 0.000000
26.916600 0.000000
26.934800 0.000000
26.953000 0.000000
26.971200 0.000000
26.989400 0.000000
27.007600 0.000000
27.025800 0.000000
27.044000 0.000000
27.062200 0.000000
27.080400 0.000000
27.098500 0.000000
27.116700 0.000000
27.134900 0.000000
27.153100 0.000000
27.171300 0.000000
27.189500 0.000000
27.207700 0.000000
27.225900 0.000000
27.244100 0.000000
27.262300 0.000000
27.280500 0.000000
27.298700 0.000000
27.316900 0.000000
27.335100 0.000000
27.353300 0.000000
27.371500 0.000000
27.389700 0.000000
e
