set title 'mp-985299 - Density of States'
set xlabel 'Energy (eV)'
set ylabel 'DOS (states/eV)'
set grid
set xrange [-10:10]
set yrange [0:9.097]
set xzeroaxis lt -1
set terminal png size 800,600
set output 'mp-985299_dos_gnuplot.png'
plot '-' using 1:2 with lines title 'DOS'
-12.477300 0.000000
-12.451900 0.000000
-12.426500 0.000000
-12.401000 0.000000
-12.375600 0.000000
-12.350200 0.000000
-12.324700 0.000000
-12.299300 0.000000
-12.273900 0.000000
-12.248400 0.000000
-12.223000 0.000000
-12.197600 0.000000
-12.172100 0.000000
-12.146700 0.000000
-12.121300 0.000000
-12.095800 0.000000
-12.070400 0.000000
-12.045000 0.000000
-12.019500 0.000000
-11.994100 0.000000
-11.968700 0.000000
-11.943200 0.000000
-11.917800 0.000000
-11.892400 0.000000
-11.866900 0.000000
-11.841500 0.000000
-11.816100 0.000000
-11.790600 0.000000
-11.765200 0.000000
-11.739800 0.000000
-11.714300 0.000000
-11.688900 0.000000
-11.663500 0.000000
-11.638000 0.000000
-11.612600 0.000000
-11.587200 0.000000
-11.561700 0.000000
-11.536300 0.000000
-11.510900 0.000000
-11.485400 0.000000
-11.460000 0.000000
-11.434600 0.000000
-11.409100 0.000000
-11.383700 0.000000
-11.358300 0.000000
-11.332800 0.000000
-11.307400 0.000000
-11.282000 0.000000
-11.256500 0.000000
-11.231100 0.000000
-11.205700 0.000000
-11.180200 0.000000
-11.154800 0.000000
-11.129400 0.000000
-11.103900 0.000000
-11.078500 0.000000
-11.053100 0.000000
-11.027600 0.000000
-11.002200 0.000000
-10.976800 0.000000
-10.951300 0.000000
-10.925900 0.000000
-10.900500 0.000000
-10.875000 0.000000
-10.849600 0.000000
-10.824200 0.000000
-10.798700 0.000000
-10.773300 0.000000
-10.747900 0.000000
-10.722400 0.000000
-10.697000 0.000000
-10.671600 0.000000
-10.646100 0.000000
-10.620700 0.000000
-10.595300 0.000000
-10.569800 0.000000
-10.544400 0.000000
-10.519000 0.000000
-10.493500 0.000000
-10.468100 0.000000
-10.442700 0.000000
-10.417200 0.000000
-10.391800 0.000000
-10.366400 0.000000
-10.340900 0.000000
-10.315500 0.000000
-10.290100 0.000000
-10.264600 0.000100
-10.239200 0.000900
-10.213700 0.005800
-10.188300 0.026400
-10.162900 0.082100
-10.137400 0.183600
-10.112000 0.319900
-10.086600 0.472800
-10.061100 0.631100
-10.035700 0.800600
-10.010300 1.014100
-9.984800 1.288800
-9.959400 1.610700
-9.934000 1.980300
-9.908500 2.422200
-9.883100 3.011700
-9.857700 3.894200
-9.832200 5.005900
-9.806800 5.704200
-9.781400 5.165100
-9.755900 3.449300
-9.730500 1.615600
-9.705100 0.511300
-9.679600 0.106200
-9.654200 0.014200
-9.628800 0.001200
-9.603300 0.000100
-9.577900 0.000000
-9.552500 0.000000
-9.527000 0.000000
-9.501600 0.000000
-9.476200 0.000000
-9.450700 0.000000
-9.425300 0.000000
-9.399900 0.000000
-9.374400 0.000000
-9.349000 0.000000
-9.323600 0.000000
-9.298100 0.000000
-9.272700 0.000000
-9.247300 0.000000
-9.221800 0.000000
-9.196400 0.000000
-9.171000 0.000000
-9.145500 0.000000
-9.120100 0.000000
-9.094700 0.000000
-9.069200 0.000000
-9.043800 0.000000
-9.018400 0.000000
-8.992900 0.000000
-8.967500 0.000000
-8.942100 0.000000
-8.916600 0.000000
-8.891200 0.000000
-8.865800 0.000000
-8.840300 0.000000
-8.814900 0.000000
-8.789500 0.000000
-8.764000 0.000000
-8.738600 0.000000
-8.713200 0.000000
-8.687700 0.000000
-8.662300 0.000000
-8.636900 0.000000
-8.611400 0.000000
-8.586000 0.000000
-8.560600 0.000000
-8.535100 0.000000
-8.509700 0.000000
-8.484300 0.000000
-8.458800 0.000000
-8.433400 0.000000
-8.408000 0.000000
-8.382500 0.000000
-8.357100 0.000000
-8.331700 0.000000
-8.306200 0.000000
-8.280800 0.000000
-8.255400 0.000000
-8.229900 0.000000
-8.204500 0.000000
-8.179100 0.000000
-8.153600 0.000000
-8.128200 0.000000
-8.102800 0.000000
-8.077300 0.000000
-8.051900 0.000000
-8.026500 0.000000
-8.001000 0.000000
-7.975600 0.000000
-7.950200 0.000000
-7.924700 0.000000
-7.899300 0.000000
-7.873900 0.000000
-7.848400 0.000000
-7.823000 0.000000
-7.797600 0.000000
-7.772100 0.000000
-7.746700 0.000000
-7.721300 0.000000
-7.695800 0.000000
-7.670400 0.000000
-7.645000 0.000000
-7.619500 0.000000
-7.594100 0.000000
-7.568700 0.000000
-7.543200 0.000000
-7.517800 0.000000
-7.492400 0.000000
-7.466900 0.000000
-7.441500 0.000000
-7.416100 0.000000
-7.390600 0.000000
-7.365200 0.000000
-7.339800 0.000000
-7.314300 0.000000
-7.288900 0.000000
-7.263500 0.000000
-7.238000 0.000000
-7.212600 0.000000
-7.187200 0.000000
-7.161700 0.000000
-7.136300 0.000000
-7.110900 0.000000
-7.085400 0.000000
-7.060000 0.000000
-7.034600 0.000000
-7.009100 0.000000
-6.983700 0.000000
-6.958300 0.000000
-6.932800 0.000000
-6.907400 0.000000
-6.882000 0.000000
-6.856500 0.000000
-6.831100 0.000000
-6.805700 0.000000
-6.780200 0.000000
-6.754800 0.000000
-6.729400 0.000000
-6.703900 0.000000
-6.678500 0.000000
-6.653000 0.000000
-6.627600 0.000000
-6.602200 0.000000
-6.576700 0.000000
-6.551300 0.000000
-6.525900 0.000000
-6.500400 0.000000
-6.475000 0.000000
-6.449600 0.000000
-6.424100 0.000000
-6.398700 0.000000
-6.373300 0.000000
-6.347800 0.000000
-6.322400 0.000000
-6.297000 0.000000
-6.271500 0.000000
-6.246100 0.000000
-6.220700 0.000000
-6.195200 0.000000
-6.169800 0.000000
-6.144400 0.000000
-6.118900 0.000000
-6.093500 0.000000
-6.068100 0.000000
-6.042600 0.000000
-6.017200 0.000000
-5.991800 0.000000
-5.966300 0.000000
-5.940900 0.000000
-5.915500 0.000000
-5.890000 0.000000
-5.864600 0.000000
-5.839200 0.000000
-5.813700 0.000000
-5.788300 0.000000
-5.762900 0.000000
-5.737400 0.000000
-5.712000 0.000000
-5.686600 0.000000
-5.661100 0.000000
-5.635700 0.000000
-5.610300 0.000000
-5.584800 0.000000
-5.559400 0.000000
-5.534000 0.000000
-5.508500 0.000000
-5.483100 0.000000
-5.457700 0.000000
-5.432200 0.000000
-5.406800 0.000000
-5.381400 0.000000
-5.355900 0.000000
-5.330500 0.000000
-5.305100 0.000000
-5.279600 0.000000
-5.254200 0.000000
-5.228800 0.000000
-5.203300 0.000000
-5.177900 0.000000
-5.152500 0.000000
-5.127000 0.000000
-5.101600 0.000000
-5.076200 0.000000
-5.050700 0.000000
-5.025300 0.000000
-4.999900 0.000000
-4.974400 0.000000
-4.949000 0.000000
-4.923600 0.000000
-4.898100 0.000000
-4.872700 0.000000
-4.847300 0.000000
-4.821800 0.000000
-4.796400 0.000000
-4.771000 0.000000
-4.745500 0.000000
-4.720100 0.000000
-4.694700 0.000000
-4.669200 0.000000
-4.643800 0.000000
-4.618400 0.000000
-4.592900 0.000000
-4.567500 0.000000
-4.542100 0.000000
-4.516600 0.000000
-4.491200 0.000000
-4.465800 0.000000
-4.440300 0.000000
-4.414900 0.000000
-4.389500 0.000000
-4.364000 0.000000
-4.338600 0.000000
-4.313200 0.000000
-4.287700 0.000000
-4.262300 0.000000
-4.236900 0.000000
-4.211400 0.000000
-4.186000 0.000000
-4.160600 0.000000
-4.135100 0.000000
-4.109700 0.000000
-4.084300 0.000000
-4.058800 0.000000
-4.033400 0.000000
-4.008000 0.000000
-3.982500 0.000000
-3.957100 0.000000
-3.931700 0.000000
-3.906200 0.000000
-3.880800 0.000000
-3.855400 0.000000
-3.829900 0.000000
-3.804500 0.000000
-3.779100 0.000000
-3.753600 0.000000
-3.728200 0.000400
-3.702800 0.002300
-3.677300 0.008700
-3.651900 0.024500
-3.626500 0.056400
-3.601000 0.107000
-3.575600 0.162200
-3.550200 0.200700
-3.524700 0.219100
-3.499300 0.226800
-3.473900 0.240900
-3.448400 0.289300
-3.423000 0.379700
-3.397600 0.468900
-3.372100 0.493000
-3.346700 0.457300
-3.321300 0.441600
-3.295800 0.489200
-3.270400 0.564500
-3.245000 0.645000
-3.219500 0.766500
-3.194100 0.944700
-3.168700 1.140200
-3.143200 1.309100
-3.117800 1.408000
-3.092400 1.387600
-3.066900 1.262800
-3.041500 1.170300
-3.016000 1.285600
-2.990600 1.593800
-2.965200 1.872600
-2.939700 2.011300
-2.914300 2.075300
-2.888900 2.103000
-2.863400 2.167800
-2.838000 2.416800
-2.812600 2.872500
-2.787100 3.422500
-2.761700 3.884900
-2.736300 4.043400
-2.710800 3.889400
-2.685400 3.706500
-2.660000 3.796700
-2.634500 4.152100
-2.609100 4.412700
-2.583700 4.362900
-2.558200 4.309900
-2.532800 4.620800
-2.507400 5.217400
-2.481900 5.773300
-2.456500 6.079600
-2.431100 6.096800
-2.405600 5.969500
-2.380200 5.923000
-2.354800 5.928100
-2.329300 5.911200
-2.303900 5.967400
-2.278500 6.066400
-2.253000 6.181400
-2.227600 6.334300
-2.202200 6.283100
-2.176700 5.845800
-2.151300 5.305800
-2.125900 4.954700
-2.100400 4.673800
-2.075000 4.329200
-2.049600 4.015900
-2.024100 3.830400
-1.998700 3.755200
-1.973300 3.712100
-1.947800 3.600900
-1.922400 3.337900
-1.897000 2.959600
-1.871500 2.616300
-1.846100 2.477100
-1.820700 2.670000
-1.795200 3.184300
-1.769800 3.790200
-1.744400 4.196000
-1.718900 4.304700
-1.693500 4.167000
-1.668100 3.933700
-1.642600 3.962400
-1.617200 4.403000
-1.591800 4.822400
-1.566300 4.890900
-1.540900 4.855300
-1.515500 4.968100
-1.490000 5.228900
-1.464600 5.582400
-1.439200 5.882800
-1.413700 5.941000
-1.388300 5.738000
-1.362900 5.381800
-1.337400 4.870300
-1.312000 4.199300
-1.286600 3.709200
-1.261100 3.751300
-1.235700 4.136400
-1.210300 4.437300
-1.184800 4.494000
-1.159400 4.374000
-1.134000 4.200000
-1.108500 4.086800
-1.083100 4.028700
-1.057700 3.966600
-1.032200 3.901400
-1.006800 3.886700
-0.981400 4.014100
-0.955900 4.293400
-0.930500 4.635000
-0.905100 4.934900
-0.879600 5.019700
-0.854200 4.785500
-0.828800 4.414600
-0.803300 4.202600
-0.777900 4.288000
-0.752500 4.641500
-0.727000 5.124800
-0.701600 5.613800
-0.676200 6.140100
-0.650700 6.784500
-0.625300 7.503500
-0.599900 8.094300
-0.574400 8.269800
-0.549000 7.911500
-0.523600 7.188400
-0.498100 6.303400
-0.472700 5.475600
-0.447300 5.025400
-0.421800 4.963100
-0.396400 4.889200
-0.371000 4.636800
-0.345500 4.455300
-0.320100 4.378900
-0.294700 4.110600
-0.269200 3.640300
-0.243800 3.288600
-0.218400 3.155300
-0.192900 3.080600
-0.167500 3.033300
-0.142100 3.132300
-0.116600 3.299600
-0.091200 3.306300
-0.065800 3.163200
-0.040300 3.063300
-0.014900 3.065600
0.010500 3.076900
0.036000 3.018100
0.061400 2.916900
0.086800 2.985300
0.112300 3.567200
0.137700 4.730200
0.163100 5.996700
0.188600 6.639200
0.214000 6.245200
0.239400 5.170200
0.264900 4.277800
0.290300 4.080000
0.315700 4.292200
0.341200 4.289400
0.366600 3.840200
0.392000 3.234900
0.417500 2.843500
0.442900 2.668600
0.468300 2.399100
0.493800 1.896800
0.519200 1.402500
0.544700 1.168600
0.570100 1.124700
0.595500 1.059700
0.621000 0.921800
0.646400 0.770200
0.671800 0.648800
0.697300 0.587700
0.722700 0.540600
0.748100 0.434400
0.773600 0.349700
0.799000 0.430400
0.824400 0.636300
0.849900 0.778300
0.875300 0.752400
0.900700 0.599800
0.926200 0.430300
0.951600 0.369200
0.977000 0.463100
1.002500 0.606300
1.027900 0.650400
1.053300 0.593600
1.078800 0.544700
1.104200 0.535700
1.129600 0.540500
1.155100 0.593600
1.180500 0.718200
1.205900 0.824400
1.231400 0.812800
1.256800 0.732400
1.282200 0.724800
1.307700 0.894200
1.333100 1.231400
1.358500 1.535000
1.384000 1.584100
1.409400 1.450700
1.434800 1.387800
1.460300 1.455600
1.485700 1.507600
1.511100 1.487600
1.536600 1.451000
1.562000 1.452800
1.587400 1.568600
1.612900 1.750700
1.638300 1.823900
1.663700 1.742600
1.689200 1.538600
1.714600 1.207000
1.740000 0.887300
1.765500 0.812200
1.790900 0.973700
1.816300 1.138200
1.841800 1.209000
1.867200 1.265400
1.892600 1.326100
1.918100 1.355400
1.943500 1.345200
1.968900 1.276200
1.994400 1.163200
2.019800 1.142000
2.045200 1.306700
2.070700 1.512400
2.096100 1.585300
2.121500 1.576300
2.147000 1.630000
2.172400 1.738600
2.197800 1.721900
2.223300 1.488200
2.248700 1.199300
2.274100 1.048300
2.299600 1.034400
2.325000 1.042500
2.350400 1.005400
2.375900 0.929700
2.401300 0.845800
2.426700 0.762400
2.452200 0.690300
2.477600 0.690600
2.503000 0.758000
2.528500 0.793400
2.553900 0.770600
2.579300 0.713600
2.604800 0.610100
2.630200 0.476800
2.655600 0.360500
2.681100 0.286500
2.706500 0.280100
2.731900 0.372000
2.757400 0.545200
2.782800 0.705400
2.808200 0.756700
2.833700 0.742500
2.859100 0.828200
2.884500 1.044900
2.910000 1.171100
2.935400 1.037700
2.960800 0.772500
2.986300 0.597200
3.011700 0.597900
3.037100 0.696200
3.062600 0.729200
3.088000 0.635400
3.113400 0.521200
3.138900 0.483300
3.164300 0.511300
3.189700 0.565600
3.215200 0.657000
3.240600 0.805900
3.266000 0.943100
3.291500 0.980500
3.316900 0.918200
3.342300 0.798300
3.367800 0.682500
3.393200 0.637300
3.418600 0.672500
3.444100 0.753900
3.469500 0.837400
3.494900 0.899300
3.520400 0.941300
3.545800 0.948200
3.571200 0.916300
3.596700 0.852400
3.622100 0.744700
3.647500 0.632200
3.673000 0.602100
3.698400 0.646400
3.723800 0.642700
3.749300 0.560000
3.774700 0.506100
3.800100 0.511900
3.825600 0.490600
3.851000 0.408800
3.876400 0.341100
3.901900 0.343600
3.927300 0.352200
3.952700 0.302900
3.978200 0.244600
4.003600 0.227200
4.029000 0.225900
4.054500 0.221200
4.079900 0.219500
4.105400 0.206600
4.130800 0.186300
4.156200 0.210400
4.181700 0.280500
4.207100 0.311900
4.232500 0.279200
4.258000 0.270800
4.283400 0.325100
4.308800 0.371200
4.334300 0.373400
4.359700 0.370900
4.385100 0.371000
4.410600 0.339900
4.436000 0.265700
4.461400 0.180900
4.486900 0.134700
4.512300 0.163500
4.537700 0.262500
4.563200 0.356100
4.588600 0.374700
4.614000 0.343400
4.639500 0.307300
4.664900 0.270900
4.690300 0.279800
4.715800 0.410900
4.741200 0.616600
4.766600 0.745600
4.792100 0.763200
4.817500 0.785500
4.842900 0.858000
4.868400 0.894100
4.893800 0.887000
4.919200 0.921600
4.944700 1.006300
4.970100 1.122100
4.995500 1.235100
5.021000 1.217900
5.046400 1.034400
5.071800 0.866200
5.097300 0.841400
5.122700 0.875900
5.148100 0.875600
5.173600 0.881300
5.199000 0.967900
5.224400 1.074100
5.249900 1.053600
5.275300 0.896500
5.300700 0.772900
5.326200 0.803500
5.351600 0.897800
5.377000 0.924900
5.402500 0.920600
5.427900 0.985700
5.453300 1.077900
5.478800 1.047800
5.504200 0.867900
5.529600 0.651500
5.555100 0.462700
5.580500 0.306300
5.605900 0.216900
5.631400 0.217700
5.656800 0.262600
5.682200 0.290400
5.707700 0.289500
5.733100 0.264100
5.758500 0.237200
5.784000 0.247200
5.809400 0.261300
5.834800 0.226900
5.860300 0.177700
5.885700 0.156900
5.911100 0.140000
5.936600 0.105700
5.962000 0.084000
5.987400 0.110700
6.012900 0.182100
6.038300 0.262700
6.063700 0.322700
6.089200 0.334100
6.114600 0.282400
6.140000 0.210700
6.165500 0.166700
6.190900 0.145300
6.216300 0.141400
6.241800 0.179800
6.267200 0.268000
6.292600 0.372500
6.318100 0.436700
6.343500 0.441600
6.368900 0.442000
6.394400 0.456900
6.419800 0.426800
6.445200 0.345100
6.470700 0.264700
6.496100 0.203400
6.521500 0.151100
6.547000 0.115000
6.572400 0.121700
6.597800 0.194600
6.623300 0.303500
6.648700 0.355700
6.674100 0.295800
6.699600 0.188700
6.725000 0.151700
6.750400 0.238700
6.775900 0.427900
6.801300 0.684700
6.826700 0.976900
6.852200 1.239200
6.877600 1.376600
6.903000 1.311700
6.928500 1.057500
6.953900 0.768900
6.979300 0.625100
7.004800 0.658900
7.030200 0.773400
7.055600 0.860500
7.081100 0.895400
7.106500 0.925400
7.131900 0.966200
7.157400 0.948200
7.182800 0.807200
7.208200 0.626800
7.233700 0.561800
7.259100 0.609900
7.284500 0.632000
7.310000 0.584000
7.335400 0.517900
7.360800 0.478400
7.386300 0.512100
7.411700 0.621200
7.437100 0.750800
7.462600 0.853900
7.488000 0.898200
7.513400 0.910500
7.538900 0.974800
7.564300 1.065600
7.589700 1.025500
7.615200 0.786100
7.640600 0.471000
7.666000 0.242800
7.691500 0.162000
7.716900 0.197900
7.742400 0.284100
7.767800 0.347500
7.793200 0.358300
7.818700 0.355600
7.844100 0.366700
7.869500 0.358400
7.895000 0.321100
7.920400 0.310600
7.945800 0.392200
7.971300 0.583400
7.996700 0.789500
8.022100 0.882300
8.047600 0.865000
8.073000 0.782100
8.098400 0.637000
8.123900 0.485600
8.149300 0.401700
8.174700 0.422100
8.200200 0.567900
8.225600 0.798000
8.251000 0.979300
8.276500 0.998500
8.301900 0.872200
8.327300 0.719200
8.352800 0.660800
8.378200 0.694600
8.403600 0.691500
8.429100 0.576900
8.454500 0.448400
8.479900 0.456800
8.505400 0.597800
8.530800 0.732300
8.556200 0.764300
8.581700 0.698400
8.607100 0.583400
8.632500 0.441100
8.658000 0.286400
8.683400 0.179300
8.708800 0.180400
8.734300 0.308200
8.759700 0.551300
8.785100 0.825500
8.810600 0.977400
8.836000 0.948500
8.861400 0.849000
8.886900 0.791800
8.912300 0.753400
8.937700 0.664800
8.963200 0.552200
8.988600 0.478900
9.014000 0.433300
9.039500 0.397200
9.064900 0.407900
9.090300 0.479000
9.115800 0.574700
9.141200 0.650200
9.166600 0.711900
9.192100 0.822800
9.217500 0.958300
9.242900 1.050300
9.268400 1.143300
9.293800 1.216600
9.319200 1.114000
9.344700 0.847800
9.370100 0.607600
9.395500 0.453100
9.421000 0.333700
9.446400 0.268600
9.471800 0.288700
9.497300 0.353800
9.522700 0.407900
9.548100 0.469000
9.573600 0.616900
9.599000 0.830200
9.624400 0.939600
9.649900 0.868400
9.675300 0.750800
9.700700 0.695700
9.726200 0.622100
9.751600 0.473200
9.777000 0.356000
9.802500 0.332900
9.827900 0.328000
9.853300 0.317800
9.878800 0.388900
9.904200 0.548100
9.929600 0.667100
9.955100 0.675300
9.980500 0.660600
10.005900 0.727600
10.031400 0.861200
10.056800 0.953600
10.082200 0.971500
10.107700 1.022100
10.133100 1.170500
10.158500 1.330500
10.184000 1.386300
10.209400 1.302200
10.234800 1.096300
10.260300 0.840800
10.285700 0.660100
10.311100 0.608800
10.336600 0.640000
10.362000 0.699500
10.387400 0.729400
10.412900 0.684300
10.438300 0.592000
10.463700 0.514600
10.489200 0.462200
10.514600 0.412600
10.540000 0.385500
10.565500 0.421900
10.590900 0.519600
10.616300 0.643600
10.641800 0.720400
10.667200 0.654300
10.692600 0.508200
10.718100 0.472300
10.743500 0.618600
10.768900 0.872400
10.794400 1.078800
10.819800 1.081800
10.845200 0.894300
10.870700 0.700900
10.896100 0.639400
10.921500 0.690000
10.947000 0.772200
10.972400 0.806000
10.997800 0.731400
11.023300 0.590000
11.048700 0.518100
11.074100 0.589100
11.099600 0.719700
11.125000 0.774800
11.150400 0.723300
11.175900 0.642100
11.201300 0.600200
11.226700 0.626300
11.252200 0.715300
11.277600 0.789500
11.303100 0.791400
11.328500 0.742500
11.353900 0.654000
11.379400 0.535600
11.404800 0.460000
11.430200 0.475000
11.455700 0.515300
11.481100 0.511300
11.506500 0.486000
11.532000 0.498100
11.557400 0.547800
11.582800 0.568100
11.608300 0.554500
11.633700 0.601800
11.659100 0.736200
11.684600 0.862900
11.710000 0.884100
11.735400 0.787300
11.760900 0.679100
11.786300 0.680300
11.811700 0.789800
11.837200 0.885400
11.862600 0.849900
11.888000 0.723100
11.913500 0.617600
11.938900 0.561300
11.964300 0.537200
11.989800 0.567200
12.015200 0.661000
12.040600 0.734900
12.066100 0.732400
12.091500 0.735500
12.116900 0.779900
12.142400 0.764300
12.167800 0.664700
12.193200 0.587700
12.218700 0.567900
12.244100 0.543800
12.269500 0.505800
12.295000 0.482000
12.320400 0.478000
12.345800 0.515800
12.371300 0.622200
12.396700 0.774300
12.422100 0.898200
12.447600 0.940400
12.473000 0.912000
12.498400 0.857100
12.523900 0.830700
12.549300 0.824900
12.574700 0.754700
12.600200 0.583600
12.625600 0.381200
12.651000 0.267200
12.676500 0.290300
12.701900 0.384900
12.727300 0.499600
12.752800 0.673000
12.778200 0.891800
12.803600 1.003000
12.829100 0.900500
12.854500 0.671600
12.879900 0.500400
12.905400 0.482400
12.930800 0.541400
12.956200 0.571800
12.981700 0.560400
13.007100 0.531900
13.032500 0.496300
13.058000 0.452800
13.083400 0.424700
13.108800 0.439600
13.134300 0.460600
13.159700 0.442100
13.185100 0.440000
13.210600 0.531300
13.236000 0.659400
13.261400 0.725800
13.286900 0.735100
13.312300 0.712100
13.337700 0.661200
13.363200 0.611500
13.388600 0.578200
13.414000 0.548300
13.439500 0.537900
13.464900 0.580600
13.490300 0.665100
13.515800 0.711600
13.541200 0.631900
13.566600 0.457900
13.592100 0.323500
13.617500 0.302600
13.642900 0.346900
13.668400 0.374700
13.693800 0.378900
13.719200 0.439000
13.744700 0.599600
13.770100 0.739700
13.795500 0.696000
13.821000 0.505000
13.846400 0.337300
13.871800 0.275100
13.897300 0.304500
13.922700 0.408100
13.948100 0.531900
13.973600 0.583800
13.999000 0.547000
14.024400 0.510500
14.049900 0.527700
14.075300 0.550400
14.100700 0.571500
14.126200 0.647300
14.151600 0.759700
14.177000 0.797600
14.202500 0.694600
14.227900 0.538700
14.253300 0.455600
14.278800 0.428600
14.304200 0.381600
14.329600 0.330100
14.355100 0.328700
14.380500 0.385700
14.405900 0.460000
14.431400 0.494400
14.456800 0.493700
14.482200 0.511900
14.507700 0.545700
14.533100 0.554900
14.558500 0.529600
14.584000 0.508200
14.609400 0.546300
14.634800 0.626800
14.660300 0.673800
14.685700 0.689800
14.711100 0.766500
14.736600 0.911700
14.762000 0.975300
14.787400 0.854000
14.812900 0.651300
14.838300 0.522300
14.863800 0.503800
14.889200 0.549800
14.914600 0.626500
14.940100 0.711600
14.965500 0.767700
14.990900 0.774900
15.016400 0.765500
15.041800 0.775100
15.067200 0.759200
15.092700 0.655500
15.118100 0.526200
15.143500 0.490700
15.169000 0.535300
15.194400 0.551100
15.219800 0.548300
15.245300 0.654500
15.270700 0.850000
15.296100 0.912900
15.321600 0.750700
15.347000 0.537200
15.372400 0.423200
15.397900 0.379000
15.423300 0.371500
15.448700 0.456200
15.474200 0.643800
15.499600 0.867600
15.525000 1.100200
15.550500 1.377100
15.575900 1.707300
15.601300 2.010100
15.626800 2.142000
15.652200 2.040600
15.677600 1.822300
15.703100 1.639600
15.728500 1.531300
15.753900 1.463200
15.779400 1.409800
15.804800 1.373800
15.830200 1.348300
15.855700 1.293900
15.881100 1.219000
15.906500 1.164100
15.932000 1.115600
15.957400 1.037300
15.982800 0.920500
16.008300 0.802900
16.033700 0.758000
16.059100 0.828900
16.084600 0.947000
16.110000 1.042700
16.135400 1.179700
16.160900 1.347900
16.186300 1.350800
16.211700 1.125300
16.237200 0.875900
16.262600 0.761500
16.288000 0.744400
16.313500 0.769100
16.338900 0.812000
16.364300 0.797600
16.389800 0.685500
16.415200 0.538000
16.440600 0.420300
16.466100 0.358400
16.491500 0.360500
16.516900 0.426300
16.542400 0.550300
16.567800 0.674200
16.593200 0.718200
16.618700 0.713400
16.644100 0.757900
16.669500 0.857000
16.695000 0.916800
16.720400 0.897100
16.745800 0.854300
16.771300 0.779900
16.796700 0.627000
16.822100 0.483000
16.847600 0.470500
16.873000 0.584200
16.898400 0.736400
16.923900 0.882600
16.949300 1.068900
16.974700 1.311800
17.000200 1.460000
17.025600 1.387400
17.051000 1.188600
17.076500 1.049200
17.101900 1.082000
17.127300 1.211500
17.152800 1.223200
17.178200 1.067600
17.203600 0.929200
17.229100 0.930700
17.254500 1.017300
17.279900 1.094500
17.305400 1.135200
17.330800 1.131800
17.356200 1.026000
17.381700 0.863800
17.407100 0.837600
17.432500 0.985700
17.458000 1.101000
17.483400 1.074200
17.508800 0.960900
17.534300 0.759000
17.559700 0.514600
17.585100 0.373700
17.610600 0.375500
17.636000 0.429300
17.661400 0.453100
17.686900 0.453900
17.712300 0.480000
17.737700 0.537000
17.763200 0.592900
17.788600 0.613500
17.814000 0.581400
17.839500 0.504700
17.864900 0.433200
17.890300 0.441800
17.915800 0.552500
17.941200 0.698100
17.966600 0.770700
17.992100 0.733400
18.017500 0.664200
18.042900 0.642500
18.068400 0.680400
18.093800 0.750200
18.119200 0.777400
18.144700 0.710400
18.170100 0.624200
18.195500 0.628100
18.221000 0.706500
18.246400 0.742400
18.271800 0.708100
18.297300 0.695200
18.322700 0.730500
18.348100 0.742400
18.373600 0.688000
18.399000 0.610700
18.424400 0.568700
18.449900 0.555500
18.475300 0.567100
18.500800 0.634200
18.526200 0.736100
18.551600 0.820600
18.577100 0.866100
18.602500 0.882300
18.627900 0.928300
18.653400 1.091000
18.678800 1.351100
18.704200 1.505600
18.729700 1.382200
18.755100 1.093200
18.780500 0.872500
18.806000 0.792200
18.831400 0.835000
18.856800 0.990400
18.882300 1.132800
18.907700 1.105600
18.933100 0.969900
18.958600 0.920900
18.984000 1.032100
19.009400 1.207700
19.034900 1.317100
19.060300 1.283600
19.085700 1.095900
19.111200 0.834400
19.136600 0.637200
19.162000 0.593800
19.187500 0.679700
19.212900 0.836100
19.238300 1.042100
19.263800 1.204500
19.289200 1.192700
19.314600 1.051800
19.340100 0.951000
19.365500 0.966700
19.390900 1.033600
19.416400 1.091600
19.441800 1.155600
19.467200 1.194200
19.492700 1.143200
19.518100 1.050700
19.543500 1.043400
19.569000 1.163700
19.594400 1.310300
19.619800 1.350800
19.645300 1.237000
19.670700 1.014300
19.696100 0.818600
19.721600 0.779300
19.747000 0.862100
19.772400 0.928200
19.797900 0.890700
19.823300 0.766700
19.848700 0.642700
19.874200 0.571100
19.899600 0.568300
19.925000 0.646800
19.950500 0.738200
19.975900 0.785300
20.001300 0.899100
20.026800 1.184600
20.052200 1.490800
20.077600 1.553100
20.103100 1.353900
20.128500 1.087900
20.153900 0.862700
20.179400 0.683900
20.204800 0.575300
20.230200 0.566400
20.255700 0.653800
20.281100 0.787500
20.306500 0.886000
20.332000 0.904100
20.357400 0.872000
20.382800 0.844000
20.408300 0.832400
20.433700 0.833700
20.459100 0.872400
20.484600 0.982700
20.510000 1.145200
20.535400 1.256400
20.560900 1.238100
20.586300 1.133700
20.611700 1.057700
20.637200 1.077800
20.662600 1.127500
20.688000 1.101900
20.713500 1.035000
20.738900 1.060000
20.764300 1.242400
20.789800 1.484300
20.815200 1.618500
20.840600 1.613800
20.866100 1.538200
20.891500 1.473100
20.916900 1.518600
20.942400 1.642700
20.967800 1.661100
20.993200 1.515500
21.018700 1.364600
21.044100 1.333000
21.069500 1.400800
21.095000 1.519900
21.120400 1.620900
21.145800 1.599500
21.171300 1.411100
21.196700 1.195400
21.222100 1.168600
21.247600 1.358600
21.273000 1.629000
21.298400 1.851000
21.323900 1.921300
21.349300 1.774200
21.374700 1.496600
21.400200 1.261300
21.425600 1.120500
21.451000 1.026300
21.476500 0.966700
21.501900 0.974200
21.527300 1.041300
21.552800 1.094900
21.578200 1.072200
21.603600 0.987300
21.629100 0.921700
21.654500 0.924500
21.679900 0.998500
21.705400 1.115200
21.730800 1.176800
21.756200 1.123100
21.781700 1.036700
21.807100 1.080300
21.832500 1.309200
21.858000 1.557100
21.883400 1.632600
21.908800 1.534700
21.934300 1.362600
21.959700 1.176500
21.985100 1.014500
22.010600 0.915900
22.036000 0.875400
22.061500 0.863700
22.086900 0.911700
22.112300 1.076500
22.137800 1.304700
22.163200 1.484100
22.188600 1.588400
22.214100 1.608300
22.239500 1.516200
22.264900 1.403000
22.290400 1.392300
22.315800 1.446100
22.341200 1.469400
22.366700 1.457500
22.392100 1.408300
22.417500 1.245400
22.443000 1.008000
22.468400 0.868200
22.493800 0.859300
22.519300 0.904000
22.544700 0.975000
22.570100 1.053400
22.595600 1.115000
22.621000 1.162200
22.646400 1.184900
22.671900 1.152100
22.697300 1.093200
22.722700 1.142300
22.748200 1.354400
22.773600 1.605700
22.799000 1.806300
22.824500 1.927500
22.849900 1.912500
22.875300 1.798900
22.900800 1.654800
22.926200 1.500800
22.951600 1.403400
22.977100 1.376900
23.002500 1.400100
23.027900 1.458300
23.053400 1.467700
23.078800 1.460700
23.104200 1.541700
23.129700 1.604300
23.155100 1.498800
23.180500 1.312800
23.206000 1.231100
23.231400 1.266400
23.256800 1.320000
23.282300 1.331900
23.307700 1.263100
23.333100 1.154000
23.358600 1.153900
23.384000 1.341700
23.409400 1.581100
23.434900 1.698100
23.460300 1.710100
23.485700 1.700400
23.511200 1.632700
23.536600 1.479600
23.562000 1.326900
23.587500 1.219800
23.612900 1.144400
23.638300 1.110700
23.663800 1.104600
23.689200 1.099500
23.714600 1.092100
23.740100 1.064500
23.765500 1.009400
23.790900 0.961500
23.816400 0.967100
23.841800 1.028800
23.867200 1.055000
23.892700 1.013600
23.918100 1.040900
23.943500 1.198500
23.969000 1.310300
23.994400 1.209800
24.019800 0.981400
24.045300 0.818300
24.070700 0.794600
24.096100 0.864600
24.121600 0.925500
24.147000 0.874700
24.172400 0.728600
24.197900 0.643000
24.223300 0.744400
24.248700 0.943700
24.274200 0.997400
24.299600 0.818400
24.325000 0.619900
24.350500 0.646200
24.375900 0.876600
24.401300 1.097200
24.426800 1.182800
24.452200 1.180900
24.477600 1.156300
24.503100 1.101400
24.528500 1.062800
24.553900 1.160900
24.579400 1.384900
24.604800 1.576200
24.630200 1.614400
24.655700 1.467300
24.681100 1.206600
24.706500 1.026000
24.732000 1.003000
24.757400 0.971500
24.782800 0.833900
24.808300 0.733000
24.833700 0.803100
24.859100 0.960000
24.884600 1.015200
24.910000 0.946100
24.935400 0.923700
24.960900 1.007200
24.986300 1.021300
25.011700 0.860200
25.037200 0.646000
25.062600 0.530100
25.088000 0.538700
25.113500 0.594700
25.138900 0.617700
25.164300 0.604000
25.189800 0.597500
25.215200 0.602200
25.240600 0.589300
25.266100 0.536800
25.291500 0.442100
25.316900 0.368700
25.342400 0.402500
25.367800 0.527700
25.393200 0.638500
25.418700 0.662900
25.444100 0.607900
25.469500 0.534700
25.495000 0.511300
25.520400 0.549600
25.545800 0.610900
25.571300 0.656300
25.596700 0.686700
25.622200 0.739900
25.647600 0.841400
25.673000 0.978200
25.698500 1.088200
25.723900 1.105500
25.749300 1.035400
25.774800 0.952800
25.800200 0.966400
25.825600 1.114700
25.851100 1.290000
25.876500 1.406100
25.901900 1.493700
25.927400 1.550200
25.952800 1.540600
25.978200 1.534400
26.003700 1.608500
26.029100 1.699200
26.054500 1.712700
26.080000 1.620200
26.105400 1.434400
26.130800 1.259800
26.156300 1.247500
26.181700 1.414900
26.207100 1.649300
26.232600 1.809400
26.258000 1.746600
26.283400 1.467000
26.308900 1.212800
26.334300 1.178100
26.359700 1.283300
26.385200 1.348600
26.410600 1.291900
26.436000 1.113700
26.461500 0.918700
26.486900 0.869300
26.512300 0.996400
26.537800 1.165500
26.563200 1.221500
26.588600 1.159800
26.614100 1.120500
26.639500 1.162800
26.664900 1.190300
26.690400 1.169400
26.715800 1.205300
26.741200 1.344500
26.766700 1.503500
26.792100 1.558100
26.817500 1.439800
26.843000 1.237000
26.868400 1.126100
26.893800 1.205500
26.919300 1.445100
26.944700 1.685900
26.970100 1.743600
26.995600 1.557000
27.021000 1.271000
27.046400 1.137900
27.071900 1.176600
27.097300 1.162200
27.122700 1.015000
27.148200 0.901700
27.173600 0.976000
27.199000 1.180300
27.224500 1.335000
27.249900 1.388100
27.275300 1.391800
27.300800 1.351000
27.326200 1.328300
27.351600 1.434200
27.377100 1.611100
27.402500 1.685800
27.427900 1.573200
27.453400 1.323400
27.478800 1.097300
27.504200 1.100200
27.529700 1.371400
27.555100 1.635600
27.580500 1.626500
27.606000 1.455700
27.631400 1.378600
27.656800 1.439900
27.682300 1.522400
27.707700 1.519100
27.733100 1.396800
27.758600 1.206600
27.784000 1.053800
27.809400 1.027600
27.834900 1.139900
27.860300 1.290200
27.885700 1.338600
27.911200 1.246300
27.936600 1.078400
27.962000 0.915000
27.987500 0.809800
28.012900 0.766200
28.038300 0.777200
28.063800 0.887100
28.089200 1.061000
28.114600 1.150300
28.140100 1.120500
28.165500 1.093800
28.190900 1.135400
28.216400 1.191000
28.241800 1.215000
28.267200 1.236100
28.292700 1.317800
28.318100 1.446000
28.343500 1.466400
28.369000 1.257100
28.394400 0.960700
28.419800 0.844800
28.445300 0.972700
28.470700 1.194900
28.496100 1.336800
28.521600 1.316900
28.547000 1.187300
28.572400 1.063800
28.597900 1.016700
28.623300 1.033800
28.648700 1.050200
28.674200 1.026100
28.699600 0.984000
28.725000 0.965600
28.750500 0.982100
28.775900 1.032700
28.801300 1.139300
28.826800 1.285000
28.852200 1.358900
28.877600 1.270000
28.903100 1.129800
28.928500 1.129200
28.953900 1.247100
28.979400 1.307600
29.004800 1.247500
29.030200 1.173100
29.055700 1.231600
29.081100 1.451700
29.106500 1.709900
29.132000 1.928100
29.157400 2.120900
29.182800 2.218500
29.208300 2.126400
29.233700 1.876700
29.259200 1.598700
29.284600 1.409800
29.310000 1.353800
29.335500 1.384900
29.360900 1.430600
29.386300 1.502000
29.411800 1.618600
29.437200 1.677800
29.462600 1.605800
29.488100 1.480200
29.513500 1.350000
29.538900 1.233200
29.564400 1.209400
29.589800 1.237400
29.615200 1.164500
29.640700 0.970400
29.666100 0.780500
29.691500 0.724100
29.717000 0.847600
29.742400 1.093800
29.767800 1.318600
29.793300 1.392900
29.818700 1.344700
29.844100 1.299800
29.869600 1.289600
29.895000 1.261200
29.920400 1.223800
29.945900 1.250200
29.971300 1.390000
29.996700 1.603000
30.022200 1.712800
30.047600 1.579800
30.073000 1.335700
30.098500 1.236600
30.123900 1.339200
30.149300 1.501900
30.174800 1.640100
30.200200 1.732100
30.225600 1.680600
30.251100 1.436000
30.276500 1.144400
30.301900 1.016900
30.327400 1.145400
30.352800 1.436400
30.378200 1.625600
30.403700 1.535500
30.429100 1.287700
30.454500 1.105700
30.480000 1.058400
30.505400 1.078100
30.530800 1.072300
30.556300 0.992100
30.581700 0.870100
30.607100 0.758700
30.632600 0.720300
30.658000 0.844300
30.683400 1.067700
30.708900 1.122500
30.734300 0.899600
30.759700 0.638700
30.785200 0.603400
30.810600 0.817700
30.836000 1.125300
30.861500 1.353000
30.886900 1.384600
30.912300 1.206700
30.937800 0.978500
30.963200 0.915100
30.988600 1.078100
31.014100 1.371400
31.039500 1.652300
31.064900 1.762000
31.090400 1.640700
31.115800 1.466400
31.141200 1.406100
31.166700 1.376300
31.192100 1.264100
31.217500 1.097000
31.243000 0.948600
31.268400 0.860600
31.293800 0.832000
31.319300 0.841400
31.344700 0.855000
31.370100 0.844000
31.395600 0.850300
31.421000 0.945300
31.446400 1.127400
31.471900 1.313200
31.497300 1.421600
31.522700 1.451300
31.548200 1.429400
31.573600 1.362600
31.599000 1.254400
31.624500 1.129500
31.649900 1.056200
31.675300 1.071000
31.700800 1.159900
31.726200 1.332000
31.751600 1.499700
31.777100 1.514900
31.802500 1.440400
31.827900 1.421300
31.853400 1.459700
31.878800 1.512500
31.904200 1.572300
31.929700 1.568400
31.955100 1.446600
31.980500 1.339800
32.006000 1.370500
32.031400 1.458300
32.056800 1.488500
32.082300 1.464400
32.107700 1.412100
32.133100 1.341000
32.158600 1.304000
32.184000 1.265200
32.209400 1.142800
32.234900 1.038200
32.260300 1.044500
32.285700 1.054100
32.311200 1.014000
32.336600 1.002400
32.362000 1.026400
32.387500 1.039900
32.412900 1.047100
32.438300 1.076300
32.463800 1.131600
32.489200 1.157000
32.514600 1.077300
32.540100 0.899200
32.565500 0.723300
32.590900 0.669900
32.616400 0.789300
32.641800 1.001500
32.667200 1.149900
32.692700 1.169800
32.718100 1.152000
32.743500 1.194900
32.769000 1.267800
32.794400 1.299100
32.819900 1.315200
32.845300 1.363300
32.870700 1.382300
32.896200 1.309900
32.921600 1.228600
32.947000 1.229900
32.972500 1.268800
32.997900 1.307700
33.023300 1.392100
33.048800 1.484800
33.074200 1.480500
33.099600 1.350200
33.125100 1.128500
33.150500 0.896000
33.175900 0.744900
33.201400 0.686800
33.226800 0.730600
33.252200 0.913100
33.277700 1.132600
33.303100 1.201900
33.328500 1.106500
33.354000 0.984500
33.379400 0.878000
33.404800 0.734800
33.430300 0.595200
33.455700 0.587100
33.481100 0.745200
33.506600 0.927700
33.532000 0.979100
33.557400 0.917300
33.582900 0.857200
33.608300 0.854900
33.633700 0.927900
33.659200 1.100200
33.684600 1.329000
33.710000 1.465800
33.735500 1.409200
33.760900 1.236900
33.786300 1.058700
33.811800 0.919300
33.837200 0.857700
33.862600 0.844500
33.888100 0.772500
33.913500 0.607800
33.938900 0.431900
33.964400 0.341800
33.989800 0.376300
34.015200 0.493900
34.040700 0.566500
34.066100 0.512100
34.091500 0.431300
34.117000 0.444900
34.142400 0.504800
34.167800 0.511100
34.193300 0.452500
34.218700 0.369500
34.244100 0.304300
34.269600 0.275500
34.295000 0.264300
34.320400 0.256200
34.345900 0.260800
34.371300 0.302600
34.396700 0.397600
34.422200 0.508800
34.447600 0.574900
34.473000 0.579000
34.498500 0.562600
34.523900 0.564400
34.549300 0.557000
34.574800 0.524400
34.600200 0.515300
34.625600 0.529300
34.651100 0.494600
34.676500 0.387900
34.701900 0.269000
34.727400 0.209400
34.752800 0.218500
34.778200 0.232100
34.803700 0.208800
34.829100 0.190400
34.854500 0.207100
34.880000 0.218900
34.905400 0.201900
34.930800 0.184800
34.956300 0.172700
34.981700 0.153800
35.007100 0.149800
35.032600 0.168500
35.058000 0.179900
35.083400 0.182700
35.108900 0.218800
35.134300 0.288300
35.159700 0.327300
35.185200 0.299800
35.210600 0.249200
35.236000 0.244200
35.261500 0.301500
35.286900 0.349100
35.312300 0.302100
35.337800 0.194200
35.363200 0.121400
35.388600 0.118300
35.414100 0.148100
35.439500 0.160800
35.464900 0.148800
35.490400 0.137200
35.515800 0.140400
35.541200 0.143500
35.566700 0.130500
35.592100 0.127700
35.617500 0.167100
35.643000 0.220500
35.668400 0.220400
35.693800 0.154100
35.719300 0.081700
35.744700 0.042200
35.770100 0.022800
35.795600 0.009900
35.821000 0.002800
35.846400 0.000500
35.871900 0.000100
35.897300 0.000000
35.922700 0.000200
35.948200 0.001800
35.973600 0.009100
35.999000 0.028100
36.024500 0.054500
36.049900 0.068300
36.075300 0.057400
36.100800 0.033900
36.126200 0.014300
36.151600 0.004300
36.177100 0.000900
36.202500 0.000100
36.227900 0.000000
36.253400 0.000000
36.278800 0.000000
36.304200 0.000000
36.329700 0.000000
36.355100 0.000000
36.380600 0.000000
36.406000 0.000000
36.431400 0.000000
36.456900 0.000000
36.482300 0.000000
36.507700 0.000000
36.533200 0.000000
36.558600 0.000000
36.584000 0.000000
36.609500 0.000000
36.634900 0.000000
36.660300 0.000000
36.685800 0.000000
36.711200 0.000000
36.736600 0.000000
36.762100 0.000000
36.787500 0.000000
36.812900 0.000000
36.838400 0.000000
36.863800 0.000000
36.889200 0.000000
36.914700 0.000000
36.940100 0.000000
36.965500 0.000000
36.991000 0.000000
37.016400 0.000000
37.041800 0.000000
37.067300 0.000000
37.092700 0.000000
37.118100 0.000000
37.143600 0.000000
37.169000 0.000000
37.194400 0.000000
37.219900 0.000000
37.245300 0.000000
37.270700 0.000000
37.296200 0.000000
37.321600 0.000000
37.347000 0.000000
37.372500 0.000000
37.397900 0.000000
37.423300 0.000000
37.448800 0.000000
37.474200 0.000000
37.499600 0.000000
37.525100 0.000000
37.550500 0.000000
37.575900 0.000000
37.601400 0.000000
37.626800 0.000000
37.652200 0.000000
37.677700 0.000000
37.703100 0.000000
37.728500 0.000000
37.754000 0.000000
37.779400 0.000000
37.804800 0.000000
37.830300 0.000000
37.855700 0.000000
37.881100 0.000000
37.906600 0.000000
37.932000 0.000000
37.957400 0.000000
37.982900 0.000000
38.008300 0.000000
38.033700 0.000000
38.059200 0.000000
38.084600 0.000000
38.110000 0.000000
38.135500 0.000000
38.160900 0.000000
38.186300 0.000000
38.211800 0.000000
38.237200 0.000000
38.262600 0.000000
38.288100 0.000000
38.313500 0.000000
38.338900 0.000000
38.364400 0.000000
38.389800 0.000000
e
