set title 'mp-1184013 - Density of States'
set xlabel 'Energy (eV)'
set ylabel 'DOS (states/eV)'
set grid
set xrange [-10:10]
set yrange [0:31.077]
set xzeroaxis lt -1
set terminal png size 800,600
set output 'mp-1184013_dos_gnuplot.png'
plot '-' using 1:2 with lines title 'DOS'
-14.688000 0.000000
-14.667800 0.000000
-14.647600 0.000000
-14.627400 0.000000
-14.607200 0.000000
-14.587000 0.000000
-14.566800 0.000000
-14.546600 0.000000
-14.526500 0.000000
-14.506300 0.000000
-14.486100 0.000000
-14.465900 0.000000
-14.445700 0.000000
-14.425500 0.000000
-14.405300 0.000000
-14.385200 0.000000
-14.365000 0.000000
-14.344800 0.000000
-14.324600 0.000000
-14.304400 0.000000
-14.284200 0.000000
-14.264000 0.000000
-14.243800 0.000000
-14.223700 0.000000
-14.203500 0.000000
-14.183300 0.000000
-14.163100 0.000000
-14.142900 0.000000
-14.122700 0.000000
-14.102500 0.000000
-14.082300 0.000000
-14.062200 0.000000
-14.042000 0.000000
-14.021800 0.000000
-14.001600 0.000000
-13.981400 0.000000
-13.961200 0.000000
-13.941000 0.000000
-13.920900 0.000000
-13.900700 0.000000
-13.880500 0.000000
-13.860300 0.000000
-13.840100 0.000000
-13.819900 0.000000
-13.799700 0.000000
-13.779500 0.000000
-13.759400 0.000000
-13.739200 0.000000
-13.719000 0.000000
-13.698800 0.000000
-13.678600 0.000000
-13.658400 0.000000
-13.638200 0.000000
-13.618100 0.000000
-13.597900 0.000000
-13.577700 0.000000
-13.557500 0.000000
-13.537300 0.000000
-13.517100 0.000000
-13.496900 0.000000
-13.476700 0.000000
-13.456600 0.000000
-13.436400 0.000000
-13.416200 0.000000
-13.396000 0.000000
-13.375800 0.000000
-13.355600 0.000000
-13.335400 0.000000
-13.315200 0.000000
-13.295100 0.000000
-13.274900 0.000000
-13.254700 0.000000
-13.234500 0.000000
-13.214300 0.000000
-13.194100 0.000000
-13.173900 0.000000
-13.153800 0.000000
-13.133600 0.000000
-13.113400 0.000000
-13.093200 0.000000
-13.073000 0.000000
-13.052800 0.000000
-13.032600 0.000000
-13.012400 0.000600
-12.992300 0.008100
-12.972100 0.080600
-12.951900 0.582500
-12.931700 3.067500
-12.911500 11.779300
-12.891300 32.998700
-12.871100 67.472300
-12.851000 100.736800
-12.830800 109.859600
-12.810600 87.538600
-12.790400 50.976000
-12.770200 21.696900
-12.750000 6.750400
-12.729800 1.535200
-12.709600 0.255200
-12.689500 0.031000
-12.669300 0.002800
-12.649100 0.000200
-12.628900 0.000000
-12.608700 0.000000
-12.588500 0.000000
-12.568300 0.000000
-12.548100 0.000000
-12.528000 0.000000
-12.507800 0.000000
-12.487600 0.000000
-12.467400 0.000000
-12.447200 0.000000
-12.427000 0.000000
-12.406800 0.000000
-12.386700 0.000000
-12.366500 0.000000
-12.346300 0.000000
-12.326100 0.000000
-12.305900 0.000000
-12.285700 0.000000
-12.265500 0.000000
-12.245300 0.000000
-12.225200 0.000000
-12.205000 0.000000
-12.184800 0.000000
-12.164600 0.000000
-12.144400 0.000000
-12.124200 0.000000
-12.104000 0.000000
-12.083900 0.000000
-12.063700 0.000000
-12.043500 0.000000
-12.023300 0.000000
-12.003100 0.000000
-11.982900 0.000000
-11.962700 0.000000
-11.942500 0.000000
-11.922400 0.000000
-11.902200 0.000000
-11.882000 0.000000
-11.861800 0.000000
-11.841600 0.000000
-11.821400 0.000000
-11.801200 0.000000
-11.781000 0.000000
-11.760900 0.000000
-11.740700 0.000000
-11.720500 0.000000
-11.700300 0.000000
-11.680100 0.000000
-11.659900 0.000000
-11.639700 0.000000
-11.619600 0.000000
-11.599400 0.000000
-11.579200 0.000000
-11.559000 0.000000
-11.538800 0.000000
-11.518600 0.000000
-11.498400 0.000000
-11.478200 0.000000
-11.458100 0.000000
-11.437900 0.000000
-11.417700 0.000000
-11.397500 0.000000
-11.377300 0.000000
-11.357100 0.000000
-11.336900 0.000000
-11.316800 0.000000
-11.296600 0.000000
-11.276400 0.000000
-11.256200 0.000000
-11.236000 0.000000
-11.215800 0.000000
-11.195600 0.000000
-11.175400 0.000000
-11.155300 0.000000
-11.135100 0.000000
-11.114900 0.000000
-11.094700 0.000000
-11.074500 0.000000
-11.054300 0.000000
-11.034100 0.000000
-11.013900 0.000000
-10.993800 0.000000
-10.973600 0.000000
-10.953400 0.000000
-10.933200 0.000000
-10.913000 0.000000
-10.892800 0.000000
-10.872600 0.000000
-10.852500 0.000000
-10.832300 0.000000
-10.812100 0.000000
-10.791900 0.000000
-10.771700 0.000000
-10.751500 0.000000
-10.731300 0.000000
-10.711100 0.000000
-10.691000 0.000000
-10.670800 0.000000
-10.650600 0.000000
-10.630400 0.000000
-10.610200 0.000000
-10.590000 0.000000
-10.569800 0.000000
-10.549700 0.000000
-10.529500 0.000000
-10.509300 0.000000
-10.489100 0.000000
-10.468900 0.000000
-10.448700 0.000000
-10.428500 0.000000
-10.408300 0.000000
-10.388200 0.000000
-10.368000 0.000000
-10.347800 0.000000
-10.327600 0.000000
-10.307400 0.000000
-10.287200 0.000000
-10.267000 0.000000
-10.246800 0.000000
-10.226700 0.000000
-10.206500 0.000000
-10.186300 0.000000
-10.166100 0.000000
-10.145900 0.000000
-10.125700 0.000000
-10.105500 0.000000
-10.085400 0.000000
-10.065200 0.000000
-10.045000 0.000000
-10.024800 0.000000
-10.004600 0.000000
-9.984400 0.000000
-9.964200 0.000000
-9.944000 0.000000
-9.923900 0.000000
-9.903700 0.000000
-9.883500 0.000000
-9.863300 0.000000
-9.843100 0.000000
-9.822900 0.000000
-9.802700 0.000000
-9.782600 0.000000
-9.762400 0.000000
-9.742200 0.000000
-9.722000 0.000000
-9.701800 0.000000
-9.681600 0.000000
-9.661400 0.000000
-9.641200 0.000000
-9.621100 0.000000
-9.600900 0.000000
-9.580700 0.000000
-9.560500 0.000000
-9.540300 0.000000
-9.520100 0.000000
-9.499900 0.000000
-9.479700 0.000000
-9.459600 0.000000
-9.439400 0.000000
-9.419200 0.000000
-9.399000 0.000000
-9.378800 0.000000
-9.358600 0.000000
-9.338400 0.000000
-9.318300 0.000000
-9.298100 0.000000
-9.277900 0.000000
-9.257700 0.000000
-9.237500 0.000000
-9.217300 0.000000
-9.197100 0.000000
-9.176900 0.000000
-9.156800 0.000000
-9.136600 0.000000
-9.116400 0.000000
-9.096200 0.000000
-9.076000 0.000000
-9.055800 0.000000
-9.035600 0.000000
-9.015500 0.000000
-8.995300 0.000000
-8.975100 0.000000
-8.954900 0.000000
-8.934700 0.000000
-8.914500 0.000000
-8.894300 0.000000
-8.874100 0.000000
-8.854000 0.000000
-8.833800 0.000000
-8.813600 0.000000
-8.793400 0.000000
-8.773200 0.000000
-8.753000 0.000000
-8.732800 0.000000
-8.712700 0.000000
-8.692500 0.000000
-8.672300 0.000000
-8.652100 0.000000
-8.631900 0.000000
-8.611700 0.000000
-8.591500 0.000000
-8.571300 0.000000
-8.551200 0.000000
-8.531000 0.000000
-8.510800 0.000000
-8.490600 0.000000
-8.470400 0.000000
-8.450200 0.000000
-8.430000 0.000000
-8.409800 0.000000
-8.389700 0.000000
-8.369500 0.000000
-8.349300 0.000000
-8.329100 0.000000
-8.308900 0.000000
-8.288700 0.000000
-8.268500 0.000000
-8.248400 0.000000
-8.228200 0.000000
-8.208000 0.000000
-8.187800 0.000000
-8.167600 0.000000
-8.147400 0.000000
-8.127200 0.000000
-8.107000 0.000000
-8.086900 0.000000
-8.066700 0.000000
-8.046500 0.000000
-8.026300 0.000000
-8.006100 0.000000
-7.985900 0.000000
-7.965700 0.000000
-7.945600 0.000000
-7.925400 0.000000
-7.905200 0.000000
-7.885000 0.000000
-7.864800 0.000000
-7.844600 0.000000
-7.824400 0.000000
-7.804200 0.000000
-7.784100 0.000000
-7.763900 0.000000
-7.743700 0.000000
-7.723500 0.000000
-7.703300 0.000000
-7.683100 0.000000
-7.662900 0.000000
-7.642700 0.000000
-7.622600 0.000000
-7.602400 0.000000
-7.582200 0.000000
-7.562000 0.000000
-7.541800 0.000000
-7.521600 0.000000
-7.501400 0.000000
-7.481300 0.000000
-7.461100 0.000000
-7.440900 0.000000
-7.420700 0.000000
-7.400500 0.000000
-7.380300 0.000000
-7.360100 0.000000
-7.339900 0.000000
-7.319800 0.000000
-7.299600 0.000000
-7.279400 0.000000
-7.259200 0.000000
-7.239000 0.000000
-7.218800 0.000000
-7.198600 0.000000
-7.178500 0.000000
-7.158300 0.000000
-7.138100 0.000000
-7.117900 0.000000
-7.097700 0.000000
-7.077500 0.000000
-7.057300 0.000000
-7.037100 0.000000
-7.017000 0.000000
-6.996800 0.000000
-6.976600 0.000000
-6.956400 0.000000
-6.936200 0.000000
-6.916000 0.000000
-6.895800 0.000000
-6.875600 0.000000
-6.855500 0.000000
-6.835300 0.000000
-6.815100 0.000000
-6.794900 0.000000
-6.774700 0.000000
-6.754500 0.000000
-6.734300 0.000000
-6.714200 0.000000
-6.694000 0.000000
-6.673800 0.000100
-6.653600 0.000400
-6.633400 0.002000
-6.613200 0.007100
-6.593000 0.018300
-6.572800 0.035500
-6.552700 0.054800
-6.532500 0.073700
-6.512300 0.095300
-6.492100 0.124300
-6.471900 0.167000
-6.451700 0.232700
-6.431500 0.315100
-6.411400 0.372100
-6.391200 0.356600
-6.371000 0.269800
-6.350800 0.164400
-6.330600 0.101600
-6.310400 0.116200
-6.290200 0.210500
-6.270000 0.352800
-6.249900 0.479800
-6.229700 0.531700
-6.209500 0.506300
-6.189300 0.462400
-6.169100 0.462600
-6.148900 0.522800
-6.128700 0.596900
-6.108500 0.600500
-6.088400 0.499300
-6.068200 0.361300
-6.048000 0.275800
-6.027800 0.264900
-6.007600 0.321100
-5.987400 0.456700
-5.967200 0.644400
-5.947100 0.773600
-5.926900 0.764500
-5.906700 0.676700
-5.886500 0.621600
-5.866300 0.629300
-5.846100 0.664800
-5.825900 0.692800
-5.805700 0.683800
-5.785600 0.639700
-5.765400 0.646200
-5.745200 0.804600
-5.725000 1.077400
-5.704800 1.296500
-5.684600 1.364200
-5.664400 1.355600
-5.644300 1.397500
-5.624100 1.569100
-5.603900 1.932100
-5.583700 2.494500
-5.563500 3.130400
-5.543300 3.706000
-5.523100 4.260200
-5.502900 4.815600
-5.482800 5.107900
-5.462600 4.905000
-5.442400 4.514500
-5.422200 4.482400
-5.402000 4.875800
-5.381800 5.322600
-5.361600 5.638400
-5.341400 6.048600
-5.321300 6.852300
-5.301100 8.001700
-5.280900 9.045800
-5.260700 9.636700
-5.240500 9.998200
-5.220300 10.563800
-5.200100 11.286400
-5.180000 11.748800
-5.159800 11.910300
-5.139600 12.289700
-5.119400 13.328400
-5.099200 14.954800
-5.079000 16.863100
-5.058800 18.852400
-5.038600 20.767900
-5.018500 22.364400
-4.998300 23.411800
-4.978100 23.896400
-4.957900 23.978200
-4.937700 23.739600
-4.917500 23.164700
-4.897300 22.401700
-4.877200 21.812600
-4.857000 21.649700
-4.836800 21.766600
-4.816600 21.697200
-4.796400 21.053800
-4.776200 19.846700
-4.756000 18.370400
-4.735800 16.946600
-4.715700 15.995500
-4.695500 16.037900
-4.675300 17.115300
-4.655100 18.416300
-4.634900 19.089900
-4.614700 19.312200
-4.594500 19.923600
-4.574300 21.092000
-4.554200 21.971200
-4.534000 21.758500
-4.513800 20.673700
-4.493600 19.775900
-4.473400 19.976600
-4.453200 21.233400
-4.433000 22.684100
-4.412900 23.631300
-4.392700 24.180500
-4.372500 24.805600
-4.352300 25.750600
-4.332100 26.961200
-4.311900 28.030500
-4.291700 28.251500
-4.271500 27.327700
-4.251400 25.803700
-4.231200 24.322600
-4.211000 22.933900
-4.190800 21.424100
-4.170600 19.801800
-4.150400 18.307600
-4.130200 17.246000
-4.110100 16.843600
-4.089900 17.116400
-4.069700 17.770500
-4.049500 18.329900
-4.029300 18.565900
-4.009100 18.739200
-3.988900 19.185300
-3.968700 19.798100
-3.948600 20.067200
-3.928400 19.346200
-3.908200 17.220700
-3.888000 14.078900
-3.867800 11.071400
-3.847600 9.116700
-3.827400 8.162700
-3.807200 7.565500
-3.787100 6.891700
-3.766900 6.167000
-3.746700 5.537000
-3.726500 4.969800
-3.706300 4.355000
-3.686100 3.699700
-3.665900 3.093800
-3.645800 2.603400
-3.625600 2.287100
-3.605400 2.209100
-3.585200 2.343700
-3.565000 2.501100
-3.544800 2.446000
-3.524600 2.154900
-3.504400 1.858900
-3.484300 1.742800
-3.464100 1.724800
-3.443900 1.607800
-3.423700 1.336300
-3.403500 1.021100
-3.383300 0.774600
-3.363100 0.626400
-3.343000 0.570700
-3.322800 0.589100
-3.302600 0.635200
-3.282400 0.657300
-3.262200 0.629200
-3.242000 0.564700
-3.221800 0.513700
-3.201600 0.527300
-3.181500 0.632600
-3.161300 0.837100
-3.141100 1.114400
-3.120900 1.379400
-3.100700 1.528800
-3.080500 1.534900
-3.060300 1.471600
-3.040200 1.417300
-3.020000 1.354300
-2.999800 1.232400
-2.979600 1.121200
-2.959400 1.190200
-2.939200 1.488400
-2.919000 1.805400
-2.898800 1.836800
-2.878700 1.501400
-2.858500 1.015600
-2.838300 0.657900
-2.818100 0.542800
-2.797900 0.604400
-2.777700 0.720600
-2.757500 0.824500
-2.737300 0.905600
-2.717200 0.956600
-2.697000 0.983900
-2.676800 1.038300
-2.656600 1.157600
-2.636400 1.309100
-2.616200 1.433300
-2.596000 1.484600
-2.575900 1.422500
-2.555700 1.267900
-2.535500 1.157800
-2.515300 1.219600
-2.495100 1.398800
-2.474900 1.510500
-2.454700 1.457900
-2.434500 1.314600
-2.414400 1.205800
-2.394200 1.202500
-2.374000 1.320200
-2.353800 1.522700
-2.333600 1.695400
-2.313400 1.693200
-2.293200 1.489800
-2.273100 1.220800
-2.252900 1.020300
-2.232700 0.891400
-2.212500 0.788300
-2.192300 0.746400
-2.172100 0.851700
-2.151900 1.091100
-2.131700 1.312500
-2.111600 1.378800
-2.091400 1.306500
-2.071200 1.207300
-2.051000 1.157500
-2.030800 1.173000
-2.010600 1.252200
-1.990400 1.370000
-1.970200 1.438100
-1.950100 1.367700
-1.929900 1.204600
-1.909700 1.100800
-1.889500 1.141600
-1.869300 1.301900
-1.849100 1.527300
-1.828900 1.745000
-1.808800 1.867200
-1.788600 1.871800
-1.768400 1.800900
-1.748200 1.665200
-1.728000 1.465400
-1.707800 1.275800
-1.687600 1.180900
-1.667400 1.161500
-1.647300 1.138800
-1.627100 1.096300
-1.606900 1.080200
-1.586700 1.110700
-1.566500 1.148300
-1.546300 1.133100
-1.526100 1.036200
-1.506000 0.899100
-1.485800 0.818300
-1.465600 0.855200
-1.445400 0.985400
-1.425200 1.168300
-1.405000 1.413700
-1.384800 1.726200
-1.364600 2.020500
-1.344500 2.156900
-1.324300 2.069300
-1.304100 1.831700
-1.283900 1.585800
-1.263700 1.416900
-1.243500 1.310000
-1.223300 1.217000
-1.203100 1.127600
-1.183000 1.071000
-1.162800 1.088900
-1.142600 1.194400
-1.122400 1.327600
-1.102200 1.383900
-1.082000 1.328600
-1.061800 1.259100
-1.041700 1.314300
-1.021500 1.506300
-1.001300 1.663900
-0.981100 1.601400
-0.960900 1.349300
-0.940700 1.127700
-0.920500 1.095100
-0.900300 1.227600
-0.880200 1.423000
-0.860000 1.620400
-0.839800 1.827500
-0.819600 2.068100
-0.799400 2.290700
-0.779200 2.374100
-0.759000 2.281800
-0.738900 2.136200
-0.718700 2.084700
-0.698500 2.164600
-0.678300 2.311600
-0.658100 2.407100
-0.637900 2.342100
-0.617700 2.133300
-0.597500 1.895100
-0.577400 1.666100
-0.557200 1.415200
-0.537000 1.185900
-0.516800 1.062600
-0.496600 1.032200
-0.476400 1.002900
-0.456200 0.952700
-0.436000 0.968600
-0.415900 1.105100
-0.395700 1.289000
-0.375500 1.431400
-0.355300 1.535600
-0.335100 1.609900
-0.314900 1.604700
-0.294700 1.533100
-0.274600 1.494100
-0.254400 1.490200
-0.234200 1.403100
-0.214000 1.205100
-0.193800 1.023700
-0.173600 0.989400
-0.153400 1.142700
-0.133200 1.440300
-0.113100 1.739800
-0.092900 1.844500
-0.072700 1.670000
-0.052500 1.320000
-0.032300 0.964200
-0.012100 0.712300
0.008100 0.616600
0.028200 0.701900
0.048400 0.924700
0.068600 1.141500
0.088800 1.210400
0.109000 1.157000
0.129200 1.172900
0.149400 1.394300
0.169600 1.737200
0.189700 1.988900
0.209900 2.013500
0.230100 1.848700
0.250300 1.647500
0.270500 1.567000
0.290700 1.675600
0.310900 1.884600
0.331100 1.998700
0.351200 1.911900
0.371400 1.697100
0.391600 1.472400
0.411800 1.305500
0.432000 1.271000
0.452200 1.434700
0.472400 1.729000
0.492500 1.979300
0.512700 2.100200
0.532900 2.137200
0.553100 2.101800
0.573300 1.940100
0.593500 1.688200
0.613700 1.479000
0.633900 1.379100
0.654000 1.342900
0.674200 1.319700
0.694400 1.335300
0.714600 1.450000
0.734800 1.653800
0.755000 1.832000
0.775200 1.860400
0.795300 1.729900
0.815500 1.564400
0.835700 1.533400
0.855900 1.752300
0.876100 2.182600
0.896300 2.563200
0.916500 2.552200
0.936700 2.080200
0.956800 1.488700
0.977000 1.202900
0.997200 1.327600
1.017400 1.616500
1.037600 1.770100
1.057800 1.683100
1.078000 1.419800
1.098200 1.093200
1.118300 0.830300
1.138500 0.736000
1.158700 0.805900
1.178900 0.920800
1.199100 0.972100
1.219300 0.971300
1.239500 1.004300
1.259600 1.088800
1.279800 1.122800
1.300000 0.999900
1.320200 0.751400
1.340400 0.530800
1.360600 0.464300
1.380800 0.546400
1.401000 0.689100
1.421100 0.831300
1.441300 0.953100
1.461500 1.022800
1.481700 1.020900
1.501900 0.986600
1.522100 0.957000
1.542300 0.904900
1.562400 0.799100
1.582600 0.676800
1.602800 0.603700
1.623000 0.597600
1.643200 0.631400
1.663400 0.668200
1.683600 0.665800
1.703800 0.611300
1.723900 0.567900
1.744100 0.630100
1.764300 0.834800
1.784500 1.137600
1.804700 1.455000
1.824900 1.722700
1.845100 1.915400
1.865200 1.987600
1.885400 1.853000
1.905600 1.511500
1.925800 1.142800
1.946000 0.968300
1.966200 1.036600
1.986400 1.199800
2.006600 1.289400
2.026700 1.277100
2.046900 1.249600
2.067100 1.270400
2.087300 1.304600
2.107500 1.280100
2.127700 1.200800
2.147900 1.164700
2.168100 1.261100
2.188200 1.449400
2.208400 1.563700
2.228600 1.490200
2.248800 1.316000
2.269000 1.227200
2.289200 1.279800
2.309400 1.349800
2.329500 1.332000
2.349700 1.283900
2.369900 1.292800
2.390100 1.327000
2.410300 1.323600
2.430500 1.283000
2.450700 1.199300
2.470900 1.046000
2.491000 0.897700
2.511200 0.918000
2.531400 1.158800
2.551600 1.482500
2.571800 1.723700
2.592000 1.821500
2.612200 1.788500
2.632300 1.676600
2.652500 1.568300
2.672700 1.505700
2.692900 1.476600
2.713100 1.514300
2.733300 1.704500
2.753500 2.050500
2.773700 2.419600
2.793800 2.631100
2.814000 2.566600
2.834200 2.257800
2.854400 1.881000
2.874600 1.621600
2.894800 1.560600
2.915000 1.666500
2.935200 1.817600
2.955300 1.858200
2.975500 1.716000
2.995700 1.482300
3.015900 1.361700
3.036100 1.502000
3.056300 1.836400
3.076500 2.125400
3.096600 2.179800
3.116800 2.018400
3.137000 1.802500
3.157200 1.662500
3.177400 1.659000
3.197600 1.878300
3.217800 2.380400
3.238000 3.002800
3.258100 3.421800
3.278300 3.492200
3.298500 3.346900
3.318700 3.124700
3.338900 2.811800
3.359100 2.386800
3.379300 1.938700
3.399400 1.595800
3.419600 1.415100
3.439800 1.356500
3.460000 1.345200
3.480200 1.350000
3.500400 1.402500
3.520600 1.545900
3.540800 1.764700
3.560900 1.959200
3.581100 2.025300
3.601300 1.976000
3.621500 1.922600
3.641700 1.941100
3.661900 2.050000
3.682100 2.270700
3.702300 2.578400
3.722400 2.825700
3.742600 2.839700
3.762800 2.610500
3.783000 2.295900
3.803200 2.027400
3.823400 1.812600
3.843600 1.623100
3.863700 1.455100
3.883900 1.307700
3.904100 1.182600
3.924300 1.090100
3.944500 1.062600
3.964700 1.175800
3.984900 1.462000
4.005100 1.790500
4.025200 1.938300
4.045400 1.792600
4.065600 1.431800
4.085800 1.051500
4.106000 0.841900
4.126200 0.877800
4.146400 1.075800
4.166500 1.279900
4.186700 1.407600
4.206900 1.483000
4.227100 1.548900
4.247300 1.612500
4.267500 1.655700
4.287700 1.646800
4.307900 1.571100
4.328000 1.472400
4.348200 1.451500
4.368400 1.606500
4.388600 1.928900
4.408800 2.265600
4.429000 2.441400
4.449200 2.411100
4.469400 2.256800
4.489500 2.079600
4.509700 1.949600
4.529900 1.918100
4.550100 2.005200
4.570300 2.167000
4.590500 2.288400
4.610700 2.247200
4.630800 2.016800
4.651000 1.680700
4.671200 1.348600
4.691400 1.100500
4.711600 0.989000
4.731800 1.039300
4.752000 1.247200
4.772200 1.586500
4.792300 1.996500
4.812500 2.338500
4.832700 2.410100
4.852900 2.112700
4.873100 1.631800
4.893300 1.314100
4.913500 1.320400
4.933600 1.523100
4.953800 1.725800
4.974000 1.835000
4.994200 1.854900
5.014400 1.852100
5.034600 1.903100
5.054800 2.039400
5.075000 2.271900
5.095100 2.587000
5.115300 2.858200
5.135500 2.896300
5.155700 2.677200
5.175900 2.411700
5.196100 2.296600
5.216300 2.269300
5.236500 2.131700
5.256600 1.850600
5.276800 1.570800
5.297000 1.401200
5.317200 1.333200
5.337400 1.316500
5.357600 1.342900
5.377800 1.476400
5.397900 1.793600
5.418100 2.257100
5.438300 2.664500
5.458500 2.772600
5.478700 2.493200
5.498900 1.980500
5.519100 1.521400
5.539300 1.295400
5.559400 1.248300
5.579600 1.219600
5.599800 1.117400
5.620000 0.946600
5.640200 0.765400
5.660400 0.662900
5.680600 0.712900
5.700700 0.910400
5.720900 1.191200
5.741100 1.503100
5.761300 1.789600
5.781500 1.955600
5.801700 1.970800
5.821900 1.950100
5.842100 2.009900
5.862200 2.125200
5.882400 2.214200
5.902600 2.253600
5.922800 2.264500
5.943000 2.285000
5.963200 2.383600
5.983400 2.637000
6.003600 3.025000
6.023700 3.351600
6.043900 3.378100
6.064100 3.081600
6.084300 2.675300
6.104500 2.323800
6.124700 1.959200
6.144900 1.466900
6.165000 0.936500
6.185200 0.603600
6.205400 0.615500
6.225600 0.921400
6.245800 1.327100
6.266000 1.634100
6.286200 1.776700
6.306400 1.832300
6.326500 1.893900
6.346700 1.996000
6.366900 2.145900
6.387100 2.306900
6.407300 2.384400
6.427500 2.345400
6.447700 2.277900
6.467800 2.253900
6.488000 2.227200
6.508200 2.122800
6.528400 1.974100
6.548600 1.897100
6.568800 1.922300
6.589000 1.933900
6.609200 1.839800
6.629300 1.744800
6.649500 1.850000
6.669700 2.186200
6.689900 2.541000
6.710100 2.671500
6.730300 2.551600
6.750500 2.368900
6.770700 2.297600
6.790800 2.344000
6.811000 2.401000
6.831200 2.384800
6.851400 2.314800
6.871600 2.248400
6.891800 2.143300
6.912000 1.883700
6.932100 1.459300
6.952300 1.020300
6.972500 0.744400
6.992700 0.713100
7.012900 0.898300
7.033100 1.184800
7.053300 1.415200
7.073500 1.505600
7.093600 1.521700
7.113800 1.566700
7.134000 1.620000
7.154200 1.596800
7.174400 1.558800
7.194600 1.744700
7.214800 2.322400
7.234900 3.136300
7.255100 3.759300
7.275300 3.870700
7.295500 3.597500
7.315700 3.352000
7.335900 3.319700
7.356100 3.301500
7.376300 3.087100
7.396400 2.763300
7.416600 2.550400
7.436800 2.485500
7.457000 2.405900
7.477200 2.179300
7.497400 1.865500
7.517600 1.691200
7.537700 1.881700
7.557900 2.444700
7.578100 3.062600
7.598300 3.276700
7.618500 2.905500
7.638700 2.262300
7.658900 1.887900
7.679100 2.082600
7.699200 2.693800
7.719400 3.305800
7.739600 3.583100
7.759800 3.424000
7.780000 2.937500
7.800200 2.380700
7.820400 2.000400
7.840600 1.853700
7.860700 1.846300
7.880900 1.926000
7.901100 2.123700
7.921300 2.394800
7.941500 2.561500
7.961700 2.506300
7.981900 2.327800
8.002000 2.219100
8.022200 2.276300
8.042400 2.433100
8.062600 2.490900
8.082800 2.278100
8.103000 1.849300
8.123200 1.446400
8.143400 1.287500
8.163500 1.462300
8.183700 1.904800
8.203900 2.366700
8.224100 2.528700
8.244300 2.273300
8.264500 1.836800
8.284700 1.605900
8.304800 1.740900
8.325000 2.039300
8.345200 2.176500
8.365400 2.069800
8.385600 1.965100
8.405800 2.115200
8.426000 2.468200
8.446200 2.807300
8.466300 3.075600
8.486500 3.344400
8.506700 3.551800
8.526900 3.524200
8.547100 3.231900
8.567300 2.846300
8.587500 2.535300
8.607700 2.305200
8.627800 2.100500
8.648000 1.975600
8.668200 2.029900
8.688400 2.218600
8.708600 2.370700
8.728800 2.362500
8.749000 2.201300
8.769100 1.999300
8.789300 1.891800
8.809500 1.933500
8.829700 2.098500
8.849900 2.358200
8.870100 2.668600
8.890300 2.918600
8.910500 3.007700
8.930600 2.978400
8.950800 2.974200
8.971000 3.038500
8.991200 3.036500
9.011400 2.813000
9.031600 2.368900
9.051800 1.879700
9.071900 1.591200
9.092100 1.650400
9.112300 1.974400
9.132500 2.321500
9.152700 2.514100
9.172900 2.547000
9.193100 2.517900
9.213300 2.517600
9.233400 2.562300
9.253600 2.606600
9.273800 2.636000
9.294000 2.691700
9.314200 2.778600
9.334400 2.849500
9.354600 2.876300
9.374800 2.830400
9.394900 2.669100
9.415100 2.423600
9.435300 2.196200
9.455500 2.069500
9.475700 2.104100
9.495900 2.335000
9.516100 2.682600
9.536200 2.941600
9.556400 2.945600
9.576600 2.753800
9.596800 2.621500
9.617000 2.738400
9.637200 3.026300
9.657400 3.234200
9.677600 3.186400
9.697700 2.888000
9.717900 2.456200
9.738100 2.039500
9.758300 1.773200
9.778500 1.721900
9.798700 1.833300
9.818900 1.980200
9.839000 2.083800
9.859200 2.181800
9.879400 2.352500
9.899600 2.595800
9.919800 2.805400
9.940000 2.844600
9.960200 2.670100
9.980400 2.387900
10.000500 2.131500
10.020700 1.919100
10.040900 1.705900
10.061100 1.514200
10.081300 1.436400
10.101500 1.524600
10.121700 1.717000
10.141900 1.910200
10.162000 2.078400
10.182200 2.225800
10.202400 2.290600
10.222600 2.234600
10.242800 2.136300
10.263000 2.085200
10.283200 2.072400
10.303300 2.041100
10.323500 1.976200
10.343700 1.919000
10.363900 1.918800
10.384100 1.944900
10.404300 1.875500
10.424500 1.661000
10.444700 1.456200
10.464800 1.470200
10.485000 1.701000
10.505200 1.933300
10.525400 2.008200
10.545600 1.997400
10.565800 2.104000
10.586000 2.459300
10.606100 2.980200
10.626300 3.403900
10.646500 3.517300
10.666700 3.338500
10.686900 3.047800
10.707100 2.817800
10.727300 2.755900
10.747500 2.879300
10.767600 3.014500
10.787800 2.876800
10.808000 2.427900
10.828200 1.978600
10.848400 1.790900
10.868600 1.799100
10.888800 1.829300
10.909000 1.844900
10.929100 1.860500
10.949300 1.822800
10.969500 1.705100
10.989700 1.595800
11.009900 1.609700
11.030100 1.766400
11.050300 1.978500
11.070400 2.138800
11.090600 2.215100
11.110800 2.226200
11.131000 2.140900
11.151200 1.919500
11.171400 1.626500
11.191600 1.364600
11.211800 1.160800
11.231900 1.025600
11.252100 1.030800
11.272300 1.257800
11.292500 1.697800
11.312700 2.177600
11.332900 2.420600
11.353100 2.286700
11.373200 1.909200
11.393400 1.508400
11.413600 1.166400
11.433800 0.861700
11.454000 0.603000
11.474200 0.436000
11.494400 0.388000
11.514600 0.464200
11.534700 0.683200
11.554900 1.055200
11.575100 1.487600
11.595300 1.788200
11.615500 1.847800
11.635700 1.751200
11.655900 1.656800
11.676100 1.664600
11.696200 1.828200
11.716400 2.172700
11.736600 2.641100
11.756800 3.070100
11.777000 3.235800
11.797200 2.974900
11.817400 2.377800
11.837500 1.802100
11.857700 1.573400
11.877900 1.746300
11.898100 2.173000
11.918300 2.637100
11.938500 2.926000
11.958700 2.942400
11.978900 2.785000
11.999000 2.649300
12.019200 2.597300
12.039400 2.494800
12.059600 2.258900
12.079800 2.025400
12.100000 1.949400
12.120200 2.007400
12.140300 2.076800
12.160500 2.045200
12.180700 1.830000
12.200900 1.460500
12.221100 1.110100
12.241300 0.914200
12.261500 0.827800
12.281700 0.749700
12.301800 0.704700
12.322000 0.806000
12.342200 1.065800
12.362400 1.341600
12.382600 1.513900
12.402800 1.656000
12.423000 1.956500
12.443200 2.469900
12.463300 2.969300
12.483500 3.119600
12.503700 2.837700
12.523900 2.371300
12.544100 2.004500
12.564300 1.823300
12.584500 1.770000
12.604600 1.792300
12.624800 1.870800
12.645000 1.948900
12.665200 1.954200
12.685400 1.914400
12.705600 1.942400
12.725800 2.078300
12.746000 2.231500
12.766100 2.308800
12.786300 2.338800
12.806500 2.410000
12.826700 2.536500
12.846900 2.658200
12.867100 2.718500
12.887300 2.687400
12.907400 2.581100
12.927600 2.482100
12.947800 2.465700
12.968000 2.514100
12.988200 2.572800
13.008400 2.652000
13.028600 2.768500
13.048800 2.826700
13.068900 2.700100
13.089100 2.423700
13.109300 2.155900
13.129500 1.970900
13.149700 1.825400
13.169900 1.675500
13.190100 1.516500
13.210200 1.386600
13.230400 1.393200
13.250600 1.642100
13.270800 2.103200
13.291000 2.583300
13.311200 2.863500
13.331400 2.894700
13.351600 2.829500
13.371700 2.821600
13.391900 2.889000
13.412100 3.016500
13.432300 3.223900
13.452500 3.480300
13.472700 3.688700
13.492900 3.754500
13.513100 3.616500
13.533200 3.301900
13.553400 2.962500
13.573600 2.741300
13.593800 2.627000
13.614000 2.516900
13.634200 2.362700
13.654400 2.210100
13.674500 2.151600
13.694700 2.245700
13.714900 2.467100
13.735100 2.763000
13.755300 3.125500
13.775500 3.533400
13.795700 3.854700
13.815900 3.923000
13.836000 3.755200
13.856200 3.624900
13.876400 3.789300
13.896600 4.134900
13.916800 4.272500
13.937000 4.024200
13.957200 3.606300
13.977300 3.282300
13.997500 3.071300
14.017700 2.883700
14.037900 2.736600
14.058100 2.721800
14.078300 2.865900
14.098500 3.080300
14.118700 3.197600
14.138800 3.077200
14.159000 2.757800
14.179200 2.463400
14.199400 2.382300
14.219600 2.515400
14.239800 2.770800
14.260000 3.045300
14.280200 3.193500
14.300300 3.147500
14.320500 3.089600
14.340700 3.276600
14.360900 3.683700
14.381100 4.000000
14.401300 3.977800
14.421500 3.661000
14.441600 3.252300
14.461800 2.879300
14.482000 2.595900
14.502200 2.514600
14.522400 2.750300
14.542600 3.208600
14.562800 3.542300
14.583000 3.419400
14.603100 2.846600
14.623300 2.162300
14.643500 1.699700
14.663700 1.587200
14.683900 1.851500
14.704100 2.441200
14.724300 3.100500
14.744400 3.483600
14.764600 3.465600
14.784800 3.205900
14.805000 2.936400
14.825200 2.751400
14.845400 2.556800
14.865600 2.240200
14.885800 1.897700
14.905900 1.767200
14.926100 1.925000
14.946300 2.199700
14.966500 2.442800
14.986700 2.751500
15.006900 3.293800
15.027100 3.983900
15.047300 4.504400
15.067400 4.643800
15.087600 4.457400
15.107800 4.112700
15.128000 3.759700
15.148200 3.529500
15.168400 3.478100
15.188600 3.532100
15.208700 3.576300
15.228900 3.566200
15.249100 3.532600
15.269300 3.536200
15.289500 3.616300
15.309700 3.701900
15.329900 3.618900
15.350100 3.302700
15.370200 2.975400
15.390400 2.990000
15.410600 3.439800
15.430800 3.981200
15.451000 4.138000
15.471200 3.779800
15.491400 3.229700
15.511500 2.907900
15.531700 2.929100
15.551900 3.044500
15.572100 2.935100
15.592300 2.570300
15.612500 2.261700
15.632700 2.356600
15.652900 2.935600
15.673000 3.762400
15.693200 4.442200
15.713400 4.708100
15.733600 4.604100
15.753800 4.349500
15.774000 4.087200
15.794200 3.827600
15.814400 3.548000
15.834500 3.263200
15.854700 3.028600
15.874900 2.900100
15.895100 2.890200
15.915300 2.962400
15.935500 3.038700
15.955700 3.014800
15.975800 2.857800
15.996000 2.681400
16.016200 2.616800
16.036400 2.639400
16.056600 2.629700
16.076800 2.567500
16.097000 2.572300
16.117200 2.742500
16.137300 3.009600
16.157500 3.211900
16.177700 3.266800
16.197900 3.194400
16.218100 3.064700
16.238300 3.017700
16.258500 3.205000
16.278600 3.572600
16.298800 3.814800
16.319000 3.691600
16.339200 3.271700
16.359400 2.766700
16.379600 2.313300
16.399800 1.993600
16.420000 1.867400
16.440100 1.885500
16.460300 1.886700
16.480500 1.767400
16.500700 1.604400
16.520900 1.552700
16.541100 1.676400
16.561300 1.957100
16.581500 2.424900
16.601600 3.117400
16.621800 3.854700
16.642000 4.241000
16.662200 4.041300
16.682400 3.450700
16.702600 2.863600
16.722800 2.489600
16.742900 2.332600
16.763100 2.395800
16.783300 2.688400
16.803500 3.101800
16.823700 3.448500
16.843900 3.619000
16.864100 3.632900
16.884300 3.575300
16.904400 3.523100
16.924600 3.492100
16.944800 3.450200
16.965000 3.392000
16.985200 3.352300
17.005400 3.359400
17.025600 3.389900
17.045700 3.342900
17.065900 3.132100
17.086100 2.830500
17.106300 2.624400
17.126500 2.627400
17.146700 2.785900
17.166900 2.919200
17.187100 2.854400
17.207200 2.575800
17.227400 2.218600
17.247600 1.930100
17.267800 1.809300
17.288000 1.937100
17.308200 2.354000
17.328400 2.956100
17.348600 3.439100
17.368700 3.468600
17.388900 2.998800
17.409100 2.343900
17.429300 1.876600
17.449500 1.718900
17.469700 1.734800
17.489900 1.749300
17.510000 1.720200
17.530200 1.702700
17.550400 1.726400
17.570600 1.769800
17.590800 1.831200
17.611000 1.967200
17.631200 2.211400
17.651400 2.466500
17.671500 2.582600
17.691700 2.548700
17.711900 2.502400
17.732100 2.542300
17.752300 2.608500
17.772500 2.585700
17.792700 2.477000
17.812800 2.405900
17.833000 2.429300
17.853200 2.429600
17.873400 2.266800
17.893600 1.968600
17.913800 1.676200
17.934000 1.470300
17.954200 1.378900
17.974300 1.491700
17.994500 1.881400
18.014700 2.408700
18.034900 2.769200
18.055100 2.781900
18.075300 2.545300
18.095500 2.319300
18.115600 2.303600
18.135800 2.470800
18.156000 2.610600
18.176200 2.596600
18.196400 2.535500
18.216600 2.596000
18.236800 2.788700
18.257000 2.988600
18.277100 3.097300
18.297300 3.096300
18.317500 3.016800
18.337700 2.940100
18.357900 2.937400
18.378100 2.977100
18.398300 2.999100
18.418500 3.029400
18.438600 3.093000
18.458800 3.099700
18.479000 2.943000
18.499200 2.656100
18.519400 2.359900
18.539600 2.080100
18.559800 1.739900
18.579900 1.341300
18.600100 1.037000
18.620300 0.991100
18.640500 1.219200
18.660700 1.591100
18.680900 1.975500
18.701100 2.323800
18.721300 2.620700
18.741400 2.850300
18.761600 3.020900
18.781800 3.145400
18.802000 3.207100
18.822200 3.196800
18.842400 3.171100
18.862600 3.222200
18.882700 3.370900
18.902900 3.529000
18.923100 3.610600
18.943300 3.613200
18.963500 3.505300
18.983700 3.180600
19.003900 2.673300
19.024100 2.258600
19.044200 2.199100
19.064400 2.465500
19.084600 2.760900
19.104800 2.802300
19.125000 2.558600
19.145200 2.218200
19.165400 1.996800
19.185600 2.017900
19.205700 2.288900
19.225900 2.690800
19.246100 3.007600
19.266300 3.038100
19.286500 2.748600
19.306700 2.368800
19.326900 2.260900
19.347000 2.588000
19.367200 3.160200
19.387400 3.632400
19.407600 3.786900
19.427800 3.662700
19.448000 3.470100
19.468200 3.367300
19.488400 3.336900
19.508500 3.279200
19.528700 3.150500
19.548900 2.951600
19.569100 2.658100
19.589300 2.294600
19.609500 2.016100
19.629700 1.974300
19.649800 2.141200
19.670000 2.348300
19.690200 2.455900
19.710400 2.458400
19.730600 2.468700
19.750800 2.620100
19.771000 2.961500
19.791200 3.414800
19.811300 3.808600
19.831500 3.995100
19.851700 3.984200
19.871900 3.898800
19.892100 3.767200
19.912300 3.512200
19.932500 3.149900
19.952700 2.816300
19.972800 2.637200
19.993000 2.687000
20.013200 2.954700
20.033400 3.271400
20.053600 3.410000
20.073800 3.327500
20.094000 3.191500
20.114100 3.146900
20.134300 3.182100
20.154500 3.219300
20.174700 3.229100
20.194900 3.254000
20.215100 3.342200
20.235300 3.463700
20.255500 3.534400
20.275600 3.523400
20.295800 3.488800
20.316000 3.483000
20.336200 3.461900
20.356400 3.390700
20.376600 3.415000
20.396800 3.751800
20.416900 4.370100
20.437100 4.904400
20.457300 4.959100
20.477500 4.483800
20.497700 3.820000
20.517900 3.382500
20.538100 3.301000
20.558300 3.366300
20.578400 3.330300
20.598600 3.196400
20.618800 3.142800
20.639000 3.237000
20.659200 3.338200
20.679400 3.259900
20.699600 2.970400
20.719800 2.644100
20.739900 2.529300
20.760100 2.725900
20.780300 3.099100
20.800500 3.421600
20.820700 3.525000
20.840900 3.349300
20.861100 2.991300
20.881200 2.668600
20.901400 2.541400
20.921600 2.609800
20.941800 2.789900
20.962000 3.030800
20.982200 3.370600
21.002400 3.835500
21.022600 4.226000
21.042700 4.196900
21.062900 3.697600
21.083100 3.118500
21.103300 2.837800
21.123500 2.812600
21.143700 2.748400
21.163900 2.519600
21.184000 2.254900
21.204200 2.072800
21.224400 1.927700
21.244600 1.767700
21.264800 1.652200
21.285000 1.613800
21.305200 1.583300
21.325400 1.540000
21.345500 1.562800
21.365700 1.669300
21.385900 1.758200
21.406100 1.738100
21.426300 1.610100
21.446500 1.443700
21.466700 1.338900
21.486900 1.360000
21.507000 1.449300
21.527200 1.449700
21.547400 1.277200
21.567600 1.031300
21.587800 0.874200
21.608000 0.845600
21.628200 0.853600
21.648300 0.798500
21.668500 0.654000
21.688700 0.464900
21.708900 0.308900
21.729100 0.251000
21.749300 0.310200
21.769500 0.446000
21.789700 0.562500
21.809800 0.567700
21.830000 0.468700
21.850200 0.366000
21.870400 0.332200
21.890600 0.346300
21.910800 0.355800
21.931000 0.346800
21.951100 0.342300
21.971300 0.358200
21.991500 0.369800
22.011700 0.333700
22.031900 0.242500
22.052100 0.137700
22.072300 0.066300
22.092500 0.047700
22.112600 0.077500
22.132800 0.133700
22.153000 0.178600
22.173200 0.184600
22.193400 0.170000
22.213600 0.182800
22.233800 0.245100
22.254000 0.330100
22.274100 0.389000
22.294300 0.383800
22.314500 0.309000
22.334700 0.198500
22.354900 0.100800
22.375100 0.043700
22.395300 0.032900
22.415400 0.074900
22.435600 0.181100
22.455800 0.331100
22.476000 0.448800
22.496200 0.467500
22.516400 0.418400
22.536600 0.397400
22.556800 0.441800
22.576900 0.489800
22.597100 0.460900
22.617300 0.349500
22.637500 0.229900
22.657700 0.173800
22.677900 0.180400
22.698100 0.195000
22.718200 0.177000
22.738400 0.132600
22.758600 0.086600
22.778800 0.050700
22.799000 0.025600
22.819200 0.010400
22.839400 0.003200
22.859600 0.000700
22.879700 0.000100
22.899900 0.000000
22.920100 0.000100
22.940300 0.000600
22.960500 0.003800
22.980700 0.016600
23.000900 0.053500
23.021100 0.125300
23.041200 0.213800
23.061400 0.265700
23.081600 0.240800
23.101800 0.160900
23.122000 0.086500
23.142200 0.060000
23.162400 0.088300
23.182500 0.159200
23.202700 0.253500
23.222900 0.348500
23.243100 0.413000
23.263300 0.409500
23.283500 0.326200
23.303700 0.201900
23.323900 0.096000
23.344000 0.039500
23.364200 0.031200
23.384400 0.062000
23.404600 0.118100
23.424800 0.167900
23.445000 0.174300
23.465200 0.133500
23.485300 0.080700
23.505500 0.053400
23.525700 0.060200
23.545900 0.081200
23.566100 0.089000
23.586300 0.072200
23.606500 0.042800
23.626700 0.018400
23.646800 0.005800
23.667000 0.001300
23.687200 0.000200
23.707400 0.000000
23.727600 0.000000
23.747800 0.000300
23.768000 0.001600
23.788100 0.005800
23.808300 0.015400
23.828500 0.029800
23.848700 0.042100
23.868900 0.043400
23.889100 0.032500
23.909300 0.017700
23.929500 0.007000
23.949600 0.002000
23.969800 0.000400
23.990000 0.000100
24.010200 0.000000
24.030400 0.000000
24.050600 0.000000
24.070800 0.000000
24.091000 0.000000
24.111100 0.000000
24.131300 0.000000
24.151500 0.000000
24.171700 0.000000
24.191900 0.000000
24.212100 0.000000
24.232300 0.000000
24.252400 0.000000
24.272600 0.000000
24.292800 0.000000
24.313000 0.000000
24.333200 0.000000
24.353400 0.000000
24.373600 0.000000
24.393800 0.000000
24.413900 0.000000
24.434100 0.000000
24.454300 0.000000
24.474500 0.000000
24.494700 0.000000
24.514900 0.000000
24.535100 0.000000
24.555200 0.000000
24.575400 0.000000
24.595600 0.000000
24.615800 0.000000
24.636000 0.000000
24.656200 0.000000
24.676400 0.000000
24.696600 0.000000
24.716700 0.000000
24.736900 0.000000
24.757100 0.000000
24.777300 0.000000
24.797500 0.000000
24.817700 0.000000
24.837900 0.000000
24.858100 0.000000
24.878200 0.000000
24.898400 0.000000
24.918600 0.000000
24.938800 0.000000
24.959000 0.000000
24.979200 0.000000
24.999400 0.000000
25.019500 0.000000
25.039700 0.000000
25.059900 0.000000
25.080100 0.000000
25.100300 0.000000
25.120500 0.000000
25.140700 0.000000
25.160900 0.000000
25.181000 0.000000
25.201200 0.000000
25.221400 0.000000
25.241600 0.000000
25.261800 0.000000
25.282000 0.000000
25.302200 0.000000
25.322300 0.000000
25.342500 0.000000
25.362700 0.000000
25.382900 0.000000
25.403100 0.000000
25.423300 0.000000
25.443500 0.000000
25.463700 0.000000
25.483800 0.000000
25.504000 0.000000
25.524200 0.000000
25.544400 0.000000
25.564600 0.000000
25.584800 0.000000
25.605000 0.000000
25.625200 0.000000
25.645300 0.000000
25.665500 0.000000
25.685700 0.000000
e
