set title 'mp-1184774 - Density of States'
set xlabel 'Energy (eV)'
set ylabel 'DOS (states/eV)'
set grid
set xrange [-10:10]
set yrange [0:7.573]
set xzeroaxis lt -1
set terminal png size 800,600
set output 'mp-1184774_dos_gnuplot.png'
plot '-' using 1:2 with lines title 'DOS'
-12.044000 0.000000
-12.015600 0.000000
-11.987200 0.000000
-11.958700 0.000000
-11.930300 0.000000
-11.901900 0.000000
-11.873500 0.000000
-11.845000 0.000000
-11.816600 0.000000
-11.788200 0.000000
-11.759700 0.000000
-11.731300 0.000000
-11.702900 0.000000
-11.674400 0.000000
-11.646000 0.000000
-11.617600 0.000000
-11.589100 0.000000
-11.560700 0.000000
-11.532300 0.000000
-11.503800 0.000000
-11.475400 0.000000
-11.447000 0.000000
-11.418600 0.000000
-11.390100 0.000000
-11.361700 0.000000
-11.333300 0.000000
-11.304800 0.000000
-11.276400 0.000000
-11.248000 0.000000
-11.219500 0.000000
-11.191100 0.000000
-11.162700 0.000000
-11.134200 0.000000
-11.105800 0.000000
-11.077400 0.000000
-11.048900 0.000000
-11.020500 0.000000
-10.992100 0.000000
-10.963700 0.000000
-10.935200 0.000000
-10.906800 0.000000
-10.878400 0.000000
-10.849900 0.000000
-10.821500 0.000000
-10.793100 0.000000
-10.764600 0.000000
-10.736200 0.000000
-10.707800 0.000000
-10.679300 0.000000
-10.650900 0.000000
-10.622500 0.000000
-10.594000 0.000000
-10.565600 0.000000
-10.537200 0.000000
-10.508700 0.000000
-10.480300 0.000000
-10.451900 0.000000
-10.423500 0.000000
-10.395000 0.000000
-10.366600 0.000000
-10.338200 0.000000
-10.309700 0.000000
-10.281300 0.000000
-10.252900 0.000000
-10.224400 0.000000
-10.196000 0.000000
-10.167600 0.000000
-10.139100 0.000000
-10.110700 0.000000
-10.082300 0.000000
-10.053800 0.000000
-10.025400 0.000000
-9.997000 0.000000
-9.968600 0.000000
-9.940100 0.000000
-9.911700 0.000000
-9.883300 0.000000
-9.854800 0.000000
-9.826400 0.000000
-9.798000 0.000000
-9.769500 0.000000
-9.741100 0.000000
-9.712700 0.000000
-9.684200 0.000000
-9.655800 0.000000
-9.627400 0.000000
-9.598900 0.000000
-9.570500 0.000000
-9.542100 0.000000
-9.513700 0.000000
-9.485200 0.000000
-9.456800 0.000400
-9.428400 0.054400
-9.399900 0.147300
-9.371500 0.174000
-9.343100 0.210400
-9.314600 0.253500
-9.286200 0.285100
-9.257800 0.311100
-9.229300 0.336900
-9.200900 0.367000
-9.172500 0.397400
-9.144000 0.423400
-9.115600 0.449700
-9.087200 0.478600
-9.058700 0.545700
-9.030300 0.583600
-9.001900 0.603000
-8.973500 0.622700
-8.945000 0.633200
-8.916600 0.634900
-8.888200 0.648300
-8.859700 0.661100
-8.831300 0.673100
-8.802900 0.812700
-8.774400 0.821400
-8.746000 0.870500
-8.717600 0.916500
-8.689100 0.951800
-8.660700 0.999200
-8.632300 1.047500
-8.603800 1.100900
-8.575400 1.152600
-8.547000 1.215300
-8.518600 1.281600
-8.490100 1.351600
-8.461700 1.427900
-8.433300 1.507900
-8.404800 1.649200
-8.376400 1.806200
-8.348000 1.913100
-8.319500 1.970300
-8.291100 2.017700
-8.262700 2.092100
-8.234200 2.184700
-8.205800 2.266400
-8.177400 2.356000
-8.148900 2.452600
-8.120500 2.563200
-8.092100 2.685500
-8.063600 2.820100
-8.035200 2.990100
-8.006800 3.200000
-7.978400 3.465200
-7.949900 3.801200
-7.921500 4.258400
-7.893100 4.681800
-7.864600 4.914700
-7.836200 4.946100
-7.807800 5.069500
-7.779300 4.964700
-7.750900 4.976400
-7.722500 5.335500
-7.694000 5.666900
-7.665600 5.737000
-7.637200 6.034900
-7.608700 6.138600
-7.580300 6.469400
-7.551900 5.005200
-7.523500 0.000000
-7.495000 0.000000
-7.466600 0.000000
-7.438200 0.000000
-7.409700 0.000000
-7.381300 0.000000
-7.352900 0.000000
-7.324400 0.000000
-7.296000 0.000000
-7.267600 0.000000
-7.239100 0.000000
-7.210700 0.000000
-7.182300 0.000000
-7.153800 0.000000
-7.125400 0.000000
-7.097000 0.000000
-7.068600 0.000000
-7.040100 0.000000
-7.011700 0.000000
-6.983300 0.000000
-6.954800 0.000000
-6.926400 0.000000
-6.898000 0.000000
-6.869500 0.000000
-6.841100 0.000000
-6.812700 0.000000
-6.784200 0.000000
-6.755800 0.000000
-6.727400 0.000000
-6.698900 0.000000
-6.670500 0.000000
-6.642100 0.000000
-6.613600 0.000000
-6.585200 0.000000
-6.556800 0.000000
-6.528400 0.000000
-6.499900 0.000000
-6.471500 0.000000
-6.443100 0.000000
-6.414600 0.000000
-6.386200 0.000000
-6.357800 0.000000
-6.329300 0.000000
-6.300900 0.000000
-6.272500 0.000000
-6.244000 0.000000
-6.215600 0.000000
-6.187200 0.000000
-6.158700 0.000000
-6.130300 0.000000
-6.101900 0.000000
-6.073500 0.000000
-6.045000 0.000000
-6.016600 0.000000
-5.988200 0.000000
-5.959700 0.000000
-5.931300 0.000000
-5.902900 0.000000
-5.874400 0.000000
-5.846000 0.000000
-5.817600 0.000000
-5.789100 0.000000
-5.760700 0.000000
-5.732300 0.000000
-5.703800 0.000000
-5.675400 0.000000
-5.647000 0.000000
-5.618600 0.000000
-5.590100 0.000000
-5.561700 0.000000
-5.533300 0.000000
-5.504800 0.000000
-5.476400 0.000000
-5.448000 0.000000
-5.419500 0.000000
-5.391100 0.000000
-5.362700 0.000000
-5.334200 0.000000
-5.305800 0.000000
-5.277400 0.000000
-5.248900 0.000000
-5.220500 0.000000
-5.192100 0.000000
-5.163600 0.000000
-5.135200 0.000000
-5.106800 0.000000
-5.078400 0.000000
-5.049900 0.000000
-5.021500 0.000000
-4.993100 0.000000
-4.964600 0.000000
-4.936200 0.000000
-4.907800 0.000000
-4.879300 0.000000
-4.850900 0.000000
-4.822500 0.000000
-4.794000 0.000000
-4.765600 0.000000
-4.737200 0.000000
-4.708700 0.000000
-4.680300 0.000000
-4.651900 0.000000
-4.623500 0.000000
-4.595000 0.000000
-4.566600 0.000000
-4.538200 0.000000
-4.509700 0.000000
-4.481300 0.000000
-4.452900 0.000000
-4.424400 0.000000
-4.396000 0.000000
-4.367600 0.000000
-4.339100 0.000000
-4.310700 0.000000
-4.282300 0.000000
-4.253800 0.000000
-4.225400 0.000000
-4.197000 0.000000
-4.168600 0.000000
-4.140100 0.000000
-4.111700 0.000000
-4.083300 0.000000
-4.054800 0.000000
-4.026400 0.000000
-3.998000 0.000000
-3.969500 0.000000
-3.941100 0.000000
-3.912700 0.000000
-3.884200 0.000000
-3.855800 0.000000
-3.827400 0.000000
-3.798900 0.000000
-3.770500 0.000000
-3.742100 0.000000
-3.713600 0.000000
-3.685200 0.000000
-3.656800 0.000000
-3.628400 0.000000
-3.599900 0.000000
-3.571500 0.000000
-3.543100 0.000000
-3.514600 0.000000
-3.486200 0.000000
-3.457800 0.000000
-3.429300 0.000000
-3.400900 0.000000
-3.372500 0.000000
-3.344000 0.000000
-3.315600 0.000000
-3.287200 0.000000
-3.258700 0.000000
-3.230300 0.000000
-3.201900 0.000000
-3.173500 0.000000
-3.145000 0.000000
-3.116600 0.000000
-3.088200 0.000000
-3.059700 0.000000
-3.031300 0.000000
-3.002900 0.000000
-2.974400 0.000000
-2.946000 0.000000
-2.917600 0.000000
-2.889100 0.000000
-2.860700 0.000000
-2.832300 0.000000
-2.803800 0.000000
-2.775400 0.000000
-2.747000 0.000000
-2.718600 0.000000
-2.690100 0.000000
-2.661700 0.000000
-2.633300 0.000000
-2.604800 0.000000
-2.576400 0.000000
-2.548000 0.000000
-2.519500 0.000000
-2.491100 0.000000
-2.462700 0.000000
-2.434200 0.000000
-2.405800 0.000000
-2.377400 0.000000
-2.348900 0.000000
-2.320500 0.000000
-2.292100 0.000000
-2.263600 0.000000
-2.235200 0.000000
-2.206800 0.000000
-2.178400 0.000000
-2.149900 0.000000
-2.121500 0.000000
-2.093100 0.000000
-2.064600 0.000000
-2.036200 0.000000
-2.007800 0.000000
-1.979300 0.000000
-1.950900 0.000000
-1.922500 0.000000
-1.894000 0.000000
-1.865600 0.000000
-1.837200 0.000000
-1.808700 0.000000
-1.780300 0.000000
-1.751900 0.000000
-1.723500 0.000000
-1.695000 0.000000
-1.666600 0.000000
-1.638200 0.000000
-1.609700 0.000000
-1.581300 0.000000
-1.552900 0.000000
-1.524400 0.000000
-1.496000 0.000000
-1.467600 0.000000
-1.439100 0.000000
-1.410700 0.000000
-1.382300 0.000000
-1.353800 0.000000
-1.325400 0.000000
-1.297000 0.000000
-1.268500 0.000000
-1.240100 0.000000
-1.211700 0.000000
-1.183300 0.000000
-1.154800 0.000000
-1.126400 0.000000
-1.098000 0.000000
-1.069500 0.000000
-1.041100 0.000000
-1.012700 0.000000
-0.984200 0.000000
-0.955800 0.000000
-0.927400 0.000000
-0.898900 0.000000
-0.870500 0.000000
-0.842100 0.004700
-0.813600 0.052400
-0.785200 0.127300
-0.756800 0.160900
-0.728400 0.189600
-0.699900 0.214300
-0.671500 0.251200
-0.643100 0.317100
-0.614600 0.368100
-0.586200 0.345000
-0.557800 0.351800
-0.529300 0.397500
-0.500900 0.487600
-0.472500 0.494700
-0.444000 0.821300
-0.415600 1.358200
-0.387200 1.661400
-0.358700 1.947900
-0.330300 2.434500
-0.301900 2.628200
-0.273500 2.821900
-0.245000 3.058800
-0.216600 3.307500
-0.188200 3.947500
-0.159700 4.283400
-0.131300 4.327400
-0.102900 5.039700
-0.074400 6.884400
-0.046000 6.074800
-0.017600 6.114300
0.010900 6.494800
0.039300 6.663000
0.067700 5.251700
0.096200 4.678800
0.124600 4.372800
0.153000 3.911400
0.181500 3.684500
0.209900 3.516800
0.238300 3.395800
0.266700 3.351700
0.295200 3.212800
0.323600 3.197600
0.352000 3.206500
0.380500 3.917600
0.408900 3.806200
0.437300 3.094400
0.465800 2.497700
0.494200 2.084600
0.522600 1.887800
0.551100 1.703400
0.579500 1.568600
0.607900 1.360900
0.636400 1.076200
0.664800 0.763300
0.693200 0.370100
0.721600 0.308000
0.750100 0.254700
0.778500 0.174400
0.806900 0.453300
0.835400 1.035200
0.863800 1.134900
0.892200 1.364000
0.920700 2.266400
0.949100 2.953600
0.977500 3.133000
1.006000 3.085000
1.034400 3.180300
1.062800 3.051600
1.091300 2.760400
1.119700 2.787200
1.148100 3.011800
1.176500 2.816000
1.205000 2.798100
1.233400 2.982800
1.261800 3.209500
1.290300 3.483500
1.318700 3.362300
1.347100 2.837000
1.375600 2.741500
1.404000 2.666000
1.432400 2.640100
1.460900 2.766600
1.489300 2.907500
1.517700 2.988300
1.546200 2.945100
1.574600 2.993900
1.603000 3.083500
1.631500 2.951000
1.659900 3.195400
1.688300 5.588500
1.716700 4.198000
1.745200 3.986000
1.773600 3.939100
1.802000 3.961500
1.830500 3.976400
1.858900 4.126300
1.887300 4.356000
1.915800 4.104800
1.944200 3.089300
1.972600 2.342600
2.001100 2.225000
2.029500 2.158000
2.057900 2.103300
2.086400 2.179200
2.114800 2.419000
2.143200 2.912600
2.171600 3.560500
2.200100 4.569300
2.228500 6.315400
2.256900 5.732500
2.285400 5.107700
2.313800 4.689400
2.342200 5.825000
2.370700 6.085300
2.399100 5.515700
2.427500 5.564600
2.456000 4.292200
2.484400 4.005700
2.512800 3.889400
2.541300 3.922900
2.569700 3.567000
2.598100 3.158500
2.626500 2.904600
2.655000 3.483200
2.683400 3.609900
2.711800 4.621100
2.740300 5.030500
2.768700 4.948100
2.797100 4.953200
2.825600 4.721000
2.854000 3.768200
2.882400 3.311200
2.910900 2.826000
2.939300 2.475400
2.967700 2.178600
2.996200 1.918500
3.024600 1.715300
3.053000 1.651700
3.081500 1.629400
3.109900 1.435900
3.138300 1.260500
3.166700 1.085800
3.195200 0.931500
3.223600 0.803800
3.252000 0.624400
3.280500 0.475700
3.308900 0.343300
3.337300 0.172700
3.365800 0.136000
3.394200 0.186500
3.422600 0.306900
3.451100 0.499100
3.479500 0.593400
3.507900 0.674200
3.536400 0.738900
3.564800 0.836800
3.593200 0.910300
3.621600 1.003000
3.650100 1.113200
3.678500 1.209400
3.706900 1.313200
3.735400 1.441500
3.763800 1.598600
3.792200 1.774700
3.820700 1.921300
3.849100 2.130900
3.877500 2.344600
3.906000 2.524200
3.934400 2.693300
3.962800 3.549500
3.991300 3.189300
4.019700 3.541800
4.048100 4.320500
4.076500 3.388300
4.105000 2.816600
4.133400 2.683100
4.161800 2.671000
4.190300 2.902600
4.218700 3.009000
4.247100 3.765000
4.275600 4.364300
4.304000 4.393000
4.332400 4.659000
4.360900 4.363700
4.389300 4.373500
4.417700 4.429300
4.446200 4.506800
4.474600 3.905300
4.503000 3.299200
4.531500 3.223300
4.559900 3.480700
4.588300 2.399700
4.616700 2.226200
4.645200 2.071000
4.673600 1.935500
4.702000 1.800200
4.730500 1.678100
4.758900 1.574100
4.787300 1.482500
4.815800 1.398800
4.844200 1.323400
4.872600 1.264200
4.901100 1.269900
4.929500 1.340900
4.957900 1.492500
4.986400 1.609300
5.014800 1.739900
5.043200 1.954300
5.071600 2.404400
5.100100 2.591500
5.128500 2.880800
5.156900 3.172000
5.185400 3.671800
5.213800 3.972800
5.242200 4.214000
5.270700 4.372000
5.299100 5.027900
5.327500 4.876600
5.356000 4.516100
5.384400 4.370400
5.412800 4.361800
5.441300 3.764900
5.469700 2.567900
5.498100 2.119200
5.526600 1.941700
5.555000 1.526400
5.583400 1.481500
5.611800 1.622300
5.640300 2.616600
5.668700 3.754000
5.697100 2.933700
5.725600 3.184100
5.754000 2.889100
5.782400 2.929000
5.810900 3.038600
5.839300 3.096600
5.867700 3.180300
5.896200 3.249400
5.924600 3.616300
5.953000 3.854500
5.981500 3.899700
6.009900 3.856500
6.038300 3.321000
6.066700 2.854300
6.095200 2.565300
6.123600 2.380300
6.152000 2.255600
6.180500 2.381200
6.208900 2.652000
6.237300 2.541200
6.265800 2.455800
6.294200 2.439500
6.322600 2.451300
6.351100 2.334900
6.379500 2.335700
6.407900 2.332500
6.436400 2.315400
6.464800 2.322100
6.493200 2.352100
6.521600 2.375100
6.550100 2.302800
6.578500 2.286700
6.606900 2.288100
6.635400 2.269800
6.663800 2.270100
6.692200 2.300800
6.720700 2.343600
6.749100 2.375800
6.777500 2.383500
6.806000 2.317400
6.834400 2.104500
6.862800 2.011900
6.891300 1.989500
6.919700 2.022000
6.948100 2.049300
6.976600 2.067900
7.005000 2.078300
7.033400 2.085300
7.061800 2.081000
7.090300 1.985700
7.118700 2.003700
7.147100 2.043500
7.175600 2.252200
7.204000 2.441100
7.232400 2.833000
7.260900 3.062400
7.289300 2.932500
7.317700 2.943800
7.346200 2.979600
7.374600 2.981000
7.403000 2.861000
7.431500 2.871600
7.459900 2.723100
7.488300 2.453200
7.516700 2.252600
7.545200 2.076900
7.573600 1.954500
7.602000 1.854300
7.630500 1.774000
7.658900 1.694900
7.687300 2.042200
7.715800 2.354200
7.744200 2.469900
7.772600 2.470800
7.801100 2.464800
7.829500 2.467800
7.857900 2.433500
7.886400 2.331700
7.914800 2.251300
7.943200 2.140500
7.971600 2.105000
8.000100 2.106200
8.028500 2.015400
8.056900 1.926900
8.085400 1.859500
8.113800 1.429500
8.142200 1.688600
8.170700 2.178000
8.199100 2.707100
8.227500 2.556100
8.256000 2.287900
8.284400 2.495300
8.312800 2.329100
8.341300 2.364700
8.369700 2.445400
8.398100 2.454100
8.426600 2.400500
8.455000 2.921800
8.483400 2.253900
8.511800 2.086800
8.540300 1.958900
8.568700 1.931700
8.597100 1.840900
8.625600 1.744100
8.654000 1.799600
8.682400 2.140000
8.710900 2.666800
8.739300 2.633300
8.767700 3.207100
8.796200 3.345000
8.824600 3.329100
8.853000 3.300500
8.881500 3.610000
8.909900 3.757400
8.938300 3.637000
8.966700 3.506900
8.995200 3.375000
9.023600 3.315500
9.052000 3.498600
9.080500 3.592500
9.108900 3.602700
9.137300 3.576300
9.165800 3.205900
9.194200 2.851700
9.222600 2.709300
9.251100 2.474700
9.279500 2.353700
9.307900 2.364500
9.336400 2.402700
9.364800 2.340000
9.393200 2.199500
9.421600 1.963400
9.450100 1.775200
9.478500 1.672800
9.506900 1.544100
9.535400 1.492700
9.563800 1.455000
9.592200 1.406500
9.620700 1.391500
9.649100 1.481000
9.677500 1.445000
9.706000 1.426400
9.734400 1.350600
9.762800 1.271200
9.791300 1.382300
9.819700 1.324700
9.848100 1.138800
9.876600 0.970000
9.905000 0.753200
9.933400 0.679700
9.961800 0.717300
9.990300 0.911600
10.018700 1.099900
10.047100 1.173400
10.075600 1.319100
10.104000 1.403900
10.132400 1.445100
10.160900 1.471900
10.189300 1.507900
10.217700 1.865800
10.246200 2.045800
10.274600 2.186800
10.303000 2.335900
10.331500 2.480800
10.359900 2.648900
10.388300 3.024300
10.416700 3.420900
10.445200 3.543400
10.473600 3.725700
10.502000 5.947200
10.530500 4.462800
10.558900 3.393400
10.587300 3.480700
10.615800 3.839000
10.644200 3.798300
10.672600 3.741900
10.701100 3.725000
10.729500 3.597600
10.757900 3.539900
10.786400 3.526500
10.814800 3.784200
10.843200 3.176800
10.871600 2.923300
10.900100 2.806000
10.928500 2.806500
10.956900 2.835300
10.985400 2.861100
11.013800 2.882300
11.042200 2.880300
11.070700 2.858800
11.099100 2.844200
11.127500 2.812100
11.156000 2.746700
11.184400 2.700800
11.212800 2.582900
11.241300 2.434000
11.269700 2.365500
11.298100 2.166700
11.326600 1.899200
11.355000 1.335200
11.383400 0.866400
11.411800 0.394600
11.440300 0.051700
11.468700 0.000000
11.497100 0.004600
11.525600 0.027300
11.554000 0.053500
11.582400 0.082900
11.610900 0.116600
11.639300 0.153800
11.667700 0.142100
11.696200 0.160200
11.724600 0.176300
11.753000 0.198000
11.781500 0.217200
11.809900 0.235000
11.838300 0.256800
11.866700 0.279800
11.895200 0.280600
11.923600 0.297100
11.952000 0.314700
11.980500 0.336100
12.008900 0.361900
12.037300 0.388500
12.065800 0.411500
12.094200 0.433500
12.122600 0.456000
12.151100 0.479400
12.179500 0.521600
12.207900 0.602200
12.236400 0.720100
12.264800 0.862000
12.293200 1.092500
12.321700 1.098900
12.350100 1.108400
12.378500 1.055900
12.406900 0.997500
12.435400 0.918100
12.463800 0.839600
12.492200 0.803900
12.520700 0.780900
12.549100 0.762500
12.577500 0.747000
12.606000 0.737500
12.634400 0.733500
12.662800 0.730400
12.691300 0.724200
12.719700 0.721500
12.748100 0.724900
12.776600 0.726000
12.805000 0.724400
12.833400 0.722100
12.861800 0.721000
12.890300 0.717600
12.918700 0.714200
12.947100 0.710500
12.975600 0.706500
13.004000 0.702400
13.032400 0.699800
13.060900 0.696400
13.089300 0.695600
13.117700 0.696800
13.146200 0.699000
13.174600 0.702100
13.203000 0.705600
13.231500 0.709200
13.259900 0.712900
13.288300 0.716700
13.316700 0.720600
13.345200 0.724600
13.373600 0.728600
13.402000 0.732500
13.430500 0.736400
13.458900 0.740800
13.487300 0.746200
13.515800 0.751700
13.544200 0.757000
13.572600 0.764000
13.601100 0.770700
13.629500 0.776600
13.657900 0.782200
13.686400 0.788400
13.714800 0.795300
13.743200 0.803000
13.771700 0.811500
13.800100 0.820400
13.828500 0.829800
13.856900 0.839400
13.885400 0.849600
13.913800 0.861200
13.942200 0.874500
13.970700 0.890000
13.999100 0.914500
14.027500 0.944900
14.056000 0.975100
14.084400 0.939800
14.112800 0.922300
14.141300 0.922600
14.169700 0.921500
14.198100 0.919300
14.226600 0.916000
14.255000 0.916000
14.283400 0.920400
14.311800 0.924200
14.340300 0.934900
14.368700 0.938300
14.397100 0.939400
14.425600 0.934800
14.454000 0.916300
14.482400 0.898000
14.510900 0.879700
14.539300 0.830400
14.567700 0.826700
14.596200 0.823400
14.624600 0.819400
14.653000 0.816400
14.681500 0.813900
14.709900 0.816100
14.738300 0.819300
14.766700 0.823600
14.795200 0.833600
14.823600 0.845200
14.852000 0.880300
14.880500 0.969900
14.908900 0.982700
14.937300 0.979400
14.965800 0.924400
14.994200 0.891300
15.022600 0.893300
15.051100 0.894100
15.079500 0.895500
15.107900 0.897100
15.136400 0.897300
15.164800 0.898900
15.193200 0.899800
15.221700 0.900100
15.250100 0.884400
15.278500 0.874600
15.306900 0.872700
15.335400 0.872100
15.363800 0.871400
15.392200 0.870600
15.420700 0.867600
15.449100 0.868100
15.477500 0.867800
15.506000 0.868300
15.534400 0.869300
15.562800 0.871800
15.591300 0.874100
15.619700 0.875400
15.648100 0.875100
15.676600 0.873800
15.705000 0.870600
15.733400 0.864100
15.761800 0.860000
15.790300 0.855800
15.818700 0.851200
15.847100 0.846600
15.875600 0.842000
15.904000 0.837400
15.932400 0.834800
15.960900 0.836900
15.989300 0.841900
16.017700 0.845900
16.046200 0.849200
16.074600 0.853700
16.103000 0.859400
16.131500 0.866900
16.159900 0.873400
16.188300 0.886800
16.216700 0.893700
16.245200 0.893400
16.273600 0.907700
16.302000 0.926000
16.330500 0.952200
16.358900 0.980300
16.387300 1.024900
16.415800 1.015800
16.444200 0.986000
16.472600 0.951500
16.501100 0.874500
16.529500 0.804700
16.557900 0.778100
16.586400 0.747400
16.614800 0.747800
16.643200 0.710000
16.671700 0.644700
16.700100 0.567600
16.728500 0.500900
16.756900 0.497700
16.785400 0.288600
16.813800 0.222800
16.842200 0.226400
16.870700 0.237900
16.899100 0.326400
16.927500 0.429500
16.956000 0.534500
16.984400 0.615700
17.012800 0.713600
17.041300 0.843400
17.069700 0.879200
17.098100 0.818300
17.126600 0.768100
17.155000 0.762600
17.183400 0.765100
17.211800 0.767800
17.240300 0.804200
17.268700 0.843300
17.297100 0.859900
17.325600 0.771800
17.354000 0.776700
17.382400 0.789400
17.410900 0.841500
17.439300 0.926200
17.467700 1.040500
17.496200 1.191300
17.524600 1.264500
17.553000 1.341300
17.581500 1.380100
17.609900 1.389100
17.638300 1.365800
17.666700 1.338100
17.695200 1.340800
17.723600 1.360500
17.752000 1.378000
17.780500 1.395200
17.808900 1.407500
17.837300 1.394400
17.865800 1.397400
17.894200 1.346900
17.922600 1.335400
17.951100 1.315400
17.979500 1.295400
18.007900 1.286100
18.036400 1.278500
18.064800 1.273500
18.093200 1.271300
18.121700 1.280400
18.150100 1.298200
18.178500 1.324100
18.206900 1.351900
18.235400 1.381500
18.263800 1.413500
18.292200 1.380300
18.320700 1.379800
18.349100 1.378100
18.377500 1.376200
18.406000 1.376100
18.434400 1.372200
18.462800 1.365800
18.491300 1.387400
18.519700 1.472000
18.548100 1.496400
18.576600 1.445000
18.605000 1.412600
18.633400 1.382700
18.661800 1.355300
18.690300 1.337700
18.718700 1.337600
18.747100 1.360400
18.775600 1.388000
18.804000 1.411600
18.832400 1.438400
18.860900 1.474500
18.889300 1.512600
18.917700 1.524800
18.946200 1.532000
18.974600 1.543500
19.003000 1.552700
19.031500 1.557100
19.059900 1.556300
19.088300 1.545800
19.116800 1.457800
19.145200 1.428800
19.173600 1.431500
19.202000 1.439200
19.230500 1.467000
19.258900 1.461600
19.287300 1.451300
19.315800 1.439600
19.344200 1.427700
19.372600 1.413900
19.401100 1.402300
19.429500 1.411500
19.457900 1.448100
19.486400 1.456900
19.514800 1.438700
19.543200 1.398600
19.571700 1.363900
19.600100 1.340000
19.628500 1.326500
19.656900 1.317400
19.685400 1.306900
19.713800 1.293100
19.742200 1.282200
19.770700 1.283400
19.799100 1.290600
19.827500 1.297900
19.856000 1.276200
19.884400 1.264100
19.912800 1.268500
19.941300 1.271200
19.969700 1.293000
19.998100 1.325000
20.026600 1.366700
20.055000 1.428500
20.083400 1.439800
20.111800 1.407200
20.140300 1.367900
20.168700 1.339500
20.197100 1.320900
20.225600 1.317500
20.254000 1.316000
20.282400 1.351200
20.310900 1.418600
20.339300 1.456600
20.367700 1.418600
20.396200 1.365500
20.424600 1.387000
20.453000 1.444400
20.481500 1.549200
20.509900 1.683500
20.538300 1.765000
20.566800 1.800200
20.595200 1.809100
20.623600 1.845300
20.652000 1.909700
20.680500 2.025600
20.708900 2.091500
20.737300 2.168900
20.765800 2.273200
20.794200 2.404600
20.822600 2.519100
20.851100 2.313500
20.879500 2.081200
20.907900 1.925200
20.936400 1.872300
20.964800 1.850600
20.993200 2.063800
21.021700 1.934200
21.050100 1.937000
21.078500 1.916300
21.106900 1.802000
21.135400 1.711600
21.163800 1.654000
21.192200 1.623500
21.220700 1.738800
21.249100 1.737900
21.277500 1.859800
21.306000 1.777800
21.334400 1.805000
21.362800 1.827000
21.391300 1.811200
21.419700 1.676300
21.448100 1.582000
21.476600 1.494600
21.505000 1.616500
21.533400 1.381800
21.561800 1.300400
21.590300 1.316200
21.618700 1.330800
21.647100 1.345500
21.675600 1.355200
21.704000 1.408600
21.732400 1.460100
21.760900 1.519500
21.789300 1.615200
21.817700 1.985700
21.846200 1.969200
21.874600 2.079200
21.903000 2.170900
21.931500 2.204900
21.959900 2.102100
21.988300 2.082600
22.016800 2.080700
22.045200 2.108700
22.073600 2.083700
22.102000 2.023700
22.130500 1.968200
22.158900 1.952300
22.187300 1.906500
22.215800 1.859000
22.244200 1.835100
22.272600 2.327100
22.301100 1.843800
22.329500 1.688500
22.357900 1.562100
22.386400 1.468500
22.414800 1.402500
22.443200 1.357400
22.471700 1.318300
22.500100 1.297200
22.528500 1.310400
22.556900 1.335300
22.585400 1.350500
22.613800 1.365300
22.642200 1.542300
22.670700 2.768900
22.699100 1.622600
22.727500 1.564800
22.756000 1.477700
22.784400 1.481900
22.812800 1.492200
22.841300 1.500900
22.869700 1.499500
22.898100 1.484300
22.926600 1.477200
22.955000 1.485000
22.983400 1.496400
23.011800 1.521800
23.040300 1.543400
23.068700 1.558000
23.097100 1.565400
23.125600 1.578400
23.154000 1.599100
23.182400 1.775300
23.210900 1.939000
23.239300 2.171500
23.267700 2.453700
23.296200 2.889000
23.324600 2.477700
23.353000 2.389800
23.381500 2.315600
23.409900 2.274000
23.438300 2.243200
23.466800 2.256000
23.495200 2.244100
23.523600 2.170500
23.552000 2.126500
23.580500 2.090100
23.608900 2.037400
23.637300 1.990600
23.665800 1.944900
23.694200 1.891800
23.722600 1.813200
23.751100 1.675800
23.779500 1.535300
23.807900 1.365300
23.836400 1.297100
23.864800 1.297800
23.893200 1.345000
23.921700 1.390400
23.950100 1.455600
23.978500 1.517400
24.006900 1.569400
24.035400 1.655800
24.063800 1.798900
24.092200 1.747100
24.120700 1.650100
24.149100 1.693400
24.177500 1.747300
24.206000 1.784900
24.234400 1.805300
24.262800 1.813300
24.291300 1.807600
24.319700 1.807100
24.348100 1.812700
24.376600 1.809700
24.405000 1.819200
24.433400 1.875300
24.461800 1.913700
24.490300 1.986100
24.518700 2.030200
24.547100 2.067600
24.575600 2.101100
24.604000 2.140500
24.632400 2.146800
24.660900 2.151400
24.689300 2.147500
24.717700 2.142100
24.746200 2.146300
24.774600 2.160100
24.803000 2.192000
24.831500 2.214800
24.859900 2.217200
24.888300 2.203900
24.916800 2.189500
24.945200 2.169800
24.973600 2.153600
25.002000 2.134500
25.030500 2.103700
25.058900 2.070900
25.087300 2.043600
25.115800 2.027500
25.144200 2.026000
25.172600 2.000900
25.201100 1.980200
25.229500 1.960700
25.257900 1.944900
25.286400 1.948900
25.314800 1.958700
25.343200 1.986000
25.371700 1.998800
25.400100 2.003600
25.428500 2.201500
25.456900 1.989500
25.485400 1.865200
25.513800 1.840600
25.542200 1.916600
25.570700 1.959400
25.599100 1.755500
25.627500 1.699500
25.656000 1.629900
25.684400 1.578300
25.712800 1.523600
25.741300 1.484900
25.769700 1.451500
25.798100 1.444000
25.826600 1.389900
25.855000 1.381100
25.883400 1.384600
25.911800 1.367200
25.940300 1.446500
25.968700 1.416500
25.997100 1.370800
26.025600 1.336600
26.054000 1.306000
26.082400 1.246400
26.110900 1.201900
26.139300 1.161000
26.167700 1.130800
26.196200 1.097100
26.224600 1.063500
26.253000 1.036900
26.281500 1.076400
26.309900 1.184300
26.338300 1.252500
26.366800 1.256300
26.395200 1.278900
26.423600 1.336500
26.452000 1.313800
26.480500 1.380700
26.508900 1.252400
26.537300 1.207400
26.565800 1.201700
26.594200 1.126400
26.622600 1.018300
26.651100 0.992100
26.679500 0.988700
26.707900 1.026500
26.736400 1.061000
26.764800 1.074200
26.793200 1.234900
26.821700 1.214500
26.850100 0.754500
26.878500 0.785500
26.906900 0.835900
26.935400 0.895100
26.963800 0.948200
26.992200 0.994200
27.020700 1.044000
27.049100 1.094300
27.077500 1.167900
27.106000 1.213500
27.134400 1.320700
27.162800 1.508400
27.191300 1.680500
27.219700 1.829600
27.248100 1.967500
27.276600 2.104700
27.305000 2.314200
27.333400 2.488200
27.361900 2.606700
27.390300 2.658500
27.418700 2.646600
27.447100 2.589200
27.475600 2.543000
27.504000 2.543500
27.532400 2.896200
27.560900 2.401700
27.589300 2.220200
27.617700 1.724700
27.646200 1.501500
27.674600 1.469000
27.703000 1.533100
27.731500 1.451600
27.759900 1.446700
27.788300 1.502800
27.816800 1.609600
27.845200 1.856900
27.873600 2.109900
27.902000 1.804900
27.930500 1.870900
27.958900 2.011200
27.987300 2.046400
28.015800 2.057900
28.044200 2.080300
28.072600 2.053900
28.101100 2.075300
28.129500 2.122000
28.157900 2.053900
28.186400 1.981800
28.214800 1.932200
28.243200 1.852900
28.271700 1.788900
28.300100 1.726100
28.328500 1.698200
28.356900 1.689400
28.385400 1.677800
28.413800 1.661700
28.442200 1.626500
28.470700 1.588900
28.499100 1.544500
28.527500 1.497200
28.556000 1.446500
28.584400 1.394200
28.612800 1.358700
28.641300 1.366400
28.669700 1.381700
28.698100 1.394200
28.726600 1.383200
28.755000 1.384600
28.783400 1.392600
28.811900 1.308400
28.840300 1.264800
28.868700 1.174700
28.897100 1.036000
28.925600 0.966600
28.954000 0.927200
28.982400 0.906600
29.010900 0.910200
29.039300 0.953300
29.067700 0.942200
29.096200 0.931400
29.124600 0.921500
29.153000 0.914200
29.181500 1.001800
29.209900 0.898800
29.238300 0.916900
29.266800 0.930500
29.295200 0.954300
29.323600 1.028300
29.352000 1.034900
29.380500 0.985400
29.408900 0.961400
29.437300 0.977700
29.465800 0.991400
29.494200 0.943800
29.522600 0.927800
29.551100 0.908100
29.579500 0.934700
29.607900 0.908400
29.636400 0.861300
29.664800 0.802300
29.693200 0.738500
29.721700 0.671600
29.750100 0.613500
29.778500 0.570400
29.806900 0.544900
29.835400 0.538700
29.863800 0.526300
29.892200 0.518000
29.920700 0.511500
29.949100 0.504200
29.977500 0.498100
30.006000 0.493900
30.034400 0.492600
30.062800 0.529400
30.091300 0.552100
30.119700 0.620700
30.148100 0.783900
30.176600 0.950700
30.205000 1.132000
30.233400 1.291300
30.261900 1.417200
30.290300 1.613400
30.318700 1.906900
30.347100 2.610800
30.375600 2.652800
30.404000 2.495200
30.432400 2.315600
30.460900 2.182900
30.489300 2.115600
30.517700 2.016700
30.546200 1.950900
30.574600 1.986200
30.603000 2.000700
30.631500 1.900800
30.659900 1.877500
30.688300 1.860300
30.716800 1.835100
30.745200 1.864500
30.773600 1.854100
30.802000 1.821300
30.830500 1.829800
30.858900 1.848500
30.887300 1.880000
30.915800 1.913000
30.944200 1.937700
30.972600 1.959000
31.001100 1.945200
31.029500 1.906900
31.057900 1.830100
31.086400 1.783700
31.114800 1.726200
31.143200 1.704500
31.171700 1.691600
31.200100 1.677800
31.228500 1.671700
31.256900 1.673600
31.285400 1.675700
31.313800 1.619400
31.342200 1.563700
31.370700 1.530000
31.399100 1.504900
31.427500 1.540600
31.456000 1.724800
31.484400 1.728100
31.512800 1.728800
31.541300 1.835400
31.569700 1.962400
31.598100 2.154200
31.626600 2.369800
31.655000 2.281000
31.683400 2.296900
31.711900 2.270100
31.740300 2.241100
31.768700 2.245600
31.797100 2.260800
31.825600 2.255500
31.854000 2.575600
31.882400 2.026500
31.910900 1.916700
31.939300 1.944800
31.967700 2.126000
31.996200 2.213000
32.024600 2.306100
32.053000 2.426000
32.081500 2.555000
32.109900 2.587500
32.138300 2.470000
32.166800 2.434400
32.195200 2.427700
32.223600 2.420800
32.252000 2.831500
32.280500 2.561800
32.308900 2.563000
32.337300 2.512600
32.365800 2.326100
32.394200 2.305500
32.422600 2.325700
32.451100 2.475100
32.479500 2.646800
32.507900 2.706300
32.536400 2.900600
32.564800 3.161300
32.593200 3.498800
32.621700 3.530100
32.650100 3.242200
32.678500 3.165700
32.706900 2.785700
32.735400 2.593200
32.763800 2.467300
32.792200 2.385800
32.820700 2.359100
32.849100 2.334100
32.877500 2.255400
32.906000 2.175700
32.934400 2.103500
32.962800 2.054600
32.991300 2.011000
33.019700 1.867200
33.048100 1.831200
33.076600 1.799500
33.105000 1.771400
33.133400 1.744100
33.161900 1.718400
33.190300 1.695500
33.218700 1.680100
33.247100 1.673000
33.275600 1.654100
33.304000 1.658200
33.332400 1.661800
33.360900 1.682700
33.389300 1.737600
33.417700 1.763600
33.446200 1.736800
33.474600 1.689400
33.503000 1.635300
33.531500 1.590900
33.559900 1.545300
33.588300 1.499700
33.616800 1.460800
33.645200 1.420200
33.673600 1.324600
33.702000 1.262800
33.730500 1.231000
33.758900 1.189000
33.787300 1.184700
33.815800 1.194300
33.844200 1.211800
33.872600 1.234900
33.901100 1.252900
33.929500 1.210500
33.957900 1.214300
33.986400 1.236600
34.014800 1.231000
34.043200 1.240700
34.071700 1.255600
34.100100 1.202500
34.128500 1.144100
34.157000 1.088700
34.185400 1.032000
34.213800 0.936700
34.242200 0.729800
34.270700 0.605700
34.299100 0.550200
34.327500 0.519900
34.356000 0.499800
34.384400 0.478900
34.412800 0.473000
34.441300 0.500000
34.469700 0.528100
34.498100 0.610400
34.526600 0.701900
34.555000 0.790000
34.583400 1.120700
34.611900 1.393200
34.640300 1.508600
34.668700 1.651000
34.697100 1.746300
34.725600 1.707400
34.754000 1.630200
34.782400 1.665400
34.810900 1.704700
34.839300 1.826200
34.867700 1.931700
34.896200 2.121500
34.924600 2.552500
34.953000 3.190300
34.981500 3.053700
35.009900 3.001700
35.038300 2.911300
35.066800 3.066400
35.095200 2.719600
35.123600 2.645300
35.152000 2.581600
35.180500 2.509100
35.208900 2.443600
35.237300 2.350100
35.265800 2.376200
35.294200 2.220800
35.322600 2.229500
35.351100 2.367700
35.379500 2.302700
35.407900 2.202100
35.436400 2.186600
35.464800 2.168400
35.493200 2.163500
35.521700 2.234300
35.550100 2.212600
35.578500 2.180400
35.607000 2.173900
35.635400 2.183200
35.663800 2.262400
35.692200 2.481200
35.720700 2.588200
35.749100 2.534000
35.777500 2.413400
35.806000 2.365400
35.834400 2.311100
35.862800 2.255500
35.891300 2.207400
35.919700 2.173600
35.948100 2.127800
35.976600 2.013500
36.005000 1.806000
36.033400 1.722200
36.061900 1.552000
36.090300 1.494200
36.118700 1.440500
36.147100 1.390400
36.175600 1.316500
36.204000 1.242100
36.232400 1.190800
36.260900 1.406300
36.289300 1.609600
36.317700 1.707100
36.346200 1.633600
36.374600 1.587500
36.403000 1.558200
36.431500 1.549200
36.459900 1.572700
36.488300 1.649100
36.516800 1.666000
36.545200 1.681000
36.573600 1.709000
36.602000 1.748200
36.630500 1.816700
36.658900 1.917800
36.687300 2.013200
36.715800 2.066500
36.744200 2.145300
36.772600 2.239300
36.801100 2.346300
36.829500 2.608400
36.857900 2.696400
36.886400 2.810700
36.914800 3.174000
36.943200 2.820900
36.971700 2.789300
37.000100 2.844100
37.028500 2.843600
37.057000 3.006700
37.085400 3.225500
37.113800 3.427500
37.142200 3.605000
37.170700 3.636400
37.199100 3.460900
37.227500 3.372300
37.256000 3.363100
37.284400 3.545600
37.312800 3.624600
37.341300 3.513400
37.369700 3.473400
37.398100 3.379200
37.426600 3.045000
37.455000 2.641800
37.483400 2.449500
37.511900 2.349800
37.540300 2.232000
37.568700 2.076500
37.597100 2.021900
37.625600 1.984000
37.654000 1.941500
37.682400 1.911700
37.710900 1.924900
37.739300 1.934100
37.767700 1.922800
37.796200 1.931100
37.824600 2.001500
37.853000 1.948700
37.881500 1.991300
37.909900 2.059100
37.938300 2.150500
37.966800 2.249900
37.995200 2.304000
38.023600 2.298000
38.052000 2.242700
38.080500 2.163400
38.108900 2.080900
38.137300 2.009900
38.165800 1.971100
38.194200 1.922000
38.222600 1.848200
38.251100 1.775400
38.279500 1.684600
38.307900 1.606500
38.336400 1.573800
38.364800 1.569000
38.393200 1.563100
38.421700 1.590400
38.450100 1.682300
38.478500 1.747300
38.507000 1.806900
38.535400 1.892900
38.563800 1.922900
38.592200 1.969500
38.620700 1.998500
38.649100 2.013800
38.677500 2.025100
38.706000 2.036500
38.734400 2.063700
38.762800 2.076900
38.791300 2.094500
38.819700 2.142600
38.848100 2.198400
38.876600 2.248300
38.905000 2.323800
38.933400 2.423500
38.961900 2.603100
38.990300 2.868700
39.018700 3.257500
39.047100 3.790700
39.075600 4.571700
39.104000 5.020600
39.132400 4.820500
39.160900 4.739200
39.189300 4.833800
39.217700 5.008000
39.246200 5.444100
39.274600 6.353800
39.303000 10.818400
39.331500 13.670500
39.359900 15.350600
39.388300 12.360900
39.416800 11.216900
39.445200 9.513600
39.473600 21.041000
39.502000 54.070500
39.530500 36.756700
39.558900 22.903400
39.587300 32.610500
39.615800 24.826500
39.644200 21.216200
39.672600 18.170900
39.701100 24.919500
39.729500 15.946900
39.757900 8.601100
39.786400 7.762700
39.814800 7.521300
39.843200 7.301600
39.871700 6.488900
39.900100 5.877800
39.928500 5.397300
39.957000 4.930400
39.985400 4.727800
40.013800 4.819800
40.042200 5.151100
40.070700 4.848800
40.099100 4.932400
40.127500 4.813900
40.156000 4.614000
40.184400 4.328100
40.212800 3.955600
40.241300 3.467900
40.269700 3.440300
40.298100 3.128600
40.326600 3.193300
40.355000 3.132600
40.383400 3.022200
40.411900 2.825200
40.440300 2.684500
40.468700 2.340600
40.497100 2.130600
40.525600 2.219400
40.554000 2.109600
40.582400 1.603500
40.610900 1.450500
40.639300 1.377300
40.667700 1.329000
40.696200 1.303600
40.724600 1.279800
40.753000 1.286300
40.781500 1.329100
40.809900 1.405300
40.838300 1.505700
40.866800 1.665800
40.895200 1.787400
40.923600 1.840800
40.952100 1.922600
40.980500 2.061100
41.008900 2.120400
41.037300 2.059900
41.065800 2.010900
41.094200 1.961600
41.122600 1.913000
41.151100 1.901400
41.179500 1.884200
41.207900 1.874000
41.236400 1.893500
41.264800 1.908500
41.293200 1.945800
41.321700 1.954200
41.350100 2.003500
41.378500 1.963500
41.407000 1.929500
41.435400 1.911400
41.463800 1.869800
41.492200 1.779800
41.520700 1.699100
41.549100 1.641900
41.577500 1.572200
41.606000 1.593700
41.634400 1.891700
41.662800 1.528100
41.691300 1.423800
41.719700 1.498600
41.748100 1.617900
41.776600 1.596500
41.805000 1.682000
41.833400 1.759300
41.861900 1.797500
41.890300 1.718700
41.918700 1.624900
41.947100 1.500200
41.975600 1.435100
42.004000 1.384000
42.032400 1.258700
42.060900 0.900600
42.089300 0.491600
42.117700 0.254800
42.146200 0.127800
42.174600 0.058400
42.203000 0.015900
42.231500 0.000100
42.259900 0.000000
42.288300 0.000000
42.316800 0.000000
42.345200 0.000000
42.373600 0.000000
42.402100 0.000000
42.430500 0.000000
42.458900 0.000000
42.487300 0.000000
42.515800 0.000000
42.544200 0.000000
42.572600 0.000000
42.601100 0.000000
42.629500 0.000000
42.657900 0.000000
42.686400 0.000000
42.714800 0.000000
42.743200 0.000000
42.771700 0.000000
42.800100 0.000000
42.828500 0.000000
42.857000 0.000000
42.885400 0.000000
42.913800 0.000000
42.942200 0.000000
42.970700 0.000000
42.999100 0.000000
43.027500 0.000000
43.056000 0.000000
43.084400 0.000000
43.112800 0.000000
43.141300 0.000000
43.169700 0.000000
43.198100 0.000000
43.226600 0.000000
43.255000 0.000000
43.283400 0.000000
43.311900 0.000000
43.340300 0.000000
43.368700 0.000000
43.397100 0.000000
43.425600 0.000000
43.454000 0.000000
43.482400 0.000000
43.510900 0.000000
43.539300 0.000000
43.567700 0.000000
43.596200 0.000000
43.624600 0.000000
43.653000 0.000000
43.681500 0.000000
43.709900 0.000000
43.738300 0.000000
43.766800 0.000000
43.795200 0.000000
43.823600 0.000000
43.852100 0.000000
43.880500 0.000000
43.908900 0.000000
43.937300 0.000000
43.965800 0.000000
43.994200 0.000000
44.022600 0.000000
44.051100 0.000000
44.079500 0.000000
44.107900 0.000000
44.136400 0.000000
44.164800 0.000000
44.193200 0.000000
44.221700 0.000000
44.250100 0.000000
44.278500 0.000000
44.307000 0.000000
44.335400 0.000000
44.363800 0.000000
44.392200 0.000000
44.420700 0.000000
44.449100 0.000000
44.477500 0.000000
44.506000 0.000000
44.534400 0.000000
44.562800 0.000000
44.591300 0.000000
44.619700 0.000000
44.648100 0.000000
44.676600 0.000000
44.705000 0.000000
44.733400 0.000000
44.761900 0.000000
44.790300 0.000000
44.818700 0.000000
e
