set title 'mp-755333 - Density of States'
set xlabel 'Energy (eV)'
set ylabel 'DOS (states/eV)'
set grid
set xrange [-10:10]
set yrange [0:15.805]
set xzeroaxis lt -1
set terminal png size 800,600
set output 'mp-755333_dos_gnuplot.png'
plot '-' using 1:2 with lines title 'DOS'
-24.076800 0.000000
-24.039100 0.000000
-24.001300 0.000000
-23.963600 0.000000
-23.925900 0.000000
-23.888200 0.000000
-23.850400 0.000000
-23.812700 0.000000
-23.775000 0.000000
-23.737200 0.000000
-23.699500 0.000000
-23.661800 0.000000
-23.624000 0.000000
-23.586300 0.000000
-23.548600 0.000000
-23.510900 0.000000
-23.473100 0.000000
-23.435400 0.000000
-23.397700 0.000000
-23.359900 0.000000
-23.322200 0.000000
-23.284500 0.000000
-23.246700 0.000000
-23.209000 0.000000
-23.171300 0.000000
-23.133600 0.000000
-23.095800 0.000000
-23.058100 0.000000
-23.020400 0.000000
-22.982600 0.000000
-22.944900 0.000000
-22.907200 0.000000
-22.869500 0.000000
-22.831700 0.000000
-22.794000 0.000000
-22.756300 0.000000
-22.718500 0.000000
-22.680800 0.000000
-22.643100 0.000000
-22.605300 0.000000
-22.567600 0.000000
-22.529900 0.000000
-22.492200 0.000000
-22.454400 0.000000
-22.416700 0.000000
-22.379000 0.000000
-22.341200 0.000000
-22.303500 0.000000
-22.265800 0.000000
-22.228000 0.000000
-22.190300 0.000000
-22.152600 0.000000
-22.114900 0.000000
-22.077100 0.000000
-22.039400 0.000000
-22.001700 0.000000
-21.963900 0.000000
-21.926200 0.000000
-21.888500 0.000000
-21.850800 0.000000
-21.813000 0.000000
-21.775300 0.000000
-21.737600 0.000000
-21.699800 0.000000
-21.662100 0.000000
-21.624400 0.000000
-21.586600 0.000000
-21.548900 0.000000
-21.511200 0.000000
-21.473500 0.000000
-21.435700 0.000000
-21.398000 0.000000
-21.360300 0.000000
-21.322500 0.000000
-21.284800 0.000000
-21.247100 0.000000
-21.209300 0.000000
-21.171600 0.000000
-21.133900 0.000000
-21.096200 0.000000
-21.058400 0.000000
-21.020700 0.000000
-20.983000 0.000000
-20.945200 0.000000
-20.907500 0.000000
-20.869800 0.000000
-20.832100 0.000000
-20.794300 0.000000
-20.756600 0.000000
-20.718900 0.000000
-20.681100 0.000000
-20.643400 0.381100
-20.605700 1.819800
-20.567900 3.191800
-20.530200 5.352400
-20.492500 12.126300
-20.454800 11.445800
-20.417000 11.268200
-20.379300 4.348800
-20.341600 1.980500
-20.303800 0.000000
-20.266100 0.000000
-20.228400 0.000000
-20.190600 0.000000
-20.152900 0.000000
-20.115200 0.000000
-20.077500 0.000000
-20.039700 0.000000
-20.002000 0.000000
-19.964300 0.000000
-19.926500 0.000000
-19.888800 0.000000
-19.851100 0.000000
-19.813400 0.000000
-19.775600 0.000000
-19.737900 0.000000
-19.700200 0.000000
-19.662400 0.000000
-19.624700 0.000000
-19.587000 0.000000
-19.549200 0.000000
-19.511500 0.000000
-19.473800 0.000000
-19.436100 0.000000
-19.398300 0.000000
-19.360600 0.000000
-19.322900 0.000000
-19.285100 0.000000
-19.247400 0.000000
-19.209700 0.000000
-19.172000 0.000000
-19.134200 0.000000
-19.096500 0.000000
-19.058800 0.000000
-19.021000 0.000000
-18.983300 0.000000
-18.945600 0.000000
-18.907800 0.000000
-18.870100 0.000000
-18.832400 0.000000
-18.794700 0.000000
-18.756900 0.000000
-18.719200 0.000000
-18.681500 0.000000
-18.643700 0.000000
-18.606000 0.000000
-18.568300 0.000000
-18.530500 0.000000
-18.492800 0.000000
-18.455100 0.000000
-18.417400 0.000000
-18.379600 0.000000
-18.341900 0.000000
-18.304200 0.000000
-18.266400 0.000000
-18.228700 0.000000
-18.191000 0.000000
-18.153300 0.000000
-18.115500 0.000000
-18.077800 0.000000
-18.040100 0.000000
-18.002300 0.000000
-17.964600 0.000000
-17.926900 0.000000
-17.889100 0.000000
-17.851400 0.000000
-17.813700 0.000000
-17.776000 0.000000
-17.738200 0.000000
-17.700500 0.000000
-17.662800 0.000000
-17.625000 0.000000
-17.587300 0.000000
-17.549600 0.000000
-17.511800 0.000000
-17.474100 0.000000
-17.436400 0.000000
-17.398700 0.000000
-17.360900 0.000000
-17.323200 0.000000
-17.285500 0.000000
-17.247700 0.000000
-17.210000 0.000000
-17.172300 0.000000
-17.134600 0.000000
-17.096800 0.000000
-17.059100 0.000000
-17.021400 0.000000
-16.983600 0.000000
-16.945900 0.000000
-16.908200 0.000000
-16.870400 0.000000
-16.832700 0.000000
-16.795000 0.000000
-16.757300 0.000000
-16.719500 0.000000
-16.681800 0.000000
-16.644100 0.000000
-16.606300 0.000000
-16.568600 0.000000
-16.530900 0.000000
-16.493100 0.000000
-16.455400 0.000000
-16.417700 0.000000
-16.380000 0.000000
-16.342200 0.000000
-16.304500 0.000000
-16.266800 0.000000
-16.229000 0.000000
-16.191300 0.000000
-16.153600 0.000000
-16.115900 0.000000
-16.078100 0.000000
-16.040400 0.000000
-16.002700 0.000000
-15.964900 0.000000
-15.927200 0.000000
-15.889500 0.000000
-15.851700 0.000000
-15.814000 0.000000
-15.776300 0.000000
-15.738600 0.000000
-15.700800 0.000000
-15.663100 0.000000
-15.625400 0.000000
-15.587600 0.000000
-15.549900 0.000000
-15.512200 0.000000
-15.474400 0.000000
-15.436700 0.000000
-15.399000 0.000000
-15.361300 0.000000
-15.323500 0.000000
-15.285800 0.000000
-15.248100 0.000000
-15.210300 0.000000
-15.172600 0.000000
-15.134900 0.000000
-15.097200 0.000000
-15.059400 0.000000
-15.021700 0.000000
-14.984000 0.000000
-14.946200 0.000000
-14.908500 0.000000
-14.870800 0.361000
-14.833000 0.563100
-14.795300 0.789800
-14.757600 1.031800
-14.719900 1.353000
-14.682100 1.922700
-14.644400 2.244000
-14.606700 2.454700
-14.568900 2.680200
-14.531200 2.994400
-14.493500 3.561300
-14.455700 4.822400
-14.418000 3.964200
-14.380300 4.910200
-14.342600 3.679400
-14.304800 2.932300
-14.267100 2.607900
-14.229400 2.314700
-14.191600 2.178900
-14.153900 1.942700
-14.116200 1.865400
-14.078500 1.750100
-14.040700 0.562200
-14.003000 0.000000
-13.965300 0.000000
-13.927500 0.000000
-13.889800 0.000000
-13.852100 0.000000
-13.814300 0.000000
-13.776600 0.000000
-13.738900 0.000000
-13.701200 0.000000
-13.663400 0.000000
-13.625700 0.000000
-13.588000 0.000000
-13.550200 0.000000
-13.512500 0.000000
-13.474800 0.000000
-13.437000 0.000000
-13.399300 0.000000
-13.361600 0.000000
-13.323900 0.000000
-13.286100 0.000000
-13.248400 0.000000
-13.210700 0.000000
-13.172900 0.000000
-13.135200 0.000000
-13.097500 0.000000
-13.059800 0.000000
-13.022000 0.000000
-12.984300 0.000000
-12.946600 0.000000
-12.908800 0.000000
-12.871100 0.000000
-12.833400 0.000000
-12.795600 0.000000
-12.757900 0.000000
-12.720200 0.000000
-12.682500 0.000000
-12.644700 0.000000
-12.607000 0.000000
-12.569300 0.000000
-12.531500 0.000000
-12.493800 0.000000
-12.456100 0.000000
-12.418400 0.000000
-12.380600 0.000000
-12.342900 0.000000
-12.305200 0.000000
-12.267400 0.000000
-12.229700 0.000000
-12.192000 0.000000
-12.154200 0.000000
-12.116500 0.000000
-12.078800 0.000000
-12.041100 0.000000
-12.003300 0.000000
-11.965600 0.000000
-11.927900 0.000000
-11.890100 0.000000
-11.852400 0.000000
-11.814700 0.000000
-11.776900 0.000000
-11.739200 0.000000
-11.701500 0.000000
-11.663800 0.000000
-11.626000 0.000000
-11.588300 0.000000
-11.550600 0.000000
-11.512800 0.000000
-11.475100 0.000000
-11.437400 0.000000
-11.399700 0.000000
-11.361900 0.000000
-11.324200 0.000000
-11.286500 0.000000
-11.248700 0.000000
-11.211000 0.000000
-11.173300 0.000000
-11.135500 0.000000
-11.097800 0.000000
-11.060100 0.000000
-11.022400 0.000000
-10.984600 0.000000
-10.946900 0.000000
-10.909200 0.000000
-10.871400 0.000000
-10.833700 0.000000
-10.796000 0.000000
-10.758200 0.000000
-10.720500 0.000000
-10.682800 0.000000
-10.645100 0.000000
-10.607300 0.000000
-10.569600 0.000000
-10.531900 0.000000
-10.494100 0.000000
-10.456400 0.000000
-10.418700 0.000000
-10.381000 0.000000
-10.343200 0.000000
-10.305500 0.000000
-10.267800 0.000000
-10.230000 0.000000
-10.192300 0.000000
-10.154600 0.000000
-10.116800 0.000000
-10.079100 0.000000
-10.041400 0.000000
-10.003700 0.000000
-9.965900 0.000000
-9.928200 0.000000
-9.890500 0.000000
-9.852700 0.000000
-9.815000 0.000000
-9.777300 0.000000
-9.739500 0.000000
-9.701800 0.000000
-9.664100 0.000000
-9.626400 0.000000
-9.588600 0.000000
-9.550900 0.000000
-9.513200 0.000000
-9.475400 0.000000
-9.437700 0.000000
-9.400000 0.000000
-9.362300 0.000000
-9.324500 0.000000
-9.286800 0.000000
-9.249100 0.000000
-9.211300 0.000000
-9.173600 0.000000
-9.135900 0.000000
-9.098100 0.000000
-9.060400 0.000000
-9.022700 0.000000
-8.985000 0.000000
-8.947200 0.000000
-8.909500 0.000000
-8.871800 0.000000
-8.834000 0.000000
-8.796300 0.000000
-8.758600 0.000000
-8.720800 0.000000
-8.683100 0.000000
-8.645400 0.000000
-8.607700 0.000000
-8.569900 0.000000
-8.532200 0.000000
-8.494500 0.000000
-8.456700 0.000000
-8.419000 0.000000
-8.381300 0.000000
-8.343600 0.000000
-8.305800 0.000000
-8.268100 0.000000
-8.230400 0.000000
-8.192600 0.000000
-8.154900 0.000000
-8.117200 0.000000
-8.079400 0.000000
-8.041700 0.000000
-8.004000 0.000000
-7.966300 0.000000
-7.928500 0.000000
-7.890800 0.000000
-7.853100 0.000000
-7.815300 0.000000
-7.777600 0.000000
-7.739900 0.000000
-7.702100 0.000000
-7.664400 0.000000
-7.626700 0.000000
-7.589000 0.000000
-7.551200 0.000000
-7.513500 0.000000
-7.475800 0.000000
-7.438000 0.000000
-7.400300 0.000000
-7.362600 0.000000
-7.324900 0.000000
-7.287100 0.108100
-7.249400 0.194900
-7.211700 0.298300
-7.173900 0.374200
-7.136200 0.853700
-7.098500 1.258200
-7.060700 1.347200
-7.023000 1.400300
-6.985300 1.548800
-6.947600 1.603600
-6.909800 1.888100
-6.872100 1.979100
-6.834400 2.754900
-6.796600 2.722900
-6.758900 2.232000
-6.721200 2.320600
-6.683400 2.681600
-6.645700 3.244500
-6.608000 4.556600
-6.570300 4.648700
-6.532500 5.385200
-6.494800 4.549700
-6.457100 2.485200
-6.419300 1.521900
-6.381600 0.943700
-6.343900 0.283800
-6.306200 0.014300
-6.268400 0.000000
-6.230700 0.000400
-6.193000 0.076700
-6.155200 0.353100
-6.117500 0.767000
-6.079800 1.136700
-6.042000 1.576300
-6.004300 1.972400
-5.966600 2.218100
-5.928900 2.509600
-5.891100 3.483000
-5.853400 3.778900
-5.815700 4.774500
-5.777900 5.868900
-5.740200 6.559500
-5.702500 7.019200
-5.664700 7.485700
-5.627000 7.268200
-5.589300 6.744300
-5.551600 6.398200
-5.513800 5.687300
-5.476100 5.314900
-5.438400 4.517600
-5.400600 3.759800
-5.362900 3.302500
-5.325200 2.990400
-5.287500 2.709500
-5.249700 2.665800
-5.212000 2.702600
-5.174300 1.445700
-5.136500 1.272200
-5.098800 1.377300
-5.061100 5.017200
-5.023300 9.454200
-4.985600 13.375300
-4.947900 10.529100
-4.910200 10.385400
-4.872400 9.265300
-4.834700 12.839700
-4.797000 14.368000
-4.759200 12.084400
-4.721500 7.272500
-4.683800 3.270100
-4.646100 2.826300
-4.608300 2.681400
-4.570600 3.173100
-4.532900 2.636200
-4.495100 2.520500
-4.457400 2.415000
-4.419700 2.364400
-4.381900 2.439800
-4.344200 2.504300
-4.306500 2.610600
-4.268800 2.558900
-4.231000 2.567400
-4.193300 2.588600
-4.155600 2.486200
-4.117800 2.412900
-4.080100 2.192700
-4.042400 2.055900
-4.004600 2.001700
-3.966900 2.031100
-3.929200 2.082200
-3.891500 1.915900
-3.853700 1.994200
-3.816000 2.120700
-3.778300 2.207800
-3.740500 2.364300
-3.702800 2.656900
-3.665100 2.915500
-3.627400 2.955700
-3.589600 2.688300
-3.551900 2.563900
-3.514200 2.457100
-3.476400 2.428800
-3.438700 2.449200
-3.401000 2.518300
-3.363200 2.748800
-3.325500 2.668100
-3.287800 2.296200
-3.250100 1.915700
-3.212300 1.669700
-3.174600 2.222800
-3.136900 2.509900
-3.099100 2.839400
-3.061400 2.881000
-3.023700 2.697900
-2.985900 2.106300
-2.948200 2.029200
-2.910500 2.098600
-2.872800 2.263100
-2.835000 2.249200
-2.797300 2.240500
-2.759600 2.223800
-2.721800 2.265200
-2.684100 2.188500
-2.646400 2.041800
-2.608700 2.151500
-2.570900 2.201900
-2.533200 2.143700
-2.495500 2.145800
-2.457700 2.128900
-2.420000 2.117200
-2.382300 2.043600
-2.344500 2.297700
-2.306800 1.664700
-2.269100 1.261600
-2.231400 0.960500
-2.193600 0.786500
-2.155900 0.691900
-2.118200 0.607700
-2.080400 0.530300
-2.042700 0.463800
-2.005000 0.406100
-1.967200 0.333600
-1.929500 0.268300
-1.891800 0.225400
-1.854100 0.147400
-1.816300 0.054000
-1.778600 0.000000
-1.740900 0.114600
-1.703100 0.383600
-1.665400 0.556400
-1.627700 0.709000
-1.590000 0.753300
-1.552200 0.777700
-1.514500 0.792500
-1.476800 0.820100
-1.439000 0.847300
-1.401300 0.870000
-1.363600 0.893100
-1.325800 0.916400
-1.288100 0.946500
-1.250400 0.980700
-1.212700 1.014900
-1.174900 1.047600
-1.137200 1.085000
-1.099500 1.130200
-1.061700 1.182400
-1.024000 1.236800
-0.986300 1.294500
-0.948500 1.371000
-0.910800 1.534000
-0.873100 1.574700
-0.835400 1.641800
-0.797600 1.796200
-0.759900 1.862100
-0.722200 1.918100
-0.684400 1.940600
-0.646700 1.969100
-0.609000 2.011500
-0.571300 2.001600
-0.533500 2.052400
-0.495800 2.174600
-0.458100 2.064600
-0.420300 2.070800
-0.382600 2.096900
-0.344900 1.699900
-0.307100 1.354300
-0.269400 1.045800
-0.231700 0.905600
-0.194000 0.815400
-0.156200 0.631900
-0.118500 0.499600
-0.080800 0.343700
-0.043000 0.345800
-0.005300 0.379600
0.032400 0.412100
0.070200 0.455100
0.107900 0.520700
0.145600 0.581500
0.183300 0.639100
0.221100 0.700900
0.258800 0.845700
0.296500 1.046800
0.334300 1.344200
0.372000 1.452100
0.409700 1.530000
0.447400 1.733100
0.485200 2.356300
0.522900 2.656800
0.560600 2.670700
0.598400 2.727400
0.636100 2.831800
0.673800 2.975000
0.711600 3.235300
0.749300 3.082300
0.787000 3.002700
0.824700 3.022600
0.862500 2.761100
0.900200 2.043200
0.937900 1.523300
0.975700 1.018700
1.013400 0.724800
1.051100 0.600700
1.088900 0.467200
1.126600 0.346700
1.164300 0.081700
1.202000 0.000000
1.239800 0.000000
1.277500 0.000000
1.315200 0.000000
1.353000 0.000000
1.390700 0.000000
1.428400 0.000000
1.466100 0.000000
1.503900 0.011500
1.541600 0.081700
1.579300 0.199000
1.617100 0.185800
1.654800 0.195900
1.692500 0.214500
1.730300 0.235300
1.768000 0.253500
1.805700 0.273500
1.843400 0.285400
1.881200 0.299400
1.918900 0.316000
1.956600 0.333900
1.994400 0.354600
2.032100 0.378000
2.069800 0.399200
2.107500 0.420300
2.145300 0.441800
2.183000 0.465200
2.220700 0.489000
2.258500 0.521300
2.296200 0.554400
2.333900 0.599700
2.371700 0.662600
2.409400 0.725000
2.447100 0.727100
2.484800 0.719600
2.522600 0.738000
2.560300 0.756200
2.598000 0.754500
2.635800 0.762000
2.673500 0.775200
2.711200 0.787100
2.749000 0.802900
2.786700 0.821000
2.824400 0.835800
2.862100 0.852900
2.899900 0.872800
2.937600 0.895600
2.975300 0.926900
3.013100 0.963700
3.050800 0.996000
3.088500 1.033900
3.126200 1.075700
3.164000 1.178200
3.201700 1.263500
3.239400 1.321800
3.277200 1.461800
3.314900 1.994300
3.352600 1.902400
3.390400 1.685800
3.428100 1.557400
3.465800 1.470600
3.503500 1.403300
3.541300 1.341000
3.579000 1.276500
3.616700 1.241000
3.654500 1.198300
3.692200 1.160800
3.729900 1.109600
3.767700 1.016700
3.805400 0.926900
3.843100 0.764600
3.880800 0.675100
3.918600 0.572000
3.956300 0.474600
3.994000 0.387000
4.031800 0.284400
4.069500 0.109500
4.107200 0.060300
4.144900 0.033500
4.182700 0.047800
4.220400 0.096000
4.258100 0.196500
4.295900 0.384700
4.333600 0.691000
4.371300 0.945200
4.409100 0.896300
4.446800 0.781000
4.484500 0.753100
4.522200 0.753000
4.560000 0.765100
4.597700 0.787600
4.635400 0.817100
4.673200 0.850700
4.710900 0.885000
4.748600 0.926500
4.786400 0.973600
4.824100 1.027400
4.861800 1.102400
4.899500 1.189600
4.937300 1.192100
4.975000 1.281300
5.012700 1.260400
5.050500 1.292000
5.088200 1.346800
5.125900 1.422300
5.163600 1.519300
5.201400 1.638600
5.239100 1.765600
5.276800 1.772000
5.314600 1.742900
5.352300 1.687100
5.390000 1.429100
5.427800 1.203200
5.465500 1.133400
5.503200 1.140500
5.540900 1.153900
5.578700 1.172200
5.616400 1.226200
5.654100 1.310100
5.691900 1.539300
5.729600 1.457800
5.767300 1.435700
5.805100 1.429500
5.842800 1.331000
5.880500 1.297900
5.918200 1.252800
5.956000 1.216600
5.993700 1.230900
6.031400 1.184000
6.069200 1.151400
6.106900 1.087900
6.144600 0.574800
6.182300 0.527300
6.220100 0.538700
6.257800 0.559700
6.295500 0.589200
6.333300 0.635900
6.371000 0.698400
6.408700 0.758000
6.446500 0.803800
6.484200 0.822400
6.521900 0.830400
6.559600 0.839000
6.597400 0.863800
6.635100 0.890600
6.672800 0.926700
6.710600 0.956700
6.748300 0.981600
6.786000 1.017300
6.823800 1.066900
6.861500 1.135600
6.899200 1.075600
6.936900 1.132200
6.974700 1.225500
7.012400 1.364400
7.050100 1.444300
7.087900 1.497900
7.125600 1.396900
7.163300 1.343600
7.201000 1.288300
7.238800 1.226300
7.276500 1.183400
7.314200 1.154800
7.352000 1.139000
7.389700 1.023600
7.427400 0.946800
7.465200 0.903300
7.502900 0.888000
7.540600 0.865100
7.578300 0.856700
7.616100 0.887700
7.653800 0.916000
7.691500 0.951700
7.729300 1.000700
7.767000 1.039100
7.804700 1.060300
7.842500 1.089800
7.880200 1.135000
7.917900 1.186400
7.955600 1.245600
7.993400 1.328100
8.031100 1.448200
8.068800 1.482900
8.106600 1.478500
8.144300 1.475000
8.182000 1.461300
8.219700 1.438300
8.257500 1.407000
8.295200 1.391000
8.332900 1.359200
8.370700 1.347800
8.408400 1.349900
8.446100 1.351300
8.483900 1.357800
8.521600 1.353100
8.559300 1.337900
8.597000 1.325700
8.634800 1.311100
8.672500 1.299400
8.710200 1.283500
8.748000 1.288100
8.785700 1.192900
8.823400 1.142900
8.861200 1.119300
8.898900 1.073600
8.936600 1.046900
8.974300 1.033300
9.012100 1.016800
9.049800 1.002600
9.087500 0.944000
9.125300 0.892700
9.163000 0.830500
9.200700 0.773400
9.238400 0.735900
9.276200 0.695700
9.313900 0.677900
9.351600 0.641500
9.389400 0.601300
9.427100 0.554000
9.464800 0.514400
9.502600 0.477000
9.540300 0.475800
9.578000 0.447400
9.615700 0.431600
9.653500 0.386100
9.691200 0.362600
9.728900 0.335600
9.766700 0.303400
9.804400 0.279600
9.842100 0.262000
9.879800 0.247600
9.917600 0.234900
9.955300 0.221900
9.993000 0.210200
10.030800 0.200300
10.068500 0.190700
10.106200 0.182300
10.144000 0.172300
10.181700 0.167600
10.219400 0.164900
10.257100 0.165700
10.294900 0.171300
10.332600 0.182000
10.370300 0.196400
10.408100 0.210200
10.445800 0.225600
10.483500 0.269500
10.521300 0.397600
10.559000 0.417200
10.596700 0.531400
10.634400 0.655500
10.672200 0.638900
10.709900 0.646200
10.747600 0.637600
10.785400 0.673200
10.823100 0.770600
10.860800 0.819600
10.898500 0.822500
10.936300 0.818700
10.974000 0.761900
11.011700 0.733400
11.049500 0.711100
11.087200 0.705300
11.124900 0.708400
11.162700 0.673700
11.200400 0.604700
11.238100 0.582900
11.275800 0.573400
11.313600 0.549600
11.351300 0.544500
11.389000 0.536500
11.426800 0.528200
11.464500 0.524300
11.502200 0.518200
11.540000 0.512800
11.577700 0.500500
11.615400 0.495100
11.653100 0.491700
11.690900 0.489100
11.728600 0.488600
11.766300 0.487300
11.804100 0.488900
11.841800 0.485700
11.879500 0.484000
11.917200 0.483900
11.955000 0.485200
11.992700 0.492900
12.030400 0.503000
12.068200 0.518700
12.105900 0.554600
12.143600 0.592600
12.181400 0.635800
12.219100 0.710900
12.256800 0.718300
12.294500 0.680100
12.332300 0.698400
12.370000 0.725200
12.407700 0.765900
12.445500 0.858000
12.483200 0.910100
12.520900 0.977800
12.558700 1.080900
12.596400 1.236700
12.634100 1.375600
12.671800 1.435000
12.709600 1.439900
12.747300 1.493800
12.785000 1.426500
12.822800 1.374800
12.860500 1.346600
12.898200 1.331700
12.935900 1.345700
12.973700 1.360700
13.011400 1.352800
13.049100 1.382400
13.086900 1.472400
13.124600 1.437400
13.162300 1.463300
13.200100 1.499700
13.237800 1.554900
13.275500 1.565600
13.313200 1.548100
13.351000 1.552700
13.388700 1.585700
13.426400 1.546500
13.464200 1.440800
13.501900 1.383500
13.539600 1.391300
13.577400 1.420100
13.615100 1.495200
13.652800 1.552300
13.690500 1.568600
13.728300 1.430100
13.766000 1.399800
13.803700 1.307900
13.841500 1.269800
13.879200 1.238500
13.916900 1.229400
13.954600 1.233700
13.992400 1.204900
14.030100 1.151800
14.067800 1.112700
14.105600 1.074100
14.143300 1.068500
14.181000 1.086600
14.218800 1.076700
14.256500 1.092900
14.294200 1.129500
14.331900 1.186100
14.369700 1.287700
14.407400 1.252700
14.445100 1.257100
14.482900 1.217500
14.520600 1.180500
14.558300 1.180300
14.596100 1.187200
14.633800 1.167700
14.671500 1.153700
14.709200 1.135700
14.747000 1.119100
14.784700 1.108900
14.822400 1.110500
14.860200 1.131600
14.897900 1.138600
14.935600 1.155000
14.973300 1.175800
15.011100 1.170100
15.048800 1.155500
15.086500 1.110100
15.124300 1.087500
15.162000 1.069400
15.199700 1.054300
15.237500 1.041700
15.275200 1.029700
15.312900 1.025900
15.350600 1.028000
15.388400 1.031200
15.426100 1.031500
15.463800 1.030900
15.501600 1.032200
15.539300 1.039500
15.577000 1.051300
15.614800 1.097200
15.652500 1.089500
15.690200 1.111500
15.727900 1.124600
15.765700 1.127800
15.803400 1.125100
15.841100 1.126400
15.878900 1.123800
15.916600 1.107200
15.954300 1.105500
15.992000 1.081700
16.029800 1.089400
16.067500 1.107500
16.105200 1.072000
16.143000 1.023600
16.180700 1.009300
16.218400 1.006600
16.256200 1.002400
16.293900 0.980900
16.331600 0.962700
16.369300 0.954100
16.407100 0.960400
16.444800 1.016100
16.482500 1.053400
16.520300 1.074600
16.558000 1.116800
16.595700 1.062500
16.633400 1.061200
16.671200 1.071000
16.708900 1.103000
16.746600 1.109900
16.784400 1.119000
16.822100 1.128800
16.859800 1.152900
16.897600 1.186100
16.935300 1.225400
16.973000 1.269300
17.010700 1.346900
17.048500 1.320300
17.086200 1.290800
17.123900 1.259900
17.161700 1.260700
17.199400 1.279200
17.237100 1.282300
17.274900 1.315700
17.312600 1.419100
17.350300 1.399600
17.388000 1.412700
17.425800 1.431900
17.463500 1.423700
17.501200 1.407600
17.539000 1.433000
17.576700 1.442200
17.614400 1.424600
17.652100 1.396200
17.689900 1.387500
17.727600 1.359100
17.765300 1.287300
17.803100 1.195100
17.840800 1.165500
17.878500 1.164200
17.916300 1.152900
17.954000 1.173300
17.991700 1.191900
18.029400 1.224300
18.067200 1.277100
18.104900 1.354200
18.142600 1.316300
18.180400 1.290400
18.218100 1.279100
18.255800 1.308100
18.293600 1.316200
18.331300 1.305400
18.369000 1.297900
18.406700 1.354100
18.444500 1.444500
18.482200 1.464600
18.519900 1.462500
18.557700 1.483600
18.595400 1.499500
18.633100 1.507600
18.670800 1.511300
18.708600 1.501800
18.746300 1.521100
18.784000 1.588100
18.821800 1.636200
18.859500 1.668500
18.897200 1.713400
18.935000 1.828800
18.972700 2.114200
19.010400 2.101500
19.048100 1.996200
19.085900 1.867400
19.123600 1.715600
19.161300 1.622900
19.199100 1.537500
19.236800 1.499300
19.274500 1.464500
19.312300 1.437500
19.350000 1.447600
19.387700 1.461300
19.425400 1.474100
19.463200 1.385800
19.500900 1.318000
19.538600 1.375400
19.576400 1.419500
19.614100 1.415800
19.651800 1.220800
19.689500 1.148100
19.727300 1.113700
19.765000 1.151800
19.802700 1.220900
19.840500 1.294700
19.878200 1.395300
19.915900 1.488100
19.953700 1.505400
19.991400 1.552200
20.029100 1.606600
20.066800 1.588200
20.104600 1.523500
20.142300 1.502600
20.180000 1.495400
20.217800 1.407400
20.255500 1.404700
20.293200 1.419200
20.331000 1.432400
20.368700 1.593100
20.406400 1.542600
20.444100 1.487000
20.481900 1.479000
20.519600 1.443800
20.557300 1.388900
20.595100 1.359500
20.632800 1.350600
20.670500 1.359000
20.708200 1.339000
20.746000 1.318200
20.783700 1.351600
20.821400 1.342700
20.859200 1.359800
20.896900 1.384400
20.934600 1.413400
20.972400 1.436100
21.010100 1.478700
21.047800 1.542500
21.085500 1.533700
21.123300 1.627700
21.161000 1.763900
21.198700 1.858200
21.236500 1.929800
21.274200 1.882300
21.311900 1.838500
21.349700 1.821400
21.387400 1.791300
21.425100 1.742100
21.462800 1.711000
21.500600 1.665200
21.538300 1.660500
21.576000 1.673100
21.613800 1.661300
21.651500 1.625000
21.689200 1.605200
21.726900 1.610000
21.764700 1.590800
21.802400 1.682200
21.840100 1.741300
21.877900 1.797700
21.915600 1.867400
21.953300 1.941400
21.991100 1.969000
22.028800 1.946800
22.066500 1.955500
22.104200 1.942500
22.142000 1.945000
22.179700 1.936500
22.217400 1.876400
22.255200 1.868200
22.292900 1.745700
22.330600 1.655000
22.368400 1.621900
22.406100 1.638700
22.443800 1.641400
22.481500 1.734300
22.519300 1.934600
22.557000 1.971900
22.594700 1.975400
22.632500 1.958600
22.670200 1.904600
22.707900 1.943100
22.745600 2.029000
22.783400 2.019300
22.821100 1.968100
22.858800 1.954300
22.896600 1.875400
22.934300 1.874800
22.972000 1.900500
23.009800 1.813700
23.047500 1.811200
23.085200 1.805400
23.122900 1.846600
23.160700 1.906700
23.198400 1.919600
23.236100 1.993800
23.273900 2.131600
23.311600 2.449300
23.349300 2.341700
23.387100 2.294700
23.424800 2.257100
23.462500 2.220300
23.500200 2.246200
23.538000 2.240700
23.575700 2.241900
23.613400 2.221100
23.651200 2.207200
23.688900 2.168100
23.726600 2.105200
23.764300 2.049500
23.802100 1.998800
23.839800 1.980200
23.877500 2.012500
23.915300 2.040300
23.953000 2.107900
23.990700 2.148300
24.028500 2.246700
24.066200 2.354700
24.103900 2.385600
24.141600 2.422900
24.179400 2.341600
24.217100 2.264800
24.254800 2.185800
24.292600 2.098800
24.330300 2.038100
24.368000 1.994100
24.405700 1.969400
24.443500 1.984000
24.481200 1.992700
24.518900 2.114100
24.556700 2.155500
24.594400 2.156400
24.632100 2.123100
24.669900 2.135700
24.707600 2.168400
24.745300 2.132900
24.783000 2.118300
24.820800 2.050600
24.858500 2.041400
24.896200 1.981300
24.934000 1.944100
24.971700 1.931400
25.009400 1.941200
25.047200 1.973300
25.084900 2.042400
25.122600 2.123000
25.160300 2.190000
25.198100 2.181800
25.235800 2.170700
25.273500 2.156700
25.311300 2.157500
25.349000 2.293100
25.386700 2.365200
25.424400 2.414800
25.462200 2.343200
25.499900 2.313400
25.537600 2.222400
25.575400 2.144900
25.613100 2.113000
25.650800 2.163000
25.688600 2.191600
25.726300 2.235000
25.764000 2.234900
25.801700 2.254500
25.839500 2.266100
25.877200 2.209600
25.914900 2.130100
25.952700 2.066100
25.990400 1.993100
26.028100 1.953300
26.065900 1.899600
26.103600 1.815600
26.141300 1.813200
26.179000 1.795300
26.216800 1.749600
26.254500 1.693600
26.292200 1.678700
26.330000 1.638200
26.367700 1.596800
26.405400 1.570900
26.443100 1.554100
26.480900 1.522200
26.518600 1.515700
26.556300 1.517800
26.594100 1.541700
26.631800 1.579000
26.669500 1.629700
26.707300 1.662700
26.745000 1.702400
26.782700 1.619800
26.820400 1.527800
26.858200 1.426500
26.895900 1.403700
26.933600 1.401400
26.971400 1.398700
27.009100 1.393900
27.046800 1.397400
27.084600 1.423300
27.122300 1.473800
27.160000 1.502300
27.197700 1.534900
27.235500 1.565300
27.273200 1.603600
27.310900 1.690600
27.348700 1.727000
27.386400 1.733600
27.424100 1.699700
27.461800 1.726000
27.499600 1.716200
27.537300 1.706700
27.575000 1.742500
27.612800 1.790200
27.650500 1.867000
27.688200 1.925800
27.726000 2.018900
27.763700 2.072400
27.801400 2.124000
27.839100 2.001100
27.876900 1.948900
27.914600 1.927800
27.952300 1.922200
27.990100 1.980900
28.027800 1.990900
28.065500 1.990500
28.103300 1.983500
28.141000 1.912500
28.178700 1.772600
28.216400 1.714800
28.254200 1.731400
28.291900 1.714900
28.329600 1.663600
28.367400 1.705100
28.405100 1.597700
28.442800 1.614100
28.480500 1.703400
28.518300 1.792500
28.556000 1.832100
28.593700 1.818000
28.631500 1.786200
28.669200 1.773000
28.706900 1.765100
28.744700 1.747300
28.782400 1.748100
28.820100 1.751100
28.857800 1.772600
28.895600 1.817500
28.933300 1.924900
28.971000 1.956800
29.008800 2.005300
29.046500 2.010500
29.084200 2.016900
29.122000 2.006100
29.159700 2.094400
29.197400 2.047600
29.235100 1.962900
29.272900 1.829100
29.310600 1.781200
29.348300 1.766400
29.386100 1.802300
29.423800 1.807200
29.461500 1.756500
29.499200 1.701200
29.537000 1.726900
29.574700 1.775200
29.612400 1.915500
29.650200 1.911500
29.687900 1.977600
29.725600 2.078600
29.763400 2.200100
29.801100 2.174600
29.838800 2.092500
29.876500 2.173900
29.914300 2.131000
29.952000 2.153700
29.989700 2.156600
30.027500 2.160600
30.065200 2.091400
30.102900 2.006900
30.140700 1.942500
30.178400 1.935600
30.216100 1.900600
30.253800 1.808300
30.291600 1.723700
30.329300 1.635200
30.367000 1.581200
30.404800 1.553600
30.442500 1.558600
30.480200 1.600600
30.517900 1.604000
30.555700 1.618300
30.593400 1.638400
30.631100 1.666500
30.668900 1.734900
30.706600 1.803900
30.744300 1.852600
30.782100 1.865800
30.819800 1.868500
30.857500 1.880300
30.895200 1.862900
30.933000 1.862400
30.970700 1.923200
31.008400 1.902900
31.046200 1.861900
31.083900 1.810400
31.121600 1.780300
31.159300 1.639600
31.197100 1.555000
31.234800 1.526800
31.272500 1.475800
31.310300 1.452000
31.348000 1.429300
31.385700 1.441800
31.423500 1.496700
31.461200 1.531000
31.498900 1.570300
31.536600 1.557500
31.574400 1.544800
31.612100 1.534800
31.649800 1.527400
31.687600 1.538600
31.725300 1.556700
31.763000 1.755200
31.800800 1.934300
31.838500 1.838500
31.876200 1.825200
31.913900 1.837500
31.951700 1.862200
31.989400 1.859600
32.027100 1.867700
32.064900 1.878900
32.102600 1.867400
32.140300 1.861500
32.178000 1.886800
32.215800 1.923600
32.253500 1.945000
32.291200 1.928700
32.329000 1.910500
32.366700 1.891900
32.404400 1.856800
32.442200 1.899700
32.479900 2.018500
32.517600 2.087800
32.555300 1.961800
32.593100 1.948600
32.630800 1.919100
32.668500 1.932300
32.706300 1.933800
32.744000 1.931100
32.781700 1.924100
32.819500 1.906700
32.857200 1.856100
32.894900 1.844700
32.932600 1.857200
32.970400 1.858500
33.008100 1.860900
33.045800 1.865300
33.083600 1.907300
33.121300 1.917700
33.159000 1.929100
33.196700 1.952300
33.234500 1.969500
33.272200 1.976200
33.309900 1.965000
33.347700 1.929500
33.385400 1.932000
33.423100 1.911000
33.460900 1.875600
33.498600 1.867000
33.536300 1.868300
33.574000 1.875900
33.611800 1.879600
33.649500 1.920600
33.687200 1.958600
33.725000 1.969300
33.762700 1.934800
33.800400 1.904500
33.838200 1.879700
33.875900 1.779400
33.913600 1.727300
33.951300 1.700100
33.989100 1.749200
34.026800 1.749500
34.064500 1.746600
34.102300 1.701300
34.140000 1.716600
34.177700 1.730700
34.215400 1.728500
34.253200 1.813400
34.290900 1.923300
34.328600 1.979100
34.366400 2.047100
34.404100 2.087600
34.441800 2.074300
34.479600 2.058600
34.517300 2.104000
34.555000 2.147600
34.592700 2.215100
34.630500 2.293300
34.668200 2.335000
34.705900 2.384600
34.743700 2.411000
34.781400 2.401700
34.819100 2.380000
34.856900 2.313200
34.894600 2.302500
34.932300 2.220600
34.970000 2.166700
35.007800 2.066900
35.045500 2.015800
35.083200 2.002900
35.121000 1.981600
35.158700 1.986000
35.196400 1.963700
35.234100 1.910200
35.271900 1.898500
35.309600 1.873900
35.347300 1.827300
35.385100 1.843200
35.422800 1.829200
35.460500 1.823700
35.498300 1.834600
35.536000 1.853100
35.573700 1.858900
35.611400 1.884100
35.649200 1.873900
35.686900 1.889500
35.724600 1.891700
35.762400 1.898400
35.800100 1.920600
35.837800 1.951200
35.875600 1.977800
35.913300 1.972600
35.951000 1.985400
35.988700 1.990800
36.026500 1.976400
36.064200 1.995800
36.101900 2.047300
36.139700 2.089600
36.177400 2.117700
36.215100 2.108300
36.252800 2.102000
36.290600 2.106900
36.328300 2.108300
36.366000 2.086600
36.403800 2.082400
36.441500 1.997100
36.479200 1.996300
36.517000 2.017300
36.554700 2.059000
36.592400 2.130200
36.630100 2.155700
36.667900 2.196500
36.705600 2.045100
36.743300 2.048300
36.781100 2.096900
36.818800 2.152900
36.856500 2.208800
36.894300 2.287100
36.932000 2.330300
36.969700 2.313700
37.007400 2.277400
37.045200 2.225900
37.082900 2.201100
37.120600 2.173900
37.158400 2.126900
37.196100 2.089200
37.233800 2.069800
37.271500 2.071200
37.309300 2.018700
37.347000 2.005000
37.384700 1.992500
37.422500 1.993300
37.460200 2.024800
37.497900 2.036500
37.535700 2.053300
37.573400 2.102700
37.611100 2.136900
37.648800 2.147000
37.686600 2.173200
37.724300 2.182500
37.762000 2.192200
37.799800 2.127700
37.837500 2.158800
37.875200 2.199300
37.912900 2.196100
37.950700 2.120700
37.988400 2.175500
38.026100 2.201500
38.063900 2.218600
38.101600 2.186600
38.139300 2.194300
38.177100 2.210200
38.214800 2.282200
38.252500 2.270500
38.290200 2.240600
38.328000 2.253600
38.365700 2.260400
38.403400 2.308500
38.441200 2.221800
38.478900 2.011400
38.516600 1.864100
38.554400 1.815100
38.592100 1.829600
38.629800 1.828400
38.667500 1.896200
38.705300 2.060700
38.743000 2.076100
38.780700 2.196500
38.818500 2.204100
38.856200 2.290200
38.893900 2.357100
38.931600 2.368500
38.969400 2.388700
39.007100 2.405300
39.044800 2.440700
39.082600 2.444400
39.120300 2.411100
39.158000 2.400500
39.195800 2.348900
39.233500 2.300000
39.271200 2.299800
39.308900 2.256400
39.346700 2.219400
39.384400 2.176700
39.422100 2.146700
39.459900 2.095800
39.497600 2.093200
39.535300 2.133500
39.573100 2.141900
39.610800 2.185100
39.648500 2.236300
39.686200 2.296700
39.724000 2.364400
39.761700 2.438200
39.799400 2.510500
39.837200 2.529400
39.874900 2.544000
39.912600 2.548600
39.950300 2.607200
39.988100 2.528200
40.025800 2.431700
40.063500 2.365000
40.101300 2.394300
40.139000 2.521300
40.176700 2.490100
40.214500 2.442800
40.252200 2.437600
40.289900 2.383300
40.327600 2.359400
40.365400 2.433800
40.403100 2.536900
40.440800 2.602000
40.478600 2.615700
40.516300 2.602000
40.554000 2.653800
40.591800 2.543900
40.629500 2.485300
40.667200 2.478200
40.704900 2.505100
40.742700 2.483300
40.780400 2.421700
40.818100 2.375700
40.855900 2.336100
40.893600 2.293900
40.931300 2.251300
40.969000 2.249400
41.006800 2.283300
41.044500 2.303200
41.082200 2.432500
41.120000 2.567500
41.157700 2.627800
41.195400 2.551400
41.233200 2.488600
41.270900 2.489500
41.308600 2.510600
41.346300 2.501600
41.384100 2.461800
41.421800 2.536600
41.459500 2.548000
41.497300 2.635100
41.535000 2.679000
41.572700 2.629400
41.610500 2.576000
41.648200 2.507700
41.685900 2.455000
41.723600 2.446000
41.761400 2.383100
41.799100 2.327100
41.836800 2.305100
41.874600 2.353200
41.912300 2.358800
41.950000 2.384300
41.987700 2.461400
42.025500 2.543800
42.063200 2.629300
42.100900 2.665900
42.138700 2.652100
42.176400 2.547600
42.214100 2.525700
42.251900 2.597400
42.289600 2.683700
42.327300 2.618100
42.365000 2.632000
42.402800 2.569000
42.440500 2.617000
42.478200 2.612300
42.516000 2.570700
42.553700 2.588600
42.591400 2.665300
42.629200 2.731800
42.666900 2.811300
42.704600 2.892800
42.742300 2.843900
42.780100 2.792600
42.817800 2.727600
42.855500 2.684200
42.893300 2.646500
42.931000 2.596600
42.968700 2.524100
43.006400 2.423000
43.044200 2.345500
43.081900 2.315900
43.119600 2.311800
43.157400 2.289300
43.195100 2.292400
43.232800 2.357400
43.270600 2.410600
43.308300 2.399300
43.346000 2.359600
43.383700 2.321400
43.421500 2.283400
43.459200 2.265100
43.496900 2.259500
43.534700 2.266000
43.572400 2.286100
43.610100 2.293800
43.647900 2.316700
43.685600 2.388300
43.723300 2.517600
43.761000 2.443200
43.798800 2.359500
43.836500 2.319100
43.874200 2.244800
43.912000 2.209600
43.949700 2.201100
43.987400 2.238600
44.025100 2.254300
44.062900 2.249700
44.100600 2.215400
44.138300 2.189700
44.176100 2.195100
44.213800 2.255400
44.251500 2.307400
44.289300 2.268400
44.327000 2.237000
44.364700 2.203600
44.402400 2.171600
44.440200 2.161400
44.477900 2.174300
44.515600 2.188100
44.553400 2.229800
44.591100 2.304700
44.628800 2.418800
44.666600 2.459200
44.704300 2.473900
44.742000 2.481800
44.779700 2.524100
44.817500 2.539700
44.855200 2.535200
44.892900 2.496200
44.930700 2.482900
44.968400 2.486800
45.006100 2.392100
45.043800 2.342800
45.081600 2.337600
45.119300 2.262300
45.157000 2.155800
45.194800 2.057400
45.232500 1.976200
45.270200 1.920700
45.308000 1.871100
45.345700 1.821000
45.383400 1.778400
45.421100 1.744900
45.458900 1.744100
45.496600 1.693100
45.534300 1.639700
45.572100 1.597200
45.609800 1.585100
45.647500 1.493500
45.685200 1.419500
45.723000 1.394100
45.760700 1.351500
45.798400 1.292700
45.836200 1.227600
45.873900 1.159900
45.911600 1.101500
45.949400 1.061200
45.987100 1.045300
46.024800 0.992200
46.062500 0.963400
46.100300 0.917200
46.138000 0.842500
46.175700 0.777400
46.213500 0.730300
46.251200 0.700400
46.288900 0.678400
46.326700 0.647100
46.364400 0.608200
46.402100 0.579100
46.439800 0.550400
46.477600 0.532600
46.515300 0.502500
46.553000 0.477600
46.590800 0.463800
46.628500 0.440800
46.666200 0.409000
46.703900 0.374100
46.741700 0.350100
46.779400 0.337900
46.817100 0.333700
46.854900 0.308700
46.892600 0.276800
46.930300 0.256400
46.968100 0.240800
47.005800 0.230100
47.043500 0.221200
47.081200 0.247400
47.119000 0.258400
47.156700 0.246800
47.194400 0.284700
47.232200 0.188600
47.269900 0.189000
47.307600 0.208200
47.345400 0.180400
47.383100 0.167700
47.420800 0.151500
47.458500 0.132800
47.496300 0.108800
47.534000 0.078000
47.571700 0.054300
47.609500 0.038000
47.647200 0.025900
47.684900 0.018100
47.722600 0.012300
47.760400 0.007600
47.798100 0.003900
47.835800 0.001700
47.873600 0.000800
47.911300 0.000200
47.949000 0.000000
47.986800 0.000000
48.024500 0.000000
48.062200 0.000000
48.099900 0.000000
48.137700 0.000000
48.175400 0.000000
48.213100 0.000000
48.250900 0.000000
48.288600 0.000000
48.326300 0.000000
48.364100 0.000000
48.401800 0.000000
48.439500 0.000000
48.477200 0.000000
48.515000 0.000000
48.552700 0.000000
48.590400 0.000000
48.628200 0.000000
48.665900 0.000000
48.703600 0.000000
48.741300 0.000000
48.779100 0.000000
48.816800 0.000000
48.854500 0.000000
48.892300 0.000000
48.930000 0.000000
48.967700 0.000000
49.005500 0.000000
49.043200 0.000000
49.080900 0.000000
49.118600 0.000000
49.156400 0.000000
49.194100 0.000000
49.231800 0.000000
49.269600 0.000000
49.307300 0.000000
49.345000 0.000000
49.382800 0.000000
49.420500 0.000000
49.458200 0.000000
49.495900 0.000000
49.533700 0.000000
49.571400 0.000000
49.609100 0.000000
49.646900 0.000000
49.684600 0.000000
49.722300 0.000000
49.760000 0.000000
49.797800 0.000000
49.835500 0.000000
49.873200 0.000000
49.911000 0.000000
49.948700 0.000000
49.986400 0.000000
50.024200 0.000000
50.061900 0.000000
50.099600 0.000000
50.137300 0.000000
50.175100 0.000000
50.212800 0.000000
50.250500 0.000000
50.288300 0.000000
50.326000 0.000000
50.363700 0.000000
50.401500 0.000000
50.439200 0.000000
50.476900 0.000000
50.514600 0.000000
50.552400 0.000000
50.590100 0.000000
50.627800 0.000000
50.665600 0.000000
50.703300 0.000000
50.741000 0.000000
50.778700 0.000000
50.816500 0.000000
50.854200 0.000000
50.891900 0.000000
50.929700 0.000000
50.967400 0.000000
51.005100 0.000000
51.042900 0.000000
51.080600 0.000000
51.118300 0.000000
51.156000 0.000000
51.193800 0.000000
51.231500 0.000000
51.269200 0.000000
51.307000 0.000000
51.344700 0.000000
51.382400 0.000000
e
