set title 'mp-1217320 - Density of States'
set xlabel 'Energy (eV)'
set ylabel 'DOS (states/eV)'
set grid
set xrange [-10:10]
set yrange [0:7.082]
set xzeroaxis lt -1
set terminal png size 800,600
set output 'mp-1217320_dos_gnuplot.png'
plot '-' using 1:2 with lines title 'DOS'
-9.860700 0.000000
-9.843600 0.000000
-9.826600 0.000000
-9.809500 0.000000
-9.792400 0.000000
-9.775300 0.000000
-9.758200 0.000000
-9.741100 0.000000
-9.724000 0.000000
-9.706900 0.000000
-9.689900 0.000000
-9.672800 0.000000
-9.655700 0.000000
-9.638600 0.000000
-9.621500 0.000000
-9.604400 0.000000
-9.587300 0.000000
-9.570200 0.000000
-9.553200 0.000000
-9.536100 0.000000
-9.519000 0.000000
-9.501900 0.000000
-9.484800 0.000000
-9.467700 0.000000
-9.450600 0.000000
-9.433500 0.000000
-9.416500 0.000000
-9.399400 0.000000
-9.382300 0.000000
-9.365200 0.000000
-9.348100 0.000000
-9.331000 0.000000
-9.313900 0.000000
-9.296800 0.000000
-9.279800 0.000000
-9.262700 0.000000
-9.245600 0.000000
-9.228500 0.000000
-9.211400 0.000000
-9.194300 0.000000
-9.177200 0.000000
-9.160100 0.000000
-9.143100 0.000000
-9.126000 0.000000
-9.108900 0.000000
-9.091800 0.000000
-9.074700 0.000000
-9.057600 0.000000
-9.040500 0.000000
-9.023400 0.000000
-9.006400 0.000000
-8.989300 0.000000
-8.972200 0.000000
-8.955100 0.000000
-8.938000 0.000000
-8.920900 0.000000
-8.903800 0.000000
-8.886700 0.000000
-8.869700 0.000000
-8.852600 0.000000
-8.835500 0.000000
-8.818400 0.000000
-8.801300 0.000000
-8.784200 0.000000
-8.767100 0.000000
-8.750000 0.000000
-8.733000 0.000000
-8.715900 0.000000
-8.698800 0.000000
-8.681700 0.000000
-8.664600 0.000000
-8.647500 0.000000
-8.630400 0.000000
-8.613300 0.000000
-8.596300 0.000000
-8.579200 0.000000
-8.562100 0.000000
-8.545000 0.000000
-8.527900 0.000000
-8.510800 0.000000
-8.493700 0.000000
-8.476700 0.000000
-8.459600 0.000000
-8.442500 0.000000
-8.425400 0.000000
-8.408300 0.000000
-8.391200 0.000000
-8.374100 0.000000
-8.357000 0.000000
-8.340000 0.000000
-8.322900 0.000000
-8.305800 0.000100
-8.288700 0.020700
-8.271600 0.075900
-8.254500 0.165900
-8.237400 0.368400
-8.220300 0.307400
-8.203300 0.337300
-8.186200 0.377000
-8.169100 0.419800
-8.152000 0.462000
-8.134900 0.503400
-8.117800 0.544100
-8.100700 0.576300
-8.083600 0.601100
-8.066600 0.625400
-8.049500 0.645800
-8.032400 0.661100
-8.015300 0.679100
-7.998200 0.686800
-7.981100 0.709900
-7.964000 0.736300
-7.946900 0.763700
-7.929900 0.792000
-7.912800 0.821300
-7.895700 0.851500
-7.878600 0.882700
-7.861500 0.892600
-7.844400 0.909000
-7.827300 0.918000
-7.810200 0.934200
-7.793200 0.952000
-7.776100 0.968800
-7.759000 0.984100
-7.741900 0.998800
-7.724800 1.014600
-7.707700 1.032000
-7.690600 1.050100
-7.673500 1.068700
-7.656500 1.087700
-7.639400 1.107400
-7.622300 1.128800
-7.605200 1.151800
-7.588100 1.176000
-7.571000 1.198700
-7.553900 1.215200
-7.536800 1.229300
-7.519800 1.246800
-7.502700 1.263900
-7.485600 1.280800
-7.468500 1.298000
-7.451400 1.315900
-7.434300 1.335200
-7.417200 1.356800
-7.400100 1.382100
-7.383100 1.413700
-7.366000 1.455000
-7.348900 1.490700
-7.331800 1.520500
-7.314700 1.536000
-7.297600 1.551200
-7.280500 1.566400
-7.263400 1.581600
-7.246400 1.597100
-7.229300 1.613500
-7.212200 1.637400
-7.195100 1.704600
-7.178000 1.805400
-7.160900 1.863200
-7.143800 1.809800
-7.126700 1.775500
-7.109700 1.745600
-7.092600 1.736600
-7.075500 1.762600
-7.058400 1.791700
-7.041300 1.822300
-7.024200 1.854000
-7.007100 1.861600
-6.990000 1.924600
-6.973000 2.013400
-6.955900 2.099400
-6.938800 2.170600
-6.921700 2.239900
-6.904600 2.307200
-6.887500 2.479400
-6.870400 2.123400
-6.853400 2.061800
-6.836300 2.006900
-6.819200 1.954900
-6.802100 1.931400
-6.785000 1.924000
-6.767900 1.924300
-6.750800 1.920600
-6.733700 1.996200
-6.716700 2.211800
-6.699600 2.096200
-6.682500 2.034700
-6.665400 2.013700
-6.648300 2.407500
-6.631200 2.043000
-6.614100 2.332800
-6.597000 1.634300
-6.580000 1.607900
-6.562900 1.625800
-6.545800 1.739900
-6.528700 1.921900
-6.511600 2.123600
-6.494500 2.339900
-6.477400 2.908600
-6.460300 3.135800
-6.443300 3.075100
-6.426200 2.928300
-6.409100 2.852800
-6.392000 2.869600
-6.374900 2.850000
-6.357800 2.804300
-6.340700 2.732100
-6.323600 2.617500
-6.306600 2.421200
-6.289500 2.319100
-6.272400 2.251900
-6.255300 2.161100
-6.238200 2.031300
-6.221100 1.854700
-6.204000 1.795900
-6.186900 1.737400
-6.169900 1.733800
-6.152800 1.804400
-6.135700 1.914000
-6.118600 2.052800
-6.101500 2.212600
-6.084400 2.393300
-6.067300 2.647400
-6.050200 2.650300
-6.033200 2.774400
-6.016100 2.828200
-5.999000 2.866500
-5.981900 2.903800
-5.964800 2.933600
-5.947700 2.955200
-5.930600 2.969000
-5.913500 2.981000
-5.896500 2.999400
-5.879400 3.052500
-5.862300 3.142800
-5.845200 3.233600
-5.828100 3.251000
-5.811000 3.150100
-5.793900 3.042700
-5.776800 2.929200
-5.759800 2.763300
-5.742700 2.591300
-5.725600 2.402800
-5.708500 2.264900
-5.691400 2.193200
-5.674300 2.144900
-5.657200 2.104500
-5.640100 2.071800
-5.623100 1.986400
-5.606000 1.929100
-5.588900 1.873200
-5.571800 1.821800
-5.554700 1.782300
-5.537600 1.761500
-5.520500 1.743700
-5.503400 1.728000
-5.486400 1.713300
-5.469300 1.696000
-5.452200 1.676100
-5.435100 1.654100
-5.418000 1.650300
-5.400900 1.651900
-5.383800 1.651400
-5.366700 1.647400
-5.349700 1.643100
-5.332600 1.640600
-5.315500 1.647400
-5.298400 1.661300
-5.281300 1.672500
-5.264200 1.683200
-5.247100 1.631000
-5.230100 1.627900
-5.213000 1.648400
-5.195900 1.673100
-5.178800 1.702200
-5.161700 1.735600
-5.144600 1.782200
-5.127500 1.912700
-5.110400 2.020900
-5.093400 2.110600
-5.076300 2.191400
-5.059200 2.277900
-5.042100 2.312900
-5.025000 2.485400
-5.007900 2.666100
-4.990800 2.891800
-4.973700 3.173500
-4.956700 3.609700
-4.939600 3.995300
-4.922500 4.498300
-4.905400 5.109300
-4.888300 6.086400
-4.871200 5.694800
-4.854100 5.707500
-4.837000 5.308400
-4.820000 5.316000
-4.802900 4.813100
-4.785800 4.413100
-4.768700 4.205200
-4.751600 4.178700
-4.734500 3.900800
-4.717400 3.705400
-4.700300 3.670700
-4.683300 3.622800
-4.666200 3.616300
-4.649100 3.599400
-4.632000 3.533900
-4.614900 3.512700
-4.597800 3.783400
-4.580700 3.712000
-4.563600 3.666200
-4.546600 3.428500
-4.529500 3.032000
-4.512400 2.797400
-4.495300 2.809300
-4.478200 2.781900
-4.461100 2.707300
-4.444000 2.641500
-4.426900 2.630800
-4.409900 2.623400
-4.392800 2.595900
-4.375700 2.572400
-4.358600 2.538500
-4.341500 2.521900
-4.324400 2.536600
-4.307300 2.548100
-4.290200 2.534800
-4.273200 2.443200
-4.256100 2.290700
-4.239000 2.234600
-4.221900 2.213300
-4.204800 2.202800
-4.187700 2.200200
-4.170600 2.134000
-4.153500 2.091300
-4.136500 2.103500
-4.119400 2.133900
-4.102300 2.125400
-4.085200 2.397900
-4.068100 2.316500
-4.051000 2.382400
-4.033900 2.436200
-4.016800 2.486900
-3.999800 2.535800
-3.982700 2.582800
-3.965600 2.643700
-3.948500 2.714300
-3.931400 2.790900
-3.914300 2.871300
-3.897200 2.950000
-3.880100 3.035800
-3.863100 3.150400
-3.846000 3.380800
-3.828900 3.834900
-3.811800 3.460500
-3.794700 2.821600
-3.777600 2.470100
-3.760500 2.168500
-3.743400 1.968300
-3.726400 1.850500
-3.709300 1.740400
-3.692200 1.633700
-3.675100 1.544900
-3.658000 1.491900
-3.640900 1.459700
-3.623800 1.433800
-3.606800 1.414700
-3.589700 1.410400
-3.572600 1.410200
-3.555500 1.409700
-3.538400 1.407600
-3.521300 1.403300
-3.504200 1.398800
-3.487100 1.396700
-3.470100 1.395300
-3.453000 1.396400
-3.435900 1.398300
-3.418800 1.400300
-3.401700 1.402500
-3.384600 1.403200
-3.367500 1.401700
-3.350400 1.390300
-3.333400 1.390900
-3.316300 1.395200
-3.299200 1.405100
-3.282100 1.426400
-3.265000 1.456400
-3.247900 1.462100
-3.230800 1.442900
-3.213700 1.372600
-3.196700 1.295100
-3.179600 1.159800
-3.162500 1.136000
-3.145400 1.113800
-3.128300 1.093900
-3.111200 1.076200
-3.094100 1.062000
-3.077000 1.050500
-3.060000 1.039700
-3.042900 1.029400
-3.025800 1.019800
-3.008700 0.987400
-2.991600 0.996800
-2.974500 1.009500
-2.957400 1.026300
-2.940300 1.064400
-2.923300 1.135200
-2.906200 1.168100
-2.889100 1.195700
-2.872000 1.213800
-2.854900 1.224200
-2.837800 1.226500
-2.820700 1.224700
-2.803600 1.223600
-2.786600 1.223300
-2.769500 1.223800
-2.752400 1.234100
-2.735300 1.248700
-2.718200 1.265500
-2.701100 1.284500
-2.684000 1.305900
-2.666900 1.330000
-2.649900 1.364600
-2.632800 1.404000
-2.615700 1.489000
-2.598600 1.522300
-2.581500 1.564800
-2.564400 1.615400
-2.547300 1.669100
-2.530200 1.725200
-2.513200 2.165800
-2.496100 2.432500
-2.479000 2.519500
-2.461900 2.381300
-2.444800 2.342500
-2.427700 2.373600
-2.410600 2.324400
-2.393500 2.261800
-2.376500 2.160500
-2.359400 2.000000
-2.342300 1.777300
-2.325200 1.479100
-2.308100 1.276100
-2.291000 1.079500
-2.273900 0.931400
-2.256800 0.800000
-2.239800 0.675600
-2.222700 0.558400
-2.205600 0.448200
-2.188500 0.305900
-2.171400 0.000000
-2.154300 0.000000
-2.137200 0.000000
-2.120100 0.000000
-2.103100 0.000000
-2.086000 0.000000
-2.068900 0.000000
-2.051800 0.000000
-2.034700 0.000000
-2.017600 0.000000
-2.000500 0.000000
-1.983500 0.000000
-1.966400 0.000000
-1.949300 0.000000
-1.932200 0.000000
-1.915100 0.000000
-1.898000 0.000000
-1.880900 0.000000
-1.863800 0.000000
-1.846800 0.000000
-1.829700 0.000000
-1.812600 0.000000
-1.795500 0.000000
-1.778400 0.000000
-1.761300 0.000000
-1.744200 0.000000
-1.727100 0.000000
-1.710100 0.000000
-1.693000 0.000000
-1.675900 0.000000
-1.658800 0.000000
-1.641700 0.000000
-1.624600 0.000000
-1.607500 0.000000
-1.590400 0.000000
-1.573400 0.000000
-1.556300 0.000000
-1.539200 0.000000
-1.522100 0.000000
-1.505000 0.000000
-1.487900 0.000000
-1.470800 0.000000
-1.453700 0.000000
-1.436700 0.000000
-1.419600 0.000000
-1.402500 0.000000
-1.385400 0.000000
-1.368300 0.000000
-1.351200 0.000000
-1.334100 0.000000
-1.317000 0.000000
-1.300000 0.000000
-1.282900 0.000000
-1.265800 0.000000
-1.248700 0.000000
-1.231600 0.000000
-1.214500 0.000000
-1.197400 0.000000
-1.180300 0.000000
-1.163300 0.000000
-1.146200 0.000000
-1.129100 0.000000
-1.112000 0.000000
-1.094900 0.000000
-1.077800 0.000000
-1.060700 0.000000
-1.043600 0.000000
-1.026600 0.000000
-1.009500 0.000000
-0.992400 0.000000
-0.975300 0.000000
-0.958200 0.000000
-0.941100 0.000000
-0.924000 0.000000
-0.906900 0.000000
-0.889900 0.000000
-0.872800 0.000000
-0.855700 0.000000
-0.838600 0.000000
-0.821500 0.000000
-0.804400 0.000000
-0.787300 0.000000
-0.770200 0.000000
-0.753200 0.000000
-0.736100 0.000000
-0.719000 0.000000
-0.701900 0.000000
-0.684800 0.000000
-0.667700 0.000000
-0.650600 0.000000
-0.633500 0.000000
-0.616500 0.000000
-0.599400 0.000000
-0.582300 0.000000
-0.565200 0.000000
-0.548100 0.000000
-0.531000 0.000000
-0.513900 0.000000
-0.496800 0.000000
-0.479800 0.000000
-0.462700 0.000000
-0.445600 0.000000
-0.428500 0.000000
-0.411400 0.000000
-0.394300 0.000000
-0.377200 0.000000
-0.360200 0.000000
-0.343100 0.000000
-0.326000 0.000000
-0.308900 0.000000
-0.291800 0.000000
-0.274700 0.000000
-0.257600 0.000000
-0.240500 0.000000
-0.223500 0.000000
-0.206400 0.000000
-0.189300 0.000000
-0.172200 0.000000
-0.155100 0.000000
-0.138000 0.000000
-0.120900 0.000000
-0.103800 0.000000
-0.086800 0.000000
-0.069700 0.000000
-0.052600 0.000000
-0.035500 0.000000
-0.018400 0.000000
-0.001300 0.000000
0.015800 0.000000
0.032900 0.000000
0.049900 0.000000
0.067000 0.000000
0.084100 0.007400
0.101200 0.076200
0.118300 0.129300
0.135400 0.179800
0.152500 0.235000
0.169600 0.291100
0.186600 0.343100
0.203700 0.392000
0.220800 0.444000
0.237900 0.499700
0.255000 0.878200
0.272100 1.331900
0.289200 1.778700
0.306300 2.245500
0.323300 2.583300
0.340400 2.849700
0.357500 3.019700
0.374600 3.057900
0.391700 3.416900
0.408800 3.464100
0.425900 3.590400
0.443000 3.660800
0.460000 3.655200
0.477100 3.667700
0.494200 3.676300
0.511300 3.741500
0.528400 3.852700
0.545500 4.101600
0.562600 4.108100
0.579700 3.857100
0.596700 3.695300
0.613800 3.490800
0.630900 3.300700
0.648000 3.302400
0.665100 3.270900
0.682200 3.210800
0.699300 3.148000
0.716400 3.082100
0.733400 3.365700
0.750500 3.416000
0.767600 3.437700
0.784700 2.717900
0.801800 2.477000
0.818900 2.669300
0.836000 2.845600
0.853100 3.021100
0.870100 3.262000
0.887200 3.501300
0.904300 3.672300
0.921400 3.951400
0.938500 4.737400
0.955600 4.241400
0.972700 4.465300
0.989800 5.210000
1.006800 4.934500
1.023900 3.810800
1.041000 3.630400
1.058100 3.665200
1.075200 3.496400
1.092300 3.437500
1.109400 3.411100
1.126500 3.280800
1.143500 3.245600
1.160600 3.207500
1.177700 3.212200
1.194800 3.216100
1.211900 3.204900
1.229000 3.203900
1.246100 3.215400
1.263100 3.319400
1.280200 3.477900
1.297300 3.615300
1.314400 3.761000
1.331500 3.828300
1.348600 3.873300
1.365700 3.845000
1.382800 3.702100
1.399800 3.699200
1.416900 3.751400
1.434000 3.758200
1.451100 3.825400
1.468200 3.943200
1.485300 4.004900
1.502400 4.118600
1.519500 3.892300
1.536500 3.810200
1.553600 3.732200
1.570700 3.645400
1.587800 3.598300
1.604900 3.563800
1.622000 3.531600
1.639100 3.459200
1.656200 3.409700
1.673200 3.407500
1.690300 3.408100
1.707400 3.397000
1.724500 3.231300
1.741600 3.316000
1.758700 3.416000
1.775800 3.640600
1.792900 3.966100
1.809900 3.997400
1.827000 3.964500
1.844100 3.867400
1.861200 3.715700
1.878300 3.646100
1.895400 3.602400
1.912500 3.633500
1.929600 3.693100
1.946600 3.798400
1.963700 3.842700
1.980800 3.761900
1.997900 3.750100
2.015000 3.757000
2.032100 3.899900
2.049200 3.477400
2.066300 3.319100
2.083300 3.297800
2.100400 3.285000
2.117500 3.263700
2.134600 3.245000
2.151700 3.334100
2.168800 3.509400
2.185900 3.608300
2.203000 3.682300
2.220000 3.664800
2.237100 3.697200
2.254200 3.722800
2.271300 3.619400
2.288400 3.538700
2.305500 3.459400
2.322600 3.400600
2.339700 3.298000
2.356700 3.193700
2.373800 3.094600
2.390900 3.022500
2.408000 2.978200
2.425100 2.949600
2.442200 2.952800
2.459300 3.004800
2.476400 3.104900
2.493400 3.175100
2.510500 3.244400
2.527600 3.301800
2.544700 3.349700
2.561800 3.382500
2.578900 3.403400
2.596000 3.337200
2.613100 3.267600
2.630100 3.284400
2.647200 3.335500
2.664300 3.263700
2.681400 3.215000
2.698500 3.173500
2.715600 3.135400
2.732700 3.059500
2.749800 3.037600
2.766800 3.034800
2.783900 3.048800
2.801000 3.063500
2.818100 3.078100
2.835200 3.107100
2.852300 3.312300
2.869400 2.687400
2.886400 2.721700
2.903500 2.779100
2.920600 2.859700
2.937700 2.979200
2.954800 3.186000
2.971900 3.415400
2.989000 3.528100
3.006100 3.662200
3.023100 3.718300
3.040200 3.678400
3.057300 3.689700
3.074400 3.725300
3.091500 3.765700
3.108600 3.810400
3.125700 4.142200
3.142800 4.410500
3.159800 4.374600
3.176900 4.337100
3.194000 4.141800
3.211100 4.103200
3.228200 4.082500
3.245300 4.074700
3.262400 4.080500
3.279500 4.080400
3.296500 4.090600
3.313600 4.107400
3.330700 4.132600
3.347800 4.225500
3.364900 4.288500
3.382000 4.333100
3.399100 4.275200
3.416200 4.088700
3.433200 4.046400
3.450300 4.107700
3.467400 4.159900
3.484500 4.146500
3.501600 4.098400
3.518700 4.001800
3.535800 3.953200
3.552900 3.917800
3.569900 3.910000
3.587000 3.925300
3.604100 3.957900
3.621200 4.018300
3.638300 4.098900
3.655400 4.231900
3.672500 4.362300
3.689600 5.308800
3.706600 5.212600
3.723700 4.980000
3.740800 4.632000
3.757900 4.292200
3.775000 4.292800
3.792100 4.283200
3.809200 5.008400
3.826300 4.606200
3.843300 4.369700
3.860400 4.772400
3.877500 5.200600
3.894600 5.187400
3.911700 5.000200
3.928800 4.752400
3.945900 4.427300
3.963000 4.369900
3.980000 4.375100
3.997100 4.310400
4.014200 4.276700
4.031300 4.238300
4.048400 4.185200
4.065500 4.049000
4.082600 4.038700
4.099700 4.130600
4.116700 4.331900
4.133800 4.514200
4.150900 4.715600
4.168000 4.998400
4.185100 5.390600
4.202200 5.863800
4.219300 6.220100
4.236400 6.438000
4.253400 6.337500
4.270500 5.196100
4.287600 4.337900
4.304700 4.103000
4.321800 3.941200
4.338900 3.784700
4.356000 3.648500
4.373100 3.469300
4.390100 3.342400
4.407200 3.271600
4.424300 3.148500
4.441400 3.102700
4.458500 3.055300
4.475600 3.013400
4.492700 2.976100
4.509700 2.947700
4.526800 3.128300
4.543900 3.255200
4.561000 3.435000
4.578100 3.556300
4.595200 3.483800
4.612300 3.191400
4.629400 3.152400
4.646400 3.132000
4.663500 3.135400
4.680600 3.152600
4.697700 3.092500
4.714800 3.098400
4.731900 3.136600
4.749000 3.210200
4.766100 3.355700
4.783100 3.421300
4.800200 3.448100
4.817300 3.518700
4.834400 3.604700
4.851500 4.351300
4.868600 4.187700
4.885700 4.051900
4.902800 3.804000
4.919800 3.714400
4.936900 3.683700
4.954000 3.618800
4.971100 3.552700
4.988200 3.499300
5.005300 3.448400
5.022400 3.445000
5.039500 3.416000
5.056500 3.405100
5.073600 3.421500
5.090700 3.487900
5.107800 3.633900
5.124900 3.764000
5.142000 3.899200
5.159100 4.160900
5.176200 4.167900
5.193200 4.143600
5.210300 4.180200
5.227400 4.273800
5.244500 4.430300
5.261600 4.454200
5.278700 4.479600
5.295800 4.480100
5.312900 4.454000
5.329900 4.435200
5.347000 4.383600
5.364100 4.501500
5.381200 4.166300
5.398300 4.131600
5.415400 4.086800
5.432500 4.037200
5.449600 3.879500
5.466600 3.681300
5.483700 3.435600
5.500800 4.027900
5.517900 3.032900
5.535000 2.759800
5.552100 2.449600
5.569200 2.161600
5.586300 1.960300
5.603300 1.798300
5.620400 1.488200
5.637500 1.427700
5.654600 1.391000
5.671700 1.404200
5.688800 1.538500
5.705900 1.634100
5.723000 1.741200
5.740000 1.849800
5.757100 2.013500
5.774200 2.215900
5.791300 2.068900
5.808400 2.149500
5.825500 2.237100
5.842600 2.350400
5.859700 2.481700
5.876700 2.624800
5.893800 2.788700
5.910900 2.879000
5.928000 3.048200
5.945100 3.228200
5.962200 3.435400
5.979300 3.592200
5.996400 3.687600
6.013400 3.673300
6.030500 3.403400
6.047600 3.117600
6.064700 2.973400
6.081800 2.936100
6.098900 2.859000
6.116000 2.774600
6.133000 2.691900
6.150100 2.610500
6.167200 2.521300
6.184300 2.429600
6.201400 2.393700
6.218500 2.294400
6.235600 2.314500
6.252700 2.317200
6.269700 2.311500
6.286800 2.307500
6.303900 2.301600
6.321000 2.293800
6.338100 2.275700
6.355200 2.252800
6.372300 2.230600
6.389400 2.209500
6.406400 2.192800
6.423500 2.289600
6.440600 2.134500
6.457700 2.122700
6.474800 2.114700
6.491900 2.111700
6.509000 2.113700
6.526100 2.121000
6.543100 2.170200
6.560200 2.288300
6.577300 2.158700
6.594400 2.140900
6.611500 2.160700
6.628600 2.190800
6.645700 2.247900
6.662800 2.450300
6.679800 2.487400
6.696900 2.554600
6.714000 2.649000
6.731100 2.792700
6.748200 2.927400
6.765300 3.036400
6.782400 3.181200
6.799500 3.363800
6.816500 3.670500
6.833600 3.625900
6.850700 3.627500
6.867800 3.688500
6.884900 3.710100
6.902000 3.455400
6.919100 3.305800
6.936200 3.094900
6.953200 2.916400
6.970300 2.792400
6.987400 2.767600
7.004500 2.755500
7.021600 2.728600
7.038700 2.728400
7.055800 2.758300
7.072900 2.816800
7.089900 2.904300
7.107000 3.001600
7.124100 3.162300
7.141200 3.300700
7.158300 3.420000
7.175400 3.530200
7.192500 3.609800
7.209600 3.709900
7.226600 3.862900
7.243700 4.031700
7.260800 4.145500
7.277900 4.273700
7.295000 4.400600
7.312100 4.446300
7.329200 4.663400
7.346300 4.699800
7.363300 4.770600
7.380400 4.757200
7.397500 5.107900
7.414600 5.469000
7.431700 5.876900
7.448800 5.803600
7.465900 5.673500
7.483000 5.715200
7.500000 5.777900
7.517100 5.558300
7.534200 5.108700
7.551300 4.368700
7.568400 4.132100
7.585500 3.943400
7.602600 3.777900
7.619700 3.615900
7.636700 3.487900
7.653800 3.386500
7.670900 3.292800
7.688000 3.227600
7.705100 3.159800
7.722200 3.130700
7.739300 3.105800
7.756400 3.085900
7.773400 3.070100
7.790500 3.056600
7.807600 3.031800
7.824700 3.034300
7.841800 3.049300
7.858900 3.085300
7.876000 3.195600
7.893000 3.175800
7.910100 3.421600
7.927200 3.465700
7.944300 3.520600
7.961400 3.555600
7.978500 3.537400
7.995600 3.561200
8.012700 3.562400
8.029700 3.504900
8.046800 3.516500
8.063900 3.460900
8.081000 3.412900
8.098100 3.415400
8.115200 3.406300
8.132300 3.369000
8.149400 3.709500
8.166400 3.402200
8.183500 3.360800
8.200600 3.275700
8.217700 3.292700
8.234800 3.306700
8.251900 3.408900
8.269000 3.419300
8.286100 3.595800
8.303100 3.717700
8.320200 3.826300
8.337300 3.924800
8.354400 4.022300
8.371500 4.110900
8.388600 4.258300
8.405700 4.379100
8.422800 4.272900
8.439800 4.233800
8.456900 4.187500
8.474000 4.157100
8.491100 4.130000
8.508200 4.061300
8.525300 3.885700
8.542400 3.886500
8.559500 3.867300
8.576500 3.872900
8.593600 3.853900
8.610700 4.170300
8.627800 3.984700
8.644900 3.961100
8.662000 3.914200
8.679100 3.901100
8.696200 3.876800
8.713200 3.881800
8.730300 3.858100
8.747400 3.673300
8.764500 3.544100
8.781600 3.456800
8.798700 3.407500
8.815800 3.367600
8.832900 3.328800
8.849900 3.290000
8.867000 3.253400
8.884100 3.221500
8.901200 3.192400
8.918300 3.160600
8.935400 3.117800
8.952500 3.061800
8.969600 3.076600
8.986600 3.031000
9.003700 2.969300
9.020800 3.001400
9.037900 2.868900
9.055000 2.735400
9.072100 2.675800
9.089200 2.687000
9.106300 2.727400
9.123300 2.811700
9.140400 2.931400
9.157500 3.038700
9.174600 3.145900
9.191700 3.242700
9.208800 3.327100
9.225900 3.402200
9.243000 3.468600
9.260000 3.535900
9.277100 3.591700
9.294200 3.647700
9.311300 3.691100
9.328400 3.762300
9.345500 3.686400
9.362600 3.562200
9.379700 3.169000
9.396700 2.971900
9.413800 2.813400
9.430900 2.677600
9.448000 2.646800
9.465100 2.511600
9.482200 2.557200
9.499300 2.875600
9.516300 3.302400
9.533400 3.747600
9.550500 3.969500
9.567600 4.245100
9.584700 4.460500
9.601800 4.405900
9.618900 4.165900
9.636000 4.225400
9.653000 4.315900
9.670100 4.458900
9.687200 4.507700
9.704300 4.596000
9.721400 4.658000
9.738500 4.597400
9.755600 4.462200
9.772700 4.473200
9.789700 4.288800
9.806800 4.060500
9.823900 3.616000
9.841000 3.384900
9.858100 3.145200
9.875200 2.967800
9.892300 2.814800
9.909400 2.608900
9.926400 2.552100
9.943500 2.505800
9.960600 3.022500
9.977700 3.606600
9.994800 3.903100
10.011900 4.197300
10.029000 4.289400
10.046100 4.251600
10.063100 4.239300
10.080200 4.244100
10.097300 3.903000
10.114400 3.679700
10.131500 3.450300
10.148600 3.417700
10.165700 3.388700
10.182800 3.429000
10.199800 3.580800
10.216900 3.546300
10.234000 3.419700
10.251100 3.333300
10.268200 3.205800
10.285300 3.043200
10.302400 2.796700
10.319500 2.513500
10.336500 2.277600
10.353600 2.030300
10.370700 1.751700
10.387800 1.466800
10.404900 1.364900
10.422000 1.280000
10.439100 1.204900
10.456200 1.146300
10.473200 1.100700
10.490300 1.065100
10.507400 1.035700
10.524500 1.006800
10.541600 0.979900
10.558700 0.954900
10.575800 0.932900
10.592900 0.915900
10.609900 0.901000
10.627000 0.887100
10.644100 0.874100
10.661200 0.862100
10.678300 0.851000
10.695400 0.840900
10.712500 0.831700
10.729600 0.831200
10.746600 0.883900
10.763700 0.951600
10.780800 0.946400
10.797900 0.922600
10.815000 0.882700
10.832100 0.820400
10.849200 0.752300
10.866300 0.688500
10.883300 0.629000
10.900400 0.558900
10.917500 0.949100
10.934600 1.391200
10.951700 1.870000
10.968800 2.279200
10.985900 2.635500
11.003000 2.833900
11.020000 2.784000
11.037100 2.850000
11.054200 2.972900
11.071300 3.130100
11.088400 3.335200
11.105500 4.108400
11.122600 3.984300
11.139600 3.749700
11.156700 3.602800
11.173800 3.532600
11.190900 3.503600
11.208000 3.703200
11.225100 3.893500
11.242200 3.722900
11.259300 3.735700
11.276300 3.751000
11.293400 3.759600
11.310500 3.800300
11.327600 3.799300
11.344700 3.717300
11.361800 4.087500
11.378900 4.186900
11.396000 4.104100
11.413000 3.991800
11.430100 3.914900
11.447200 3.967100
11.464300 4.001700
11.481400 4.046800
11.498500 4.182200
11.515600 4.267200
11.532700 4.340000
11.549700 4.408600
11.566800 4.491100
11.583900 4.666200
11.601000 4.852500
11.618100 5.004000
11.635200 5.093600
11.652300 5.142400
11.669400 4.971000
11.686400 4.778800
11.703500 4.335600
11.720600 3.981100
11.737700 3.530400
11.754800 3.142500
11.771900 2.836700
11.789000 2.692900
11.806100 2.506200
11.823100 2.467900
11.840200 2.445800
11.857300 2.367000
11.874400 2.331500
11.891500 2.366000
11.908600 2.478100
11.925700 2.577700
11.942800 2.678500
11.959800 2.661300
11.976900 2.579900
11.994000 2.491200
12.011100 2.398800
12.028200 2.275200
12.045300 2.190800
12.062400 2.086800
12.079500 1.889600
12.096500 1.685700
12.113600 1.451000
12.130700 1.453300
12.147800 1.487300
12.164900 1.545800
12.182000 1.620000
12.199100 1.665600
12.216200 1.886800
12.233200 2.278200
12.250300 2.852100
12.267400 2.936600
12.284500 2.944400
12.301600 3.017100
12.318700 3.053100
12.335800 3.069300
12.352900 3.200100
12.369900 3.029600
12.387000 3.044400
12.404100 3.062500
12.421200 3.062300
12.438300 3.077500
12.455400 3.072800
12.472500 3.072100
12.489600 3.077600
12.506600 3.054500
12.523700 2.976300
12.540800 2.923900
12.557900 2.917600
12.575000 2.914000
12.592100 2.941900
12.609200 2.956100
12.626300 2.986500
12.643300 3.040300
12.660400 3.088500
12.677500 3.188100
12.694600 3.221900
12.711700 3.273400
12.728800 3.306300
12.745900 3.373500
12.762900 3.311700
12.780000 3.176200
12.797100 3.110100
12.814200 2.989700
12.831300 2.881800
12.848400 2.775500
12.865500 2.740000
12.882600 2.811400
12.899600 2.799900
12.916700 2.660000
12.933800 2.607100
12.950900 2.580700
12.968000 2.574200
12.985100 2.588300
13.002200 2.644600
13.019300 2.744500
13.036300 2.928200
13.053400 3.120900
13.070500 3.204200
13.087600 3.279900
13.104700 3.256400
13.121800 3.088700
13.138900 2.942700
13.156000 2.818300
13.173000 2.730400
13.190100 2.987500
13.207200 3.212700
13.224300 3.307000
13.241400 3.330100
13.258500 3.353500
13.275600 3.349900
13.292700 3.306400
13.309700 3.231900
13.326800 3.204300
13.343900 3.163900
13.361000 3.119600
13.378100 3.146200
13.395200 3.250200
13.412300 3.498000
13.429400 3.506200
13.446400 3.490600
13.463500 3.519200
13.480600 3.435700
13.497700 3.324300
13.514800 3.387900
13.531900 3.117100
13.549000 2.744000
13.566100 2.666700
13.583100 2.636200
13.600200 2.617800
13.617300 2.614100
13.634400 3.149900
13.651500 3.292000
13.668600 3.473500
13.685700 3.653000
13.702800 3.850100
13.719800 4.059200
13.736900 4.271800
13.754000 4.456000
13.771100 4.665700
13.788200 4.918100
13.805300 5.302300
13.822400 5.480800
13.839500 5.892200
13.856500 5.263100
13.873600 4.932400
13.890700 4.669700
13.907800 4.363000
13.924900 4.017600
13.942000 3.759800
13.959100 3.507500
13.976200 3.316300
13.993200 3.199800
14.010300 3.056700
14.027400 2.971900
14.044500 2.988200
14.061600 2.959700
14.078700 2.926000
14.095800 2.887100
14.112900 2.849200
14.129900 2.824300
14.147000 2.817500
14.164100 2.834200
14.181200 2.835400
14.198300 2.849000
14.215400 2.884000
14.232500 2.929300
14.249600 2.997100
14.266600 3.191100
14.283700 3.203100
14.300800 3.302000
14.317900 3.387100
14.335000 3.490800
14.352100 3.608000
14.369200 3.767100
14.386200 3.939800
14.403300 4.162900
14.420400 4.608300
14.437500 4.966700
14.454600 5.247300
14.471700 5.386500
14.488800 5.418000
14.505900 5.393500
14.522900 4.442800
14.540000 4.257600
14.557100 4.212100
14.574200 4.113500
14.591300 3.953600
14.608400 3.827700
14.625500 3.721600
14.642600 3.486700
14.659600 3.092400
14.676700 2.994000
14.693800 2.944500
14.710900 2.975800
14.728000 3.084100
14.745100 3.219300
14.762200 3.314400
14.779300 3.459800
14.796300 3.764200
14.813400 4.201700
14.830500 4.453000
14.847600 4.799500
14.864700 4.927100
14.881800 5.148700
14.898900 5.483300
14.916000 5.932100
14.933000 6.548000
14.950100 6.457300
14.967200 6.631300
14.984300 6.590300
15.001400 5.875000
15.018500 5.516200
15.035600 5.208600
15.052700 4.964600
15.069700 4.750600
15.086800 4.536400
15.103900 4.308600
15.121000 4.164800
15.138100 4.028100
15.155200 3.897400
15.172300 3.847500
15.189400 3.799300
15.206400 3.823100
15.223500 3.684200
15.240600 3.563900
15.257700 3.707500
15.274800 3.992500
15.291900 4.424600
15.309000 4.913000
15.326100 5.126800
15.343100 5.358300
15.360200 5.679900
15.377300 6.057000
15.394400 6.331500
15.411500 6.362900
15.428600 6.899200
15.445700 7.057100
15.462800 6.765100
15.479800 6.295700
15.496900 5.976500
15.514000 5.238200
15.531100 4.830600
15.548200 4.533200
15.565300 4.270400
15.582400 4.157600
15.599500 3.819600
15.616500 3.597300
15.633600 3.424900
15.650700 3.190600
15.667800 2.993300
15.684900 2.877300
15.702000 2.900200
15.719100 3.015800
15.736200 3.152100
15.753200 3.316400
15.770300 3.645200
15.787400 4.074100
15.804500 4.236300
15.821600 4.397800
15.838700 4.474900
15.855800 4.689500
15.872900 4.959300
15.889900 5.262100
15.907000 5.747000
15.924100 6.274700
15.941200 6.812900
15.958300 6.627200
15.975400 6.569800
15.992500 6.352500
16.009500 6.208500
16.026600 6.068000
16.043700 5.656500
16.060800 5.001100
16.077900 4.632400
16.095000 4.442300
16.112100 4.400000
16.129200 4.439400
16.146200 4.550500
16.163300 4.730600
16.180400 4.944700
16.197500 4.747500
16.214600 4.711400
16.231700 4.605600
16.248800 4.417200
16.265900 4.280800
16.282900 4.197500
16.300000 4.204100
16.317100 4.197800
16.334200 4.190000
16.351300 4.223300
16.368400 4.259500
16.385500 4.291100
16.402600 4.319500
16.419600 4.351800
16.436700 4.476300
16.453800 4.473500
16.470900 4.564400
16.488000 4.549900
16.505100 4.534100
16.522200 4.551400
16.539300 4.606000
16.556300 4.655000
16.573400 4.676500
16.590500 4.699600
16.607600 4.728400
16.624700 5.263300
16.641800 5.252900
16.658900 4.763100
16.676000 4.696900
16.693000 4.545700
16.710100 4.476500
16.727200 4.587800
16.744300 4.564300
16.761400 4.576200
16.778500 4.525600
16.795600 4.476900
16.812700 4.418200
16.829700 4.410000
16.846800 4.494800
16.863900 4.637400
16.881000 4.684100
16.898100 4.721600
16.915200 4.906300
16.932300 5.573600
16.949400 5.318400
16.966400 5.340200
16.983500 5.402600
17.000600 5.471500
17.017700 5.429000
17.034800 5.254400
17.051900 4.746800
17.069000 4.368800
17.086100 4.187800
17.103100 4.234400
17.120200 4.318600
17.137300 4.467100
17.154400 4.779000
17.171500 4.715600
17.188600 4.682000
17.205700 4.814500
17.222800 4.948900
17.239800 5.091000
17.256900 5.209600
17.274000 5.283000
17.291100 5.336900
17.308200 5.419100
17.325300 5.484400
17.342400 5.555500
17.359500 5.431800
17.376500 5.061200
17.393600 4.742100
17.410700 4.571600
17.427800 4.414000
17.444900 4.441800
17.462000 4.415800
17.479100 4.384300
17.496200 4.386600
17.513200 4.484900
17.530300 4.785900
17.547400 5.000000
17.564500 5.278400
17.581600 5.541500
17.598700 5.588500
17.615800 5.505300
17.632800 5.465800
17.649900 5.312800
17.667000 5.181100
17.684100 5.093500
17.701200 4.899100
17.718300 4.888200
17.735400 4.840900
17.752500 4.748600
17.769500 4.691600
17.786600 4.723600
17.803700 4.824700
17.820800 4.979900
17.837900 5.182900
17.855000 5.370600
17.872100 5.508100
17.889200 5.829000
17.906200 6.180700
17.923300 6.204600
17.940400 6.314800
17.957500 6.620700
17.974600 6.957000
17.991700 6.811100
18.008800 6.680800
18.025900 6.557900
18.042900 6.380800
18.060000 6.048300
18.077100 5.809100
18.094200 5.326100
18.111300 5.128500
18.128400 4.917200
18.145500 4.677400
18.162600 4.432900
18.179600 4.230800
18.196700 4.068900
18.213800 4.020300
18.230900 3.961000
18.248000 3.973400
18.265100 4.022000
18.282200 4.162300
18.299300 4.351300
18.316300 4.630900
18.333400 4.743100
18.350500 4.932400
18.367600 5.026500
18.384700 5.146800
18.401800 5.265500
18.418900 5.335000
18.436000 5.520900
18.453000 5.573400
18.470100 5.559900
18.487200 5.547500
18.504300 5.507500
18.521400 5.375200
18.538500 5.344500
18.555600 5.339300
18.572700 5.442500
18.589700 5.690800
18.606800 5.888900
18.623900 5.798600
18.641000 5.478200
18.658100 5.173500
18.675200 5.241300
18.692300 5.300900
18.709400 5.570700
18.726400 5.718500
18.743500 5.574000
18.760600 5.250900
18.777700 4.868700
18.794800 4.665800
18.811900 4.647600
18.829000 4.713600
18.846100 4.815700
18.863100 5.079500
18.880200 5.299700
18.897300 5.448700
18.914400 5.557700
18.931500 5.366500
18.948600 5.377000
18.965700 5.535100
18.982800 5.682400
18.999800 5.766700
19.016900 5.844000
19.034000 5.464800
19.051100 5.150100
19.068200 4.863500
19.085300 4.637200
19.102400 4.438900
19.119500 4.264800
19.136500 4.189000
19.153600 4.168800
19.170700 4.279300
19.187800 4.479800
19.204900 4.816700
19.222000 5.437300
19.239100 6.166200
19.256100 7.290200
19.273200 6.829900
19.290300 6.050800
19.307400 6.192900
19.324500 5.372000
19.341600 4.978100
19.358700 4.837300
19.375800 4.849800
19.392800 4.766600
19.409900 4.836400
19.427000 5.279800
19.444100 5.068300
19.461200 5.099600
19.478300 5.146200
19.495400 5.212600
19.512500 5.332200
19.529500 5.456000
19.546600 5.450500
19.563700 5.495400
19.580800 5.529500
19.597900 5.551300
19.615000 5.485400
19.632100 5.462500
19.649200 5.460800
19.666200 5.404400
19.683300 5.343500
19.700400 5.305700
19.717500 5.473200
19.734600 5.529800
19.751700 5.542300
19.768800 5.555100
19.785900 5.676700
19.802900 5.158100
19.820000 4.816100
19.837100 4.791700
19.854200 4.756200
19.871300 4.805500
19.888400 4.846200
19.905500 4.912500
19.922600 5.143200
19.939600 5.529900
19.956700 5.783600
19.973800 5.785200
19.990900 5.728300
20.008000 5.700400
20.025100 6.210700
20.042200 6.144900
20.059300 6.084300
20.076300 5.882600
20.093400 5.737300
20.110500 5.653600
20.127600 5.611700
20.144700 5.582700
20.161800 5.544300
20.178900 5.574400
20.196000 5.569400
20.213000 5.596000
20.230100 5.636300
20.247200 5.792300
20.264300 5.673500
20.281400 5.646900
20.298500 5.616200
20.315600 5.601000
20.332700 5.585400
20.349700 5.512100
20.366800 5.486900
20.383900 5.397400
20.401000 5.311700
20.418100 5.253100
20.435200 5.110800
20.452300 5.021700
20.469400 4.988000
20.486400 4.984600
20.503500 5.007100
20.520600 5.075400
20.537700 5.114000
20.554800 5.191200
20.571900 5.272400
20.589000 5.390500
20.606100 5.596100
20.623100 5.639300
20.640200 5.535800
20.657300 5.529900
20.674400 5.458800
20.691500 5.300400
20.708600 5.255600
20.725700 5.218100
20.742800 5.196900
20.759800 5.222900
20.776900 5.268500
20.794000 5.245300
20.811100 5.177900
20.828200 5.143400
20.845300 5.074600
20.862400 5.009700
20.879400 4.922300
20.896500 4.856700
20.913600 4.826500
20.930700 4.877000
20.947800 4.921100
20.964900 4.945100
20.982000 4.912400
20.999100 4.902900
21.016100 4.961900
21.033200 4.856400
21.050300 4.975800
21.067400 5.093000
21.084500 5.202500
21.101600 5.313700
21.118700 5.321600
21.135800 5.240700
21.152800 5.205800
21.169900 5.278100
21.187000 5.312000
21.204100 5.312000
21.221200 5.132000
21.238300 4.984300
21.255400 4.854100
21.272500 4.781200
21.289500 4.643100
21.306600 4.491400
21.323700 4.581900
21.340800 4.350500
21.357900 4.180100
21.375000 4.004200
21.392100 3.920100
21.409200 3.761900
21.426200 3.645100
21.443300 3.422400
21.460400 3.316100
21.477500 3.317400
21.494600 3.325800
21.511700 3.332300
21.528800 3.565200
21.545900 3.684500
21.562900 3.436900
21.580000 3.228800
21.597100 3.057600
21.614200 2.823500
21.631300 2.681900
21.648400 2.543700
21.665500 2.409500
21.682600 2.281100
21.699600 2.159000
21.716700 2.031600
21.733800 1.882600
21.750900 1.803000
21.768000 1.790400
21.785100 1.766000
21.802200 1.618500
21.819300 1.542100
21.836300 1.468200
21.853400 1.397000
21.870500 1.321000
21.887600 1.237400
21.904700 1.150400
21.921800 1.063200
21.938900 0.977000
21.956000 0.896300
21.973000 0.822700
21.990100 0.756100
22.007200 0.696400
22.024300 0.591900
22.041400 0.558100
22.058500 0.528900
22.075600 0.504500
22.092700 0.599300
22.109700 0.496100
22.126800 0.459600
22.143900 0.425400
22.161000 0.394800
22.178100 0.367600
22.195200 0.341600
22.212300 0.315600
22.229400 0.289700
22.246400 0.263700
22.263500 0.237700
22.280600 0.211500
22.297700 0.157900
22.314800 0.145000
22.331900 0.137600
22.349000 0.130500
22.366100 0.123700
22.383100 0.117000
22.400200 0.110600
22.417300 0.104600
22.434400 0.098800
22.451500 0.093400
22.468600 0.088200
22.485700 0.083300
22.502700 0.078800
22.519800 0.074500
22.536900 0.070600
22.554000 0.066900
22.571100 0.046100
22.588200 0.042700
22.605300 0.039500
22.622400 0.036500
22.639400 0.033700
22.656500 0.031100
22.673600 0.028800
22.690700 0.026600
22.707800 0.024600
22.724900 0.022800
22.742000 0.021200
22.759100 0.019800
22.776100 0.000000
22.793200 0.000000
22.810300 0.000000
22.827400 0.000000
22.844500 0.000000
22.861600 0.000000
22.878700 0.000000
22.895800 0.000000
22.912800 0.000000
22.929900 0.000000
22.947000 0.000000
22.964100 0.000000
22.981200 0.000000
22.998300 0.000000
23.015400 0.000000
23.032500 0.000000
23.049500 0.000000
23.066600 0.000000
23.083700 0.000000
23.100800 0.000000
23.117900 0.000000
23.135000 0.000000
23.152100 0.000000
23.169200 0.000000
23.186200 0.000000
23.203300 0.000000
23.220400 0.000000
23.237500 0.000000
23.254600 0.000000
23.271700 0.000000
23.288800 0.000000
23.305900 0.000000
23.322900 0.000000
23.340000 0.000000
23.357100 0.000000
23.374200 0.000000
23.391300 0.000000
23.408400 0.000000
23.425500 0.000000
23.442600 0.000000
23.459600 0.000000
23.476700 0.000000
23.493800 0.000000
23.510900 0.000000
23.528000 0.000000
23.545100 0.000000
23.562200 0.000000
23.579300 0.000000
23.596300 0.000000
23.613400 0.000000
23.630500 0.000000
23.647600 0.000000
23.664700 0.000000
23.681800 0.000000
23.698900 0.000000
23.716000 0.000000
23.733000 0.000000
23.750100 0.000000
23.767200 0.000000
23.784300 0.000000
23.801400 0.000000
23.818500 0.000000
23.835600 0.000000
23.852700 0.000000
23.869700 0.000000
23.886800 0.000000
23.903900 0.000000
23.921000 0.000000
23.938100 0.000000
23.955200 0.000000
23.972300 0.000000
23.989400 0.000000
24.006400 0.000000
24.023500 0.000000
24.040600 0.000000
24.057700 0.000000
24.074800 0.000000
24.091900 0.000000
24.109000 0.000000
24.126000 0.000000
24.143100 0.000000
24.160200 0.000000
24.177300 0.000000
24.194400 0.000000
24.211500 0.000000
24.228600 0.000000
24.245700 0.000000
24.262700 0.000000
24.279800 0.000000
24.296900 0.000000
24.314000 0.000000
e
