set title 'mp-570641 - Density of States'
set xlabel 'Energy (eV)'
set ylabel 'DOS (states/eV)'
set grid
set xrange [-10:10]
set yrange [0:17.664]
set xzeroaxis lt -1
set terminal png size 800,600
set output 'mp-570641_dos_gnuplot.png'
plot '-' using 1:2 with lines title 'DOS'
-8.768200 0.000000
-8.752500 0.000000
-8.736800 0.000000
-8.721200 0.000000
-8.705500 0.000000
-8.689800 0.000000
-8.674100 0.000000
-8.658400 0.000000
-8.642700 0.000000
-8.627100 0.000000
-8.611400 0.000000
-8.595700 0.000000
-8.580000 0.000000
-8.564300 0.000000
-8.548600 0.000000
-8.533000 0.000000
-8.517300 0.000000
-8.501600 0.000000
-8.485900 0.000000
-8.470200 0.000000
-8.454500 0.000000
-8.438900 0.000000
-8.423200 0.000000
-8.407500 0.000000
-8.391800 0.000000
-8.376100 0.000000
-8.360400 0.000000
-8.344800 0.000000
-8.329100 0.000000
-8.313400 0.000000
-8.297700 0.000000
-8.282000 0.000000
-8.266300 0.000000
-8.250700 0.000000
-8.235000 0.000000
-8.219300 0.000000
-8.203600 0.000000
-8.187900 0.000000
-8.172200 0.000000
-8.156600 0.000000
-8.140900 0.000000
-8.125200 0.000000
-8.109500 0.000000
-8.093800 0.000000
-8.078100 0.000000
-8.062500 0.000000
-8.046800 0.000000
-8.031100 0.000000
-8.015400 0.000000
-7.999700 0.000000
-7.984000 0.000000
-7.968400 0.000000
-7.952700 0.000000
-7.937000 0.000000
-7.921300 0.000000
-7.905600 0.000000
-7.889900 0.000000
-7.874300 0.000000
-7.858600 0.000000
-7.842900 0.000000
-7.827200 0.000000
-7.811500 0.000000
-7.795800 0.000000
-7.780200 0.000000
-7.764500 0.000000
-7.748800 0.000000
-7.733100 0.000000
-7.717400 0.000000
-7.701700 0.000000
-7.686100 0.000000
-7.670400 0.000000
-7.654700 0.000000
-7.639000 0.000000
-7.623300 0.000000
-7.607600 0.000000
-7.592000 0.000000
-7.576300 0.000000
-7.560600 0.000000
-7.544900 0.000000
-7.529200 0.000000
-7.513500 0.000000
-7.497900 0.000000
-7.482200 0.000000
-7.466500 0.000000
-7.450800 0.000000
-7.435100 0.000000
-7.419400 0.000000
-7.403800 0.000000
-7.388100 0.000000
-7.372400 0.000000
-7.356700 0.000000
-7.341000 0.000000
-7.325300 0.004900
-7.309700 0.014200
-7.294000 0.027500
-7.278300 0.043800
-7.262600 0.060200
-7.246900 0.076600
-7.231200 0.092900
-7.215600 0.111500
-7.199900 0.132700
-7.184200 0.155200
-7.168500 0.179000
-7.152800 0.204100
-7.137100 0.230400
-7.121500 0.257900
-7.105800 0.286400
-7.090100 0.316000
-7.074400 0.346700
-7.058700 0.378400
-7.043000 0.411100
-7.027400 0.444100
-7.011700 0.477200
-6.996000 0.511300
-6.980300 0.546200
-6.964600 0.582000
-6.948900 0.618700
-6.933300 0.656300
-6.917600 0.694700
-6.901900 0.734100
-6.886200 0.774200
-6.870500 0.815000
-6.854800 0.856500
-6.839200 0.898600
-6.823500 0.941400
-6.807800 0.984900
-6.792100 1.029100
-6.776400 1.073900
-6.760700 1.119500
-6.745100 1.166500
-6.729400 1.215700
-6.713700 1.265000
-6.698000 1.314200
-6.682300 1.363400
-6.666600 1.412600
-6.651000 1.325000
-6.635300 1.286200
-6.619600 1.254000
-6.603900 1.237800
-6.588200 1.272400
-6.572500 1.307000
-6.556900 1.320500
-6.541200 1.313200
-6.525500 1.313000
-6.509800 1.318700
-6.494100 1.328500
-6.478400 1.339200
-6.462800 1.349900
-6.447100 1.360600
-6.431400 1.369600
-6.415700 1.358400
-6.400000 1.341900
-6.384300 1.371600
-6.368700 1.401800
-6.353000 1.432500
-6.337300 1.463600
-6.321600 1.495200
-6.305900 1.489900
-6.290200 1.491000
-6.274600 1.502700
-6.258900 1.516800
-6.243200 1.530900
-6.227500 1.545000
-6.211800 1.559000
-6.196100 1.573000
-6.180500 1.587000
-6.164800 1.601100
-6.149100 1.615500
-6.133400 1.630000
-6.117700 1.643800
-6.102000 1.656500
-6.086400 1.668000
-6.070700 1.678300
-6.055000 1.687500
-6.039300 1.695500
-6.023600 1.709100
-6.007900 1.735600
-5.992300 1.762600
-5.976600 1.790000
-5.960900 1.811700
-5.945200 1.823400
-5.929500 1.835600
-5.913800 1.848500
-5.898200 1.862000
-5.882500 1.876000
-5.866800 1.890700
-5.851100 1.905900
-5.835400 1.921600
-5.819700 1.937600
-5.804100 1.953800
-5.788400 1.970200
-5.772700 1.986800
-5.757000 2.003400
-5.741300 2.020100
-5.725600 2.036800
-5.710000 2.053500
-5.694300 2.070300
-5.678600 2.087100
-5.662900 2.104000
-5.647200 2.122400
-5.631500 2.139600
-5.615900 2.148700
-5.600200 2.149300
-5.584500 2.141500
-5.568800 2.139900
-5.553100 2.163900
-5.537400 2.187800
-5.521800 2.211800
-5.506100 2.235800
-5.490400 2.259700
-5.474700 2.283700
-5.459000 2.307700
-5.443300 2.331700
-5.427700 2.355700
-5.412000 2.367800
-5.396300 2.373900
-5.380600 2.382400
-5.364900 2.397200
-5.349200 2.414400
-5.333600 2.432900
-5.317900 2.451700
-5.302200 2.470500
-5.286500 2.489300
-5.270800 2.508200
-5.255100 2.527100
-5.239500 2.546100
-5.223800 2.565300
-5.208100 2.584500
-5.192400 2.603900
-5.176700 2.623300
-5.161000 2.642900
-5.145400 2.662800
-5.129700 2.682800
-5.114000 2.703000
-5.098300 2.723400
-5.082600 2.743500
-5.066900 2.763200
-5.051300 2.782600
-5.035600 2.801600
-5.019900 2.820200
-5.004200 2.838600
-4.988500 2.856600
-4.972800 2.874200
-4.957200 2.891600
-4.941500 2.908600
-4.925800 2.927400
-4.910100 2.956300
-4.894400 2.985600
-4.878700 3.015500
-4.863100 3.046000
-4.847400 3.076900
-4.831700 3.101300
-4.816000 3.122800
-4.800300 3.144700
-4.784600 3.171300
-4.769000 3.385700
-4.753300 3.556200
-4.737600 3.589400
-4.721900 3.602100
-4.706200 3.615100
-4.690500 3.629500
-4.674900 3.663900
-4.659200 3.723900
-4.643500 3.808700
-4.627800 3.901200
-4.612100 3.977500
-4.596400 4.041400
-4.580800 4.076100
-4.565100 4.097600
-4.549400 4.106200
-4.533700 4.111300
-4.518000 4.116600
-4.502300 4.122400
-4.486700 4.130200
-4.471000 4.143600
-4.455300 4.162900
-4.439600 4.188000
-4.423900 4.233100
-4.408200 4.282300
-4.392600 4.330700
-4.376900 4.393900
-4.361200 4.443800
-4.345500 4.479400
-4.329800 4.500600
-4.314100 4.507500
-4.298500 4.499500
-4.282800 4.506400
-4.267100 4.509800
-4.251400 4.510200
-4.235700 4.513200
-4.220000 4.516600
-4.204400 4.520200
-4.188700 4.524100
-4.173000 4.528300
-4.157300 4.532900
-4.141600 4.541100
-4.125900 4.554300
-4.110300 4.572700
-4.094600 4.586800
-4.078900 4.602000
-4.063200 4.623300
-4.047500 4.650800
-4.031800 4.684400
-4.016200 4.726700
-4.000500 4.773900
-3.984800 4.808500
-3.969100 4.844800
-3.953400 4.880400
-3.937700 4.895300
-3.922100 4.906700
-3.906400 4.914500
-3.890700 4.918700
-3.875000 4.919400
-3.859300 4.916500
-3.843600 4.913600
-3.828000 4.910700
-3.812300 4.908200
-3.796600 4.907200
-3.780900 4.906000
-3.765200 4.905400
-3.749500 4.906000
-3.733900 4.907600
-3.718200 4.910000
-3.702500 4.913300
-3.686800 4.917400
-3.671100 4.922400
-3.655400 4.928300
-3.639800 4.942200
-3.624100 4.969300
-3.608400 4.995500
-3.592700 5.042500
-3.577000 5.101900
-3.561300 5.154400
-3.545700 5.199800
-3.530000 5.238100
-3.514300 5.266700
-3.498600 5.275000
-3.482900 5.023000
-3.467200 5.025900
-3.451600 5.021600
-3.435900 7.844000
-3.420200 5.153300
-3.404500 4.672900
-3.388800 4.636900
-3.373100 4.599600
-3.357500 4.561600
-3.341800 4.523000
-3.326100 5.308100
-3.310400 7.394100
-3.294700 5.165300
-3.279000 4.095200
-3.263400 4.033400
-3.247700 4.005200
-3.232000 4.004900
-3.216300 4.012500
-3.200600 4.027700
-3.184900 4.050500
-3.169300 4.080900
-3.153600 4.934500
-3.137900 5.390100
-3.122200 5.430300
-3.106500 4.907400
-3.090800 4.476000
-3.075200 4.255700
-3.059500 4.246600
-3.043800 4.339800
-3.028100 4.416200
-3.012400 4.537700
-2.996700 4.731300
-2.981100 4.996900
-2.965400 5.253700
-2.949700 5.230300
-2.934000 5.062600
-2.918300 4.750600
-2.902600 4.297200
-2.887000 3.905500
-2.871300 3.868300
-2.855600 3.825300
-2.839900 3.783100
-2.824200 3.743200
-2.808500 3.705600
-2.792900 3.670200
-2.777200 3.738000
-2.761500 4.045600
-2.745800 4.271300
-2.730100 4.415300
-2.714400 4.500800
-2.698800 4.498900
-2.683100 4.341200
-2.667400 4.567100
-2.651700 4.880900
-2.636000 5.253500
-2.620300 5.547200
-2.604700 5.744400
-2.589000 5.844900
-2.573300 5.820000
-2.557600 5.547200
-2.541900 5.059400
-2.526200 4.154500
-2.510600 3.904600
-2.494900 3.594300
-2.479200 3.223800
-2.463500 3.270900
-2.447800 4.010800
-2.432100 5.580400
-2.416500 12.495400
-2.400800 16.058200
-2.385100 11.536600
-2.369400 7.370100
-2.353700 4.016200
-2.338000 0.971500
-2.322400 0.038300
-2.306700 0.000000
-2.291000 0.000000
-2.275300 0.000000
-2.259600 0.000000
-2.243900 0.000000
-2.228300 0.000000
-2.212600 0.000000
-2.196900 0.000000
-2.181200 0.000000
-2.165500 0.000000
-2.149800 0.000000
-2.134200 0.000000
-2.118500 0.000000
-2.102800 0.000000
-2.087100 0.000000
-2.071400 0.000000
-2.055700 0.000000
-2.040100 0.000000
-2.024400 0.000000
-2.008700 0.000000
-1.993000 0.000000
-1.977300 0.000000
-1.961600 0.000000
-1.946000 0.000000
-1.930300 0.000000
-1.914600 0.000000
-1.898900 0.000000
-1.883200 0.000000
-1.867500 0.000000
-1.851900 0.000000
-1.836200 0.000000
-1.820500 0.000000
-1.804800 0.000000
-1.789100 0.000000
-1.773400 0.000000
-1.757800 0.000000
-1.742100 0.000000
-1.726400 0.000000
-1.710700 0.000000
-1.695000 0.000000
-1.679300 0.000000
-1.663700 0.000000
-1.648000 0.000000
-1.632300 0.000000
-1.616600 0.000000
-1.600900 0.000000
-1.585200 0.000000
-1.569600 0.000000
-1.553900 0.000000
-1.538200 0.000000
-1.522500 0.000000
-1.506800 0.000000
-1.491100 0.000000
-1.475500 0.000000
-1.459800 0.000000
-1.444100 0.000000
-1.428400 0.000000
-1.412700 0.000000
-1.397000 0.000000
-1.381400 0.000000
-1.365700 0.000000
-1.350000 0.000000
-1.334300 0.000000
-1.318600 0.000000
-1.302900 0.000000
-1.287300 0.000000
-1.271600 0.000000
-1.255900 0.000000
-1.240200 0.000000
-1.224500 0.000000
-1.208800 0.000000
-1.193200 0.000000
-1.177500 0.000000
-1.161800 0.000000
-1.146100 0.000000
-1.130400 0.000000
-1.114700 0.000000
-1.099100 0.000000
-1.083400 0.000000
-1.067700 0.000000
-1.052000 0.000000
-1.036300 0.000000
-1.020600 0.000000
-1.005000 0.000000
-0.989300 0.000000
-0.973600 0.000000
-0.957900 0.000000
-0.942200 0.000000
-0.926500 0.000000
-0.910900 0.000000
-0.895200 0.000000
-0.879500 0.000000
-0.863800 0.000000
-0.848100 0.000000
-0.832400 0.000000
-0.816700 0.000000
-0.801100 0.000000
-0.785400 0.000000
-0.769700 0.000000
-0.754000 0.000000
-0.738300 0.000000
-0.722600 0.000000
-0.707000 0.000000
-0.691300 0.000000
-0.675600 0.000000
-0.659900 0.000000
-0.644200 0.000000
-0.628500 0.000000
-0.612900 0.000000
-0.597200 0.000000
-0.581500 0.000000
-0.565800 0.000000
-0.550100 0.000000
-0.534400 0.000000
-0.518800 0.000000
-0.503100 0.000000
-0.487400 0.000000
-0.471700 0.001100
-0.456000 0.004000
-0.440300 0.008700
-0.424700 0.015300
-0.409000 0.023600
-0.393300 0.033000
-0.377600 0.043000
-0.361900 0.053600
-0.346200 0.064900
-0.330600 0.076800
-0.314900 0.089300
-0.299200 0.102500
-0.283500 0.116300
-0.267800 0.130700
-0.252100 0.145800
-0.236500 0.161500
-0.220800 0.177800
-0.205100 0.194700
-0.189400 0.213100
-0.173700 0.234300
-0.158000 0.255500
-0.142400 0.276800
-0.126700 0.298000
-0.111000 0.319200
-0.095300 0.340400
-0.079600 0.361600
-0.063900 0.382800
-0.048300 0.403900
-0.032600 0.425100
-0.016900 0.446200
-0.001200 0.467400
0.014500 1.144300
0.030200 1.797000
0.045800 2.446400
0.061500 3.092400
0.077200 3.735000
0.092900 4.374400
0.108600 5.010400
0.124300 4.866400
0.139900 4.363700
0.155600 5.252500
0.171300 5.468600
0.187000 4.974700
0.202700 5.280400
0.218400 6.106600
0.234000 6.722500
0.249700 6.867700
0.265400 6.457600
0.281100 5.260200
0.296800 4.486500
0.312500 4.192300
0.328100 4.178200
0.343800 4.160800
0.359500 4.337800
0.375200 4.855000
0.390900 5.712500
0.406600 6.670200
0.422200 8.298800
0.437900 8.370200
0.453600 7.722600
0.469300 10.903900
0.485000 6.133100
0.500700 5.119100
0.516300 5.056300
0.532000 4.993300
0.547700 4.930300
0.563400 4.868200
0.579100 4.830800
0.594800 5.486200
0.610400 7.138000
0.626100 8.177200
0.641800 8.213100
0.657500 7.871100
0.673200 7.365100
0.688900 7.163000
0.704500 7.117100
0.720200 7.410400
0.735900 5.464800
0.751600 5.155200
0.767300 5.342200
0.783000 8.809200
0.798600 6.452400
0.814300 6.610300
0.830000 6.699000
0.845700 6.718700
0.861400 6.669300
0.877100 6.449900
0.892700 6.144000
0.908400 5.984600
0.924100 6.188900
0.939800 6.345800
0.955500 6.450200
0.971200 6.485500
0.986800 6.409900
1.002500 6.233200
1.018200 5.660300
1.033900 4.968600
1.049600 4.949200
1.065300 4.970200
1.080900 4.987400
1.096600 5.011500
1.112300 5.051100
1.128000 5.098100
1.143700 5.152600
1.159400 7.155100
1.175000 8.466200
1.190700 5.430200
1.206400 5.537600
1.222100 5.586700
1.237800 5.569400
1.253500 5.485700
1.269100 5.335600
1.284800 5.089400
1.300500 4.252300
1.316200 4.220200
1.331900 4.194400
1.347600 4.174900
1.363200 4.168000
1.378900 4.270600
1.394600 4.514100
1.410300 4.898600
1.426000 5.384300
1.441700 5.485500
1.457300 5.408300
1.473000 5.152500
1.488700 4.681400
1.504400 4.527800
1.520100 4.525200
1.535800 4.537100
1.551400 4.561200
1.567100 4.597000
1.582800 4.638300
1.598500 4.586900
1.614200 4.511400
1.629900 4.445700
1.645500 4.389900
1.661200 4.343900
1.676900 4.307700
1.692600 4.281500
1.708300 4.268000
1.724000 4.263100
1.739600 4.250100
1.755300 4.222300
1.771000 4.179800
1.786700 4.122600
1.802400 4.050600
1.818100 4.002300
1.833700 3.973700
1.849400 3.944800
1.865100 3.915900
1.880800 3.886800
1.896500 3.857500
1.912200 3.828100
1.927800 3.798500
1.943500 3.768600
1.959200 3.737900
1.974900 3.705900
1.990600 3.672500
2.006300 3.637800
2.021900 3.601900
2.037600 3.576700
2.053300 3.556800
2.069000 3.536700
2.084700 3.516400
2.100400 3.495900
2.116000 3.475200
2.131700 3.454300
2.147400 3.433200
2.163100 3.420900
2.178800 3.414800
2.194500 3.407300
2.210100 3.397600
2.225800 3.385700
2.241500 3.357600
2.257200 3.317800
2.272900 3.274100
2.288600 3.226500
2.304200 3.175000
2.319900 3.119500
2.335600 3.060200
2.351300 2.996900
2.367000 2.928900
2.382700 2.856200
2.398300 2.778100
2.414000 2.697000
2.429700 2.613300
2.445400 2.527100
2.461100 2.444600
2.476800 2.313700
2.492400 2.286900
2.508100 2.264400
2.523800 2.242200
2.539500 2.220400
2.555200 2.198900
2.570900 2.177800
2.586500 2.691000
2.602200 3.265900
2.617900 3.204900
2.633600 3.299000
2.649300 3.439700
2.665000 3.558500
2.680600 3.655500
2.696300 3.730900
2.712000 3.786900
2.727700 3.844100
2.743400 4.003800
2.759100 4.272300
2.774700 4.543300
2.790400 8.724700
2.806100 7.485700
2.821800 6.524000
2.837500 6.264300
2.853200 6.000100
2.868800 5.731000
2.884500 8.393400
2.900200 6.832400
2.915900 6.717100
2.931600 6.579200
2.947300 6.417400
2.962900 6.218100
2.978600 5.979800
2.994300 5.701900
3.010000 5.421300
3.025700 5.312700
3.041400 5.438800
3.057000 6.490700
3.072700 7.005200
3.088400 6.981100
3.104100 5.871400
3.119800 5.332700
3.135500 5.183100
3.151100 5.077300
3.166800 5.003600
3.182500 4.923400
3.198200 4.830800
3.213900 4.725800
3.229600 4.608200
3.245200 4.478200
3.260900 4.335800
3.276600 4.281500
3.292300 4.247900
3.308000 4.213800
3.323700 4.645800
3.339300 6.904800
3.355000 7.072600
3.370700 5.461900
3.386400 5.801400
3.402100 5.836500
3.417800 5.800000
3.433400 5.691800
3.449100 5.511900
3.464800 5.229800
3.480500 5.008900
3.496200 4.948600
3.511900 4.890700
3.527500 4.835000
3.543200 4.781700
3.558900 4.730600
3.574600 4.688500
3.590300 4.719600
3.606000 4.759100
3.621600 4.802500
3.637300 4.833000
3.653000 4.850700
3.668700 4.855600
3.684400 4.847800
3.700100 4.827100
3.715700 4.793600
3.731400 4.753200
3.747100 4.961900
3.762800 5.507700
3.778500 5.855800
3.794200 6.004700
3.809800 5.945500
3.825500 5.804900
3.841200 5.687500
3.856900 5.592400
3.872600 5.519500
3.888300 5.468700
3.903900 5.440600
3.919600 5.434700
3.935300 5.437500
3.951000 5.439300
3.966700 5.440000
3.982400 5.434900
3.998000 5.418400
4.013700 5.423200
4.029400 5.505700
4.045100 5.575600
4.060800 5.674200
4.076500 5.808800
4.092100 5.979400
4.107800 6.186300
4.123500 6.428200
4.139200 6.804800
4.154900 6.819700
4.170600 6.366400
4.186200 5.998200
4.201900 5.988900
4.217600 5.976000
4.233300 5.964600
4.249000 6.079300
4.264700 6.258700
4.280300 6.428100
4.296000 6.574300
4.311700 6.699900
4.327400 6.825600
4.343100 6.945100
4.358800 7.054900
4.374400 7.154700
4.390100 7.237300
4.405800 7.030200
4.421500 6.777300
4.437200 6.792000
4.452900 6.808200
4.468500 6.825400
4.484200 6.917900
4.499900 8.217400
4.515600 8.445400
4.531300 8.487500
4.547000 8.363300
4.562600 8.062300
4.578300 7.715900
4.594000 7.745700
4.609700 7.776500
4.625400 7.808400
4.641100 7.841300
4.656700 7.874900
4.672400 7.908600
4.688100 8.506400
4.703800 9.492500
4.719500 10.038600
4.735200 10.116000
4.750800 9.262000
4.766500 9.005800
4.782200 9.041000
4.797900 9.062200
4.813600 9.069400
4.829300 9.062100
4.844900 9.039800
4.860600 9.000700
4.876300 8.963500
4.892000 10.747900
4.907700 10.944400
4.923400 10.444400
4.939000 9.986700
4.954700 9.616700
4.970400 9.470100
4.986100 9.433500
5.001800 9.387500
5.017500 9.326900
5.033100 9.283800
5.048800 9.242400
5.064500 9.137000
5.080200 9.052100
5.095900 9.047100
5.111600 8.876400
5.127200 8.777700
5.142900 8.728500
5.158600 8.683600
5.174300 8.626000
5.190000 8.481200
5.205700 8.356700
5.221300 8.307900
5.237000 8.258900
5.252700 8.276900
5.268400 8.442000
5.284100 8.755600
5.299800 9.217500
5.315400 9.827600
5.331100 10.354500
5.346800 9.903800
5.362500 9.262800
5.378200 9.170800
5.393900 9.090000
5.409500 9.040000
5.425200 8.990900
5.440900 8.942600
5.456600 8.871700
5.472300 8.789300
5.488000 8.709700
5.503600 8.632400
5.519300 8.557000
5.535000 8.480400
5.550700 8.403500
5.566400 9.310200
5.582100 10.985700
5.597700 11.156000
5.613400 10.689600
5.629100 10.080300
5.644800 9.723500
5.660500 9.487600
5.676200 9.357300
5.691800 9.253100
5.707500 9.147700
5.723200 9.042100
5.738900 8.929400
5.754600 8.767600
5.770300 8.564500
5.785900 8.389000
5.801600 8.278700
5.817300 8.191300
5.833000 8.089300
5.848700 7.988700
5.864400 7.906500
5.880000 7.844800
5.895700 7.836500
5.911400 7.763700
5.927100 7.694300
5.942800 7.623000
5.958500 10.508900
5.974100 10.580700
5.989800 8.616300
6.005500 8.500600
6.021200 8.462300
6.036900 8.422700
6.052600 8.380700
6.068200 8.334600
6.083900 8.284900
6.099600 8.234000
6.115300 8.180700
6.131000 10.257000
6.146700 10.550000
6.162300 9.725500
6.178000 8.752800
6.193700 8.758200
6.209400 8.765800
6.225100 8.761000
6.240800 8.734200
6.256400 8.703900
6.272100 8.668200
6.287800 8.967100
6.303500 9.938200
6.319200 10.452500
6.334900 10.528800
6.350500 9.120000
6.366200 9.036000
6.381900 9.061300
6.397600 9.053900
6.413300 8.946300
6.429000 8.823800
6.444600 8.788200
6.460300 8.763300
6.476000 8.745700
6.491700 8.726500
6.507400 8.696300
6.523100 8.656000
6.538700 8.614500
6.554400 8.609900
6.570100 8.604600
6.585800 8.598800
6.601500 8.592200
6.617200 8.585300
6.632800 8.538900
6.648500 8.382300
6.664200 8.218300
6.679900 8.086300
6.695600 7.949800
6.711300 7.869200
6.726900 7.843600
6.742600 7.835900
6.758300 7.641300
6.774000 7.382900
6.789700 7.290200
6.805400 7.208500
6.821000 7.113700
6.836700 7.000300
6.852400 6.868400
6.868100 6.799000
6.883800 6.749700
6.899500 6.692600
6.915100 6.634300
6.930800 6.462600
6.946500 6.314200
6.962200 6.196000
6.977900 6.048600
6.993600 5.852900
7.009200 5.579900
7.024900 5.509900
7.040600 5.444500
7.056300 5.383400
7.072000 5.304400
7.087700 5.217000
7.103300 5.145000
7.119000 5.076100
7.134700 5.009800
7.150400 5.044200
7.166100 4.954200
7.181800 4.864900
7.197400 4.777100
7.213100 4.700000
7.228800 4.627500
7.244500 4.550200
7.260200 4.468100
7.275900 4.381800
7.291500 4.300800
7.307200 4.228500
7.322900 4.165100
7.338600 4.067000
7.354300 3.972100
7.370000 3.905100
7.385600 3.866200
7.401300 3.821300
7.417000 3.760100
7.432700 3.702400
7.448400 3.655100
7.464100 3.619900
7.479700 3.585800
7.495400 3.495500
7.511100 3.391700
7.526800 3.310400
7.542500 3.237600
7.558200 3.182900
7.573800 3.142700
7.589500 3.020100
7.605200 2.964300
7.620900 2.970200
7.636600 3.024500
7.652300 2.871600
7.667900 2.701400
7.683600 2.532500
7.699300 2.365200
7.715000 2.199700
7.730700 2.040500
7.746400 1.884300
7.762000 1.729400
7.777700 1.575300
7.793400 1.421900
7.809100 1.271700
7.824800 1.126000
7.840500 0.984600
7.856100 0.846400
7.871800 0.710700
7.887500 0.579100
7.903200 0.461300
7.918900 0.349000
7.934600 0.241300
7.950200 0.136500
7.965900 0.050500
7.981600 0.005900
7.997300 0.000000
8.013000 0.000000
8.028700 0.000000
8.044300 0.000000
8.060000 0.000000
8.075700 0.000000
8.091400 0.000000
8.107100 0.000000
8.122800 0.000000
8.138400 0.000000
8.154100 0.000000
8.169800 0.000000
8.185500 0.000000
8.201200 0.000000
8.216900 0.000000
8.232500 0.000000
8.248200 0.000000
8.263900 0.000000
8.279600 0.000000
8.295300 0.000000
8.311000 0.000000
8.326600 0.000000
8.342300 0.000000
8.358000 0.000000
8.373700 0.000000
8.389400 0.000000
8.405100 0.000000
8.420700 0.000000
8.436400 0.000000
8.452100 0.000000
8.467800 0.000000
8.483500 0.000000
8.499200 0.000000
8.514800 0.000000
8.530500 0.000000
8.546200 0.000000
8.561900 0.000000
8.577600 0.000000
8.593300 0.000000
8.608900 0.000000
8.624600 0.000000
8.640300 0.000000
8.656000 0.000000
8.671700 0.000000
8.687400 0.000000
8.703000 0.000000
8.718700 0.000000
8.734400 0.000000
8.750100 0.000000
8.765800 0.000000
8.781500 0.000000
8.797100 0.000000
8.812800 0.000000
8.828500 0.000000
8.844200 0.000000
8.859900 0.000000
8.875600 0.000000
8.891200 0.000000
8.906900 0.000000
8.922600 0.000000
8.938300 0.000000
8.954000 0.000000
8.969700 0.000000
8.985300 0.000000
9.001000 0.000000
9.016700 0.000000
9.032400 0.000000
9.048100 0.000000
9.063800 0.000000
9.079400 0.000000
9.095100 0.000000
9.110800 0.000000
9.126500 0.000000
9.142200 0.000000
9.157900 0.000000
9.173500 0.000000
9.189200 0.000000
9.204900 0.000000
9.220600 0.000000
9.236300 0.000000
9.252000 0.000000
9.267600 0.000000
9.283300 0.000000
9.299000 0.000000
9.314700 0.000000
9.330400 0.000000
9.346100 0.000000
9.361700 0.000000
9.377400 0.000000
9.393100 0.000000
9.408800 0.000000
9.424500 0.000000
9.440200 0.000000
9.455800 0.000000
9.471500 0.000000
9.487200 0.000000
9.502900 0.000000
9.518600 0.000000
9.534300 0.000000
9.549900 0.000000
9.565600 0.000000
9.581300 0.000000
9.597000 0.000000
9.612700 0.000000
9.628400 0.000000
9.644000 0.000000
9.659700 0.000000
9.675400 0.000000
9.691100 0.000000
9.706800 0.000000
9.722500 0.000000
9.738100 0.000000
9.753800 0.000000
9.769500 0.000000
9.785200 0.000000
9.800900 0.000000
9.816600 0.000000
9.832200 0.000000
9.847900 0.000000
9.863600 0.000000
9.879300 0.000000
9.895000 0.000000
9.910700 0.000000
9.926300 0.000000
9.942000 0.000000
9.957700 0.000000
9.973400 0.000000
9.989100 0.000000
10.004800 0.000000
10.020400 0.137000
10.036100 0.372000
10.051800 0.500100
10.067500 0.502200
10.083200 0.504400
10.098900 0.506600
10.114500 0.508800
10.130200 0.511000
10.145900 0.513200
10.161600 0.515400
10.177300 0.517500
10.193000 0.519700
10.208600 0.521900
10.224300 0.524100
10.240000 0.526300
10.255700 0.528500
10.271400 0.530700
10.287100 0.532900
10.302700 0.535100
10.318400 0.537300
10.334100 0.539500
10.349800 0.541600
10.365500 0.543800
10.381200 0.564700
10.396800 1.020500
10.412500 1.027300
10.428200 1.034100
10.443900 1.040900
10.459600 1.047700
10.475300 1.054400
10.490900 1.061200
10.506600 1.068000
10.522300 1.074800
10.538000 1.081600
10.553700 1.088400
10.569400 1.095200
10.585000 1.101900
10.600700 1.108700
10.616400 1.115500
10.632100 1.122300
10.647800 1.129100
10.663500 1.135900
10.679100 1.142700
10.694800 1.149500
10.710500 1.156300
10.726200 1.163100
10.741900 1.169900
10.757600 1.207200
10.773200 1.380300
10.788900 1.550300
10.804600 1.595200
10.820300 1.608600
10.836000 1.622000
10.851700 1.635500
10.867300 1.648900
10.883000 1.662300
10.898700 1.675800
10.914400 1.689200
10.930100 1.722600
10.945800 1.996200
10.961400 2.571200
10.977100 2.823100
10.992800 2.867100
11.008500 2.839400
11.024200 2.739800
11.039900 2.568400
11.055500 2.325200
11.071200 2.174800
11.086900 2.178400
11.102600 2.181900
11.118300 2.185500
11.134000 2.189100
11.149600 2.192700
11.165300 2.196300
11.181000 2.199900
11.196700 2.203400
11.212400 2.207000
11.228100 2.210600
11.243700 2.214200
11.259400 2.217800
11.275100 2.221400
11.290800 2.225000
11.306500 2.228600
11.322200 2.232200
11.337800 2.443600
11.353500 2.659500
11.369200 2.841500
11.384900 2.989600
11.400600 3.103700
11.416300 3.184000
11.431900 3.233000
11.447600 3.311600
11.463300 3.245400
11.479000 3.117900
11.494700 3.026800
11.510400 3.000200
11.526000 3.018300
11.541700 3.036800
11.557400 3.054000
11.573100 3.070300
11.588800 3.096900
11.604500 3.139400
11.620100 3.194800
11.635800 3.192000
11.651500 3.189200
11.667200 3.186400
11.682900 3.183500
11.698600 3.200700
11.714200 3.223800
11.729900 3.248000
11.745600 3.273400
11.761300 3.300000
11.777000 3.327800
11.792700 3.356700
11.808300 3.386700
11.824000 3.414900
11.839700 3.443200
11.855400 3.472800
11.871100 3.503600
11.886800 3.535500
11.902500 3.568600
11.918100 3.602900
11.933800 3.685600
11.949500 3.760700
11.965200 3.784200
11.980900 3.796900
11.996600 3.809500
12.012200 6.979000
12.027900 6.758500
12.043600 4.676000
12.059300 4.645100
12.075000 4.614200
12.090700 4.583200
12.106300 4.552300
12.122000 4.521400
12.137700 4.490400
12.153400 4.459500
12.169100 4.428600
12.184800 4.397600
12.200400 4.366700
12.216100 18.999100
12.231800 6.694600
12.247500 4.528500
12.263200 4.708800
12.278900 5.080100
12.294500 5.737600
12.310200 6.623000
12.325900 6.851800
12.341600 6.685700
12.357300 6.302900
12.373000 5.645100
12.388600 5.040800
12.404300 4.615200
12.420000 4.359600
12.435700 4.270900
12.451400 6.481700
12.467100 7.229300
12.482700 6.445800
12.498400 6.100300
12.514100 6.396800
12.529800 7.122100
12.545500 9.876700
12.561200 6.856400
12.576800 7.102600
12.592500 6.897000
12.608200 6.290000
12.623900 5.386400
12.639600 4.785400
12.655300 5.005700
12.670900 5.271600
12.686600 5.564800
12.702300 5.933300
12.718000 6.147200
12.733700 6.286800
12.749400 6.499000
12.765000 6.773700
12.780700 7.023800
12.796400 7.242200
12.812100 7.445300
12.827800 7.581400
12.843500 7.450100
12.859100 7.295200
12.874800 6.886300
12.890500 6.439300
12.906200 6.008600
12.921900 5.594200
12.937600 5.650300
12.953200 6.023300
12.968900 6.369600
12.984600 6.678500
13.000300 7.138000
13.016000 7.573900
13.031700 7.555400
13.047300 6.875800
13.063000 5.978600
13.078700 5.219200
13.094400 4.787900
13.110100 4.457500
13.125800 4.382700
13.141400 4.344100
13.157100 4.310700
13.172800 4.282400
13.188500 4.255100
13.204200 4.223600
13.219900 4.187900
13.235500 4.148100
13.251200 4.104100
13.266900 4.056900
13.282600 4.007000
13.298300 3.954500
13.314000 3.899300
13.329600 3.841500
13.345300 3.779500
13.361000 3.746600
13.376700 3.734700
13.392400 3.751800
13.408100 3.797200
13.423700 3.852900
13.439400 3.914000
13.455100 4.039800
13.470800 4.145200
13.486500 4.181000
13.502200 4.209100
13.517800 4.231300
13.533500 4.247700
13.549200 4.258100
13.564900 4.263000
13.580600 4.267200
13.596300 4.272000
13.611900 4.277300
13.627600 4.283400
13.643300 4.295700
13.659000 4.329300
13.674700 4.383800
13.690400 4.480800
13.706000 4.797100
13.721700 6.397700
13.737400 7.874300
13.753100 7.762400
13.768800 6.878600
13.784500 5.222900
13.800100 4.781000
13.815800 4.711300
13.831500 4.645400
13.847200 4.589800
13.862900 4.604100
13.878600 4.708600
13.894200 5.121800
13.909900 5.446900
13.925600 5.817200
13.941300 6.470300
13.957000 6.816800
13.972700 6.933900
13.988300 6.822500
14.004000 5.966800
14.019700 5.567000
14.035400 5.369100
14.051100 5.478800
14.066800 5.606100
14.082400 5.552300
14.098100 5.492000
14.113800 5.482200
14.129500 5.535600
14.145200 5.658400
14.160900 5.797900
14.176500 5.632600
14.192200 5.593300
14.207900 6.639900
14.223600 8.799300
14.239300 7.197900
14.255000 6.247000
14.270600 6.241500
14.286300 6.225000
14.302000 6.149300
14.317700 6.734800
14.333400 6.540300
14.349100 5.657900
14.364700 4.460200
14.380400 4.342500
14.396100 4.340800
14.411800 4.345000
14.427500 4.355300
14.443200 4.371700
14.458800 4.446500
14.474500 4.580700
14.490200 5.442100
14.505900 7.218100
14.521600 12.200700
14.537300 10.429900
14.552900 8.196500
14.568600 7.565900
14.584300 6.887400
14.600000 6.020200
14.615700 5.020400
14.631400 4.381500
14.647000 4.057500
14.662700 3.981700
14.678400 3.925000
14.694100 3.868500
14.709800 3.836900
14.725500 4.377100
14.741100 5.682900
14.756800 7.805600
14.772500 8.843800
14.788200 8.746700
14.803900 8.284200
14.819600 7.457000
14.835200 5.687900
14.850900 4.980500
14.866600 5.074400
14.882300 6.959800
14.898000 7.946600
14.913700 8.195500
14.929300 8.153300
14.945000 7.840400
14.960700 7.937200
14.976400 8.892000
14.992100 11.722300
15.007800 7.009700
15.023400 6.242500
15.039100 5.707600
15.054800 5.314900
15.070500 5.105300
15.086200 5.154400
15.101900 5.444700
15.117500 5.868200
15.133200 6.398000
15.148900 6.864900
15.164600 7.103200
15.180300 7.304000
15.196000 7.487100
15.211600 7.656400
15.227300 7.950400
15.243000 8.520900
15.258700 9.909700
15.274400 11.568700
15.290100 11.847400
15.305700 10.119900
15.321400 6.722000
15.337100 6.854800
15.352800 7.000000
15.368500 7.133900
15.384200 7.295900
15.399800 7.479300
15.415500 7.690800
15.431200 7.970800
15.446900 8.429900
15.462600 9.170900
15.478300 9.884900
15.493900 10.563900
15.509600 11.209100
15.525300 11.848500
15.541000 12.488200
15.556700 13.161500
15.572400 13.740500
15.588000 12.625500
15.603700 12.020100
15.619400 15.414900
15.635100 20.507300
15.650800 19.651600
15.666500 15.123400
15.682100 12.922200
15.697800 10.193800
15.713500 10.357700
15.729200 10.607700
15.744900 11.636900
15.760600 11.928100
15.776200 10.640100
15.791900 8.228700
15.807600 8.510200
15.823300 8.862400
15.839000 9.291400
15.854700 9.797200
15.870300 10.685000
15.886000 12.609600
15.901700 12.706900
15.917400 12.505400
15.933100 12.098800
15.948800 11.664900
15.964400 11.463800
15.980100 10.129200
15.995800 10.670700
16.011500 11.105500
16.027200 11.399400
16.042900 11.487400
16.058500 11.369200
16.074200 11.127200
16.089900 10.755700
16.105600 10.455300
16.121300 10.241200
16.137000 10.113300
16.152600 9.720400
16.168300 9.824400
16.184000 10.283300
16.199700 11.539900
16.215400 12.968500
16.231100 10.659300
16.246700 10.538900
16.262400 10.616200
16.278100 10.495500
16.293800 10.463700
16.309500 10.383500
16.325200 10.274100
16.340800 10.158300
16.356500 10.030700
16.372200 9.764200
16.387900 9.479800
16.403600 9.532600
16.419300 9.763900
16.434900 10.191500
16.450600 10.460400
16.466300 10.842000
16.482000 11.193600
16.497700 11.539400
16.513400 11.965900
16.529000 13.340100
16.544700 12.197500
16.560400 10.462100
16.576100 9.094800
16.591800 9.283500
16.607500 9.725400
16.623100 9.996800
16.638800 10.171400
16.654500 10.351900
16.670200 11.030500
16.685900 11.866200
16.701600 11.189900
16.717200 10.279500
16.732900 11.042200
16.748600 9.162300
16.764300 8.416300
16.780000 7.804400
16.795700 7.326800
16.811300 7.046200
16.827000 6.986300
16.842700 7.055100
16.858400 7.121100
16.874100 7.181200
16.889800 7.269700
16.905400 7.834500
16.921100 8.601300
16.936800 8.726000
16.952500 8.660000
16.968200 8.872300
16.983900 8.926900
16.999500 9.032800
17.015200 8.967600
17.030900 8.731700
17.046600 8.319700
17.062300 8.237900
17.078000 8.243700
17.093600 8.249200
17.109300 8.268600
17.125000 8.248600
17.140700 8.133200
17.156400 7.780400
17.172100 7.457700
17.187700 7.227700
17.203400 7.076800
17.219100 6.981100
17.234800 6.916100
17.250500 6.843900
17.266200 6.892200
17.281800 6.965200
17.297500 7.042100
17.313200 7.122700
17.328900 7.417400
17.344600 7.987900
17.360300 8.360400
17.375900 8.160200
17.391600 7.845500
17.407300 7.669200
17.423000 7.643400
17.438700 7.961700
17.454400 8.063000
17.470000 8.039200
17.485700 7.978100
17.501400 8.015900
17.517100 8.173000
17.532800 8.372900
17.548500 8.245100
17.564100 8.419800
17.579800 8.324100
17.595500 8.199400
17.611200 8.132500
17.626900 8.533900
17.642600 8.514700
17.658200 8.497700
17.673900 8.466700
17.689600 8.403100
17.705300 8.304200
17.721000 8.173000
17.736700 8.035300
17.752300 7.897400
17.768000 7.779400
17.783700 7.675600
17.799400 7.615400
17.815100 7.509000
17.830800 7.329500
17.846400 7.336500
17.862100 7.402500
17.877800 7.534500
17.893500 7.735700
17.909200 7.750500
17.924900 7.728300
17.940500 7.706600
17.956200 7.745700
17.971900 7.813200
17.987600 7.841900
18.003300 7.619800
18.019000 7.591100
18.034600 7.595100
18.050300 7.601900
18.066000 7.599800
18.081700 7.522500
18.097400 7.681100
18.113100 8.718800
18.128700 9.355800
18.144400 9.523800
18.160100 9.149000
18.175800 8.248200
18.191500 7.055200
18.207200 6.777100
18.222800 6.661300
18.238500 6.913200
18.254200 8.123600
18.269900 7.096000
18.285600 6.679900
18.301300 6.405200
18.316900 6.184900
18.332600 6.008000
18.348300 5.874600
18.364000 5.795100
18.379700 5.844600
18.395400 6.155200
18.411000 6.602600
18.426700 6.880700
18.442400 7.114900
18.458100 7.369800
18.473800 7.619300
18.489500 7.863600
18.505100 8.102600
18.520800 8.336300
18.536500 8.564900
18.552200 9.549300
18.567900 9.764300
18.583600 8.896800
18.599200 7.951600
18.614900 7.268400
18.630600 6.395300
18.646300 6.326000
18.662000 6.013400
18.677700 5.852800
18.693300 5.793100
18.709000 5.803600
18.724700 5.814900
18.740400 5.846200
18.756100 5.898800
18.771800 5.972800
18.787400 6.068200
18.803100 9.391900
18.818800 8.058200
18.834500 8.948000
18.850200 8.295500
18.865900 7.184700
18.881500 7.891300
18.897200 7.496700
18.912900 4.939700
18.928600 4.882500
18.944300 4.829200
18.960000 4.780000
18.975600 4.734800
18.991300 4.693700
19.007000 4.752500
19.022700 6.017300
19.038400 7.872300
19.054100 6.239500
19.069700 5.270800
19.085400 4.919600
19.101100 4.430200
19.116800 4.218400
19.132500 4.126200
19.148200 4.028400
19.163800 3.925100
19.179500 3.816200
19.195200 3.701800
19.210900 3.582000
19.226600 3.579000
19.242300 3.616000
19.257900 3.634700
19.273600 3.635900
19.289300 3.619900
19.305000 3.584800
19.320700 3.530500
19.336400 3.457000
19.352000 3.364300
19.367700 3.254700
19.383400 3.277100
19.399100 3.299500
19.414800 3.322000
19.430500 3.344400
19.446100 3.366900
19.461800 3.389300
19.477500 3.411800
19.493200 3.434300
19.508900 3.456700
19.524600 3.479200
19.540200 4.855400
19.555900 4.012200
19.571600 4.128400
19.587300 4.228300
19.603000 4.310700
19.618700 4.375600
19.634300 4.423100
19.650000 4.454800
19.665700 4.471300
19.681400 4.472700
19.697100 4.363700
19.712800 4.104500
19.728400 3.992900
19.744100 4.027800
19.759800 4.120600
19.775500 4.198600
19.791200 4.257800
19.806900 4.552800
19.822500 4.785900
19.838200 4.957900
19.853900 5.066700
19.869600 4.994500
19.885300 4.740000
19.901000 4.588900
19.916600 4.648500
19.932300 4.919200
19.948000 11.159900
19.963700 3.588900
19.979400 3.647600
19.995100 3.703600
20.010700 3.756800
20.026400 3.807200
20.042100 3.854900
20.057800 3.958800
20.073500 4.064400
20.089200 4.159700
20.104800 4.244500
20.120500 4.318900
20.136200 4.382900
20.151900 4.436400
20.167600 4.479500
20.183300 4.512200
20.198900 4.533200
20.214600 4.540200
20.230300 4.533400
20.246000 4.487300
20.261700 4.323200
20.277400 4.334600
20.293000 4.454700
20.308700 4.636700
20.324400 4.859800
20.340100 5.051300
20.355800 5.195500
20.371500 5.269000
20.387100 5.315700
20.402800 5.395900
20.418500 5.362100
20.434200 4.550800
20.449900 4.320300
20.465600 4.131400
20.481200 3.950900
20.496900 3.791200
20.512600 5.188300
20.528300 5.911000
20.544000 5.315500
20.559700 4.153000
20.575300 3.479000
20.591000 3.123000
20.606700 3.054900
20.622400 3.229500
20.638100 4.556800
20.653800 4.768000
20.669400 3.644000
20.685100 2.757500
20.700800 2.648000
20.716500 2.582500
20.732200 2.544700
20.747900 2.534200
20.763500 2.533500
20.779200 2.531800
20.794900 2.529100
20.810600 2.523500
20.826300 2.492200
20.842000 2.388800
20.857600 2.280800
20.873300 1.599500
20.889000 1.430900
20.904700 1.317600
20.920400 1.221900
20.936100 1.174500
20.951700 1.125900
20.967400 1.076300
20.983100 1.025500
20.998800 0.991800
21.014500 0.993000
21.030200 0.998700
21.045800 1.004400
21.061500 0.976900
21.077200 0.866500
21.092900 0.722700
21.108600 0.634900
21.124300 0.546700
21.139900 0.405200
21.155600 0.184600
21.171300 0.000200
21.187000 0.000000
21.202700 0.000000
21.218400 0.000000
21.234000 0.000000
21.249700 0.000000
21.265400 0.000000
21.281100 0.000000
21.296800 0.000000
21.312500 0.000000
21.328100 0.000000
21.343800 0.000000
21.359500 0.000000
21.375200 0.000000
21.390900 0.000000
21.406600 0.000000
21.422200 0.000000
21.437900 0.000000
21.453600 0.000000
21.469300 0.000000
21.485000 0.000000
21.500700 0.000000
21.516300 0.000000
21.532000 0.000000
21.547700 0.000000
21.563400 0.000000
21.579100 0.000000
21.594800 0.000000
21.610400 0.000000
21.626100 0.000000
21.641800 0.000000
21.657500 0.000000
21.673200 0.000000
21.688900 0.000000
21.704500 0.000000
21.720200 0.000000
21.735900 0.000000
21.751600 0.000000
21.767300 0.000000
21.783000 0.000000
21.798600 0.000000
21.814300 0.000000
21.830000 0.000000
21.845700 0.000000
21.861400 0.000000
21.877100 0.000000
21.892700 0.000000
21.908400 0.000000
21.924100 0.000000
21.939800 0.000000
21.955500 0.000000
21.971200 0.000000
21.986800 0.000000
22.002500 0.000000
22.018200 0.000000
22.033900 0.000000
22.049600 0.000000
22.065300 0.000000
22.080900 0.000000
22.096600 0.000000
22.112300 0.000000
22.128000 0.000000
22.143700 0.000000
22.159400 0.000000
22.175000 0.000000
22.190700 0.000000
22.206400 0.000000
22.222100 0.000000
22.237800 0.000000
22.253500 0.000000
22.269100 0.000000
22.284800 0.000000
22.300500 0.000000
22.316200 0.000000
22.331900 0.000000
22.347600 0.000000
22.363200 0.000000
22.378900 0.000000
22.394600 0.000000
22.410300 0.000000
22.426000 0.000000
22.441700 0.000000
22.457300 0.000000
22.473000 0.000000
22.488700 0.000000
22.504400 0.000000
22.520100 0.000000
22.535800 0.000000
22.551400 0.000000
22.567100 0.000000
22.582800 0.000000
22.598500 0.000000
e
