set title 'mp-1187501 - Density of States'
set xlabel 'Energy (eV)'
set ylabel 'DOS (states/eV)'
set grid
set xrange [-10:10]
set yrange [0:129.638]
set xzeroaxis lt -1
set terminal png size 800,600
set output 'mp-1187501_dos_gnuplot.png'
plot '-' using 1:2 with lines title 'DOS'
-9.959900 0.000000
-9.938000 0.000000
-9.916100 0.000000
-9.894200 0.000000
-9.872400 0.000000
-9.850500 0.000000
-9.828600 0.000000
-9.806700 0.000000
-9.784900 0.000000
-9.763000 0.000000
-9.741100 0.000000
-9.719200 0.000000
-9.697400 0.000000
-9.675500 0.000000
-9.653600 0.000000
-9.631800 0.000000
-9.609900 0.000000
-9.588000 0.000000
-9.566100 0.000000
-9.544300 0.000000
-9.522400 0.000000
-9.500500 0.000000
-9.478600 0.000000
-9.456800 0.000000
-9.434900 0.000000
-9.413000 0.000000
-9.391100 0.000000
-9.369300 0.000000
-9.347400 0.000000
-9.325500 0.000000
-9.303600 0.000000
-9.281800 0.000000
-9.259900 0.000000
-9.238000 0.000000
-9.216100 0.000000
-9.194300 0.000000
-9.172400 0.000000
-9.150500 0.000000
-9.128600 0.000000
-9.106800 0.000000
-9.084900 0.000000
-9.063000 0.000000
-9.041100 0.000000
-9.019300 0.000000
-8.997400 0.000000
-8.975500 0.000000
-8.953700 0.000000
-8.931800 0.000000
-8.909900 0.000000
-8.888000 0.000000
-8.866200 0.000000
-8.844300 0.000000
-8.822400 0.000000
-8.800500 0.000000
-8.778700 0.000000
-8.756800 0.000000
-8.734900 0.000000
-8.713000 0.000000
-8.691200 0.000000
-8.669300 0.000000
-8.647400 0.000000
-8.625500 0.000000
-8.603700 0.000000
-8.581800 0.000000
-8.559900 0.000000
-8.538000 0.000000
-8.516200 0.000000
-8.494300 0.000000
-8.472400 0.000000
-8.450500 0.000000
-8.428700 0.000000
-8.406800 0.000000
-8.384900 0.000000
-8.363000 0.000000
-8.341200 0.000000
-8.319300 0.000000
-8.297400 0.000000
-8.275600 0.000000
-8.253700 0.000000
-8.231800 0.000000
-8.209900 0.000000
-8.188100 0.000000
-8.166200 0.000000
-8.144300 0.000000
-8.122400 0.000000
-8.100600 0.000000
-8.078700 0.000000
-8.056800 0.000000
-8.034900 0.000000
-8.013100 0.000000
-7.991200 0.000000
-7.969300 0.967800
-7.947400 9.382600
-7.925600 17.139900
-7.903700 37.925700
-7.881800 61.478700
-7.859900 34.458300
-7.838100 13.114400
-7.816200 44.877100
-7.794300 95.135700
-7.772400 82.113000
-7.750600 46.790500
-7.728700 41.059200
-7.706800 79.805000
-7.684900 63.763400
-7.663100 59.480900
-7.641200 65.716400
-7.619300 88.573000
-7.597400 117.853100
-7.575600 0.000000
-7.553700 0.000000
-7.531800 0.000000
-7.510000 0.000000
-7.488100 0.000000
-7.466200 0.000000
-7.444300 0.000000
-7.422500 0.000000
-7.400600 0.000000
-7.378700 0.000000
-7.356800 0.000000
-7.335000 0.000000
-7.313100 0.000000
-7.291200 0.000000
-7.269300 0.000000
-7.247500 0.000000
-7.225600 0.000000
-7.203700 0.000000
-7.181800 0.000000
-7.160000 0.000000
-7.138100 0.000000
-7.116200 0.000000
-7.094300 0.000000
-7.072500 0.000000
-7.050600 0.000000
-7.028700 0.000000
-7.006800 0.000000
-6.985000 0.000000
-6.963100 0.000000
-6.941200 0.000000
-6.919300 0.000000
-6.897500 0.000000
-6.875600 0.000000
-6.853700 0.000000
-6.831900 0.000000
-6.810000 0.000000
-6.788100 0.000000
-6.766200 0.000000
-6.744400 0.000000
-6.722500 0.000000
-6.700600 0.000000
-6.678700 0.000000
-6.656900 0.000000
-6.635000 0.000000
-6.613100 0.000000
-6.591200 0.000000
-6.569400 0.000000
-6.547500 0.000000
-6.525600 0.000000
-6.503700 0.000000
-6.481900 0.000000
-6.460000 0.000000
-6.438100 0.000000
-6.416200 0.000000
-6.394400 0.000000
-6.372500 0.000000
-6.350600 0.000000
-6.328700 0.000000
-6.306900 0.000000
-6.285000 0.000000
-6.263100 0.000000
-6.241200 0.000000
-6.219400 0.000000
-6.197500 0.000000
-6.175600 0.000000
-6.153800 0.000000
-6.131900 0.000000
-6.110000 0.000000
-6.088100 0.000000
-6.066300 0.000000
-6.044400 0.000000
-6.022500 0.000000
-6.000600 0.000000
-5.978800 0.000000
-5.956900 0.000000
-5.935000 0.000000
-5.913100 0.000000
-5.891300 0.000000
-5.869400 0.000000
-5.847500 0.000000
-5.825600 0.000000
-5.803800 0.000000
-5.781900 0.000000
-5.760000 0.000000
-5.738100 0.000000
-5.716300 0.000000
-5.694400 0.000000
-5.672500 0.000000
-5.650600 0.000000
-5.628800 0.000000
-5.606900 0.000000
-5.585000 0.000000
-5.563100 0.000000
-5.541300 0.000000
-5.519400 0.000000
-5.497500 0.000000
-5.475600 0.000000
-5.453800 0.000000
-5.431900 0.000000
-5.410000 0.000000
-5.388200 0.000000
-5.366300 0.001600
-5.344400 0.020200
-5.322500 0.059900
-5.300700 0.120400
-5.278800 0.160600
-5.256900 0.179100
-5.235000 0.185200
-5.213200 0.191200
-5.191300 0.210300
-5.169400 0.230100
-5.147500 0.250400
-5.125700 0.271000
-5.103800 0.288900
-5.081900 0.303400
-5.060000 0.312900
-5.038200 0.318800
-5.016300 0.324000
-4.994400 0.331100
-4.972500 0.342200
-4.950700 0.353400
-4.928800 0.364700
-4.906900 0.375900
-4.885000 0.387100
-4.863200 0.398200
-4.841300 0.409400
-4.819400 0.420900
-4.797500 0.429400
-4.775700 0.437400
-4.753800 0.445000
-4.731900 0.453700
-4.710100 0.481700
-4.688200 0.522600
-4.666300 0.559100
-4.644400 0.591100
-4.622600 0.532300
-4.600700 0.536800
-4.578800 0.541200
-4.556900 0.545300
-4.535100 0.549000
-4.513200 0.553000
-4.491300 0.556800
-4.469400 0.555300
-4.447600 0.553000
-4.425700 0.551300
-4.403800 0.550800
-4.381900 0.553100
-4.360100 0.554300
-4.338200 0.554700
-4.316300 0.555300
-4.294400 0.556300
-4.272600 0.557600
-4.250700 0.559100
-4.228800 0.560400
-4.206900 0.592300
-4.185100 0.634500
-4.163200 0.673100
-4.141300 0.643200
-4.119400 0.652000
-4.097600 0.661300
-4.075700 0.671100
-4.053800 0.681400
-4.032000 0.692100
-4.010100 0.703500
-3.988200 0.713400
-3.966300 0.718200
-3.944500 0.722800
-3.922600 0.727100
-3.900700 0.735200
-3.878800 0.743900
-3.857000 0.752000
-3.835100 0.760100
-3.813200 0.768200
-3.791300 0.776500
-3.769500 0.783500
-3.747600 0.790600
-3.725700 0.798100
-3.703800 0.806900
-3.682000 0.809600
-3.660100 0.817500
-3.638200 0.825600
-3.616300 0.833600
-3.594500 0.841800
-3.572600 0.850000
-3.550700 0.858200
-3.528800 0.866900
-3.507000 0.876100
-3.485100 0.885600
-3.463200 0.895200
-3.441300 0.904900
-3.419500 0.914900
-3.397600 0.925000
-3.375700 0.935200
-3.353900 0.945600
-3.332000 0.956100
-3.310100 0.966100
-3.288200 0.975000
-3.266400 0.982700
-3.244500 0.991700
-3.222600 1.002400
-3.200700 1.013600
-3.178900 1.025200
-3.157000 1.037100
-3.135100 1.049300
-3.113200 1.062100
-3.091400 1.075000
-3.069500 1.088400
-3.047600 1.103200
-3.025700 1.119600
-3.003900 1.137900
-2.982000 1.159500
-2.960100 1.184700
-2.938200 1.212700
-2.916400 1.238600
-2.894500 1.265400
-2.872600 1.293000
-2.850700 1.332200
-2.828900 1.395100
-2.807000 1.447100
-2.785100 1.478200
-2.763200 1.489500
-2.741400 1.497200
-2.719500 1.501400
-2.697600 1.502600
-2.675700 1.501000
-2.653900 1.580900
-2.632000 1.625200
-2.610100 1.609900
-2.588300 1.521300
-2.566400 1.500400
-2.544500 1.490000
-2.522600 1.479500
-2.500800 1.470800
-2.478900 1.462400
-2.457000 1.454800
-2.435100 1.445800
-2.413300 1.424800
-2.391400 1.412300
-2.369500 1.401800
-2.347600 1.389900
-2.325800 1.376700
-2.303900 1.406800
-2.282000 1.365300
-2.260100 1.328100
-2.238300 1.294500
-2.216400 1.267200
-2.194500 1.247500
-2.172600 1.232300
-2.150800 1.327200
-2.128900 1.217000
-2.107000 1.221800
-2.085100 1.293100
-2.063300 1.252700
-2.041400 1.212500
-2.019500 1.155100
-1.997600 1.148600
-1.975800 1.143300
-1.953900 1.139200
-1.932000 1.204800
-1.910200 1.175400
-1.888300 1.137800
-1.866400 1.110400
-1.844500 1.080500
-1.822700 1.082800
-1.800800 1.185000
-1.778900 1.142800
-1.757000 1.154600
-1.735200 1.159700
-1.713300 1.161600
-1.691400 1.160500
-1.669500 1.071200
-1.647700 1.078700
-1.625800 1.086500
-1.603900 1.095100
-1.582000 1.104700
-1.560200 1.148800
-1.538300 1.234300
-1.516400 1.335700
-1.494500 1.254200
-1.472700 1.538500
-1.450800 2.092300
-1.428900 1.930500
-1.407000 1.491700
-1.385200 1.373300
-1.363300 1.390300
-1.341400 1.430100
-1.319500 1.673700
-1.297700 1.834400
-1.275800 1.879100
-1.253900 1.726700
-1.232100 1.348400
-1.210200 1.137700
-1.188300 0.973000
-1.166400 0.791000
-1.144600 0.607600
-1.122700 0.453000
-1.100800 0.324900
-1.078900 0.151200
-1.057100 0.008900
-1.035200 0.000000
-1.013300 0.000000
-0.991400 0.000000
-0.969600 0.000000
-0.947700 0.000000
-0.925800 0.000000
-0.903900 0.000000
-0.882100 0.000000
-0.860200 0.000000
-0.838300 0.000000
-0.816400 0.000000
-0.794600 0.000000
-0.772700 0.000000
-0.750800 0.000000
-0.728900 0.000000
-0.707100 0.000000
-0.685200 0.000000
-0.663300 0.000000
-0.641400 0.000000
-0.619600 0.000000
-0.597700 0.000000
-0.575800 0.000000
-0.553900 0.000000
-0.532100 0.000000
-0.510200 0.000000
-0.488300 0.000000
-0.466500 0.000000
-0.444600 0.000000
-0.422700 0.000000
-0.400800 0.000000
-0.379000 0.000000
-0.357100 0.000000
-0.335200 0.000000
-0.313300 0.000000
-0.291500 0.000000
-0.269600 0.000000
-0.247700 0.000000
-0.225800 0.000000
-0.204000 0.000000
-0.182100 0.000000
-0.160200 0.000000
-0.138300 0.000000
-0.116500 0.000000
-0.094600 0.000000
-0.072700 0.445800
-0.050800 1.168600
-0.029000 1.287900
-0.007100 1.101100
0.014800 1.122200
0.036700 1.184400
0.058500 1.271800
0.080400 1.381300
0.102300 1.491400
0.124200 1.598300
0.146000 1.749200
0.167900 1.916400
0.189800 2.042400
0.211600 2.119500
0.233500 2.146800
0.255400 2.148800
0.277300 2.619600
0.299100 2.489500
0.321000 2.252100
0.342900 2.177500
0.364800 2.128700
0.386600 2.026000
0.408500 1.918700
0.430400 1.805400
0.452300 1.702000
0.474100 1.604400
0.496000 1.792800
0.517900 1.555400
0.539800 1.499700
0.561600 1.518700
0.583500 1.543700
0.605400 1.576600
0.627300 1.623200
0.649100 1.535500
0.671000 1.390600
0.692900 1.338400
0.714800 1.283400
0.736600 1.176800
0.758500 1.128200
0.780400 1.121100
0.802300 1.113800
0.824100 1.106300
0.846000 1.098500
0.867900 1.089600
0.889700 1.068200
0.911600 1.060800
0.933500 1.054500
0.955400 1.048800
0.977200 1.044300
0.999100 1.040800
1.021000 1.037700
1.042900 1.035200
1.064700 1.033600
1.086600 1.032700
1.108500 1.034300
1.130400 1.036500
1.152200 1.037800
1.174100 1.038600
1.196000 1.039300
1.217900 1.039900
1.239700 1.051400
1.261600 1.064100
1.283500 1.074800
1.305400 1.083400
1.327200 1.090100
1.349100 1.095000
1.371000 1.100600
1.392900 1.107000
1.414700 1.092500
1.436600 1.079700
1.458500 1.070500
1.480400 1.067500
1.502200 1.072600
1.524100 1.085600
1.546000 1.103900
1.567800 1.123400
1.589700 1.139100
1.611600 1.143200
1.633500 1.145400
1.655300 1.144400
1.677200 1.134900
1.699100 1.114900
1.721000 1.084400
1.742800 1.043400
1.764700 0.991800
1.786600 0.949800
1.808500 0.930200
1.830300 0.911500
1.852200 0.893600
1.874100 0.876500
1.896000 0.860200
1.917800 0.844800
1.939700 0.830200
1.961600 0.816600
1.983500 0.804400
2.005300 0.793300
2.027200 0.782500
2.049100 0.772200
2.071000 0.762300
2.092800 0.752800
2.114700 0.743600
2.136600 0.737300
2.158500 0.731300
2.180300 0.725300
2.202200 0.719300
2.224100 0.711800
2.246000 0.705700
2.267800 0.697400
2.289700 0.689100
2.311600 0.680900
2.333400 0.672800
2.355300 0.664800
2.377200 0.656800
2.399100 0.649000
2.420900 0.642300
2.442800 0.640900
2.464700 0.639400
2.486600 0.637600
2.508400 0.635700
2.530300 0.633600
2.552200 0.696600
2.574100 0.690000
2.595900 0.683500
2.617800 0.677100
2.639700 1.950600
2.661600 0.419800
2.683400 0.417800
2.705300 0.416100
2.727200 0.414400
2.749100 0.412800
2.770900 0.411200
2.792800 0.409700
2.814700 0.408500
2.836600 0.407400
2.858400 0.406400
2.880300 0.405400
2.902200 0.404600
2.924100 0.403800
2.945900 0.403100
2.967800 0.402000
2.989700 0.449600
3.011500 0.473500
3.033400 0.497900
3.055300 0.522900
3.077200 0.513000
3.099000 0.522400
3.120900 0.532100
3.142800 0.542300
3.164700 0.552800
3.186500 0.563700
3.208400 0.575100
3.230300 0.588500
3.252200 0.603100
3.274000 0.619000
3.295900 0.636100
3.317800 0.645300
3.339700 0.660500
3.361500 0.675700
3.383400 0.691200
3.405300 0.716900
3.427200 0.759900
3.449000 0.836000
3.470900 0.916300
3.492800 1.017600
3.514700 1.157800
3.536500 1.320900
3.558400 1.450200
3.580300 1.506700
3.602200 1.531400
3.624000 1.554800
3.645900 1.577100
3.667800 1.595600
3.689600 1.654000
3.711500 1.670100
3.733400 1.660600
3.755300 1.622300
3.777100 1.566000
3.799000 1.526400
3.820900 1.460500
3.842800 1.359600
3.864600 1.324100
3.886500 1.309100
3.908400 1.298200
3.930300 1.286400
3.952100 1.265200
3.974000 1.245800
3.995900 1.227600
4.017800 1.212000
4.039600 1.200200
4.061500 1.192200
4.083400 1.188100
4.105300 1.184800
4.127100 1.179600
4.149000 1.175100
4.170900 1.210100
4.192800 1.212300
4.214600 1.214800
4.236500 1.217500
4.258400 1.221500
4.280300 1.229600
4.302100 1.240700
4.324000 1.252300
4.345900 1.261100
4.367800 1.262800
4.389600 1.264600
4.411500 1.268700
4.433400 1.274000
4.455200 1.280400
4.477100 1.287000
4.499000 1.293100
4.520900 1.299900
4.542700 1.304400
4.564600 1.309100
4.586500 1.314600
4.608400 1.320800
4.630200 1.327400
4.652100 1.347300
4.674000 1.378100
4.695900 1.408300
4.717700 1.442600
4.739600 1.475100
4.761500 1.505700
4.783400 1.536600
4.805200 1.564600
4.827100 1.590000
4.849000 1.612500
4.870900 1.634700
4.892700 1.722200
4.914600 1.742200
4.936500 1.740100
4.958400 1.736900
4.980200 1.732100
5.002100 1.725600
5.024000 1.720100
5.045900 1.698400
5.067700 1.675800
5.089600 1.581300
5.111500 1.493700
5.133300 1.439900
5.155200 1.419900
5.177100 1.417400
5.199000 1.414900
5.220800 1.408800
5.242700 1.423400
5.264600 1.594200
5.286500 1.754700
5.308300 2.114900
5.330200 1.570500
5.352100 1.524800
5.374000 1.536300
5.395800 1.517500
5.417700 1.473900
5.439600 1.483600
5.461500 1.423400
5.483300 1.381300
5.505200 1.338000
5.527100 1.273600
5.549000 1.283200
5.570800 1.283800
5.592700 1.287600
5.614600 1.294600
5.636500 1.304700
5.658300 1.308500
5.680200 1.284800
5.702100 1.312300
5.724000 1.337300
5.745800 1.359300
5.767700 1.383900
5.789600 1.433900
5.811400 1.483800
5.833300 1.520800
5.855200 1.559000
5.877100 1.574700
5.898900 1.570500
5.920800 1.552400
5.942700 1.441600
5.964600 1.435900
5.986400 1.437600
6.008300 1.440500
6.030200 1.445800
6.052100 1.455600
6.073900 1.470300
6.095800 1.511100
6.117700 1.550800
6.139600 1.592300
6.161400 1.635900
6.183300 1.679700
6.205200 1.721600
6.227100 1.761400
6.248900 1.799000
6.270800 1.832900
6.292700 1.901500
6.314600 1.978200
6.336400 2.015100
6.358300 2.027200
6.380200 2.031600
6.402100 2.028300
6.423900 2.002000
6.445800 1.976700
6.467700 1.951800
6.489500 1.899700
6.511400 1.886000
6.533300 1.873000
6.555200 1.849700
6.577000 1.817000
6.598900 1.788300
6.620800 1.751600
6.642700 1.741000
6.664500 1.732700
6.686400 1.718700
6.708300 1.708800
6.730200 1.803400
6.752000 1.792300
6.773900 1.779300
6.795800 1.768000
6.817700 1.757700
6.839500 1.687000
6.861400 1.611100
6.883300 1.576800
6.905200 1.560300
6.927000 1.550400
6.948900 1.536500
6.970800 1.522800
6.992700 1.509500
7.014500 1.496900
7.036400 1.489900
7.058300 1.488800
7.080200 1.475100
7.102000 1.460400
7.123900 1.616200
7.145800 1.581100
7.167700 1.545800
7.189500 1.523500
7.211400 1.445900
7.233300 1.452200
7.255100 1.462900
7.277000 1.453300
7.298900 1.470300
7.320800 1.492500
7.342600 1.518100
7.364500 1.546100
7.386400 1.576600
7.408300 1.609500
7.430100 1.649900
7.452000 1.751000
7.473900 1.801300
7.495800 1.839600
7.517600 1.876700
7.539500 1.912600
7.561400 1.959500
7.583300 2.038200
7.605100 2.141100
7.627000 2.247700
7.648900 2.339100
7.670800 2.333100
7.692600 2.310500
7.714500 2.299500
7.736400 2.076700
7.758300 2.100100
7.780100 2.467200
7.802000 2.606900
7.823900 1.746200
7.845800 1.753000
7.867600 1.767600
7.889500 1.788300
7.911400 1.819200
7.933200 1.879000
7.955100 1.948800
7.977000 1.799200
7.998900 1.653800
8.020700 1.634900
8.042600 1.634200
8.064500 1.643000
8.086400 1.658300
8.108200 1.679300
8.130100 1.696100
8.152000 1.703000
8.173900 1.665600
8.195700 1.594000
8.217600 1.550600
8.239500 1.537200
8.261400 1.538300
8.283200 1.546600
8.305100 1.559300
8.327000 1.572800
8.348900 1.587800
8.370700 1.602700
8.392600 1.651000
8.414500 1.679100
8.436400 1.708400
8.458200 1.740400
8.480100 1.775400
8.502000 1.812300
8.523900 1.849100
8.545700 1.886500
8.567600 1.959500
8.589500 2.106500
8.611300 2.118100
8.633200 2.146500
8.655100 2.178600
8.677000 2.214300
8.698800 2.195300
8.720700 2.263800
8.742600 2.343900
8.764500 2.429100
8.786300 2.515900
8.808200 2.648500
8.830100 2.718600
8.852000 2.620400
8.873800 2.516700
8.895700 2.503300
8.917600 2.492800
8.939500 2.474900
8.961300 2.451300
8.983200 2.411400
9.005100 2.382900
9.027000 2.367500
9.048800 2.360900
9.070700 2.375700
9.092600 2.387700
9.114500 2.403800
9.136300 2.533000
9.158200 2.795100
9.180100 2.984800
9.202000 2.652600
9.223800 2.944400
9.245700 2.837200
9.267600 2.865300
9.289500 2.857300
9.311300 2.783300
9.333200 2.717900
9.355100 2.720300
9.376900 3.014200
9.398800 3.085200
9.420700 3.035800
9.442600 2.859000
9.464400 2.758400
9.486300 2.724400
9.508200 2.710400
9.530100 2.761500
9.551900 2.743100
9.573800 2.812000
9.595700 2.747600
9.617600 2.690200
9.639400 2.646700
9.661300 2.615400
9.683200 2.604200
9.705100 2.596700
9.726900 2.602500
9.748800 3.196100
9.770700 2.977200
9.792600 3.223100
9.814400 2.839700
9.836300 2.704900
9.858200 2.554900
9.880100 2.421500
9.901900 2.323800
9.923800 2.302000
9.945700 2.790500
9.967600 2.212300
9.989400 2.022400
10.011300 1.844200
10.033200 1.712900
10.055000 1.599300
10.076900 1.783600
10.098800 1.724400
10.120700 1.618000
10.142500 1.533400
10.164400 1.437800
10.186300 1.270900
10.208200 1.005400
10.230000 0.936000
10.251900 0.877000
10.273800 0.825200
10.295700 0.780400
10.317500 0.742900
10.339400 0.702600
10.361300 0.649300
10.383200 0.593900
10.405000 0.538200
10.426900 0.482100
10.448800 0.423200
10.470700 0.369100
10.492500 0.358700
10.514400 0.393900
10.536300 0.384400
10.558200 0.369500
10.580000 0.356100
10.601900 0.345600
10.623800 0.244200
10.645700 0.246100
10.667500 0.248900
10.689400 0.252600
10.711300 0.257200
10.733100 0.293500
10.755000 0.308600
10.776900 0.325500
10.798800 0.344200
10.820600 0.364700
10.842500 0.387100
10.864400 0.432400
10.886300 0.487400
10.908100 0.550400
10.930000 0.620800
10.951900 0.692700
10.973800 0.767800
10.995600 0.836700
11.017500 0.907000
11.039400 0.986200
11.061300 1.096700
11.083100 1.206900
11.105000 1.275100
11.126900 1.419200
11.148800 1.496800
11.170600 1.558900
11.192500 1.616600
11.214400 1.669300
11.236300 1.717000
11.258100 1.775400
11.280000 1.835100
11.301900 1.867900
11.323800 1.916900
11.345600 1.904400
11.367500 1.840300
11.389400 1.778200
11.411200 1.703000
11.433100 1.613700
11.455000 1.612900
11.476900 1.503400
11.498700 1.451300
11.520600 1.419800
11.542500 1.405400
11.564400 1.390000
11.586200 1.369400
11.608100 1.343600
11.630000 1.312000
11.651900 1.295200
11.673700 1.284800
11.695600 1.287800
11.717500 1.288400
11.739400 1.286900
11.761200 1.283200
11.783100 1.140300
11.805000 1.079700
11.826900 1.033100
11.848700 0.999300
11.870600 0.965800
11.892500 0.932900
11.914400 0.915700
11.936200 0.902500
11.958100 0.888300
11.980000 0.871900
12.001900 0.853700
12.023700 0.839400
12.045600 0.830600
12.067500 0.823400
12.089400 0.821600
12.111200 0.819400
12.133100 0.817500
12.155000 0.815900
12.176800 0.814800
12.198700 0.813400
12.220600 0.813700
12.242500 0.814700
12.264300 0.816600
12.286200 0.819300
12.308100 0.824300
12.330000 0.832100
12.351800 0.841900
12.373700 0.853800
12.395600 0.870600
12.417500 0.892400
12.439300 0.915600
12.461200 0.940400
12.483100 0.967000
12.505000 0.987600
12.526800 1.006200
12.548700 1.025600
12.570600 1.046100
12.592500 1.065700
12.614300 1.081700
12.636200 1.085000
12.658100 1.088700
12.680000 1.138300
12.701800 1.145100
12.723700 1.160200
12.745600 1.183700
12.767500 1.941000
12.789300 1.379000
12.811200 1.395500
12.833100 1.420600
12.854900 1.467900
12.876800 1.542300
12.898700 1.763600
12.920600 1.861000
12.942400 1.943300
12.964300 2.025800
12.986200 2.130800
13.008100 2.139000
13.029900 2.134400
13.051800 2.116700
13.073700 2.092100
13.095600 2.077600
13.117400 2.158000
13.139300 2.305000
13.161200 2.156500
13.183100 2.153600
13.204900 2.219100
13.226800 2.014400
13.248700 1.829900
13.270600 1.663900
13.292400 1.523700
13.314300 1.469600
13.336200 1.425500
13.358100 1.442700
13.379900 1.523600
13.401800 4.296300
13.423700 2.330000
13.445600 2.206000
13.467400 1.919200
13.489300 1.485600
13.511200 1.390600
13.533000 1.321100
13.554900 1.278500
13.576800 1.263100
13.598700 1.267400
13.620500 1.262900
13.642400 1.269000
13.664300 1.270300
13.686200 1.276500
13.708000 1.295700
13.729900 1.298600
13.751800 1.298500
13.773700 1.332900
13.795500 1.344700
13.817400 1.371600
13.839300 1.419700
13.861200 1.474900
13.883000 1.535800
13.904900 1.598900
13.926800 1.664700
13.948700 1.723300
13.970500 1.770700
13.992400 1.964800
14.014300 1.941100
14.036200 1.929700
14.058000 1.952200
14.079900 2.000700
14.101800 2.175500
14.123700 2.274900
14.145500 2.929300
14.167400 2.432600
14.189300 2.441000
14.211200 2.473000
14.233000 3.079500
14.254900 3.269300
14.276800 3.081800
14.298600 3.099100
14.320500 3.034500
14.342400 2.961000
14.364300 2.936800
14.386100 2.912800
14.408000 2.885600
14.429900 2.867300
14.451800 2.846400
14.473600 2.854200
14.495500 2.852500
14.517400 2.884200
14.539300 2.816700
14.561100 2.809400
14.583000 2.803900
14.604900 2.818200
14.626800 2.858200
14.648600 2.911500
14.670500 2.971300
14.692400 2.953600
14.714300 2.939800
14.736100 2.955600
14.758000 2.868900
14.779900 2.741400
14.801800 2.671500
14.823600 2.715000
14.845500 2.572000
14.867400 2.477300
14.889300 2.442300
14.911100 2.417200
14.933000 2.405100
14.954900 2.452900
14.976700 2.361900
14.998600 2.380500
15.020500 2.539400
15.042400 2.502500
15.064200 2.443000
15.086100 2.453000
15.108000 2.486000
15.129900 2.552500
15.151700 2.599200
15.173600 2.639800
15.195500 2.652400
15.217400 2.672800
15.239200 2.598300
15.261100 2.622400
15.283000 2.640400
15.304900 2.651200
15.326700 2.667200
15.348600 2.676800
15.370500 2.635500
15.392400 2.611400
15.414200 2.619200
15.436100 2.631700
15.458000 2.655900
15.479900 2.693800
15.501700 2.779800
15.523600 2.911800
15.545500 3.032800
15.567400 3.224100
15.589200 3.554300
15.611100 3.276300
15.633000 3.194100
15.654800 3.106600
15.676700 3.068400
15.698600 2.982100
15.720500 2.879100
15.742300 2.746900
15.764200 2.622000
15.786100 2.496500
15.808000 2.452900
15.829800 2.402900
15.851700 2.379300
15.873600 2.377800
15.895500 2.380800
15.917300 2.360100
15.939200 2.344700
15.961100 2.329500
15.983000 2.332200
16.004800 2.346100
16.026700 2.370500
16.048600 2.396300
16.070500 2.409000
16.092300 2.408700
16.114200 2.403300
16.136100 2.398200
16.158000 2.393800
16.179800 2.384200
16.201700 2.375600
16.223600 2.639100
16.245500 2.655700
16.267300 2.674800
16.289200 2.782500
16.311100 2.984400
16.332900 3.141200
16.354800 3.232900
16.376700 3.278200
16.398600 3.322200
16.420400 3.285700
16.442300 3.303600
16.464200 3.262100
16.486100 3.168000
16.507900 2.912000
16.529800 2.793800
16.551700 2.753100
16.573600 2.751500
16.595400 2.914800
16.617300 2.846400
16.639200 2.764500
16.661100 2.679300
16.682900 2.593800
16.704800 2.490600
16.726700 2.374400
16.748600 2.302200
16.770400 2.258900
16.792300 2.222500
16.814200 2.209200
16.836100 2.222500
16.857900 2.208500
16.879800 2.213700
16.901700 2.223200
16.923600 2.234800
16.945400 2.244800
16.967300 2.255600
16.989200 2.270100
17.011100 2.275500
17.032900 2.317700
17.054800 2.426600
17.076700 2.467000
17.098500 2.473200
17.120400 2.499700
17.142300 2.518600
17.164200 2.549500
17.186000 2.528000
17.207900 2.534900
17.229800 2.519100
17.251700 2.528600
17.273500 2.555300
17.295400 2.685600
17.317300 2.792100
17.339200 2.639500
17.361000 2.542400
17.382900 2.573200
17.404800 2.508200
17.426700 2.540400
17.448500 2.588900
17.470400 2.670300
17.492300 2.780900
17.514200 2.897200
17.536000 2.969700
17.557900 3.009900
17.579800 3.027800
17.601700 3.024500
17.623500 2.998000
17.645400 2.991700
17.667300 2.962700
17.689200 2.725100
17.711000 2.630800
17.732900 2.630600
17.754800 2.645000
17.776600 2.677500
17.798500 2.625900
17.820400 2.581300
17.842300 2.538800
17.864100 2.549900
17.886000 2.603200
17.907900 2.678700
17.929800 2.709300
17.951600 2.735200
17.973500 2.761000
17.995400 2.794800
18.017300 2.846900
18.039100 2.977100
18.061000 3.087400
18.082900 3.209700
18.104800 3.338300
18.126600 3.413100
18.148500 3.401200
18.170400 3.341100
18.192300 3.291600
18.214100 3.255700
18.236000 3.360600
18.257900 3.337000
18.279800 3.453000
18.301600 3.863500
18.323500 3.560400
18.345400 3.565600
18.367300 3.527000
18.389100 3.462500
18.411000 3.418400
18.432900 3.376000
18.454700 3.303300
18.476600 3.247300
18.498500 3.255000
18.520400 3.240200
18.542200 3.223000
18.564100 3.178300
18.586000 3.144000
18.607900 3.117600
18.629700 3.094000
18.651600 3.069200
18.673500 3.055800
18.695400 3.060400
18.717200 3.072300
18.739100 3.087500
18.761000 3.106300
18.782900 3.125500
18.804700 3.127300
18.826600 3.107900
18.848500 3.094600
18.870400 3.084900
18.892200 3.079700
18.914100 3.078400
18.936000 3.079500
18.957900 3.379000
18.979700 3.261400
19.001600 3.164900
19.023500 3.172100
19.045400 3.191100
19.067200 3.152000
19.089100 3.149000
19.111000 3.127600
19.132900 3.126800
19.154700 3.149200
19.176600 3.173000
19.198500 3.151800
19.220300 3.144800
19.242200 3.128700
19.264100 3.110600
19.286000 3.099800
19.307800 2.986000
19.329700 2.966300
19.351600 2.942100
19.373500 2.944200
19.395300 2.941900
19.417200 2.945800
19.439100 2.947500
19.461000 2.951000
19.482800 2.976300
19.504700 3.022000
19.526600 3.070400
19.548500 3.129700
19.570300 3.218300
19.592200 3.060000
19.614100 3.039800
19.636000 3.013600
19.657800 2.997700
19.679700 3.023100
19.701600 3.047600
19.723500 3.028300
19.745300 3.020600
19.767200 3.153800
19.789100 3.150000
19.811000 3.148900
19.832800 3.153400
19.854700 3.154800
19.876600 3.162900
19.898400 3.181900
19.920300 3.233900
19.942200 3.226600
19.964100 3.213200
19.985900 3.207300
20.007800 3.225800
20.029700 3.268400
20.051600 3.352800
20.073400 3.346200
20.095300 3.323000
20.117200 3.339400
20.139100 3.377900
20.160900 3.393600
20.182800 3.399800
20.204700 3.422600
20.226600 3.446600
20.248400 3.151100
20.270300 3.094600
20.292200 3.050900
20.314100 3.034100
20.335900 3.022600
20.357800 3.002200
20.379700 2.971000
20.401600 2.964100
20.423400 2.948400
20.445300 2.935700
20.467200 2.931000
20.489100 2.936300
20.510900 2.955100
20.532800 2.981300
20.554700 3.043700
20.576500 3.873700
20.598400 3.217100
20.620300 3.162600
20.642200 3.122900
20.664000 3.176600
20.685900 3.197400
20.707800 3.185200
20.729700 3.178400
20.751500 3.165100
20.773400 3.197500
20.795300 3.211500
20.817200 3.210500
20.839000 3.221700
20.860900 3.143200
20.882800 3.083800
20.904700 3.036900
20.926500 3.162300
20.948400 3.055000
20.970300 2.991800
20.992200 2.999600
21.014000 3.074200
21.035900 3.167200
21.057800 3.280100
21.079700 3.362900
21.101500 3.267800
21.123400 3.539600
21.145300 3.187600
21.167200 3.170900
21.189000 3.055300
21.210900 2.959200
21.232800 3.038000
21.254600 2.857000
21.276500 2.927200
21.298400 3.018100
21.320300 3.129000
21.342100 3.143500
21.364000 3.169100
21.385900 3.110300
21.407800 3.006300
21.429600 2.906300
21.451500 2.847500
21.473400 3.294100
21.495300 2.992600
21.517100 2.717100
21.539000 2.699000
21.560900 2.691000
21.582800 2.671000
21.604600 2.644700
21.626500 2.571300
21.648400 2.465000
21.670300 2.361800
21.692100 2.262500
21.714000 2.213900
21.735900 2.196600
21.757800 2.190300
21.779600 2.187700
21.801500 2.189800
21.823400 2.190200
21.845300 2.193700
21.867100 2.186900
21.889000 2.194100
21.910900 2.217400
21.932800 2.221100
21.954600 2.224300
21.976500 2.225500
21.998400 2.221100
22.020200 2.213200
22.042100 2.183700
22.064000 2.168000
22.085900 2.148400
22.107700 2.098700
22.129600 2.087600
22.151500 2.074900
22.173400 2.062500
22.195200 2.058700
22.217100 2.052200
22.239000 2.044700
22.260900 2.051700
22.282700 2.057700
22.304600 2.065800
22.326500 2.073700
22.348400 2.080400
22.370200 2.089400
22.392100 2.050900
22.414000 2.062000
22.435900 2.083400
22.457700 2.105100
22.479600 2.127100
22.501500 2.149400
22.523400 2.169400
22.545200 2.189900
22.567100 2.208900
22.589000 2.226100
22.610900 2.241500
22.632700 2.265200
22.654600 2.327200
22.676500 2.378900
22.698300 2.422900
22.720200 2.463500
22.742100 2.503800
22.764000 2.543300
22.785800 2.650500
22.807700 2.944400
22.829600 3.031800
22.851500 3.243400
22.873300 3.260300
22.895200 3.397500
22.917100 3.315100
22.939000 3.249100
22.960800 3.191400
22.982700 3.274100
23.004600 3.276500
23.026500 3.240900
23.048300 2.973800
23.070200 2.749000
23.092100 2.638300
23.114000 2.570800
23.135800 2.623600
23.157700 2.674700
23.179600 2.669000
23.201500 2.631200
23.223300 2.590500
23.245200 2.555800
23.267100 2.522700
23.289000 2.491700
23.310800 2.438600
23.332700 2.379600
23.354600 2.328400
23.376400 2.365400
23.398300 2.437400
23.420200 2.137100
23.442100 2.109500
23.463900 2.103600
23.485800 2.052700
23.507700 1.815900
23.529600 1.901100
23.551400 2.029000
23.573300 2.213700
23.595200 2.496200
23.617100 2.293900
23.638900 2.203600
23.660800 2.212500
23.682700 2.218500
23.704600 2.232500
23.726400 2.327400
23.748300 2.348400
23.770200 2.382800
23.792100 2.531100
23.813900 2.606400
23.835800 2.609500
23.857700 2.616900
23.879600 2.665100
23.901400 2.685600
23.923300 2.701300
23.945200 2.718800
23.967100 2.732400
23.988900 2.742100
24.010800 2.882600
24.032700 3.001600
24.054600 3.199500
24.076400 3.435800
24.098300 3.658600
24.120200 3.411500
24.142000 3.241300
24.163900 3.088100
24.185800 3.102700
24.207700 3.144200
24.229500 3.188500
24.251400 3.243100
24.273300 3.290300
24.295200 3.324100
24.317000 3.358100
24.338900 3.430600
24.360800 3.503400
24.382700 3.581900
24.404500 3.753500
24.426400 3.735600
24.448300 3.408800
24.470200 3.257100
24.492000 3.123400
24.513900 3.035700
24.535800 3.006400
24.557700 2.999300
24.579500 3.148000
24.601400 3.174900
24.623300 3.345200
24.645200 3.656700
24.667000 4.041300
24.688900 4.588100
24.710800 4.654200
24.732700 4.245500
24.754500 4.172300
24.776400 4.101000
24.798300 4.031900
24.820100 3.341000
24.842000 3.215400
24.863900 3.200400
24.885800 3.168100
24.907600 3.601500
24.929500 3.227700
24.951400 3.231600
24.973300 3.263100
24.995100 3.371300
25.017000 3.483400
25.038900 3.388600
25.060800 3.290700
25.082600 3.176500
25.104500 3.098200
25.126400 3.024500
25.148300 3.068100
25.170100 3.063800
25.192000 3.064800
25.213900 3.123100
25.235800 3.202300
25.257600 3.197400
25.279500 3.214100
25.301400 3.241700
25.323300 3.279700
25.345100 3.298500
25.367000 3.307600
25.388900 3.333200
25.410800 3.151100
25.432600 3.191200
25.454500 3.221000
25.476400 3.243100
25.498200 3.264400
25.520100 3.333700
25.542000 3.451100
25.563900 3.209500
25.585700 3.287000
25.607600 3.340900
25.629500 3.278100
25.651400 3.231900
25.673200 3.213000
25.695100 3.159600
25.717000 3.127200
25.738900 3.133600
25.760700 3.406400
25.782600 3.290900
25.804500 3.629300
25.826400 3.810300
25.848200 3.904700
25.870100 3.926000
25.892000 3.987800
25.913900 4.031800
25.935700 4.040900
25.957600 4.027400
25.979500 3.906000
26.001400 3.824000
26.023200 3.731900
26.045100 3.703800
26.067000 3.705000
26.088900 3.716200
26.110700 4.342100
26.132600 3.951100
26.154500 4.041200
26.176300 3.966600
26.198200 3.836800
26.220100 3.725800
26.242000 3.336200
26.263800 3.234000
26.285700 3.138200
26.307600 3.102300
26.329500 3.068800
26.351300 3.077700
26.373200 3.164700
26.395100 3.261800
26.417000 3.547200
26.438800 3.948000
26.460700 4.437100
26.482600 5.072000
26.504500 5.093600
26.526300 4.910300
26.548200 4.762700
26.570100 4.701700
26.592000 5.432400
26.613800 5.276700
26.635700 5.266400
26.657600 4.707800
26.679500 4.548300
26.701300 4.350000
26.723200 4.248500
26.745100 4.139100
26.767000 4.022200
26.788800 3.764800
26.810700 3.750800
26.832600 3.771400
26.854500 3.949400
26.876300 4.267900
26.898200 4.603100
26.920100 4.815900
26.941900 5.151000
26.963800 5.319300
26.985700 5.400400
27.007600 5.492300
27.029400 5.390900
27.051300 5.208300
27.073200 4.504500
27.095100 4.071000
27.116900 3.934700
27.138800 3.779100
27.160700 3.749700
27.182600 3.816900
27.204400 4.021400
27.226300 4.265000
27.248200 4.527100
27.270100 4.449800
27.291900 4.420200
27.313800 4.555000
27.335700 4.410300
27.357600 4.318200
27.379400 4.250800
27.401300 4.197800
27.423200 4.293400
27.445100 4.224500
27.466900 4.161200
27.488800 4.102400
27.510700 4.023600
27.532600 3.886800
27.554400 3.781100
27.576300 3.692100
27.598200 3.688200
27.620000 3.713200
27.641900 3.743800
27.663800 3.781500
27.685700 3.906900
27.707500 4.074400
27.729400 4.166100
27.751300 4.011700
27.773200 3.932800
27.795000 3.804700
27.816900 3.809300
27.838800 3.838400
27.860700 3.814700
27.882500 3.826600
27.904400 3.855600
27.926300 3.826500
27.948200 3.841700
27.970000 3.767600
27.991900 3.745800
28.013800 3.683500
28.035700 3.652800
28.057500 3.595300
28.079400 3.535300
28.101300 4.085400
28.123200 3.506300
28.145000 3.453800
28.166900 3.442200
28.188800 3.441400
28.210700 3.458200
28.232500 3.270700
28.254400 3.275200
28.276300 3.293400
28.298100 3.319900
28.320000 3.371600
28.341900 3.383300
28.363800 3.476100
28.385600 3.621300
28.407500 3.717100
28.429400 3.838300
28.451300 3.968800
28.473100 4.123000
28.495000 4.133600
28.516900 4.080400
28.538800 4.125600
28.560600 3.982100
28.582500 3.900400
28.604400 3.828600
28.626300 3.766800
28.648100 3.638600
28.670000 3.606800
28.691900 3.426400
28.713800 3.240700
28.735600 3.176800
28.757500 3.424500
28.779400 3.204200
28.801300 3.087000
28.823100 3.110900
28.845000 3.172900
28.866900 3.306500
28.888800 3.486400
28.910600 3.716700
28.932500 4.024300
28.954400 4.131300
28.976300 4.011300
28.998100 3.705700
29.020000 3.375600
29.041900 3.224300
29.063700 3.143300
29.085600 3.102900
29.107500 3.068500
29.129400 3.070900
29.151200 3.091600
29.173100 2.926300
29.195000 2.873700
29.216900 2.903600
29.238700 2.956700
29.260600 2.944300
29.282500 3.030500
29.304400 3.234400
29.326200 3.194500
29.348100 2.771300
29.370000 2.805000
29.391900 2.869800
29.413700 3.181700
29.435600 3.037600
29.457500 3.066600
29.479400 3.093800
29.501200 3.322800
29.523100 3.450000
29.545000 3.576400
29.566900 3.676900
29.588700 3.746100
29.610600 3.711300
29.632500 3.583600
29.654400 3.509300
29.676200 3.491200
29.698100 3.546000
29.720000 3.682600
29.741800 3.710000
29.763700 3.701100
29.785600 3.627000
29.807500 3.578500
29.829300 3.485900
29.851200 3.252400
29.873100 3.262200
29.895000 3.279900
29.916800 3.246400
29.938700 3.189000
29.960600 3.164400
29.982500 3.366300
30.004300 3.421400
30.026200 3.524300
30.048100 3.270900
30.070000 3.139900
30.091800 3.221100
30.113700 3.203800
30.135600 3.168500
30.157500 3.169100
30.179300 3.193200
30.201200 3.218600
30.223100 3.174100
30.245000 2.795400
30.266800 2.723900
30.288700 2.605400
30.310600 2.481800
30.332500 2.364700
30.354300 2.261300
30.376200 2.145300
30.398100 2.012200
30.419900 1.924300
30.441800 1.838300
30.463700 1.709900
30.485600 1.640900
30.507400 1.644900
30.529300 1.317900
30.551200 1.225400
30.573100 1.140000
30.594900 1.066100
30.616800 1.007800
30.638700 0.947400
30.660600 0.905100
30.682400 0.871300
30.704300 0.858500
30.726200 1.031900
30.748100 1.113900
30.769900 1.157300
30.791800 1.123100
30.813700 1.025400
30.835600 0.883800
30.857400 0.798200
30.879300 0.711300
30.901200 0.624000
30.923100 0.541300
30.944900 0.486300
30.966800 0.452700
30.988700 0.449500
31.010600 0.425500
31.032400 0.403800
31.054300 0.383800
31.076200 0.365400
31.098000 0.348600
31.119900 0.333200
31.141800 0.319400
31.163700 0.307700
31.185500 0.297900
31.207400 0.305500
31.229300 0.293700
31.251200 0.284400
31.273000 0.278800
31.294900 0.274000
31.316800 0.265000
31.338700 0.252700
31.360500 0.240400
31.382400 0.228300
31.404300 0.216400
31.426200 0.205700
31.448000 0.200900
31.469900 0.194700
31.491800 0.186200
31.513700 0.175400
31.535500 0.162200
31.557400 0.146700
31.579300 0.132000
31.601200 0.135600
31.623000 0.136100
31.644900 0.132900
31.666800 0.103900
31.688700 0.076100
31.710500 0.051600
31.732400 0.030400
31.754300 0.013900
31.776200 0.003800
31.798000 0.000000
31.819900 0.000000
31.841800 0.000000
31.863600 0.000000
31.885500 0.000000
31.907400 0.000000
31.929300 0.000000
31.951100 0.000000
31.973000 0.000000
31.994900 0.000000
32.016800 0.000000
32.038600 0.000000
32.060500 0.000000
32.082400 0.000000
32.104300 0.000000
32.126100 0.000000
32.148000 0.000000
32.169900 0.000000
32.191800 0.000000
32.213600 0.000000
32.235500 0.000000
32.257400 0.000000
32.279300 0.000000
32.301100 0.000000
32.323000 0.000000
32.344900 0.000000
32.366800 0.000000
32.388600 0.000000
32.410500 0.000000
32.432400 0.000000
32.454300 0.000000
32.476100 0.000000
32.498000 0.000000
32.519900 0.000000
32.541700 0.000000
32.563600 0.000000
32.585500 0.000000
32.607400 0.000000
32.629200 0.000000
32.651100 0.000000
32.673000 0.000000
32.694900 0.000000
32.716700 0.000000
32.738600 0.000000
32.760500 0.000000
32.782400 0.000000
32.804200 0.000000
32.826100 0.000000
32.848000 0.000000
32.869900 0.000000
32.891700 0.000000
32.913600 0.000000
32.935500 0.000000
32.957400 0.000000
32.979200 0.000000
33.001100 0.000000
33.023000 0.000000
33.044900 0.000000
33.066700 0.000000
33.088600 0.000000
33.110500 0.000000
33.132400 0.000000
33.154200 0.000000
33.176100 0.000000
33.198000 0.000000
33.219800 0.000000
33.241700 0.000000
33.263600 0.000000
33.285500 0.000000
33.307300 0.000000
33.329200 0.000000
33.351100 0.000000
33.373000 0.000000
33.394800 0.000000
33.416700 0.000000
33.438600 0.000000
33.460500 0.000000
33.482300 0.000000
33.504200 0.000000
33.526100 0.000000
33.548000 0.000000
33.569800 0.000000
33.591700 0.000000
33.613600 0.000000
33.635500 0.000000
33.657300 0.000000
33.679200 0.000000
33.701100 0.000000
33.723000 0.000000
33.744800 0.000000
33.766700 0.000000
33.788600 0.000000
e
