set title 'mp-105 - Density of States'
set xlabel 'Energy (eV)'
set ylabel 'DOS (states/eV)'
set grid
set xrange [-10:10]
set yrange [0:4.645]
set xzeroaxis lt -1
set terminal png size 800,600
set output 'mp-105_dos_gnuplot.png'
plot '-' using 1:2 with lines title 'DOS'
-9.396600 0.000000
-9.372400 0.000000
-9.348300 0.000000
-9.324100 0.000000
-9.299900 0.000000
-9.275800 0.000000
-9.251600 0.000000
-9.227400 0.000000
-9.203300 0.000000
-9.179100 0.000000
-9.154900 0.000000
-9.130800 0.000000
-9.106600 0.000000
-9.082500 0.000000
-9.058300 0.000000
-9.034100 0.000000
-9.010000 0.000000
-8.985800 0.000000
-8.961600 0.000000
-8.937500 0.000000
-8.913300 0.000000
-8.889100 0.000000
-8.865000 0.000000
-8.840800 0.000000
-8.816600 0.000000
-8.792500 0.000000
-8.768300 0.000000
-8.744200 0.000000
-8.720000 0.000000
-8.695800 0.000000
-8.671700 0.000000
-8.647500 0.000000
-8.623300 0.000000
-8.599200 0.000000
-8.575000 0.000000
-8.550800 0.000000
-8.526700 0.000000
-8.502500 0.000000
-8.478400 0.000000
-8.454200 0.000000
-8.430000 0.000000
-8.405900 0.000000
-8.381700 0.000000
-8.357500 0.000000
-8.333400 0.000000
-8.309200 0.000000
-8.285000 0.000000
-8.260900 0.000000
-8.236700 0.000000
-8.212600 0.000000
-8.188400 0.000000
-8.164200 0.000000
-8.140100 0.000000
-8.115900 0.000000
-8.091700 0.000000
-8.067600 0.000000
-8.043400 0.000000
-8.019200 0.000000
-7.995100 0.000000
-7.970900 0.000000
-7.946700 0.000000
-7.922600 0.000000
-7.898400 0.000000
-7.874300 0.000000
-7.850100 0.000000
-7.825900 0.000000
-7.801800 0.000000
-7.777600 0.000000
-7.753400 0.000000
-7.729300 0.000000
-7.705100 0.000000
-7.680900 0.000000
-7.656800 0.000000
-7.632600 0.000000
-7.608500 0.000000
-7.584300 0.000000
-7.560100 0.000000
-7.536000 0.000000
-7.511800 0.000000
-7.487600 0.000000
-7.463500 0.000000
-7.439300 0.000000
-7.415100 0.000000
-7.391000 0.000000
-7.366800 0.000000
-7.342600 0.000000
-7.318500 0.000000
-7.294300 0.000000
-7.270200 0.000000
-7.246000 0.000000
-7.221800 0.000000
-7.197700 0.000300
-7.173500 0.046400
-7.149300 0.170300
-7.125200 0.307600
-7.101000 0.369200
-7.076800 0.381600
-7.052700 0.415900
-7.028500 0.472900
-7.004400 0.535200
-6.980200 0.593800
-6.956000 0.702100
-6.931900 0.793200
-6.907700 0.780800
-6.883500 0.750500
-6.859400 0.757200
-6.835200 0.775200
-6.811000 0.790600
-6.786900 0.801700
-6.762700 0.801200
-6.738600 0.793500
-6.714400 0.793200
-6.690200 0.832300
-6.666100 0.951200
-6.641900 1.030100
-6.617700 1.024100
-6.593600 1.033400
-6.569400 1.070100
-6.545200 1.104100
-6.521100 1.135500
-6.496900 1.159900
-6.472700 1.177800
-6.448600 1.202500
-6.424400 1.235300
-6.400300 1.266100
-6.376100 1.295500
-6.351900 1.325700
-6.327800 1.356600
-6.303600 1.385500
-6.279400 1.412500
-6.255300 1.440800
-6.231100 1.468100
-6.206900 1.494500
-6.182800 1.522900
-6.158600 1.552300
-6.134500 1.583200
-6.110300 1.615300
-6.086100 1.648400
-6.062000 1.732600
-6.037800 1.896600
-6.013600 1.948600
-5.989500 1.920200
-5.965300 1.950700
-5.941100 2.036400
-5.917000 2.009700
-5.892800 1.945900
-5.868600 1.969500
-5.844500 1.975700
-5.820300 2.116600
-5.796200 2.176600
-5.772000 2.152200
-5.747800 2.167100
-5.723700 2.220900
-5.699500 2.312800
-5.675300 2.370800
-5.651200 2.326700
-5.627000 2.254600
-5.602800 2.221000
-5.578700 2.198100
-5.554500 2.206500
-5.530400 2.254100
-5.506200 2.342500
-5.482000 2.653500
-5.457900 2.833700
-5.433700 2.815400
-5.409500 2.875900
-5.385400 2.855100
-5.361200 2.881200
-5.337000 2.996500
-5.312900 3.188400
-5.288700 3.187000
-5.264600 3.172900
-5.240400 3.023300
-5.216200 2.922500
-5.192100 2.925700
-5.167900 2.929600
-5.143700 2.921300
-5.119600 2.918500
-5.095400 2.881800
-5.071200 2.888100
-5.047100 2.885800
-5.022900 2.873700
-4.998700 2.978500
-4.974600 2.960000
-4.950400 2.873100
-4.926300 2.869100
-4.902100 2.854100
-4.877900 2.838300
-4.853800 2.833600
-4.829600 2.837400
-4.805400 2.871900
-4.781300 2.932100
-4.757100 2.838200
-4.732900 2.676900
-4.708800 2.648700
-4.684600 2.623500
-4.660500 2.598000
-4.636300 2.567500
-4.612100 2.534300
-4.588000 2.496600
-4.563800 2.483000
-4.539600 2.475200
-4.515500 2.459700
-4.491300 2.444400
-4.467100 2.443100
-4.443000 2.435100
-4.418800 2.426600
-4.394600 2.414500
-4.370500 2.403900
-4.346300 2.508700
-4.322200 2.396500
-4.298000 2.446600
-4.273800 2.471000
-4.249700 2.305000
-4.225500 2.251400
-4.201300 2.249600
-4.177200 2.243500
-4.153000 2.230200
-4.128800 2.237700
-4.104700 2.202300
-4.080500 2.157200
-4.056400 2.116300
-4.032200 2.082500
-4.008000 2.100500
-3.983900 2.071100
-3.959700 1.943800
-3.935500 1.924000
-3.911400 1.922700
-3.887200 1.916700
-3.863000 1.928700
-3.838900 1.941500
-3.814700 1.954200
-3.790600 1.966200
-3.766400 2.101500
-3.742200 1.897300
-3.718100 1.844200
-3.693900 1.706000
-3.669700 1.646500
-3.645600 1.591500
-3.621400 1.632400
-3.597200 1.587500
-3.573100 1.724900
-3.548900 1.384300
-3.524700 1.338400
-3.500600 1.292800
-3.476400 1.248100
-3.452300 1.205900
-3.428100 1.171700
-3.403900 1.133500
-3.379800 1.096200
-3.355600 1.060100
-3.331400 1.027500
-3.307300 0.995400
-3.283100 0.969200
-3.258900 0.942300
-3.234800 0.916300
-3.210600 0.881500
-3.186500 0.848100
-3.162300 0.816000
-3.138100 0.785100
-3.114000 0.796100
-3.089800 0.755200
-3.065600 0.715900
-3.041500 0.558400
-3.017300 0.550300
-2.993100 0.542600
-2.969000 0.539400
-2.944800 0.532500
-2.920700 0.526500
-2.896500 0.520300
-2.872300 0.514100
-2.848200 0.507700
-2.824000 0.501100
-2.799800 0.493600
-2.775700 0.489300
-2.751500 0.485800
-2.727300 0.479400
-2.703200 0.482500
-2.679000 0.473300
-2.654800 0.463400
-2.630700 0.453000
-2.606500 0.442000
-2.582400 0.430600
-2.558200 0.480300
-2.534000 0.459500
-2.509900 0.436800
-2.485700 0.327300
-2.461500 0.311700
-2.437400 0.298100
-2.413200 0.286600
-2.389000 0.275300
-2.364900 0.264500
-2.340700 0.252700
-2.316600 0.239700
-2.292400 0.226900
-2.268200 0.214000
-2.244100 0.200600
-2.219900 0.186800
-2.195700 0.172600
-2.171600 0.163400
-2.147400 0.155500
-2.123200 0.146600
-2.099100 0.136700
-2.074900 0.115000
-2.050700 0.093900
-2.026600 0.068800
-2.002400 0.046200
-1.978300 0.026300
-1.954100 0.009200
-1.929900 0.000000
-1.905800 0.000000
-1.881600 0.000000
-1.857400 0.000000
-1.833300 0.000000
-1.809100 0.000000
-1.784900 0.000000
-1.760800 0.000000
-1.736600 0.000000
-1.712500 0.000000
-1.688300 0.000000
-1.664100 0.000000
-1.640000 0.000000
-1.615800 0.000000
-1.591600 0.000000
-1.567500 0.000000
-1.543300 0.000000
-1.519100 0.000000
-1.495000 0.000000
-1.470800 0.000000
-1.446700 0.000000
-1.422500 0.000000
-1.398300 0.000000
-1.374200 0.000000
-1.350000 0.000000
-1.325800 0.000000
-1.301700 0.000000
-1.277500 0.000000
-1.253300 0.000000
-1.229200 0.000000
-1.205000 0.000000
-1.180800 0.000000
-1.156700 0.000000
-1.132500 0.000000
-1.108400 0.000000
-1.084200 0.000000
-1.060000 0.000000
-1.035900 0.000000
-1.011700 0.000000
-0.987500 0.000000
-0.963400 0.000000
-0.939200 0.000000
-0.915000 0.000000
-0.890900 0.000000
-0.866700 0.000000
-0.842600 0.000000
-0.818400 0.000000
-0.794200 0.000000
-0.770100 0.000000
-0.745900 0.000000
-0.721700 0.000000
-0.697600 0.000000
-0.673400 0.000000
-0.649200 0.000000
-0.625100 0.000000
-0.600900 0.000000
-0.576700 0.000000
-0.552600 0.000000
-0.528400 0.000000
-0.504300 0.000000
-0.480100 0.000000
-0.455900 0.000000
-0.431800 0.000000
-0.407600 0.000000
-0.383400 0.000000
-0.359300 0.000000
-0.335100 0.000000
-0.310900 0.000000
-0.286800 0.000000
-0.262600 0.000000
-0.238500 0.000000
-0.214300 0.000000
-0.190100 0.000000
-0.166000 0.000000
-0.141800 0.000000
-0.117600 0.000000
-0.093500 0.000000
-0.069300 0.000000
-0.045100 0.000000
-0.021000 0.000000
0.003200 0.000000
0.027300 0.000000
0.051500 0.000000
0.075700 0.000000
0.099800 0.000000
0.124000 0.000000
0.148200 0.000000
0.172300 0.000000
0.196500 0.000000
0.220700 0.000000
0.244800 0.000000
0.269000 0.000000
0.293200 0.000000
0.317300 0.000000
0.341500 0.000000
0.365600 0.000000
0.389800 0.000000
0.414000 0.000000
0.438100 0.000000
0.462300 0.000000
0.486500 0.000000
0.510600 0.055100
0.534800 0.250200
0.559000 0.451500
0.583100 0.491300
0.607300 0.496600
0.631400 0.561300
0.655600 0.645500
0.679800 0.729800
0.703900 0.802900
0.728100 0.960800
0.752300 0.989900
0.776400 0.952100
0.800600 0.989700
0.824800 1.039800
0.848900 1.153000
0.873100 1.254200
0.897300 1.289900
0.921400 1.340500
0.945600 1.448000
0.969700 1.436500
0.993900 1.507200
1.018100 1.535600
1.042200 1.459800
1.066400 1.472700
1.090600 1.491800
1.114700 1.507400
1.138900 1.520900
1.163100 1.532600
1.187200 1.560500
1.211400 1.592300
1.235500 1.690100
1.259700 1.931800
1.283900 2.379800
1.308000 2.287400
1.332200 2.022500
1.356400 2.058700
1.380500 2.093700
1.404700 2.135700
1.428900 2.176800
1.453000 2.194800
1.477200 2.169400
1.501300 2.203800
1.525500 2.247900
1.549700 2.293300
1.573800 2.344900
1.598000 2.594900
1.622200 2.653300
1.646300 2.750900
1.670500 2.782900
1.694700 2.801600
1.718800 2.877900
1.743000 2.939200
1.767200 2.993900
1.791300 3.250400
1.815500 3.419100
1.839600 3.434600
1.863800 3.372700
1.888000 3.501700
1.912100 3.393900
1.936300 3.231900
1.960500 3.179500
1.984600 3.123100
2.008800 3.119900
2.033000 3.203000
2.057100 3.591800
2.081300 3.738700
2.105400 3.948700
2.129600 3.900900
2.153800 3.895600
2.177900 3.846200
2.202100 3.858300
2.226300 3.921600
2.250400 3.928300
2.274600 4.024300
2.298800 4.043200
2.322900 4.049200
2.347100 3.807600
2.371300 3.673200
2.395400 3.573000
2.419600 3.533300
2.443700 3.507900
2.467900 3.804700
2.492100 3.477300
2.516200 3.421900
2.540400 3.477500
2.564600 3.538800
2.588700 3.540800
2.612900 3.556300
2.637100 3.637800
2.661200 3.768600
2.685400 3.689100
2.709500 3.642800
2.733700 3.554400
2.757900 3.751000
2.782000 3.780600
2.806200 3.986300
2.830400 3.554700
2.854500 3.566000
2.878700 3.597000
2.902900 3.603600
2.927000 3.611400
2.951200 3.632500
2.975300 3.660200
2.999500 3.705400
3.023700 3.694700
3.047800 3.977400
3.072000 4.222800
3.096200 4.086200
3.120300 3.995400
3.144500 3.924500
3.168700 3.882400
3.192800 3.901000
3.217000 3.787100
3.241200 3.555300
3.265300 3.491900
3.289500 3.445400
3.313600 3.427000
3.337800 3.461700
3.362000 3.522300
3.386100 3.560700
3.410300 3.574000
3.434500 3.632500
3.458600 3.805400
3.482800 3.706100
3.507000 3.686000
3.531100 3.653600
3.555300 3.624200
3.579400 3.574500
3.603600 3.479600
3.627800 3.387300
3.651900 3.357600
3.676100 3.354200
3.700300 3.388800
3.724400 3.474200
3.748600 3.445000
3.772800 3.412900
3.796900 3.389100
3.821100 3.335500
3.845300 3.200600
3.869400 3.035500
3.893600 2.850300
3.917700 2.692900
3.941900 2.585100
3.966100 2.484900
3.990200 2.374400
4.014400 2.255600
4.038600 2.154500
4.062700 2.088200
4.086900 2.049400
4.111100 2.006500
4.135200 1.974300
4.159400 1.964500
4.183500 1.974300
4.207700 1.993100
4.231900 2.014000
4.256000 2.039500
4.280200 2.076300
4.304400 2.129400
4.328500 2.185600
4.352700 2.253400
4.376900 2.328900
4.401000 2.384300
4.425200 2.439100
4.449300 2.525000
4.473500 2.708400
4.497700 2.948900
4.521800 3.097800
4.546000 3.201200
4.570200 3.219000
4.594300 3.236100
4.618500 3.258000
4.642700 3.328000
4.666800 3.415900
4.691000 3.375700
4.715200 3.367000
4.739300 3.201500
4.763500 3.065800
4.787600 3.004300
4.811800 2.995500
4.836000 2.973400
4.860100 2.953200
4.884300 2.942800
4.908500 2.947300
4.932600 2.858500
4.956800 2.832600
4.981000 2.837500
5.005100 2.825500
5.029300 2.739700
5.053400 2.650400
5.077600 2.554400
5.101800 2.499400
5.125900 2.477100
5.150100 2.439000
5.174300 2.387800
5.198400 2.321600
5.222600 2.223100
5.246800 2.155700
5.270900 2.156600
5.295100 2.100500
5.319300 2.017500
5.343400 1.871000
5.367600 1.878000
5.391700 1.889700
5.415900 1.930500
5.440100 2.000000
5.464200 2.067200
5.488400 2.158700
5.512600 2.283500
5.536700 2.333700
5.560900 2.374600
5.585100 2.406800
5.609200 2.411400
5.633400 2.433900
5.657500 2.478400
5.681700 2.514900
5.705900 2.542000
5.730000 2.549100
5.754200 2.542900
5.778400 2.539900
5.802500 2.535200
5.826700 2.542600
5.850900 2.547100
5.875000 2.535500
5.899200 2.545700
5.923300 2.639300
5.947500 2.699400
5.971700 2.685300
5.995800 2.826000
6.020000 2.840300
6.044200 2.678400
6.068300 2.640800
6.092500 2.602300
6.116700 2.495700
6.140800 2.481800
6.165000 2.507000
6.189200 2.487200
6.213300 2.440100
6.237500 2.423800
6.261600 2.411600
6.285800 2.399800
6.310000 2.389600
6.334100 2.384200
6.358300 2.380200
6.382500 2.400500
6.406600 2.401200
6.430800 2.395200
6.455000 2.380100
6.479100 2.364600
6.503300 2.363500
6.527400 2.368900
6.551600 2.393600
6.575800 2.417100
6.599900 2.532600
6.624100 2.520300
6.648300 2.459800
6.672400 2.453600
6.696600 2.442400
6.720800 2.437200
6.744900 2.387700
6.769100 2.401200
6.793300 2.409500
6.817400 2.417400
6.841600 2.428100
6.865700 2.433300
6.889900 2.481800
6.914100 2.532500
6.938200 2.461300
6.962400 2.484400
6.986600 2.493900
7.010700 2.498400
7.034900 2.506200
7.059100 2.489600
7.083200 2.476900
7.107400 2.466400
7.131500 2.457800
7.155700 2.453000
7.179900 2.455000
7.204000 2.447700
7.228200 2.594800
7.252400 2.518300
7.276500 2.518300
7.300700 2.516600
7.324900 2.503000
7.349000 2.491800
7.373200 2.469800
7.397300 2.439200
7.421500 2.398900
7.445700 2.423900
7.469800 2.484900
7.494000 2.516800
7.518200 2.542600
7.542300 2.553200
7.566500 2.582600
7.590700 2.648300
7.614800 2.714800
7.639000 2.760900
7.663200 2.789500
7.687300 2.839900
7.711500 2.853200
7.735600 2.789800
7.759800 2.759900
7.784000 2.724000
7.808100 2.694300
7.832300 2.834700
7.856500 2.789000
7.880600 2.635200
7.904800 2.652800
7.929000 2.675500
7.953100 2.680600
7.977300 2.689400
8.001400 2.730100
8.025600 2.804500
8.049800 2.871300
8.073900 2.877000
8.098100 2.914300
8.122300 2.908800
8.146400 2.901900
8.170600 2.898800
8.194800 2.902500
8.218900 2.904200
8.243100 2.901500
8.267300 2.923300
8.291400 3.039500
8.315600 2.935300
8.339700 3.051400
8.363900 2.928200
8.388100 2.905300
8.412200 2.887700
8.436400 2.888800
8.460600 2.902400
8.484700 2.970600
8.508900 3.008600
8.533100 3.017400
8.557200 3.027800
8.581400 3.028500
8.605500 3.022000
8.629700 2.994600
8.653900 2.964500
8.678000 3.025900
8.702200 3.168100
8.726400 3.228200
8.750500 3.157100
8.774700 3.156600
8.798900 3.114200
8.823000 3.090400
8.847200 3.084200
8.871300 3.041600
8.895500 2.961400
8.919700 3.009600
8.943800 2.841700
8.968000 2.679300
8.992200 2.586500
9.016300 2.524300
9.040500 2.585100
9.064700 2.535700
9.088800 2.714600
9.113000 2.186100
9.137200 2.109500
9.161300 2.135000
9.185500 2.032000
9.209600 1.961100
9.233800 1.856900
9.258000 1.946800
9.282100 1.863100
9.306300 1.727200
9.330500 1.657100
9.354600 1.584500
9.378800 1.567100
9.403000 1.606700
9.427100 1.599600
9.451300 1.603100
9.475400 1.622400
9.499600 1.996600
9.523800 1.730500
9.547900 1.567500
9.572100 1.537000
9.596300 1.498100
9.620400 1.490600
9.644600 1.554100
9.668800 1.528300
9.692900 1.526800
9.717100 1.522300
9.741300 1.526100
9.765400 1.557000
9.789600 1.599300
9.813700 1.644900
9.837900 1.710900
9.862100 1.826800
9.886200 1.902600
9.910400 1.924900
9.934600 1.901600
9.958700 1.792000
9.982900 1.670300
10.007100 1.640400
10.031200 1.576600
10.055400 1.518500
10.079500 1.466000
10.103700 1.444600
10.127900 1.398300
10.152000 1.354100
10.176200 1.354600
10.200400 1.355500
10.224500 1.362800
10.248700 1.377500
10.272900 1.395600
10.297000 1.412900
10.321200 1.438000
10.345300 1.464000
10.369500 1.490100
10.393700 1.517100
10.417800 1.551000
10.442000 1.595700
10.466200 1.668900
10.490300 1.750500
10.514500 1.820700
10.538700 1.879900
10.562800 1.940800
10.587000 1.998200
10.611200 2.046000
10.635300 2.156600
10.659500 1.937900
10.683600 1.775600
10.707800 1.774100
10.732000 1.783500
10.756100 1.735500
10.780300 1.687500
10.804500 1.637200
10.828600 1.558400
10.852800 1.531300
10.877000 1.511400
10.901100 1.501100
10.925300 1.515200
10.949400 1.533700
10.973600 1.557300
10.997800 1.566900
11.021900 1.562500
11.046100 1.553800
11.070300 1.542500
11.094400 1.528600
11.118600 1.575900
11.142800 1.634600
11.166900 1.683400
11.191100 1.720400
11.215300 1.723000
11.239400 1.738600
11.263600 1.768100
11.287700 1.810400
11.311900 1.822900
11.336100 1.833200
11.360200 1.834600
11.384400 1.827300
11.408600 1.821000
11.432700 1.818200
11.456900 1.864900
11.481100 1.986200
11.505200 1.866800
11.529400 1.888100
11.553500 1.911800
11.577700 1.937900
11.601900 1.958900
11.626000 1.983300
11.650200 1.988500
11.674400 1.994100
11.698500 1.988100
11.722700 2.000500
11.746900 2.011800
11.771000 2.020600
11.795200 2.023500
11.819300 2.044300
11.843500 1.942700
11.867700 1.861800
11.891800 1.829000
11.916000 1.827300
11.940200 1.827300
11.964300 1.831700
11.988500 1.836600
12.012700 1.841000
12.036800 1.844900
12.061000 1.849100
12.085200 1.864400
12.109300 1.877500
12.133500 1.901600
12.157600 1.929000
12.181800 1.962400
12.206000 1.990600
12.230100 2.014200
12.254300 1.990300
12.278500 1.947800
12.302600 1.902900
12.326800 1.939100
12.351000 1.930000
12.375100 1.988600
12.399300 1.938400
12.423400 1.945100
12.447600 2.146800
12.471800 2.235000
12.495900 2.148400
12.520100 2.179300
12.544300 2.212500
12.568400 2.198700
12.592600 2.165200
12.616800 2.223900
12.640900 2.239400
12.665100 2.239400
12.689300 2.241700
12.713400 2.230600
12.737600 2.211300
12.761700 2.218900
12.785900 2.213000
12.810100 2.246000
12.834200 2.298800
12.858400 2.334800
12.882600 2.371800
12.906700 2.399600
12.930900 2.428700
12.955100 2.454500
12.979200 2.469000
13.003400 2.504400
13.027500 2.544100
13.051700 2.584700
13.075900 2.624200
13.100000 2.681800
13.124200 2.737800
13.148400 2.790300
13.172500 2.867300
13.196700 2.916900
13.220900 2.953800
13.245000 3.029800
13.269200 3.094200
13.293300 3.165000
13.317500 3.234300
13.341700 3.329200
13.365800 3.413200
13.390000 3.498900
13.414200 3.513600
13.438300 3.547300
13.462500 3.585000
13.486700 3.614400
13.510800 3.633500
13.535000 3.685500
13.559200 3.755200
13.583300 3.752000
13.607500 3.743300
13.631600 3.790400
13.655800 3.815100
13.680000 3.831900
13.704100 3.838100
13.728300 3.895900
13.752500 3.895900
13.776600 4.286800
13.800800 3.791500
13.825000 3.803900
13.849100 3.832200
13.873300 3.855400
13.897400 3.846600
13.921600 3.799300
13.945800 3.801400
13.969900 3.796100
13.994100 3.787700
14.018300 3.748400
14.042400 3.722400
14.066600 3.705300
14.090800 3.699200
14.114900 3.769900
14.139100 3.810100
14.163300 3.857900
14.187400 3.885300
14.211600 3.906300
14.235700 3.913700
14.259900 3.799400
14.284100 3.766700
14.308200 3.761200
14.332400 3.761800
14.356600 3.776600
14.380700 3.795400
14.404900 3.823800
14.429100 3.854300
14.453200 3.889400
14.477400 3.845000
14.501500 3.906000
14.525700 3.973800
14.549900 4.107000
14.574000 4.217300
14.598200 4.362200
14.622400 4.454800
14.646500 4.421100
14.670700 4.460200
14.694900 4.535600
14.719000 4.532600
14.743200 4.451700
14.767300 4.359000
14.791500 4.337000
14.815700 4.315600
14.839800 4.345800
14.864000 4.404400
14.888200 4.514700
14.912300 4.606600
14.936500 4.592200
14.960700 4.579400
14.984800 4.523500
15.009000 4.517900
15.033200 4.526700
15.057300 4.562600
15.081500 4.606700
15.105600 4.742000
15.129800 4.817000
15.154000 5.099100
15.178100 5.572400
15.202300 5.614100
15.226500 5.448500
15.250600 5.282200
15.274800 5.360900
15.299000 5.333900
15.323100 5.012700
15.347300 4.905300
15.371400 4.646900
15.395600 4.496500
15.419800 4.390700
15.443900 4.226300
15.468100 4.128300
15.492300 4.089200
15.516400 4.077800
15.540600 4.008600
15.564800 4.019100
15.588900 3.852800
15.613100 4.034400
15.637300 3.716600
15.661400 3.687600
15.685600 3.598500
15.709700 3.459100
15.733900 3.588700
15.758100 3.442100
15.782200 3.133600
15.806400 3.038200
15.830600 3.009700
15.854700 2.989200
15.878900 2.909000
15.903100 2.864900
15.927200 2.800300
15.951400 2.809200
15.975500 2.841400
15.999700 2.869500
16.023900 2.918900
16.048000 3.014700
16.072200 3.063500
16.096400 3.140700
16.120500 3.265800
16.144700 3.362200
16.168900 3.457300
16.193000 3.554300
16.217200 3.702200
16.241300 3.762700
16.265500 3.855800
16.289700 3.898800
16.313800 3.986000
16.338000 4.169500
16.362200 4.175200
16.386300 4.220600
16.410500 4.304900
16.434700 4.486700
16.458800 4.373300
16.483000 4.498100
16.507200 4.648600
16.531300 4.784100
16.555500 4.964400
16.579600 5.186800
16.603800 5.277500
16.628000 5.148500
16.652100 5.006400
16.676300 4.829400
16.700500 4.728400
16.724600 4.558200
16.748800 4.545800
16.773000 4.618100
16.797100 4.995200
16.821300 4.929800
16.845400 4.905300
16.869600 4.808800
16.893800 4.723900
16.917900 4.685800
16.942100 4.701600
16.966300 4.750700
16.990400 4.811500
17.014600 4.561300
17.038800 4.310600
17.062900 4.216100
17.087100 4.140300
17.111300 4.047500
17.135400 4.059400
17.159600 3.850200
17.183700 3.999300
17.207900 3.779100
17.232100 3.770200
17.256200 3.748000
17.280400 3.765500
17.304600 3.793600
17.328700 3.801700
17.352900 3.999500
17.377100 3.990000
17.401200 4.019100
17.425400 4.026200
17.449500 4.086500
17.473700 4.118600
17.497900 4.160600
17.522000 4.220400
17.546200 4.380300
17.570400 4.313400
17.594500 4.304400
17.618700 4.275700
17.642900 4.197000
17.667000 4.191400
17.691200 4.382600
17.715300 4.232500
17.739500 4.249100
17.763700 4.293500
17.787800 4.315900
17.812000 4.454000
17.836200 4.494000
17.860300 4.526700
17.884500 4.620400
17.908700 4.660400
17.932800 4.648000
17.957000 4.669000
17.981200 4.710300
18.005300 4.774500
18.029500 4.904400
18.053600 5.096300
18.077800 5.263000
18.102000 5.153900
18.126100 5.026900
18.150300 4.859900
18.174500 4.753500
18.198600 4.697200
18.222800 4.695700
18.247000 4.625800
18.271100 4.650300
18.295300 4.689300
18.319400 4.686900
18.343600 4.719000
18.367800 4.797700
18.391900 4.851800
18.416100 4.873200
18.440300 4.901300
18.464400 4.948700
18.488600 5.026400
18.512800 5.113000
18.536900 5.043000
18.561100 4.743200
18.585300 4.687200
18.609400 4.621600
18.633600 4.563400
18.657700 4.482700
18.681900 4.421300
18.706100 4.376100
18.730200 4.393200
18.754400 4.410800
18.778600 4.416900
18.802700 4.423500
18.826900 4.414500
18.851100 4.371400
18.875200 4.221400
18.899400 4.278900
18.923500 4.327200
18.947700 4.328700
18.971900 4.312000
18.996000 4.333700
19.020200 4.390300
19.044400 4.420500
19.068500 4.439400
19.092700 4.462800
19.116900 4.490700
19.141000 4.516800
19.165200 4.553900
19.189300 4.542400
19.213500 4.510900
19.237700 4.490600
19.261800 4.539000
19.286000 4.627500
19.310200 4.566900
19.334300 4.473800
19.358500 4.435000
19.382700 4.346000
19.406800 4.241000
19.431000 4.196500
19.455200 4.148100
19.479300 4.124000
19.503500 4.122100
19.527600 4.124200
19.551800 4.185500
19.576000 4.379600
19.600100 4.409000
19.624300 4.494000
19.648500 4.566400
19.672600 4.729600
19.696800 4.770300
19.721000 4.720000
19.745100 4.770900
19.769300 4.680600
19.793400 4.708700
19.817600 4.780700
19.841800 4.993300
19.865900 5.100500
19.890100 4.973200
19.914300 5.157000
19.938400 5.265000
19.962600 5.187100
19.986800 5.099100
20.010900 4.947100
20.035100 4.872600
20.059300 4.829100
20.083400 4.811100
20.107600 4.841300
20.131700 4.847000
20.155900 4.837200
20.180100 4.871000
20.204200 4.839600
20.228400 4.878000
20.252600 4.952500
20.276700 4.985200
20.300900 4.838400
20.325100 4.918900
20.349200 4.953200
20.373400 5.007200
20.397500 5.027600
20.421700 5.070900
20.445900 5.263100
20.470000 5.399500
20.494200 5.137300
20.518400 5.110300
20.542500 5.131800
20.566700 5.179600
20.590900 5.218400
20.615000 5.170600
20.639200 5.084200
20.663300 4.992000
20.687500 4.906200
20.711700 4.822800
20.735800 4.749900
20.760000 4.678900
20.784200 4.583800
20.808300 4.515300
20.832500 4.524800
20.856700 4.394300
20.880800 4.336900
20.905000 4.394800
20.929200 4.504600
20.953300 4.596500
20.977500 4.845700
21.001600 4.873900
21.025800 4.947600
21.050000 5.013400
21.074100 5.073600
21.098300 5.155000
21.122500 5.461500
21.146600 5.315400
21.170800 5.289800
21.195000 5.332200
21.219100 5.573400
21.243300 5.153500
21.267400 5.011000
21.291600 4.792600
21.315800 4.643100
21.339900 4.531700
21.364100 4.435600
21.388300 4.446000
21.412400 4.482900
21.436600 4.538900
21.460800 4.672900
21.484900 4.756100
21.509100 4.836900
21.533300 4.878300
21.557400 4.951300
21.581600 5.024600
21.605700 5.027100
21.629900 5.037400
21.654100 4.981600
21.678200 4.968000
21.702400 5.025800
21.726600 5.013600
21.750700 4.983100
21.774900 5.086100
21.799100 5.302000
21.823200 5.333600
21.847400 5.258700
21.871500 5.209300
21.895700 5.053700
21.919900 4.926700
21.944000 4.786100
21.968200 4.804200
21.992400 4.733300
22.016500 4.777200
22.040700 4.852100
22.064900 4.913200
22.089000 5.038600
22.113200 5.229100
22.137300 5.207400
22.161500 5.146000
22.185700 5.238900
22.209800 5.336700
22.234000 5.424100
22.258200 5.392500
22.282300 5.272000
22.306500 5.266200
22.330700 5.328500
22.354800 5.327300
22.379000 5.183800
22.403200 5.162700
22.427300 4.940200
22.451500 4.732800
22.475600 4.679200
22.499800 4.588200
22.524000 4.570100
22.548100 4.555900
22.572300 4.612600
22.596500 4.641400
22.620600 4.700400
22.644800 4.715100
22.669000 4.680300
22.693100 4.619700
22.717300 4.655600
22.741400 4.762900
22.765600 4.777400
22.789800 4.701500
22.813900 4.801800
22.838100 4.971000
22.862300 5.011000
22.886400 4.873300
22.910600 4.892300
22.934800 4.928600
22.958900 5.032800
22.983100 5.077900
23.007200 5.125700
23.031400 5.163000
23.055600 5.730200
23.079700 5.516300
23.103900 5.445600
23.128100 5.512400
23.152200 5.410100
23.176400 5.245200
23.200600 5.195400
23.224700 5.220600
23.248900 5.351100
23.273100 5.448800
23.297200 5.476000
23.321400 5.597100
23.345500 5.610200
23.369700 5.502100
23.393900 5.482900
23.418000 5.532400
23.442200 5.603200
23.466400 5.732100
23.490500 5.933600
23.514700 6.001700
23.538900 5.999300
23.563000 6.055400
23.587200 6.020300
23.611300 5.980700
23.635500 5.810600
23.659700 5.752700
23.683800 5.734100
23.708000 5.730500
23.732200 5.712100
23.756300 5.832900
23.780500 5.619100
23.804700 5.595600
23.828800 5.580800
23.853000 5.515400
23.877200 6.022600
23.901300 5.532200
23.925500 5.299600
23.949600 5.197900
23.973800 5.139200
23.998000 5.253700
24.022100 5.184700
24.046300 4.988100
24.070500 4.925100
24.094600 4.872900
24.118800 4.857100
24.143000 4.846700
24.167100 4.834000
24.191300 4.852200
24.215400 4.852100
24.239600 4.840400
24.263800 4.798100
24.287900 5.011800
24.312100 4.857300
24.336300 4.716000
24.360400 4.656400
24.384600 4.815700
24.408800 4.962400
24.432900 5.044000
24.457100 5.137100
24.481200 5.251300
24.505400 5.241500
24.529600 5.295900
24.553700 5.353200
24.577900 5.402800
24.602100 5.438600
24.626200 5.389000
24.650400 5.413800
24.674600 5.430500
24.698700 5.482200
24.722900 5.797400
24.747100 5.722900
24.771200 5.734400
24.795400 6.668900
24.819500 6.158800
24.843700 6.175500
24.867900 5.869300
24.892000 5.892500
24.916200 6.054100
24.940400 6.299100
24.964500 6.337200
24.988700 6.321700
25.012900 6.270000
25.037000 6.153000
25.061200 6.167900
25.085300 6.101300
25.109500 6.089900
25.133700 6.112500
25.157800 6.176600
25.182000 6.329900
25.206200 6.213400
25.230300 6.031300
25.254500 5.963400
25.278700 5.828700
25.302800 5.718700
25.327000 5.742400
25.351200 5.774500
25.375300 5.769600
25.399500 5.731800
25.423600 5.646400
25.447800 5.557100
25.472000 5.611700
25.496100 5.692700
25.520300 5.773000
25.544500 5.899000
25.568600 5.974000
25.592800 5.888400
25.617000 5.806200
25.641100 5.832200
25.665300 5.847800
25.689400 5.661000
25.713600 5.672500
25.737800 5.747500
25.761900 5.670500
25.786100 5.547200
25.810300 5.542400
25.834400 5.569100
25.858600 5.601100
25.882800 5.610900
25.906900 5.628600
25.931100 5.726800
25.955200 5.849700
25.979400 6.018600
26.003600 6.135400
26.027700 6.184200
26.051900 6.249000
26.076100 6.233800
26.100200 6.185100
26.124400 6.186500
26.148600 6.097200
26.172700 5.969100
26.196900 5.848400
26.221100 5.814300
26.245200 5.816100
26.269400 5.848300
26.293500 5.981000
26.317700 5.790800
26.341900 5.696700
26.366000 5.674200
26.390200 5.790600
26.414400 5.868400
26.438500 5.935800
26.462700 5.889200
26.486900 5.745700
26.511000 5.768300
26.535200 5.774500
26.559300 5.799900
26.583500 5.855600
26.607700 5.973400
26.631800 6.038600
26.656000 6.117700
26.680200 6.244400
26.704300 6.269400
26.728500 6.265900
26.752700 6.309000
26.776800 6.312300
26.801000 6.239800
26.825200 6.324800
26.849300 6.314300
26.873500 6.327700
26.897600 6.273700
26.921800 6.084100
26.946000 6.077000
26.970100 6.124800
26.994300 6.069100
27.018500 5.988500
27.042600 5.984800
27.066800 6.035000
27.091000 6.113800
27.115100 6.121600
27.139300 6.089400
27.163400 6.075000
27.187600 6.666000
27.211800 6.223700
27.235900 6.188500
27.260100 6.169500
27.284300 6.149200
27.308400 6.024600
27.332600 6.009900
27.356800 6.006700
27.380900 6.012500
27.405100 6.016800
27.429200 6.048600
27.453400 5.969000
27.477600 6.114500
27.501700 6.052900
27.525900 5.946900
27.550100 5.874500
27.574200 5.843400
27.598400 5.952500
27.622600 6.003400
27.646700 6.059800
27.670900 6.086700
27.695100 6.105600
27.719200 6.100300
27.743400 6.056200
27.767500 6.073000
27.791700 6.202200
27.815900 6.191900
27.840000 6.156800
27.864200 6.172300
27.888400 6.137300
27.912500 6.119600
27.936700 5.986600
27.960900 5.965900
27.985000 5.874900
28.009200 5.769800
28.033300 5.744400
28.057500 5.745000
28.081700 5.851200
28.105800 5.869600
28.130000 6.180000
28.154200 5.929400
28.178300 6.102600
28.202500 6.115900
28.226700 6.143000
28.250800 6.198800
28.275000 6.225900
28.299200 6.160700
28.323300 6.031800
28.347500 5.921500
28.371600 6.010600
28.395800 5.916300
28.420000 5.706800
28.444100 5.661900
28.468300 5.664900
28.492500 5.580300
28.516600 5.531000
28.540800 5.524900
28.565000 5.572600
28.589100 5.669000
28.613300 5.795300
28.637400 5.813700
28.661600 5.846400
28.685800 5.961900
28.709900 6.121500
28.734100 6.194300
28.758300 6.144700
28.782400 6.206200
28.806600 6.367900
28.830800 6.424900
28.854900 6.412600
28.879100 6.545800
28.903200 6.663800
28.927400 6.477800
28.951600 6.235200
28.975700 6.176000
28.999900 6.056300
29.024100 5.948100
29.048200 5.903400
29.072400 5.966200
29.096600 6.022800
29.120700 5.936800
29.144900 5.833200
29.169100 5.977200
29.193200 6.104900
29.217400 5.813800
29.241500 5.722200
29.265700 5.651500
29.289900 5.952600
29.314000 5.957700
29.338200 5.974900
29.362400 5.901100
29.386500 5.770200
29.410700 5.797900
29.434900 5.718900
29.459000 5.686500
29.483200 5.686500
29.507300 5.731800
29.531500 5.783600
29.555700 5.894200
29.579800 6.064100
29.604000 6.508900
29.628200 6.963000
29.652300 6.196500
29.676500 6.161700
29.700700 6.207400
29.724800 6.505300
29.749000 7.062500
29.773200 7.006800
29.797300 6.625200
29.821500 6.570100
29.845600 6.495400
29.869800 6.478400
29.894000 6.678900
29.918100 6.638400
29.942300 6.632400
29.966500 6.612000
29.990600 6.769500
30.014800 6.602900
30.039000 6.537600
30.063100 6.449600
30.087300 6.387600
30.111400 6.392800
30.135600 6.224900
30.159800 6.326300
30.183900 6.577400
30.208100 6.786200
30.232300 6.773100
30.256400 6.568700
30.280600 6.368600
30.304800 6.357600
30.328900 6.612400
30.353100 6.623200
30.377200 6.602900
30.401400 6.594900
30.425600 6.700600
30.449700 6.648900
30.473900 6.490100
30.498100 6.552100
30.522200 6.590600
30.546400 6.810700
30.570600 6.779700
30.594700 6.584300
30.618900 6.576900
30.643100 6.458600
30.667200 6.291700
30.691400 6.232900
30.715500 6.230700
30.739700 6.305900
30.763900 6.294700
30.788000 6.437100
30.812200 6.531100
30.836400 6.746700
30.860500 6.722600
30.884700 6.713800
30.908900 6.725200
30.933000 6.645200
30.957200 6.629600
30.981300 6.447400
31.005500 6.402600
31.029700 6.615800
31.053800 6.490900
31.078000 6.485100
31.102200 6.461700
31.126300 6.336400
31.150500 6.134000
31.174700 6.238400
31.198800 6.320800
31.223000 6.370400
31.247200 6.493200
31.271300 6.532500
31.295500 6.504600
31.319600 6.459400
31.343800 6.488900
31.368000 6.484000
31.392100 6.622900
31.416300 6.773600
31.440500 6.651500
31.464600 6.482300
31.488800 6.507800
31.513000 6.060000
31.537100 6.050100
31.561300 6.103900
31.585400 5.670600
31.609600 5.705500
31.633800 5.714900
31.657900 5.713700
31.682100 5.640900
31.706300 5.705000
31.730400 5.795300
31.754600 5.901600
31.778800 6.223700
31.802900 6.566300
31.827100 6.559600
31.851200 6.476500
31.875400 6.400200
31.899600 6.235600
31.923700 6.322200
31.947900 6.449500
31.972100 6.889300
31.996200 6.888900
32.020400 6.819700
32.044600 6.733800
32.068700 6.684300
32.092900 6.687600
32.117100 6.568300
32.141200 6.478100
32.165400 6.409300
32.189500 6.485100
32.213700 6.495000
32.237900 6.403400
32.262000 6.383900
32.286200 6.311400
32.310400 6.376400
32.334500 6.248000
32.358700 6.220200
32.382900 6.226800
32.407000 6.236800
32.431200 6.324400
32.455300 7.350000
32.479500 6.600600
32.503700 6.533700
32.527800 6.539400
32.552000 6.581100
32.576200 6.686900
32.600300 7.027400
32.624500 6.912900
32.648700 6.803200
32.672800 6.786000
32.697000 6.610700
32.721200 6.282100
32.745300 6.011700
32.769500 6.072200
32.793600 6.156600
32.817800 6.317200
32.842000 6.483200
32.866100 6.628700
32.890300 6.706500
32.914500 6.763200
32.938600 6.789900
32.962800 6.774100
32.987000 6.678900
33.011100 6.663900
33.035300 6.744700
33.059400 6.687700
33.083600 6.729000
33.107800 6.859800
33.131900 6.938200
33.156100 6.981800
33.180300 6.916700
33.204400 7.074900
33.228600 6.817300
33.252800 6.940200
33.276900 7.062900
33.301100 7.270700
33.325200 6.994700
33.349400 6.862100
33.373600 6.827700
33.397700 6.657900
33.421900 6.482200
33.446100 6.542800
33.470200 6.763200
33.494400 6.754700
33.518600 6.519300
33.542700 6.458500
33.566900 6.331600
33.591100 6.237700
33.615200 6.163800
33.639400 6.131200
33.663500 6.163200
33.687700 6.132900
33.711900 6.189500
33.736000 6.106100
33.760200 6.461700
33.784400 6.230600
33.808500 6.483800
33.832700 6.352300
33.856900 6.307600
33.881000 6.251900
33.905200 6.313400
33.929300 5.963000
33.953500 5.856600
33.977700 5.803100
34.001800 5.782800
34.026000 5.752200
34.050200 5.607300
34.074300 5.489800
34.098500 5.504600
34.122700 5.533500
34.146800 5.716200
34.171000 5.874200
34.195200 5.997400
34.219300 5.960400
34.243500 5.915700
34.267600 5.961600
34.291800 5.937500
34.316000 5.891100
34.340100 5.990600
34.364300 5.781400
34.388500 5.843400
34.412600 5.885100
34.436800 5.907200
34.461000 5.984600
34.485100 6.166500
34.509300 6.304800
34.533400 6.363500
34.557600 6.449300
34.581800 6.615100
34.605900 6.556600
34.630100 6.524400
34.654300 6.352400
34.678400 6.310600
34.702600 6.182700
34.726800 6.087100
34.750900 6.127100
34.775100 6.371100
34.799200 6.360500
34.823400 6.318900
34.847600 5.816200
34.871700 5.711400
34.895900 5.518600
34.920100 5.119500
34.944200 5.082400
34.968400 5.075100
34.992600 5.378000
35.016700 5.462300
35.040900 5.557900
35.065100 5.957800
35.089200 5.395600
35.113400 5.376800
35.137500 5.240600
35.161700 5.132300
35.185900 5.062600
35.210000 5.059100
35.234200 5.047200
35.258400 5.044300
35.282500 4.979200
35.306700 4.916400
35.330900 4.896400
35.355000 4.868800
35.379200 4.740900
35.403300 4.550200
35.427500 4.465300
35.451700 4.399600
35.475800 4.330500
35.500000 4.270400
35.524200 4.299200
35.548300 4.072400
35.572500 3.880400
35.596700 3.675500
35.620800 3.504800
35.645000 3.371100
35.669200 3.261000
35.693300 3.156500
35.717500 3.067500
35.741600 3.021600
35.765800 2.952600
35.790000 2.807000
35.814100 2.638200
35.838300 2.457300
35.862500 2.311500
35.886600 2.072900
35.910800 1.965700
35.935000 1.847900
35.959100 1.696200
35.983300 1.582300
36.007400 1.434800
36.031600 1.310800
36.055800 1.212700
36.079900 1.110300
36.104100 1.013100
36.128300 0.949100
36.152400 0.882000
36.176600 0.807400
36.200800 0.725700
36.224900 0.649200
36.249100 0.575400
36.273200 0.536500
36.297400 0.477200
36.321600 0.364000
36.345700 0.286200
36.369900 0.234500
36.394100 0.191800
36.418200 0.157600
36.442400 0.129100
36.466600 0.103600
36.490700 0.080800
36.514900 0.054400
36.539100 0.039700
36.563200 0.031100
36.587400 0.024000
36.611500 0.018100
36.635700 0.012700
36.659900 0.007700
36.684000 0.003600
36.708200 0.001000
36.732400 0.000000
36.756500 0.000000
36.780700 0.000000
36.804900 0.000000
36.829000 0.000000
36.853200 0.000000
36.877300 0.000000
36.901500 0.000000
36.925700 0.000000
36.949800 0.000000
36.974000 0.000000
36.998200 0.000000
37.022300 0.000000
37.046500 0.000000
37.070700 0.000000
37.094800 0.000000
37.119000 0.000000
37.143200 0.000000
37.167300 0.000000
37.191500 0.000000
37.215600 0.000000
37.239800 0.000000
37.264000 0.000000
37.288100 0.000000
37.312300 0.000000
37.336500 0.000000
37.360600 0.000000
37.384800 0.000000
37.409000 0.000000
37.433100 0.000000
37.457300 0.000000
37.481400 0.000000
37.505600 0.000000
37.529800 0.000000
37.553900 0.000000
37.578100 0.000000
37.602300 0.000000
37.626400 0.000000
37.650600 0.000000
37.674800 0.000000
37.698900 0.000000
37.723100 0.000000
37.747200 0.000000
37.771400 0.000000
37.795600 0.000000
37.819700 0.000000
37.843900 0.000000
37.868100 0.000000
37.892200 0.000000
37.916400 0.000000
37.940600 0.000000
37.964700 0.000000
37.988900 0.000000
38.013100 0.000000
38.037200 0.000000
38.061400 0.000000
38.085500 0.000000
38.109700 0.000000
38.133900 0.000000
38.158000 0.000000
38.182200 0.000000
38.206400 0.000000
38.230500 0.000000
38.254700 0.000000
38.278900 0.000000
38.303000 0.000000
38.327200 0.000000
38.351300 0.000000
38.375500 0.000000
38.399700 0.000000
38.423800 0.000000
38.448000 0.000000
38.472200 0.000000
38.496300 0.000000
38.520500 0.000000
38.544700 0.000000
38.568800 0.000000
38.593000 0.000000
38.617200 0.000000
38.641300 0.000000
38.665500 0.000000
38.689600 0.000000
38.713800 0.000000
38.738000 0.000000
38.762100 0.000000
38.786300 0.000000
38.810500 0.000000
38.834600 0.000000
38.858800 0.000000
38.883000 0.000000
38.907100 0.000000
38.931300 0.000000
e
