set title 'mp-13862 - Density of States'
set xlabel 'Energy (eV)'
set ylabel 'DOS (states/eV)'
set grid
set xrange [-10:10]
set yrange [0:14.995]
set xzeroaxis lt -1
set terminal png size 800,600
set output 'mp-13862_dos_gnuplot.png'
plot '-' using 1:2 with lines title 'DOS'
-15.863800 0.000000
-15.845200 0.000000
-15.826600 0.000000
-15.808000 0.000000
-15.789300 0.000000
-15.770700 0.000000
-15.752100 0.000000
-15.733500 0.000000
-15.714800 0.000000
-15.696200 0.000000
-15.677600 0.000000
-15.659000 0.000000
-15.640400 0.000000
-15.621700 0.000000
-15.603100 0.000000
-15.584500 0.000000
-15.565900 0.000000
-15.547200 0.000000
-15.528600 0.000000
-15.510000 0.000000
-15.491400 0.000000
-15.472700 0.000000
-15.454100 0.000000
-15.435500 0.000000
-15.416900 0.000000
-15.398300 0.000000
-15.379600 0.000000
-15.361000 0.000000
-15.342400 0.000000
-15.323800 0.000000
-15.305100 0.000000
-15.286500 0.000000
-15.267900 0.000000
-15.249300 0.000000
-15.230700 0.000000
-15.212000 0.000000
-15.193400 0.000000
-15.174800 0.000000
-15.156200 0.000000
-15.137500 0.000000
-15.118900 0.000000
-15.100300 0.000000
-15.081700 0.000000
-15.063000 0.000000
-15.044400 0.000000
-15.025800 0.000000
-15.007200 0.000000
-14.988600 0.000000
-14.969900 0.000000
-14.951300 0.000000
-14.932700 0.000000
-14.914100 0.000000
-14.895400 0.000000
-14.876800 0.000000
-14.858200 0.000000
-14.839600 0.000000
-14.820900 0.000000
-14.802300 0.000000
-14.783700 0.000000
-14.765100 0.000000
-14.746500 0.000000
-14.727800 0.000000
-14.709200 0.000000
-14.690600 0.000000
-14.672000 0.000000
-14.653300 0.000000
-14.634700 0.000000
-14.616100 0.000000
-14.597500 0.000000
-14.578900 0.000000
-14.560200 0.000000
-14.541600 0.000000
-14.523000 0.000000
-14.504400 0.000000
-14.485700 0.000000
-14.467100 0.000000
-14.448500 0.000000
-14.429900 0.000000
-14.411200 0.000000
-14.392600 0.000000
-14.374000 0.000000
-14.355400 0.000000
-14.336800 0.000000
-14.318100 0.000000
-14.299500 0.000000
-14.280900 0.000000
-14.262300 0.000000
-14.243600 0.000000
-14.225000 0.000000
-14.206400 0.000000
-14.187800 0.000000
-14.169100 0.093500
-14.150500 1.441000
-14.131900 2.788500
-14.113300 1.828600
-14.094700 1.968000
-14.076000 2.107400
-14.057400 2.246700
-14.038800 2.374200
-14.020200 2.334900
-14.001500 2.295500
-13.982900 2.377800
-13.964300 2.467100
-13.945700 2.556400
-13.927100 2.645800
-13.908400 2.735100
-13.889800 2.909300
-13.871200 3.081200
-13.852600 3.253100
-13.833900 3.427000
-13.815300 3.621100
-13.796700 3.815300
-13.778100 4.009500
-13.759400 4.203700
-13.740800 5.587200
-13.722200 7.297700
-13.703600 11.732800
-13.685000 7.570800
-13.666300 6.797900
-13.647700 6.606100
-13.629100 2.333900
-13.610500 0.000000
-13.591800 0.000000
-13.573200 0.000000
-13.554600 0.000000
-13.536000 0.000000
-13.517300 0.000000
-13.498700 0.000000
-13.480100 0.000000
-13.461500 0.000000
-13.442900 0.000000
-13.424200 0.000000
-13.405600 0.000000
-13.387000 0.000000
-13.368400 0.000000
-13.349700 0.000000
-13.331100 0.000000
-13.312500 0.000000
-13.293900 0.000000
-13.275300 0.000000
-13.256600 0.000000
-13.238000 0.000000
-13.219400 0.000000
-13.200800 0.000000
-13.182100 0.000000
-13.163500 0.000000
-13.144900 0.000000
-13.126300 0.000000
-13.107600 0.000000
-13.089000 0.000000
-13.070400 0.000000
-13.051800 0.000000
-13.033200 0.000000
-13.014500 0.000000
-12.995900 0.000000
-12.977300 0.000000
-12.958700 0.000000
-12.940000 0.000000
-12.921400 0.000000
-12.902800 0.000000
-12.884200 0.000000
-12.865600 0.000000
-12.846900 0.000000
-12.828300 0.000000
-12.809700 0.000000
-12.791100 0.000000
-12.772400 0.000000
-12.753800 0.000000
-12.735200 0.000000
-12.716600 0.000000
-12.697900 0.000000
-12.679300 0.000000
-12.660700 0.000000
-12.642100 0.000000
-12.623500 0.000000
-12.604800 0.000000
-12.586200 0.000000
-12.567600 0.000000
-12.549000 0.000000
-12.530300 0.000000
-12.511700 0.000000
-12.493100 0.000000
-12.474500 0.000000
-12.455800 0.000000
-12.437200 0.000000
-12.418600 0.000000
-12.400000 0.000000
-12.381400 0.000000
-12.362700 0.000000
-12.344100 0.000000
-12.325500 0.000000
-12.306900 0.000000
-12.288200 0.000000
-12.269600 0.000000
-12.251000 0.000000
-12.232400 0.000000
-12.213800 0.000000
-12.195100 0.000000
-12.176500 0.000000
-12.157900 0.000000
-12.139300 0.000000
-12.120600 0.000000
-12.102000 0.000000
-12.083400 0.000000
-12.064800 0.000000
-12.046100 0.000000
-12.027500 0.000000
-12.008900 0.000000
-11.990300 0.000000
-11.971700 0.000000
-11.953000 0.000000
-11.934400 0.000000
-11.915800 0.000000
-11.897200 0.000000
-11.878500 0.000000
-11.859900 0.000000
-11.841300 0.000000
-11.822700 0.000000
-11.804000 0.000000
-11.785400 0.000000
-11.766800 0.000000
-11.748200 0.000000
-11.729600 0.000000
-11.710900 0.000000
-11.692300 0.000000
-11.673700 0.000000
-11.655100 0.000000
-11.636400 0.000000
-11.617800 0.000000
-11.599200 0.000000
-11.580600 0.000000
-11.562000 0.000000
-11.543300 0.000000
-11.524700 0.000000
-11.506100 0.000000
-11.487500 0.000000
-11.468800 0.000000
-11.450200 0.000000
-11.431600 0.000000
-11.413000 0.000000
-11.394300 0.000000
-11.375700 0.000000
-11.357100 0.000000
-11.338500 0.000000
-11.319900 0.000000
-11.301200 0.000000
-11.282600 0.000000
-11.264000 0.000000
-11.245400 0.000000
-11.226700 0.000000
-11.208100 0.000000
-11.189500 0.000000
-11.170900 0.000000
-11.152200 0.000000
-11.133600 0.000000
-11.115000 0.000000
-11.096400 0.000000
-11.077800 0.000000
-11.059100 0.000000
-11.040500 0.000000
-11.021900 0.000000
-11.003300 0.000000
-10.984600 0.000000
-10.966000 0.000000
-10.947400 0.000000
-10.928800 0.000000
-10.910200 0.000000
-10.891500 0.000000
-10.872900 0.000000
-10.854300 0.000000
-10.835700 0.000000
-10.817000 0.000000
-10.798400 0.000000
-10.779800 0.000000
-10.761200 0.000000
-10.742500 0.000000
-10.723900 0.000000
-10.705300 0.000000
-10.686700 0.000000
-10.668100 1.772500
-10.649400 1.960800
-10.630800 2.149000
-10.612200 2.337200
-10.593600 2.525500
-10.574900 2.713700
-10.556300 2.902000
-10.537700 3.090200
-10.519100 3.278400
-10.500400 4.932700
-10.481800 4.592800
-10.463200 4.216200
-10.444600 3.839500
-10.426000 3.462900
-10.407300 3.086200
-10.388700 2.709500
-10.370100 2.332900
-10.351500 1.956200
-10.332800 1.679400
-10.314200 1.538400
-10.295600 1.399900
-10.277000 1.307700
-10.258400 1.317500
-10.239700 1.327300
-10.221100 1.337100
-10.202500 1.346900
-10.183900 1.356800
-10.165200 1.366600
-10.146600 1.376400
-10.128000 1.386200
-10.109400 1.396000
-10.090700 1.405900
-10.072100 1.415700
-10.053500 1.224800
-10.034900 1.251800
-10.016300 1.278700
-9.997600 1.305600
-9.979000 1.332500
-9.960400 1.359400
-9.941800 1.386300
-9.923100 1.413200
-9.904500 1.440100
-9.885900 1.467000
-9.867300 1.607200
-9.848600 1.689400
-9.830000 1.697100
-9.811400 1.704700
-9.792800 1.712400
-9.774200 1.720100
-9.755500 1.868700
-9.736900 2.845600
-9.718300 5.387600
-9.699700 5.655800
-9.681000 4.402800
-9.662400 3.459000
-9.643800 2.515200
-9.625200 1.571600
-9.606600 1.113700
-9.587900 1.360700
-9.569300 1.609300
-9.550700 2.420500
-9.532100 4.570400
-9.513400 6.760800
-9.494800 7.295500
-9.476200 7.792800
-9.457600 5.393700
-9.438900 4.304500
-9.420300 4.361700
-9.401700 4.775500
-9.383100 5.295000
-9.364500 4.096200
-9.345800 3.702700
-9.327200 3.309100
-9.308600 2.915600
-9.290000 2.522000
-9.271300 2.128400
-9.252700 5.151600
-9.234100 8.098000
-9.215500 9.062000
-9.196800 10.948500
-9.178200 13.509100
-9.159600 11.887200
-9.141000 7.959900
-9.122400 5.704600
-9.103700 3.371300
-9.085100 3.093200
-9.066500 2.815100
-9.047900 2.537100
-9.029200 2.286800
-9.010600 2.125800
-8.992000 2.027000
-8.973400 1.928100
-8.954800 1.829300
-8.936100 1.730500
-8.917500 1.631700
-8.898900 1.532800
-8.880300 1.434000
-8.861600 1.618800
-8.843000 1.769500
-8.824400 1.664300
-8.805800 1.559000
-8.787100 1.453800
-8.768500 1.348500
-8.749900 1.243300
-8.731300 1.138000
-8.712700 1.032700
-8.694000 0.927500
-8.675400 1.777900
-8.656800 1.319700
-8.638200 0.861600
-8.619500 0.403500
-8.600900 0.000000
-8.582300 0.000000
-8.563700 0.000000
-8.545100 0.000000
-8.526400 0.000000
-8.507800 0.000000
-8.489200 0.000000
-8.470600 0.000000
-8.451900 0.000000
-8.433300 0.000000
-8.414700 0.000000
-8.396100 0.000000
-8.377400 0.000000
-8.358800 0.000000
-8.340200 0.000000
-8.321600 0.000000
-8.303000 0.000000
-8.284300 0.000000
-8.265700 0.000000
-8.247100 0.000000
-8.228500 0.000000
-8.209800 0.000000
-8.191200 0.000000
-8.172600 0.000000
-8.154000 0.000000
-8.135300 0.000000
-8.116700 0.000000
-8.098100 0.000000
-8.079500 0.000000
-8.060900 0.000000
-8.042200 0.000000
-8.023600 0.000000
-8.005000 0.000000
-7.986400 0.000000
-7.967700 0.000000
-7.949100 0.000000
-7.930500 0.000000
-7.911900 0.000000
-7.893300 0.000000
-7.874600 0.000000
-7.856000 0.000000
-7.837400 0.000000
-7.818800 0.000000
-7.800100 0.000000
-7.781500 0.000000
-7.762900 0.000000
-7.744300 0.000000
-7.725600 0.000000
-7.707000 0.000000
-7.688400 0.000000
-7.669800 0.000000
-7.651200 0.000000
-7.632500 0.000000
-7.613900 0.000000
-7.595300 0.000000
-7.576700 0.000000
-7.558000 0.000000
-7.539400 0.001400
-7.520800 0.458200
-7.502200 0.795800
-7.483500 0.911900
-7.464900 1.028300
-7.446300 1.144700
-7.427700 1.261100
-7.409100 1.377600
-7.390400 1.494000
-7.371800 1.610400
-7.353200 1.726800
-7.334600 1.843200
-7.315900 1.959600
-7.297300 2.058700
-7.278700 2.125800
-7.260100 2.184800
-7.241500 2.243900
-7.222800 2.302900
-7.204200 2.368000
-7.185600 2.462200
-7.167000 2.592600
-7.148300 2.744500
-7.129700 2.903400
-7.111100 3.062300
-7.092500 3.221300
-7.073800 3.380400
-7.055200 3.539400
-7.036600 3.697900
-7.018000 3.837700
-6.999400 3.965100
-6.980700 4.090100
-6.962100 4.218500
-6.943500 4.539200
-6.924900 6.503900
-6.906200 9.017100
-6.887600 5.981500
-6.869000 3.145700
-6.850400 1.568900
-6.831700 0.927300
-6.813100 0.717700
-6.794500 0.629400
-6.775900 0.545300
-6.757300 0.461100
-6.738600 0.377000
-6.720000 0.292800
-6.701400 0.208700
-6.682800 0.124600
-6.664100 0.040400
-6.645500 0.045700
-6.626900 0.139600
-6.608300 0.242400
-6.589700 0.498700
-6.571000 0.934400
-6.552400 1.645700
-6.533800 3.033700
-6.515200 4.731400
-6.496500 5.221100
-6.477900 6.430300
-6.459300 6.364200
-6.440700 7.342800
-6.422000 8.454800
-6.403400 8.553500
-6.384800 5.893000
-6.366200 5.463500
-6.347600 5.054400
-6.328900 4.655900
-6.310300 4.382300
-6.291700 4.125400
-6.273100 3.934600
-6.254400 3.895000
-6.235800 4.232600
-6.217200 4.050600
-6.198600 4.430400
-6.179900 2.951600
-6.161300 2.353900
-6.142700 0.000500
-6.124100 0.000000
-6.105500 0.000000
-6.086800 0.201900
-6.068200 1.109000
-6.049600 1.584900
-6.031000 1.766900
-6.012300 1.949900
-5.993700 2.133900
-5.975100 2.318800
-5.956500 2.409900
-5.937900 2.429600
-5.919200 2.454900
-5.900600 2.488800
-5.882000 2.515400
-5.863400 2.606900
-5.844700 2.716200
-5.826100 2.926600
-5.807500 3.222500
-5.788900 3.570100
-5.770200 3.912100
-5.751600 4.206400
-5.733000 4.496500
-5.714400 4.739400
-5.695800 4.984300
-5.677100 5.841400
-5.658500 4.783700
-5.639900 4.376000
-5.621300 3.222100
-5.602600 2.387600
-5.584000 1.861700
-5.565400 1.534000
-5.546800 1.444600
-5.528100 1.387000
-5.509500 1.329400
-5.490900 1.271800
-5.472300 1.214200
-5.453700 1.156700
-5.435000 1.099100
-5.416400 1.041600
-5.397800 3.243900
-5.379200 1.479800
-5.360500 0.614600
-5.341900 0.909700
-5.323300 1.384300
-5.304700 1.859000
-5.286100 2.333700
-5.267400 2.808400
-5.248800 3.287000
-5.230200 3.662500
-5.211600 3.180000
-5.192900 2.698900
-5.174300 2.219300
-5.155700 1.965300
-5.137100 1.982300
-5.118400 2.057100
-5.099800 3.927600
-5.081200 3.684600
-5.062600 1.725400
-5.044000 1.543700
-5.025300 1.589300
-5.006700 1.634900
-4.988100 1.680500
-4.969500 1.726100
-4.950800 1.771800
-4.932200 1.470100
-4.913600 1.470600
-4.895000 1.471000
-4.876400 1.471400
-4.857700 1.471800
-4.839100 1.492300
-4.820500 1.589000
-4.801900 1.685800
-4.783200 1.782500
-4.764600 1.879200
-4.746000 1.975900
-4.727400 2.072600
-4.708700 2.169400
-4.690100 2.266100
-4.671500 2.362800
-4.652900 2.459500
-4.634300 2.556200
-4.615600 2.653000
-4.597000 2.749700
-4.578400 2.172600
-4.559800 1.742200
-4.541100 1.743800
-4.522500 1.747700
-4.503900 1.766500
-4.485300 1.799500
-4.466600 1.834100
-4.448000 1.863600
-4.429400 1.848400
-4.410800 1.807300
-4.392200 1.766200
-4.373500 1.725100
-4.354900 1.683900
-4.336300 1.642800
-4.317700 1.601700
-4.299000 1.567500
-4.280400 1.539400
-4.261800 1.511300
-4.243200 1.483200
-4.224600 1.455100
-4.205900 1.427000
-4.187300 1.398800
-4.168700 1.370700
-4.150100 1.342600
-4.131400 1.314500
-4.112800 1.286400
-4.094200 1.258300
-4.075600 1.392500
-4.056900 1.647400
-4.038300 1.901700
-4.019700 2.155300
-4.001100 0.734200
-3.982500 0.487700
-3.963800 0.491900
-3.945200 0.496100
-3.926600 0.500300
-3.908000 0.504500
-3.889300 0.508700
-3.870700 0.512800
-3.852100 0.517000
-3.833500 0.521200
-3.814800 0.525400
-3.796200 0.529600
-3.777600 0.533700
-3.759000 0.537900
-3.740400 0.542100
-3.721700 1.304800
-3.703100 2.575300
-3.684500 3.448300
-3.665900 8.419000
-3.647200 11.093600
-3.628600 9.271300
-3.610000 8.491400
-3.591400 8.926100
-3.572800 9.555100
-3.554100 3.285200
-3.535500 2.505300
-3.516900 1.860700
-3.498300 1.298100
-3.479600 0.798000
-3.461000 0.357900
-3.442400 0.206100
-3.423800 1.457200
-3.405100 2.653800
-3.386500 3.676100
-3.367900 4.249500
-3.349300 5.431900
-3.330700 7.674600
-3.312000 8.646300
-3.293400 10.091800
-3.274800 10.281800
-3.256200 11.014400
-3.237500 11.426800
-3.218900 10.397500
-3.200300 7.084600
-3.181700 3.561300
-3.163000 2.810600
-3.144400 2.209800
-3.125800 1.896000
-3.107200 2.107800
-3.088600 2.321000
-3.069900 2.572600
-3.051300 3.011500
-3.032700 4.026400
-3.014100 5.286200
-2.995400 4.923100
-2.976800 4.646900
-2.958200 4.492800
-2.939600 4.356300
-2.921000 5.846500
-2.902300 6.622400
-2.883700 6.542100
-2.865100 5.285200
-2.846500 5.028000
-2.827800 4.776800
-2.809200 4.569200
-2.790600 4.365400
-2.772000 4.193600
-2.753300 4.112500
-2.734700 3.850400
-2.716100 3.723800
-2.697500 3.572900
-2.678900 3.565400
-2.660200 3.580200
-2.641600 3.616000
-2.623000 3.739400
-2.604400 3.733900
-2.585700 3.732700
-2.567100 4.767300
-2.548500 5.858800
-2.529900 6.308000
-2.511200 6.807300
-2.492600 7.356700
-2.474000 7.980400
-2.455400 8.350800
-2.436800 8.616400
-2.418100 8.935900
-2.399500 10.068200
-2.380900 8.112700
-2.362300 5.781000
-2.343600 2.189700
-2.325000 0.000000
-2.306400 0.000000
-2.287800 0.000000
-2.269200 0.906100
-2.250500 1.811600
-2.231900 2.289400
-2.213300 2.989300
-2.194700 2.257200
-2.176000 1.923500
-2.157400 1.589300
-2.138800 1.254600
-2.120200 0.964000
-2.101500 0.730200
-2.082900 0.568700
-2.064300 0.466600
-2.045700 0.410100
-2.027100 0.403800
-2.008400 0.407600
-1.989800 0.411400
-1.971200 0.415200
-1.952600 0.419000
-1.933900 0.422800
-1.915300 0.426700
-1.896700 0.430500
-1.878100 0.434300
-1.859400 0.438100
-1.840800 0.442000
-1.822200 0.445800
-1.803600 0.449600
-1.785000 0.453400
-1.766300 0.457200
-1.747700 0.461100
-1.729100 0.464900
-1.710500 0.468700
-1.691800 0.472500
-1.673200 0.476400
-1.654600 0.480200
-1.636000 0.484000
-1.617400 0.487800
-1.598700 0.491600
-1.580100 0.495500
-1.561500 0.662300
-1.542900 0.783800
-1.524200 0.896700
-1.505600 1.014100
-1.487000 1.141600
-1.468400 1.320500
-1.449700 1.499200
-1.431100 1.562600
-1.412500 1.720200
-1.393900 1.887900
-1.375300 2.059000
-1.356600 2.231000
-1.338000 2.403500
-1.319400 2.577100
-1.300800 2.751600
-1.282100 2.926600
-1.263500 3.101800
-1.244900 3.171500
-1.226300 2.858100
-1.207700 2.635700
-1.189000 2.458800
-1.170400 2.224600
-1.151800 1.971300
-1.133200 1.797600
-1.114500 1.706000
-1.095900 1.722300
-1.077300 1.759500
-1.058700 1.801600
-1.040000 1.852700
-1.021400 2.011600
-1.002800 2.339500
-0.984200 2.670600
-0.965600 3.006300
-0.946900 3.377500
-0.928300 4.456700
-0.909700 5.099700
-0.891100 5.695300
-0.872400 6.402200
-0.853800 7.477500
-0.835200 7.757300
-0.816600 6.760900
-0.797900 4.981400
-0.779300 3.726400
-0.760700 3.714900
-0.742100 3.826600
-0.723500 4.059900
-0.704800 4.441500
-0.686200 4.976400
-0.667600 3.720100
-0.649000 3.511500
-0.630300 3.303100
-0.611700 3.094900
-0.593100 3.123400
-0.574500 3.709100
-0.555900 3.903700
-0.537200 3.377100
-0.518600 2.862900
-0.500000 2.393900
-0.481400 1.857300
-0.462700 1.007300
-0.444100 1.062300
-0.425500 1.117400
-0.406900 1.172400
-0.388200 1.227500
-0.369600 1.719400
-0.351000 2.268200
-0.332400 3.341000
-0.313800 4.794600
-0.295100 6.783100
-0.276500 8.293600
-0.257900 8.366000
-0.239300 8.143200
-0.220600 8.115600
-0.202000 8.127300
-0.183400 8.225000
-0.164800 8.406400
-0.146100 8.708100
-0.127500 9.133000
-0.108900 9.845400
-0.090300 9.493600
-0.071700 9.681300
-0.053000 10.231400
-0.034400 10.688500
-0.015800 8.897500
0.002800 5.806200
0.021500 5.482600
0.040100 5.309900
0.058700 5.237400
0.077300 5.528100
0.095900 6.007300
0.114600 13.632100
0.133200 8.614900
0.151800 7.304500
0.170400 6.398000
0.189100 6.474700
0.207700 7.409200
0.226300 8.469900
0.244900 9.937900
0.263600 11.231100
0.282200 10.273600
0.300800 8.932300
0.319400 7.776500
0.338000 6.985300
0.356700 6.455500
0.375300 6.012300
0.393900 5.633900
0.412500 5.285700
0.431200 4.789300
0.449800 4.649100
0.468400 4.986500
0.487000 5.600300
0.505700 6.367700
0.524300 7.200500
0.542900 8.020700
0.561500 8.818800
0.580100 10.235300
0.598800 11.479600
0.617400 10.637800
0.636000 7.494100
0.654600 3.249400
0.673300 2.215000
0.691900 1.956200
0.710500 1.708300
0.729100 1.473400
0.747700 1.312600
0.766400 1.192300
0.785000 1.115400
0.803600 1.063600
0.822200 1.119300
0.840900 1.221000
0.859500 1.681900
0.878100 2.483200
0.896700 3.139900
0.915400 3.839400
0.934000 4.544100
0.952600 5.105600
0.971200 6.124700
0.989800 8.395300
1.008500 8.140500
1.027100 7.289200
1.045700 6.859400
1.064300 6.543400
1.083000 6.214400
1.101600 5.876500
1.120200 5.973700
1.138800 6.110900
1.157500 5.805400
1.176100 5.199300
1.194700 4.925000
1.213300 4.431700
1.231900 3.620800
1.250600 3.044000
1.269200 2.757100
1.287800 2.606400
1.306400 2.627800
1.325100 2.998400
1.343700 3.463300
1.362300 4.002200
1.380900 2.961400
1.399500 3.304200
1.418200 4.379900
1.436800 5.646800
1.455400 6.487400
1.474000 7.024300
1.492700 7.867400
1.511300 8.672300
1.529900 8.079300
1.548500 6.920400
1.567200 5.059400
1.585800 4.414600
1.604400 3.970600
1.623000 3.606700
1.641600 4.822500
1.660300 4.457600
1.678900 4.096800
1.697500 3.727000
1.716100 3.412300
1.734800 3.150000
1.753400 5.204700
1.772000 5.127500
1.790600 4.628400
1.809300 4.288800
1.827900 3.775100
1.846500 3.418800
1.865100 3.296400
1.883700 3.363500
1.902400 3.590800
1.921000 3.663200
1.939600 3.741100
1.958200 3.669800
1.976900 3.554700
1.995500 3.416700
2.014100 3.231900
2.032700 2.975000
2.051300 2.395200
2.070000 1.997400
2.088600 1.457100
2.107200 1.253700
2.125800 1.108900
2.144500 0.981700
2.163100 0.878700
2.181700 0.811800
2.200300 0.766400
2.219000 0.735400
2.237600 0.706400
2.256200 0.677700
2.274800 0.649500
2.293400 0.659500
2.312100 0.773300
2.330700 0.962000
2.349300 1.266300
2.367900 1.464500
2.386600 1.536400
2.405200 1.620100
2.423800 1.769600
2.442400 1.787800
2.461000 2.124800
2.479700 1.957800
2.498300 2.056200
2.516900 2.171500
2.535500 2.289900
2.554200 2.412500
2.572800 2.539100
2.591400 2.669400
2.610000 2.900000
2.628700 3.108200
2.647300 3.298600
2.665900 3.434100
2.684500 3.574300
2.703100 3.695700
2.721800 3.800000
2.740400 3.867100
2.759000 3.896400
2.777600 3.974900
2.796300 3.757500
2.814900 3.770900
2.833500 4.061800
2.852100 4.607400
2.870800 5.332700
2.889400 5.690700
2.908000 5.618700
2.926600 5.035700
2.945200 4.696500
2.963900 6.204000
2.982500 4.983400
3.001100 4.471400
3.019700 4.453400
3.038400 4.517800
3.057000 4.011900
3.075600 4.084700
3.094200 4.208000
3.112800 4.323400
3.131500 4.274200
3.150100 4.155700
3.168700 6.200200
3.187300 7.615100
3.206000 9.761800
3.224600 4.825400
3.243200 4.307800
3.261800 3.908300
3.280500 3.551300
3.299100 3.261400
3.317700 3.083700
3.336300 2.978900
3.354900 2.864800
3.373600 2.745800
3.392200 2.480500
3.410800 1.787800
3.429400 1.019000
3.448100 0.524400
3.466700 0.417300
3.485300 0.407900
3.503900 0.398500
3.522600 0.389100
3.541200 0.379600
3.559800 0.370100
3.578400 0.360600
3.597000 0.351000
3.615700 0.341500
3.634300 0.331900
3.652900 0.322200
3.671500 0.312600
3.690200 0.302900
3.708800 0.293200
3.727400 0.283500
3.746000 0.273700
3.764600 0.263900
3.783300 0.254100
3.801900 0.207300
3.820500 0.201700
3.839100 0.196100
3.857800 0.190600
3.876400 0.185000
3.895000 0.179400
3.913600 0.173900
3.932300 0.168300
3.950900 0.162700
3.969500 0.157200
3.988100 0.151600
4.006700 0.146000
4.025400 0.164100
4.044000 0.765900
4.062600 0.997200
4.081200 1.249300
4.099900 1.397300
4.118500 1.716500
4.137100 2.111200
4.155700 2.470500
4.174400 2.844000
4.193000 3.355800
4.211600 3.890000
4.230200 4.493300
4.248800 5.001500
4.267500 4.959400
4.286100 4.805600
4.304700 5.085200
4.323300 4.732900
4.342000 3.741400
4.360600 2.691500
4.379200 2.138500
4.397800 1.915400
4.416400 1.709700
4.435100 1.520700
4.453700 1.425700
4.472300 1.374100
4.490900 1.342700
4.509600 1.323000
4.528200 1.309100
4.546800 1.310800
4.565400 1.312400
4.584100 1.313800
4.602700 1.315200
4.621300 1.211700
4.639900 1.151100
4.658500 1.099100
4.677200 1.037500
4.695800 0.936400
4.714400 0.876200
4.733000 0.872200
4.751700 0.868100
4.770300 0.864000
4.788900 0.859900
4.807500 0.862000
4.826200 0.873800
4.844800 0.890400
4.863400 0.913400
4.882000 0.963600
4.900600 1.027300
4.919300 1.100800
4.937900 1.176300
4.956500 1.251800
4.975100 1.327400
4.993800 1.403000
5.012400 1.478600
5.031000 1.743900
5.049600 2.383300
5.068200 2.786600
5.086900 2.767600
5.105500 2.729500
5.124100 2.696100
5.142700 2.570900
5.161400 2.481600
5.180000 2.392900
5.198600 2.318000
5.217200 2.251300
5.235900 2.195200
5.254500 2.159100
5.273100 2.194300
5.291700 2.276100
5.310300 2.410800
5.329000 2.586700
5.347600 2.765600
5.366200 2.948200
5.384800 3.101700
5.403500 2.984400
5.422100 2.903500
5.440700 2.750700
5.459300 2.449200
5.478000 2.197500
5.496600 2.246400
5.515200 2.421200
5.533800 2.574500
5.552400 2.706300
5.571100 2.858800
5.589700 3.043900
5.608300 3.209000
5.626900 3.072800
5.645600 2.909500
5.664200 2.756400
5.682800 2.485900
5.701400 2.339000
5.720000 2.273700
5.738700 2.253700
5.757300 2.252600
5.775900 2.260700
5.794500 2.277300
5.813200 2.309200
5.831800 2.356000
5.850400 2.413900
5.869000 2.478100
5.887700 2.509400
5.906300 2.436000
5.924900 2.328100
5.943500 2.227000
5.962100 2.080700
5.980800 1.955300
5.999400 1.870700
6.018000 1.868100
6.036600 1.863500
6.055300 1.860600
6.073900 1.929800
6.092500 2.055300
6.111100 2.278400
6.129700 2.459300
6.148400 2.489400
6.167000 2.581700
6.185600 2.679800
6.204200 2.761800
6.222900 3.158200
6.241500 4.259800
6.260100 5.396400
6.278700 5.331800
6.297400 4.683800
6.316000 4.241900
6.334600 5.170500
6.353200 6.158000
6.371800 7.202000
6.390500 8.332800
6.409100 9.114700
6.427700 7.781200
6.446300 7.567500
6.465000 7.304200
6.483600 6.566100
6.502200 5.531100
6.520800 5.129300
6.539500 5.074200
6.558100 4.979700
6.576700 4.965300
6.595300 5.112400
6.613900 4.939600
6.632600 5.218000
6.651200 5.545800
6.669800 5.968700
6.688400 6.431600
6.707100 6.455300
6.725700 6.214300
6.744300 5.152800
6.762900 3.301200
6.781500 2.675600
6.800200 2.679200
6.818800 2.855000
6.837400 3.212800
6.856000 3.517300
6.874700 3.832400
6.893300 4.140300
6.911900 4.418100
6.930500 4.679300
6.949200 4.983800
6.967800 5.430600
6.986400 5.754500
7.005000 5.969700
7.023600 6.098700
7.042300 6.662600
7.060900 7.023900
7.079500 7.149800
7.098100 7.194100
7.116800 7.487800
7.135400 6.389700
7.154000 4.276400
7.172600 2.154800
7.191300 0.975500
7.209900 0.717600
7.228500 1.063800
7.247100 1.378300
7.265700 1.913500
7.284400 2.534200
7.303000 3.038300
7.321600 3.739000
7.340200 4.197700
7.358900 4.306500
7.377500 4.415800
7.396100 4.671100
7.414700 4.709000
7.433300 4.666700
7.452000 4.601700
7.470600 4.467600
7.489200 3.968200
7.507800 3.316800
7.526500 2.837200
7.545100 2.848100
7.563700 2.962900
7.582300 3.318500
7.601000 4.108300
7.619600 4.635900
7.638200 4.439300
7.656800 4.206300
7.675400 4.055800
7.694100 3.813500
7.712700 3.507200
7.731300 3.187600
7.749900 2.825700
7.768600 2.603000
7.787200 2.640200
7.805800 2.794000
7.824400 3.034000
7.843100 3.311900
7.861700 3.933600
7.880300 4.597100
7.898900 5.429700
7.917500 6.296000
7.936200 7.724000
7.954800 5.908300
7.973400 5.695200
7.992000 5.766100
8.010700 5.889100
8.029300 6.046600
8.047900 6.118900
8.066500 6.197500
8.085100 7.145600
8.103800 6.833400
8.122400 5.823700
8.141000 4.937900
8.159600 3.575700
8.178300 3.606600
8.196900 3.874300
8.215500 5.447300
8.234100 5.531700
8.252800 5.421600
8.271400 4.747600
8.290000 5.717300
8.308600 6.508800
8.327200 7.255300
8.345900 7.384300
8.364500 7.368500
8.383100 6.880600
8.401700 5.515000
8.420400 4.483100
8.439000 4.025300
8.457600 4.048500
8.476200 3.598100
8.494900 3.307500
8.513500 3.473600
8.532100 3.796300
8.550700 4.212500
8.569300 4.686200
8.588000 4.991700
8.606600 5.169800
8.625200 5.466200
8.643800 5.836000
8.662500 6.655900
8.681100 7.691000
8.699700 7.917500
8.718300 7.496200
8.736900 7.290900
8.755600 7.362400
8.774200 7.559200
8.792800 6.441500
8.811400 4.428600
8.830100 3.446000
8.848700 3.012200
8.867300 2.857300
8.885900 2.722000
8.904600 2.451200
8.923200 2.743700
8.941800 3.151500
8.960400 3.567300
8.979000 3.923000
8.997700 4.304000
9.016300 5.176000
9.034900 6.047200
9.053500 6.619100
9.072200 6.775600
9.090800 6.931600
9.109400 7.765500
9.128000 8.701300
9.146700 7.594200
9.165300 6.245900
9.183900 5.516500
9.202500 5.086300
9.221100 4.597900
9.239800 3.879200
9.258400 3.434000
9.277000 3.664100
9.295600 3.916700
9.314300 4.623000
9.332900 5.023700
9.351500 5.400600
9.370100 5.927400
9.388700 6.802800
9.407400 8.469100
9.426000 9.529800
9.444600 8.762400
9.463200 8.366000
9.481900 8.320500
9.500500 8.236100
9.519100 7.782900
9.537700 6.249000
9.556400 5.801800
9.575000 5.300400
9.593600 3.951100
9.612200 2.869000
9.630800 2.295000
9.649500 2.738100
9.668100 3.775000
9.686700 4.976700
9.705300 6.550700
9.724000 6.973500
9.742600 7.229200
9.761200 7.536500
9.779800 8.651100
9.798500 8.136000
9.817100 7.642900
9.835700 7.734200
9.854300 6.042500
9.872900 3.809300
9.891600 3.363400
9.910200 2.999500
9.928800 2.788700
9.947400 2.806000
9.966100 3.316400
9.984700 4.377500
10.003300 6.734500
10.021900 9.315400
10.040500 10.824200
10.059200 12.166800
10.077800 13.643600
10.096400 12.859500
10.115000 9.649200
10.133700 6.348600
10.152300 5.371600
10.170900 5.414900
10.189500 6.035400
10.208200 7.136000
10.226800 7.935600
10.245400 8.524000
10.264000 9.116800
10.282600 10.500800
10.301300 10.911700
10.319900 11.488100
10.338500 9.149800
10.357100 6.756700
10.375800 5.817200
10.394400 5.247100
10.413000 4.822200
10.431600 4.809500
10.450200 5.216400
10.468900 5.492200
10.487500 5.609800
10.506100 6.116700
10.524700 6.791400
10.543400 7.170000
10.562000 7.250900
10.580600 7.286000
10.599200 7.875500
10.617900 8.562600
10.636500 8.660400
10.655100 8.251100
10.673700 8.144100
10.692300 7.793700
10.711000 7.349600
10.729600 7.159400
10.748200 7.816700
10.766800 6.061800
10.785500 5.438300
10.804100 5.021500
10.822700 4.798700
10.841300 4.845800
10.860000 5.186000
10.878600 5.737100
10.897200 6.272700
10.915800 8.033400
10.934400 6.758200
10.953100 6.748300
10.971700 7.244500
10.990300 9.002300
11.008900 7.980700
11.027600 8.061900
11.046200 7.919700
11.064800 7.362500
11.083400 5.917300
11.102000 5.230000
11.120700 4.866300
11.139300 4.235100
11.157900 3.662500
11.176500 3.556200
11.195200 3.481900
11.213800 3.423100
11.232400 3.261700
11.251000 3.200800
11.269700 3.076100
11.288300 2.990300
11.306900 3.073900
11.325500 3.226800
11.344100 3.426400
11.362800 3.665300
11.381400 3.943800
11.400000 4.264600
11.418600 4.703900
11.437300 4.971300
11.455900 5.122900
11.474500 5.271500
11.493100 5.637200
11.511800 5.843500
11.530400 5.288800
11.549000 5.252500
11.567600 5.498900
11.586200 5.756300
11.604900 5.832500
11.623500 5.756700
11.642100 5.514200
11.660700 5.704900
11.679400 6.034500
11.698000 5.752600
11.716600 5.538600
11.735200 5.594700
11.753800 5.669700
11.772500 5.675300
11.791100 5.625700
11.809700 5.673300
11.828300 5.622800
11.847000 5.572700
11.865600 5.429200
11.884200 5.308900
11.902800 5.211000
11.921500 5.117700
11.940100 5.026000
11.958700 4.942700
11.977300 4.831200
11.995900 4.745600
12.014600 4.760800
12.033200 4.882000
12.051800 5.229700
12.070400 5.576700
12.089100 5.807500
12.107700 6.086100
12.126300 6.403400
12.144900 6.503100
12.163600 6.235200
12.182200 6.115100
12.200800 6.023100
12.219400 5.366900
12.238000 4.783500
12.256700 4.647200
12.275300 4.654900
12.293900 4.569500
12.312500 4.441900
12.331200 4.308900
12.349800 4.367800
12.368400 4.845400
12.387000 5.465800
12.405600 7.270200
12.424300 7.542800
12.442900 7.955900
12.461500 7.461300
12.480100 7.080100
12.498800 7.091000
12.517400 7.152100
12.536000 7.004400
12.554600 6.996300
12.573300 6.945200
12.591900 7.054800
12.610500 7.126000
12.629100 7.204200
12.647700 7.270300
12.666400 7.381600
12.685000 7.974400
12.703600 8.344900
12.722200 8.165300
12.740900 6.870900
12.759500 6.421500
12.778100 6.189900
12.796700 5.923600
12.815400 5.549300
12.834000 5.247600
12.852600 5.316200
12.871200 5.670200
12.889800 6.104700
12.908500 6.698300
12.927100 7.882200
12.945700 8.201900
12.964300 8.528800
12.983000 8.522000
13.001600 8.694400
13.020200 8.818700
13.038800 8.686900
13.057400 9.437600
13.076100 10.094200
13.094700 10.375800
13.113300 10.537200
13.131900 10.017100
13.150600 8.862100
13.169200 7.868100
13.187800 7.313500
13.206400 6.999000
13.225100 6.364000
13.243700 5.856800
13.262300 6.646500
13.280900 6.837000
13.299500 6.197100
13.318200 5.389700
13.336800 4.926000
13.355400 4.576400
13.374000 4.617200
13.392700 4.754700
13.411300 5.001400
13.429900 5.291600
13.448500 5.186800
13.467200 6.039900
13.485800 6.532600
13.504400 7.152600
13.523000 7.539600
13.541600 8.011900
13.560300 8.657900
13.578900 9.270200
13.597500 10.127700
13.616100 8.631800
13.634800 8.428200
13.653400 7.751300
13.672000 6.630000
13.690600 5.486300
13.709200 4.753200
13.727900 4.572900
13.746500 4.628900
13.765100 4.807300
13.783700 4.786700
13.802400 4.661700
13.821000 4.470500
13.839600 4.887400
13.858200 5.197000
13.876900 5.632800
13.895500 5.680500
13.914100 5.662600
13.932700 6.099900
13.951300 6.937000
13.970000 7.299400
13.988600 6.773200
14.007200 6.642500
14.025800 5.803100
14.044500 5.794500
14.063100 5.681400
14.081700 5.396800
14.100300 6.078900
14.118900 5.279600
14.137600 4.700600
14.156200 4.861500
14.174800 4.703500
14.193400 4.487200
14.212100 4.768400
14.230700 5.790000
14.249300 6.282000
14.267900 6.699600
14.286600 8.336100
14.305200 7.934200
14.323800 10.993900
14.342400 10.249200
14.361000 9.483100
14.379700 8.629300
14.398300 8.330800
14.416900 8.874500
14.435500 8.582200
14.454200 7.692200
14.472800 7.533800
14.491400 7.157200
14.510000 6.909200
14.528700 6.669800
14.547300 6.563100
14.565900 6.527300
14.584500 6.507300
14.603100 6.485100
14.621800 6.706700
14.640400 7.058200
14.659000 7.296300
14.677600 7.845300
14.696300 8.537500
14.714900 8.824100
14.733500 8.953800
14.752100 9.243800
14.770700 9.017200
14.789400 8.873800
14.808000 8.825700
14.826600 8.877300
14.845200 8.978500
14.863900 9.257100
14.882500 9.034800
14.901100 8.705000
14.919700 8.296300
14.938400 7.989300
14.957000 7.531700
14.975600 7.170400
14.994200 6.367200
15.012800 5.774700
15.031500 5.466400
15.050100 5.905500
15.068700 6.615600
15.087300 6.639200
15.106000 6.993700
15.124600 7.057500
15.143200 7.013400
15.161800 6.697700
15.180500 6.597000
15.199100 6.199000
15.217700 5.864700
15.236300 5.570300
15.254900 5.451500
15.273600 6.052100
15.292200 9.155500
15.310800 7.350600
15.329400 6.999000
15.348100 6.819500
15.366700 6.365100
15.385300 6.217800
15.403900 6.140800
15.422500 5.775300
15.441200 5.598900
15.459800 5.527900
15.478400 5.589500
15.497000 5.748300
15.515700 6.076600
15.534300 6.531400
15.552900 7.356500
15.571500 8.765900
15.590200 8.118700
15.608800 7.261700
15.627400 7.436600
15.646000 6.671000
15.664600 6.120700
15.683300 5.646300
15.701900 5.235400
15.720500 4.862100
15.739100 4.492100
15.757800 4.371000
15.776400 3.404000
15.795000 3.190700
15.813600 3.197800
15.832300 3.241200
15.850900 3.290700
15.869500 3.403600
15.888100 4.330600
15.906700 4.921400
15.925400 5.885700
15.944000 5.483800
15.962600 5.793800
15.981200 6.163900
15.999900 6.394400
16.018500 6.489600
16.037100 6.231800
16.055700 5.860900
16.074300 5.662800
16.093000 5.126200
16.111600 4.457400
16.130200 3.680600
16.148800 2.917500
16.167500 2.733500
16.186100 2.586700
16.204700 2.766400
16.223300 2.908600
16.242000 3.236900
16.260600 3.820300
16.279200 4.349900
16.297800 4.559700
16.316400 4.217400
16.335100 4.431200
16.353700 4.971900
16.372300 5.001200
16.390900 4.626600
16.409600 4.091600
16.428200 3.720900
16.446800 3.571000
16.465400 3.438000
16.484100 3.245000
16.502700 3.346300
16.521300 3.489100
16.539900 3.502800
16.558500 3.420500
16.577200 3.432100
16.595800 3.442000
16.614400 3.708500
16.633000 3.494600
16.651700 3.572900
16.670300 3.805800
16.688900 4.040600
16.707500 4.257600
16.726100 4.610600
16.744800 4.897400
16.763400 4.878900
16.782000 4.859600
16.800600 5.033200
16.819300 5.565200
16.837900 6.072400
16.856500 6.344100
16.875100 6.487500
16.893800 6.573100
16.912400 6.395300
16.931000 6.266300
16.949600 5.990400
16.968200 5.652100
16.986900 5.322100
17.005500 5.109800
17.024100 5.097000
17.042700 5.092700
17.061400 5.053400
17.080000 5.021900
17.098600 4.921000
17.117200 4.874400
17.135900 5.022900
17.154500 5.437500
17.173100 6.245700
17.191700 6.775200
17.210300 7.659600
17.229000 7.775000
17.247600 6.905700
17.266200 5.780000
17.284800 4.914600
17.303500 5.218100
17.322100 4.764200
17.340700 4.473800
17.359300 4.275500
17.377900 4.471500
17.396600 4.810800
17.415200 5.541200
17.433800 6.177100
17.452400 5.987900
17.471100 6.611100
17.489700 6.885400
17.508300 7.410600
17.526900 8.088700
17.545600 8.522900
17.564200 8.976400
17.582800 8.413900
17.601400 7.584700
17.620000 7.064800
17.638700 6.623800
17.657300 6.166400
17.675900 6.047900
17.694500 6.222500
17.713200 6.371800
17.731800 6.816100
17.750400 7.183400
17.769000 7.685900
17.787600 8.501800
17.806300 9.895400
17.824900 8.803400
17.843500 7.840600
17.862100 7.030800
17.880800 6.336000
17.899400 5.545200
17.918000 4.659000
17.936600 4.191700
17.955300 4.550800
17.973900 5.657900
17.992500 6.005400
18.011100 6.477200
18.029700 7.146900
18.048400 7.817700
18.067000 9.024100
18.085600 9.137400
18.104200 8.781100
18.122900 8.471600
18.141500 7.978600
18.160100 6.922300
18.178700 6.872300
18.197400 6.779300
18.216000 6.763900
18.234600 5.945300
18.253200 5.735500
18.271800 5.635900
18.290500 5.731400
18.309100 5.517500
18.327700 6.005700
18.346300 7.973400
18.365000 7.530100
18.383600 8.018300
18.402200 7.614100
18.420800 7.060300
18.439400 5.924100
18.458100 5.154000
18.476700 4.665400
18.495300 4.514900
18.513900 4.600900
18.532600 4.501000
18.551200 4.693500
18.569800 5.218500
18.588400 5.902000
18.607100 6.586500
18.625700 6.654900
18.644300 7.189000
18.662900 6.763200
18.681500 9.490200
18.700200 10.751800
18.718800 8.405200
18.737400 8.260800
18.756000 7.910600
18.774700 7.097100
18.793300 6.408400
18.811900 5.350000
18.830500 4.765500
18.849200 4.621400
18.867800 4.808000
18.886400 4.993700
18.905000 5.050500
18.923600 4.743600
18.942300 4.392700
18.960900 4.137700
18.979500 4.027500
18.998100 4.132700
19.016800 4.135200
19.035400 3.900400
19.054000 3.781800
19.072600 3.710900
19.091200 3.596000
19.109900 3.488700
19.128500 3.624000
19.147100 3.379200
19.165700 3.048200
19.184400 3.023200
19.203000 3.001400
19.221600 2.992000
19.240200 3.098900
19.258900 3.394600
19.277500 3.628400
19.296100 3.912800
19.314700 4.023300
19.333300 3.585600
19.352000 3.773300
19.370600 4.009700
19.389200 3.946600
19.407800 3.791600
19.426500 3.499000
19.445100 2.786000
19.463700 2.121000
19.482300 1.650500
19.501000 1.153000
19.519600 0.707900
19.538200 0.335700
19.556800 0.086500
19.575400 0.025100
19.594100 0.016100
19.612700 0.010400
19.631300 0.005900
19.649900 0.002700
19.668600 0.000700
19.687200 0.000000
19.705800 0.000000
19.724400 0.000000
19.743000 0.000000
19.761700 0.000000
19.780300 0.000000
19.798900 0.000000
19.817500 0.000000
19.836200 0.000000
19.854800 0.000000
19.873400 0.000000
19.892000 0.000000
19.910700 0.000000
19.929300 0.000000
19.947900 0.000000
19.966500 0.000000
19.985100 0.000000
20.003800 0.000000
20.022400 0.000000
20.041000 0.000000
20.059600 0.000000
20.078300 0.000000
20.096900 0.000000
20.115500 0.000000
20.134100 0.000000
20.152800 0.000000
20.171400 0.000000
20.190000 0.000000
20.208600 0.000000
20.227200 0.000000
20.245900 0.000000
20.264500 0.000000
20.283100 0.000000
20.301700 0.000000
20.320400 0.000000
20.339000 0.000000
20.357600 0.000000
20.376200 0.000000
20.394800 0.000000
20.413500 0.000000
20.432100 0.000000
20.450700 0.000000
20.469300 0.000000
20.488000 0.000000
20.506600 0.000000
20.525200 0.000000
20.543800 0.000000
20.562500 0.000000
20.581100 0.000000
20.599700 0.000000
20.618300 0.000000
20.636900 0.000000
20.655600 0.000000
20.674200 0.000000
20.692800 0.000000
20.711400 0.000000
20.730100 0.000000
20.748700 0.000000
20.767300 0.000000
20.785900 0.000000
20.804600 0.000000
20.823200 0.000000
20.841800 0.000000
20.860400 0.000000
20.879000 0.000000
20.897700 0.000000
20.916300 0.000000
20.934900 0.000000
20.953500 0.000000
20.972200 0.000000
20.990800 0.000000
21.009400 0.000000
21.028000 0.000000
21.046600 0.000000
21.065300 0.000000
21.083900 0.000000
21.102500 0.000000
21.121100 0.000000
21.139800 0.000000
21.158400 0.000000
21.177000 0.000000
21.195600 0.000000
21.214300 0.000000
21.232900 0.000000
21.251500 0.000000
21.270100 0.000000
21.288700 0.000000
21.307400 0.000000
21.326000 0.000000
21.344600 0.000000
21.363200 0.000000
21.381900 0.000000
e
