set title 'mp-1399 - Density of States'
set xlabel 'Energy (eV)'
set ylabel 'DOS (states/eV)'
set grid
set xrange [-10:10]
set yrange [0:26.557]
set xzeroaxis lt -1
set terminal png size 800,600
set output 'mp-1399_dos_gnuplot.png'
plot '-' using 1:2 with lines title 'DOS'
-4.874000 0.000000
-4.862800 0.000000
-4.851700 0.000000
-4.840500 0.000000
-4.829300 0.000000
-4.818100 0.000000
-4.806900 0.000000
-4.795700 0.000000
-4.784600 0.000000
-4.773400 0.000000
-4.762200 0.000000
-4.751000 0.000000
-4.739800 0.000000
-4.728600 0.000000
-4.717500 0.000000
-4.706300 0.000000
-4.695100 0.000000
-4.683900 0.000000
-4.672700 0.000000
-4.661500 0.000000
-4.650400 0.000000
-4.639200 0.000000
-4.628000 0.000000
-4.616800 0.000000
-4.605600 0.000000
-4.594500 0.000000
-4.583300 0.000000
-4.572100 0.000000
-4.560900 0.000000
-4.549700 0.000000
-4.538500 0.000000
-4.527400 0.000000
-4.516200 0.000000
-4.505000 0.000000
-4.493800 0.000000
-4.482600 0.000000
-4.471400 0.000000
-4.460300 0.000000
-4.449100 0.000000
-4.437900 0.000000
-4.426700 0.000000
-4.415500 0.000000
-4.404300 0.000000
-4.393200 0.000000
-4.382000 0.000000
-4.370800 0.000000
-4.359600 0.000000
-4.348400 0.000000
-4.337200 0.000000
-4.326100 0.000000
-4.314900 0.000000
-4.303700 0.000000
-4.292500 0.000000
-4.281300 0.000000
-4.270100 0.000000
-4.259000 0.000000
-4.247800 0.000000
-4.236600 0.000000
-4.225400 0.000000
-4.214200 0.000000
-4.203000 0.000000
-4.191900 0.000000
-4.180700 0.000000
-4.169500 0.000000
-4.158300 0.000000
-4.147100 0.000000
-4.135900 0.000000
-4.124800 0.000000
-4.113600 0.000000
-4.102400 0.000000
-4.091200 0.000000
-4.080000 0.000000
-4.068800 0.000000
-4.057700 0.000000
-4.046500 0.000000
-4.035300 0.000000
-4.024100 0.000000
-4.012900 0.000000
-4.001700 0.000000
-3.990600 0.000000
-3.979400 0.000000
-3.968200 0.000000
-3.957000 0.000000
-3.945800 0.000000
-3.934700 0.000000
-3.923500 0.000000
-3.912300 0.000000
-3.901100 0.000000
-3.889900 0.000000
-3.878700 0.000000
-3.867600 0.000000
-3.856400 0.000100
-3.845200 0.007500
-3.834000 0.027700
-3.822800 0.060600
-3.811600 0.105900
-3.800500 0.154300
-3.789300 0.191100
-3.778100 0.215500
-3.766900 0.227600
-3.755700 0.231300
-3.744500 0.236800
-3.733400 0.246100
-3.722200 0.259300
-3.711000 0.276300
-3.699800 0.294700
-3.688600 0.313700
-3.677400 0.332600
-3.666300 0.350300
-3.655100 0.366700
-3.643900 0.380000
-3.632700 0.389000
-3.621500 0.395500
-3.610300 0.400100
-3.599200 0.404900
-3.588000 0.411200
-3.576800 0.419200
-3.565600 0.428400
-3.554400 0.438200
-3.543200 0.448200
-3.532100 0.458200
-3.520900 0.468200
-3.509700 0.478000
-3.498500 0.487800
-3.487300 0.497500
-3.476100 0.507300
-3.465000 0.517300
-3.453800 0.527100
-3.442600 0.536700
-3.431400 0.546000
-3.420200 0.555000
-3.409000 0.564200
-3.397900 0.573100
-3.386700 0.581100
-3.375500 0.588100
-3.364300 0.594300
-3.353100 0.600100
-3.341900 0.606300
-3.330800 0.612800
-3.319600 0.619700
-3.308400 0.626800
-3.297200 0.633900
-3.286000 0.640900
-3.274800 0.647900
-3.263700 0.655000
-3.252500 0.662200
-3.241300 0.669700
-3.230100 0.677300
-3.218900 0.685200
-3.207800 0.693300
-3.196600 0.701600
-3.185400 0.710000
-3.174200 0.718300
-3.163000 0.726400
-3.151800 0.734100
-3.140700 0.741500
-3.129500 0.748800
-3.118300 0.756300
-3.107100 0.763900
-3.095900 0.771700
-3.084700 0.793600
-3.073600 0.825700
-3.062400 0.862500
-3.051200 0.921800
-3.040000 0.960900
-3.028800 0.988000
-3.017600 0.989900
-3.006500 0.973900
-2.995300 0.953500
-2.984100 0.939000
-2.972900 0.933400
-2.961700 0.934700
-2.950500 0.938700
-2.939400 0.942300
-2.928200 0.945700
-2.917000 0.946200
-2.905800 0.943900
-2.894600 0.937300
-2.883400 0.928600
-2.872300 0.919300
-2.861100 0.911000
-2.849900 0.904500
-2.838700 0.899600
-2.827500 0.895900
-2.816300 0.893300
-2.805200 0.891000
-2.794000 0.888500
-2.782800 0.885700
-2.771600 0.882600
-2.760400 0.879500
-2.749200 0.876700
-2.738100 0.874300
-2.726900 0.872200
-2.715700 0.869000
-2.704500 0.864500
-2.693300 0.859900
-2.682100 0.855200
-2.671000 0.887900
-2.659800 0.922600
-2.648600 0.950600
-2.637400 0.967800
-2.626200 0.959300
-2.615000 0.952100
-2.603900 0.981100
-2.592700 1.025100
-2.581500 1.061700
-2.570300 1.086000
-2.559100 1.084200
-2.548000 1.086500
-2.536800 1.093100
-2.525600 1.102400
-2.514400 1.111500
-2.503200 1.119400
-2.492000 1.128400
-2.480900 1.138100
-2.469700 1.148300
-2.458500 1.156400
-2.447300 1.160700
-2.436100 1.165800
-2.424900 1.172300
-2.413800 1.179700
-2.402600 1.188000
-2.391400 1.196700
-2.380200 1.219000
-2.369000 1.242100
-2.357800 1.262100
-2.346700 1.272800
-2.335500 1.277300
-2.324300 1.281100
-2.313100 1.281800
-2.301900 1.281900
-2.290700 1.283100
-2.279600 1.287700
-2.268400 1.296400
-2.257200 1.310500
-2.246000 1.325100
-2.234800 1.335800
-2.223600 1.344800
-2.212500 1.352600
-2.201300 1.360800
-2.190100 1.369600
-2.178900 1.378900
-2.167700 1.388700
-2.156500 1.399300
-2.145400 1.410100
-2.134200 1.420800
-2.123000 1.431400
-2.111800 1.442000
-2.100600 1.452500
-2.089400 1.463300
-2.078300 1.475100
-2.067100 1.488600
-2.055900 1.504100
-2.044700 1.519800
-2.033500 1.537200
-2.022300 1.556000
-2.011200 1.576700
-2.000000 1.596700
-1.988800 1.614000
-1.977600 1.627900
-1.966400 1.640000
-1.955200 1.651700
-1.944100 1.663500
-1.932900 1.673400
-1.921700 1.663000
-1.910500 1.652200
-1.899300 1.648400
-1.888200 1.654200
-1.877000 1.660100
-1.865800 1.666300
-1.854600 1.673400
-1.843400 1.681500
-1.832200 1.690500
-1.821100 1.700300
-1.809900 1.704900
-1.798700 1.706500
-1.787500 1.708400
-1.776300 1.711500
-1.765100 1.722200
-1.754000 1.734800
-1.742800 1.749600
-1.731600 1.765900
-1.720400 1.784400
-1.709200 1.804900
-1.698000 1.823600
-1.686900 1.837700
-1.675700 1.847500
-1.664500 1.856700
-1.653300 1.869600
-1.642100 1.888200
-1.630900 1.909800
-1.619800 1.944200
-1.608600 1.981500
-1.597400 2.018500
-1.586200 2.043600
-1.575000 2.060900
-1.563800 2.073400
-1.552700 2.083400
-1.541500 2.097500
-1.530300 2.115300
-1.519100 2.132500
-1.507900 2.148600
-1.496700 2.162800
-1.485600 2.176100
-1.474400 2.189800
-1.463200 2.203400
-1.452000 2.228200
-1.440800 2.257300
-1.429600 2.291300
-1.418500 2.323800
-1.407300 2.365000
-1.396100 2.419200
-1.384900 2.473200
-1.373700 2.521200
-1.362500 2.553900
-1.351400 2.580600
-1.340200 2.607200
-1.329000 2.625900
-1.317800 2.642400
-1.306600 2.663800
-1.295400 2.693500
-1.284300 2.729700
-1.273100 2.767600
-1.261900 2.806500
-1.250700 2.841400
-1.239500 3.052700
-1.228400 3.081500
-1.217200 3.077800
-1.206000 3.038200
-1.194800 3.047900
-1.183600 3.062200
-1.172400 3.081800
-1.161300 3.109700
-1.150100 3.145900
-1.138900 3.189800
-1.127700 3.237100
-1.116500 3.283600
-1.105300 3.355900
-1.094200 3.447300
-1.083000 3.547000
-1.071800 3.636600
-1.060600 3.712000
-1.049400 3.739500
-1.038200 3.731500
-1.027100 3.716600
-1.015900 3.721500
-1.004700 3.738600
-0.993500 3.746900
-0.982300 3.749400
-0.971100 3.756300
-0.960000 3.767100
-0.948800 3.772500
-0.937600 3.768700
-0.926400 3.762500
-0.915200 3.756300
-0.904000 3.756800
-0.892900 3.770800
-0.881700 3.793500
-0.870500 3.827000
-0.859300 3.866500
-0.848100 3.890200
-0.836900 3.898900
-0.825800 3.916100
-0.814600 3.992700
-0.803400 4.094100
-0.792200 3.909800
-0.781000 3.865000
-0.769800 3.831500
-0.758700 3.808700
-0.747500 3.815100
-0.736300 3.839200
-0.725100 3.869800
-0.713900 3.937600
-0.702700 4.037300
-0.691600 4.122100
-0.680400 4.209900
-0.669200 4.305900
-0.658000 4.352100
-0.646800 4.399700
-0.635600 4.465400
-0.624500 4.538000
-0.613300 4.616800
-0.602100 4.861600
-0.590900 5.069500
-0.579700 5.280800
-0.568600 5.579500
-0.557400 5.972600
-0.546200 6.287900
-0.535000 6.457400
-0.523800 6.621000
-0.512600 6.731500
-0.501500 6.995200
-0.490300 8.246200
-0.479100 8.910500
-0.467900 9.300900
-0.456700 9.639500
-0.445500 9.579300
-0.434400 8.875000
-0.423200 7.916800
-0.412000 7.519600
-0.400800 7.243300
-0.389600 6.879200
-0.378400 6.503300
-0.367300 6.133600
-0.356100 5.641900
-0.344900 5.256600
-0.333700 4.960000
-0.322500 4.705200
-0.311300 4.582800
-0.300200 4.709900
-0.289000 4.246500
-0.277800 3.756800
-0.266600 3.566800
-0.255400 3.277500
-0.244200 2.927200
-0.233100 2.783000
-0.221900 2.654100
-0.210700 2.581400
-0.199500 2.437400
-0.188300 2.220300
-0.177100 1.944400
-0.166000 1.734900
-0.154800 1.712700
-0.143600 1.735900
-0.132400 1.790600
-0.121200 1.900900
-0.110000 2.033300
-0.098900 2.185300
-0.087700 2.417100
-0.076500 2.707900
-0.065300 3.031300
-0.054100 3.313600
-0.042900 3.608000
-0.031800 3.976100
-0.020600 4.718400
-0.009400 5.050600
0.001800 5.565300
0.013000 6.145800
0.024200 6.850500
0.035300 8.089600
0.046500 9.407200
0.057700 10.133600
0.068900 10.153900
0.080100 10.275800
0.091200 9.994100
0.102400 9.968200
0.113600 10.467900
0.124800 11.669100
0.136000 11.177700
0.147200 10.767300
0.158300 10.564000
0.169500 10.621300
0.180700 10.543100
0.191900 10.788600
0.203100 10.672600
0.214300 10.469800
0.225400 10.336900
0.236600 10.146500
0.247800 9.503000
0.259000 8.639300
0.270200 8.349800
0.281400 8.573500
0.292500 9.224100
0.303700 9.287200
0.314900 8.587900
0.326100 8.117700
0.337300 8.820200
0.348500 9.281200
0.359600 9.679900
0.370800 9.882900
0.382000 9.956300
0.393200 10.285200
0.404400 10.029900
0.415600 10.188500
0.426700 9.623500
0.437900 9.580900
0.449100 10.752800
0.460300 11.347300
0.471500 12.385500
0.482700 13.477300
0.493800 15.718700
0.505000 19.903500
0.516200 21.965100
0.527400 22.291600
0.538600 19.079100
0.549800 18.177600
0.560900 17.808200
0.572100 18.370300
0.583300 17.519500
0.594500 17.580600
0.605700 20.264900
0.616900 21.796500
0.628000 20.224700
0.639200 17.722400
0.650400 21.608100
0.661600 23.282500
0.672800 23.587400
0.684000 21.579700
0.695100 19.830400
0.706300 20.428900
0.717500 18.973600
0.728700 22.333200
0.739900 24.142400
0.751000 21.690100
0.762200 18.956000
0.773400 16.478400
0.784600 14.446600
0.795800 13.688400
0.807000 13.779600
0.818100 14.576200
0.829300 13.670700
0.840500 14.412000
0.851700 14.917100
0.862900 13.542600
0.874100 13.386600
0.885200 12.399300
0.896400 12.388500
0.907600 13.020300
0.918800 13.525400
0.930000 13.176800
0.941200 13.340300
0.952300 15.070700
0.963500 16.589800
0.974700 16.744000
0.985900 15.720700
0.997100 12.730300
1.008300 12.919600
1.019400 13.351400
1.030600 13.547600
1.041800 14.815800
1.053000 15.371700
1.064200 14.247000
1.075400 13.904500
1.086500 13.452400
1.097700 12.124000
1.108900 11.742500
1.120100 12.740300
1.131300 14.318000
1.142500 16.126600
1.153600 15.499200
1.164800 14.398200
1.176000 13.947400
1.187200 14.356400
1.198400 14.647300
1.209600 14.548300
1.220700 14.963000
1.231900 15.032500
1.243100 15.329200
1.254300 15.886100
1.265500 16.717800
1.276700 17.419200
1.287800 17.369600
1.299000 18.056700
1.310200 19.620200
1.321400 16.071900
1.332600 13.344400
1.343800 11.777900
1.354900 11.693400
1.366100 13.799600
1.377300 16.899800
1.388500 18.979800
1.399700 20.241100
1.410800 20.295700
1.422000 19.798300
1.433200 18.447700
1.444400 18.025200
1.455600 17.255100
1.466800 16.892100
1.477900 16.407300
1.489100 15.920600
1.500300 17.936400
1.511500 17.858900
1.522700 16.526300
1.533900 17.337600
1.545000 18.271300
1.556200 19.915400
1.567400 20.053200
1.578600 19.427900
1.589800 19.247600
1.601000 17.494500
1.612100 15.576400
1.623300 13.926200
1.634500 13.121100
1.645700 13.315000
1.656900 13.405300
1.668100 13.771800
1.679200 14.867400
1.690400 15.727100
1.701600 17.300900
1.712800 16.721400
1.724000 15.407500
1.735200 15.167200
1.746300 15.108400
1.757500 15.606500
1.768700 15.613700
1.779900 16.216000
1.791100 16.402100
1.802300 16.017200
1.813400 14.486800
1.824600 15.702200
1.835800 17.198800
1.847000 15.312100
1.858200 14.585200
1.869400 14.561400
1.880500 14.099400
1.891700 13.486300
1.902900 13.145900
1.914100 13.549300
1.925300 16.101800
1.936500 15.006600
1.947600 13.477800
1.958800 12.598800
1.970000 12.237000
1.981200 11.557000
1.992400 11.131400
2.003600 11.137900
2.014700 12.189800
2.025900 13.542800
2.037100 13.505300
2.048300 14.499900
2.059500 13.288000
2.070600 12.423800
2.081800 12.282600
2.093000 11.979000
2.104200 11.866900
2.115400 11.643500
2.126600 10.977700
2.137700 9.975300
2.148900 9.673400
2.160100 9.624600
2.171300 9.939800
2.182500 10.097900
2.193700 9.999400
2.204800 10.153000
2.216000 10.301800
2.227200 10.914900
2.238400 11.174700
2.249600 11.543500
2.260800 14.034800
2.271900 16.592700
2.283100 13.960700
2.294300 12.165900
2.305500 11.410500
2.316700 10.651300
2.327900 11.994200
2.339000 14.256200
2.350200 13.439600
2.361400 15.062700
2.372600 15.884700
2.383800 12.846900
2.395000 12.006500
2.406100 13.463500
2.417300 12.574700
2.428500 11.685500
2.439700 11.139600
2.450900 10.977600
2.462100 10.930300
2.473200 10.726800
2.484400 10.124200
2.495600 9.541100
2.506800 9.180900
2.518000 8.970600
2.529200 8.786800
2.540300 8.858500
2.551500 8.840200
2.562700 8.028700
2.573900 7.245200
2.585100 6.853800
2.596300 6.321300
2.607400 6.039900
2.618600 5.809400
2.629800 5.659000
2.641000 5.518400
2.652200 5.409200
2.663400 5.337300
2.674500 5.273300
2.685700 5.171800
2.696900 5.054800
2.708100 4.935300
2.719300 4.808300
2.730400 4.665700
2.741600 4.497700
2.752800 4.346000
2.764000 4.218800
2.775200 4.108300
2.786400 4.037800
2.797500 3.980300
2.808700 3.918800
2.819900 3.850200
2.831100 3.788600
2.842300 3.732900
2.853500 3.685200
2.864600 3.639400
2.875800 3.591500
2.887000 3.551700
2.898200 3.526300
2.909400 3.526400
2.920600 3.545100
2.931700 3.566500
2.942900 3.575000
2.954100 3.580300
2.965300 3.589400
2.976500 3.602100
2.987700 3.587600
2.998800 3.567500
3.010000 3.585500
3.021200 3.577800
3.032400 3.502600
3.043600 3.415500
3.054800 3.340600
3.065900 3.275300
3.077100 3.223200
3.088300 3.164800
3.099500 3.094700
3.110700 3.023700
3.121900 2.932100
3.133000 2.819600
3.144200 2.660300
3.155400 2.603700
3.166600 2.553200
3.177800 2.509600
3.189000 2.473900
3.200100 2.446300
3.211300 2.436000
3.222500 2.419800
3.233700 2.408400
3.244900 2.429900
3.256100 2.477500
3.267200 2.770300
3.278400 2.935300
3.289600 2.967800
3.300800 3.068200
3.312000 3.163000
3.323200 3.233900
3.334300 3.286800
3.345500 3.300600
3.356700 3.237900
3.367900 3.163300
3.379100 3.033100
3.390200 2.970500
3.401400 2.942200
3.412600 2.933400
3.423800 3.031700
3.435000 3.075200
3.446200 3.102700
3.457300 3.109500
3.468500 3.134800
3.479700 2.959600
3.490900 2.845600
3.502100 2.904000
3.513300 2.882200
3.524400 2.805600
3.535600 2.719800
3.546800 2.634900
3.558000 2.575600
3.569200 2.521800
3.580400 2.473100
3.591500 2.320600
3.602700 2.270800
3.613900 2.250000
3.625100 2.229900
3.636300 2.238600
3.647500 2.259300
3.658600 2.290500
3.669800 2.311000
3.681000 2.326100
3.692200 2.349400
3.703400 2.376600
3.714600 2.398500
3.725700 2.425400
3.736900 2.423000
3.748100 2.425100
3.759300 2.419200
3.770500 2.404700
3.781700 2.391800
3.792800 2.408600
3.804000 2.412800
3.815200 2.407200
3.826400 2.407100
3.837600 2.426000
3.848800 2.472900
3.859900 2.515800
3.871100 2.535700
3.882300 2.510100
3.893500 2.469900
3.904700 2.464200
3.915900 2.464600
3.927000 2.465600
3.938200 2.475000
3.949400 2.513100
3.960600 2.491500
3.971800 2.490400
3.983000 2.492000
3.994100 2.501000
4.005300 2.518100
4.016500 2.539800
4.027700 2.560200
4.038900 2.586800
4.050000 2.620100
4.061200 2.658300
4.072400 2.701100
4.083600 2.750100
4.094800 2.888900
4.106000 2.858500
4.117100 2.877600
4.128300 2.880400
4.139500 2.891300
4.150700 2.910400
4.161900 2.926800
4.173100 2.941700
4.184200 2.953700
4.195400 2.966300
4.206600 2.979900
4.217800 2.982900
4.229000 2.980100
4.240200 2.971400
4.251300 2.956500
4.262500 2.934300
4.273700 2.909200
4.284900 2.885500
4.296100 2.863900
4.307300 2.845600
4.318400 2.830500
4.329600 2.822400
4.340800 2.817400
4.352000 2.814100
4.363200 2.811400
4.374400 2.809200
4.385500 2.806900
4.396700 2.800500
4.407900 2.814100
4.419100 2.834500
4.430300 2.853300
4.441500 2.846900
4.452600 2.844100
4.463800 2.843500
4.475000 2.843200
4.486200 2.841900
4.497400 2.837800
4.508600 2.823700
4.519700 2.803600
4.530900 2.782500
4.542100 2.758900
4.553300 2.742800
4.564500 2.734200
4.575700 2.723200
4.586800 2.720400
4.598000 2.717000
4.609200 2.704700
4.620400 2.677500
4.631600 2.639700
4.642800 2.601100
4.653900 2.576200
4.665100 2.565600
4.676300 2.571600
4.687500 2.588300
4.698700 2.605200
4.709800 2.622900
4.721000 2.641500
4.732200 2.659600
4.743400 2.680900
4.754600 2.705500
4.765800 2.730300
4.776900 2.758700
4.788100 2.794100
4.799300 2.836300
4.810500 2.892700
4.821700 2.944300
4.832900 2.981200
4.844000 3.015700
4.855200 3.052600
4.866400 3.092100
4.877600 3.143600
4.888800 3.206300
4.900000 3.266200
4.911100 3.295100
4.922300 3.311800
4.933500 3.329800
4.944700 3.264800
4.955900 3.193900
4.967100 3.163800
4.978200 3.141100
4.989400 3.113600
5.000600 3.082000
5.011800 3.047300
5.023000 3.004700
5.034200 2.964500
5.045300 2.936200
5.056500 2.912200
5.067700 2.897100
5.078900 2.888800
5.090100 2.883400
5.101300 2.877400
5.112400 2.874100
5.123600 2.876500
5.134800 2.882100
5.146000 2.894200
5.157200 2.914400
5.168400 2.915900
5.179500 2.941300
5.190700 2.976900
5.201900 3.020200
5.213100 3.063500
5.224300 3.084500
5.235500 3.103400
5.246600 3.121200
5.257800 3.137800
5.269000 3.146100
5.280200 3.145400
5.291400 3.138100
5.302600 3.144400
5.313700 3.146300
5.324900 3.136400
5.336100 3.113900
5.347300 3.084500
5.358500 3.059900
5.369600 3.041500
5.380800 3.026300
5.392000 3.003600
5.403200 2.974800
5.414400 2.941700
5.425600 2.907100
5.436700 2.877600
5.447900 2.852800
5.459100 2.839000
5.470300 2.842700
5.481500 2.835400
5.492700 2.776200
5.503800 2.710500
5.515000 2.657900
5.526200 2.605200
5.537400 2.517300
5.548600 2.458200
5.559800 2.412800
5.570900 2.375200
5.582100 2.342700
5.593300 2.315700
5.604500 2.293800
5.615700 2.277700
5.626900 2.268600
5.638000 2.271800
5.649200 2.278300
5.660400 2.287500
5.671600 2.300800
5.682800 2.315000
5.694000 2.343400
5.705100 2.389600
5.716300 2.433900
5.727500 2.482800
5.738700 2.528800
5.749900 2.569700
5.761100 2.616600
5.772200 2.654000
5.783400 2.649300
5.794600 2.626000
5.805800 2.603400
5.817000 2.603500
5.828200 2.664200
5.839300 2.688500
5.850500 2.691600
5.861700 2.736400
5.872900 2.701200
5.884100 2.681600
5.895300 2.656200
5.906400 2.622400
5.917600 2.581600
5.928800 2.532800
5.940000 2.480500
5.951200 2.430200
5.962400 2.389900
5.973500 2.350800
5.984700 2.318100
5.995900 2.283500
6.007100 2.255500
6.018300 2.233400
6.029400 2.209000
6.040600 2.193000
6.051800 2.171900
6.063000 2.098700
6.074200 2.050300
6.085400 2.033600
6.096500 2.034100
6.107700 2.051100
6.118900 2.076500
6.130100 2.105600
6.141300 2.134000
6.152500 2.155600
6.163600 2.173900
6.174800 2.186600
6.186000 2.200100
6.197200 2.212500
6.208400 2.199300
6.219600 2.183100
6.230700 2.163300
6.241900 2.139400
6.253100 2.115400
6.264300 2.114000
6.275500 2.109800
6.286700 2.103000
6.297800 2.096500
6.309000 2.088600
6.320200 2.077800
6.331400 2.065100
6.342600 2.050400
6.353800 2.041700
6.364900 2.035900
6.376100 2.031800
6.387300 2.027300
6.398500 2.021900
6.409700 2.015900
6.420900 2.066100
6.432000 2.048600
6.443200 2.061500
6.454400 2.071700
6.465600 2.080000
6.476800 2.091000
6.488000 2.098600
6.499100 2.089400
6.510300 2.085300
6.521500 2.087400
6.532700 2.088400
6.543900 2.081000
6.555100 2.070000
6.566200 2.063700
6.577400 2.061800
6.588600 2.076800
6.599800 2.080900
6.611000 2.084500
6.622200 2.094000
6.633300 2.099000
6.644500 2.081700
6.655700 2.055800
6.666900 2.056100
6.678100 2.070000
6.689200 2.085400
6.700400 2.100800
6.711600 2.114000
6.722800 2.124200
6.734000 2.114500
6.745200 2.097400
6.756300 2.078900
6.767500 2.063700
6.778700 2.050100
6.789900 2.031100
6.801100 2.012400
6.812300 1.998100
6.823400 1.982500
6.834600 1.956000
6.845800 1.934200
6.857000 1.913200
6.868200 1.894900
6.879400 1.878700
6.890500 1.868600
6.901700 1.866500
6.912900 1.866500
6.924100 1.865800
6.935300 1.860900
6.946500 1.857000
6.957600 1.864900
6.968800 1.851300
6.980000 1.835600
6.991200 1.820200
7.002400 1.805700
7.013600 1.794300
7.024700 1.786200
7.035900 1.779700
7.047100 1.774100
7.058300 1.770400
7.069500 1.767100
7.080700 1.763200
7.091800 1.763200
7.103000 1.767100
7.114200 1.746200
7.125400 1.731500
7.136600 1.719600
7.147800 1.711800
7.158900 1.706700
7.170100 1.703100
7.181300 1.697800
7.192500 1.690600
7.203700 1.682000
7.214900 1.672000
7.226000 1.664400
7.237200 1.656200
7.248400 1.646800
7.259600 1.638100
7.270800 1.630600
7.282000 1.628200
7.293100 1.630600
7.304300 1.637600
7.315500 1.651000
7.326700 1.663800
7.337900 1.674300
7.349000 1.680200
7.360200 1.684900
7.371400 1.691300
7.382600 1.704500
7.393800 1.726300
7.405000 1.766100
7.416100 1.901700
7.427300 1.913200
7.438500 1.884200
7.449700 1.823400
7.460900 1.805300
7.472100 1.788500
7.483200 1.772900
7.494400 1.766600
7.505600 1.743400
7.516800 1.723700
7.528000 1.704700
7.539200 1.691400
7.550300 1.676100
7.561500 1.656600
7.572700 1.643400
7.583900 1.633600
7.595100 1.639100
7.606300 1.669300
7.617400 1.681100
7.628600 1.695200
7.639800 1.714100
7.651000 1.732300
7.662200 1.755600
7.673400 1.789400
7.684500 1.845800
7.695700 1.928400
7.706900 2.025000
7.718100 2.102900
7.729300 2.157500
7.740500 2.195900
7.751600 2.211600
7.762800 2.219500
7.774000 2.227700
7.785200 2.242000
7.796400 2.267800
7.807600 2.293200
7.818700 2.311400
7.829900 2.334400
7.841100 2.370500
7.852300 2.413300
7.863500 2.452600
7.874700 2.488800
7.885800 2.524500
7.897000 2.555800
7.908200 2.583400
7.919400 2.612700
7.930600 2.618800
7.941800 2.588400
7.952900 2.562600
7.964100 2.564100
7.975300 2.571100
7.986500 2.570600
7.997700 2.579700
8.008800 2.590000
8.020000 2.609300
8.031200 2.648000
8.042400 2.656400
8.053600 2.662500
8.064800 2.665600
8.075900 2.668900
8.087100 2.679600
8.098300 2.700500
8.109500 2.720600
8.120700 2.739900
8.131900 2.781600
8.143000 2.846500
8.154200 2.889900
8.165400 2.916100
8.176600 2.970000
8.187800 3.035300
8.199000 3.106400
8.210100 3.169300
8.221300 3.226500
8.232500 3.292700
8.243700 3.334200
8.254900 3.360900
8.266100 3.380300
8.277200 3.364500
8.288400 3.330500
8.299600 3.263800
8.310800 3.254100
8.322000 3.245400
8.333200 3.234200
8.344300 3.219700
8.355500 3.203500
8.366700 3.189300
8.377900 3.177100
8.389100 3.163900
8.400300 3.152100
8.411400 3.143400
8.422600 3.140900
8.433800 3.288300
8.445000 3.240400
8.456200 3.216000
8.467400 3.200900
8.478500 3.199900
8.489700 3.180400
8.500900 3.179300
8.512100 3.188000
8.523300 3.199200
8.534500 3.210600
8.545600 3.223300
8.556800 3.243200
8.568000 3.271000
8.579200 3.305700
8.590400 3.348100
8.601600 3.410700
8.612700 3.464200
8.623900 3.483300
8.635100 3.482300
8.646300 3.485300
8.657500 3.471900
8.668600 3.466400
8.679800 3.453000
8.691000 3.439500
8.702200 3.432800
8.713400 3.436500
8.724600 3.455900
8.735700 3.477900
8.746900 3.511200
8.758100 3.559100
8.769300 3.633100
8.780500 3.682600
8.791700 3.672600
8.802800 3.677000
8.814000 3.697900
8.825200 3.720100
8.836400 3.748600
8.847600 3.776900
8.858800 3.813700
8.869900 3.825100
8.881100 3.833000
8.892300 3.843500
8.903500 3.859300
8.914700 3.880600
8.925900 3.909200
8.937000 3.868800
8.948200 3.879500
8.959400 3.887700
8.970600 3.898300
8.981800 3.908500
8.993000 3.909300
9.004100 3.967100
9.015300 3.938400
9.026500 3.911400
9.037700 3.882800
9.048900 3.858000
9.060100 3.853500
9.071200 3.818300
9.082400 3.798500
9.093600 3.762700
9.104800 3.719700
9.116000 3.699800
9.127200 3.684800
9.138300 3.688300
9.149500 3.691900
9.160700 3.696600
9.171900 3.714000
9.183100 3.731800
9.194300 3.731600
9.205400 3.716400
9.216600 3.727900
9.227800 3.742700
9.239000 3.764700
9.250200 3.821700
9.261400 3.870100
9.272500 3.889400
9.283700 3.905100
9.294900 3.901300
9.306100 3.894400
9.317300 3.898600
9.328400 3.894100
9.339600 3.917500
9.350800 3.902000
9.362000 3.909300
9.373200 3.919900
9.384400 3.934600
9.395500 3.952500
9.406700 3.969000
9.417900 3.974100
9.429100 3.978700
9.440300 3.974500
9.451500 3.970600
9.462600 3.964500
9.473800 3.947000
9.485000 3.945300
9.496200 3.947800
9.507400 3.949900
9.518600 3.945700
9.529700 3.940900
9.540900 3.949800
9.552100 3.969200
9.563300 4.002500
9.574500 4.028800
9.585700 3.967400
9.596800 3.940800
9.608000 3.944700
9.619200 3.960600
9.630400 3.984000
9.641600 4.005900
9.652800 4.032900
9.663900 4.061200
9.675100 4.096400
9.686300 4.096800
9.697500 4.066300
9.708700 4.024500
9.719900 3.969500
9.731000 3.903100
9.742200 3.831600
9.753400 3.771700
9.764600 3.741600
9.775800 3.691800
9.787000 3.573200
9.798100 3.494400
9.809300 3.473600
9.820500 3.463800
9.831700 3.462600
9.842900 3.473800
9.854100 3.493100
9.865200 3.519900
9.876400 3.555600
9.887600 3.596200
9.898800 3.638000
9.910000 3.684000
9.921200 3.727800
9.932300 3.744700
9.943500 3.724600
9.954700 3.717400
9.965900 3.698700
9.977100 3.671600
9.988300 3.621700
9.999400 3.433600
10.010600 3.360300
10.021800 3.308400
10.033000 3.264000
10.044200 3.229100
10.055300 3.206500
10.066500 3.222900
10.077700 3.251400
10.088900 3.276400
10.100100 3.299200
10.111300 3.329400
10.122400 3.383400
10.133600 3.387100
10.144800 3.373500
10.156000 3.390400
10.167200 3.433700
10.178400 3.485400
10.189500 3.537500
10.200700 3.602900
10.211900 3.675800
10.223100 3.720700
10.234300 3.770500
10.245500 3.826100
10.256600 3.893600
10.267800 3.930500
10.279000 3.944900
10.290200 3.963600
10.301400 3.983100
10.312600 3.983700
10.323700 3.985900
10.334900 3.989500
10.346100 3.988200
10.357300 3.981300
10.368500 3.971300
10.379700 3.963100
10.390800 3.952100
10.402000 3.936200
10.413200 3.924100
10.424400 3.929200
10.435600 3.944300
10.446800 3.948000
10.457900 3.941400
10.469100 3.940500
10.480300 3.947000
10.491500 3.935000
10.502700 3.917900
10.513900 3.906800
10.525000 3.889400
10.536200 3.872500
10.547400 3.827300
10.558600 3.815300
10.569800 3.815700
10.581000 3.801500
10.592100 3.812000
10.603300 3.833600
10.614500 3.837900
10.625700 3.843600
10.636900 3.859300
10.648100 3.886300
10.659200 3.839400
10.670400 3.761700
10.681600 3.694800
10.692800 3.655000
10.704000 3.629700
10.715100 3.600000
10.726300 3.582700
10.737500 3.593100
10.748700 3.621500
10.759900 3.653600
10.771100 3.611100
10.782200 3.609600
10.793400 3.621700
10.804600 3.621700
10.815800 3.614500
10.827000 3.630200
10.838200 3.642200
10.849300 3.630400
10.860500 3.634600
10.871700 3.641800
10.882900 3.651500
10.894100 3.668100
10.905300 3.690900
10.916400 3.715600
10.927600 3.752200
10.938800 3.845000
10.950000 3.890200
10.961200 3.890800
10.972400 3.892700
10.983500 3.887600
10.994700 3.875500
11.005900 3.856900
11.017100 3.849900
11.028300 3.857300
11.039500 3.868300
11.050600 3.875500
11.061800 3.847800
11.073000 3.845300
11.084200 3.879700
11.095400 3.859500
11.106600 3.778100
11.117700 3.764900
11.128900 3.706000
11.140100 3.675300
11.151300 3.687400
11.162500 3.697100
11.173700 3.708400
11.184800 3.723500
11.196000 3.753000
11.207200 3.778100
11.218400 3.761000
11.229600 3.733100
11.240800 3.732000
11.251900 3.745100
11.263100 3.769200
11.274300 3.841200
11.285500 3.829200
11.296700 3.819100
11.307900 3.802400
11.319000 3.784300
11.330200 3.755100
11.341400 3.710500
11.352600 3.656000
11.363800 3.638300
11.374900 3.623600
11.386100 3.612000
11.397300 3.607100
11.408500 3.636200
11.419700 3.691200
11.430900 3.754500
11.442000 3.741800
11.453200 3.724200
11.464400 3.720500
11.475600 3.715500
11.486800 3.705500
11.498000 3.700600
11.509100 3.698100
11.520300 3.694600
11.531500 3.690100
11.542700 3.684400
11.553900 3.679700
11.565100 3.674500
11.576200 3.662900
11.587400 3.646600
11.598600 3.642900
11.609800 3.637900
11.621000 3.632600
11.632200 3.633900
11.643300 3.627000
11.654500 3.614000
11.665700 3.608800
11.676900 3.602300
11.688100 3.615700
11.699300 3.564100
11.710400 3.530300
11.721600 3.536900
11.732800 3.550600
11.744000 3.567200
11.755200 3.592600
11.766400 3.629100
11.777500 3.668100
11.788700 3.653100
11.799900 3.626700
11.811100 3.563100
11.822300 3.554700
11.833500 3.545000
11.844600 3.548100
11.855800 3.549300
11.867000 3.555600
11.878200 3.582100
11.889400 3.584100
11.900600 3.552800
11.911700 3.503400
11.922900 3.483300
11.934100 3.508100
11.945300 3.524200
11.956500 3.545800
11.967700 3.570200
11.978800 3.587000
11.990000 3.588700
12.001200 3.583300
12.012400 3.561100
12.023600 3.529200
12.034700 3.503900
12.045900 3.486600
12.057100 3.472300
12.068300 3.457400
12.079500 3.446100
12.090700 3.439600
12.101800 3.440100
12.113000 3.446500
12.124200 3.456500
12.135400 3.479100
12.146600 3.494000
12.157800 3.512100
12.168900 3.535100
12.180100 3.561300
12.191300 3.586100
12.202500 3.619700
12.213700 3.649000
12.224900 3.679700
12.236000 3.697800
12.247200 3.682500
12.258400 3.683300
12.269600 3.669900
12.280800 3.671800
12.292000 3.653800
12.303100 3.607000
12.314300 3.573400
12.325500 3.523600
12.336700 3.477800
12.347900 3.437200
12.359100 3.432800
12.370200 3.443900
12.381400 3.457000
12.392600 3.472300
12.403800 3.486400
12.415000 3.491100
12.426200 3.506100
12.437300 3.533500
12.448500 3.560400
12.459700 3.573000
12.470900 3.582900
12.482100 3.591500
12.493300 3.600000
12.504400 3.617400
12.515600 3.644800
12.526800 3.675600
12.538000 3.685600
12.549200 3.688400
12.560400 3.691500
12.571500 3.701300
12.582700 3.721300
12.593900 3.750200
12.605100 3.780600
12.616300 3.823200
12.627500 3.854000
12.638600 3.885100
12.649800 3.915000
12.661000 3.944100
12.672200 3.962000
12.683400 3.987500
12.694500 4.027400
12.705700 4.054700
12.716900 4.075300
12.728100 4.099600
12.739300 4.141500
12.750500 4.149800
12.761600 4.153300
12.772800 4.158300
12.784000 4.163900
12.795200 4.181200
12.806400 4.204300
12.817600 4.227600
12.828700 4.255500
12.839900 4.301100
12.851100 4.271100
12.862300 4.211400
12.873500 4.158200
12.884700 4.116800
12.895800 4.090500
12.907000 4.076700
12.918200 4.082500
12.929400 4.103500
12.940600 4.144400
12.951800 4.181600
12.962900 4.221100
12.974100 4.262200
12.985300 4.232700
12.996500 4.228200
13.007700 4.229400
13.018900 4.238800
13.030000 4.251100
13.041200 4.257400
13.052400 4.250200
13.063600 4.233300
13.074800 4.185700
13.086000 4.144300
13.097100 4.126300
13.108300 4.093900
13.119500 4.075500
13.130700 4.133900
13.141900 4.067300
13.153100 4.051400
13.164200 4.035200
13.175400 4.021400
13.186600 4.014000
13.197800 4.022800
13.209000 4.054800
13.220200 4.086700
13.231300 4.108500
13.242500 4.142800
13.253700 4.194500
13.264900 4.255800
13.276100 4.286000
13.287300 4.244300
13.298400 4.173500
13.309600 3.927700
13.320800 3.712300
13.332000 3.714800
13.343200 3.777200
13.354300 3.822000
13.365500 3.866600
13.376700 3.932600
13.387900 4.006700
13.399100 4.039500
13.410300 4.097900
13.421400 4.166200
13.432600 4.180700
13.443800 4.182100
13.455000 4.150200
13.466200 4.133800
13.477400 4.121500
13.488500 4.114800
13.499700 4.143800
13.510900 4.186800
13.522100 4.224500
13.533300 4.257600
13.544500 4.287900
13.555600 4.336800
13.566800 4.382800
13.578000 4.417400
13.589200 4.435000
13.600400 4.431800
13.611600 4.403500
13.622700 4.280500
13.633900 4.279900
13.645100 4.274400
13.656300 4.322300
13.667500 4.279500
13.678700 4.221400
13.689800 4.196000
13.701000 4.195800
13.712200 4.201400
13.723400 4.206500
13.734600 4.202200
13.745800 4.172700
13.756900 4.137900
13.768100 4.082900
13.779300 4.010000
13.790500 3.945400
13.801700 3.886900
13.812900 3.831600
13.824000 3.780100
13.835200 3.735100
13.846400 3.707900
13.857600 3.722900
13.868800 3.716300
13.880000 3.690000
13.891100 3.632700
13.902300 3.591700
13.913500 3.564500
13.924700 3.550000
13.935900 3.549900
13.947100 3.557200
13.958200 3.573200
13.969400 3.620000
13.980600 3.681300
13.991800 3.736200
14.003000 3.729700
14.014100 3.743000
14.025300 3.758400
14.036500 3.791500
14.047700 3.800000
14.058900 3.833800
14.070100 3.855200
14.081200 3.826300
14.092400 3.805000
14.103600 3.797800
14.114800 3.793700
14.126000 3.796100
14.137200 3.801700
14.148300 3.806900
14.159500 3.809400
14.170700 3.810400
14.181900 3.820200
14.193100 3.829900
14.204300 3.839500
14.215400 3.847800
14.226600 3.857700
14.237800 3.875400
14.249000 3.899200
14.260200 3.930600
14.271400 3.985900
14.282500 4.052700
14.293700 4.144700
14.304900 4.222800
14.316100 4.321800
14.327300 4.410000
14.338500 4.487500
14.349600 4.546300
14.360800 4.556900
14.372000 4.543100
14.383200 4.554200
14.394400 4.602400
14.405600 4.663000
14.416700 4.641300
14.427900 4.634200
14.439100 4.610100
14.450300 4.533700
14.461500 4.465900
14.472700 4.431600
14.483800 4.419100
14.495000 4.402800
14.506200 4.418200
14.517400 4.458300
14.528600 4.453200
14.539800 4.412600
14.550900 4.417200
14.562100 4.420400
14.573300 4.494800
14.584500 4.498600
14.595700 4.430200
14.606900 4.351700
14.618000 4.263200
14.629200 4.176300
14.640400 4.097100
14.651600 4.027200
14.662800 3.988900
14.673900 3.977500
14.685100 4.000700
14.696300 4.016000
14.707500 3.948400
14.718700 3.964800
14.729900 3.994400
14.741000 4.051000
14.752200 4.096700
14.763400 4.149400
14.774600 4.215700
14.785800 4.287900
14.797000 4.388800
14.808100 4.208300
14.819300 4.237700
14.830500 4.264800
14.841700 4.290400
14.852900 4.304000
14.864100 4.310300
14.875200 4.323800
14.886400 4.366000
14.897600 4.409200
14.908800 4.406600
14.920000 4.398100
14.931200 4.419200
14.942300 4.388000
14.953500 4.343400
14.964700 4.350400
14.975900 4.338400
14.987100 4.304800
14.998300 4.267300
15.009400 4.210300
15.020600 4.150500
15.031800 4.093200
15.043000 4.027700
15.054200 3.958300
15.065400 3.889400
15.076500 3.870300
15.087700 3.865400
15.098900 3.817500
15.110100 3.802200
15.121300 3.798900
15.132500 3.792200
15.143600 3.792300
15.154800 3.791700
15.166000 3.792600
15.177200 3.820900
15.188400 3.750400
15.199600 3.669800
15.210700 3.616300
15.221900 3.564300
15.233100 3.511400
15.244300 3.466200
15.255500 3.433000
15.266700 3.417600
15.277800 3.427300
15.289000 3.466800
15.300200 3.526800
15.311400 3.589600
15.322600 3.652000
15.333700 3.678000
15.344900 3.673300
15.356100 3.672300
15.367300 3.612600
15.378500 3.547000
15.389700 3.438000
15.400800 3.338900
15.412000 3.268300
15.423200 3.212300
15.434400 3.062200
15.445600 2.947900
15.456800 2.856100
15.467900 2.790800
15.479100 2.751200
15.490300 2.747600
15.501500 2.759600
15.512700 2.757800
15.523900 2.747800
15.535000 2.737200
15.546200 2.728500
15.557400 2.718800
15.568600 2.710900
15.579800 2.711300
15.591000 2.723300
15.602100 2.727800
15.613300 2.734000
15.624500 2.769500
15.635700 2.809300
15.646900 2.847800
15.658100 2.887100
15.669200 2.983200
15.680400 2.780700
15.691600 2.585700
15.702800 2.484900
15.714000 2.387700
15.725200 2.357300
15.736300 2.316200
15.747500 2.296200
15.758700 2.267100
15.769900 2.228800
15.781100 2.175200
15.792300 2.096100
15.803400 2.011200
15.814600 1.935000
15.825800 1.891300
15.837000 1.841500
15.848200 1.791700
15.859400 1.739400
15.870500 1.710100
15.881700 1.573500
15.892900 1.516300
15.904100 1.464000
15.915300 1.415000
15.926500 1.313000
15.937600 1.219800
15.948800 1.127600
15.960000 1.041600
15.971200 0.956900
15.982400 0.865200
15.993500 0.853400
16.004700 0.801600
16.015900 0.754200
16.027100 0.710000
16.038300 0.667500
16.049500 0.626100
16.060600 0.589300
16.071800 0.554300
16.083000 0.521100
16.094200 0.490500
16.105400 0.461900
16.116600 0.434300
16.127700 0.407800
16.138900 0.382600
16.150100 0.359200
16.161300 0.341400
16.172500 0.329300
16.183700 0.357700
16.194800 0.306200
16.206000 0.295700
16.217200 0.290600
16.228400 0.291200
16.239600 0.297300
16.250800 0.308900
16.261900 0.340100
16.273100 0.325400
16.284300 0.306400
16.295500 0.292200
16.306700 0.263500
16.317900 0.229200
16.329000 0.194200
16.340200 0.158500
16.351400 0.122100
16.362600 0.087200
16.373800 0.063300
16.385000 0.045200
16.396100 0.030500
16.407300 0.019100
16.418500 0.011000
16.429700 0.006100
16.440900 0.003500
16.452100 0.001600
16.463200 0.000400
16.474400 0.000000
16.485600 0.000000
16.496800 0.000000
16.508000 0.000000
16.519200 0.000000
16.530300 0.000000
16.541500 0.000000
16.552700 0.000000
16.563900 0.000000
16.575100 0.000000
16.586300 0.000000
16.597400 0.000000
16.608600 0.000000
16.619800 0.000000
16.631000 0.000000
16.642200 0.000000
16.653300 0.000000
16.664500 0.000000
16.675700 0.000000
16.686900 0.000000
16.698100 0.000000
16.709300 0.000000
16.720400 0.000000
16.731600 0.000000
16.742800 0.000000
16.754000 0.000000
16.765200 0.000000
16.776400 0.000000
16.787500 0.000000
16.798700 0.000000
16.809900 0.000000
16.821100 0.000000
16.832300 0.000000
16.843500 0.000000
16.854600 0.000000
16.865800 0.000000
16.877000 0.000000
16.888200 0.000000
16.899400 0.000000
16.910600 0.000000
16.921700 0.000000
16.932900 0.000000
16.944100 0.000000
16.955300 0.000000
16.966500 0.000000
16.977700 0.000000
16.988800 0.000000
17.000000 0.000000
17.011200 0.000000
17.022400 0.000000
17.033600 0.000000
17.044800 0.000000
17.055900 0.000000
17.067100 0.000000
17.078300 0.000000
17.089500 0.000000
17.100700 0.000000
17.111900 0.000000
17.123000 0.000000
17.134200 0.000000
17.145400 0.000000
17.156600 0.000000
17.167800 0.000000
17.179000 0.000000
17.190100 0.000000
17.201300 0.000000
17.212500 0.000000
17.223700 0.000000
17.234900 0.000000
17.246100 0.000000
17.257200 0.000000
17.268400 0.000000
17.279600 0.000000
17.290800 0.000000
17.302000 0.000000
17.313100 0.000000
17.324300 0.000000
17.335500 0.000000
17.346700 0.000000
17.357900 0.000000
17.369100 0.000000
17.380200 0.000000
17.391400 0.000000
17.402600 0.000000
17.413800 0.000000
17.425000 0.000000
17.436200 0.000000
17.447300 0.000000
17.458500 0.000000
17.469700 0.000000
17.480900 0.000000
17.492100 0.000000
e
