set title 'mp-8101 - Density of States'
set xlabel 'Energy (eV)'
set ylabel 'DOS (states/eV)'
set grid
set xrange [-10:10]
set yrange [0:5.360]
set xzeroaxis lt -1
set terminal png size 800,600
set output 'mp-8101_dos_gnuplot.png'
plot '-' using 1:2 with lines title 'DOS'
-39.584800 0.000000
-39.511200 0.000000
-39.437600 0.000000
-39.364000 0.000000
-39.290300 0.000000
-39.216700 0.000000
-39.143100 0.000000
-39.069500 0.000000
-38.995800 0.000000
-38.922200 0.000000
-38.848600 0.000000
-38.774900 0.000000
-38.701300 0.000000
-38.627700 0.000000
-38.554100 0.000000
-38.480400 0.000000
-38.406800 0.000000
-38.333200 0.000000
-38.259600 0.000000
-38.185900 0.000000
-38.112300 0.000000
-38.038700 0.000000
-37.965000 0.000000
-37.891400 0.000000
-37.817800 0.000000
-37.744200 0.000000
-37.670500 0.000000
-37.596900 0.000000
-37.523300 0.000000
-37.449700 0.000000
-37.376000 0.000000
-37.302400 0.000000
-37.228800 0.000000
-37.155200 0.000000
-37.081500 0.000000
-37.007900 0.000000
-36.934300 0.000000
-36.860600 0.000000
-36.787000 0.000000
-36.713400 0.000000
-36.639800 0.000000
-36.566100 0.000000
-36.492500 0.000000
-36.418900 0.000000
-36.345300 0.000000
-36.271600 0.000000
-36.198000 0.000000
-36.124400 0.000000
-36.050700 0.000000
-35.977100 0.000000
-35.903500 0.000000
-35.829900 0.000000
-35.756200 0.000000
-35.682600 0.000000
-35.609000 0.000000
-35.535400 0.000000
-35.461700 0.000000
-35.388100 0.000000
-35.314500 0.000000
-35.240900 0.000000
-35.167200 0.000000
-35.093600 0.000000
-35.020000 0.000000
-34.946300 0.000000
-34.872700 0.000000
-34.799100 0.000000
-34.725500 0.000000
-34.651800 0.000000
-34.578200 0.000000
-34.504600 0.000000
-34.431000 0.000000
-34.357300 0.000000
-34.283700 0.000000
-34.210100 0.000000
-34.136400 0.000000
-34.062800 0.000000
-33.989200 0.000000
-33.915600 0.000000
-33.841900 0.000000
-33.768300 0.000000
-33.694700 0.000000
-33.621100 0.000000
-33.547400 0.000000
-33.473800 0.000000
-33.400200 0.000000
-33.326600 0.000000
-33.252900 0.000000
-33.179300 0.000000
-33.105700 0.000000
-33.032000 0.000000
-32.958400 0.000000
-32.884800 5.579800
-32.811200 8.480500
-32.737500 12.615800
-32.663900 19.828400
-32.590300 6.720700
-32.516700 35.551800
-32.443000 0.000000
-32.369400 0.000000
-32.295800 0.000000
-32.222100 0.000000
-32.148500 0.000000
-32.074900 0.000000
-32.001300 0.000000
-31.927600 0.000000
-31.854000 0.000000
-31.780400 0.000000
-31.706800 0.000000
-31.633100 0.000000
-31.559500 0.000000
-31.485900 0.000000
-31.412300 0.000000
-31.338600 0.000000
-31.265000 0.000000
-31.191400 0.000000
-31.117700 0.000000
-31.044100 0.000000
-30.970500 0.000000
-30.896900 0.000000
-30.823200 0.000000
-30.749600 0.000000
-30.676000 0.000000
-30.602400 0.000000
-30.528700 0.000000
-30.455100 0.000000
-30.381500 0.000000
-30.307900 0.000000
-30.234200 0.000000
-30.160600 0.000000
-30.087000 0.000000
-30.013300 0.000000
-29.939700 0.000000
-29.866100 0.000000
-29.792500 0.000000
-29.718800 0.000000
-29.645200 0.000000
-29.571600 0.000000
-29.498000 0.000000
-29.424300 0.000000
-29.350700 0.000000
-29.277100 0.000000
-29.203400 0.000000
-29.129800 0.000000
-29.056200 0.000000
-28.982600 0.000000
-28.908900 0.000000
-28.835300 0.000000
-28.761700 0.000000
-28.688100 0.000000
-28.614400 0.000000
-28.540800 0.000000
-28.467200 0.000000
-28.393600 0.000000
-28.319900 0.000000
-28.246300 0.000000
-28.172700 0.000000
-28.099000 0.000000
-28.025400 0.000000
-27.951800 0.000000
-27.878200 0.000000
-27.804500 0.000000
-27.730900 0.000000
-27.657300 0.000000
-27.583700 0.000000
-27.510000 0.000000
-27.436400 0.000000
-27.362800 0.000000
-27.289100 0.000000
-27.215500 0.000000
-27.141900 0.000000
-27.068300 0.000000
-26.994600 0.000000
-26.921000 0.000000
-26.847400 0.000000
-26.773800 0.000000
-26.700100 0.000000
-26.626500 0.000000
-26.552900 0.000000
-26.479300 0.000000
-26.405600 0.000000
-26.332000 0.000000
-26.258400 0.000000
-26.184700 0.000000
-26.111100 0.000000
-26.037500 0.000000
-25.963900 0.000000
-25.890200 0.000000
-25.816600 0.000000
-25.743000 0.000000
-25.669400 0.000000
-25.595700 0.000000
-25.522100 0.000000
-25.448500 0.000000
-25.374800 0.000000
-25.301200 0.000000
-25.227600 0.000000
-25.154000 0.000000
-25.080300 0.000000
-25.006700 0.000000
-24.933100 0.000000
-24.859500 0.000000
-24.785800 0.000000
-24.712200 0.000000
-24.638600 0.000000
-24.565000 0.000000
-24.491300 0.000000
-24.417700 0.000000
-24.344100 0.000000
-24.270400 0.000000
-24.196800 0.000000
-24.123200 0.000000
-24.049600 0.000000
-23.975900 0.000000
-23.902300 0.000000
-23.828700 0.000000
-23.755100 0.000000
-23.681400 0.000000
-23.607800 0.000000
-23.534200 0.000000
-23.460500 0.000000
-23.386900 0.000000
-23.313300 0.000000
-23.239700 0.000000
-23.166000 0.000000
-23.092400 0.000000
-23.018800 0.000000
-22.945200 0.000000
-22.871500 0.000000
-22.797900 0.000000
-22.724300 0.000000
-22.650700 0.000000
-22.577000 0.000000
-22.503400 0.000000
-22.429800 0.000000
-22.356100 0.000000
-22.282500 0.000000
-22.208900 0.000000
-22.135300 0.000000
-22.061600 0.000000
-21.988000 0.000000
-21.914400 0.000000
-21.840800 0.000000
-21.767100 0.000000
-21.693500 0.000000
-21.619900 0.000000
-21.546300 0.000000
-21.472600 0.000000
-21.399000 0.000000
-21.325400 0.000000
-21.251700 0.000000
-21.178100 0.000000
-21.104500 0.000000
-21.030900 0.000000
-20.957200 0.000000
-20.883600 0.000000
-20.810000 0.000000
-20.736400 0.000000
-20.662700 0.000000
-20.589100 0.000000
-20.515500 0.000000
-20.441800 0.000000
-20.368200 0.000000
-20.294600 0.000000
-20.221000 0.000000
-20.147300 0.000000
-20.073700 0.000000
-20.000100 0.000000
-19.926500 0.000000
-19.852800 0.000000
-19.779200 0.000000
-19.705600 0.000000
-19.632000 0.000000
-19.558300 0.000000
-19.484700 0.000000
-19.411100 0.000000
-19.337400 0.000000
-19.263800 0.000000
-19.190200 0.000000
-19.116600 0.000000
-19.042900 0.000000
-18.969300 0.000000
-18.895700 0.000000
-18.822100 0.000000
-18.748400 0.000000
-18.674800 0.000000
-18.601200 0.000000
-18.527500 0.000000
-18.453900 0.000000
-18.380300 0.000000
-18.306700 0.000000
-18.233000 0.000000
-18.159400 0.000000
-18.085800 0.000000
-18.012200 0.000000
-17.938500 0.000000
-17.864900 0.000000
-17.791300 0.000000
-17.717700 0.000000
-17.644000 0.000000
-17.570400 0.000000
-17.496800 0.000000
-17.423100 0.000000
-17.349500 0.000000
-17.275900 0.000000
-17.202300 0.000000
-17.128600 0.000000
-17.055000 0.000000
-16.981400 0.000000
-16.907800 0.000000
-16.834100 0.000000
-16.760500 0.000000
-16.686900 0.000000
-16.613200 0.000000
-16.539600 0.000000
-16.466000 0.000000
-16.392400 0.000000
-16.318700 0.000000
-16.245100 0.000000
-16.171500 0.000000
-16.097900 0.000000
-16.024200 0.000000
-15.950600 0.000000
-15.877000 0.000000
-15.803400 0.000000
-15.729700 0.000000
-15.656100 0.000000
-15.582500 0.000000
-15.508800 0.000000
-15.435200 0.000000
-15.361600 0.000000
-15.288000 0.000000
-15.214300 0.000000
-15.140700 0.000000
-15.067100 0.000000
-14.993500 0.000000
-14.919800 0.000000
-14.846200 0.000000
-14.772600 0.000000
-14.698900 0.000000
-14.625300 0.000000
-14.551700 0.000000
-14.478100 0.000000
-14.404400 0.000000
-14.330800 0.000000
-14.257200 0.000000
-14.183600 0.000000
-14.109900 0.000000
-14.036300 0.000000
-13.962700 0.000000
-13.889100 0.000000
-13.815400 0.000000
-13.741800 0.000000
-13.668200 0.000000
-13.594500 0.000000
-13.520900 0.000000
-13.447300 0.000000
-13.373700 0.000000
-13.300000 0.000000
-13.226400 0.000000
-13.152800 0.000000
-13.079200 0.000000
-13.005500 0.000000
-12.931900 0.000000
-12.858300 0.000000
-12.784700 0.000000
-12.711000 0.000000
-12.637400 0.000000
-12.563800 0.000000
-12.490100 0.000000
-12.416500 0.000000
-12.342900 0.000000
-12.269300 0.000000
-12.195600 0.000000
-12.122000 0.000000
-12.048400 0.000000
-11.974800 0.000000
-11.901100 0.000000
-11.827500 0.000000
-11.753900 0.000000
-11.680200 0.000000
-11.606600 0.000000
-11.533000 0.000000
-11.459400 0.000000
-11.385700 0.000000
-11.312100 0.000000
-11.238500 0.000000
-11.164900 0.000000
-11.091200 0.000000
-11.017600 0.000000
-10.944000 0.000000
-10.870400 0.000000
-10.796700 0.000000
-10.723100 0.000000
-10.649500 0.040000
-10.575800 0.073800
-10.502200 0.100800
-10.428600 0.121800
-10.355000 0.137900
-10.281300 0.158200
-10.207700 0.176000
-10.134100 0.191100
-10.060500 0.207600
-9.986800 0.225600
-9.913200 0.243400
-9.839600 0.259600
-9.765900 0.277300
-9.692300 0.296000
-9.618700 0.315700
-9.545100 0.336300
-9.471400 0.357700
-9.397800 0.381000
-9.324200 0.405800
-9.250600 0.432300
-9.176900 0.462800
-9.103300 0.497400
-9.029700 0.537600
-8.956100 0.583500
-8.882400 0.638000
-8.808800 0.707000
-8.735200 0.843900
-8.661500 1.029600
-8.587900 1.036100
-8.514300 1.063300
-8.440700 1.074400
-8.367000 1.095100
-8.293400 1.094500
-8.219800 1.110600
-8.146200 1.142700
-8.072500 1.177000
-7.998900 1.228900
-7.925300 1.377000
-7.851600 1.811700
-7.778000 1.407200
-7.704400 1.381600
-7.630800 1.312900
-7.557100 0.541700
-7.483500 0.351400
-7.409900 1.892200
-7.336300 2.634600
-7.262600 2.616800
-7.189000 2.711700
-7.115400 2.221200
-7.041800 1.987000
-6.968100 1.834600
-6.894500 1.716300
-6.820900 1.612800
-6.747200 1.125000
-6.673600 0.727700
-6.600000 0.602100
-6.526400 0.509700
-6.452700 0.443700
-6.379100 0.384100
-6.305500 0.334100
-6.231900 0.303200
-6.158200 0.273400
-6.084600 0.244600
-6.011000 0.216200
-5.937300 0.192700
-5.863700 0.176200
-5.790100 0.159900
-5.716500 0.143600
-5.642800 0.127700
-5.569200 0.113800
-5.495600 0.102000
-5.422000 0.091600
-5.348300 0.081500
-5.274700 0.071300
-5.201100 0.062300
-5.127500 0.054100
-5.053800 0.045900
-4.980200 0.038200
-4.906600 0.031000
-4.832900 0.023700
-4.759300 0.013700
-4.685700 0.000900
-4.612100 0.000000
-4.538400 0.000000
-4.464800 0.000000
-4.391200 0.000000
-4.317600 0.000000
-4.243900 0.000000
-4.170300 0.000000
-4.096700 0.000000
-4.023100 0.000000
-3.949400 0.000000
-3.875800 0.000000
-3.802200 0.000000
-3.728500 0.000000
-3.654900 0.000000
-3.581300 0.000000
-3.507700 0.000000
-3.434000 0.000000
-3.360400 0.000000
-3.286800 0.000000
-3.213200 0.000000
-3.139500 0.000000
-3.065900 0.000000
-2.992300 0.000000
-2.918600 0.000000
-2.845000 0.000000
-2.771400 0.000000
-2.697800 0.000000
-2.624100 0.000000
-2.550500 0.000000
-2.476900 0.000000
-2.403300 0.000000
-2.329600 0.000000
-2.256000 0.000000
-2.182400 0.000000
-2.108800 0.000000
-2.035100 0.000000
-1.961500 0.000000
-1.887900 0.000000
-1.814200 0.000000
-1.740600 0.000000
-1.667000 0.024000
-1.593400 0.099000
-1.519700 0.139400
-1.446100 0.159300
-1.372500 0.195900
-1.298900 0.226400
-1.225200 0.248700
-1.151600 0.267300
-1.078000 0.296100
-1.004300 0.326400
-0.930700 0.355800
-0.857100 0.378900
-0.783500 0.519500
-0.709800 0.493600
-0.636200 0.561200
-0.562600 0.625700
-0.489000 0.705400
-0.415300 0.826000
-0.341700 0.955600
-0.268100 1.174500
-0.194500 1.326400
-0.120800 1.640200
-0.047200 2.199200
0.026400 2.304200
0.100100 2.395300
0.173700 2.490900
0.247300 2.628800
0.320900 2.787200
0.394600 2.323600
0.468200 1.904200
0.541800 1.698200
0.615400 1.542700
0.689100 1.720100
0.762700 1.773800
0.836300 1.936200
0.910000 2.341900
0.983600 2.406400
1.057200 2.268100
1.130800 2.248500
1.204500 2.055000
1.278100 1.666100
1.351700 1.201600
1.425300 1.206500
1.499000 1.344400
1.572600 1.543200
1.646200 1.491800
1.719800 1.606900
1.793500 1.584900
1.867100 1.570900
1.940700 1.654900
2.014400 1.567500
2.088000 1.499600
2.161600 1.475800
2.235200 1.443600
2.308900 1.418100
2.382500 1.392600
2.456100 1.398900
2.529700 1.388800
2.603400 1.228900
2.677000 0.865800
2.750600 0.573400
2.824300 0.455400
2.897900 0.456900
2.971500 0.633900
3.045100 0.809600
3.118800 0.881900
3.192400 0.912000
3.266000 0.988400
3.339600 1.108700
3.413300 1.320800
3.486900 1.462900
3.560500 2.011800
3.634100 1.960200
3.707800 1.985700
3.781400 1.877100
3.855000 1.812400
3.928700 1.863400
4.002300 1.582000
4.075900 1.551700
4.149500 1.663200
4.223200 1.768900
4.296800 1.768800
4.370400 1.721700
4.444000 1.696800
4.517700 1.777400
4.591300 1.811300
4.664900 1.900400
4.738600 2.020900
4.812200 1.898600
4.885800 1.761500
4.959400 1.642800
5.033100 1.683000
5.106700 1.895100
5.180300 1.879800
5.253900 2.042600
5.327600 2.284400
5.401200 2.180400
5.474800 2.199600
5.548400 1.981300
5.622100 1.650400
5.695700 1.425100
5.769300 1.507600
5.843000 1.536800
5.916600 1.504700
5.990200 1.282900
6.063800 1.167800
6.137500 1.042700
6.211100 0.948200
6.284700 0.889300
6.358300 0.808300
6.432000 0.739700
6.505600 0.725900
6.579200 0.704300
6.652800 0.680700
6.726500 0.654400
6.800100 0.692500
6.873700 0.844400
6.947400 0.843000
7.021000 0.835300
7.094600 0.856200
7.168200 0.862200
7.241900 0.892300
7.315500 1.036900
7.389100 1.327400
7.462700 1.750800
7.536400 3.331600
7.610000 3.645700
7.683600 2.923300
7.757300 4.296000
7.830900 4.872800
7.904500 2.911700
7.978100 2.346700
8.051800 1.736300
8.125400 1.437400
8.199000 1.608900
8.272600 2.027400
8.346300 2.248400
8.419900 2.466700
8.493500 2.405100
8.567100 2.126100
8.640800 1.908700
8.714400 1.837000
8.788000 1.778200
8.861700 1.332200
8.935300 1.401300
9.008900 0.799200
9.082500 0.448900
9.156200 0.326400
9.229800 0.170000
9.303400 0.184700
9.377000 0.197900
9.450700 0.213500
9.524300 0.228700
9.597900 0.245300
9.671600 0.261900
9.745200 0.278700
9.818800 0.294900
9.892400 0.317900
9.966100 0.339700
10.039700 0.369500
10.113300 0.418400
10.186900 0.450400
10.260600 0.460400
10.334200 0.476000
10.407800 0.492500
10.481400 0.500400
10.555100 0.511200
10.628700 0.528100
10.702300 0.544400
10.776000 0.562900
10.849600 0.590900
10.923200 0.632400
10.996800 0.678800
11.070500 0.725900
11.144100 0.843400
11.217700 1.399800
11.291300 1.856000
11.365000 2.661600
11.438600 2.468900
11.512200 1.013100
11.585900 0.719100
11.659500 0.544500
11.733100 0.470800
11.806700 0.411100
11.880400 0.497800
11.954000 0.534000
12.027600 0.602400
12.101200 0.647000
12.174900 0.727100
12.248500 0.838500
12.322100 1.096100
12.395700 1.609600
12.469400 1.736400
12.543000 1.905300
12.616600 2.163900
12.690300 2.849700
12.763900 2.314200
12.837500 2.109200
12.911100 2.252600
12.984800 2.341900
13.058400 4.036900
13.132000 3.778000
13.205600 3.818400
13.279300 2.943700
13.352900 2.526200
13.426500 2.302500
13.500200 2.037900
13.573800 1.781700
13.647400 1.594000
13.721000 1.472200
13.794700 1.409900
13.868300 1.426900
13.941900 1.167800
14.015500 0.778400
14.089200 0.575000
14.162800 0.469500
14.236400 0.391700
14.310000 0.321000
14.383700 0.262500
14.457300 0.187200
14.530900 0.108300
14.604600 0.016500
14.678200 0.001400
14.751800 0.011300
14.825400 0.023600
14.899100 0.030400
14.972700 0.034000
15.046300 0.040100
15.119900 0.046500
15.193600 0.052800
15.267200 0.058300
15.340800 0.064100
15.414400 0.070200
15.488100 0.077300
15.561700 0.085000
15.635300 0.093100
15.709000 0.102800
15.782600 0.120000
15.856200 0.141400
15.929800 0.165900
16.003500 0.185200
16.077100 0.205900
16.150700 0.237900
16.224300 0.267800
16.298000 0.283700
16.371600 0.297800
16.445200 0.316200
16.518900 0.347300
16.592500 0.416000
16.666100 0.501800
16.739700 0.548200
16.813400 0.620200
16.887000 0.704300
16.960600 0.847300
17.034200 0.928800
17.107900 0.960400
17.181500 1.009000
17.255100 1.044500
17.328700 1.124600
17.402400 1.150300
17.476000 1.171900
17.549600 1.190700
17.623300 1.197200
17.696900 1.206500
17.770500 1.198300
17.844100 1.211900
17.917800 1.181100
17.991400 1.188100
18.065000 1.166300
18.138600 1.156400
18.212300 1.125500
18.285900 1.170000
18.359500 1.226700
18.433200 0.777900
18.506800 0.582100
18.580400 0.368100
18.654000 0.416100
18.727700 0.483100
18.801300 0.587100
18.874900 0.696800
18.948500 0.865700
19.022200 1.457100
19.095800 1.135800
19.169400 1.127800
19.243000 1.171300
19.316700 1.287300
19.390300 1.432700
19.463900 1.615900
19.537600 1.938900
19.611200 2.782400
19.684800 2.420100
19.758400 2.231300
19.832100 2.115700
19.905700 1.046600
19.979300 0.575000
20.052900 0.354300
20.126600 0.191600
20.200200 0.152500
20.273800 0.154800
20.347500 0.155500
20.421100 0.171900
20.494700 0.215100
20.568300 0.250000
20.642000 0.318000
20.715600 0.355300
20.789200 0.404500
20.862800 0.420900
20.936500 0.455000
21.010100 0.484700
21.083700 0.501900
21.157300 0.520700
21.231000 0.548800
21.304600 0.587600
21.378200 0.636500
21.451900 0.700100
21.525500 0.790700
21.599100 0.883800
21.672700 0.878700
21.746400 0.907500
21.820000 0.911200
21.893600 0.926600
21.967200 0.935300
22.040900 0.952600
22.114500 0.993900
22.188100 1.085800
22.261800 0.992100
22.335400 0.952300
22.409000 0.929100
22.482600 1.006200
22.556300 0.987000
22.629900 0.903100
22.703500 0.797300
22.777100 0.748200
22.850800 0.701000
22.924400 0.712200
22.998000 0.717400
23.071600 0.724000
23.145300 0.728100
23.218900 0.748700
23.292500 0.761400
23.366200 0.783800
23.439800 0.810100
23.513400 0.911100
23.587000 1.078200
23.660700 1.216300
23.734300 1.241000
23.807900 1.270900
23.881500 1.383200
23.955200 1.439800
24.028800 1.449000
24.102400 1.362400
24.176000 1.311700
24.249700 1.246300
24.323300 1.088100
24.396900 1.086600
24.470600 1.088500
24.544200 1.085000
24.617800 1.116500
24.691400 1.074200
24.765100 1.031300
24.838700 0.967400
24.912300 0.894600
24.985900 0.935000
25.059600 1.009100
25.133200 1.137900
25.206800 1.281200
25.280500 1.460500
25.354100 1.425700
25.427700 1.412900
25.501300 1.401700
25.575000 1.348300
25.648600 1.380200
25.722200 1.423300
25.795800 1.364800
25.869500 1.236500
25.943100 1.130600
26.016700 1.021600
26.090300 0.954400
26.164000 0.930000
26.237600 0.949900
26.311200 0.984400
26.384900 0.872800
26.458500 0.795200
26.532100 0.966100
26.605700 1.041200
26.679400 1.292000
26.753000 1.318000
26.826600 1.324300
26.900200 1.386300
26.973900 1.428700
27.047500 1.547200
27.121100 1.696600
27.194800 1.691800
27.268400 1.533300
27.342000 1.358300
27.415600 1.351300
27.489300 1.111100
27.562900 1.045900
27.636500 1.342000
27.710100 1.623000
27.783800 1.714800
27.857400 1.618300
27.931000 1.687700
28.004600 1.769600
28.078300 1.697500
28.151900 1.643100
28.225500 1.585500
28.299200 1.564900
28.372800 1.702300
28.446400 1.742100
28.520000 1.606900
28.593700 1.535300
28.667300 1.560800
28.740900 1.509700
28.814500 1.471600
28.888200 1.383600
28.961800 1.322400
29.035400 1.320300
29.109100 1.394900
29.182700 1.357300
29.256300 1.312400
29.329900 1.234400
29.403600 1.201700
29.477200 1.174500
29.550800 1.189800
29.624400 1.149600
29.698100 1.117000
29.771700 1.070700
29.845300 1.055600
29.918900 1.028100
29.992600 0.990800
30.066200 0.947300
30.139800 0.910600
30.213500 0.877200
30.287100 0.857100
30.360700 0.849300
30.434300 0.854500
30.508000 0.850600
30.581600 0.843400
30.655200 0.834200
30.728800 0.848300
30.802500 0.882900
30.876100 0.857000
30.949700 0.815300
31.023400 0.816700
31.097000 0.795200
31.170600 0.788000
31.244200 0.742800
31.317900 0.686000
31.391500 0.649800
31.465100 0.644000
31.538700 0.631800
31.612400 0.626200
31.686000 0.634000
31.759600 0.674200
31.833200 0.742500
31.906900 0.843000
31.980500 1.303500
32.054100 1.411400
32.127800 1.568000
32.201400 1.484800
32.275000 1.348700
32.348600 1.350300
32.422300 1.327400
32.495900 1.272100
32.569500 1.314500
32.643100 1.256800
32.716800 1.234000
32.790400 1.219000
32.864000 1.284700
32.937600 1.086200
33.011300 0.997200
33.084900 1.146500
33.158500 1.222600
33.232200 1.271700
33.305800 1.260800
33.379400 1.385900
33.453000 1.479800
33.526700 1.730600
33.600300 1.792100
33.673900 1.720300
33.747500 1.642800
33.821200 1.585000
33.894800 1.599100
33.968400 1.617500
34.042100 1.633400
34.115700 1.753100
34.189300 1.786000
34.262900 1.716500
34.336600 1.759300
34.410200 1.592100
34.483800 1.580800
34.557400 1.401000
34.631100 1.127700
34.704700 1.004600
34.778300 0.950100
34.851900 0.975100
34.925600 1.057400
34.999200 1.118600
35.072800 1.196300
35.146500 1.334900
35.220100 1.357900
35.293700 1.466700
35.367300 1.441300
35.441000 1.433400
35.514600 1.447900
35.588200 1.480100
35.661800 1.572800
35.735500 1.840500
35.809100 1.909700
35.882700 1.954700
35.956400 2.442500
36.030000 3.323900
36.103600 3.469000
36.177200 3.709500
36.250900 2.780400
36.324500 2.938200
36.398100 3.368400
36.471700 3.550200
36.545400 2.955300
36.619000 2.045100
36.692600 1.807700
36.766200 1.675400
36.839900 1.666900
36.913500 1.679800
36.987100 1.964200
37.060800 1.695300
37.134400 1.602300
37.208000 1.607000
37.281600 1.525200
37.355300 1.543200
37.428900 1.479000
37.502500 1.373400
37.576100 1.342600
37.649800 1.372800
37.723400 1.344100
37.797000 1.304000
37.870700 1.147600
37.944300 0.962800
38.017900 0.898300
38.091500 0.954200
38.165200 0.989900
38.238800 1.094600
38.312400 1.122400
38.386000 1.017900
38.459700 1.099500
38.533300 1.172100
38.606900 1.212600
38.680500 1.307700
38.754200 1.367900
38.827800 1.348800
38.901400 1.387200
38.975100 1.338000
39.048700 1.238800
39.122300 1.023800
39.195900 0.973800
39.269600 0.964900
39.343200 1.083300
39.416800 1.255100
39.490400 1.355300
39.564100 1.694100
39.637700 2.175600
39.711300 2.357300
39.785000 2.348300
39.858600 2.241400
39.932200 2.189600
40.005800 2.156600
40.079500 2.088800
40.153100 2.345600
40.226700 2.315600
40.300300 1.971200
40.374000 1.827200
40.447600 1.963000
40.521200 1.574300
40.594800 1.574300
40.668500 1.560900
40.742100 1.567100
40.815700 1.585800
40.889400 1.711100
40.963000 1.966100
41.036600 1.910000
41.110200 1.792600
41.183900 1.724300
41.257500 1.620100
41.331100 1.491200
41.404700 1.501300
41.478400 1.437900
41.552000 1.309900
41.625600 1.196500
41.699300 1.001800
41.772900 0.856300
41.846500 0.824900
41.920100 0.732100
41.993800 0.793100
42.067400 0.826000
42.141000 0.913000
42.214600 0.995900
42.288300 1.052400
42.361900 1.062400
42.435500 1.185200
42.509100 1.175000
42.582800 1.162500
42.656400 1.176600
42.730000 1.190900
42.803700 1.175000
42.877300 1.160700
42.950900 1.156300
43.024500 1.112700
43.098200 1.100800
43.171800 1.102200
43.245400 1.061700
43.319000 1.070000
43.392700 1.119600
43.466300 1.171700
43.539900 1.179400
43.613500 1.195000
43.687200 1.203600
43.760800 1.221800
43.834400 1.272300
43.908100 1.315400
43.981700 1.362300
44.055300 1.378600
44.128900 1.527700
44.202600 1.564800
44.276200 1.524900
44.349800 1.411700
44.423400 1.299900
44.497100 1.211800
44.570700 1.185500
44.644300 1.234200
44.718000 1.386600
44.791600 1.387200
44.865200 1.440300
44.938800 1.528800
45.012500 1.599500
45.086100 1.668300
45.159700 1.844500
45.233300 1.596000
45.307000 1.592100
45.380600 1.600600
45.454200 1.509900
45.527800 1.511000
45.601500 1.572500
45.675100 1.633900
45.748700 1.644100
45.822400 1.572400
45.896000 1.428900
45.969600 1.315700
46.043200 1.269600
46.116900 1.333600
46.190500 1.474200
46.264100 1.603000
46.337700 1.780300
46.411400 1.629700
46.485000 1.629600
46.558600 1.718000
46.632300 1.752900
46.705900 1.578800
46.779500 1.607000
46.853100 1.800400
46.926800 1.668000
47.000400 1.693100
47.074000 1.816000
47.147600 1.769500
47.221300 1.797100
47.294900 1.823700
47.368500 1.857100
47.442100 1.654900
47.515800 1.525500
47.589400 1.524600
47.663000 1.575100
47.736700 1.669800
47.810300 1.681700
47.883900 1.752700
47.957500 1.859600
48.031200 1.887600
48.104800 1.792200
48.178400 1.730000
48.252000 1.788600
48.325700 1.652200
48.399300 1.534200
48.472900 1.499100
48.546600 1.461700
48.620200 1.439600
48.693800 1.528000
48.767400 1.501500
48.841100 1.530300
48.914700 1.529100
48.988300 1.600300
49.061900 1.584100
49.135600 1.479400
49.209200 1.405500
49.282800 1.378700
49.356400 1.367900
49.430100 1.438800
49.503700 1.499800
49.577300 1.576800
49.651000 1.624900
49.724600 1.626000
49.798200 1.536000
49.871800 1.471500
49.945500 1.459800
50.019100 1.452100
50.092700 1.474600
50.166300 1.494000
50.240000 1.544000
50.313600 1.589500
50.387200 1.769100
50.460900 1.695800
50.534500 1.569300
50.608100 1.561800
50.681700 1.518100
50.755400 1.499900
50.829000 1.451200
50.902600 1.390500
50.976200 1.422000
51.049900 1.517500
51.123500 1.603100
51.197100 1.621900
51.270700 1.724100
51.344400 1.794700
51.418000 1.800800
51.491600 1.784100
51.565300 1.797000
51.638900 1.747900
51.712500 1.689500
51.786100 1.609400
51.859800 1.571800
51.933400 1.675500
52.007000 1.579900
52.080600 1.471000
52.154300 1.425300
52.227900 1.430700
52.301500 1.461000
52.375100 1.579900
52.448800 1.536400
52.522400 1.587600
52.596000 1.640400
52.669700 1.692700
52.743300 1.754700
52.816900 1.686200
52.890500 1.610300
52.964200 1.627800
53.037800 1.632100
53.111400 1.641700
53.185000 1.707000
53.258700 1.778200
53.332300 1.781500
53.405900 1.740700
53.479600 1.683500
53.553200 1.555900
53.626800 1.514600
53.700400 1.486400
53.774100 1.367900
53.847700 1.292300
53.921300 1.293600
53.994900 1.281400
54.068600 1.367500
54.142200 1.391300
54.215800 1.447500
54.289400 1.504600
54.363100 1.549000
54.436700 1.506100
54.510300 1.517100
54.584000 1.500100
54.657600 1.501000
54.731200 1.519800
54.804800 1.518400
54.878500 1.561500
54.952100 1.708000
55.025700 1.632900
55.099300 1.624000
55.173000 1.586400
55.246600 1.568700
55.320200 1.552500
55.393900 1.592600
55.467500 1.514400
55.541100 1.354000
55.614700 1.338500
55.688400 1.455000
55.762000 1.549300
55.835600 1.566200
55.909200 1.612100
55.982900 1.851500
56.056500 2.052900
56.130100 2.052800
56.203700 2.077300
56.277400 2.097200
56.351000 2.070300
56.424600 2.065300
56.498300 1.970800
56.571900 1.934400
56.645500 1.898800
56.719100 1.832700
56.792800 1.676000
56.866400 1.598900
56.940000 1.449000
57.013600 1.516700
57.087300 1.621100
57.160900 1.753100
57.234500 1.952800
57.308200 2.142600
57.381800 2.280800
57.455400 2.331000
57.529000 2.256100
57.602700 2.197900
57.676300 1.860800
57.749900 1.724300
57.823500 1.688000
57.897200 1.705600
57.970800 1.850000
58.044400 1.879300
58.118000 1.921400
58.191700 1.889500
58.265300 1.919400
58.338900 1.977200
58.412600 2.047600
58.486200 2.039900
58.559800 2.127400
58.633400 1.798900
58.707100 1.666200
58.780700 1.562500
58.854300 1.460500
58.927900 1.487300
59.001600 1.465700
59.075200 1.434400
59.148800 1.397600
59.222500 1.436800
59.296100 1.524400
59.369700 1.581900
59.443300 1.618600
59.517000 1.662500
59.590600 1.636700
59.664200 1.598500
59.737800 1.561200
59.811500 1.565800
59.885100 1.568500
59.958700 1.626100
60.032300 1.728000
60.106000 1.736700
60.179600 1.733000
60.253200 1.722200
60.326900 1.765000
60.400500 1.823800
60.474100 1.773800
60.547700 1.813100
60.621400 1.870600
60.695000 1.821300
60.768600 1.701800
60.842200 1.635000
60.915900 1.662300
60.989500 1.748800
61.063100 1.678000
61.136700 1.579500
61.210400 1.499600
61.284000 1.495500
61.357600 1.474000
61.431300 1.463200
61.504900 1.494800
61.578500 1.559400
61.652100 1.595900
61.725800 1.563800
61.799400 1.518100
61.873000 1.511000
61.946600 1.527100
62.020300 1.521100
62.093900 1.551600
62.167500 1.579400
62.241200 1.607700
62.314800 1.612200
62.388400 1.647900
62.462000 1.650800
62.535700 1.719100
62.609300 1.643600
62.682900 1.654800
62.756500 1.718700
62.830200 1.715500
62.903800 1.715600
62.977400 1.650100
63.051000 1.761300
63.124700 1.782000
63.198300 1.788500
63.271900 1.909300
63.345600 1.939400
63.419200 1.910200
63.492800 1.898100
63.566400 1.776600
63.640100 1.650600
63.713700 1.590300
63.787300 1.542200
63.860900 1.525700
63.934600 1.512200
64.008200 1.585400
64.081800 1.742300
64.155500 1.829500
64.229100 1.862400
64.302700 1.906900
64.376300 1.872800
64.450000 1.721300
64.523600 1.600400
64.597200 1.496500
64.670800 1.428900
64.744500 1.486600
64.818100 1.545100
64.891700 1.511800
64.965300 1.603500
65.039000 1.762200
65.112600 1.857600
65.186200 1.944600
65.259900 1.988000
65.333500 2.022000
65.407100 1.948500
65.480700 1.675900
65.554400 1.687800
65.628000 1.654900
65.701600 1.636400
65.775200 1.657000
65.848900 1.619800
65.922500 1.589300
65.996100 1.595700
66.069800 1.604400
66.143400 1.718000
66.217000 1.827900
66.290600 1.819700
66.364300 1.727000
66.437900 1.711000
66.511500 1.647700
66.585100 1.585100
66.658800 1.573400
66.732400 1.599800
66.806000 1.738800
66.879600 1.771200
66.953300 1.884500
67.026900 1.964600
67.100500 1.968900
67.174200 1.914200
67.247800 1.869500
67.321400 1.818700
67.395000 1.841000
67.468700 1.761900
67.542300 1.765500
67.615900 1.718500
67.689500 1.686900
67.763200 1.647900
67.836800 1.656700
67.910400 1.656700
67.984100 1.672100
68.057700 1.621900
68.131300 1.624700
68.204900 1.583300
68.278600 1.614600
68.352200 1.542900
68.425800 1.528800
68.499400 1.539000
68.573100 1.559000
68.646700 1.574300
68.720300 1.604700
68.793900 1.674000
68.867600 1.703600
68.941200 1.708200
69.014800 1.778700
69.088500 1.771400
69.162100 1.760100
69.235700 1.863100
69.309300 1.922800
69.383000 1.931700
69.456600 1.885500
69.530200 1.879800
69.603800 1.885300
69.677500 1.848000
69.751100 1.889700
69.824700 1.940200
69.898300 1.897900
69.972000 1.812500
70.045600 1.732000
70.119200 1.730000
70.192900 1.827100
70.266500 1.831200
70.340100 1.750300
70.413700 1.671300
70.487400 1.653900
70.561000 1.625000
70.634600 1.631100
70.708200 1.643200
70.781900 1.650800
70.855500 1.643700
70.929100 1.745900
71.002800 1.794400
71.076400 1.798800
71.150000 1.810600
71.223600 1.889600
71.297300 1.974500
71.370900 2.039400
71.444500 1.987800
71.518100 2.010000
71.591800 1.951400
71.665400 1.856500
71.739000 1.702400
71.812600 1.644900
71.886300 1.608700
71.959900 1.494800
72.033500 1.483700
72.107200 1.498000
72.180800 1.606300
72.254400 1.564800
72.328000 1.570900
72.401700 1.566100
72.475300 1.600800
72.548900 1.674300
72.622500 1.833500
72.696200 1.865700
72.769800 1.899300
72.843400 1.871200
72.917100 1.876700
72.990700 1.954200
73.064300 1.838700
73.137900 1.757900
73.211600 1.684200
73.285200 1.704500
73.358800 1.715800
73.432400 1.759100
73.506100 1.830900
73.579700 1.879500
73.653300 1.893300
73.726900 1.848500
73.800600 1.799000
73.874200 1.709000
73.947800 1.685600
74.021500 1.711400
74.095100 1.763300
74.168700 1.841200
74.242300 1.966700
74.316000 2.074500
74.389600 2.001200
74.463200 1.977800
74.536800 2.052800
74.610500 2.075100
74.684100 2.078400
74.757700 2.032500
74.831400 1.980000
74.905000 1.860300
74.978600 1.725200
75.052200 1.640800
75.125900 1.591700
75.199500 1.591100
75.273100 1.623500
75.346700 1.712300
75.420400 1.794900
75.494000 1.857000
75.567600 2.006500
75.641200 1.986800
75.714900 1.963700
75.788500 1.994800
75.862100 2.039700
75.935800 2.097800
76.009400 1.881600
76.083000 1.770900
76.156600 1.623000
76.230300 1.519000
76.303900 1.467200
76.377500 1.430200
76.451100 1.393900
76.524800 1.316100
76.598400 1.354600
76.672000 1.415900
76.745700 1.485600
76.819300 1.565800
76.892900 1.667300
76.966500 1.760400
77.040200 1.937100
77.113800 2.055100
77.187400 2.070200
77.261000 2.088400
77.334700 1.978700
77.408300 1.879200
77.481900 1.787200
77.555500 1.812300
77.629200 1.887800
77.702800 2.039500
77.776400 2.067300
77.850100 2.012700
77.923700 1.949900
77.997300 1.845900
78.070900 1.824600
78.144600 1.762500
78.218200 1.659100
78.291800 1.662000
78.365400 1.757900
78.439100 1.864600
78.512700 1.979800
78.586300 1.984600
78.659900 1.930700
78.733600 1.895200
78.807200 1.838900
78.880800 1.802800
78.954500 1.768500
79.028100 1.742100
79.101700 1.715900
79.175300 1.692900
79.249000 1.678900
79.322600 1.682200
79.396200 1.628700
79.469800 1.593800
79.543500 1.598900
79.617100 1.608700
79.690700 1.644200
79.764400 1.749500
79.838000 1.904400
79.911600 2.002500
79.985200 2.052600
80.058900 2.130000
80.132500 2.108600
80.206100 2.129700
80.279700 2.118600
80.353400 2.022000
80.427000 1.961700
80.500600 1.848800
80.574200 1.801000
80.647900 1.852500
80.721500 1.883000
80.795100 1.926500
80.868800 1.936200
80.942400 1.961600
81.016000 1.912500
81.089600 1.842500
81.163300 1.756700
81.236900 1.738400
81.310500 1.722600
81.384100 1.702800
81.457800 1.716200
81.531400 1.757800
81.605000 1.821600
81.678700 1.859200
81.752300 1.901700
81.825900 1.943400
81.899500 1.870100
81.973200 1.862500
82.046800 1.859900
82.120400 1.839300
82.194000 1.848500
82.267700 1.875100
82.341300 1.922900
82.414900 1.906300
82.488500 1.959600
82.562200 2.029000
82.635800 1.997600
82.709400 1.934900
82.783100 1.950600
82.856700 1.910000
82.930300 1.973800
83.003900 1.982000
83.077600 1.959800
83.151200 1.966500
83.224800 1.914200
83.298400 1.883200
83.372100 1.811100
83.445700 1.774600
83.519300 1.752900
83.593000 1.703800
83.666600 1.690500
83.740200 1.655300
83.813800 1.725300
83.887500 1.737000
83.961100 1.757100
84.034700 1.830400
84.108300 1.920900
84.182000 1.981000
84.255600 1.969100
84.329200 1.925100
84.402800 1.892600
84.476500 1.875700
84.550100 1.826900
84.623700 1.746300
84.697400 1.704600
84.771000 1.715400
84.844600 1.724900
84.918200 1.780600
84.991900 1.858100
85.065500 1.859900
85.139100 1.905300
85.212700 1.922400
85.286400 1.915600
85.360000 1.864400
85.433600 1.827500
85.507300 1.817800
85.580900 1.874600
85.654500 1.953000
85.728100 2.007100
85.801800 2.098300
85.875400 2.153300
85.949000 2.209200
86.022600 2.274400
86.096300 2.241100
86.169900 2.150500
86.243500 2.118000
86.317100 2.123300
86.390800 2.160900
86.464400 2.077800
86.538000 1.963900
86.611700 1.878100
86.685300 1.819600
86.758900 1.808600
86.832500 1.854600
86.906200 1.900400
86.979800 1.918300
87.053400 1.985200
87.127000 2.082500
87.200700 2.134600
87.274300 2.291500
87.347900 2.309000
87.421600 2.149400
87.495200 1.911100
87.568800 1.932000
87.642400 1.998200
87.716100 2.103300
87.789700 2.242400
87.863300 2.320300
87.936900 2.314900
88.010600 2.266800
88.084200 2.236000
88.157800 2.315600
88.231400 2.388000
88.305100 2.274100
88.378700 2.132100
88.452300 2.095600
88.526000 1.915900
88.599600 1.844400
88.673200 1.761300
88.746800 1.815300
88.820500 1.840800
88.894100 1.944400
88.967700 2.037700
89.041300 2.132100
89.115000 2.089000
89.188600 2.002400
89.262200 1.977400
89.335800 2.001100
89.409500 1.983600
89.483100 1.935200
89.556700 1.882300
89.630400 1.884000
89.704000 1.813600
89.777600 1.746400
89.851200 1.796900
89.924900 1.867900
89.998500 1.894700
90.072100 1.925500
90.145700 1.951800
90.219400 1.968200
90.293000 1.903700
90.366600 1.837000
90.440300 1.881100
90.513900 1.967800
90.587500 1.980000
90.661100 1.737500
90.734800 1.692200
90.808400 1.787000
90.882000 1.902600
90.955600 2.089500
91.029300 2.203300
91.102900 2.230300
91.176500 2.091300
91.250100 1.974600
91.323800 1.830900
91.397400 1.691400
91.471000 1.586400
91.544700 1.651500
91.618300 1.779400
91.691900 1.926200
91.765500 2.047000
91.839200 2.105600
91.912800 2.083700
91.986400 2.149500
92.060000 2.139500
92.133700 2.102500
92.207300 2.043600
92.280900 1.956100
92.354600 1.898700
92.428200 1.939300
92.501800 2.053400
92.575400 2.221500
92.649100 2.172800
92.722700 2.058000
92.796300 1.994900
92.869900 1.912500
92.943600 1.869800
93.017200 1.886100
93.090800 1.968500
93.164400 2.070300
93.238100 2.082800
93.311700 2.067600
93.385300 2.070900
93.459000 2.127000
93.532600 2.126300
93.606200 2.156200
93.679800 2.226700
93.753500 2.265400
93.827100 2.303500
93.900700 2.231900
93.974300 2.118900
94.048000 2.044300
94.121600 2.042000
94.195200 2.023900
94.268900 1.980900
94.342500 1.968200
94.416100 1.927400
94.489700 1.913600
94.563400 1.946200
94.637000 1.919200
94.710600 1.940400
94.784200 1.960600
94.857900 2.010200
94.931500 2.073700
95.005100 2.026700
95.078700 2.086000
95.152400 2.077600
95.226000 2.049100
95.299600 2.040600
95.373300 2.068700
95.446900 2.006700
95.520500 1.895800
95.594100 1.787400
95.667800 1.713400
95.741400 1.525000
95.815000 1.467200
95.888600 1.431800
95.962300 1.400400
96.035900 1.418000
96.109500 1.311200
96.183200 1.206800
96.256800 1.053900
96.330400 0.909900
96.404000 0.774300
96.477700 0.678200
96.551300 0.674600
96.624900 0.562700
96.698500 0.526300
96.772200 0.519200
96.845800 0.486600
96.919400 0.464100
96.993000 0.442100
97.066700 0.426400
97.140300 0.425300
97.213900 0.443900
97.287600 0.435700
97.361200 0.367400
97.434800 0.345500
97.508400 0.337600
97.582100 0.338200
97.655700 0.333200
97.729300 0.323300
97.802900 0.295600
97.876600 0.263800
97.950200 0.228400
98.023800 0.203900
98.097400 0.190100
98.171100 0.172500
98.244700 0.147200
98.318300 0.135400
98.392000 0.129700
98.465600 0.125200
98.539200 0.121400
98.612800 0.117900
98.686500 0.115800
98.760100 0.115000
98.833700 0.113500
98.907300 0.107800
98.981000 0.098300
99.054600 0.077300
99.128200 0.048000
99.201900 0.052100
99.275500 0.046900
99.349100 0.043900
99.422700 0.041100
99.496400 0.038300
99.570000 0.035700
99.643600 0.033100
99.717200 0.030600
99.790900 0.028200
99.864500 0.025900
99.938100 0.028200
100.011700 0.028800
100.085400 0.024400
100.159000 0.017300
100.232600 0.012800
100.306300 0.010800
100.379900 0.010200
100.453500 0.009700
100.527100 0.008900
100.600800 0.007300
100.674400 0.005700
100.748000 0.004200
100.821600 0.002700
100.895300 0.001300
100.968900 0.000100
101.042500 0.000000
101.116200 0.000000
101.189800 0.000000
101.263400 0.000000
101.337000 0.000000
101.410700 0.000000
101.484300 0.000000
101.557900 0.000000
101.631500 0.000000
101.705200 0.000000
101.778800 0.000000
101.852400 0.000000
101.926000 0.000000
101.999700 0.000000
102.073300 0.000000
102.146900 0.000000
102.220600 0.000000
102.294200 0.000000
102.367800 0.000000
102.441400 0.000000
102.515100 0.000000
102.588700 0.000000
102.662300 0.000000
102.735900 0.000000
102.809600 0.000000
102.883200 0.000000
102.956800 0.000000
103.030500 0.000000
103.104100 0.000000
103.177700 0.000000
103.251300 0.000000
103.325000 0.000000
103.398600 0.000000
103.472200 0.000000
103.545800 0.000000
103.619500 0.000000
103.693100 0.000000
103.766700 0.000000
103.840300 0.000000
103.914000 0.000000
103.987600 0.000000
104.061200 0.000000
104.134900 0.000000
104.208500 0.000000
104.282100 0.000000
104.355700 0.000000
104.429400 0.000000
104.503000 0.000000
104.576600 0.000000
104.650200 0.000000
104.723900 0.000000
104.797500 0.000000
104.871100 0.000000
104.944800 0.000000
105.018400 0.000000
105.092000 0.000000
105.165600 0.000000
105.239300 0.000000
105.312900 0.000000
105.386500 0.000000
105.460100 0.000000
105.533800 0.000000
105.607400 0.000000
105.681000 0.000000
105.754600 0.000000
105.828300 0.000000
105.901900 0.000000
105.975500 0.000000
106.049200 0.000000
106.122800 0.000000
106.196400 0.000000
106.270000 0.000000
106.343700 0.000000
106.417300 0.000000
106.490900 0.000000
106.564500 0.000000
106.638200 0.000000
106.711800 0.000000
106.785400 0.000000
106.859000 0.000000
106.932700 0.000000
107.006300 0.000000
107.079900 0.000000
107.153600 0.000000
107.227200 0.000000
107.300800 0.000000
107.374400 0.000000
107.448100 0.000000
107.521700 0.000000
107.595300 0.000000
107.668900 0.000000
e
