set title 'mp-1581 - Density of States'
set xlabel 'Energy (eV)'
set ylabel 'DOS (states/eV)'
set grid
set xrange [-10:10]
set yrange [0:38.369]
set xzeroaxis lt -1
set terminal png size 800,600
set output 'mp-1581_dos_gnuplot.png'
plot '-' using 1:2 with lines title 'DOS'
-21.491400 0.000000
-21.470500 0.000000
-21.449600 0.000000
-21.428800 0.000000
-21.407900 0.000000
-21.387000 0.000000
-21.366200 0.000000
-21.345300 0.000000
-21.324400 0.000000
-21.303600 0.000000
-21.282700 0.000000
-21.261800 0.000000
-21.240900 0.000000
-21.220100 0.000000
-21.199200 0.000000
-21.178300 0.000000
-21.157500 0.000000
-21.136600 0.000000
-21.115700 0.000000
-21.094900 0.000000
-21.074000 0.000000
-21.053100 0.000000
-21.032200 0.000000
-21.011400 0.000000
-20.990500 0.000000
-20.969600 0.000000
-20.948800 0.000000
-20.927900 0.000000
-20.907000 0.000000
-20.886100 0.000000
-20.865300 0.000000
-20.844400 0.000000
-20.823500 0.000000
-20.802700 0.000000
-20.781800 0.000000
-20.760900 0.000000
-20.740100 0.000000
-20.719200 0.000000
-20.698300 0.000000
-20.677400 0.000000
-20.656600 0.000000
-20.635700 0.000000
-20.614800 0.000000
-20.594000 0.000000
-20.573100 0.000000
-20.552200 0.000000
-20.531400 0.000000
-20.510500 0.000000
-20.489600 0.000000
-20.468700 0.000000
-20.447900 0.000000
-20.427000 0.000000
-20.406100 0.000000
-20.385300 0.000000
-20.364400 0.000000
-20.343500 0.000000
-20.322700 0.000000
-20.301800 0.000000
-20.280900 0.000000
-20.260000 0.000000
-20.239200 0.000000
-20.218300 0.000000
-20.197400 0.000000
-20.176600 0.000000
-20.155700 0.000000
-20.134800 0.000000
-20.113900 0.000000
-20.093100 0.000000
-20.072200 0.000000
-20.051300 0.000000
-20.030500 0.000000
-20.009600 0.000000
-19.988700 0.000000
-19.967900 0.000000
-19.947000 0.000000
-19.926100 0.000000
-19.905200 0.000000
-19.884400 0.000000
-19.863500 0.000000
-19.842600 0.000000
-19.821800 0.000000
-19.800900 0.000000
-19.780000 0.000000
-19.759200 0.000000
-19.738300 0.000000
-19.717400 0.000000
-19.696500 0.000000
-19.675700 0.000000
-19.654800 0.000000
-19.633900 0.000000
-19.613100 0.000000
-19.592200 0.004300
-19.571300 0.622900
-19.550500 2.243200
-19.529600 4.525300
-19.508700 6.842400
-19.487800 11.294900
-19.467000 11.553800
-19.446100 13.156000
-19.425200 11.618900
-19.404400 8.476500
-19.383500 7.734700
-19.362600 5.798400
-19.341700 5.806100
-19.320900 5.813800
-19.300000 5.821500
-19.279100 5.829200
-19.258300 5.807400
-19.237400 5.695000
-19.216500 5.709600
-19.195700 8.551400
-19.174800 11.915000
-19.153900 12.949300
-19.133000 13.318800
-19.112200 13.102800
-19.091300 12.007900
-19.070400 12.403600
-19.049600 12.799200
-19.028700 13.194800
-19.007800 13.590400
-18.987000 13.953900
-18.966100 13.466900
-18.945200 13.455000
-18.924300 10.229800
-18.903500 16.218000
-18.882600 22.676300
-18.861700 7.398400
-18.840900 6.734700
-18.820000 6.071000
-18.799100 5.407200
-18.778300 4.743400
-18.757400 4.079600
-18.736500 3.415700
-18.715600 2.751700
-18.694800 2.087700
-18.673900 1.423700
-18.653000 0.759600
-18.632200 0.095400
-18.611300 0.000000
-18.590400 0.000000
-18.569500 0.038100
-18.548700 0.204700
-18.527800 0.520600
-18.506900 1.000900
-18.486100 1.518300
-18.465200 2.036100
-18.444300 2.554300
-18.423500 3.073000
-18.402600 3.592100
-18.381700 4.111600
-18.360800 4.631500
-18.340000 5.151900
-18.319100 5.710600
-18.298200 6.398800
-18.277400 7.219700
-18.256500 8.169500
-18.235600 29.651100
-18.214800 16.195100
-18.193900 11.170100
-18.173000 11.110500
-18.152100 10.903000
-18.131300 10.607900
-18.110400 10.312000
-18.089500 10.015900
-18.068700 9.719800
-18.047800 9.423600
-18.026900 10.401000
-18.006100 10.166500
-17.985200 10.122500
-17.964300 10.325100
-17.943400 7.146700
-17.922600 6.595100
-17.901700 6.333300
-17.880800 3.790700
-17.860000 3.862300
-17.839100 3.933900
-17.818200 4.005400
-17.797300 4.076900
-17.776500 4.129800
-17.755600 4.111700
-17.734700 4.093800
-17.713900 4.075900
-17.693000 4.058100
-17.672100 4.040400
-17.651300 4.022800
-17.630400 4.005300
-17.609500 5.428500
-17.588600 7.224400
-17.567800 8.152900
-17.546900 8.856900
-17.526000 9.197600
-17.505200 7.638700
-17.484300 6.717800
-17.463400 5.602700
-17.442600 5.386200
-17.421700 5.171700
-17.400800 4.278700
-17.379900 2.912800
-17.359100 67.025500
-17.338200 59.770800
-17.317300 98.628700
-17.296500 34.546300
-17.275600 30.090500
-17.254700 35.147600
-17.233900 0.000000
-17.213000 0.000000
-17.192100 0.000000
-17.171200 0.000000
-17.150400 0.000000
-17.129500 0.000000
-17.108600 0.000000
-17.087800 0.000000
-17.066900 0.000000
-17.046000 0.000000
-17.025200 0.000000
-17.004300 0.000000
-16.983400 0.000000
-16.962500 0.000000
-16.941700 0.000000
-16.920800 0.000000
-16.899900 0.000000
-16.879100 0.000000
-16.858200 0.000000
-16.837300 0.000000
-16.816400 0.000000
-16.795600 0.000000
-16.774700 0.000000
-16.753800 0.000000
-16.733000 0.000000
-16.712100 0.000000
-16.691200 0.000000
-16.670400 0.000000
-16.649500 0.000000
-16.628600 0.000000
-16.607700 0.000000
-16.586900 0.000000
-16.566000 0.000000
-16.545100 0.000000
-16.524300 0.000000
-16.503400 0.000000
-16.482500 0.000000
-16.461700 0.000000
-16.440800 0.000000
-16.419900 0.000000
-16.399000 0.000000
-16.378200 0.000000
-16.357300 0.000000
-16.336400 0.000000
-16.315600 0.000000
-16.294700 0.000000
-16.273800 0.000000
-16.253000 0.000000
-16.232100 0.000000
-16.211200 0.000000
-16.190300 0.000000
-16.169500 0.000000
-16.148600 0.000000
-16.127700 0.000000
-16.106900 0.000000
-16.086000 0.000000
-16.065100 0.000000
-16.044200 0.000000
-16.023400 0.000000
-16.002500 0.000000
-15.981600 0.000000
-15.960800 0.000000
-15.939900 0.000000
-15.919000 0.000000
-15.898200 0.000000
-15.877300 0.000000
-15.856400 0.000000
-15.835500 0.000000
-15.814700 0.000000
-15.793800 0.000000
-15.772900 0.000000
-15.752100 0.000000
-15.731200 0.000000
-15.710300 0.000000
-15.689500 0.000000
-15.668600 0.000000
-15.647700 0.000000
-15.626800 0.000000
-15.606000 0.000000
-15.585100 0.000000
-15.564200 0.000000
-15.543400 0.000000
-15.522500 0.000000
-15.501600 0.000000
-15.480800 0.000000
-15.459900 0.000000
-15.439000 0.000000
-15.418100 0.000000
-15.397300 0.000000
-15.376400 0.000000
-15.355500 0.000000
-15.334700 0.000000
-15.313800 0.000000
-15.292900 0.000000
-15.272000 0.000000
-15.251200 0.000000
-15.230300 0.000000
-15.209400 0.000000
-15.188600 0.000000
-15.167700 0.000000
-15.146800 0.000000
-15.126000 0.000000
-15.105100 0.000000
-15.084200 0.000000
-15.063300 0.000000
-15.042500 0.000000
-15.021600 0.000000
-15.000700 0.000000
-14.979900 0.000000
-14.959000 0.000000
-14.938100 0.000000
-14.917300 0.000000
-14.896400 0.000000
-14.875500 0.000000
-14.854600 0.000000
-14.833800 0.000000
-14.812900 0.000000
-14.792000 0.000000
-14.771200 0.000000
-14.750300 0.000000
-14.729400 0.000000
-14.708600 0.000000
-14.687700 0.000000
-14.666800 0.000000
-14.645900 0.000000
-14.625100 0.000000
-14.604200 0.000000
-14.583300 0.000000
-14.562500 0.000000
-14.541600 0.000000
-14.520700 0.000000
-14.499800 0.000000
-14.479000 0.000000
-14.458100 0.000000
-14.437200 0.000000
-14.416400 0.000000
-14.395500 0.000000
-14.374600 0.000000
-14.353800 0.000000
-14.332900 0.000000
-14.312000 0.000000
-14.291100 0.000000
-14.270300 0.000000
-14.249400 0.000000
-14.228500 0.000000
-14.207700 0.000000
-14.186800 0.000000
-14.165900 0.000000
-14.145100 0.000000
-14.124200 0.000000
-14.103300 0.000000
-14.082400 0.000000
-14.061600 0.000000
-14.040700 0.000000
-14.019800 0.000000
-13.999000 0.000000
-13.978100 0.000000
-13.957200 0.000000
-13.936400 0.000000
-13.915500 0.000000
-13.894600 0.000000
-13.873700 0.000000
-13.852900 0.000000
-13.832000 0.000000
-13.811100 0.000000
-13.790300 0.000000
-13.769400 0.000000
-13.748500 0.000000
-13.727600 0.000000
-13.706800 0.000000
-13.685900 0.000000
-13.665000 0.000000
-13.644200 0.000000
-13.623300 0.000000
-13.602400 0.000000
-13.581600 0.000000
-13.560700 0.000000
-13.539800 0.000000
-13.518900 0.000000
-13.498100 0.000000
-13.477200 0.000000
-13.456300 0.000000
-13.435500 0.000000
-13.414600 0.000000
-13.393700 0.000000
-13.372900 0.000000
-13.352000 0.000000
-13.331100 0.000000
-13.310200 0.000000
-13.289400 0.000000
-13.268500 0.000000
-13.247600 0.000000
-13.226800 0.000000
-13.205900 0.000000
-13.185000 0.000000
-13.164200 0.000000
-13.143300 0.000000
-13.122400 0.000000
-13.101500 0.000000
-13.080700 0.000000
-13.059800 0.000000
-13.038900 0.000000
-13.018100 0.000000
-12.997200 0.000000
-12.976300 0.000000
-12.955400 0.000000
-12.934600 0.000000
-12.913700 0.000000
-12.892800 0.000000
-12.872000 0.000000
-12.851100 0.000000
-12.830200 0.000000
-12.809400 0.000000
-12.788500 0.000000
-12.767600 0.000000
-12.746700 0.000000
-12.725900 0.000000
-12.705000 0.000000
-12.684100 0.000000
-12.663300 0.000000
-12.642400 0.000000
-12.621500 0.000000
-12.600700 0.000000
-12.579800 0.000000
-12.558900 0.000000
-12.538000 0.000000
-12.517200 0.000000
-12.496300 0.000000
-12.475400 0.000000
-12.454600 0.000000
-12.433700 0.000000
-12.412800 0.000000
-12.392000 0.000000
-12.371100 0.000000
-12.350200 0.000000
-12.329300 0.000000
-12.308500 0.000000
-12.287600 0.000000
-12.266700 0.000000
-12.245900 0.000000
-12.225000 0.000000
-12.204100 0.000000
-12.183200 0.000000
-12.162400 0.000000
-12.141500 0.000000
-12.120600 0.000000
-12.099800 0.000000
-12.078900 0.000000
-12.058000 0.000000
-12.037200 0.000000
-12.016300 0.000000
-11.995400 0.000000
-11.974500 0.000000
-11.953700 0.000000
-11.932800 0.000000
-11.911900 0.000000
-11.891100 0.000000
-11.870200 0.000000
-11.849300 0.000000
-11.828500 0.000000
-11.807600 0.000000
-11.786700 0.000000
-11.765800 0.000000
-11.745000 0.000000
-11.724100 0.000000
-11.703200 0.000000
-11.682400 0.000000
-11.661500 0.000000
-11.640600 0.000000
-11.619800 0.000000
-11.598900 0.000000
-11.578000 0.000000
-11.557100 0.000000
-11.536300 0.000000
-11.515400 0.000000
-11.494500 0.000000
-11.473700 0.000000
-11.452800 0.000000
-11.431900 0.000000
-11.411000 0.000000
-11.390200 0.000000
-11.369300 0.000000
-11.348400 0.000000
-11.327600 0.000000
-11.306700 0.000000
-11.285800 0.000000
-11.265000 0.000000
-11.244100 0.000000
-11.223200 0.000000
-11.202300 0.000000
-11.181500 0.000000
-11.160600 0.000000
-11.139700 0.028000
-11.118900 0.190700
-11.098000 0.497300
-11.077100 0.934200
-11.056300 1.395400
-11.035400 1.856200
-11.014500 2.316800
-10.993600 2.776900
-10.972800 3.197200
-10.951900 3.542600
-10.931000 3.812300
-10.910200 4.024900
-10.889300 4.765100
-10.868400 5.583800
-10.847600 6.131000
-10.826700 6.653700
-10.805800 6.775700
-10.784900 6.423400
-10.764100 6.047200
-10.743200 5.184000
-10.722300 4.547000
-10.701500 4.062800
-10.680600 3.486200
-10.659700 3.367700
-10.638800 3.380600
-10.618000 3.393500
-10.597100 3.406500
-10.576200 3.419500
-10.555400 3.432300
-10.534500 3.429900
-10.513600 3.401700
-10.492800 3.351800
-10.471900 3.284600
-10.451000 3.215700
-10.430100 3.147000
-10.409300 3.078300
-10.388400 3.005100
-10.367500 2.884300
-10.346700 2.832600
-10.325800 2.799200
-10.304900 2.778700
-10.284100 2.782700
-10.263200 2.786800
-10.242300 4.092900
-10.221400 4.984800
-10.200600 5.156300
-10.179700 5.328100
-10.158800 6.808400
-10.138000 7.421200
-10.117100 7.009900
-10.096200 7.254100
-10.075400 7.498700
-10.054500 7.288600
-10.033600 6.819600
-10.012700 6.960100
-9.991900 7.100700
-9.971000 7.241400
-9.950100 7.382100
-9.929300 6.230600
-9.908400 4.984600
-9.887500 24.092100
-9.866600 13.039400
-9.845800 11.340400
-9.824900 9.939200
-9.804000 5.167200
-9.783200 5.092300
-9.762300 5.007500
-9.741400 4.878700
-9.720600 4.703100
-9.699700 4.482800
-9.678800 4.220500
-9.657900 3.916300
-9.637100 3.581900
-9.616200 3.264400
-9.595300 2.981900
-9.574500 2.734300
-9.553600 2.517400
-9.532700 2.329700
-9.511900 2.171100
-9.491000 2.026700
-9.470100 1.882200
-9.449200 1.737700
-9.428400 1.593100
-9.407500 1.448500
-9.386600 1.303800
-9.365800 1.159100
-9.344900 1.014400
-9.324000 0.869600
-9.303200 0.724700
-9.282300 0.579900
-9.261400 0.434900
-9.240500 0.290000
-9.219700 0.150700
-9.198800 0.045300
-9.177900 0.000000
-9.157100 0.000000
-9.136200 0.000000
-9.115300 0.011300
-9.094400 0.122400
-9.073600 0.244900
-9.052700 0.367300
-9.031800 0.489800
-9.011000 0.612200
-8.990100 0.734600
-8.969200 0.857100
-8.948400 0.979500
-8.927500 1.101900
-8.906600 1.224400
-8.885700 1.346800
-8.864900 1.469200
-8.844000 1.591600
-8.823100 1.714000
-8.802300 1.836400
-8.781400 1.958900
-8.760500 2.081300
-8.739700 2.203700
-8.718800 2.326000
-8.697900 2.448400
-8.677000 2.570800
-8.656200 2.693200
-8.635300 2.815600
-8.614400 2.938000
-8.593600 3.060300
-8.572700 3.428200
-8.551800 4.535600
-8.531000 9.129300
-8.510100 9.082400
-8.489200 8.093700
-8.468300 6.820100
-8.447500 5.390100
-8.426600 6.188800
-8.405700 5.633000
-8.384900 4.873200
-8.364000 4.814000
-8.343100 4.863500
-8.322200 4.913000
-8.301400 4.962500
-8.280500 5.011900
-8.259600 5.061200
-8.238800 5.110500
-8.217900 5.153000
-8.197000 5.175200
-8.176200 5.176800
-8.155300 5.157500
-8.134400 5.116900
-8.113500 5.060100
-8.092700 5.002300
-8.071800 4.944400
-8.050900 4.886500
-8.030100 4.828700
-8.009200 4.770900
-7.988300 4.713100
-7.967500 4.655300
-7.946600 4.634500
-7.925700 4.767400
-7.904800 4.653900
-7.884000 4.551900
-7.863100 4.480000
-7.842200 4.557500
-7.821400 4.467900
-7.800500 4.328800
-7.779600 4.190000
-7.758800 4.051500
-7.737900 3.913400
-7.717000 3.779000
-7.696100 3.650900
-7.675300 3.528800
-7.654400 3.169100
-7.633500 2.770800
-7.612700 2.505000
-7.591800 2.451600
-7.570900 2.347500
-7.550000 2.005900
-7.529200 1.685200
-7.508300 1.596700
-7.487400 1.594900
-7.466600 1.593200
-7.445700 1.591500
-7.424800 1.589800
-7.404000 1.588000
-7.383100 1.586300
-7.362200 1.584600
-7.341300 1.582900
-7.320500 1.581200
-7.299600 1.579500
-7.278700 1.577800
-7.257900 1.576100
-7.237000 1.574300
-7.216100 1.572600
-7.195300 1.571000
-7.174400 1.569300
-7.153500 1.567600
-7.132600 1.671000
-7.111800 1.780300
-7.090900 1.797300
-7.070000 1.814200
-7.049200 1.880400
-7.028300 2.034600
-7.007400 2.110200
-6.986600 2.148300
-6.965700 2.186400
-6.944800 2.224500
-6.923900 2.262500
-6.903100 2.300400
-6.882200 2.338300
-6.861300 2.376200
-6.840500 2.414100
-6.819600 2.451900
-6.798700 2.489600
-6.777800 2.527300
-6.757000 2.551900
-6.736100 2.543300
-6.715200 2.506900
-6.694400 2.379500
-6.673500 2.179400
-6.652600 1.980700
-6.631800 1.793100
-6.610900 1.657800
-6.590000 1.472500
-6.569100 1.291100
-6.548300 1.125200
-6.527400 1.087700
-6.506500 1.050100
-6.485700 1.012600
-6.464800 0.975100
-6.443900 0.937500
-6.423100 0.900000
-6.402200 0.862500
-6.381300 0.824900
-6.360400 0.787400
-6.339600 0.749900
-6.318700 0.712300
-6.297800 0.674800
-6.277000 0.637300
-6.256100 0.599700
-6.235200 0.562200
-6.214400 0.524700
-6.193500 0.487200
-6.172600 0.449600
-6.151700 0.412100
-6.130900 0.374600
-6.110000 0.337000
-6.089100 0.299500
-6.068300 0.262000
-6.047400 0.224400
-6.026500 0.186900
-6.005600 0.149400
-5.984800 0.111900
-5.963900 0.076000
-5.943000 0.047800
-5.922200 0.027800
-5.901300 0.013400
-5.880400 0.004200
-5.859600 0.000200
-5.838700 0.000000
-5.817800 0.000000
-5.796900 0.000000
-5.776100 0.000000
-5.755200 0.000000
-5.734300 0.000000
-5.713500 0.818600
-5.692600 2.372800
-5.671700 3.854400
-5.650900 4.952200
-5.630000 5.840000
-5.609100 7.766400
-5.588200 9.778800
-5.567400 9.841800
-5.546500 10.013400
-5.525600 10.637900
-5.504800 12.160200
-5.483900 14.694600
-5.463000 13.918200
-5.442200 14.017100
-5.421300 12.816900
-5.400400 14.442700
-5.379500 16.237400
-5.358700 16.696100
-5.337800 17.163600
-5.316900 16.985700
-5.296100 21.751600
-5.275200 24.764200
-5.254300 21.829000
-5.233400 16.226500
-5.212600 13.497300
-5.191700 11.182600
-5.170800 16.513200
-5.150000 18.038100
-5.129100 11.718800
-5.108200 10.348000
-5.087400 7.850100
-5.066500 2.765700
-5.045600 1.575200
-5.024700 1.730900
-5.003900 2.135500
-4.983000 2.532500
-4.962100 2.765700
-4.941300 2.845900
-4.920400 3.128400
-4.899500 3.472000
-4.878700 3.702500
-4.857800 3.800900
-4.836900 3.921000
-4.816000 4.015000
-4.795200 4.097900
-4.774300 4.184800
-4.753400 4.293400
-4.732600 4.481800
-4.711700 4.765600
-4.690800 5.114800
-4.670000 5.453900
-4.649100 5.846400
-4.628200 6.264500
-4.607300 6.673600
-4.586500 7.446500
-4.565600 8.240900
-4.544700 8.841300
-4.523900 8.849200
-4.503000 8.764200
-4.482100 10.042200
-4.461200 9.831600
-4.440400 8.691100
-4.419500 7.891700
-4.398600 7.680200
-4.377800 7.468500
-4.356900 6.805100
-4.336000 6.084200
-4.315200 6.195100
-4.294300 6.616100
-4.273400 7.052200
-4.252500 7.735700
-4.231700 8.718200
-4.210800 9.757900
-4.189900 10.804900
-4.169100 11.985800
-4.148200 13.709600
-4.127300 14.660000
-4.106500 15.245700
-4.085600 14.868800
-4.064700 12.847800
-4.043800 12.765600
-4.023000 12.897500
-4.002100 12.905600
-3.981200 16.585300
-3.960400 16.452600
-3.939500 18.356000
-3.918600 18.626800
-3.897800 9.755500
-3.876900 7.493700
-3.856000 5.276100
-3.835100 5.071800
-3.814300 6.132100
-3.793400 7.308800
-3.772500 8.559400
-3.751700 8.616400
-3.730800 6.630600
-3.709900 7.885400
-3.689000 9.434500
-3.668200 11.302100
-3.647300 13.402600
-3.626400 12.840900
-3.605600 12.368600
-3.584700 12.761300
-3.563800 13.215000
-3.543000 13.672000
-3.522100 14.141300
-3.501200 14.630700
-3.480300 15.135500
-3.459500 17.090300
-3.438600 15.825700
-3.417700 13.729100
-3.396900 11.571800
-3.376000 10.312100
-3.355100 7.791700
-3.334300 6.801600
-3.313400 5.407700
-3.292500 4.771300
-3.271600 4.395300
-3.250800 4.426600
-3.229900 2.417000
-3.209000 4.742300
-3.188200 7.193400
-3.167300 9.321800
-3.146400 11.396300
-3.125600 13.342500
-3.104700 16.930600
-3.083800 17.603200
-3.062900 19.356500
-3.042100 18.373800
-3.021200 16.908200
-3.000300 15.772100
-2.979500 16.934600
-2.958600 9.436400
-2.937700 5.425700
-2.916900 2.269600
-2.896000 1.686000
-2.875100 1.108800
-2.854200 4.710000
-2.833400 11.776100
-2.812500 14.688400
-2.791600 16.573200
-2.770800 14.462800
-2.749900 14.577900
-2.729000 14.338800
-2.708100 13.554000
-2.687300 13.562200
-2.666400 19.110200
-2.645500 23.042400
-2.624700 12.748700
-2.603800 6.964100
-2.582900 4.864100
-2.562100 3.212300
-2.541200 1.829200
-2.520300 1.667300
-2.499400 2.870100
-2.478600 5.392500
-2.457700 10.786800
-2.436800 11.068400
-2.416000 11.408700
-2.395100 13.277200
-2.374200 12.930900
-2.353400 12.520300
-2.332500 12.608300
-2.311600 15.334100
-2.290700 20.340700
-2.269900 23.424600
-2.249000 24.671900
-2.228100 26.315100
-2.207300 26.689300
-2.186400 28.417100
-2.165500 34.881300
-2.144700 21.121300
-2.123800 21.391900
-2.102900 32.609000
-2.082000 20.810200
-2.061200 0.056900
-2.040300 10.273500
-2.019400 8.683500
-1.998600 6.548500
-1.977700 6.537200
-1.956800 6.486800
-1.935900 6.298600
-1.915100 6.176000
-1.894200 6.107800
-1.873300 5.941700
-1.852500 5.594900
-1.831600 19.554800
-1.810700 30.363400
-1.789900 18.169300
-1.769000 15.805000
-1.748100 15.170000
-1.727200 12.113000
-1.706400 5.827400
-1.685500 3.477500
-1.664600 10.433500
-1.643800 15.141400
-1.622900 17.306300
-1.602000 18.988100
-1.581200 21.509700
-1.560300 25.292300
-1.539400 20.882600
-1.518500 20.074800
-1.497700 16.133000
-1.476800 18.227000
-1.455900 1.685800
-1.435100 0.440300
-1.414200 0.000800
-1.393300 5.559100
-1.372500 8.142200
-1.351600 10.170500
-1.330700 11.277200
-1.309800 12.690200
-1.289000 27.314600
-1.268100 20.139400
-1.247200 13.273300
-1.226400 10.715200
-1.205500 19.512100
-1.184600 29.017700
-1.163700 24.586400
-1.142900 19.946700
-1.122000 17.777000
-1.101100 23.885700
-1.080300 32.084500
-1.059400 29.543700
-1.038500 16.823400
-1.017700 22.939600
-0.996800 24.248800
-0.975900 26.161300
-0.955000 31.082900
-0.934200 21.128300
-0.913300 24.088400
-0.892400 23.082600
-0.871600 19.719600
-0.850700 17.905900
-0.829800 24.389400
-0.809000 19.290600
-0.788100 22.044800
-0.767200 26.102000
-0.746300 26.305300
-0.725500 22.120000
-0.704600 15.892300
-0.683700 16.328300
-0.662900 14.931000
-0.642000 12.841700
-0.621100 10.217500
-0.600300 5.273600
-0.579400 1.535600
-0.558500 0.339100
-0.537600 0.000000
-0.516800 0.185000
-0.495900 1.653300
-0.475000 4.639400
-0.454200 12.786700
-0.433300 25.996700
-0.412400 22.517600
-0.391500 19.995000
-0.370700 18.089000
-0.349800 15.113400
-0.328900 12.394700
-0.308100 11.167000
-0.287200 9.959800
-0.266300 26.290700
-0.245500 25.416600
-0.224600 15.452500
-0.203700 13.734600
-0.182800 11.372400
-0.162000 9.312800
-0.141100 6.890200
-0.120200 6.091600
-0.099400 5.571900
-0.078500 5.367600
-0.057600 5.301800
-0.036800 5.286400
-0.015900 5.272200
0.005000 5.884000
0.025900 6.621200
0.046700 6.932500
0.067600 7.169000
0.088500 7.334700
0.109300 7.753400
0.130200 7.801400
0.151100 7.030600
0.171900 6.191200
0.192800 5.835700
0.213700 5.474800
0.234600 4.754200
0.255400 3.504700
0.276300 1.989300
0.297200 1.118700
0.318000 0.554500
0.338900 0.186300
0.359800 0.014000
0.380700 0.000000
0.401500 0.000000
0.422400 0.000000
0.443300 0.000000
0.464100 0.000000
0.485000 0.000000
0.505900 0.000000
0.526700 0.000000
0.547600 0.000000
0.568500 0.000000
0.589400 0.000000
0.610200 0.000000
0.631100 0.000000
0.652000 0.000000
0.672800 0.000000
0.693700 0.000000
0.714600 0.000000
0.735400 0.000000
0.756300 0.000000
0.777200 0.000000
0.798100 0.000000
0.818900 0.000000
0.839800 0.000000
0.860700 0.000000
0.881500 0.000000
0.902400 0.000000
0.923300 0.000000
0.944100 0.000000
0.965000 0.000000
0.985900 0.000000
1.006800 0.000000
1.027600 0.000000
1.048500 0.000000
1.069400 0.000000
1.090200 0.000000
1.111100 0.000000
1.132000 0.000000
1.152900 0.000000
1.173700 0.000000
1.194600 0.000000
1.215500 0.000000
1.236300 0.000000
1.257200 0.000000
1.278100 0.000000
1.298900 0.000000
1.319800 0.000000
1.340700 0.000000
1.361600 0.000000
1.382400 0.000000
1.403300 0.000000
1.424200 0.000000
1.445000 0.000000
1.465900 0.000000
1.486800 0.000000
1.507600 0.000000
1.528500 0.000000
1.549400 0.000000
1.570300 0.000000
1.591100 0.000000
1.612000 0.000000
1.632900 0.000000
1.653700 0.000000
1.674600 0.000000
1.695500 0.000000
1.716300 0.000000
1.737200 0.000000
1.758100 0.000000
1.779000 0.000000
1.799800 0.000000
1.820700 0.000000
1.841600 0.000000
1.862400 0.000000
1.883300 0.000000
1.904200 0.000000
1.925100 0.000000
1.945900 0.000000
1.966800 0.000000
1.987700 0.000000
2.008500 0.000000
2.029400 0.000000
2.050300 0.000000
2.071100 0.000000
2.092000 0.000000
2.112900 0.000000
2.133800 0.000000
2.154600 0.000000
2.175500 0.000000
2.196400 0.000000
2.217200 0.000000
2.238100 0.000000
2.259000 0.000000
2.279800 0.000000
2.300700 0.000000
2.321600 0.000000
2.342500 0.000000
2.363300 0.000000
2.384200 0.000000
2.405100 0.000000
2.425900 0.000000
2.446800 0.000000
2.467700 0.000000
2.488500 0.000000
2.509400 0.000000
2.530300 0.000000
2.551200 0.000000
2.572000 0.000000
2.592900 0.000000
2.613800 0.000000
2.634600 0.000000
2.655500 0.000000
2.676400 0.000000
2.697300 0.000000
2.718100 0.000000
2.739000 0.000000
2.759900 0.000000
2.780700 0.000000
2.801600 0.000000
2.822500 0.000000
2.843300 0.000000
2.864200 0.000000
2.885100 0.000000
2.906000 0.000000
2.926800 0.000000
2.947700 0.000000
2.968600 0.000000
2.989400 0.000000
3.010300 0.000000
3.031200 0.000000
3.052000 0.000000
3.072900 0.000000
3.093800 0.000000
3.114700 0.000000
3.135500 0.000000
3.156400 0.000000
3.177300 0.000000
3.198100 0.000000
3.219000 0.000000
3.239900 0.000000
3.260700 0.000000
3.281600 0.000000
3.302500 0.000000
3.323400 0.000000
3.344200 0.000000
3.365100 0.000000
3.386000 0.000000
3.406800 0.000000
3.427700 0.000000
3.448600 0.000000
3.469500 0.000000
3.490300 0.000000
3.511200 0.000000
3.532100 0.000000
3.552900 0.000000
3.573800 0.000000
3.594700 0.000000
3.615500 0.000000
3.636400 0.000000
3.657300 0.000000
3.678200 0.000000
3.699000 0.000000
3.719900 0.000000
3.740800 0.000000
3.761600 0.000000
3.782500 0.000000
3.803400 0.000000
3.824200 0.000000
3.845100 0.000000
3.866000 0.000000
3.886900 0.000000
3.907700 0.000000
3.928600 0.000000
3.949500 0.000000
3.970300 0.000000
3.991200 0.000000
4.012100 0.620500
4.032900 1.862000
4.053800 3.500500
4.074700 7.769100
4.095600 12.614200
4.116400 12.744300
4.137300 11.721700
4.158200 10.007900
4.179000 11.705700
4.199900 11.312400
4.220800 10.539300
4.241700 9.486900
4.262500 9.067000
4.283400 8.966000
4.304300 8.485600
4.325100 7.519200
4.346000 13.192700
4.366900 14.442300
4.387700 8.691500
4.408600 14.959100
4.429500 20.339800
4.450400 17.591700
4.471200 14.655600
4.492100 13.910600
4.513000 13.952400
4.533800 15.109100
4.554700 17.261500
4.575600 16.141000
4.596400 14.671400
4.617300 12.568600
4.638200 11.783100
4.659100 11.405600
4.679900 10.465000
4.700800 9.777800
4.721700 10.263200
4.742500 11.174500
4.763400 11.959500
4.784300 12.579800
4.805100 14.949200
4.826000 27.133300
4.846900 28.796600
4.867800 24.974600
4.888600 16.384000
4.909500 6.818200
4.930400 3.858200
4.951200 5.883900
4.972100 11.222900
4.993000 16.240600
5.013900 17.801500
5.034700 20.041000
5.055600 24.368600
5.076500 27.266200
5.097300 19.062500
5.118200 12.730600
5.139100 8.418500
5.159900 6.908400
5.180800 5.858200
5.201700 5.905700
5.222600 9.446200
5.243400 11.388700
5.264300 12.717200
5.285200 13.601400
5.306000 13.903000
5.326900 18.085400
5.347800 18.607400
5.368600 18.663400
5.389500 16.447300
5.410400 14.564000
5.431300 11.917300
5.452100 10.743700
5.473000 10.557100
5.493900 10.489900
5.514700 9.426600
5.535600 10.508500
5.556500 12.027700
5.577300 20.650500
5.598200 22.792200
5.619100 16.808500
5.640000 14.297000
5.660800 13.721400
5.681700 12.742500
5.702600 11.075500
5.723400 9.450700
5.744300 8.525700
5.765200 8.044000
5.786100 7.573400
5.806900 7.386600
5.827800 7.301600
5.848700 7.199000
5.869500 6.574800
5.890400 5.781800
5.911300 5.264400
5.932100 5.022700
5.953000 5.293200
5.973900 5.797900
5.994800 6.516000
6.015600 7.447500
6.036500 13.091600
6.057400 12.785500
6.078200 11.941900
6.099100 11.218200
6.120000 10.590900
6.140800 10.437000
6.161700 11.281700
6.182600 11.363500
6.203500 11.095900
6.224300 10.192900
6.245200 9.751700
6.266100 9.650300
6.286900 9.638400
6.307800 5.186700
6.328700 5.339600
6.349500 5.593800
6.370400 5.949200
6.391300 4.898300
6.412200 6.410800
6.433000 7.200700
6.453900 7.160100
6.474800 7.296400
6.495600 7.475600
6.516500 7.668300
6.537400 9.031500
6.558300 10.674600
6.579100 9.677500
6.600000 9.014500
6.620900 8.916100
6.641700 8.782100
6.662600 8.587300
6.683500 8.282100
6.704300 7.820000
6.725200 7.282000
6.746100 7.655200
6.767000 7.408100
6.787800 6.861900
6.808700 6.801500
6.829600 6.416400
6.850400 5.603200
6.871300 4.797700
6.892200 3.757900
6.913000 2.760600
6.933900 2.371800
6.954800 2.199300
6.975700 2.366500
6.996500 2.717300
7.017400 3.123600
7.038300 3.529900
7.059100 3.874800
7.080000 4.215300
7.100900 4.681000
7.121700 5.209500
7.142600 5.725200
7.163500 7.051600
7.184400 9.584100
7.205200 12.033600
7.226100 13.789200
7.247000 15.154200
7.267800 16.378100
7.288700 16.617300
7.309600 17.490900
7.330500 17.369600
7.351300 14.937700
7.372200 11.652300
7.393100 8.426600
7.413900 7.496200
7.434800 7.827800
7.455700 9.117900
7.476500 10.969900
7.497400 13.873700
7.518300 16.973500
7.539200 17.667900
7.560000 18.401900
7.580900 16.185500
7.601800 13.967400
7.622600 12.414500
7.643500 11.136500
7.664400 8.041700
7.685200 5.769100
7.706100 5.349600
7.727000 7.855500
7.747900 11.452000
7.768700 12.526600
7.789600 12.404900
7.810500 11.923100
7.831300 7.271700
7.852200 6.915600
7.873100 6.477900
7.893900 6.101300
7.914800 5.818500
7.935700 5.594700
7.956600 5.419000
7.977400 5.316500
7.998300 5.279900
8.019200 5.317900
8.040000 5.327400
8.060900 5.424600
8.081800 5.628200
8.102700 5.938200
8.123500 6.248500
8.144400 6.239800
8.165300 6.241400
8.186100 6.401100
8.207000 6.815600
8.227900 7.654400
8.248700 8.972000
8.269600 10.483600
8.290500 10.776800
8.311400 10.579500
8.332200 9.883700
8.353100 9.316300
8.374000 8.858300
8.394800 8.399700
8.415700 7.922900
8.436600 7.520000
8.457400 6.720600
8.478300 6.206800
8.499200 5.842200
8.520100 5.423300
8.540900 5.039100
8.561800 4.953600
8.582700 4.874200
8.603500 4.790800
8.624400 4.703200
8.645300 4.611500
8.666100 4.515700
8.687000 4.415800
8.707900 5.177200
8.728800 5.461600
8.749600 5.067000
8.770500 4.679600
8.791400 4.299400
8.812200 3.926300
8.833100 2.922200
8.854000 1.838500
8.874900 1.774500
8.895700 1.707500
8.916600 1.639700
8.937500 1.679700
8.958300 1.713800
8.979200 1.742200
9.000100 1.764700
9.020900 1.787000
9.041800 1.813800
9.062700 1.844900
9.083600 1.739300
9.104400 1.541100
9.125300 1.365600
9.146200 1.212900
9.167000 1.083100
9.187900 0.976000
9.208800 0.891700
9.229600 0.830200
9.250500 0.791500
9.271400 0.872600
9.292300 1.017200
9.313100 1.181600
9.334000 1.365900
9.354900 1.570000
9.375700 1.793800
9.396600 2.037600
9.417500 2.301100
9.438300 3.683100
9.459200 6.542700
9.480100 7.998600
9.501000 6.666700
9.521800 3.822400
9.542700 2.877100
9.563600 3.139100
9.584400 3.410700
9.605300 3.691700
9.626200 4.160900
9.647100 4.853200
9.667900 5.512100
9.688800 6.098900
9.709700 7.203000
9.730500 8.688800
9.751400 9.894900
9.772300 10.689700
9.793100 11.637500
9.814000 12.769000
9.834900 12.685000
9.855800 11.689600
9.876600 9.892100
9.897500 16.963100
9.918400 15.718400
9.939200 10.934600
9.960100 8.172500
9.981000 8.697100
10.001800 10.240300
10.022700 9.705000
10.043600 10.909500
10.064500 12.103700
10.085300 12.512700
10.106200 12.733300
10.127100 12.729600
10.147900 11.563100
10.168800 13.457900
10.189700 13.696100
10.210500 11.194300
10.231400 9.173300
10.252300 9.592600
10.273200 10.153400
10.294000 10.812900
10.314900 7.149200
10.335800 6.671300
10.356600 6.404300
10.377500 6.285700
10.398400 6.291000
10.419300 6.308800
10.440100 6.598100
10.461000 8.391400
10.481900 10.959500
10.502700 11.662400
10.523600 11.723900
10.544500 11.679600
10.565300 11.215100
10.586200 11.010600
10.607100 10.962500
10.628000 10.526700
10.648800 9.569500
10.669700 8.160900
10.690600 5.671100
10.711400 1.900400
10.732300 1.363500
10.753200 5.465500
10.774000 6.330800
10.794900 6.651800
10.815800 7.131000
10.836700 7.457700
10.857500 7.782400
10.878400 8.421800
10.899300 9.356700
10.920100 8.741600
10.941000 7.214900
10.961900 7.279900
10.982700 9.292700
11.003600 9.835000
11.024500 10.356500
11.045400 10.889700
11.066200 11.444200
11.087100 9.819100
11.108000 9.824800
11.128800 10.853700
11.149700 11.862700
11.170600 11.329700
11.191400 10.391100
11.212300 9.123700
11.233200 7.739500
11.254100 6.865500
11.274900 6.367400
11.295800 6.213300
11.316700 12.748600
11.337500 13.453300
11.358400 13.687700
11.379300 14.499700
11.400200 15.271700
11.421000 14.121700
11.441900 12.426200
11.462800 10.739100
11.483600 9.059000
11.504500 7.378400
11.525400 10.585100
11.546200 16.663300
11.567100 9.023400
11.588000 8.617400
11.608900 8.498500
11.629700 9.852400
11.650600 11.370700
11.671500 11.449200
11.692300 10.972900
11.713200 10.357900
11.734100 10.484500
11.754900 16.100600
11.775800 12.744100
11.796700 10.038700
11.817600 9.043900
11.838400 8.415800
11.859300 7.785900
11.880200 7.154200
11.901000 6.869000
11.921900 6.499600
11.942800 6.857000
11.963600 7.499200
11.984500 8.280600
12.005400 9.526500
12.026300 8.474700
12.047100 8.804700
12.068000 10.465200
12.088900 12.808700
12.109700 15.957700
12.130600 20.911900
12.151500 21.559300
12.172400 13.525000
12.193200 14.315300
12.214100 16.773400
12.235000 16.065700
12.255800 12.104600
12.276700 5.262400
12.297600 7.541800
12.318400 6.298900
12.339300 8.724500
12.360200 11.030000
12.381100 13.043200
12.401900 14.932700
12.422800 16.947900
12.443700 16.827800
12.464500 16.662400
12.485400 17.023600
12.506300 18.716400
12.527100 12.797900
12.548000 8.703300
12.568900 7.626400
12.589800 6.595800
12.610600 5.555500
12.631500 3.627400
12.652400 1.247200
12.673200 0.211900
12.694100 0.558900
12.715000 1.001300
12.735800 1.539100
12.756700 2.562200
12.777600 4.063000
12.798500 5.374900
12.819300 7.293600
12.840200 9.086600
12.861100 10.657800
12.881900 11.838100
12.902800 12.705700
12.923700 11.891700
12.944600 10.962400
12.965400 13.334500
12.986300 18.240900
13.007200 16.416500
13.028000 12.419200
13.048900 10.493100
13.069800 9.653400
13.090600 9.125400
13.111500 8.431800
13.132400 8.008400
13.153300 9.146900
13.174100 8.760200
13.195000 8.980700
13.215900 10.465700
13.236700 9.359400
13.257600 7.982300
13.278500 7.255200
13.299300 7.404800
13.320200 7.660000
13.341100 7.876900
13.362000 8.055500
13.382800 8.075900
13.403700 7.362800
13.424600 6.290200
13.445400 5.102500
13.466300 4.987300
13.487200 6.484000
13.508000 7.927200
13.528900 10.274000
13.549800 13.723300
13.570700 14.107200
13.591500 14.086400
13.612400 14.141100
13.633300 14.266900
13.654100 13.395400
13.675000 11.124100
13.695900 12.009000
13.716800 11.569400
13.737600 11.593700
13.758500 13.877000
13.779400 13.725200
13.800200 12.573900
13.821100 11.015400
13.842000 9.979800
13.862800 10.978900
13.883700 11.803500
13.904600 12.401100
13.925500 13.457900
13.946300 13.273400
13.967200 10.816600
13.988100 8.095400
14.008900 8.752800
14.029800 9.450400
14.050700 11.626100
14.071500 11.812700
14.092400 11.030900
14.113300 10.189300
14.134200 9.287900
14.155000 8.474000
14.175900 7.945900
14.196800 8.494800
14.217600 9.554500
14.238500 10.436500
14.259400 11.151200
14.280200 12.121500
14.301100 13.357200
14.322000 14.635100
14.342900 14.021200
14.363700 12.581300
14.384600 11.038600
14.405500 8.001700
14.426300 5.934800
14.447200 6.185200
14.468100 6.369100
14.489000 6.814100
14.509800 7.666900
14.530700 7.966400
14.551600 7.726100
14.572400 7.493800
14.593300 7.487400
14.614200 8.217200
14.635000 9.026000
14.655900 10.081100
14.676800 11.405000
14.697700 12.956300
14.718500 12.872100
14.739400 11.072700
14.760300 8.891600
14.781100 8.055200
14.802000 7.981700
14.822900 8.647300
14.843700 9.414100
14.864600 10.158400
14.885500 11.379300
14.906400 15.391900
14.927200 15.583200
14.948100 11.806600
14.969000 11.492200
14.989800 13.708500
15.010700 16.826000
15.031600 17.839500
15.052400 19.453500
15.073300 20.241900
15.094200 18.953300
15.115100 15.427800
15.135900 13.530200
15.156800 12.278800
15.177700 10.821000
15.198500 8.850500
15.219400 7.946700
15.240300 8.662100
15.261200 16.659200
15.282000 15.265700
15.302900 14.244300
15.323800 14.558000
15.344600 14.531200
15.365500 14.429500
15.386400 14.283700
15.407200 15.658200
15.428100 13.335400
15.449000 12.918100
15.469900 13.693900
15.490700 14.383500
15.511600 15.656900
15.532500 17.037200
15.553300 16.260800
15.574200 15.430400
15.595100 13.631500
15.615900 8.172700
15.636800 4.313200
15.657700 3.825600
15.678600 8.881400
15.699400 11.278800
15.720300 13.989600
15.741200 16.410400
15.762000 18.617800
15.782900 10.957000
15.803800 14.715600
15.824600 15.813400
15.845500 15.928900
15.866400 14.856100
15.887300 12.758900
15.908100 13.627300
15.929000 16.330000
15.949900 18.712200
15.970700 20.463300
15.991600 16.446400
16.012500 16.301600
16.033400 15.508700
16.054200 13.304300
16.075100 18.309900
16.096000 17.445500
16.116800 14.991600
16.137700 12.378400
16.158600 10.387900
16.179400 8.914200
16.200300 7.829000
16.221200 12.276900
16.242100 14.117000
16.262900 16.568500
16.283800 19.592300
16.304700 23.074100
16.325500 22.843400
16.346400 18.841200
16.367300 14.891500
16.388100 12.931200
16.409000 11.284800
16.429900 9.617200
16.450800 6.959100
16.471600 5.186000
16.492500 5.415400
16.513400 8.237900
16.534200 13.767800
16.555100 20.867000
16.576000 21.254100
16.596800 16.312800
16.617700 9.665500
16.638600 10.518900
16.659500 11.396800
16.680300 12.490200
16.701200 13.553900
16.722100 14.696200
16.742900 11.051400
16.763800 10.781500
16.784700 10.333200
16.805600 10.064000
16.826400 9.779200
16.847300 9.366500
16.868200 8.776500
16.889000 7.925700
16.909900 7.506900
16.930800 7.485300
16.951600 6.870500
16.972500 6.196100
16.993400 6.467800
17.014300 7.530300
17.035100 8.932900
17.056000 10.298300
17.076900 10.991600
17.097700 9.024400
17.118600 7.867600
17.139500 7.482400
17.160300 9.381700
17.181200 11.425200
17.202100 13.026800
17.223000 14.526200
17.243800 14.468400
17.264700 13.546000
17.285600 12.572100
17.306400 11.379800
17.327300 10.872000
17.348200 11.257100
17.369000 11.290700
17.389900 11.754200
17.410800 11.652300
17.431700 11.807900
17.452500 13.461100
17.473400 14.935200
17.494300 18.225700
17.515100 16.337100
17.536000 14.671500
17.556900 16.198700
17.577800 15.574700
17.598600 6.591000
17.619500 7.765900
17.640400 8.300800
17.661200 8.847200
17.682100 10.347400
17.703000 11.281300
17.723800 11.757700
17.744700 12.597700
17.765600 13.484200
17.786500 13.704400
17.807300 13.365800
17.828200 12.620700
17.849100 11.281300
17.869900 9.937900
17.890800 8.590400
17.911700 7.669900
17.932500 7.435800
17.953400 8.001100
17.974300 8.395700
17.995200 8.581600
18.016000 6.444000
18.036900 7.114800
18.057800 8.516300
18.078600 11.652900
18.099500 15.242800
18.120400 17.121100
18.141200 19.962000
18.162100 19.350800
18.183000 14.596000
18.203900 11.989000
18.224700 9.141800
18.245600 6.092900
18.266500 3.817100
18.287300 2.059700
18.308200 0.782500
18.329100 0.199500
18.350000 0.001400
18.370800 0.000000
18.391700 0.000000
18.412600 0.000000
18.433400 0.000000
18.454300 0.000000
18.475200 0.000000
18.496000 0.000000
18.516900 0.000000
18.537800 0.000000
18.558700 0.000000
18.579500 0.000000
18.600400 0.000000
18.621300 0.000000
18.642100 0.000000
18.663000 0.000000
18.683900 0.000000
18.704700 0.000000
18.725600 0.000000
18.746500 0.000000
18.767400 0.000000
18.788200 0.000000
18.809100 0.000000
18.830000 0.000000
18.850800 0.000000
18.871700 0.000000
18.892600 0.000000
18.913400 0.000000
18.934300 0.000000
18.955200 0.000000
18.976100 0.000000
18.996900 0.000000
19.017800 0.000000
19.038700 0.000000
19.059500 0.000000
19.080400 0.000000
19.101300 0.000000
19.122200 0.000000
19.143000 0.000000
19.163900 0.000000
19.184800 0.000000
19.205600 0.000000
19.226500 0.000000
19.247400 0.000000
19.268200 0.000000
19.289100 0.000000
19.310000 0.000000
19.330900 0.000000
19.351700 0.000000
19.372600 0.000000
19.393500 0.000000
19.414300 0.000000
19.435200 0.000000
19.456100 0.000000
19.476900 0.000000
19.497800 0.000000
19.518700 0.000000
19.539600 0.000000
19.560400 0.000000
19.581300 0.000000
19.602200 0.000000
19.623000 0.000000
19.643900 0.000000
19.664800 0.000000
19.685600 0.000000
19.706500 0.000000
19.727400 0.000000
19.748300 0.000000
19.769100 0.000000
19.790000 0.000000
19.810900 0.000000
19.831700 0.000000
19.852600 0.000000
19.873500 0.000000
19.894400 0.000000
19.915200 0.000000
19.936100 0.000000
19.957000 0.000000
19.977800 0.000000
19.998700 0.000000
20.019600 0.000000
20.040400 0.000000
20.061300 0.000000
20.082200 0.000000
20.103100 0.000000
20.123900 0.000000
20.144800 0.000000
20.165700 0.000000
20.186500 0.000000
20.207400 0.000000
20.228300 0.000000
20.249100 0.000000
e
