set title 'mp-81 - Density of States'
set xlabel 'Energy (eV)'
set ylabel 'DOS (states/eV)'
set grid
set xrange [-10:10]
set yrange [0:4.812]
set xzeroaxis lt -1
set terminal png size 800,600
set output 'mp-81_dos_gnuplot.png'
plot '-' using 1:2 with lines title 'DOS'
-6.577300 0.000000
-6.551600 0.000000
-6.525800 0.000000
-6.500100 0.000000
-6.474400 0.000000
-6.448700 0.000000
-6.422900 0.000000
-6.397200 0.000000
-6.371500 0.000000
-6.345800 0.000000
-6.320100 0.000000
-6.294300 0.000000
-6.268600 0.000000
-6.242900 0.000000
-6.217200 0.000000
-6.191500 0.000000
-6.165700 0.000000
-6.140000 0.000000
-6.114300 0.000000
-6.088600 0.000000
-6.062900 0.000000
-6.037100 0.000000
-6.011400 0.000000
-5.985700 0.000000
-5.960000 0.000000
-5.934200 0.000000
-5.908500 0.000000
-5.882800 0.000000
-5.857100 0.000000
-5.831400 0.000000
-5.805600 0.000000
-5.779900 0.000000
-5.754200 0.000000
-5.728500 0.000000
-5.702800 0.000000
-5.677000 0.000000
-5.651300 0.000000
-5.625600 0.000000
-5.599900 0.000000
-5.574100 0.000000
-5.548400 0.000000
-5.522700 0.000000
-5.497000 0.000000
-5.471300 0.000000
-5.445500 0.000000
-5.419800 0.000000
-5.394100 0.000000
-5.368400 0.000000
-5.342700 0.000000
-5.316900 0.000000
-5.291200 0.000000
-5.265500 0.000000
-5.239800 0.000000
-5.214100 0.000000
-5.188300 0.000000
-5.162600 0.000000
-5.136900 0.000000
-5.111200 0.000000
-5.085400 0.000000
-5.059700 0.000000
-5.034000 0.000000
-5.008300 0.000000
-4.982600 0.000000
-4.956800 0.000000
-4.931100 0.000000
-4.905400 0.000000
-4.879700 0.000000
-4.854000 0.000000
-4.828200 0.000000
-4.802500 0.000000
-4.776800 0.000000
-4.751100 0.000000
-4.725400 0.000000
-4.699600 0.000000
-4.673900 0.000000
-4.648200 0.000000
-4.622500 0.000000
-4.596700 0.000000
-4.571000 0.000000
-4.545300 0.000000
-4.519600 0.000000
-4.493900 0.000000
-4.468100 0.000000
-4.442400 0.000000
-4.416700 0.000000
-4.391000 0.000000
-4.365300 0.000000
-4.339500 0.000000
-4.313800 0.000000
-4.288100 0.000000
-4.262400 0.000000
-4.236600 0.000000
-4.210900 0.004700
-4.185200 0.017300
-4.159500 0.020200
-4.133800 0.023800
-4.108000 0.027800
-4.082300 0.032200
-4.056600 0.036400
-4.030900 0.039000
-4.005200 0.039900
-3.979400 0.042100
-3.953700 0.044700
-3.928000 0.047400
-3.902300 0.050100
-3.876600 0.052800
-3.850800 0.055700
-3.825100 0.056800
-3.799400 0.058600
-3.773700 0.060400
-3.747900 0.062100
-3.722200 0.063900
-3.696500 0.065900
-3.670800 0.068000
-3.645100 0.070100
-3.619300 0.072300
-3.593600 0.074600
-3.567900 0.076600
-3.542200 0.078100
-3.516500 0.079400
-3.490700 0.081200
-3.465000 0.082900
-3.439300 0.084700
-3.413600 0.086500
-3.387800 0.088300
-3.362100 0.090200
-3.336400 0.092100
-3.310700 0.094200
-3.285000 0.096200
-3.259200 0.098300
-3.233500 0.100300
-3.207800 0.102000
-3.182100 0.103700
-3.156400 0.105500
-3.130600 0.107300
-3.104900 0.109200
-3.079200 0.111100
-3.053500 0.113200
-3.027800 0.115200
-3.002000 0.117300
-2.976300 0.119500
-2.950600 0.121600
-2.924900 0.123800
-2.899100 0.126100
-2.873400 0.128500
-2.847700 0.130800
-2.822000 0.133100
-2.796300 0.135300
-2.770500 0.137700
-2.744800 0.140100
-2.719100 0.142600
-2.693400 0.145100
-2.667700 0.147800
-2.641900 0.150600
-2.616200 0.153500
-2.590500 0.156400
-2.564800 0.159500
-2.539100 0.162600
-2.513300 0.165800
-2.487600 0.169100
-2.461900 0.172500
-2.436200 0.176000
-2.410400 0.179600
-2.384700 0.183300
-2.359000 0.187300
-2.333300 0.191500
-2.307600 0.196100
-2.281800 0.200800
-2.256100 0.205900
-2.230400 0.211400
-2.204700 0.217200
-2.179000 0.223400
-2.153200 0.229800
-2.127500 0.236500
-2.101800 0.243800
-2.076100 0.251400
-2.050300 0.259400
-2.024600 0.267700
-1.998900 0.276400
-1.973200 0.287300
-1.947500 0.306400
-1.921700 0.326800
-1.896000 0.349300
-1.870300 0.374000
-1.844600 0.401100
-1.818900 0.510700
-1.793100 0.714800
-1.767400 0.656000
-1.741700 0.681400
-1.716000 0.704600
-1.690300 0.722400
-1.664500 0.705900
-1.638800 0.698000
-1.613100 0.712500
-1.587400 0.726700
-1.561600 0.806600
-1.535900 0.902100
-1.510200 0.926800
-1.484500 0.985100
-1.458800 1.040600
-1.433000 1.095600
-1.407300 1.168200
-1.381600 1.258600
-1.355900 1.365300
-1.330200 1.361700
-1.304400 1.391400
-1.278700 1.499300
-1.253000 1.593900
-1.227300 1.682100
-1.201500 1.783700
-1.175800 1.841400
-1.150100 1.896900
-1.124400 1.968000
-1.098700 2.066100
-1.072900 2.116100
-1.047200 2.121100
-1.021500 2.111700
-0.995800 2.065500
-0.970100 2.052900
-0.944300 2.027200
-0.918600 1.983500
-0.892900 1.964500
-0.867200 1.945000
-0.841500 1.921100
-0.815700 1.889300
-0.790000 1.864200
-0.764300 1.847000
-0.738600 1.825500
-0.712800 1.801100
-0.687100 1.782800
-0.661400 1.775500
-0.635700 1.775700
-0.610000 1.799300
-0.584200 1.859400
-0.558500 1.794200
-0.532800 1.723600
-0.507100 1.636700
-0.481400 1.558000
-0.455600 1.467500
-0.429900 1.406900
-0.404200 1.319200
-0.378500 1.163700
-0.352700 1.139700
-0.327000 1.137000
-0.301300 1.150100
-0.275600 1.215500
-0.249900 1.410000
-0.224100 1.615100
-0.198400 1.776300
-0.172700 2.030100
-0.147000 2.009900
-0.121300 1.988200
-0.095500 2.002700
-0.069800 2.059300
-0.044100 2.038100
-0.018400 2.007000
0.007300 2.110100
0.033100 2.149200
0.058800 2.110000
0.084500 2.125100
0.110200 2.131400
0.136000 2.158600
0.161700 2.186400
0.187400 2.115400
0.213100 1.999900
0.238800 2.065200
0.264600 2.187100
0.290300 2.199900
0.316000 2.246500
0.341700 2.287800
0.367400 2.241500
0.393200 2.212600
0.418900 2.214900
0.444600 2.248800
0.470300 2.283300
0.496000 2.366200
0.521800 2.251800
0.547500 2.398500
0.573200 2.566900
0.598900 2.724500
0.624700 2.813600
0.650400 2.804000
0.676100 2.879800
0.701800 2.999800
0.727500 3.232800
0.753300 3.684400
0.779000 3.620800
0.804700 3.722700
0.830400 4.317300
0.856100 4.374400
0.881900 3.489200
0.907600 3.099800
0.933300 2.793700
0.959000 2.623600
0.984800 2.412500
1.010500 2.239200
1.036200 2.105900
1.061900 1.956900
1.087600 1.963500
1.113400 2.031700
1.139100 1.566800
1.164800 1.520700
1.190500 1.549800
1.216200 1.742100
1.242000 2.132000
1.267700 2.255300
1.293400 2.084900
1.319100 1.944200
1.344800 1.874300
1.370600 1.820200
1.396300 1.768300
1.422000 1.777100
1.447700 1.796900
1.473500 1.835900
1.499200 1.920400
1.524900 2.024500
1.550600 2.214200
1.576300 2.263000
1.602100 2.284600
1.627800 2.310600
1.653500 2.301700
1.679200 2.292000
1.704900 2.300100
1.730700 2.292800
1.756400 2.335600
1.782100 2.516500
1.807800 2.430900
1.833600 2.936600
1.859300 2.339900
1.885000 2.169600
1.910700 2.221200
1.936400 2.212300
1.962200 2.149100
1.987900 2.089600
2.013600 2.036100
2.039300 2.012600
2.065000 1.989400
2.090800 1.952800
2.116500 1.971100
2.142200 1.927100
2.167900 1.899300
2.193600 1.866800
2.219400 1.826400
2.245100 1.802200
2.270800 1.781700
2.296500 1.758800
2.322300 1.755300
2.348000 1.765200
2.373700 1.791900
2.399400 1.819600
2.425100 1.836200
2.450900 1.865100
2.476600 1.886700
2.502300 1.910000
2.528000 1.850800
2.553700 1.854300
2.579500 1.895400
2.605200 1.984500
2.630900 2.040500
2.656600 2.116900
2.682300 2.196700
2.708100 2.255000
2.733800 2.244100
2.759500 2.270600
2.785200 2.422100
2.811000 2.612400
2.836700 2.781900
2.862400 3.386700
2.888100 3.529900
2.913800 3.550400
2.939600 3.474300
2.965300 3.615700
2.991000 2.940500
3.016700 2.587200
3.042400 2.354700
3.068200 2.080700
3.093900 1.792200
3.119600 1.628100
3.145300 1.499600
3.171100 1.404600
3.196800 1.412700
3.222500 1.235100
3.248200 1.045700
3.273900 0.287800
3.299700 0.287500
3.325400 0.288800
3.351100 0.290100
3.376800 0.291200
3.402500 0.292200
3.428300 0.293000
3.454000 0.293700
3.479700 0.294300
3.505400 0.294900
3.531100 0.295300
3.556900 0.295600
3.582600 0.295900
3.608300 0.296000
3.634000 0.296000
3.659800 0.295600
3.685500 0.294800
3.711200 0.293900
3.736900 0.291800
3.762600 0.287000
3.788400 0.283200
3.814100 0.281800
3.839800 0.281300
3.865500 0.281400
3.891200 0.281800
3.917000 0.282300
3.942700 0.282900
3.968400 0.283600
3.994100 0.284500
4.019900 0.285400
4.045600 0.286500
4.071300 0.287600
4.097000 0.288800
4.122700 0.290200
4.148500 0.291700
4.174200 0.293400
4.199900 0.295000
4.225600 0.296400
4.251300 0.297200
4.277100 0.297600
4.302800 0.296900
4.328500 0.294800
4.354200 0.293900
4.379900 0.293600
4.405700 0.293300
4.431400 0.293200
4.457100 0.293000
4.482800 0.292800
4.508600 0.292600
4.534300 0.292200
4.560000 0.291800
4.585700 0.291500
4.611400 0.292000
4.637200 0.292500
4.662900 0.293100
4.688600 0.293600
4.714300 0.294200
4.740000 0.294700
4.765800 0.295200
4.791500 0.295700
4.817200 0.296200
4.842900 0.296700
4.868700 0.297200
4.894400 0.297500
4.920100 0.297500
4.945800 0.296000
4.971500 0.294000
4.997300 0.292500
5.023000 0.291600
5.048700 0.290900
5.074400 0.290400
5.100100 0.290000
5.125900 0.289800
5.151600 0.289600
5.177300 0.289500
5.203000 0.289400
5.228700 0.289400
5.254500 0.289400
5.280200 0.289300
5.305900 0.289200
5.331600 0.289200
5.357400 0.289200
5.383100 0.289200
5.408800 0.289200
5.434500 0.289200
5.460200 0.289200
5.486000 0.289200
5.511700 0.289300
5.537400 0.289300
5.563100 0.289400
5.588800 0.289400
5.614600 0.289200
5.640300 0.289000
5.666000 0.288800
5.691700 0.288600
5.717400 0.288200
5.743200 0.287700
5.768900 0.287100
5.794600 0.286900
5.820300 0.286600
5.846100 0.286500
5.871800 0.286400
5.897500 0.286300
5.923200 0.286200
5.948900 0.286100
5.974700 0.286100
6.000400 0.286200
6.026100 0.286400
6.051800 0.286600
6.077500 0.286700
6.103300 0.286700
6.129000 0.286600
6.154700 0.286500
6.180400 0.286400
6.206200 0.286200
6.231900 0.286000
6.257600 0.285900
6.283300 0.285900
6.309000 0.285900
6.334800 0.294900
6.360500 0.283900
6.386200 0.284100
6.411900 0.284100
6.437600 0.284100
6.463400 0.284000
6.489100 0.283900
6.514800 0.283800
6.540500 0.283600
6.566200 0.283300
6.592000 0.283000
6.617700 0.281800
6.643400 0.280700
6.669100 0.279700
6.694900 0.278500
6.720600 0.277100
6.746300 0.275500
6.772000 0.273800
6.797700 0.272300
6.823500 0.270700
6.849200 0.269300
6.874900 0.267900
6.900600 0.266500
6.926300 0.266500
6.952100 0.266500
6.977800 0.266800
7.003500 0.266900
7.029200 0.266400
7.055000 0.266000
7.080700 0.266300
7.106400 0.266500
7.132100 0.266300
7.157800 0.265800
7.183600 0.265100
7.209300 0.265300
7.235000 0.265600
7.260700 0.266000
7.286400 0.265200
7.312200 0.264300
7.337900 0.263900
7.363600 0.264000
7.389300 0.264500
7.415000 0.265300
7.440800 0.266100
7.466500 0.267100
7.492200 0.268300
7.517900 0.270800
7.543700 0.273000
7.569400 0.272900
7.595100 0.272200
7.620800 0.271100
7.646500 0.269400
7.672300 0.267300
7.698000 0.264600
7.723700 0.261400
7.749400 0.259000
7.775100 0.320300
7.800900 0.375200
7.826600 0.419200
7.852300 0.454100
7.878000 0.479000
7.903700 0.467700
7.929500 0.452400
7.955200 0.440800
7.980900 0.426700
8.006600 0.417300
8.032400 0.412700
8.058100 0.406300
8.083800 0.398000
8.109500 0.388200
8.135200 0.379400
8.161000 0.372400
8.186700 0.367000
8.212400 0.362100
8.238100 0.356300
8.263800 0.350400
8.289600 0.344200
8.315300 0.338000
8.341000 0.332100
8.366700 0.327100
8.392500 0.323000
8.418200 0.319700
8.443900 0.318200
8.469600 0.317200
8.495300 0.318800
8.521100 0.319900
8.546800 0.317800
8.572500 0.310400
8.598200 0.302100
8.623900 0.295900
8.649700 0.291800
8.675400 0.287800
8.701100 0.284000
8.726800 0.280500
8.752500 0.288700
8.778300 0.272100
8.804000 0.273600
8.829700 0.275300
8.855400 0.272700
8.881200 0.266300
8.906900 0.259700
8.932600 0.254100
8.958300 0.249400
8.984000 0.245500
9.009800 0.242400
9.035500 0.240000
9.061200 0.238300
9.086900 0.237200
9.112600 0.236900
9.138400 0.236800
9.164100 0.237000
9.189800 0.240900
9.215500 0.245700
9.241300 0.249100
9.267000 0.251400
9.292700 0.254500
9.318400 0.245400
9.344100 0.252500
9.369900 0.260600
9.395600 0.269700
9.421300 0.279800
9.447000 0.292500
9.472700 0.309600
9.498500 0.328500
9.524200 0.330200
9.549900 0.330900
9.575600 0.331300
9.601300 0.331400
9.627100 0.331500
9.652800 0.331400
9.678500 0.332700
9.704200 0.334900
9.730000 0.336800
9.755700 0.343700
9.781400 0.355000
9.807100 0.369400
9.832800 0.385600
9.858600 0.397700
9.884300 0.398200
9.910000 0.398800
9.935700 0.387400
9.961400 0.388000
9.987200 0.389600
10.012900 0.392000
10.038600 0.394700
10.064300 0.397200
10.090000 0.399700
10.115800 0.404600
10.141500 0.410600
10.167200 0.401500
10.192900 0.401900
10.218700 0.402400
10.244400 0.402500
10.270100 0.403800
10.295800 0.405300
10.321500 0.405000
10.347300 0.401000
10.373000 0.394300
10.398700 0.390000
10.424400 0.385100
10.450100 0.378800
10.475900 0.375300
10.501600 0.372100
10.527300 0.369700
10.553000 0.367800
10.578800 0.365600
10.604500 0.363300
10.630200 0.361000
10.655900 0.359400
10.681600 0.358600
10.707400 0.358600
10.733100 0.359500
10.758800 0.361100
10.784500 0.359500
10.810200 0.354700
10.836000 0.346000
10.861700 0.332500
10.887400 0.321200
10.913100 0.317300
10.938800 0.313700
10.964600 0.311500
10.990300 0.310200
11.016000 0.308500
11.041700 0.306200
11.067500 0.303500
11.093200 0.300300
11.118900 0.296600
11.144600 0.292500
11.170300 0.287800
11.196100 0.283500
11.221800 0.280700
11.247500 0.285400
11.273200 0.293900
11.298900 0.273100
11.324700 0.271300
11.350400 0.271100
11.376100 0.271600
11.401800 0.277000
11.427600 0.278300
11.453300 0.279000
11.479000 0.279100
11.504700 0.278900
11.530400 0.278600
11.556200 0.278300
11.581900 0.277900
11.607600 0.277300
11.633300 0.276700
11.659000 0.276200
11.684800 0.275700
11.710500 0.275100
11.736200 0.274800
11.761900 0.275600
11.787600 0.277600
11.813400 0.281800
11.839100 0.288700
11.864800 0.298200
11.890500 0.310300
11.916300 0.325000
11.942000 0.336200
11.967700 0.343000
11.993400 0.347800
12.019100 0.350500
12.044900 0.352500
12.070600 0.354200
12.096300 0.355700
12.122000 0.356900
12.147700 0.357800
12.173500 0.358100
12.199200 0.357900
12.224900 0.359400
12.250600 0.359300
12.276400 0.357300
12.302100 0.356500
12.327800 0.356900
12.353500 0.358400
12.379200 0.360500
12.405000 0.362900
12.430700 0.365600
12.456400 0.368500
12.482100 0.371400
12.507800 0.373300
12.533600 0.371700
12.559300 0.368800
12.585000 0.366100
12.610700 0.363300
12.636400 0.360800
12.662200 0.358800
12.687900 0.357200
12.713600 0.356100
12.739300 0.355300
12.765100 0.354900
12.790800 0.354800
12.816500 0.354900
12.842200 0.355200
12.867900 0.355700
12.893700 0.357200
12.919400 0.358700
12.945100 0.360200
12.970800 0.361700
12.996500 0.362900
13.022300 0.363900
13.048000 0.364800
13.073700 0.366900
13.099400 0.368200
13.125100 0.369200
13.150900 0.370000
13.176600 0.370200
13.202300 0.370600
13.228000 0.371400
13.253800 0.370500
13.279500 0.369300
13.305200 0.368300
13.330900 0.367300
13.356600 0.365600
13.382400 0.364000
13.408100 0.362100
13.433800 0.360200
13.459500 0.358600
13.485200 0.357300
13.511000 0.356300
13.536700 0.355600
13.562400 0.355300
13.588100 0.355400
13.613900 0.355800
13.639600 0.356700
13.665300 0.357800
13.691000 0.359000
13.716700 0.388400
13.742500 0.361500
13.768200 0.363100
13.793900 0.364800
13.819600 0.366700
13.845300 0.368400
13.871100 0.370100
13.896800 0.371400
13.922500 0.372800
13.948200 0.371200
13.973900 0.368900
13.999700 0.367200
14.025400 0.366100
14.051100 0.365500
14.076800 0.364800
14.102600 0.364200
14.128300 0.363500
14.154000 0.460800
14.179700 0.389400
14.205400 0.394100
14.231200 0.406800
14.256900 0.411700
14.282600 0.405000
14.308300 0.406500
14.334000 0.411100
14.359800 0.414500
14.385500 0.416300
14.411200 0.419800
14.436900 0.427300
14.462700 0.436700
14.488400 0.438700
14.514100 0.437100
14.539800 0.435800
14.565500 0.438200
14.591300 0.439300
14.617000 0.440700
14.642700 0.442900
14.668400 0.448100
14.694100 0.453100
14.719900 0.457600
14.745600 0.463000
14.771300 0.473300
14.797000 0.482300
14.822700 0.483600
14.848500 0.479900
14.874200 0.481700
14.899900 0.489800
14.925600 0.508700
14.951400 0.516900
14.977100 0.525300
15.002800 0.538200
15.028500 0.541000
15.054200 0.517700
15.080000 0.517400
15.105700 0.519600
15.131400 0.522500
15.157100 0.526200
15.182800 0.530700
15.208600 0.535900
15.234300 0.530900
15.260000 0.523800
15.285700 0.519600
15.311400 0.516800
15.337200 0.515600
15.362900 0.515600
15.388600 0.515400
15.414300 0.514300
15.440100 0.512700
15.465800 0.512900
15.491500 0.513600
15.517200 0.514200
15.542900 0.514900
15.568700 0.515900
15.594400 0.517100
15.620100 0.518300
15.645800 0.519100
15.671500 0.519000
15.697300 0.517900
15.723000 0.519000
15.748700 0.519900
15.774400 0.520200
15.800200 0.519700
15.825900 0.518400
15.851600 0.517100
15.877300 0.516200
15.903000 0.515600
15.928800 0.515200
15.954500 0.514900
15.980200 0.514700
16.005900 0.514500
16.031600 0.514200
16.057400 0.514000
16.083100 0.513700
16.108800 0.513500
16.134500 0.513200
16.160200 0.512900
16.186000 0.512500
16.211700 0.511900
16.237400 0.511100
16.263100 0.510300
16.288900 0.509400
16.314600 0.508500
16.340300 0.507900
16.366000 0.507300
16.391700 0.507100
16.417500 0.506600
16.443200 0.506400
16.468900 0.506600
16.494600 0.506900
16.520300 0.507100
16.546100 0.507600
16.571800 0.507800
16.597500 0.507600
16.623200 0.507200
16.649000 0.506500
16.674700 0.505800
16.700400 0.505100
16.726100 0.504400
16.751800 0.503800
16.777600 0.503200
16.803300 0.502700
16.829000 0.502200
16.854700 0.501700
16.880400 0.501300
16.906200 0.500900
16.931900 0.500500
16.957600 0.500300
16.983300 0.500000
17.009000 0.499800
17.034800 0.499400
17.060500 0.499100
17.086200 0.498700
17.111900 0.499000
17.137700 0.499100
17.163400 0.498500
17.189100 0.497900
17.214800 0.497400
17.240500 0.496900
17.266300 0.496400
17.292000 0.496000
17.317700 0.495800
17.343400 0.495700
17.369100 0.495800
17.394900 0.495600
17.420600 0.495500
17.446300 0.495900
17.472000 0.496300
17.497800 0.496600
17.523500 0.496700
17.549200 0.496200
17.574900 0.495800
17.600600 0.495300
17.626400 0.494900
17.652100 0.494300
17.677800 0.493800
17.703500 0.492800
17.729200 0.491800
17.755000 0.491100
17.780700 0.490600
17.806400 0.490200
17.832100 0.489900
17.857800 0.489000
17.883600 0.488200
17.909300 0.487500
17.935000 0.486900
17.960700 0.486400
17.986500 0.485900
18.012200 0.485400
18.037900 0.484900
18.063600 0.484500
18.089300 0.484100
18.115100 0.483700
18.140800 0.483500
18.166500 0.483400
18.192200 0.483500
18.217900 0.483800
18.243700 0.484100
18.269400 0.483900
18.295100 0.483900
18.320800 0.484000
18.346500 0.484100
18.372300 0.484100
18.398000 0.484300
18.423700 0.484600
18.449400 0.485100
18.475200 0.485000
18.500900 0.484600
18.526600 0.484400
18.552300 0.484300
18.578000 0.484600
18.603800 0.485000
18.629500 0.485600
18.655200 0.485900
18.680900 0.486500
18.706600 0.486700
18.732400 0.487600
18.758100 0.488500
18.783800 0.489200
18.809500 0.489700
18.835300 0.489900
18.861000 0.490100
18.886700 0.490300
18.912400 0.490500
18.938100 0.490700
18.963900 0.490800
18.989600 0.490400
19.015300 0.490200
19.041000 0.490000
19.066700 0.489900
19.092500 0.490000
19.118200 0.490300
19.143900 0.490900
19.169600 0.491800
19.195300 0.493200
19.221100 0.495700
19.246800 0.498900
19.272500 0.502800
19.298200 0.507400
19.324000 0.512400
19.349700 0.519700
19.375400 0.526500
19.401100 0.532200
19.426800 0.537400
19.452600 0.542100
19.478300 0.546400
19.504000 0.550100
19.529700 0.557900
19.555400 0.584700
19.581200 0.733600
19.606900 0.821300
19.632600 0.674800
19.658300 0.635700
19.684100 0.600500
19.709800 0.572000
19.735500 0.562100
19.761200 0.554700
19.786900 0.549600
19.812700 0.544800
19.838400 0.535400
19.864100 0.522900
19.889800 0.510500
19.915500 0.501000
19.941300 0.498400
19.967000 0.496200
19.992700 0.494700
20.018400 0.493800
20.044100 0.493400
20.069900 0.492900
20.095600 0.491600
20.121300 0.488300
20.147000 0.484200
20.172800 0.481300
20.198500 0.480700
20.224200 0.481300
20.249900 0.482900
20.275600 0.486200
20.301400 0.497100
20.327100 0.513000
20.352800 0.519100
20.378500 0.529400
20.404200 0.541200
20.430000 0.554900
20.455700 0.584800
20.481400 0.605100
20.507100 0.577900
20.532800 0.564600
20.558600 0.547900
20.584300 0.523000
20.610000 0.512700
20.635700 0.508000
20.661500 0.504000
20.687200 0.501900
20.712900 0.501900
20.738600 0.501700
20.764300 0.500100
20.790100 0.497100
20.815800 0.494700
20.841500 0.485500
20.867200 0.483200
20.892900 0.484700
20.918700 0.489600
20.944400 0.495600
20.970100 0.502200
20.995800 0.513200
21.021600 0.528500
21.047300 0.543500
21.073000 0.557900
21.098700 0.571900
21.124400 0.591000
21.150200 0.615400
21.175900 0.642700
21.201600 0.609700
21.227300 0.513800
21.253000 0.498900
21.278800 0.493900
21.304500 0.495500
21.330200 0.498200
21.355900 0.503700
21.381600 0.513500
21.407400 0.526600
21.433100 0.541200
21.458800 0.556700
21.484500 0.574000
21.510300 0.595200
21.536000 0.617900
21.561700 0.643500
21.587400 0.676000
21.613100 0.723700
21.638900 0.741600
21.664600 0.756500
21.690300 0.771500
21.716000 0.784400
21.741700 0.798400
21.767500 0.816900
21.793200 0.839600
21.818900 0.861800
21.844600 0.882200
21.870400 0.899800
21.896100 0.917500
21.921800 0.935200
21.947500 0.945500
21.973200 0.949900
21.999000 0.952600
22.024700 0.954100
22.050400 0.954100
22.076100 0.952100
22.101800 0.956200
22.127600 0.959900
22.153300 0.962300
22.179000 0.962900
22.204700 0.962300
22.230400 0.957500
22.256200 0.939900
22.281900 0.927100
22.307600 0.921000
22.333300 0.902300
22.359100 0.883800
22.384800 0.866300
22.410500 0.849700
22.436200 0.835200
22.461900 0.822700
22.487700 0.811200
22.513400 0.801600
22.539100 0.790800
22.564800 0.777800
22.590500 0.765400
22.616300 0.750700
22.642000 0.740300
22.667700 0.736900
22.693400 0.735000
22.719200 0.732900
22.744900 0.731000
22.770600 0.729600
22.796300 0.728700
22.822000 0.729000
22.847800 0.729000
22.873500 0.728700
22.899200 0.728700
22.924900 0.729000
22.950600 0.728400
22.976400 0.729700
23.002100 0.737500
23.027800 0.751900
23.053500 0.772900
23.079200 0.800300
23.105000 0.790100
23.130700 0.776700
23.156400 0.754100
23.182100 0.735400
23.207900 0.722900
23.233600 0.710700
23.259300 0.698900
23.285000 0.688200
23.310700 0.679000
23.336500 0.671700
23.362200 0.666600
23.387900 0.663700
23.413600 0.655800
23.439300 0.646300
23.465100 0.640800
23.490800 0.637100
23.516500 0.630900
23.542200 0.624600
23.567900 0.617700
23.593700 0.619900
23.619400 0.625200
23.645100 0.640300
23.670800 0.620100
23.696600 0.613600
23.722300 0.623800
23.748000 0.626700
23.773700 0.632200
23.799400 0.639600
23.825200 0.643000
23.850900 0.643500
23.876600 0.652700
23.902300 0.643800
23.928000 0.634900
23.953800 0.626000
23.979500 0.623400
24.005200 0.619800
24.030900 0.616400
24.056700 0.613900
24.082400 0.612500
24.108100 0.613800
24.133800 0.613000
24.159500 0.609200
24.185300 0.604700
24.211000 0.596200
24.236700 0.589700
24.262400 0.587400
24.288100 0.591500
24.313900 0.601600
24.339600 0.607400
24.365300 0.590100
24.391000 0.585600
24.416700 0.582100
24.442500 0.578000
24.468200 0.573700
24.493900 0.567900
24.519600 0.562500
24.545400 0.558000
24.571100 0.553500
24.596800 0.549500
24.622500 0.546000
24.648200 0.543300
24.674000 0.542500
24.699700 0.537900
24.725400 0.523700
24.751100 0.524500
24.776800 0.517000
24.802600 0.501500
24.828300 0.487600
24.854000 0.486900
24.879700 0.467700
24.905500 0.455900
24.931200 0.440300
24.956900 0.420900
24.982600 0.405400
25.008300 0.397600
25.034100 0.389400
25.059800 0.380500
25.085500 0.373300
25.111200 0.368100
25.136900 0.364900
25.162700 0.363700
25.188400 0.365100
25.214100 0.366800
25.239800 0.368100
25.265500 0.368800
25.291300 0.371300
25.317000 0.364800
25.342700 0.352100
25.368400 0.336200
25.394200 0.320900
25.419900 0.307000
25.445600 0.297300
25.471300 0.290600
25.497000 0.285500
25.522800 0.285100
25.548500 0.287300
25.574200 0.292000
25.599900 0.297500
25.625600 0.303100
25.651400 0.308600
25.677100 0.314200
25.702800 0.319700
25.728500 0.327200
25.754200 0.322300
25.780000 0.334600
25.805700 0.413700
25.831400 0.333200
25.857100 0.341200
25.882900 0.343300
25.908600 0.343400
25.934300 0.332300
25.960000 0.335200
25.985700 0.340100
26.011500 0.341400
26.037200 0.340400
26.062900 0.344000
26.088600 0.378000
26.114300 0.414100
26.140100 0.490000
26.165800 0.473700
26.191500 0.467900
26.217200 0.474400
26.243000 0.483300
26.268700 0.491500
26.294400 0.498700
26.320100 0.505200
26.345800 0.510200
26.371600 0.511200
26.397300 0.508500
26.423000 0.510500
26.448700 0.513300
26.474400 0.515300
26.500200 0.516100
26.525900 0.509400
26.551600 0.496600
26.577300 0.483600
26.603000 0.469500
26.628800 0.444500
26.654500 0.433400
26.680200 0.427100
26.705900 0.421100
26.731700 0.415600
26.757400 0.410500
26.783100 0.405800
26.808800 0.401700
26.834500 0.398000
26.860300 0.394900
26.886000 0.394200
26.911700 0.392200
26.937400 0.389500
26.963100 0.386800
26.988900 0.383900
27.014600 0.381000
27.040300 0.377900
27.066000 0.365800
27.091800 0.364100
27.117500 0.362700
27.143200 0.361800
27.168900 0.361300
27.194600 0.361200
27.220400 0.361200
27.246100 0.361200
27.271800 0.361300
27.297500 0.361300
27.323200 0.360700
27.349000 0.360000
27.374700 0.355300
27.400400 0.355500
27.426100 0.356200
27.451800 0.357300
27.477600 0.358600
27.503300 0.360400
27.529000 0.363200
27.554700 0.367500
27.580500 0.376900
27.606200 0.386800
27.631900 0.392000
27.657600 0.402500
27.683300 0.424300
27.709100 0.441100
27.734800 0.454000
27.760500 0.465200
27.786200 0.476300
27.811900 0.487200
27.837700 0.498100
27.863400 0.509000
27.889100 0.519900
27.914800 0.530900
27.940600 0.541400
27.966300 0.551800
27.992000 0.562000
28.017700 0.598300
28.043400 0.570400
28.069200 0.575800
28.094900 0.585200
28.120600 0.594100
28.146300 0.603500
28.172000 0.613400
28.197800 0.622700
28.223500 0.632000
28.249200 0.642500
28.274900 0.652500
28.300600 0.660300
28.326400 0.671400
28.352100 0.701500
28.377800 0.705000
28.403500 0.703200
28.429300 0.699500
28.455000 0.708700
28.480700 0.725400
28.506400 0.737800
28.532100 0.749300
28.557900 0.760300
28.583600 0.770700
28.609300 0.777500
28.635000 0.784600
28.660700 0.793100
28.686500 0.800400
28.712200 0.832800
28.737900 0.848300
28.763600 0.830000
28.789300 0.860300
28.815100 0.898500
28.840800 0.926900
28.866500 0.947100
28.892200 0.957600
28.918000 0.909200
28.943700 0.933100
28.969400 0.894000
28.995100 0.835000
29.020800 0.808500
29.046600 0.793700
29.072300 0.780200
29.098000 0.767700
29.123700 0.756200
29.149400 0.745000
29.175200 0.733000
29.200900 0.721000
29.226600 0.712300
29.252300 0.704700
29.278100 0.696600
29.303800 0.689500
29.329500 0.687500
29.355200 0.686300
29.380900 0.696100
29.406700 0.694100
29.432400 0.688700
29.458100 0.687700
29.483800 0.690400
29.509500 0.694400
29.535300 0.697400
29.561000 0.698300
29.586700 0.697800
29.612400 0.698100
29.638100 0.700300
29.663900 0.704400
29.689600 0.709800
29.715300 0.717200
29.741000 0.726200
29.766800 0.736200
29.792500 0.747800
29.818200 0.759700
29.843900 0.778100
29.869600 0.804500
29.895400 0.826400
29.921100 0.858600
29.946800 0.877100
29.972500 0.886900
29.998200 0.909400
30.024000 0.913800
30.049700 0.918200
30.075400 0.930300
30.101100 0.951300
30.126900 0.980800
30.152600 1.019300
30.178300 1.057600
30.204000 1.063300
30.229700 1.059200
30.255500 1.070200
30.281200 1.057500
30.306900 1.015000
30.332600 0.990500
30.358300 0.985200
30.384100 1.004100
30.409800 1.027300
30.435500 1.006900
30.461200 0.991200
30.486900 0.982100
30.512700 0.977400
30.538400 0.967000
30.564100 0.959400
30.589800 0.956700
30.615600 0.956600
30.641300 0.960900
30.667000 0.966300
30.692700 0.971900
30.718400 0.977800
30.744200 0.984600
30.769900 0.993600
30.795600 1.002300
30.821300 1.007000
30.847000 1.007700
30.872800 1.006300
30.898500 1.005600
30.924200 1.003500
30.949900 1.018000
30.975600 1.032100
31.001400 1.037700
31.027100 1.038500
31.052800 1.022000
31.078500 0.997600
31.104300 0.976500
31.130000 0.956900
31.155700 0.940200
31.181400 0.925400
31.207100 0.911300
31.232900 0.899500
31.258600 0.897900
31.284300 0.907600
31.310000 0.902700
31.335700 0.896000
31.361500 0.886200
31.387200 0.873300
31.412900 0.858500
31.438600 0.848100
31.464400 0.847700
31.490100 0.848300
31.515800 0.851200
31.541500 0.848400
31.567200 0.847400
31.593000 0.842800
31.618700 0.826300
31.644400 0.826400
31.670100 0.824100
31.695800 0.823400
31.721600 0.824900
31.747300 0.827100
31.773000 0.827800
31.798700 0.828400
31.824400 0.832800
31.850200 0.835900
31.875900 0.838700
31.901600 0.846500
31.927300 0.858600
31.953100 0.872200
31.978800 0.887800
32.004500 0.900000
32.030200 0.911800
32.055900 0.931300
32.081700 0.937900
32.107400 0.933100
32.133100 0.926700
32.158800 0.961100
32.184500 0.958500
32.210300 0.930600
32.236000 0.916300
32.261700 0.903700
32.287400 0.912800
32.313200 0.917500
32.338900 0.919200
32.364600 0.919500
32.390300 0.915200
32.416000 0.900200
32.441800 0.911500
32.467500 0.924700
32.493200 0.918400
32.518900 0.914700
32.544600 0.914900
32.570400 0.919300
32.596100 0.929500
32.621800 0.943300
32.647500 0.960400
32.673200 0.976700
32.699000 0.986400
32.724700 0.993900
32.750400 1.000300
32.776100 1.021900
32.801900 1.040500
32.827600 1.059200
32.853300 1.066400
32.879000 1.016200
32.904700 1.019200
32.930500 1.026800
32.956200 1.030400
32.981900 1.026600
33.007600 1.015300
33.033300 0.999800
33.059100 0.983600
33.084800 0.971900
33.110500 0.947300
33.136200 0.918600
33.162000 0.891200
33.187700 0.870300
33.213400 0.951600
33.239100 0.853000
33.264800 0.854100
33.290600 0.792600
33.316300 0.756500
33.342000 0.740900
33.367700 0.728000
33.393400 0.716600
33.419200 0.706400
33.444900 0.697300
33.470600 0.689200
33.496300 0.682000
33.522000 0.675900
33.547800 0.672700
33.573500 0.672300
33.599200 0.674400
33.624900 0.679100
33.650700 0.697000
33.676400 0.731700
33.702100 0.717900
33.727800 0.705000
33.753500 0.694500
33.779300 0.686000
33.805000 0.677800
33.830700 0.671800
33.856400 0.671000
33.882100 0.670800
33.907900 0.668700
33.933600 0.663500
33.959300 0.658400
33.985000 0.654500
34.010700 0.654000
34.036500 0.654900
34.062200 0.656100
34.087900 0.658300
34.113600 0.661800
34.139400 0.666300
34.165100 0.672000
34.190800 0.679400
34.216500 0.692400
34.242200 0.704200
34.268000 0.707900
34.293700 0.711400
34.319400 0.715000
34.345100 0.718100
34.370800 0.721200
34.396600 0.725400
34.422300 0.730900
34.448000 0.737700
34.473700 0.745600
34.499500 0.756800
34.525200 0.771100
34.550900 0.788700
34.576600 0.827900
34.602300 0.881600
34.628100 0.842000
34.653800 0.820600
34.679500 0.815600
34.705200 0.810300
34.730900 0.804900
34.756700 0.799400
34.782400 0.793800
34.808100 0.788200
34.833800 0.782300
34.859500 0.775900
34.885300 0.769100
34.911000 0.762200
34.936700 0.755800
34.962400 0.748000
34.988200 0.740700
35.013900 0.733700
35.039600 0.727400
35.065300 0.722500
35.091000 0.719500
35.116800 0.717500
35.142500 0.716000
35.168200 0.714400
35.193900 0.712400
35.219600 0.710100
35.245400 0.707800
35.271100 0.705600
35.296800 0.703400
35.322500 0.701600
35.348300 0.700700
35.374000 0.699700
35.399700 0.698800
35.425400 0.698000
35.451100 0.697000
35.476900 0.695700
35.502600 0.694100
35.528300 0.692900
35.554000 0.691000
35.579700 0.688200
35.605500 0.684100
35.631200 0.680800
35.656900 0.680200
35.682600 0.680400
35.708300 0.678100
35.734100 0.677700
35.759800 0.678800
35.785500 0.683000
35.811200 0.701800
35.837000 0.703900
35.862700 0.695800
35.888400 0.694600
35.914100 0.693600
35.939800 0.692800
35.965600 0.692400
35.991300 0.693600
36.017000 0.696200
36.042700 0.700900
36.068400 0.705800
36.094200 0.711200
36.119900 0.717000
36.145600 0.723600
36.171300 0.734500
36.197000 0.747900
36.222800 0.768700
36.248500 0.784100
36.274200 0.792000
36.299900 0.795700
36.325700 0.803200
36.351400 0.816900
36.377100 0.835600
36.402800 0.843100
36.428500 0.843300
36.454300 0.837000
36.480000 0.833000
36.505700 0.822500
36.531400 0.795700
36.557100 0.785800
36.582900 0.780200
36.608600 0.777500
36.634300 0.776800
36.660000 0.774200
36.685800 0.770300
36.711500 0.764900
36.737200 0.762100
36.762900 0.762700
36.788600 0.765000
36.814400 0.769200
36.840100 0.773900
36.865800 0.777500
36.891500 0.780700
36.917200 0.793700
36.943000 0.796100
36.968700 0.795600
36.994400 0.816500
37.020100 0.823600
37.045800 0.828000
37.071600 0.832600
37.097300 0.835900
37.123000 0.848900
37.148700 0.845400
37.174500 0.842200
37.200200 0.839100
37.225900 0.826700
37.251600 0.807700
37.277300 0.793700
37.303100 0.791200
37.328800 0.801200
37.354500 0.812400
37.380200 0.822900
37.405900 0.834700
37.431700 0.848900
37.457400 0.860100
37.483100 0.863900
37.508800 0.858800
37.534600 0.845800
37.560300 0.851700
37.586000 0.862700
37.611700 0.871300
37.637400 0.879700
37.663200 0.874500
37.688900 0.871500
37.714600 0.867200
37.740300 0.859500
37.766000 0.850500
37.791800 0.843300
37.817500 0.837900
37.843200 0.835200
37.868900 0.835800
37.894600 0.839300
37.920400 0.845900
37.946100 0.856200
37.971800 0.869200
37.997500 0.883400
38.023300 0.899600
38.049000 0.918500
38.074700 0.941400
38.100400 0.970400
38.126100 1.154200
38.151900 1.066500
38.177600 1.076900
38.203300 1.088800
38.229000 1.101900
38.254700 1.114800
38.280500 1.154100
38.306200 1.135300
38.331900 1.160200
38.357600 1.434600
38.383300 1.250900
38.409100 1.132700
38.434800 1.111700
38.460500 1.103000
38.486200 1.093000
38.512000 1.082700
38.537700 1.073500
38.563400 1.066200
38.589100 1.057300
38.614800 1.054500
38.640600 1.052300
38.666300 1.046600
38.692000 1.038900
38.717700 1.031900
38.743400 1.028400
38.769200 1.024700
38.794900 1.009700
38.820600 0.996700
38.846300 0.985900
38.872100 0.977100
38.897800 0.971600
38.923500 0.968500
38.949200 0.965900
38.974900 0.962900
39.000700 0.959800
39.026400 0.954400
39.052100 0.953800
39.077800 0.955300
39.103500 0.962000
39.129300 0.964100
39.155000 0.966700
39.180700 0.959500
39.206400 0.954700
39.232100 0.956200
39.257900 0.969900
39.283600 1.001100
39.309300 1.008700
39.335000 0.984800
39.360800 0.965400
39.386500 0.984600
39.412200 0.936200
39.437900 0.890300
39.463600 0.849200
39.489400 0.813600
39.515100 0.787200
39.540800 0.770700
39.566500 0.766800
39.592200 0.759500
39.618000 0.744600
39.643700 0.736300
39.669400 0.730800
39.695100 0.726100
39.720900 0.718600
39.746600 0.712000
39.772300 0.707000
39.798000 0.716600
39.823700 0.711600
39.849500 0.711000
39.875200 0.711600
39.900900 0.709300
39.926600 0.708600
39.952300 0.703900
39.978100 0.684200
40.003800 0.673900
40.029500 0.664100
40.055200 0.653100
40.080900 0.641500
40.106700 0.628200
40.132400 0.613500
40.158100 0.599700
40.183800 0.585800
40.209600 0.570000
40.235300 0.554900
40.261000 0.544800
40.286700 0.529500
40.312400 0.504500
40.338200 0.482600
40.363900 0.463700
40.389600 0.430700
40.415300 0.389000
40.441000 0.365800
40.466800 0.346000
40.492500 0.334500
40.518200 0.324200
40.543900 0.314600
40.569700 0.304700
40.595400 0.295000
40.621100 0.285500
40.646800 0.276100
40.672500 0.267000
40.698300 0.259300
40.724000 0.250300
40.749700 0.242400
40.775400 0.237500
40.801100 0.235500
40.826900 0.236000
40.852600 0.236500
40.878300 0.236400
40.904000 0.236400
40.929700 0.236400
40.955500 0.236600
40.981200 0.236800
41.006900 0.237100
41.032600 0.238100
41.058400 0.240100
41.084100 0.242200
41.109800 0.244400
41.135500 0.247000
41.161200 0.250000
41.187000 0.253500
41.212700 0.257400
41.238400 0.262000
41.264100 0.267800
41.289800 0.273700
41.315600 0.281500
41.341300 0.289500
41.367000 0.297700
41.392700 0.305800
41.418400 0.313200
41.444200 0.318700
41.469900 0.321800
41.495600 0.329500
41.521300 0.294600
41.547100 0.273000
41.572800 0.262300
41.598500 0.257800
41.624200 0.253800
41.649900 0.247600
41.675700 0.245400
41.701400 0.244300
41.727100 0.231900
41.752800 0.215500
41.778500 0.199800
41.804300 0.184800
41.830000 0.170900
41.855700 0.157600
41.881400 0.144100
41.907200 0.130300
41.932900 0.121200
41.958600 0.112700
41.984300 0.104200
42.010000 0.096500
42.035800 0.089600
42.061500 0.075300
42.087200 0.064600
42.112900 0.058700
42.138600 0.054600
42.164400 0.050600
42.190100 0.046700
42.215800 0.043000
42.241500 0.039500
42.267200 0.036100
42.293000 0.032800
42.318700 0.029700
42.344400 0.026800
42.370100 0.023900
42.395900 0.021300
42.421600 0.018800
42.447300 0.016400
42.473000 0.014100
42.498700 0.012100
42.524500 0.000100
42.550200 0.000000
42.575900 0.000000
42.601600 0.000000
42.627300 0.000000
42.653100 0.000000
42.678800 0.000000
42.704500 0.000000
42.730200 0.000000
42.756000 0.000000
42.781700 0.000000
42.807400 0.000000
42.833100 0.000000
42.858800 0.000000
42.884600 0.000000
42.910300 0.000000
42.936000 0.000000
42.961700 0.000000
42.987400 0.000000
43.013200 0.000000
43.038900 0.000000
43.064600 0.000000
43.090300 0.000000
43.116000 0.000000
43.141800 0.000000
43.167500 0.000000
43.193200 0.000000
43.218900 0.000000
43.244700 0.000000
43.270400 0.000000
43.296100 0.000000
43.321800 0.000000
43.347500 0.000000
43.373300 0.000000
43.399000 0.000000
43.424700 0.000000
43.450400 0.000000
43.476100 0.000000
43.501900 0.000000
43.527600 0.000000
43.553300 0.000000
43.579000 0.000000
43.604700 0.000000
43.630500 0.000000
43.656200 0.000000
43.681900 0.000000
43.707600 0.000000
43.733400 0.000000
43.759100 0.000000
43.784800 0.000000
43.810500 0.000000
43.836200 0.000000
43.862000 0.000000
43.887700 0.000000
43.913400 0.000000
43.939100 0.000000
43.964800 0.000000
43.990600 0.000000
44.016300 0.000000
44.042000 0.000000
44.067700 0.000000
44.093500 0.000000
44.119200 0.000000
44.144900 0.000000
44.170600 0.000000
44.196300 0.000000
44.222100 0.000000
44.247800 0.000000
44.273500 0.000000
44.299200 0.000000
44.324900 0.000000
44.350700 0.000000
44.376400 0.000000
44.402100 0.000000
44.427800 0.000000
44.453500 0.000000
44.479300 0.000000
44.505000 0.000000
44.530700 0.000000
44.556400 0.000000
44.582200 0.000000
44.607900 0.000000
44.633600 0.000000
44.659300 0.000000
44.685000 0.000000
44.710800 0.000000
44.736500 0.000000
44.762200 0.000000
44.787900 0.000000
44.813600 0.000000
44.839400 0.000000
44.865100 0.000000
e
