set title 'mp-979273 - Density of States'
set xlabel 'Energy (eV)'
set ylabel 'DOS (states/eV)'
set grid
set xrange [-10:10]
set yrange [0:15.016]
set xzeroaxis lt -1
set terminal png size 800,600
set output 'mp-979273_dos_gnuplot.png'
plot '-' using 1:2 with lines title 'DOS'
-7.750800 0.000000
-7.731200 0.000000
-7.711700 0.000000
-7.692100 0.000000
-7.672600 0.000000
-7.653100 0.000000
-7.633500 0.000000
-7.614000 0.000000
-7.594400 0.000000
-7.574900 0.000000
-7.555400 0.000000
-7.535800 0.000000
-7.516300 0.000000
-7.496700 0.000000
-7.477200 0.000000
-7.457700 0.000000
-7.438100 0.000000
-7.418600 0.000000
-7.399000 0.000000
-7.379500 0.000000
-7.360000 0.000000
-7.340400 0.000000
-7.320900 0.000000
-7.301300 0.000000
-7.281800 0.000000
-7.262300 0.000000
-7.242700 0.000000
-7.223200 0.000000
-7.203700 0.000000
-7.184100 0.000000
-7.164600 0.000000
-7.145000 0.000000
-7.125500 0.000000
-7.106000 0.000000
-7.086400 0.000000
-7.066900 0.000000
-7.047300 0.000000
-7.027800 0.000000
-7.008300 0.000000
-6.988700 0.000000
-6.969200 0.000000
-6.949600 0.000000
-6.930100 0.000000
-6.910600 0.000000
-6.891000 0.000000
-6.871500 0.000000
-6.851900 0.000000
-6.832400 0.000000
-6.812900 0.000000
-6.793300 0.000000
-6.773800 0.000000
-6.754200 0.000000
-6.734700 0.000000
-6.715200 0.000000
-6.695600 0.000000
-6.676100 0.000000
-6.656500 0.000000
-6.637000 0.000000
-6.617500 0.000000
-6.597900 0.000000
-6.578400 0.000000
-6.558800 0.000000
-6.539300 0.000000
-6.519800 0.000000
-6.500200 0.000000
-6.480700 0.000000
-6.461100 0.000000
-6.441600 0.000000
-6.422100 0.000000
-6.402500 0.000000
-6.383000 0.000000
-6.363400 0.000000
-6.343900 0.000000
-6.324400 0.000000
-6.304800 0.000000
-6.285300 0.000000
-6.265700 0.000000
-6.246200 0.000000
-6.226700 0.000000
-6.207100 0.000000
-6.187600 0.000000
-6.168000 0.000000
-6.148500 0.000000
-6.129000 0.000000
-6.109400 0.000000
-6.089900 0.000100
-6.070300 0.000400
-6.050800 0.001900
-6.031300 0.007100
-6.011700 0.020800
-5.992200 0.049800
-5.972600 0.100000
-5.953100 0.170800
-5.933600 0.248300
-5.914000 0.310000
-5.894500 0.351300
-5.875000 0.401000
-5.855400 0.486600
-5.835900 0.588900
-5.816300 0.656600
-5.796800 0.664900
-5.777300 0.649700
-5.757700 0.681700
-5.738200 0.794000
-5.718600 0.939400
-5.699100 1.036200
-5.679600 1.063100
-5.660000 1.087000
-5.640500 1.173700
-5.620900 1.296200
-5.601400 1.382700
-5.581900 1.438100
-5.562300 1.545500
-5.542800 1.753300
-5.523200 2.019400
-5.503700 2.266600
-5.484200 2.448400
-5.464600 2.573200
-5.445100 2.713500
-5.425500 2.963000
-5.406000 3.334500
-5.386500 3.753400
-5.366900 4.191500
-5.347400 4.732900
-5.327800 5.451800
-5.308300 6.254000
-5.288800 6.879700
-5.269200 7.090100
-5.249700 6.829800
-5.230100 6.175000
-5.210600 5.184200
-5.191100 3.907200
-5.171500 2.526200
-5.152000 1.343900
-5.132400 0.570200
-5.112900 0.188900
-5.093400 0.048200
-5.073800 0.009400
-5.054300 0.001400
-5.034700 0.000200
-5.015200 0.000000
-4.995700 0.000000
-4.976100 0.000000
-4.956600 0.000000
-4.937000 0.000000
-4.917500 0.000000
-4.898000 0.000000
-4.878400 0.000000
-4.858900 0.000000
-4.839300 0.000000
-4.819800 0.000000
-4.800300 0.000000
-4.780700 0.000000
-4.761200 0.000000
-4.741600 0.000000
-4.722100 0.000000
-4.702600 0.000000
-4.683000 0.000000
-4.663500 0.000000
-4.643900 0.000000
-4.624400 0.000000
-4.604900 0.000000
-4.585300 0.000000
-4.565800 0.000000
-4.546300 0.000000
-4.526700 0.000000
-4.507200 0.000000
-4.487600 0.000000
-4.468100 0.000000
-4.448600 0.000000
-4.429000 0.000000
-4.409500 0.000000
-4.389900 0.000000
-4.370400 0.000000
-4.350900 0.000000
-4.331300 0.000000
-4.311800 0.000000
-4.292200 0.000000
-4.272700 0.000000
-4.253200 0.000000
-4.233600 0.000000
-4.214100 0.000000
-4.194500 0.000000
-4.175000 0.000000
-4.155500 0.000000
-4.135900 0.000000
-4.116400 0.000000
-4.096800 0.000000
-4.077300 0.000000
-4.057800 0.000000
-4.038200 0.000000
-4.018700 0.000000
-3.999100 0.000000
-3.979600 0.000000
-3.960100 0.000000
-3.940500 0.000000
-3.921000 0.000000
-3.901400 0.000000
-3.881900 0.000000
-3.862400 0.000000
-3.842800 0.000000
-3.823300 0.000000
-3.803700 0.000000
-3.784200 0.000000
-3.764700 0.000000
-3.745100 0.000000
-3.725600 0.000000
-3.706000 0.000000
-3.686500 0.000000
-3.667000 0.000000
-3.647400 0.000000
-3.627900 0.000000
-3.608300 0.000000
-3.588800 0.000000
-3.569300 0.000000
-3.549700 0.000000
-3.530200 0.000000
-3.510600 0.000000
-3.491100 0.000000
-3.471600 0.000000
-3.452000 0.000000
-3.432500 0.000000
-3.412900 0.000000
-3.393400 0.000000
-3.373900 0.000000
-3.354300 0.000000
-3.334800 0.000000
-3.315200 0.000000
-3.295700 0.000000
-3.276200 0.000000
-3.256600 0.000000
-3.237100 0.000000
-3.217600 0.000000
-3.198000 0.000000
-3.178500 0.000000
-3.158900 0.000000
-3.139400 0.000000
-3.119900 0.000000
-3.100300 0.000000
-3.080800 0.000000
-3.061200 0.000000
-3.041700 0.000000
-3.022200 0.000000
-3.002600 0.000000
-2.983100 0.000000
-2.963500 0.000000
-2.944000 0.000000
-2.924500 0.000000
-2.904900 0.000000
-2.885400 0.000000
-2.865800 0.000000
-2.846300 0.000000
-2.826800 0.000000
-2.807200 0.000000
-2.787700 0.000000
-2.768100 0.000000
-2.748600 0.000000
-2.729100 0.000000
-2.709500 0.000000
-2.690000 0.000000
-2.670400 0.000000
-2.650900 0.000000
-2.631400 0.000000
-2.611800 0.000000
-2.592300 0.000000
-2.572700 0.000000
-2.553200 0.000000
-2.533700 0.000000
-2.514100 0.000000
-2.494600 0.000000
-2.475000 0.000000
-2.455500 0.000000
-2.436000 0.000000
-2.416400 0.000000
-2.396900 0.000000
-2.377300 0.000000
-2.357800 0.000000
-2.338300 0.000000
-2.318700 0.000000
-2.299200 0.000000
-2.279600 0.000000
-2.260100 0.000000
-2.240600 0.000000
-2.221000 0.000000
-2.201500 0.000000
-2.181900 0.000000
-2.162400 0.000000
-2.142900 0.000000
-2.123300 0.000000
-2.103800 0.000000
-2.084200 0.000000
-2.064700 0.000000
-2.045200 0.000000
-2.025600 0.000000
-2.006100 0.000000
-1.986500 0.000000
-1.967000 0.000000
-1.947500 0.000000
-1.927900 0.000000
-1.908400 0.000000
-1.888900 0.000000
-1.869300 0.000000
-1.849800 0.000000
-1.830200 0.000000
-1.810700 0.000000
-1.791200 0.000000
-1.771600 0.000000
-1.752100 0.000000
-1.732500 0.000000
-1.713000 0.000000
-1.693500 0.000000
-1.673900 0.000000
-1.654400 0.000000
-1.634800 0.000000
-1.615300 0.000000
-1.595800 0.000000
-1.576200 0.000000
-1.556700 0.000000
-1.537100 0.000000
-1.517600 0.000000
-1.498100 0.000000
-1.478500 0.000000
-1.459000 0.000000
-1.439400 0.000000
-1.419900 0.000000
-1.400400 0.000000
-1.380800 0.000000
-1.361300 0.000000
-1.341700 0.000000
-1.322200 0.000000
-1.302700 0.000000
-1.283100 0.000000
-1.263600 0.000000
-1.244000 0.000000
-1.224500 0.000000
-1.205000 0.000000
-1.185400 0.000000
-1.165900 0.000000
-1.146300 0.000000
-1.126800 0.000000
-1.107300 0.000000
-1.087700 0.000000
-1.068200 0.000000
-1.048600 0.000000
-1.029100 0.000000
-1.009600 0.000000
-0.990000 0.000000
-0.970500 0.000000
-0.950900 0.000000
-0.931400 0.000000
-0.911900 0.000000
-0.892300 0.000000
-0.872800 0.000000
-0.853200 0.000000
-0.833700 0.000000
-0.814200 0.000000
-0.794600 0.000000
-0.775100 0.000000
-0.755500 0.000000
-0.736000 0.000000
-0.716500 0.000000
-0.696900 0.000000
-0.677400 0.000000
-0.657800 0.000000
-0.638300 0.000000
-0.618800 0.000000
-0.599200 0.000000
-0.579700 0.000000
-0.560200 0.000000
-0.540600 0.000000
-0.521100 0.000000
-0.501500 0.000000
-0.482000 0.000000
-0.462500 0.000000
-0.442900 0.000000
-0.423400 0.000000
-0.403800 0.000000
-0.384300 0.000000
-0.364800 0.000000
-0.345200 0.000000
-0.325700 0.000000
-0.306100 0.000000
-0.286600 0.000000
-0.267100 0.000000
-0.247500 0.000000
-0.228000 0.000000
-0.208400 0.000000
-0.188900 0.000000
-0.169400 0.000000
-0.149800 0.000000
-0.130300 0.000000
-0.110700 0.000000
-0.091200 0.000000
-0.071700 0.000000
-0.052100 0.000000
-0.032600 0.000000
-0.013000 0.000000
0.006500 0.000000
0.026000 0.000000
0.045600 0.000000
0.065100 0.000000
0.084700 0.000000
0.104200 0.000000
0.123700 0.000000
0.143300 0.000000
0.162800 0.000000
0.182400 0.000000
0.201900 0.000000
0.221400 0.000000
0.241000 0.000000
0.260500 0.000000
0.280100 0.000000
0.299600 0.000000
0.319100 0.000000
0.338700 0.000200
0.358200 0.001200
0.377800 0.005900
0.397300 0.023000
0.416800 0.070600
0.436400 0.177800
0.455900 0.381500
0.475500 0.719800
0.495000 1.211000
0.514500 1.806600
0.534100 2.364800
0.553600 2.726800
0.573200 2.863000
0.592700 2.904000
0.612200 2.984000
0.631800 3.100500
0.651300 3.162800
0.670900 3.112500
0.690400 2.970300
0.709900 2.820000
0.729500 2.764900
0.749000 2.865700
0.768500 3.086300
0.788100 3.285000
0.807600 3.327900
0.827200 3.252500
0.846700 3.224900
0.866200 3.311300
0.885800 3.412900
0.905300 3.439300
0.924900 3.410800
0.944400 3.342400
0.963900 3.182900
0.983500 2.958300
1.003000 2.813400
1.022600 2.801900
1.042100 2.780300
1.061600 2.612300
1.081200 2.366800
1.100700 2.226800
1.120300 2.241900
1.139800 2.247900
1.159300 2.083600
1.178900 1.829400
1.198400 1.723400
1.218000 1.883500
1.237500 2.222200
1.257000 2.591000
1.276600 2.908400
1.296100 3.173500
1.315700 3.431700
1.335200 3.738900
1.354700 4.141800
1.374300 4.678200
1.393800 5.362200
1.413400 6.144500
1.432900 6.897600
1.452400 7.437600
1.472000 7.588800
1.491500 7.308800
1.511100 6.782500
1.530600 6.337900
1.550100 6.216700
1.569700 6.404500
1.589200 6.687200
1.608800 6.863300
1.628300 6.875500
1.647800 6.750100
1.667400 6.476500
1.686900 6.021600
1.706500 5.446300
1.726000 4.928000
1.745500 4.649200
1.765100 4.674700
1.784600 4.898100
1.804200 5.072000
1.823700 4.927200
1.843200 4.336200
1.862800 3.414500
1.882300 2.450900
1.901900 1.705000
1.921400 1.266300
1.940900 1.088100
1.960500 1.090700
1.980000 1.212900
1.999600 1.404100
2.019100 1.602900
2.038600 1.746200
2.058200 1.796300
2.077700 1.743600
2.097200 1.600500
2.116800 1.402100
2.136300 1.189900
2.155900 0.996800
2.175400 0.860200
2.194900 0.821000
2.214500 0.890400
2.234000 1.039900
2.253600 1.219200
2.273100 1.370900
2.292600 1.466400
2.312200 1.554100
2.331700 1.722600
2.351300 1.992800
2.370800 2.291500
2.390300 2.547000
2.409900 2.767000
2.429400 3.013200
2.449000 3.344400
2.468500 3.783500
2.488000 4.284000
2.507600 4.729700
2.527100 5.057600
2.546700 5.355000
2.566200 5.717400
2.585700 6.089000
2.605300 6.395900
2.624800 6.720700
2.644400 7.165000
2.663900 7.687000
2.683400 8.237400
2.703000 8.849100
2.722500 9.445400
2.742100 9.808400
2.761600 9.867300
2.781100 9.800900
2.800700 9.768500
2.820200 9.705700
2.839800 9.445200
2.859300 8.957300
2.878800 8.437100
2.898400 8.137400
2.917900 8.100000
2.937500 8.114900
2.957000 7.980700
2.976500 7.733400
2.996100 7.562600
3.015600 7.542000
3.035200 7.537000
3.054700 7.400200
3.074200 7.134300
3.093800 6.805000
3.113300 6.425100
3.132900 5.992400
3.152400 5.566200
3.171900 5.256500
3.191500 5.136700
3.211000 5.186900
3.230600 5.370500
3.250100 5.738500
3.269600 6.378700
3.289200 7.293300
3.308700 8.392500
3.328300 9.555600
3.347800 10.641600
3.367300 11.470100
3.386900 11.875300
3.406400 11.847300
3.425900 11.590700
3.445500 11.406600
3.465000 11.507900
3.484600 11.897200
3.504100 12.361100
3.523600 12.535400
3.543200 12.038000
3.562700 10.748600
3.582300 9.034300
3.601800 7.545100
3.621300 6.701000
3.640900 6.419100
3.660400 6.320400
3.680000 6.119500
3.699500 5.818000
3.719000 5.605200
3.738600 5.622200
3.758100 5.835400
3.777700 6.130700
3.797200 6.426500
3.816700 6.603200
3.836300 6.481400
3.855800 6.063000
3.875400 5.651700
3.894900 5.525600
3.914400 5.625800
3.934000 5.737900
3.953500 5.826100
3.973100 6.008400
3.992600 6.328000
4.012100 6.741400
4.031700 7.234100
4.051200 7.762400
4.070800 8.180500
4.090300 8.382900
4.109800 8.446500
4.129400 8.559700
4.148900 8.848200
4.168500 9.284700
4.188000 9.738800
4.207500 10.064100
4.227100 10.119200
4.246600 9.817700
4.266200 9.259400
4.285700 8.736500
4.305200 8.515500
4.324800 8.571200
4.344300 8.546300
4.363900 8.096300
4.383400 7.321300
4.402900 6.749000
4.422500 6.865200
4.442000 7.703000
4.461600 8.840600
4.481100 9.771900
4.500600 10.338500
4.520200 10.812300
4.539700 11.527000
4.559300 12.463800
4.578800 13.268700
4.598300 13.650900
4.617900 13.608500
4.637400 13.231000
4.657000 12.535100
4.676500 11.609400
4.696000 10.672300
4.715600 9.900800
4.735100 9.383700
4.754600 9.175000
4.774200 9.197200
4.793700 9.196200
4.813300 8.944100
4.832800 8.417800
4.852300 7.730100
4.871900 7.007500
4.891400 6.417600
4.911000 6.184600
4.930500 6.385400
4.950000 6.763700
4.969600 6.917100
4.989100 6.659400
5.008700 6.074100
5.028200 5.300800
5.047700 4.468400
5.067300 3.779800
5.086800 3.435400
5.106400 3.420300
5.125900 3.486100
5.145400 3.400800
5.165000 3.160700
5.184500 2.923900
5.204100 2.817200
5.223600 2.860000
5.243100 3.024000
5.262700 3.316900
5.282200 3.807300
5.301800 4.576500
5.321300 5.643300
5.340800 6.912300
5.360400 8.176700
5.379900 9.194100
5.399500 9.805400
5.419000 9.996200
5.438500 9.873500
5.458100 9.600200
5.477600 9.308000
5.497200 9.043200
5.516700 8.817500
5.536200 8.652500
5.555800 8.513900
5.575300 8.273200
5.594900 7.815300
5.614400 7.161900
5.633900 6.436400
5.653500 5.701600
5.673000 4.897500
5.692600 4.001800
5.712100 3.170900
5.731600 2.633300
5.751200 2.492700
5.770700 2.651800
5.790300 2.861300
5.809800 2.873600
5.829300 2.623800
5.848900 2.256000
5.868400 1.973700
5.888000 1.886700
5.907500 1.966600
5.927000 2.112300
5.946600 2.253100
5.966100 2.386100
5.985700 2.530900
6.005200 2.676000
6.024700 2.800000
6.044300 2.942800
6.063800 3.178900
6.083300 3.485500
6.102900 3.716600
6.122400 3.761000
6.142000 3.684900
6.161500 3.664400
6.181000 3.780400
6.200600 3.940100
6.220100 4.005900
6.239700 3.915700
6.259200 3.662100
6.278700 3.240400
6.298300 2.671100
6.317800 2.056200
6.337400 1.565400
6.356900 1.347700
6.376400 1.480700
6.396000 1.951100
6.415500 2.601300
6.435100 3.145500
6.454600 3.349800
6.474100 3.194300
6.493700 2.826000
6.513200 2.403200
6.532800 2.024600
6.552300 1.750600
6.571800 1.611100
6.591400 1.598700
6.610900 1.688400
6.630500 1.818200
6.650000 1.858400
6.669500 1.709700
6.689100 1.445400
6.708600 1.257700
6.728200 1.255500
6.747700 1.389200
6.767200 1.550200
6.786800 1.678600
6.806300 1.782100
6.825900 1.882100
6.845400 1.954300
6.864900 1.952100
6.884500 1.880700
6.904000 1.784600
6.923600 1.679600
6.943100 1.582000
6.962600 1.564400
6.982200 1.668000
7.001700 1.806000
7.021300 1.882400
7.040800 1.943800
7.060300 2.081000
7.079900 2.256600
7.099400 2.355500
7.119000 2.345800
7.138500 2.286600
7.158000 2.207600
7.177600 2.055700
7.197100 1.772700
7.216700 1.391800
7.236200 1.037800
7.255700 0.830100
7.275300 0.794200
7.294800 0.872400
7.314400 1.000800
7.333900 1.148000
7.353400 1.296800
7.373000 1.432400
7.392500 1.551400
7.412000 1.637700
7.431600 1.640000
7.451100 1.533000
7.470700 1.386300
7.490200 1.305800
7.509700 1.317700
7.529300 1.359900
7.548800 1.375300
7.568400 1.371800
7.587900 1.385700
7.607400 1.405900
7.627000 1.362500
7.646500 1.212800
7.666100 1.019200
7.685600 0.906600
7.705100 0.939100
7.724700 1.059100
7.744200 1.154000
7.763800 1.159200
7.783300 1.080900
7.802800 0.954400
7.822400 0.811900
7.841900 0.679200
7.861500 0.579300
7.881000 0.531700
7.900500 0.533700
7.920100 0.544300
7.939600 0.514200
7.959200 0.443300
7.978700 0.386300
7.998200 0.386300
8.017800 0.428900
8.037300 0.481100
8.056900 0.540100
8.076400 0.608100
8.095900 0.644600
8.115500 0.597000
8.135000 0.473200
8.154600 0.343900
8.174100 0.278500
8.193600 0.310100
8.213200 0.440700
8.232700 0.650400
8.252300 0.908200
8.271800 1.169300
8.291300 1.357400
8.310900 1.389500
8.330400 1.255800
8.350000 1.039500
8.369500 0.833400
8.389000 0.673400
8.408600 0.571900
8.428100 0.560600
8.447700 0.668600
8.467200 0.874000
8.486700 1.084600
8.506300 1.183700
8.525800 1.127200
8.545400 0.978500
8.564900 0.832300
8.584400 0.731700
8.604000 0.663300
8.623500 0.609100
8.643100 0.598500
8.662600 0.702500
8.682100 0.956600
8.701700 1.304200
8.721200 1.634600
8.740700 1.866400
8.760300 1.986700
8.779800 2.013900
8.799400 1.953000
8.818900 1.819100
8.838400 1.669400
8.858000 1.547900
8.877500 1.418700
8.897100 1.220500
8.916600 0.983100
8.936100 0.837700
8.955700 0.896000
8.975200 1.130900
8.994800 1.390200
9.014300 1.544200
9.033800 1.594500
9.053400 1.602200
9.072900 1.558900
9.092500 1.405200
9.112000 1.152900
9.131500 0.918700
9.151100 0.827400
9.170600 0.901200
9.190200 1.037500
9.209700 1.089800
9.229200 0.987700
9.248800 0.796900
9.268300 0.678500
9.287900 0.776200
9.307400 1.096700
9.326900 1.481000
9.346500 1.727700
9.366000 1.746500
9.385600 1.569600
9.405100 1.267900
9.424600 0.928400
9.444200 0.656300
9.463700 0.508500
9.483300 0.456000
9.502800 0.454700
9.522300 0.511500
9.541900 0.649800
9.561400 0.847800
9.581000 1.030100
9.600500 1.105300
9.620000 1.026100
9.639600 0.837000
9.659100 0.641500
9.678700 0.502700
9.698200 0.404500
9.717700 0.319600
9.737300 0.263400
9.756800 0.257800
9.776400 0.293000
9.795900 0.352400
9.815400 0.434900
9.835000 0.527000
9.854500 0.590900
9.874100 0.606300
9.893600 0.601200
9.913100 0.619800
9.932700 0.665200
9.952200 0.692000
9.971800 0.665500
9.991300 0.605400
10.010800 0.550100
10.030400 0.516200
10.049900 0.514500
10.069400 0.558900
10.089000 0.631400
10.108500 0.679900
10.128100 0.677500
10.147600 0.667700
10.167100 0.732900
10.186700 0.899400
10.206200 1.076100
10.225800 1.132100
10.245300 1.028300
10.264800 0.830600
10.284400 0.625700
10.303900 0.478500
10.323500 0.429100
10.343000 0.470300
10.362500 0.554200
10.382100 0.651400
10.401600 0.771400
10.421200 0.913200
10.440700 1.033400
10.460200 1.082300
10.479800 1.055000
10.499300 0.994500
10.518900 0.962700
10.538400 1.025400
10.557900 1.220500
10.577500 1.482900
10.597000 1.651800
10.616600 1.622900
10.636100 1.443400
10.655600 1.225100
10.675200 1.034000
10.694700 0.889300
10.714300 0.809700
10.733800 0.818300
10.753300 0.907200
10.772900 1.016700
10.792400 1.079300
10.812000 1.094800
10.831500 1.126300
10.851000 1.218800
10.870600 1.370400
10.890100 1.575200
10.909700 1.826200
10.929200 2.059400
10.948700 2.165100
10.968300 2.104900
10.987800 1.965500
11.007400 1.845700
11.026900 1.754400
11.046400 1.667800
11.066000 1.610200
11.085500 1.620900
11.105100 1.675800
11.124600 1.686400
11.144100 1.592300
11.163700 1.426500
11.183200 1.266500
11.202800 1.168400
11.222300 1.160700
11.241800 1.230100
11.261400 1.308900
11.280900 1.326600
11.300500 1.264500
11.320000 1.164100
11.339500 1.121800
11.359100 1.249600
11.378600 1.564800
11.398100 1.917300
11.417700 2.078800
11.437200 1.940300
11.456800 1.615900
11.476300 1.337700
11.495800 1.252000
11.515400 1.323100
11.534900 1.415600
11.554500 1.444400
11.574000 1.428600
11.593500 1.424600
11.613100 1.446300
11.632600 1.460300
11.652200 1.443000
11.671700 1.420400
11.691200 1.423200
11.710800 1.418400
11.730300 1.325100
11.749900 1.107600
11.769400 0.843600
11.788900 0.685500
11.808500 0.739300
11.828000 0.990700
11.847600 1.340600
11.867100 1.683300
11.886600 1.955600
11.906200 2.125800
11.925700 2.153600
11.945300 2.010900
11.964800 1.763200
11.984300 1.569400
12.003900 1.551600
12.023400 1.686300
12.043000 1.835700
12.062500 1.888200
12.082000 1.851900
12.101600 1.791600
12.121100 1.732800
12.140700 1.684600
12.160200 1.685800
12.179700 1.764700
12.199300 1.894200
12.218800 1.992500
12.238400 1.961600
12.257900 1.775400
12.277400 1.525000
12.297000 1.340700
12.316500 1.305100
12.336100 1.445400
12.355600 1.734100
12.375100 2.071400
12.394700 2.320500
12.414200 2.392100
12.433800 2.280000
12.453300 2.044900
12.472800 1.807100
12.492400 1.695200
12.511900 1.749300
12.531500 1.914600
12.551000 2.121300
12.570500 2.322200
12.590100 2.492500
12.609600 2.638600
12.629200 2.776400
12.648700 2.874900
12.668200 2.852600
12.687800 2.662700
12.707300 2.375400
12.726800 2.147100
12.746400 2.086200
12.765900 2.159000
12.785500 2.254100
12.805000 2.317100
12.824500 2.372800
12.844100 2.431300
12.863600 2.431100
12.883200 2.319800
12.902700 2.146900
12.922200 1.999800
12.941800 1.890200
12.961300 1.791500
12.980900 1.739100
13.000400 1.805600
13.019900 1.989000
13.039500 2.192700
13.059000 2.322900
13.078600 2.357200
13.098100 2.315500
13.117600 2.215300
13.137200 2.071100
13.156700 1.898300
13.176300 1.717300
13.195800 1.564100
13.215300 1.471000
13.234900 1.434100
13.254400 1.412500
13.274000 1.353300
13.293500 1.229500
13.313000 1.091800
13.332600 1.067300
13.352100 1.243700
13.371700 1.560600
13.391200 1.872000
13.410700 2.076700
13.430300 2.136800
13.449800 2.056100
13.469400 1.924500
13.488900 1.908000
13.508400 2.096600
13.528000 2.383900
13.547500 2.559400
13.567100 2.516700
13.586600 2.316600
13.606100 2.057700
13.625700 1.778900
13.645200 1.496600
13.664800 1.246800
13.684300 1.067800
13.703800 0.975500
13.723400 0.959000
13.742900 0.999700
13.762500 1.080400
13.782000 1.164500
13.801500 1.201900
13.821100 1.174400
13.840600 1.098400
13.860200 0.993200
13.879700 0.884800
13.899200 0.823700
13.918800 0.858300
13.938300 0.988800
13.957900 1.155000
13.977400 1.286200
13.996900 1.360000
14.016500 1.395000
14.036000 1.416400
14.055500 1.469900
14.075100 1.606900
14.094600 1.794300
14.114200 1.905500
14.133700 1.859100
14.153200 1.711700
14.172800 1.585100
14.192300 1.543000
14.211900 1.558200
14.231400 1.563500
14.250900 1.497700
14.270500 1.326900
14.290000 1.070700
14.309600 0.817200
14.329100 0.684500
14.348600 0.735300
14.368200 0.919900
14.387700 1.115600
14.407300 1.232000
14.426800 1.279200
14.446300 1.327400
14.465900 1.392900
14.485400 1.399200
14.505000 1.283200
14.524500 1.093500
14.544000 0.943400
14.563600 0.900400
14.583100 0.955400
14.602700 1.068400
14.622200 1.199300
14.641700 1.314500
14.661300 1.424200
14.680800 1.598300
14.700400 1.860100
14.719900 2.065100
14.739400 2.003700
14.759000 1.658800
14.778500 1.258500
14.798100 1.038900
14.817600 1.043900
14.837100 1.183600
14.856700 1.377700
14.876200 1.564500
14.895800 1.652400
14.915300 1.584800
14.934800 1.432200
14.954400 1.327600
14.973900 1.320900
14.993500 1.368900
15.013000 1.442900
15.032500 1.559200
15.052100 1.718700
15.071600 1.892100
15.091200 2.068900
15.110700 2.281300
15.130200 2.570300
15.149800 2.915100
15.169300 3.179900
15.188900 3.190400
15.208400 2.909300
15.227900 2.473500
15.247500 2.055700
15.267000 1.782000
15.286600 1.723000
15.306100 1.823600
15.325600 1.893800
15.345200 1.787300
15.364700 1.570400
15.384200 1.460300
15.403800 1.608600
15.423300 1.952200
15.442900 2.254800
15.462400 2.303100
15.481900 2.081800
15.501500 1.748400
15.521000 1.462200
15.540600 1.278800
15.560100 1.178900
15.579600 1.144800
15.599200 1.201900
15.618700 1.378600
15.638300 1.635100
15.657800 1.878600
15.677300 2.064500
15.696900 2.233200
15.716400 2.425700
15.736000 2.587400
15.755500 2.587800
15.775000 2.352700
15.794600 1.958600
15.814100 1.575400
15.833700 1.336900
15.853200 1.273000
15.872700 1.338400
15.892300 1.499100
15.911800 1.770900
15.931400 2.136800
15.950900 2.469800
15.970400 2.625100
15.990000 2.593400
16.009500 2.466400
16.029100 2.275900
16.048600 1.977000
16.068100 1.581900
16.087700 1.205500
16.107200 0.957000
16.126800 0.859100
16.146300 0.900500
16.165800 1.110300
16.185400 1.516500
16.204900 2.036000
16.224500 2.476900
16.244000 2.686500
16.263500 2.656900
16.283100 2.479000
16.302600 2.268400
16.322200 2.117200
16.341700 2.046300
16.361200 2.012300
16.380800 1.963000
16.400300 1.869300
16.419900 1.751000
16.439400 1.692800
16.458900 1.778600
16.478500 1.989000
16.498000 2.195700
16.517600 2.280100
16.537100 2.238000
16.556600 2.144400
16.576200 2.044300
16.595700 1.922300
16.615300 1.769300
16.634800 1.640500
16.654300 1.618700
16.673900 1.719000
16.693400 1.866800
16.712900 1.985700
16.732500 2.078400
16.752000 2.209200
16.771600 2.405600
16.791100 2.587300
16.810600 2.626100
16.830200 2.474800
16.849700 2.199600
16.869300 1.883200
16.888800 1.550100
16.908300 1.235300
16.927900 1.056600
16.947400 1.126400
16.967000 1.425400
16.986500 1.817700
17.006000 2.163700
17.025600 2.387100
17.045100 2.479900
17.064700 2.480400
17.084200 2.432500
17.103700 2.365100
17.123300 2.306200
17.142800 2.273300
17.162400 2.265500
17.181900 2.300300
17.201400 2.416600
17.221000 2.600600
17.240500 2.757600
17.260100 2.786700
17.279600 2.659000
17.299100 2.422400
17.318700 2.164900
17.338200 1.967500
17.357800 1.856300
17.377300 1.792100
17.396800 1.721400
17.416400 1.644900
17.435900 1.640900
17.455500 1.796300
17.475000 2.095900
17.494500 2.403000
17.514100 2.572800
17.533600 2.565100
17.553200 2.443400
17.572700 2.293900
17.592200 2.147800
17.611800 1.956700
17.631300 1.654000
17.650900 1.275000
17.670400 0.990500
17.689900 0.977600
17.709500 1.263600
17.729000 1.697600
17.748600 2.061200
17.768100 2.227000
17.787600 2.209100
17.807200 2.069300
17.826700 1.852700
17.846300 1.631000
17.865800 1.502400
17.885300 1.486500
17.904900 1.493800
17.924400 1.436900
17.944000 1.325700
17.963500 1.244600
17.983000 1.263400
18.002600 1.366600
18.022100 1.476800
18.041600 1.556600
18.061200 1.634700
18.080700 1.713600
18.100300 1.740200
18.119800 1.695900
18.139300 1.630500
18.158900 1.577800
18.178400 1.507500
18.198000 1.395100
18.217500 1.270700
18.237000 1.173000
18.256600 1.112500
18.276100 1.087100
18.295700 1.090400
18.315200 1.133300
18.334700 1.263700
18.354300 1.518700
18.373800 1.871900
18.393400 2.249900
18.412900 2.549100
18.432400 2.648400
18.452000 2.485500
18.471500 2.116000
18.491100 1.668700
18.510600 1.272100
18.530100 1.016400
18.549700 0.935900
18.569200 1.007400
18.588800 1.175000
18.608300 1.393000
18.627800 1.648500
18.647400 1.934200
18.666900 2.205700
18.686500 2.392900
18.706000 2.460500
18.725500 2.441700
18.745100 2.410300
18.764600 2.407900
18.784200 2.396200
18.803700 2.325500
18.823200 2.247800
18.842800 2.278900
18.862300 2.431800
18.881900 2.570700
18.901400 2.564300
18.920900 2.420800
18.940500 2.252600
18.960000 2.178800
18.979600 2.251500
18.999100 2.395900
19.018600 2.440700
19.038200 2.282500
19.057700 2.006800
19.077300 1.805300
19.096800 1.798500
19.116300 1.962200
19.135900 2.200500
19.155400 2.458300
19.175000 2.723000
19.194500 2.929900
19.214000 2.965600
19.233600 2.818700
19.253100 2.651600
19.272700 2.639900
19.292200 2.763700
19.311700 2.824400
19.331300 2.675700
19.350800 2.375900
19.370300 2.082600
19.389900 1.868200
19.409400 1.715600
19.429000 1.639200
19.448500 1.689900
19.468000 1.841700
19.487600 1.996600
19.507100 2.102800
19.526700 2.156900
19.546200 2.125900
19.565700 2.006900
19.585300 1.914400
19.604800 1.973300
19.624400 2.150900
19.643900 2.288700
19.663400 2.273300
19.683000 2.116500
19.702500 1.913200
19.722100 1.772700
19.741600 1.756700
19.761100 1.858700
19.780700 2.036600
19.800200 2.233200
19.819800 2.381400
19.839300 2.445200
19.858800 2.441000
19.878400 2.382600
19.897900 2.246900
19.917500 2.022200
19.937000 1.768500
19.956500 1.611200
19.976100 1.656000
19.995600 1.895600
20.015200 2.205000
20.034700 2.436500
20.054200 2.518000
20.073800 2.461600
20.093300 2.324500
20.112900 2.212600
20.132400 2.248200
20.151900 2.429700
20.171500 2.587800
20.191000 2.567900
20.210600 2.392800
20.230100 2.209300
20.249600 2.156600
20.269200 2.301000
20.288700 2.601800
20.308300 2.917400
20.327800 3.121300
20.347300 3.222300
20.366900 3.293500
20.386400 3.307200
20.406000 3.153700
20.425500 2.814500
20.445000 2.416900
20.464600 2.114400
20.484100 1.977100
20.503700 1.993900
20.523200 2.106000
20.542700 2.200800
20.562300 2.166900
20.581800 2.029300
20.601400 1.955400
20.620900 2.080300
20.640400 2.386200
20.660000 2.746800
20.679500 3.023200
20.699100 3.133000
20.718600 3.075300
20.738100 2.901600
20.757700 2.666600
20.777200 2.413300
20.796700 2.187500
20.816300 2.042900
20.835800 2.019600
20.855400 2.112800
20.874900 2.266300
20.894400 2.389800
20.914000 2.387300
20.933500 2.232300
20.953100 2.027900
20.972600 1.916600
20.992100 1.926500
21.011700 1.984100
21.031200 2.053300
21.050800 2.153000
21.070300 2.244500
21.089800 2.231800
21.109400 2.098500
21.128900 1.933300
21.148500 1.793400
21.168000 1.651800
21.187500 1.494700
21.207100 1.368400
21.226600 1.306900
21.246200 1.289900
21.265700 1.301400
21.285200 1.372700
21.304800 1.526100
21.324300 1.709500
21.343900 1.828400
21.363400 1.829800
21.382900 1.730500
21.402500 1.579600
21.422000 1.410600
21.441600 1.237100
21.461100 1.099000
21.480600 1.073700
21.500200 1.182100
21.519700 1.318600
21.539300 1.362100
21.558800 1.328100
21.578300 1.321700
21.597900 1.378900
21.617400 1.449300
21.637000 1.530900
21.656500 1.734100
21.676000 2.146700
21.695600 2.663700
21.715100 3.036300
21.734700 3.124600
21.754200 3.039000
21.773700 2.986300
21.793300 3.022300
21.812800 3.026900
21.832400 2.895600
21.851900 2.659900
21.871400 2.415900
21.891000 2.224000
21.910500 2.102400
21.930100 2.065700
21.949600 2.149200
21.969100 2.385400
21.988700 2.740300
22.008200 3.096800
22.027800 3.324000
22.047300 3.353300
22.066800 3.198600
22.086400 2.922400
22.105900 2.586300
22.125400 2.242900
22.145000 1.971500
22.164500 1.872600
22.184100 1.993800
22.203600 2.259200
22.223100 2.499400
22.242700 2.583200
22.262200 2.515600
22.281800 2.391900
22.301300 2.279300
22.320800 2.184000
22.340400 2.112300
22.359900 2.104500
22.379500 2.226900
22.399000 2.554600
22.418500 3.092300
22.438100 3.693900
22.457600 4.135700
22.477200 4.264200
22.496700 4.064100
22.516200 3.660000
22.535800 3.244300
22.555300 2.928600
22.574900 2.682100
22.594400 2.440300
22.613900 2.221400
22.633500 2.103000
22.653000 2.123500
22.672600 2.236700
22.692100 2.353900
22.711600 2.434600
22.731200 2.560700
22.750700 2.887000
22.770300 3.442500
22.789800 3.986800
22.809300 4.166900
22.828900 3.862500
22.848400 3.298300
22.868000 2.809400
22.887500 2.597300
22.907000 2.693200
22.926600 2.978500
22.946100 3.210700
22.965700 3.181400
22.985200 2.908800
23.004700 2.616400
23.024300 2.506700
23.043800 2.593300
23.063400 2.753000
23.082900 2.890700
23.102400 3.003700
23.122000 3.107800
23.141500 3.160700
23.161100 3.087000
23.180600 2.857300
23.200100 2.542900
23.219700 2.293800
23.239200 2.223000
23.258800 2.311300
23.278300 2.454000
23.297800 2.568100
23.317400 2.635500
23.336900 2.695600
23.356500 2.811400
23.376000 2.984000
23.395500 3.084600
23.415100 2.962200
23.434600 2.658200
23.454100 2.392100
23.473700 2.289200
23.493200 2.246000
23.512800 2.120100
23.532300 1.955400
23.551800 1.945100
23.571400 2.204300
23.590900 2.640800
23.610500 3.061500
23.630000 3.344800
23.649500 3.464500
23.669100 3.421600
23.688600 3.247300
23.708200 3.025500
23.727700 2.830400
23.747200 2.665800
23.766800 2.492200
23.786300 2.279800
23.805900 2.037300
23.825400 1.819700
23.844900 1.700000
23.864500 1.714100
23.884000 1.843000
23.903600 2.052100
23.923100 2.307100
23.942600 2.537800
23.962200 2.646600
23.981700 2.584400
24.001300 2.387200
24.020800 2.144200
24.040300 1.954500
24.059900 1.896500
24.079400 1.996200
24.099000 2.208200
24.118500 2.439600
24.138000 2.616600
24.157600 2.740300
24.177100 2.864900
24.196700 3.018900
24.216200 3.171500
24.235700 3.273100
24.255300 3.297800
24.274800 3.259800
24.294400 3.224100
24.313900 3.280600
24.333400 3.468200
24.353000 3.701500
24.372500 3.787400
24.392100 3.573700
24.411600 3.085600
24.431100 2.474900
24.450700 1.893100
24.470200 1.463300
24.489800 1.291600
24.509300 1.434800
24.528800 1.852600
24.548400 2.377800
24.567900 2.773000
24.587500 2.893200
24.607000 2.784200
24.626500 2.587600
24.646100 2.391700
24.665600 2.222000
24.685200 2.120500
24.704700 2.134600
24.724200 2.232400
24.743800 2.321800
24.763300 2.359300
24.782800 2.385100
24.802400 2.449200
24.821900 2.542400
24.841500 2.614400
24.861000 2.656400
24.880500 2.733900
24.900100 2.892800
24.919600 3.060700
24.939200 3.096700
24.958700 2.923400
24.978200 2.570000
24.997800 2.130500
25.017300 1.728900
25.036900 1.493200
25.056400 1.520100
25.075900 1.829400
25.095500 2.323000
25.115000 2.811400
25.134600 3.124000
25.154100 3.212400
25.173600 3.146700
25.193200 3.012500
25.212700 2.817400
25.232300 2.518900
25.251800 2.138800
25.271300 1.805800
25.290900 1.657900
25.310400 1.715600
25.330000 1.864900
25.349500 1.984400
25.369000 2.079000
25.388600 2.230100
25.408100 2.414100
25.427700 2.489000
25.447200 2.398800
25.466700 2.275500
25.486300 2.279900
25.505800 2.421600
25.525400 2.574000
25.544900 2.625400
25.564400 2.573100
25.584000 2.459900
25.603500 2.300300
25.623100 2.156000
25.642600 2.182000
25.662100 2.458300
25.681700 2.832600
25.701200 3.034100
25.720800 2.932300
25.740300 2.644400
25.759800 2.398800
25.779400 2.336700
25.798900 2.466000
25.818500 2.736400
25.838000 3.069300
25.857500 3.324600
25.877100 3.329300
25.896600 3.024400
25.916200 2.580400
25.935700 2.289000
25.955200 2.284300
25.974800 2.414800
25.994300 2.443200
26.013900 2.318400
26.033400 2.176100
26.052900 2.124900
26.072500 2.148500
26.092000 2.223400
26.111500 2.407400
26.131100 2.733100
26.150600 3.086400
26.170200 3.278100
26.189700 3.207500
26.209200 2.924900
26.228800 2.571800
26.248300 2.278700
26.267900 2.099200
26.287400 2.044200
26.306900 2.139700
26.326500 2.371200
26.346000 2.613300
26.365600 2.733300
26.385100 2.721200
26.404600 2.628100
26.424200 2.469700
26.443700 2.282700
26.463300 2.173100
26.482800 2.201500
26.502300 2.300200
26.521900 2.392400
26.541400 2.506000
26.561000 2.688400
26.580500 2.890300
26.600000 2.982500
26.619600 2.843100
26.639100 2.463300
26.658700 2.018500
26.678200 1.771400
26.697700 1.868200
26.717300 2.246600
26.736800 2.698500
26.756400 2.992800
26.775900 3.018100
26.795400 2.865600
26.815000 2.733900
26.834500 2.740300
26.854100 2.861700
26.873600 3.046400
26.893100 3.294300
26.912700 3.590100
26.932200 3.837300
26.951800 3.925400
26.971300 3.829800
26.990800 3.608900
27.010400 3.347300
27.029900 3.144500
27.049500 3.089600
27.069000 3.151500
27.088500 3.143400
27.108100 2.907800
27.127600 2.513800
27.147200 2.186200
27.166700 2.061500
27.186200 2.088800
27.205800 2.159400
27.225300 2.237000
27.244900 2.318500
27.264400 2.359700
27.283900 2.316200
27.303500 2.209200
27.323000 2.105400
27.342600 2.062700
27.362100 2.107800
27.381600 2.233100
27.401200 2.378000
27.420700 2.425800
27.440200 2.298300
27.459800 2.068200
27.479300 1.917700
27.498900 2.003500
27.518400 2.385500
27.537900 2.982500
27.557500 3.545700
27.577000 3.805600
27.596600 3.727600
27.616100 3.527500
27.635600 3.404500
27.655200 3.360500
27.674700 3.310600
27.694300 3.272500
27.713800 3.354400
27.733300 3.572400
27.752900 3.802200
27.772400 3.938500
27.792000 3.961600
27.811500 3.828500
27.831000 3.476600
27.850600 2.982900
27.870100 2.577400
27.889700 2.439100
27.909200 2.543700
27.928700 2.745800
27.948300 2.960100
27.967800 3.221800
27.987400 3.587900
28.006900 4.006700
28.026400 4.315500
28.046000 4.405900
28.065500 4.350700
28.085100 4.321300
28.104600 4.434200
28.124100 4.717100
28.143700 5.134600
28.163200 5.622100
28.182800 6.222800
28.202300 7.152200
28.221800 8.530700
28.241400 10.108600
28.260900 11.435000
28.280500 12.224600
28.300000 12.529000
28.319500 12.839200
28.339100 14.128300
28.358600 17.449100
28.378200 23.172500
28.397700 30.744800
28.417200 39.436100
28.436800 48.816500
28.456300 57.554300
28.475900 62.365800
28.495400 60.163300
28.514900 51.563700
28.534500 40.952400
28.554000 33.039000
28.573600 29.936800
28.593100 30.744000
28.612600 32.828600
28.632200 33.657700
28.651700 32.152800
28.671300 28.854200
28.690800 25.079400
28.710300 21.872000
28.729900 19.449800
28.749400 17.399500
28.768900 15.242500
28.788500 12.799600
28.808000 10.210800
28.827600 7.767900
28.847100 5.714900
28.866600 4.156000
28.886200 3.083500
28.905700 2.392500
28.925300 1.902500
28.944800 1.473400
28.964300 1.103400
28.983900 0.871200
29.003400 0.807200
29.023000 0.844500
29.042500 0.867600
29.062000 0.795800
29.081600 0.632000
29.101100 0.440400
29.120700 0.280400
29.140200 0.175300
29.159700 0.127800
29.179300 0.130800
29.198800 0.159300
29.218400 0.179900
29.237900 0.180100
29.257400 0.172700
29.277000 0.170000
29.296500 0.169000
29.316100 0.159200
29.335600 0.133000
29.355100 0.092800
29.374700 0.051500
29.394200 0.022300
29.413800 0.008700
29.433300 0.006700
29.452800 0.012100
29.472400 0.021000
29.491900 0.029200
29.511500 0.033600
29.531000 0.034700
29.550500 0.033400
29.570100 0.028600
29.589600 0.020200
29.609200 0.011100
29.628700 0.004600
29.648200 0.001400
29.667800 0.000300
29.687300 0.000100
29.706900 0.000000
29.726400 0.000000
29.745900 0.000000
29.765500 0.000000
29.785000 0.000000
29.804600 0.000000
29.824100 0.000000
29.843600 0.000000
29.863200 0.000000
29.882700 0.000000
29.902300 0.000000
29.921800 0.000000
29.941300 0.000000
29.960900 0.000000
29.980400 0.000000
30.000000 0.000000
30.019500 0.000000
30.039000 0.000000
30.058600 0.000000
30.078100 0.000000
30.097600 0.000000
30.117200 0.000000
30.136700 0.000000
30.156300 0.000000
30.175800 0.000000
30.195300 0.000000
30.214900 0.000000
30.234400 0.000000
30.254000 0.000000
30.273500 0.000000
30.293000 0.000000
30.312600 0.000000
30.332100 0.000000
30.351700 0.000000
30.371200 0.000000
30.390700 0.000000
30.410300 0.000000
30.429800 0.000000
30.449400 0.000000
30.468900 0.000000
30.488400 0.000000
30.508000 0.000000
30.527500 0.000000
30.547100 0.000000
30.566600 0.000000
30.586100 0.000000
30.605700 0.000000
30.625200 0.000000
30.644800 0.000000
30.664300 0.000000
30.683800 0.000000
30.703400 0.000000
30.722900 0.000000
30.742500 0.000000
30.762000 0.000000
30.781500 0.000000
30.801100 0.000000
30.820600 0.000000
30.840200 0.000000
30.859700 0.000000
30.879200 0.000000
30.898800 0.000000
30.918300 0.000000
30.937900 0.000000
30.957400 0.000000
30.976900 0.000000
30.996500 0.000000
31.016000 0.000000
31.035600 0.000000
31.055100 0.000000
31.074600 0.000000
31.094200 0.000000
31.113700 0.000000
31.133300 0.000000
31.152800 0.000000
31.172300 0.000000
31.191900 0.000000
31.211400 0.000000
31.231000 0.000000
31.250500 0.000000
31.270000 0.000000
31.289600 0.000000
31.309100 0.000000
31.328700 0.000000
e
