set title 'mp-557054 - Density of States'
set xlabel 'Energy (eV)'
set ylabel 'DOS (states/eV)'
set grid
set xrange [-10:10]
set yrange [0:477.625]
set xzeroaxis lt -1
set terminal png size 800,600
set output 'mp-557054_dos_gnuplot.png'
plot '-' using 1:2 with lines title 'DOS'
-12.654300 0.000000
-12.640300 0.000000
-12.626400 0.000000
-12.612500 0.000000
-12.598500 0.000000
-12.584600 0.000000
-12.570600 0.000000
-12.556700 0.000000
-12.542800 0.000000
-12.528800 0.000000
-12.514900 0.000000
-12.500900 0.000000
-12.487000 0.000000
-12.473100 0.000000
-12.459100 0.000000
-12.445200 0.000000
-12.431300 0.000000
-12.417300 0.000000
-12.403400 0.000000
-12.389400 0.000000
-12.375500 0.000000
-12.361600 0.000000
-12.347600 0.000000
-12.333700 0.000000
-12.319700 0.000000
-12.305800 0.000000
-12.291900 0.000000
-12.277900 0.000000
-12.264000 0.000000
-12.250100 0.000000
-12.236100 0.000000
-12.222200 0.000000
-12.208200 0.000000
-12.194300 0.000000
-12.180400 0.000000
-12.166400 0.000000
-12.152500 0.000000
-12.138500 0.000000
-12.124600 0.000000
-12.110700 0.000000
-12.096700 0.000000
-12.082800 0.000000
-12.068900 0.000000
-12.054900 0.000000
-12.041000 0.000000
-12.027000 0.000000
-12.013100 0.000000
-11.999200 0.000000
-11.985200 0.000000
-11.971300 0.000000
-11.957300 0.000000
-11.943400 0.000000
-11.929500 0.000000
-11.915500 0.000000
-11.901600 0.000000
-11.887600 0.000000
-11.873700 0.000000
-11.859800 0.000000
-11.845800 0.000000
-11.831900 0.000000
-11.818000 0.000000
-11.804000 0.000000
-11.790100 0.000000
-11.776100 0.000000
-11.762200 0.000000
-11.748300 0.000000
-11.734300 0.000000
-11.720400 0.000000
-11.706400 0.000000
-11.692500 0.000000
-11.678600 0.000000
-11.664600 0.000000
-11.650700 0.000000
-11.636800 0.000000
-11.622800 0.000000
-11.608900 0.000000
-11.594900 0.000000
-11.581000 0.000000
-11.567100 0.000000
-11.553100 0.000000
-11.539200 0.000000
-11.525200 0.000000
-11.511300 0.000000
-11.497400 0.000000
-11.483400 0.000000
-11.469500 0.000000
-11.455600 0.000000
-11.441600 0.000000
-11.427700 0.000000
-11.413700 0.000000
-11.399800 0.000000
-11.385900 0.019500
-11.371900 0.233500
-11.358000 0.447500
-11.344000 0.661500
-11.330100 0.875600
-11.316200 1.089600
-11.302200 1.303600
-11.288300 1.517700
-11.274400 1.731700
-11.260400 1.088400
-11.246500 1.115300
-11.232500 1.142300
-11.218600 1.169300
-11.204700 1.301700
-11.190700 1.556200
-11.176800 1.810600
-11.162800 2.065100
-11.148900 2.319600
-11.135000 2.574000
-11.121000 2.828500
-11.107100 3.083000
-11.093100 3.337400
-11.079200 2.591100
-11.065300 2.846700
-11.051300 3.144200
-11.037400 3.441800
-11.023500 3.733600
-11.009500 4.024600
-10.995600 4.315500
-10.981600 4.606500
-10.967700 4.897500
-10.953800 4.318600
-10.939800 4.655700
-10.925900 5.004300
-10.911900 5.353400
-10.898000 5.702500
-10.884100 6.051600
-10.870100 6.400900
-10.856200 6.879900
-10.842300 7.492400
-10.828300 6.995700
-10.814400 7.388900
-10.800400 7.782100
-10.786500 8.175300
-10.772600 8.573800
-10.758600 9.061700
-10.744700 8.801500
-10.730700 9.431100
-10.716800 10.171100
-10.702900 10.911100
-10.688900 12.070200
-10.675000 13.020100
-10.661100 13.970500
-10.647100 13.928000
-10.633200 14.658800
-10.619200 14.360800
-10.605300 16.897900
-10.591400 17.016500
-10.577400 17.285900
-10.563500 17.750200
-10.549500 18.959500
-10.535600 19.830800
-10.521700 20.702100
-10.507700 20.338500
-10.493800 21.664600
-10.479900 24.897800
-10.465900 25.430900
-10.452000 22.272700
-10.438000 22.861200
-10.424100 23.483400
-10.410200 24.111700
-10.396200 24.816600
-10.382300 29.468700
-10.368300 30.867700
-10.354400 24.825900
-10.340500 24.979300
-10.326500 25.130200
-10.312600 33.358700
-10.298600 30.390900
-10.284700 30.981100
-10.270800 32.190100
-10.256800 28.568600
-10.242900 25.707300
-10.229000 29.016100
-10.215000 25.969300
-10.201100 20.005000
-10.187100 21.907400
-10.173200 29.412100
-10.159300 27.425600
-10.145300 26.387700
-10.131400 28.992900
-10.117400 27.646000
-10.103500 31.391900
-10.089600 22.120500
-10.075600 22.049500
-10.061700 25.615900
-10.047800 34.361100
-10.033800 23.479600
-10.019900 22.771100
-10.005900 22.131100
-9.992000 24.638200
-9.978100 25.269500
-9.964100 28.746700
-9.950200 20.520200
-9.936200 24.220100
-9.922300 23.102400
-9.908400 24.099000
-9.894400 26.259600
-9.880500 27.165600
-9.866600 24.380900
-9.852600 25.273400
-9.838700 28.186000
-9.824700 20.891400
-9.810800 26.541200
-9.796900 27.591900
-9.782900 16.219400
-9.769000 13.570000
-9.755000 19.165100
-9.741100 15.427600
-9.727200 23.131700
-9.713200 17.368700
-9.699300 13.756600
-9.685400 5.510900
-9.671400 5.905300
-9.657500 6.299700
-9.643500 6.694100
-9.629600 23.289700
-9.615700 34.568500
-9.601700 0.000000
-9.587800 0.000000
-9.573800 0.000000
-9.559900 0.000000
-9.546000 0.000000
-9.532000 0.000000
-9.518100 0.000000
-9.504100 0.000000
-9.490200 0.000000
-9.476300 0.000000
-9.462300 0.000000
-9.448400 0.000000
-9.434500 0.000000
-9.420500 0.000000
-9.406600 0.000000
-9.392600 0.000000
-9.378700 0.000000
-9.364800 0.000000
-9.350800 0.000000
-9.336900 0.000000
-9.322900 0.000000
-9.309000 0.000000
-9.295100 0.000000
-9.281100 0.000000
-9.267200 0.000000
-9.253300 0.000000
-9.239300 0.000000
-9.225400 0.000000
-9.211400 0.000000
-9.197500 0.000000
-9.183600 0.000000
-9.169600 0.000000
-9.155700 0.000000
-9.141700 0.000000
-9.127800 0.000000
-9.113900 0.000000
-9.099900 0.000000
-9.086000 0.000000
-9.072100 0.000000
-9.058100 0.000000
-9.044200 0.000000
-9.030200 0.000000
-9.016300 0.000000
-9.002400 0.000000
-8.988400 0.000000
-8.974500 0.000000
-8.960500 0.000000
-8.946600 0.000000
-8.932700 0.000000
-8.918700 0.000000
-8.904800 0.000000
-8.890900 0.000000
-8.876900 0.000000
-8.863000 0.000000
-8.849000 0.000000
-8.835100 0.000000
-8.821200 0.000000
-8.807200 0.000000
-8.793300 0.000000
-8.779300 0.000000
-8.765400 0.000000
-8.751500 0.000000
-8.737500 0.000000
-8.723600 0.000000
-8.709600 0.000000
-8.695700 0.000000
-8.681800 0.000000
-8.667800 0.000000
-8.653900 0.000000
-8.640000 0.000000
-8.626000 0.000000
-8.612100 0.000000
-8.598100 0.000000
-8.584200 0.000000
-8.570300 0.000000
-8.556300 0.000000
-8.542400 0.000000
-8.528400 0.000000
-8.514500 0.000000
-8.500600 0.000000
-8.486600 0.000000
-8.472700 0.000000
-8.458800 0.000000
-8.444800 0.000000
-8.430900 0.000000
-8.416900 0.000000
-8.403000 0.000000
-8.389100 0.000000
-8.375100 0.000000
-8.361200 0.000000
-8.347200 0.000000
-8.333300 0.000000
-8.319400 0.000000
-8.305400 0.000000
-8.291500 0.000000
-8.277600 0.000000
-8.263600 0.000000
-8.249700 0.000000
-8.235700 0.000000
-8.221800 0.000000
-8.207900 0.000000
-8.193900 0.000000
-8.180000 0.000000
-8.166000 0.000000
-8.152100 0.000000
-8.138200 0.000000
-8.124200 0.000000
-8.110300 0.000000
-8.096400 0.000000
-8.082400 0.000000
-8.068500 0.000000
-8.054500 0.000000
-8.040600 0.000000
-8.026700 0.000000
-8.012700 0.000000
-7.998800 0.000000
-7.984800 0.000000
-7.970900 0.000000
-7.957000 0.000000
-7.943000 0.000000
-7.929100 0.000000
-7.915100 0.000000
-7.901200 0.000000
-7.887300 0.000000
-7.873300 0.000000
-7.859400 0.000000
-7.845500 0.000000
-7.831500 0.000000
-7.817600 0.000000
-7.803600 0.000000
-7.789700 0.000000
-7.775800 0.000000
-7.761800 0.000000
-7.747900 0.000000
-7.733900 0.000000
-7.720000 0.000000
-7.706100 0.000000
-7.692100 0.000000
-7.678200 0.000000
-7.664300 0.000000
-7.650300 0.000000
-7.636400 0.000000
-7.622400 0.000000
-7.608500 0.000000
-7.594600 0.000000
-7.580600 0.000000
-7.566700 0.000000
-7.552700 0.000000
-7.538800 0.000000
-7.524900 0.000000
-7.510900 0.000000
-7.497000 0.000000
-7.483100 0.000000
-7.469100 0.000000
-7.455200 0.000000
-7.441200 0.000000
-7.427300 0.000000
-7.413400 0.000000
-7.399400 0.000000
-7.385500 0.000000
-7.371500 0.000000
-7.357600 0.000000
-7.343700 0.000000
-7.329700 0.000000
-7.315800 0.000000
-7.301900 0.000000
-7.287900 0.000000
-7.274000 0.000000
-7.260000 0.000000
-7.246100 0.000000
-7.232200 0.000000
-7.218200 0.000000
-7.204300 0.000000
-7.190300 0.000000
-7.176400 0.000000
-7.162500 0.000000
-7.148500 0.000000
-7.134600 0.000000
-7.120600 0.000000
-7.106700 0.000000
-7.092800 0.000000
-7.078800 0.000000
-7.064900 0.000000
-7.051000 0.000000
-7.037000 0.000000
-7.023100 0.000000
-7.009100 0.000000
-6.995200 0.000000
-6.981300 0.000000
-6.967300 0.000000
-6.953400 0.000000
-6.939400 0.000000
-6.925500 0.000000
-6.911600 0.000000
-6.897600 0.000000
-6.883700 0.000000
-6.869800 0.000000
-6.855800 0.000000
-6.841900 0.000000
-6.827900 0.000000
-6.814000 0.000000
-6.800100 0.000000
-6.786100 0.000000
-6.772200 0.000000
-6.758200 0.000000
-6.744300 0.000000
-6.730400 0.000000
-6.716400 0.000000
-6.702500 0.000000
-6.688600 0.000000
-6.674600 0.000000
-6.660700 0.000000
-6.646700 0.000000
-6.632800 0.000000
-6.618900 0.000000
-6.604900 0.000000
-6.591000 0.000000
-6.577000 0.000000
-6.563100 0.000000
-6.549200 0.000000
-6.535200 0.000000
-6.521300 0.000000
-6.507400 0.000000
-6.493400 0.000000
-6.479500 0.000000
-6.465500 0.000000
-6.451600 0.000000
-6.437700 0.000000
-6.423700 0.000000
-6.409800 0.000000
-6.395800 0.000000
-6.381900 0.000000
-6.368000 0.000000
-6.354000 0.000000
-6.340100 0.000000
-6.326100 0.000000
-6.312200 0.000000
-6.298300 0.000000
-6.284300 0.000000
-6.270400 0.000000
-6.256500 0.000000
-6.242500 0.000000
-6.228600 0.000000
-6.214600 0.000000
-6.200700 0.000000
-6.186800 0.000000
-6.172800 0.000000
-6.158900 0.000000
-6.144900 0.000000
-6.131000 0.000000
-6.117100 0.000000
-6.103100 0.000000
-6.089200 0.000000
-6.075300 0.000000
-6.061300 0.000000
-6.047400 0.000000
-6.033400 0.000000
-6.019500 0.000000
-6.005600 0.000000
-5.991600 0.000000
-5.977700 0.000000
-5.963700 0.000000
-5.949800 0.000000
-5.935900 0.000000
-5.921900 0.000000
-5.908000 0.000000
-5.894100 0.000000
-5.880100 0.000000
-5.866200 0.000000
-5.852200 0.000000
-5.838300 0.000000
-5.824400 0.000000
-5.810400 0.000000
-5.796500 0.000000
-5.782500 0.000000
-5.768600 0.000000
-5.754700 0.000000
-5.740700 0.000000
-5.726800 0.000000
-5.712900 0.000000
-5.698900 0.000000
-5.685000 0.000000
-5.671000 0.000000
-5.657100 0.000000
-5.643200 0.000000
-5.629200 0.000000
-5.615300 0.000000
-5.601300 0.000000
-5.587400 0.000000
-5.573500 0.000000
-5.559500 0.000000
-5.545600 0.000000
-5.531600 0.000000
-5.517700 0.000000
-5.503800 0.000000
-5.489800 0.000000
-5.475900 0.000000
-5.462000 0.000000
-5.448000 0.000000
-5.434100 0.000000
-5.420100 0.000000
-5.406200 0.000000
-5.392300 0.000000
-5.378300 0.000000
-5.364400 0.000000
-5.350400 0.000000
-5.336500 0.000000
-5.322600 0.000000
-5.308600 0.000000
-5.294700 0.000000
-5.280800 0.000000
-5.266800 0.000000
-5.252900 0.000000
-5.238900 0.000000
-5.225000 0.000000
-5.211100 0.000000
-5.197100 0.000000
-5.183200 0.000000
-5.169200 0.000000
-5.155300 0.000000
-5.141400 0.000000
-5.127400 0.000000
-5.113500 0.000000
-5.099600 0.000000
-5.085600 0.000000
-5.071700 0.000000
-5.057700 0.000000
-5.043800 0.000000
-5.029900 0.000000
-5.015900 0.000000
-5.002000 0.000000
-4.988000 0.000000
-4.974100 0.000000
-4.960200 0.000000
-4.946200 0.000000
-4.932300 0.000000
-4.918400 0.000000
-4.904400 0.000000
-4.890500 0.000000
-4.876500 0.000000
-4.862600 0.000000
-4.848700 0.000000
-4.834700 0.000000
-4.820800 0.000000
-4.806800 0.000000
-4.792900 0.000000
-4.779000 0.000000
-4.765000 0.000000
-4.751100 0.000000
-4.737100 47.292100
-4.723200 53.082400
-4.709300 55.851100
-4.695300 75.810600
-4.681400 39.209600
-4.667500 50.511900
-4.653500 51.658100
-4.639600 50.629700
-4.625600 158.094100
-4.611700 59.849800
-4.597800 53.415000
-4.583800 49.239900
-4.569900 85.652100
-4.555900 84.367900
-4.542000 73.421300
-4.528100 77.250800
-4.514100 76.515200
-4.500200 82.863100
-4.486300 89.904200
-4.472300 129.915700
-4.458400 95.329700
-4.444400 78.188800
-4.430500 71.017400
-4.416600 79.862700
-4.402600 129.667700
-4.388700 103.853300
-4.374700 91.305800
-4.360800 126.425400
-4.346900 108.855700
-4.332900 71.069900
-4.319000 93.928200
-4.305100 117.754500
-4.291100 96.772000
-4.277200 90.573800
-4.263200 113.003000
-4.249300 123.375000
-4.235400 114.145100
-4.221400 112.337500
-4.207500 222.639900
-4.193500 100.885400
-4.179600 138.741800
-4.165700 168.747900
-4.151700 201.145600
-4.137800 131.427500
-4.123800 142.762200
-4.109900 155.082700
-4.096000 156.193900
-4.082000 153.648200
-4.068100 179.261500
-4.054200 158.548900
-4.040200 147.082700
-4.026300 151.257000
-4.012300 149.378800
-3.998400 192.477000
-3.984500 201.164900
-3.970500 198.948100
-3.956600 187.562200
-3.942600 118.124600
-3.928700 119.205100
-3.914800 131.356400
-3.900800 152.343100
-3.886900 100.318000
-3.873000 88.964400
-3.859000 89.897700
-3.845100 116.082400
-3.831100 75.248000
-3.817200 90.665400
-3.803300 177.751800
-3.789300 121.550200
-3.775400 105.852200
-3.761400 96.311800
-3.747500 91.974800
-3.733600 55.172500
-3.719600 44.012800
-3.705700 120.490900
-3.691800 115.323400
-3.677800 83.059700
-3.663900 65.658200
-3.649900 60.524100
-3.636000 434.204200
-3.622100 50.430600
-3.608100 80.902700
-3.594200 120.059400
-3.580200 82.797700
-3.566300 61.280000
-3.552400 62.133200
-3.538400 103.588400
-3.524500 48.322200
-3.510600 49.410800
-3.496600 45.457000
-3.482700 29.898400
-3.468700 28.455600
-3.454800 28.174000
-3.440900 23.047000
-3.426900 21.834600
-3.413000 20.288800
-3.399000 12.176200
-3.385100 10.835500
-3.371200 11.243000
-3.357200 12.011800
-3.343300 21.531400
-3.329300 34.165300
-3.315400 11.839000
-3.301500 9.938600
-3.287500 7.639800
-3.273600 5.341100
-3.259700 0.705100
-3.245700 0.832600
-3.231800 0.960200
-3.217800 1.087700
-3.203900 1.215200
-3.190000 5.748900
-3.176000 3.568100
-3.162100 3.322700
-3.148100 3.554200
-3.134200 7.136000
-3.120300 12.219100
-3.106300 6.074700
-3.092400 6.503800
-3.078500 6.933000
-3.064500 7.362100
-3.050600 8.060800
-3.036600 9.200900
-3.022700 10.341000
-3.008800 11.481100
-2.994800 12.621200
-2.980900 12.721700
-2.966900 12.710300
-2.953000 10.590800
-2.939100 11.165600
-2.925100 16.203500
-2.911200 13.108900
-2.897300 10.014200
-2.883300 7.108700
-2.869400 5.259700
-2.855400 5.745100
-2.841500 8.376200
-2.827600 11.007400
-2.813600 13.638600
-2.799700 9.847100
-2.785700 10.780800
-2.771800 11.714400
-2.757900 9.229100
-2.743900 18.079600
-2.730000 13.411200
-2.716100 14.639700
-2.702100 15.868200
-2.688200 17.096700
-2.674200 80.936800
-2.660300 18.009300
-2.646400 21.576900
-2.632400 25.360700
-2.618500 22.325600
-2.604500 20.570900
-2.590600 16.235800
-2.576700 16.129700
-2.562700 16.697800
-2.548800 17.739900
-2.534800 18.961500
-2.520900 19.727600
-2.507000 19.145200
-2.493000 20.140100
-2.479100 19.703900
-2.465200 18.966700
-2.451200 15.897000
-2.437300 12.673100
-2.423300 12.770500
-2.409400 11.659600
-2.395500 13.758700
-2.381500 15.857800
-2.367600 12.771200
-2.353600 13.052400
-2.339700 14.785300
-2.325800 16.066200
-2.311800 17.347100
-2.297900 15.472300
-2.284000 32.196600
-2.270000 13.071500
-2.256100 13.149000
-2.242100 13.226600
-2.228200 13.304100
-2.214300 13.381700
-2.200300 15.513000
-2.186400 17.940800
-2.172400 21.368200
-2.158500 19.249000
-2.144600 21.694400
-2.130600 23.676000
-2.116700 24.399800
-2.102800 38.356700
-2.088800 16.177500
-2.074900 9.758400
-2.060900 9.750500
-2.047000 10.852700
-2.033100 13.059700
-2.019100 15.266700
-2.005200 10.687400
-1.991200 10.745900
-1.977300 9.644100
-1.963400 9.580800
-1.949400 9.517600
-1.935500 9.144300
-1.921600 9.110000
-1.907600 9.075700
-1.893700 9.041400
-1.879700 9.010000
-1.865800 8.723600
-1.851900 8.743400
-1.837900 8.763100
-1.824000 8.782900
-1.810000 8.802600
-1.796100 8.822400
-1.782200 8.842100
-1.768200 8.861900
-1.754300 8.010200
-1.740300 8.577300
-1.726400 8.560900
-1.712500 8.389100
-1.698500 8.393100
-1.684600 8.397200
-1.670700 8.401300
-1.656700 8.405300
-1.642800 8.409400
-1.628800 8.413500
-1.614900 8.417500
-1.601000 8.420100
-1.587000 8.420200
-1.573100 8.420300
-1.559100 8.296600
-1.545200 8.311100
-1.531300 8.325700
-1.517300 8.340300
-1.503400 8.354800
-1.489500 8.369400
-1.475500 8.383900
-1.461600 8.398500
-1.447600 8.413000
-1.433700 8.427600
-1.419800 8.442200
-1.405800 8.456700
-1.391900 8.471300
-1.377900 8.484400
-1.364000 33.985500
-1.350100 41.108500
-1.336100 6.505300
-1.322200 6.512200
-1.308300 6.519000
-1.294300 6.525800
-1.280400 6.532600
-1.266400 6.539400
-1.252500 6.546200
-1.238600 6.553000
-1.224600 7.258000
-1.210700 7.316100
-1.196700 7.370800
-1.182800 7.425500
-1.168900 7.478400
-1.154900 7.533300
-1.141000 7.588300
-1.127100 7.643200
-1.113100 7.698200
-1.099200 7.753100
-1.085200 7.808100
-1.071300 7.863100
-1.057400 8.823900
-1.043400 8.966300
-1.029500 9.108700
-1.015500 9.985700
-1.001600 10.158200
-0.987700 10.887100
-0.973700 12.181600
-0.959800 13.479000
-0.945800 14.768100
-0.931900 16.893700
-0.918000 18.320600
-0.904000 20.363700
-0.890100 13.633600
-0.876200 14.212700
-0.862200 18.999900
-0.848300 18.702700
-0.834300 18.410100
-0.820400 18.118200
-0.806500 17.826400
-0.792500 17.534500
-0.778600 13.943200
-0.764600 14.033300
-0.750700 14.086500
-0.736800 14.139700
-0.722800 15.072700
-0.708900 15.148600
-0.695000 15.224600
-0.681000 15.317100
-0.667100 15.604800
-0.653100 15.892600
-0.639200 16.180300
-0.625300 17.742400
-0.611300 18.395000
-0.597400 20.842400
-0.583400 21.306600
-0.569500 22.722700
-0.555600 23.640400
-0.541600 24.671500
-0.527700 25.166500
-0.513800 24.014900
-0.499800 25.036800
-0.485900 25.373900
-0.471900 22.968900
-0.458000 17.343700
-0.444100 17.177800
-0.430100 18.058200
-0.416200 18.200500
-0.402200 18.342700
-0.388300 18.502900
-0.374400 18.691100
-0.360400 18.895600
-0.346500 18.987200
-0.332600 20.177400
-0.318600 20.340600
-0.304700 20.504100
-0.290700 20.719100
-0.276800 20.975600
-0.262900 21.470200
-0.248900 21.709700
-0.235000 21.925900
-0.221000 22.142100
-0.207100 23.256200
-0.193200 23.472500
-0.179200 23.743800
-0.165300 23.235800
-0.151300 24.379300
-0.137400 24.572900
-0.123500 24.766600
-0.109500 24.960200
-0.095600 24.340800
-0.081700 24.364100
-0.067700 24.286700
-0.053800 23.625100
-0.039800 23.560200
-0.025900 23.564500
-0.012000 23.615000
0.002000 25.522200
0.015900 25.470100
0.029900 25.511500
0.043800 24.902800
0.057700 24.767000
0.071700 27.345900
0.085600 27.420400
0.099500 28.841500
0.113500 28.052700
0.127400 28.081100
0.141400 27.332300
0.155300 26.402700
0.169200 26.443500
0.183200 26.275600
0.197100 26.257600
0.211100 26.280300
0.225000 26.323700
0.238900 28.427900
0.252900 28.482900
0.266800 28.576500
0.280700 27.591600
0.294700 25.474200
0.308600 25.359100
0.322600 24.974900
0.336500 24.872700
0.350400 24.770600
0.364400 24.668900
0.378300 24.749300
0.392300 24.642500
0.406200 24.571300
0.420100 24.508900
0.434100 24.308700
0.448000 27.356800
0.461900 27.196000
0.475900 28.814300
0.489800 28.694000
0.503800 28.648700
0.517700 28.204300
0.531600 27.494000
0.545600 26.747600
0.559500 26.649300
0.573500 26.550600
0.587400 28.497100
0.601300 29.249400
0.615300 28.844500
0.629200 28.697700
0.643200 28.625300
0.657100 28.554400
0.671000 27.790600
0.685000 26.840900
0.698900 26.649700
0.712800 26.519500
0.726800 26.372200
0.740700 25.349400
0.754700 25.203500
0.768600 25.107700
0.782500 25.012400
0.796500 26.389300
0.810400 26.109400
0.824400 25.095300
0.838300 24.919000
0.852200 24.726400
0.866200 24.563200
0.880100 25.859300
0.894000 25.501300
0.908000 24.364000
0.921900 24.073600
0.935900 23.879100
0.949800 23.540000
0.963700 23.261100
0.977700 22.318200
0.991600 22.185400
1.005600 21.901400
1.019500 21.877200
1.033400 21.851300
1.047400 21.817000
1.061300 21.847800
1.075200 21.887400
1.089200 21.911800
1.103100 21.900900
1.117100 21.243200
1.131000 19.352500
1.144900 18.738600
1.158900 18.007800
1.172800 17.497100
1.186800 17.152900
1.200700 16.978600
1.214600 16.627300
1.228600 16.292400
1.242500 15.957500
1.256400 15.607600
1.270400 15.277500
1.284300 14.970600
1.298300 14.978600
1.312200 14.561400
1.326100 13.389900
1.340100 12.937900
1.354000 12.486100
1.368000 12.046400
1.381900 11.617500
1.395800 11.216500
1.409800 10.822300
1.423700 10.438200
1.437700 10.358800
1.451600 9.973200
1.465500 9.591100
1.479500 9.206000
1.493400 8.815100
1.507300 8.449200
1.521300 8.095000
1.535200 7.892900
1.549200 7.583400
1.563100 7.275600
1.577000 6.967700
1.591000 6.659900
1.604900 6.357800
1.618900 6.094500
1.632800 6.018100
1.646700 5.800500
1.660700 5.584600
1.674600 5.512800
1.688500 5.283300
1.702500 5.045300
1.716400 4.793100
1.730400 4.540900
1.744300 4.339100
1.758200 4.145200
1.772200 3.951200
1.786100 3.757300
1.800100 4.390700
1.814000 4.110500
1.827900 3.830200
1.841900 3.549900
1.855800 3.295800
1.869700 3.183100
1.883700 2.938300
1.897600 2.693600
1.911600 2.448900
1.925500 2.204200
1.939400 1.959500
1.953400 1.729100
1.967300 1.518300
1.981300 1.897100
1.995200 1.727500
2.009100 1.557800
2.023100 1.388200
2.037000 1.218600
2.050900 1.048900
2.064900 0.879300
2.078800 0.709600
2.092800 0.540000
2.106700 0.370400
2.120600 0.200700
2.134600 0.031100
2.148500 0.000000
2.162500 0.000000
2.176400 0.000000
2.190300 0.000000
2.204300 0.000000
2.218200 0.000000
2.232200 0.000000
2.246100 0.000000
2.260000 0.000000
2.274000 0.000000
2.287900 0.000000
2.301800 0.000000
2.315800 0.000000
2.329700 0.000000
2.343700 0.000000
2.357600 0.000000
2.371500 0.000000
2.385500 0.000000
2.399400 0.000000
2.413400 0.000000
2.427300 0.000000
2.441200 0.000000
2.455200 0.000000
2.469100 0.000000
2.483000 0.000000
2.497000 0.000000
2.510900 0.000000
2.524900 0.000000
2.538800 0.000000
2.552700 0.000000
2.566700 0.000000
2.580600 0.000000
2.594600 0.000000
2.608500 0.000000
2.622400 0.000000
2.636400 0.000000
2.650300 0.000000
2.664200 0.000000
2.678200 0.000000
2.692100 0.000000
2.706100 0.000000
2.720000 0.000000
2.733900 0.000000
2.747900 0.000000
2.761800 0.000000
2.775800 0.000000
2.789700 0.000000
2.803600 0.000000
2.817600 0.000000
2.831500 0.000000
2.845400 0.000000
2.859400 0.000000
2.873300 0.000000
2.887300 0.000000
2.901200 0.000000
2.915100 0.000000
2.929100 0.000000
2.943000 0.000000
2.957000 0.000000
2.970900 0.000000
2.984800 0.000000
2.998800 0.000000
3.012700 0.000000
3.026700 0.000000
3.040600 0.000000
3.054500 0.000000
3.068500 0.000000
3.082400 0.000000
3.096300 0.000000
3.110300 0.000000
3.124200 0.000000
3.138200 0.000000
3.152100 0.000000
3.166000 0.000000
3.180000 0.000000
3.193900 0.000000
3.207900 0.000000
3.221800 0.000000
3.235700 0.000000
3.249700 0.000000
3.263600 0.000000
3.277500 0.000000
3.291500 0.000000
3.305400 0.000000
3.319400 0.000000
3.333300 0.000000
3.347200 0.000000
3.361200 0.000000
3.375100 0.000000
3.389100 0.000000
3.403000 0.000000
3.416900 0.000000
3.430900 0.000000
3.444800 0.000000
3.458700 0.000000
3.472700 0.000000
3.486600 0.000000
3.500600 0.000000
3.514500 0.000000
3.528400 0.000000
3.542400 0.000000
3.556300 0.000000
3.570300 0.000000
3.584200 0.000000
3.598100 0.000000
3.612100 0.000000
3.626000 0.000000
3.639900 0.000000
3.653900 0.000000
3.667800 0.000000
3.681800 0.000000
3.695700 0.000000
3.709600 0.000000
3.723600 0.000000
3.737500 0.000000
3.751500 0.000000
3.765400 0.000000
3.779300 0.000000
3.793300 0.000000
3.807200 0.000000
3.821200 0.000000
3.835100 0.002700
3.849000 0.007000
3.863000 0.011400
3.876900 0.015700
3.890800 0.020000
3.904800 0.024400
3.918700 0.028700
3.932700 0.033100
3.946600 0.037400
3.960500 0.041800
3.974500 0.046100
3.988400 0.050500
4.002400 0.054800
4.016300 0.059200
4.030200 0.063500
4.044200 0.067800
4.058100 0.072200
4.072000 0.076500
4.086000 0.080900
4.099900 0.085200
4.113900 0.089600
4.127800 0.093900
4.141700 0.098300
4.155700 0.102600
4.169600 0.107000
4.183600 0.111300
4.197500 0.115600
4.211400 0.120000
4.225400 0.124300
4.239300 0.128700
4.253200 0.133000
4.267200 0.142500
4.281100 0.152900
4.295100 0.163300
4.309000 0.173700
4.322900 0.184100
4.336900 0.194500
4.350800 0.204900
4.364800 0.215300
4.378700 0.226600
4.392600 0.242300
4.406600 0.258100
4.420500 0.273900
4.434500 0.289600
4.448400 0.305400
4.462300 0.321100
4.476300 0.336900
4.490200 0.352700
4.504100 0.368400
4.518100 0.384200
4.532000 0.399900
4.546000 0.415700
4.559900 0.431500
4.573800 0.447200
4.587800 0.463000
4.601700 0.478700
4.615700 0.494500
4.629600 0.510300
4.643500 0.526000
4.657500 0.541800
4.671400 0.557500
4.685300 0.578700
4.699300 0.600000
4.713200 0.638000
4.727200 0.664000
4.741100 0.689900
4.755000 0.715900
4.769000 0.741900
4.782900 0.767800
4.796900 0.793800
4.810800 0.819700
4.824700 0.845700
4.838700 0.871700
4.852600 0.897600
4.866500 0.927700
4.880500 0.961400
4.894400 0.995100
4.908400 1.033200
4.922300 1.074900
4.936200 1.116600
4.950200 1.158300
4.964100 1.200200
4.978100 1.247600
4.992000 1.295000
5.005900 1.342400
5.019900 1.437400
5.033800 1.501200
5.047700 1.565000
5.061700 1.628700
5.075600 2.253400
5.089600 2.373400
5.103500 2.493500
5.117400 3.151600
5.131400 3.325400
5.145300 3.499200
5.159300 3.673000
5.173200 3.851800
5.187100 4.081400
5.201100 4.273000
5.215000 4.464600
5.229000 4.656300
5.242900 4.847900
5.256800 5.039600
5.270800 5.231200
5.284700 5.428500
5.298600 5.625900
5.312600 6.208300
5.326500 6.398800
5.340500 6.593500
5.354400 6.721700
5.368300 6.835900
5.382300 6.950200
5.396200 7.538700
5.410200 7.701200
5.424100 7.866500
5.438000 8.031700
5.452000 8.638100
5.465900 8.965000
5.479800 9.210900
5.493800 9.456800
5.507700 9.703600
5.521700 9.955700
5.535600 10.305400
5.549500 10.598900
5.563500 10.881000
5.577400 11.195500
5.591400 11.450100
5.605300 12.213600
5.619200 12.532000
5.633200 12.852000
5.647100 13.160300
5.661000 13.367300
5.675000 13.574400
5.688900 13.781400
5.702900 15.246300
5.716800 16.327200
5.730700 16.542100
5.744700 17.638000
5.758600 13.850300
5.772600 13.910100
5.786500 13.969800
5.800400 14.029600
5.814400 14.538100
5.828300 14.645900
5.842200 14.753700
5.856200 15.416900
5.870100 15.577500
5.884100 15.707700
5.898000 16.461700
5.911900 16.839100
5.925900 17.225700
5.939800 17.646000
5.953800 18.079100
5.967700 18.512200
5.981600 19.403100
5.995600 19.833600
6.009500 20.212100
6.023500 19.890900
6.037400 19.847900
6.051300 20.240900
6.065300 24.750700
6.079200 19.503100
6.093100 19.375400
6.107100 18.870100
6.121000 18.867200
6.135000 18.385500
6.148900 18.352100
6.162800 18.843700
6.176800 18.103200
6.190700 18.389400
6.204700 18.757100
6.218600 18.138500
6.232500 18.743000
6.246500 18.840200
6.260400 20.666900
6.274300 18.754100
6.288300 18.734800
6.302200 18.715500
6.316200 18.696200
6.330100 19.233000
6.344000 19.249000
6.358000 31.538400
6.371900 23.114700
6.385900 18.457500
6.399800 18.385900
6.413700 19.903000
6.427700 22.386500
6.441600 18.580000
6.455500 18.316100
6.469500 18.134900
6.483400 17.998600
6.497400 17.431200
6.511300 17.454100
6.525200 17.477000
6.539200 16.964500
6.553100 17.092300
6.567100 20.999100
6.581000 20.020100
6.594900 19.041100
6.608900 18.228500
6.622800 17.415900
6.636700 21.358600
6.650700 20.261800
6.664600 19.133000
6.678600 18.035700
6.692500 16.112600
6.706400 15.255700
6.720400 15.235600
6.734300 17.808500
6.748300 17.975900
6.762200 17.544900
6.776100 17.113900
6.790100 16.704800
6.804000 18.528100
6.818000 17.590800
6.831900 16.653500
6.845800 17.303600
6.859800 16.966500
6.873700 15.443300
6.887600 14.780800
6.901600 14.273200
6.915500 14.106700
6.929500 13.333100
6.943400 13.312800
6.957300 13.292500
6.971300 13.272200
6.985200 15.454800
6.999200 15.193800
7.013100 14.932800
7.027000 14.671800
7.041000 16.468100
7.054900 15.787000
7.068800 15.235800
7.082800 16.549800
7.096700 16.181900
7.110700 15.963600
7.124600 15.745200
7.138500 19.510100
7.152500 18.203700
7.166400 17.377000
7.180400 16.915500
7.194300 16.454000
7.208200 16.046200
7.222200 16.585700
7.236100 21.076800
7.250000 15.933100
7.264000 15.521900
7.277900 15.966400
7.291900 14.774800
7.305800 24.758600
7.319700 17.821700
7.333700 11.091600
7.347600 11.013800
7.361600 13.657400
7.375500 13.792600
7.389400 13.927800
7.403400 14.062900
7.417300 14.198100
7.431200 13.826100
7.445200 12.947800
7.459100 11.691300
7.473100 10.844200
7.487000 10.675100
7.500900 25.696200
7.514900 12.826900
7.528800 12.635600
7.542800 23.881600
7.556700 13.112200
7.570600 12.801300
7.584600 12.490300
7.598500 12.179400
7.612500 11.868400
7.626400 11.557500
7.640300 12.771000
7.654300 17.066100
7.668200 21.992900
7.682100 14.712800
7.696100 14.123900
7.710000 13.029900
7.724000 12.473800
7.737900 12.150100
7.751800 11.839100
7.765800 11.146600
7.779700 11.059900
7.793700 12.889900
7.807600 16.591300
7.821500 20.401200
7.835500 18.918200
7.849400 18.788000
7.863300 25.763200
7.877300 25.194200
7.891200 22.029800
7.905200 19.324900
7.919100 15.979600
7.933000 14.647000
7.947000 14.048800
7.960900 13.998600
7.974900 13.712400
7.988800 13.427000
8.002700 13.174200
8.016700 12.972300
8.030600 14.107800
8.044500 15.536400
8.058500 16.744000
8.072400 16.648500
8.086400 16.565300
8.100300 15.963800
8.114200 16.117500
8.128200 15.894700
8.142100 14.987600
8.156100 15.879200
8.170000 16.251900
8.183900 16.630300
8.197900 17.013600
8.211800 15.913900
8.225700 14.630400
8.239700 13.820700
8.253600 13.183200
8.267600 12.919800
8.281500 12.656300
8.295400 16.298700
8.309400 19.080400
8.323300 19.997100
8.337300 18.943400
8.351200 15.156000
8.365100 14.725800
8.379100 14.494800
8.393000 18.281600
8.407000 17.779800
8.420900 18.709100
8.434800 16.771500
8.448800 16.529100
8.462700 30.156500
8.476600 14.404900
8.490600 13.173400
8.504500 13.209100
8.518500 15.838500
8.532400 21.815800
8.546300 15.930400
8.560300 19.078500
8.574200 33.500300
8.588200 18.192400
8.602100 24.049900
8.616000 17.063600
8.630000 17.484600
8.643900 17.032600
8.657800 17.139200
8.671800 18.201500
8.685700 19.263900
8.699700 31.495300
8.713600 17.844100
8.727500 16.864000
8.741500 16.877300
8.755400 16.890600
8.769400 16.209000
8.783300 15.908300
8.797200 15.766000
8.811200 15.686200
8.825100 15.078800
8.839000 15.084200
8.853000 15.919500
8.866900 17.209000
8.880900 17.850400
8.894800 19.329400
8.908700 19.955400
8.922700 23.130800
8.936600 23.553100
8.950600 24.632700
8.964500 23.129000
8.978400 22.495700
8.992400 22.289600
9.006300 22.009000
9.020200 21.094100
9.034200 21.587800
9.048100 23.762700
9.062100 19.222700
9.076000 21.129800
9.089900 24.761400
9.103900 22.938800
9.117800 22.543800
9.131800 24.300200
9.145700 22.894500
9.159600 20.551700
9.173600 19.113200
9.187500 17.672900
9.201500 15.163600
9.215400 15.404500
9.229300 18.532100
9.243300 20.569200
9.257200 22.606300
9.271100 22.437300
9.285100 22.124900
9.299000 21.843000
9.313000 22.559100
9.326900 22.716600
9.340800 20.297900
9.354800 20.843300
9.368700 21.687900
9.382700 22.499500
9.396600 22.830100
9.410500 23.112800
9.424500 23.371700
9.438400 23.914500
9.452300 24.448600
9.466300 25.143700
9.480200 19.675700
9.494200 19.495900
9.508100 18.756500
9.522000 17.741000
9.536000 17.799900
9.549900 18.243100
9.563900 18.249300
9.577800 19.139800
9.591700 19.363100
9.605700 19.386900
9.619600 19.216000
9.633500 17.613900
9.647500 17.676100
9.661400 17.738400
9.675400 17.800600
9.689300 17.862900
9.703200 19.757300
9.717200 19.616400
9.731100 19.477000
9.745100 18.858300
9.759000 18.685000
9.772900 18.521000
9.786900 18.369700
9.800800 18.608900
9.814700 18.498400
9.828700 17.331800
9.842600 17.335700
9.856600 17.682800
9.870500 18.455700
9.884400 27.969900
9.898400 18.364200
9.912300 19.038400
9.926300 19.712300
9.940200 17.480000
9.954100 19.102600
9.968100 17.441400
9.982000 17.591100
9.996000 17.747500
10.009900 17.998900
10.023800 18.173400
10.037800 18.347900
10.051700 18.528500
10.065600 18.730400
10.079600 18.089000
10.093500 18.052600
10.107500 17.901200
10.121400 18.671700
10.135300 18.486600
10.149300 18.284600
10.163200 18.082500
10.177200 18.354800
10.191100 19.725400
10.205000 21.348500
10.219000 16.170400
10.232900 18.871600
10.246800 19.389700
10.260800 18.415600
10.274700 17.441500
10.288700 16.479100
10.302600 15.837300
10.316500 18.992300
10.330500 18.430000
10.344400 17.867700
10.358400 17.305400
10.372300 17.766100
10.386200 17.074500
10.400200 16.378600
10.414100 17.210500
10.428000 17.105700
10.442000 17.020600
10.455900 16.924100
10.469900 16.729800
10.483800 18.867600
10.497700 18.171300
10.511700 18.733900
10.525600 17.986800
10.539600 18.080100
10.553500 17.607400
10.567400 16.840400
10.581400 16.073300
10.595300 15.698300
10.609200 15.506100
10.623200 21.751300
10.637100 18.919300
10.651100 16.780300
10.665000 14.922400
10.678900 16.182500
10.692900 15.926900
10.706800 15.671400
10.720800 15.415800
10.734700 15.847200
10.748600 15.537900
10.762600 28.423900
10.776500 15.726500
10.790500 14.602700
10.804400 14.347600
10.818300 13.294600
10.832300 13.118700
10.846200 12.966500
10.860100 14.179700
10.874100 14.000000
10.888000 13.820400
10.902000 13.568700
10.915900 13.210200
10.929800 16.263100
10.943800 14.633100
10.957700 13.357200
10.971700 11.748600
10.985600 11.558400
10.999500 11.303500
11.013500 11.048700
11.027400 16.390100
11.041300 14.326800
11.055300 12.461000
11.069200 12.312000
11.083200 14.618500
11.097100 17.941300
11.111000 13.249300
11.125000 12.802100
11.138900 12.354900
11.152900 11.948100
11.166800 13.335800
11.180700 16.020000
11.194700 18.704200
11.208600 10.723700
11.222500 10.398000
11.236500 10.303900
11.250400 10.209900
11.264400 10.115800
11.278300 11.126200
11.292200 10.918800
11.306200 10.205400
11.320100 9.392700
11.334100 9.174500
11.348000 9.023100
11.361900 9.161200
11.375900 9.443800
11.389800 9.726300
11.403700 10.008900
11.417700 10.649500
11.431600 11.044300
11.445600 11.439100
11.459500 11.833900
11.473400 12.228700
11.487400 12.749000
11.501300 11.624000
11.515300 12.146700
11.529200 18.214700
11.543100 11.901100
11.557100 22.171000
11.571000 19.478400
11.585000 14.633000
11.598900 12.046900
11.612800 11.198400
11.626800 11.173400
11.640700 10.952800
11.654600 14.115100
11.668600 13.679500
11.682500 13.244000
11.696500 13.304300
11.710400 13.391100
11.724300 10.509800
11.738300 10.620300
11.752200 10.434700
11.766200 10.249000
11.780100 10.063400
11.794000 10.191100
11.808000 10.559500
11.821900 10.944400
11.835800 11.431800
11.849800 11.995200
11.863700 12.558600
11.877700 13.122000
11.891600 13.792000
11.905500 14.498600
11.919500 13.220100
11.933400 13.048200
11.947400 12.876400
11.961300 12.704600
11.975200 12.532700
11.989200 12.360900
12.003100 11.582800
12.017000 12.082100
12.031000 13.828800
12.044900 15.279400
12.058900 12.171200
12.072800 13.106700
12.086700 13.932800
12.100700 15.885800
12.114600 13.378700
12.128600 13.996500
12.142500 10.655600
12.156400 19.078300
12.170400 12.024900
12.184300 11.856600
12.198300 15.955200
12.212200 14.617100
12.226100 14.569600
12.240100 15.057600
12.254000 15.545600
12.267900 11.261800
12.281900 11.206700
12.295800 11.160100
12.309800 11.113400
12.323700 11.066800
12.337600 11.020100
12.351600 10.980900
12.365500 11.044900
12.379500 11.162700
12.393400 11.280500
12.407300 11.398300
12.421300 16.291700
12.435200 13.166700
12.449100 13.294200
12.463100 13.431100
12.477000 13.578000
12.491000 13.724800
12.504900 17.565800
12.518800 16.827000
12.532800 16.090200
12.546700 15.377600
12.560700 16.086100
12.574600 15.053800
12.588500 14.211300
12.602500 14.878100
12.616400 16.669200
12.630300 18.460200
12.644300 14.620800
12.658200 14.242300
12.672200 13.937900
12.686100 13.672300
12.700000 13.417500
12.714000 13.165900
12.727900 14.107700
12.741900 14.809400
12.755800 15.511000
12.769700 16.212600
12.783700 16.914200
12.797600 12.205700
12.811500 12.052000
12.825500 12.045600
12.839400 12.392500
12.853400 12.880500
12.867300 12.147700
12.881200 12.620300
12.895200 13.845200
12.909100 14.662200
12.923100 15.531800
12.937000 11.333900
12.950900 11.653700
12.964900 11.973500
12.978800 10.252700
12.992800 10.494200
13.006700 11.264800
13.020600 9.074800
13.034600 9.171000
13.048500 9.318100
13.062400 9.465300
13.076400 10.116900
13.090300 10.338600
13.104300 10.560300
13.118200 10.781900
13.132100 11.003600
13.146100 11.225300
13.160000 10.439700
13.174000 8.976600
13.187900 9.113100
13.201800 9.249600
13.215800 7.981300
13.229700 8.086200
13.243600 8.191100
13.257600 8.296000
13.271500 8.400900
13.285500 6.449800
13.299400 6.591600
13.313300 6.827400
13.327300 7.063200
13.341200 7.299000
13.355200 6.365000
13.369100 6.500700
13.383000 6.685300
13.397000 4.225700
13.410900 4.291000
13.424800 4.356300
13.438800 4.421500
13.452700 4.486800
13.466700 4.552100
13.480600 4.617400
13.494500 4.682700
13.508500 3.666500
13.522400 6.911600
13.536400 1.187900
13.550300 1.164000
13.564200 1.140100
13.578200 1.116200
13.592100 1.092300
13.606000 1.068400
13.620000 1.044500
13.633900 1.027600
13.647900 1.015200
13.661800 1.002800
13.675700 0.990400
13.689700 0.978000
13.703600 0.965600
13.717600 0.953200
13.731500 0.940800
13.745400 0.928400
13.759400 0.916100
13.773300 0.903700
13.787300 0.891300
13.801200 0.878900
13.815100 0.866500
13.829100 0.854100
13.843000 0.841700
13.856900 0.829300
13.870900 0.816900
13.884800 0.804500
13.898800 0.792100
13.912700 0.779700
13.926600 0.767300
13.940600 0.754900
13.954500 0.742500
13.968500 0.000000
13.982400 0.000000
13.996300 0.000000
14.010300 0.000000
14.024200 0.000000
14.038100 0.000000
14.052100 0.000000
14.066000 0.000000
14.080000 0.000000
14.093900 0.000000
14.107800 0.000000
14.121800 0.000000
14.135700 0.000000
14.149700 0.000000
14.163600 0.000000
14.177500 0.000000
14.191500 0.000000
14.205400 0.000000
14.219300 0.000000
14.233300 0.000000
14.247200 0.000000
14.261200 0.000000
14.275100 0.000000
14.289000 0.000000
14.303000 0.000000
14.316900 0.000000
14.330900 0.000000
14.344800 0.000000
14.358700 0.000000
14.372700 0.000000
14.386600 0.000000
14.400500 0.000000
14.414500 0.000000
14.428400 0.000000
14.442400 0.000000
14.456300 0.000000
14.470200 0.000000
14.484200 0.000000
14.498100 0.000000
14.512100 0.000000
14.526000 0.000000
14.539900 0.000000
14.553900 0.000000
14.567800 0.000000
14.581800 0.000000
14.595700 0.000000
14.609600 0.000000
14.623600 0.000000
14.637500 0.000000
14.651400 0.000000
14.665400 0.000000
14.679300 0.000000
14.693300 0.000000
14.707200 0.000000
14.721100 0.000000
14.735100 0.000000
14.749000 0.000000
14.763000 0.000000
14.776900 0.000000
14.790800 0.000000
14.804800 0.000000
14.818700 0.000000
14.832600 0.000000
14.846600 0.000000
14.860500 0.000000
14.874500 0.000000
14.888400 0.000000
14.902300 0.000000
14.916300 0.000000
14.930200 0.000000
14.944200 0.000000
14.958100 0.000000
14.972000 0.000000
14.986000 0.000000
14.999900 0.000000
15.013800 0.000000
15.027800 0.000000
15.041700 0.000000
15.055700 0.000000
15.069600 0.000000
15.083500 0.000000
15.097500 0.000000
15.111400 0.000000
15.125400 0.000000
15.139300 0.000000
15.153200 0.000000
15.167200 0.000000
15.181100 0.000000
15.195000 0.000000
15.209000 0.000000
15.222900 0.000000
e
