set title 'mp-8632 - Density of States'
set xlabel 'Energy (eV)'
set ylabel 'DOS (states/eV)'
set grid
set xrange [-10:10]
set yrange [0:3.661]
set xzeroaxis lt -1
set terminal png size 800,600
set output 'mp-8632_dos_gnuplot.png'
plot '-' using 1:2 with lines title 'DOS'
-39.737900 0.000000
-39.656500 0.000000
-39.575100 0.000000
-39.493700 0.000000
-39.412300 0.000000
-39.330900 0.000000
-39.249500 0.000000
-39.168100 0.000000
-39.086600 0.000000
-39.005200 0.000000
-38.923800 0.000000
-38.842400 0.000000
-38.761000 0.000000
-38.679600 0.000000
-38.598200 0.000000
-38.516800 0.000000
-38.435400 0.000000
-38.354000 0.000000
-38.272600 0.000000
-38.191200 0.000000
-38.109800 0.000000
-38.028400 0.000000
-37.947000 0.000000
-37.865600 0.000000
-37.784200 0.000000
-37.702800 0.000000
-37.621400 0.000000
-37.540000 0.000000
-37.458600 0.000000
-37.377200 0.000000
-37.295700 0.000000
-37.214300 0.000000
-37.132900 0.000000
-37.051500 0.000000
-36.970100 0.000000
-36.888700 0.000000
-36.807300 0.000000
-36.725900 0.000000
-36.644500 0.000000
-36.563100 0.000000
-36.481700 0.000000
-36.400300 0.000000
-36.318900 0.000000
-36.237500 0.000000
-36.156100 0.000000
-36.074700 0.000000
-35.993300 0.000000
-35.911900 0.000000
-35.830500 0.000000
-35.749100 0.000000
-35.667700 0.000000
-35.586200 0.000000
-35.504800 0.000000
-35.423400 0.000000
-35.342000 0.000000
-35.260600 0.000000
-35.179200 0.000000
-35.097800 0.000000
-35.016400 0.000000
-34.935000 0.000000
-34.853600 0.000000
-34.772200 0.000000
-34.690800 0.000000
-34.609400 0.000000
-34.528000 0.000000
-34.446600 0.000000
-34.365200 0.000000
-34.283800 0.000000
-34.202400 0.000000
-34.121000 0.000000
-34.039600 0.000000
-33.958200 0.000000
-33.876700 0.000000
-33.795300 0.000000
-33.713900 0.000000
-33.632500 0.000000
-33.551100 0.000000
-33.469700 0.000000
-33.388300 0.000000
-33.306900 0.000000
-33.225500 0.000000
-33.144100 0.000000
-33.062700 0.000000
-32.981300 0.000000
-32.899900 0.000000
-32.818500 0.000000
-32.737100 0.000000
-32.655700 0.000000
-32.574300 0.000000
-32.492900 0.000000
-32.411500 0.000000
-32.330100 0.779600
-32.248700 4.510200
-32.167300 10.945300
-32.085800 3.947900
-32.004400 4.218500
-31.923000 5.460100
-31.841600 6.377200
-31.760200 12.908600
-31.678800 14.385300
-31.597400 7.970900
-31.516000 0.000000
-31.434600 0.000000
-31.353200 0.000000
-31.271800 0.000000
-31.190400 0.000000
-31.109000 0.000000
-31.027600 0.000000
-30.946200 0.000000
-30.864800 0.000000
-30.783400 0.000000
-30.702000 0.000000
-30.620600 0.000000
-30.539200 0.000000
-30.457800 0.000000
-30.376300 0.000000
-30.294900 0.000000
-30.213500 0.000000
-30.132100 0.000000
-30.050700 0.000000
-29.969300 0.000000
-29.887900 0.000000
-29.806500 0.000000
-29.725100 0.000000
-29.643700 0.000000
-29.562300 0.000000
-29.480900 0.000000
-29.399500 0.000000
-29.318100 0.000000
-29.236700 0.000000
-29.155300 0.000000
-29.073900 0.000000
-28.992500 0.000000
-28.911100 0.000000
-28.829700 0.000000
-28.748300 0.000000
-28.666800 0.000000
-28.585400 0.000000
-28.504000 0.000000
-28.422600 0.000000
-28.341200 0.000000
-28.259800 0.000000
-28.178400 0.000000
-28.097000 0.000000
-28.015600 0.000000
-27.934200 0.000000
-27.852800 0.000000
-27.771400 0.000000
-27.690000 0.000000
-27.608600 0.000000
-27.527200 0.000000
-27.445800 0.000000
-27.364400 0.000000
-27.283000 0.000000
-27.201600 0.000000
-27.120200 0.000000
-27.038800 0.000000
-26.957400 0.000000
-26.875900 0.000000
-26.794500 0.000000
-26.713100 0.000000
-26.631700 0.000000
-26.550300 0.000000
-26.468900 0.000000
-26.387500 0.000000
-26.306100 0.000000
-26.224700 0.000000
-26.143300 0.000000
-26.061900 0.000000
-25.980500 0.000000
-25.899100 0.000000
-25.817700 0.000000
-25.736300 0.000000
-25.654900 0.000000
-25.573500 0.000000
-25.492100 0.000000
-25.410700 0.000000
-25.329300 0.000000
-25.247900 0.000000
-25.166400 0.000000
-25.085000 0.000000
-25.003600 0.000000
-24.922200 0.000000
-24.840800 0.000000
-24.759400 0.000000
-24.678000 0.000000
-24.596600 0.000000
-24.515200 0.000000
-24.433800 0.000000
-24.352400 0.000000
-24.271000 0.000000
-24.189600 0.000000
-24.108200 0.000000
-24.026800 0.000000
-23.945400 0.000000
-23.864000 0.000000
-23.782600 0.000000
-23.701200 0.000000
-23.619800 0.000000
-23.538400 0.000000
-23.457000 0.000000
-23.375500 0.000000
-23.294100 0.000000
-23.212700 0.000000
-23.131300 0.000000
-23.049900 0.000000
-22.968500 0.000000
-22.887100 0.000000
-22.805700 0.000000
-22.724300 0.000000
-22.642900 0.000000
-22.561500 0.000000
-22.480100 0.000000
-22.398700 0.000000
-22.317300 0.000000
-22.235900 0.000000
-22.154500 0.000000
-22.073100 0.000000
-21.991700 0.000000
-21.910300 0.000000
-21.828900 0.000000
-21.747500 0.000000
-21.666000 0.000000
-21.584600 0.000000
-21.503200 0.000000
-21.421800 0.000000
-21.340400 0.000000
-21.259000 0.000000
-21.177600 0.000000
-21.096200 0.000000
-21.014800 0.000000
-20.933400 0.000000
-20.852000 0.000000
-20.770600 0.000000
-20.689200 0.000000
-20.607800 0.000000
-20.526400 0.000000
-20.445000 0.000000
-20.363600 0.000000
-20.282200 0.000000
-20.200800 0.000000
-20.119400 0.000000
-20.038000 0.000000
-19.956500 0.000000
-19.875100 0.000000
-19.793700 0.000000
-19.712300 0.000000
-19.630900 0.000000
-19.549500 0.000000
-19.468100 0.000000
-19.386700 0.000000
-19.305300 0.000000
-19.223900 0.000000
-19.142500 0.000000
-19.061100 0.000000
-18.979700 0.000000
-18.898300 0.000000
-18.816900 0.000000
-18.735500 0.000000
-18.654100 0.000000
-18.572700 0.000000
-18.491300 0.000000
-18.409900 0.000000
-18.328500 0.000000
-18.247100 0.000000
-18.165600 0.000000
-18.084200 0.000000
-18.002800 0.000000
-17.921400 0.000000
-17.840000 0.000000
-17.758600 0.000000
-17.677200 0.000000
-17.595800 0.000000
-17.514400 0.000000
-17.433000 0.000000
-17.351600 0.000000
-17.270200 0.000000
-17.188800 0.000000
-17.107400 0.000000
-17.026000 0.000000
-16.944600 0.000000
-16.863200 0.000000
-16.781800 0.000000
-16.700400 0.000000
-16.619000 0.000000
-16.537600 0.000000
-16.456100 0.000000
-16.374700 0.000000
-16.293300 0.000000
-16.211900 0.000000
-16.130500 0.000000
-16.049100 0.000000
-15.967700 0.000000
-15.886300 0.000000
-15.804900 0.000000
-15.723500 0.000000
-15.642100 0.000000
-15.560700 0.000000
-15.479300 0.000000
-15.397900 0.000000
-15.316500 0.000000
-15.235100 0.000000
-15.153700 0.000000
-15.072300 0.000000
-14.990900 0.000000
-14.909500 0.000000
-14.828100 0.000000
-14.746700 0.000000
-14.665200 0.000000
-14.583800 0.000000
-14.502400 0.000000
-14.421000 0.000000
-14.339600 0.000000
-14.258200 0.000000
-14.176800 0.000000
-14.095400 0.000000
-14.014000 0.000000
-13.932600 0.000000
-13.851200 0.000000
-13.769800 0.000000
-13.688400 0.000000
-13.607000 0.000000
-13.525600 0.000000
-13.444200 0.000000
-13.362800 0.000000
-13.281400 0.000000
-13.200000 0.000000
-13.118600 0.000000
-13.037200 0.000000
-12.955700 0.000000
-12.874300 0.000000
-12.792900 0.000000
-12.711500 0.000000
-12.630100 0.000000
-12.548700 0.000000
-12.467300 0.000000
-12.385900 0.000000
-12.304500 0.000000
-12.223100 0.000000
-12.141700 0.000000
-12.060300 0.000000
-11.978900 0.000000
-11.897500 0.000000
-11.816100 0.000000
-11.734700 0.000000
-11.653300 0.000000
-11.571900 0.000000
-11.490500 0.000000
-11.409100 0.000000
-11.327700 0.000000
-11.246200 0.000000
-11.164800 0.000000
-11.083400 0.000000
-11.002000 0.000000
-10.920600 0.000000
-10.839200 0.000000
-10.757800 0.000000
-10.676400 0.000000
-10.595000 0.000000
-10.513600 0.000000
-10.432200 0.000000
-10.350800 0.000000
-10.269400 0.000000
-10.188000 0.000000
-10.106600 0.000000
-10.025200 0.000000
-9.943800 0.000000
-9.862400 0.000000
-9.781000 0.000000
-9.699600 0.000000
-9.618200 0.000000
-9.536800 0.000000
-9.455300 0.000000
-9.373900 0.000000
-9.292500 0.000000
-9.211100 0.000000
-9.129700 0.000000
-9.048300 0.000000
-8.966900 0.000000
-8.885500 0.000000
-8.804100 0.000000
-8.722700 0.000000
-8.641300 0.000000
-8.559900 0.000000
-8.478500 0.000000
-8.397100 0.000000
-8.315700 0.000000
-8.234300 0.000000
-8.152900 0.000000
-8.071500 0.000000
-7.990100 0.000000
-7.908700 0.000000
-7.827300 0.000000
-7.745800 0.000000
-7.664400 0.000000
-7.583000 0.000000
-7.501600 0.000000
-7.420200 0.000000
-7.338800 0.000000
-7.257400 0.000000
-7.176000 0.000000
-7.094600 0.000000
-7.013200 0.000000
-6.931800 0.000000
-6.850400 0.000000
-6.769000 0.000000
-6.687600 0.000000
-6.606200 0.000000
-6.524800 0.000000
-6.443400 0.000000
-6.362000 0.000000
-6.280600 0.000000
-6.199200 0.000000
-6.117800 0.000000
-6.036300 0.000000
-5.954900 0.000000
-5.873500 0.000000
-5.792100 0.000000
-5.710700 0.000000
-5.629300 0.000000
-5.547900 0.000000
-5.466500 0.000000
-5.385100 0.000000
-5.303700 0.000000
-5.222300 0.000000
-5.140900 0.000000
-5.059500 0.000000
-4.978100 0.000000
-4.896700 0.000000
-4.815300 0.000000
-4.733900 0.000000
-4.652500 0.000000
-4.571100 0.000000
-4.489700 0.000000
-4.408300 0.000000
-4.326900 0.000000
-4.245400 0.000000
-4.164000 0.000000
-4.082600 0.000000
-4.001200 0.000000
-3.919800 0.000000
-3.838400 0.000000
-3.757000 0.000000
-3.675600 0.000000
-3.594200 0.000000
-3.512800 0.000000
-3.431400 0.000000
-3.350000 0.000000
-3.268600 0.000000
-3.187200 0.000000
-3.105800 0.000000
-3.024400 0.000000
-2.943000 0.000000
-2.861600 0.000000
-2.780200 0.000000
-2.698800 0.000000
-2.617400 0.000000
-2.535900 0.000000
-2.454500 0.000000
-2.373100 0.000000
-2.291700 0.000000
-2.210300 0.000000
-2.128900 0.000000
-2.047500 0.000000
-1.966100 0.000000
-1.884700 0.000000
-1.803300 0.000000
-1.721900 0.000000
-1.640500 0.000000
-1.559100 0.000000
-1.477700 0.000000
-1.396300 0.000000
-1.314900 0.000000
-1.233500 0.000000
-1.152100 0.000000
-1.070700 0.000000
-0.989300 0.000000
-0.907900 0.000000
-0.826500 0.020400
-0.745000 0.029100
-0.663600 0.036100
-0.582200 0.042400
-0.500800 0.048300
-0.419400 0.053000
-0.338000 0.058300
-0.256600 0.063400
-0.175200 0.067500
-0.093800 0.072300
-0.012400 0.077500
0.069000 0.081400
0.150400 0.085900
0.231800 0.090600
0.313200 0.095600
0.394600 0.100100
0.476000 0.104700
0.557400 0.109500
0.638800 0.114800
0.720200 0.120000
0.801600 0.125100
0.883000 0.130700
0.964500 0.136500
1.045900 0.142500
1.127300 0.148900
1.208700 0.155800
1.290100 0.162900
1.371500 0.170200
1.452900 0.178400
1.534300 0.187600
1.615700 0.197300
1.697100 0.207500
1.778500 0.219000
1.859900 0.232700
1.941300 0.247800
2.022700 0.264300
2.104100 0.283500
2.185500 0.309500
2.266900 0.338300
2.348300 0.377100
2.429700 0.434600
2.511100 0.709500
2.592500 0.980000
2.674000 0.997300
2.755400 0.997100
2.836800 1.001000
2.918200 1.008800
2.999600 1.014000
3.081000 1.023900
3.162400 1.030600
3.243800 1.034600
3.325200 1.181500
3.406600 1.274700
3.488000 1.345500
3.569400 1.446000
3.650800 1.494300
3.732200 1.456700
3.813600 1.426800
3.895000 1.379400
3.976400 1.378000
4.057800 1.227200
4.139200 1.303800
4.220600 1.425300
4.302000 1.368000
4.383400 1.321000
4.464900 1.266200
4.546300 1.229900
4.627700 1.129000
4.709100 0.997400
4.790500 1.051400
4.871900 1.423500
4.953300 1.339600
5.034700 1.537000
5.116100 1.573500
5.197500 1.630500
5.278900 1.683900
5.360300 1.568500
5.441700 1.581100
5.523100 1.649100
5.604500 1.771800
5.685900 2.125000
5.767300 1.854800
5.848700 1.677000
5.930100 1.609500
6.011500 1.877000
6.092900 1.834700
6.174400 1.718400
6.255800 2.265600
6.337200 2.429400
6.418600 1.776800
6.500000 1.514400
6.581400 1.344700
6.662800 1.244600
6.744200 1.198400
6.825600 1.192400
6.907000 1.244800
6.988400 1.181400
7.069800 1.182200
7.151200 1.403900
7.232600 1.622700
7.314000 1.683300
7.395400 1.770500
7.476800 2.537900
7.558200 1.685800
7.639600 1.450500
7.721000 1.318600
7.802400 1.550600
7.883800 1.446500
7.965300 1.423800
8.046700 1.413600
8.128100 1.416400
8.209500 1.442500
8.290900 1.478700
8.372300 1.537900
8.453700 1.621400
8.535100 1.749900
8.616500 1.955600
8.697900 2.287700
8.779300 2.999300
8.860700 3.146000
8.942100 2.335900
9.023500 1.785500
9.104900 1.317500
9.186300 3.328400
9.267700 0.432000
9.349100 0.425400
9.430500 0.419500
9.511900 0.415900
9.593300 0.413200
9.674800 0.406400
9.756200 0.402000
9.837600 0.399700
9.919000 0.395500
10.000400 0.390200
10.081800 0.384400
10.163200 0.381200
10.244600 0.377500
10.326000 0.373200
10.407400 0.367600
10.488800 0.363100
10.570200 0.358600
10.651600 0.354100
10.733000 0.349300
10.814400 0.344500
10.895800 0.339500
10.977200 0.334700
11.058600 0.329500
11.140000 0.324500
11.221400 0.319400
11.302800 0.313400
11.384300 0.308000
11.465700 0.302900
11.547100 0.297900
11.628500 0.292500
11.709900 0.286700
11.791300 0.280500
11.872700 0.274600
11.954100 0.268900
12.035500 0.262600
12.116900 0.256900
12.198300 0.251500
12.279700 0.245500
12.361100 0.238400
12.442500 0.231800
12.523900 0.225000
12.605300 0.218900
12.686700 0.212600
12.768100 0.206100
12.849500 0.199300
12.930900 0.191900
13.012300 0.184600
13.093700 0.177600
13.175200 0.170500
13.256600 0.162700
13.338000 0.155700
13.419400 0.148700
13.500800 0.140200
13.582200 0.132100
13.663600 0.124900
13.745000 0.116300
13.826400 0.101200
13.907800 0.087900
13.989200 0.076500
14.070600 0.063400
14.152000 0.052500
14.233400 0.046600
14.314800 0.042600
14.396200 0.042300
14.477600 0.048300
14.559000 0.065300
14.640400 0.125200
14.721800 0.585300
14.803200 0.989700
14.884700 0.663500
14.966100 0.567400
15.047500 0.507000
15.128900 0.474800
15.210300 0.440900
15.291700 0.416300
15.373100 0.398500
15.454500 0.388200
15.535900 0.367800
15.617300 0.356500
15.698700 0.347700
15.780100 0.340000
15.861500 0.333200
15.942900 0.327000
16.024300 0.321300
16.105700 0.316300
16.187100 0.311700
16.268500 0.307300
16.349900 0.303200
16.431300 0.299300
16.512700 0.295600
16.594200 0.292600
16.675600 0.289800
16.757000 0.287000
16.838400 0.284500
16.919800 0.282300
17.001200 0.280200
17.082600 0.280500
17.164000 0.281400
17.245400 0.283200
17.326800 0.286300
17.408200 0.371500
17.489600 0.445100
17.571000 0.403800
17.652400 0.844600
17.733800 0.605400
17.815200 0.579800
17.896600 0.584300
17.978000 0.566000
18.059400 0.545600
18.140800 0.538900
18.222200 0.529200
18.303600 0.543600
18.385100 0.552400
18.466500 0.559900
18.547900 0.551200
18.629300 0.551900
18.710700 0.552000
18.792100 0.553000
18.873500 0.553200
18.954900 0.556000
19.036300 0.561100
19.117700 0.564000
19.199100 0.561300
19.280500 0.560600
19.361900 0.564200
19.443300 0.570700
19.524700 0.577000
19.606100 0.583900
19.687500 0.590100
19.768900 0.611900
19.850300 0.608500
19.931700 0.603500
20.013100 0.602700
20.094600 0.599000
20.176000 0.596000
20.257400 0.594400
20.338800 0.592400
20.420200 0.588700
20.501600 0.588100
20.583000 0.589100
20.664400 0.586500
20.745800 0.583200
20.827200 0.580700
20.908600 0.578500
20.990000 0.578000
21.071400 0.578100
21.152800 0.576700
21.234200 0.575400
21.315600 0.574200
21.397000 0.572500
21.478400 0.572200
21.559800 0.571200
21.641200 0.570600
21.722600 0.570900
21.804000 0.570900
21.885500 0.571700
21.966900 0.571100
22.048300 0.572300
22.129700 0.573500
22.211100 0.575700
22.292500 0.578000
22.373900 0.581300
22.455300 0.585700
22.536700 0.591100
22.618100 0.598200
22.699500 0.607800
22.780900 0.623400
22.862300 0.642600
22.943700 0.686700
23.025100 0.698900
23.106500 0.617200
23.187900 0.579100
23.269300 0.556200
23.350700 0.536700
23.432100 0.522900
23.513500 0.511600
23.595000 0.502600
23.676400 0.495500
23.757800 0.490300
23.839200 0.488900
23.920600 0.491500
24.002000 0.503100
24.083400 0.744700
24.164800 0.484600
24.246200 0.432600
24.327600 0.403500
24.409000 0.385500
24.490400 0.364500
24.571800 0.357600
24.653200 0.347400
24.734600 0.338600
24.816000 0.330100
24.897400 0.316800
24.978800 0.302600
25.060200 0.290200
25.141600 0.300800
25.223000 0.296900
25.304500 0.305300
25.385900 0.327300
25.467300 0.375700
25.548700 0.402100
25.630100 0.414100
25.711500 0.419400
25.792900 0.493500
25.874300 0.608800
25.955700 0.795500
26.037100 0.888200
26.118500 0.737400
26.199900 0.710200
26.281300 0.702200
26.362700 0.675800
26.444100 0.661800
26.525500 0.634400
26.606900 0.623000
26.688300 0.618300
26.769700 0.616600
26.851100 0.618500
26.932500 0.622600
27.013900 0.628300
27.095400 0.630400
27.176800 0.636900
27.258200 0.648000
27.339600 0.670800
27.421000 0.699800
27.502400 0.693500
27.583800 0.688800
27.665200 0.677800
27.746600 0.673700
27.828000 0.669400
27.909400 0.674000
27.990800 0.671600
28.072200 0.670000
28.153600 0.678600
28.235000 0.708000
28.316400 0.626400
28.397800 0.589100
28.479200 0.550000
28.560600 0.528800
28.642000 0.510200
28.723400 0.495500
28.804900 0.504600
28.886300 0.480800
28.967700 0.472800
29.049100 0.464800
29.130500 0.456300
29.211900 0.452600
29.293300 0.455000
29.374700 0.439300
29.456100 0.435400
29.537500 0.441400
29.618900 0.430300
29.700300 0.401700
29.781700 0.379200
29.863100 0.362400
29.944500 0.309200
30.025900 0.294000
30.107300 0.278900
30.188700 0.273200
30.270100 0.268900
30.351500 0.247000
30.432900 0.236200
30.514300 0.221100
30.595800 0.201000
30.677200 0.189500
30.758600 0.198900
30.840000 0.213300
30.921400 0.253200
31.002800 0.383300
31.084200 0.417400
31.165600 0.436600
31.247000 0.503500
31.328400 0.497100
31.409800 0.507000
31.491200 0.528500
31.572600 0.558700
31.654000 0.608800
31.735400 0.653000
31.816800 0.712000
31.898200 0.772900
31.979600 0.863800
32.061000 0.962100
32.142400 1.024700
32.223800 0.968200
32.305300 0.873500
32.386700 0.810600
32.468100 0.773300
32.549500 0.751800
32.630900 0.720300
32.712300 0.699600
32.793700 0.682300
32.875100 0.669700
32.956500 0.663800
33.037900 0.647000
33.119300 0.649200
33.200700 0.628000
33.282100 0.621600
33.363500 0.615200
33.444900 0.608700
33.526300 0.609100
33.607700 0.630900
33.689100 0.637800
33.770500 0.818700
33.851900 0.688400
33.933300 0.646000
34.014800 0.609800
34.096200 0.587500
34.177600 0.579800
34.259000 0.567700
34.340400 0.561100
34.421800 0.562000
34.503200 0.545300
34.584600 0.548300
34.666000 0.530300
34.747400 0.505900
34.828800 0.506000
34.910200 0.520200
34.991600 0.555900
35.073000 0.612600
35.154400 0.706400
35.235800 0.891700
35.317200 1.452700
35.398600 2.861600
35.480000 1.203200
35.561400 0.972200
35.642800 0.836300
35.724200 0.780300
35.805700 0.770600
35.887100 0.794600
35.968500 0.767700
36.049900 0.748900
36.131300 0.738900
36.212700 0.729800
36.294100 0.723200
36.375500 0.721300
36.456900 0.721200
36.538300 0.721600
36.619700 0.722600
36.701100 0.734700
36.782500 0.737200
36.863900 0.716200
36.945300 0.695200
37.026700 0.689200
37.108100 0.673600
37.189500 0.661100
37.270900 0.653100
37.352300 0.647000
37.433700 0.633600
37.515200 0.630000
37.596600 0.622300
37.678000 0.613700
37.759400 0.611300
37.840800 0.613100
37.922200 0.616100
38.003600 0.631000
38.085000 0.622400
38.166400 0.616900
38.247800 0.606500
38.329200 0.595300
38.410600 0.583700
38.492000 0.569100
38.573400 0.544700
38.654800 0.520000
38.736200 0.512600
38.817600 0.515500
38.899000 0.521200
38.980400 0.529800
39.061800 0.538000
39.143200 0.540100
39.224600 0.538700
39.306100 0.542200
39.387500 0.544400
39.468900 0.546300
39.550300 0.551800
39.631700 0.545200
39.713100 0.532600
39.794500 0.520300
39.875900 0.510500
39.957300 0.503100
40.038700 0.497900
40.120100 0.493100
40.201500 0.493500
40.282900 0.497700
40.364300 0.496500
40.445700 0.506800
40.527100 0.520900
40.608500 0.511800
40.689900 0.518600
40.771300 0.519900
40.852700 0.560500
40.934100 0.586900
41.015600 0.588200
41.097000 0.597400
41.178400 0.594500
41.259800 0.575200
41.341200 0.565000
41.422600 0.580100
41.504000 0.596200
41.585400 0.595400
41.666800 0.616600
41.748200 0.624300
41.829600 0.623200
41.911000 0.641500
41.992400 0.656200
42.073800 0.670500
42.155200 0.691300
42.236600 0.715800
42.318000 0.726100
42.399400 0.746900
42.480800 0.747600
42.562200 0.752400
42.643600 0.778900
42.725100 0.797000
42.806500 0.824800
42.887900 0.800500
42.969300 0.759900
43.050700 0.706000
43.132100 0.659300
43.213500 0.637800
43.294900 0.639300
43.376300 0.641400
43.457700 0.651000
43.539100 0.659800
43.620500 0.650700
43.701900 0.654800
43.783300 0.666500
43.864700 0.669100
43.946100 0.680700
44.027500 0.687200
44.108900 0.682100
44.190300 0.693600
44.271700 0.678200
44.353100 0.672400
44.434500 0.678500
44.516000 0.668600
44.597400 0.675600
44.678800 0.654500
44.760200 0.649600
44.841600 0.649600
44.923000 0.651900
45.004400 0.652200
45.085800 0.651000
45.167200 0.651000
45.248600 0.648600
45.330000 0.656800
45.411400 0.673200
45.492800 0.695500
45.574200 0.708800
45.655600 0.775600
45.737000 0.773900
45.818400 0.749800
45.899800 0.749500
45.981200 0.755700
46.062600 0.752000
46.144000 0.753700
46.225500 0.766300
46.306900 0.770000
46.388300 0.786900
46.469700 0.789900
46.551100 0.795200
46.632500 0.795600
46.713900 0.800500
46.795300 0.797000
46.876700 0.799300
46.958100 0.818400
47.039500 0.824900
47.120900 0.869700
47.202300 0.851600
47.283700 0.840200
47.365100 0.824800
47.446500 0.801000
47.527900 0.781900
47.609300 0.761500
47.690700 0.736900
47.772100 0.722300
47.853500 0.705900
47.935000 0.703200
48.016400 0.689600
48.097800 0.681400
48.179200 0.692000
48.260600 0.673300
48.342000 0.683500
48.423400 0.692700
48.504800 0.697400
48.586200 0.702100
48.667600 0.684800
48.749000 0.667300
48.830400 0.672900
48.911800 0.690300
48.993200 0.686000
49.074600 0.666700
49.156000 0.647500
49.237400 0.637500
49.318800 0.593000
49.400200 0.582700
49.481600 0.581100
49.563000 0.583700
49.644400 0.594000
49.725900 0.604800
49.807300 0.628200
49.888700 0.668700
49.970100 0.705400
50.051500 0.743800
50.132900 0.785300
50.214300 0.830300
50.295700 0.897000
50.377100 0.989900
50.458500 1.045600
50.539900 1.029200
50.621300 0.944100
50.702700 0.852800
50.784100 0.755400
50.865500 0.681400
50.946900 0.646700
51.028300 0.633000
51.109700 0.644300
51.191100 0.643200
51.272500 0.629200
51.353900 0.605900
51.435400 0.607700
51.516800 0.633900
51.598200 0.669700
51.679600 0.703200
51.761000 0.724700
51.842400 0.769300
51.923800 0.827700
52.005200 0.880100
52.086600 0.899100
52.168000 0.815000
52.249400 0.753300
52.330800 0.725500
52.412200 0.721300
52.493600 0.710800
52.575000 0.706400
52.656400 0.642800
52.737800 0.641100
52.819200 0.642200
52.900600 0.629800
52.982000 0.627800
53.063400 0.641400
53.144800 0.716000
53.226300 0.727500
53.307700 0.746700
53.389100 0.752700
53.470500 0.754800
53.551900 0.749000
53.633300 0.738500
53.714700 0.736000
53.796100 0.740800
53.877500 0.753600
53.958900 0.786900
54.040300 0.803700
54.121700 0.751000
54.203100 0.698500
54.284500 0.669400
54.365900 0.685200
54.447300 0.714000
54.528700 0.779800
54.610100 0.864700
54.691500 0.956200
54.772900 1.013300
54.854300 1.049800
54.935800 1.073100
55.017200 1.057200
55.098600 1.039100
55.180000 0.976200
55.261400 0.913600
55.342800 0.889000
55.424200 0.839000
55.505600 0.810100
55.587000 0.796600
55.668400 0.784800
55.749800 0.766700
55.831200 0.751000
55.912600 0.736900
55.994000 0.727100
56.075400 0.727300
56.156800 0.749400
56.238200 1.010800
56.319600 0.834200
56.401000 0.886000
56.482400 0.991000
56.563800 1.221200
56.645300 1.328300
56.726700 1.338300
56.808100 1.240000
56.889500 1.112200
56.970900 0.867900
57.052300 0.774700
57.133700 0.760900
57.215100 0.755300
57.296500 0.724600
57.377900 0.728200
57.459300 0.732800
57.540700 0.700200
57.622100 0.692300
57.703500 0.697200
57.784900 0.693700
57.866300 0.690200
57.947700 0.694300
58.029100 0.692600
58.110500 0.690600
58.191900 0.693500
58.273300 0.680000
58.354700 0.652300
58.436200 0.646300
58.517600 0.630700
58.599000 0.613700
58.680400 0.610600
58.761800 0.602400
58.843200 0.594200
58.924600 0.597200
59.006000 0.574600
59.087400 0.579100
59.168800 0.592400
59.250200 0.617600
59.331600 0.666700
59.413000 0.634900
59.494400 0.656000
59.575800 0.680700
59.657200 0.708500
59.738600 0.711600
59.820000 0.707400
59.901400 0.707300
59.982800 0.704300
60.064200 0.708000
60.145700 0.712500
60.227100 0.721500
60.308500 0.724100
60.389900 0.716000
60.471300 0.722500
60.552700 0.729000
60.634100 0.740900
60.715500 0.752000
60.796900 0.758500
60.878300 0.777100
60.959700 0.798600
61.041100 0.830800
61.122500 0.863600
61.203900 0.888800
61.285300 0.877000
61.366700 0.867600
61.448100 0.822200
61.529500 0.808400
61.610900 0.806000
61.692300 0.802800
61.773700 0.798600
61.855100 0.787300
61.936600 0.787000
62.018000 0.801200
62.099400 0.800500
62.180800 0.807000
62.262200 0.865300
62.343600 0.885000
62.425000 0.886300
62.506400 0.890300
62.587800 0.898500
62.669200 0.892600
62.750600 0.902200
62.832000 0.898300
62.913400 0.895900
62.994800 0.920300
63.076200 0.958700
63.157600 0.971500
63.239000 0.951700
63.320400 0.919500
63.401800 0.875000
63.483200 0.834300
63.564600 0.794200
63.646100 0.818000
63.727500 0.794100
63.808900 0.795600
63.890300 0.777000
63.971700 0.754700
64.053100 0.724200
64.134500 0.699400
64.215900 0.674200
64.297300 0.654900
64.378700 0.647100
64.460100 0.638800
64.541500 0.646900
64.622900 0.691900
64.704300 0.708700
64.785700 0.726300
64.867100 0.758700
64.948500 0.798200
65.029900 0.833700
65.111300 0.909000
65.192700 0.962900
65.274100 0.945300
65.355600 0.920200
65.437000 0.936900
65.518400 0.928300
65.599800 0.921100
65.681200 0.916700
65.762600 0.914900
65.844000 0.916900
65.925400 0.940200
66.006800 0.940700
66.088200 0.867400
66.169600 0.804000
66.251000 0.768000
66.332400 0.755300
66.413800 0.752000
66.495200 0.763500
66.576600 0.776800
66.658000 0.806400
66.739400 0.850200
66.820800 0.875800
66.902200 0.912000
66.983600 0.941300
67.065000 0.994100
67.146500 0.918000
67.227900 0.899200
67.309300 0.886300
67.390700 0.883900
67.472100 0.859200
67.553500 0.841300
67.634900 0.816500
67.716300 0.792000
67.797700 0.810300
67.879100 0.819800
67.960500 0.796600
68.041900 0.786500
68.123300 0.786100
68.204700 0.797400
68.286100 0.819200
68.367500 0.832200
68.448900 0.825400
68.530300 0.828600
68.611700 0.827300
68.693100 0.828500
68.774500 0.815800
68.856000 0.809400
68.937400 0.803900
69.018800 0.802700
69.100200 0.798300
69.181600 0.797500
69.263000 0.809300
69.344400 0.835600
69.425800 0.831200
69.507200 0.831100
69.588600 0.830800
69.670000 0.813600
69.751400 0.809500
69.832800 0.783100
69.914200 0.771100
69.995600 0.768800
70.077000 0.775600
70.158400 0.792500
70.239800 0.798200
70.321200 0.803400
70.402600 0.814800
70.484000 0.821000
70.565500 0.822000
70.646900 0.779100
70.728300 0.767500
70.809700 0.748600
70.891100 0.758400
70.972500 0.738100
71.053900 0.736600
71.135300 0.739500
71.216700 0.747500
71.298100 0.761700
71.379500 0.786800
71.460900 0.810800
71.542300 0.851200
71.623700 0.896200
71.705100 0.995100
71.786500 1.090900
71.867900 1.062600
71.949300 1.021500
72.030700 0.977100
72.112100 0.986100
72.193500 0.980800
72.274900 0.993700
72.356400 0.989200
72.437800 0.949900
72.519200 0.913600
72.600600 0.895900
72.682000 0.887500
72.763400 0.887100
72.844800 0.888200
72.926200 0.901600
73.007600 0.942300
73.089000 0.962600
73.170400 0.975600
73.251800 0.973200
73.333200 0.972900
73.414600 0.973100
73.496000 0.924900
73.577400 0.914400
73.658800 0.890800
73.740200 0.827900
73.821600 0.800600
73.903000 0.774400
73.984400 0.756100
74.065900 0.730900
74.147300 0.704500
74.228700 0.696400
74.310100 0.709600
74.391500 0.718500
74.472900 0.722700
74.554300 0.728000
74.635700 0.726000
74.717100 0.744000
74.798500 0.733000
74.879900 0.728000
74.961300 0.722600
75.042700 0.714300
75.124100 0.720400
75.205500 0.732200
75.286900 0.739700
75.368300 0.755800
75.449700 0.769700
75.531100 0.772000
75.612500 0.783500
75.693900 0.798100
75.775300 0.818400
75.856800 0.839100
75.938200 0.845300
76.019600 0.849800
76.101000 0.862600
76.182400 0.889300
76.263800 0.902600
76.345200 0.909100
76.426600 0.933200
76.508000 0.963700
76.589400 0.985300
76.670800 1.014800
76.752200 1.045200
76.833600 1.059900
76.915000 1.054100
76.996400 1.097600
77.077800 1.123800
77.159200 1.141600
77.240600 1.150900
77.322000 1.123300
77.403400 0.914300
77.484800 0.886600
77.566300 0.878700
77.647700 0.874100
77.729100 0.876500
77.810500 0.877200
77.891900 0.871200
77.973300 0.867400
78.054700 0.850200
78.136100 0.833600
78.217500 0.822200
78.298900 0.813800
78.380300 0.816900
78.461700 0.831100
78.543100 0.847100
78.624500 0.839400
78.705900 0.859500
78.787300 0.834900
78.868700 0.827900
78.950100 0.840600
79.031500 0.850300
79.112900 0.845200
79.194300 0.830200
79.275800 0.839500
79.357200 0.824700
79.438600 0.826400
79.520000 0.831600
79.601400 0.856300
79.682800 0.843400
79.764200 0.834500
79.845600 0.843700
79.927000 0.850000
80.008400 0.852100
80.089800 0.850300
80.171200 0.860400
80.252600 0.861500
80.334000 0.857700
80.415400 0.860000
80.496800 0.847000
80.578200 0.832700
80.659600 0.833800
80.741000 0.835900
80.822400 0.843400
80.903800 0.880900
80.985200 0.895300
81.066700 0.874400
81.148100 0.849600
81.229500 0.823700
81.310900 0.801000
81.392300 0.796100
81.473700 0.794800
81.555100 0.796800
81.636500 0.797200
81.717900 0.811700
81.799300 0.805800
81.880700 0.815400
81.962100 0.830000
82.043500 0.835900
82.124900 0.830600
82.206300 0.830300
82.287700 0.828800
82.369100 0.810500
82.450500 0.821300
82.531900 0.820000
82.613300 0.811200
82.694700 0.806900
82.776200 0.799900
82.857600 0.809000
82.939000 0.782700
83.020400 0.771300
83.101800 0.766700
83.183200 0.762500
83.264600 0.755500
83.346000 0.753100
83.427400 0.740800
83.508800 0.744600
83.590200 0.740700
83.671600 0.746100
83.753000 0.744700
83.834400 0.769200
83.915800 0.804000
83.997200 0.778500
84.078600 0.770700
84.160000 0.794900
84.241400 0.829800
84.322800 0.893100
84.404200 0.892400
84.485600 0.881200
84.567100 0.890500
84.648500 0.872500
84.729900 0.879700
84.811300 0.909100
84.892700 0.926600
84.974100 0.971300
85.055500 1.020000
85.136900 0.983100
85.218300 0.936000
85.299700 0.885300
85.381100 0.838800
85.462500 0.801800
85.543900 0.772300
85.625300 0.758900
85.706700 0.771200
85.788100 0.802700
85.869500 0.855500
85.950900 0.852700
86.032300 0.862700
86.113700 0.838500
86.195100 0.792700
86.276600 0.782300
86.358000 0.789000
86.439400 0.797400
86.520800 0.818000
86.602200 0.805400
86.683600 0.804800
86.765000 0.780900
86.846400 0.761400
86.927800 0.747300
87.009200 0.720300
87.090600 0.700900
87.172000 0.674300
87.253400 0.660700
87.334800 0.656200
87.416200 0.639900
87.497600 0.637600
87.579000 0.668900
87.660400 0.671800
87.741800 0.672700
87.823200 0.721800
87.904600 0.791900
87.986100 0.758300
88.067500 0.771900
88.148900 0.801200
88.230300 0.875000
88.311700 0.912700
88.393100 0.954100
88.474500 1.010300
88.555900 1.061300
88.637300 1.105500
88.718700 1.100500
88.800100 1.083000
88.881500 1.037000
88.962900 1.001900
89.044300 0.992000
89.125700 1.000700
89.207100 1.033200
89.288500 1.072500
89.369900 1.096900
89.451300 1.130100
89.532700 1.121600
89.614100 1.096900
89.695500 1.071000
89.777000 1.054000
89.858400 1.045000
89.939800 1.042400
90.021200 1.045800
90.102600 1.060400
90.184000 1.104300
90.265400 1.106300
90.346800 1.113000
90.428200 1.086300
90.509600 1.037800
90.591000 1.003200
90.672400 0.959800
90.753800 0.930600
90.835200 0.925000
90.916600 0.929100
90.998000 0.991700
91.079400 1.111700
91.160800 1.069700
91.242200 1.056900
91.323600 0.977900
91.405000 0.940600
91.486500 0.912700
91.567900 0.901800
91.649300 0.891700
91.730700 0.895600
91.812100 0.890700
91.893500 0.909500
91.974900 0.921000
92.056300 0.931800
92.137700 0.898700
92.219100 0.871200
92.300500 0.838900
92.381900 0.826000
92.463300 0.816300
92.544700 0.840800
92.626100 0.867600
92.707500 0.883400
92.788900 0.901200
92.870300 0.862000
92.951700 0.852500
93.033100 0.874200
93.114500 0.852900
93.196000 0.849700
93.277400 0.813600
93.358800 0.782200
93.440200 0.776500
93.521600 0.790800
93.603000 0.828700
93.684400 0.900800
93.765800 0.978100
93.847200 1.030400
93.928600 1.050100
94.010000 0.975800
94.091400 0.931100
94.172800 0.889900
94.254200 0.881600
94.335600 0.825000
94.417000 0.779200
94.498400 0.699200
94.579800 0.662000
94.661200 0.656000
94.742600 0.705900
94.824000 0.788900
94.905400 0.831600
94.986900 0.880000
95.068300 0.925400
95.149700 0.979000
95.231100 1.032100
95.312500 1.067800
95.393900 1.075100
95.475300 1.047800
95.556700 1.015800
95.638100 0.979900
95.719500 0.967100
95.800900 0.919600
95.882300 0.924700
95.963700 0.933300
96.045100 0.994700
96.126500 1.000400
96.207900 1.030700
96.289300 1.099600
96.370700 1.135100
96.452100 1.153300
96.533500 1.512400
96.614900 1.086700
96.696400 1.051900
96.777800 1.022700
96.859200 0.997900
96.940600 0.977100
97.022000 0.960000
97.103400 0.955900
97.184800 0.949300
97.266200 0.939500
97.347600 0.925300
97.429000 0.929600
97.510400 0.930300
97.591800 0.911100
97.673200 0.916700
97.754600 0.943600
97.836000 0.875500
97.917400 0.869200
97.998800 0.876100
98.080200 0.928800
98.161600 0.995200
98.243000 1.049000
98.324400 1.102000
98.405800 1.107600
98.487300 1.130200
98.568700 1.178700
98.650100 1.204600
98.731500 1.295100
98.812900 1.338800
98.894300 1.386100
98.975700 1.349100
99.057100 1.298300
99.138500 1.254300
99.219900 1.309200
99.301300 1.353800
99.382700 1.405100
99.464100 1.415000
99.545500 1.450700
99.626900 1.430100
99.708300 1.451000
99.789700 1.361000
99.871100 1.314700
99.952500 1.206700
100.033900 1.118500
100.115300 1.020600
100.196800 0.972100
100.278200 0.939800
100.359600 0.924000
100.441000 0.900700
100.522400 0.859500
100.603800 0.832000
100.685200 0.770200
100.766600 0.798200
100.848000 0.809600
100.929400 0.774900
101.010800 0.763900
101.092200 0.780700
101.173600 0.788800
101.255000 0.807200
101.336400 0.839400
101.417800 0.849700
101.499200 0.937900
101.580600 0.962400
101.662000 1.031800
101.743400 1.063700
101.824800 1.082800
101.906300 1.031900
101.987700 1.003100
102.069100 0.948100
102.150500 0.949900
102.231900 0.934000
102.313300 0.957300
102.394700 0.931600
102.476100 0.866500
102.557500 0.813300
102.638900 0.834800
102.720300 0.817900
102.801700 0.803000
102.883100 0.814800
102.964500 0.835700
103.045900 0.897500
103.127300 0.935500
103.208700 0.980200
103.290100 1.000100
103.371500 0.982900
103.452900 0.934000
103.534300 0.893600
103.615700 0.870000
103.697200 0.859800
103.778600 0.858700
103.860000 0.861900
103.941400 0.887900
104.022800 0.920000
104.104200 0.938100
104.185600 0.949900
104.267000 0.968900
104.348400 0.919300
104.429800 0.906100
104.511200 0.918900
104.592600 0.931100
104.674000 0.941000
104.755400 0.968600
104.836800 1.007900
104.918200 1.034700
104.999600 1.051500
105.081000 1.067300
105.162400 1.060900
105.243800 1.064400
105.325200 1.057200
105.406700 1.009400
105.488100 0.991800
105.569500 0.968100
105.650900 0.965500
105.732300 0.968700
105.813700 0.983600
105.895100 1.006300
105.976500 1.031200
106.057900 1.063100
106.139300 1.080800
106.220700 1.107400
106.302100 1.141800
106.383500 1.172700
106.464900 1.177400
106.546300 1.179800
106.627700 1.142000
106.709100 1.101500
106.790500 1.073700
106.871900 1.043000
106.953300 1.031000
107.034700 1.045300
107.116100 1.088100
107.197600 1.083900
107.279000 1.075200
107.360400 1.065000
107.441800 1.069800
107.523200 1.043100
107.604600 0.988800
107.686000 0.974600
107.767400 0.956500
107.848800 0.919000
107.930200 0.891200
108.011600 0.889500
108.093000 0.873700
108.174400 0.871000
108.255800 0.882500
108.337200 0.885200
108.418600 0.901100
108.500000 0.918100
108.581400 0.912300
108.662800 0.917200
108.744200 0.927400
108.825600 0.921400
108.907100 0.908800
108.988500 0.915600
109.069900 0.917800
109.151300 0.924900
109.232700 0.936200
109.314100 0.929900
109.395500 0.917700
109.476900 0.990600
109.558300 1.021900
109.639700 1.036300
109.721100 1.011200
109.802500 1.011700
109.883900 0.970300
109.965300 0.944300
110.046700 0.944000
110.128100 0.904100
110.209500 0.875400
110.290900 0.856300
110.372300 0.833700
110.453700 0.819100
110.535100 0.795800
110.616600 0.792500
110.698000 0.803300
110.779400 0.807900
110.860800 0.796400
110.942200 0.781700
111.023600 0.763500
111.105000 0.761300
111.186400 0.766300
111.267800 0.750600
111.349200 0.749900
111.430600 0.742300
111.512000 0.738400
111.593400 0.744300
111.674800 0.747600
111.756200 0.745300
111.837600 0.732300
111.919000 0.727000
112.000400 0.712200
112.081800 0.690300
112.163200 0.663100
112.244600 0.641900
112.326000 0.600500
112.407500 0.586500
112.488900 0.567400
112.570300 0.555400
112.651700 0.541600
112.733100 0.543900
112.814500 0.538300
112.895900 0.535500
112.977300 0.532500
113.058700 0.523900
113.140100 0.509000
113.221500 0.478500
113.302900 0.446600
113.384300 0.417100
113.465700 0.384000
113.547100 0.377400
113.628500 0.376800
113.709900 0.385600
113.791300 0.422400
113.872700 0.418200
113.954100 0.421400
114.035500 0.390700
114.117000 0.359700
114.198400 0.315000
114.279800 0.283500
114.361200 0.230800
114.442600 0.161000
114.524000 0.129000
114.605400 0.108400
114.686800 0.084900
114.768200 0.070300
114.849600 0.054800
114.931000 0.041300
115.012400 0.035000
115.093800 0.028900
115.175200 0.023100
115.256600 0.019300
115.338000 0.013400
115.419400 0.009300
115.500800 0.005000
115.582200 0.001400
115.663600 0.000000
115.745000 0.000000
115.826500 0.000000
115.907900 0.000000
115.989300 0.000000
116.070700 0.000000
116.152100 0.000000
116.233500 0.000000
116.314900 0.000000
116.396300 0.000000
116.477700 0.000000
116.559100 0.000000
116.640500 0.000000
116.721900 0.000000
116.803300 0.000000
116.884700 0.000000
116.966100 0.000000
117.047500 0.000000
117.128900 0.000000
117.210300 0.000000
117.291700 0.000000
117.373100 0.000000
117.454500 0.000000
117.535900 0.000000
117.617400 0.000000
117.698800 0.000000
117.780200 0.000000
117.861600 0.000000
117.943000 0.000000
118.024400 0.000000
118.105800 0.000000
118.187200 0.000000
118.268600 0.000000
118.350000 0.000000
118.431400 0.000000
118.512800 0.000000
118.594200 0.000000
118.675600 0.000000
118.757000 0.000000
118.838400 0.000000
118.919800 0.000000
119.001200 0.000000
119.082600 0.000000
119.164000 0.000000
119.245400 0.000000
119.326900 0.000000
119.408300 0.000000
119.489700 0.000000
119.571100 0.000000
119.652500 0.000000
119.733900 0.000000
119.815300 0.000000
119.896700 0.000000
119.978100 0.000000
120.059500 0.000000
120.140900 0.000000
120.222300 0.000000
120.303700 0.000000
120.385100 0.000000
120.466500 0.000000
120.547900 0.000000
120.629300 0.000000
120.710700 0.000000
120.792100 0.000000
120.873500 0.000000
120.954900 0.000000
121.036300 0.000000
121.117800 0.000000
121.199200 0.000000
121.280600 0.000000
121.362000 0.000000
121.443400 0.000000
121.524800 0.000000
121.606200 0.000000
121.687600 0.000000
121.769000 0.000000
121.850400 0.000000
121.931800 0.000000
122.013200 0.000000
122.094600 0.000000
122.176000 0.000000
122.257400 0.000000
122.338800 0.000000
122.420200 0.000000
122.501600 0.000000
122.583000 0.000000
122.664400 0.000000
122.745800 0.000000
122.827300 0.000000
122.908700 0.000000
122.990100 0.000000
123.071500 0.000000
e
