set title 'mp-556815 - Density of States'
set xlabel 'Energy (eV)'
set ylabel 'DOS (states/eV)'
set grid
set xrange [-10:10]
set yrange [0:529.120]
set xzeroaxis lt -1
set terminal png size 800,600
set output 'mp-556815_dos_gnuplot.png'
plot '-' using 1:2 with lines title 'DOS'
-12.337700 0.000000
-12.324000 0.000000
-12.310300 0.000000
-12.296600 0.000000
-12.282900 0.000000
-12.269200 0.000000
-12.255600 0.000000
-12.241900 0.000000
-12.228200 0.000000
-12.214500 0.000000
-12.200800 0.000000
-12.187100 0.000000
-12.173400 0.000000
-12.159700 0.000000
-12.146000 0.000000
-12.132300 0.000000
-12.118700 0.000000
-12.105000 0.000000
-12.091300 0.000000
-12.077600 0.000000
-12.063900 0.000000
-12.050200 0.000000
-12.036500 0.000000
-12.022800 0.000000
-12.009100 0.000000
-11.995500 0.000000
-11.981800 0.000000
-11.968100 0.000000
-11.954400 0.000000
-11.940700 0.000000
-11.927000 0.000000
-11.913300 0.000000
-11.899600 0.000000
-11.885900 0.000000
-11.872200 0.000000
-11.858600 0.000000
-11.844900 0.000000
-11.831200 0.000000
-11.817500 0.000000
-11.803800 0.000000
-11.790100 0.000000
-11.776400 0.000000
-11.762700 0.000000
-11.749000 0.000000
-11.735400 0.000000
-11.721700 0.000000
-11.708000 0.000000
-11.694300 0.000000
-11.680600 0.000000
-11.666900 0.000000
-11.653200 0.000000
-11.639500 0.000000
-11.625800 0.000000
-11.612100 0.000000
-11.598500 0.000000
-11.584800 0.000000
-11.571100 0.000000
-11.557400 0.000000
-11.543700 0.000000
-11.530000 0.000000
-11.516300 0.000000
-11.502600 0.000000
-11.488900 0.000000
-11.475300 0.000000
-11.461600 0.000000
-11.447900 0.000000
-11.434200 0.000000
-11.420500 0.000000
-11.406800 0.000000
-11.393100 0.000000
-11.379400 0.000000
-11.365700 0.000000
-11.352100 0.000000
-11.338400 0.000000
-11.324700 0.000000
-11.311000 0.000000
-11.297300 0.000000
-11.283600 0.000000
-11.269900 0.000000
-11.256200 0.000000
-11.242500 0.000000
-11.228800 0.000000
-11.215200 0.000000
-11.201500 0.000000
-11.187800 0.000000
-11.174100 0.000000
-11.160400 0.000000
-11.146700 0.000000
-11.133000 0.000000
-11.119300 0.000000
-11.105600 0.000000
-11.092000 0.018400
-11.078300 0.220500
-11.064600 0.422700
-11.050900 0.692300
-11.037200 1.255200
-11.023500 1.872500
-11.009800 2.489900
-10.996100 3.107200
-10.982400 3.724500
-10.968700 4.341800
-10.955100 3.997600
-10.941400 4.544200
-10.927700 4.584200
-10.914000 4.367700
-10.900300 4.901000
-10.886600 5.434300
-10.872900 5.967600
-10.859200 6.500900
-10.845500 7.034200
-10.831900 7.567500
-10.818200 6.191900
-10.804500 6.327700
-10.790800 6.463400
-10.777100 6.773700
-10.763400 7.447800
-10.749700 8.121900
-10.736000 8.796000
-10.722300 9.462600
-10.708600 10.127500
-10.695000 10.788800
-10.681300 11.438300
-10.667600 10.141800
-10.653900 10.325600
-10.640200 10.509300
-10.626500 10.700100
-10.612800 10.896500
-10.599100 11.092300
-10.585400 11.420100
-10.571800 12.318700
-10.558100 13.217300
-10.544400 14.116000
-10.530700 15.014600
-10.517000 15.914600
-10.503300 16.834600
-10.489600 16.731900
-10.475900 16.104400
-10.462200 16.464200
-10.448600 16.825100
-10.434900 17.186100
-10.421200 17.547000
-10.407500 17.908000
-10.393800 18.666600
-10.380100 20.216300
-10.366400 21.675600
-10.352700 23.431600
-10.339000 25.447700
-10.325300 27.262400
-10.311700 26.764800
-10.298000 27.915400
-10.284300 31.847400
-10.270600 32.877300
-10.256900 37.959600
-10.243200 38.878100
-10.229500 39.794000
-10.215800 40.709900
-10.202100 46.394500
-10.188500 45.821600
-10.174800 44.562700
-10.161100 45.264900
-10.147400 46.583800
-10.133700 53.075800
-10.120000 52.829500
-10.106300 49.039900
-10.092600 49.925600
-10.078900 48.226900
-10.065200 40.648500
-10.051600 53.327300
-10.037900 52.803300
-10.024200 37.168500
-10.010500 37.728900
-9.996800 60.947700
-9.983100 70.367600
-9.969400 49.852300
-9.955700 54.523100
-9.942000 78.172500
-9.928400 117.146100
-9.914700 76.913600
-9.901000 0.000000
-9.887300 0.000000
-9.873600 0.000000
-9.859900 0.000000
-9.846200 0.000000
-9.832500 0.000000
-9.818800 0.000000
-9.805100 0.000000
-9.791500 0.000000
-9.777800 0.000000
-9.764100 0.000000
-9.750400 0.000000
-9.736700 0.000000
-9.723000 0.000000
-9.709300 0.000000
-9.695600 0.000000
-9.681900 0.000000
-9.668300 0.000000
-9.654600 0.000000
-9.640900 0.000000
-9.627200 0.000000
-9.613500 0.000000
-9.599800 0.000000
-9.586100 0.000000
-9.572400 0.000000
-9.558700 0.000000
-9.545000 0.000000
-9.531400 0.000000
-9.517700 0.000000
-9.504000 0.000000
-9.490300 0.000000
-9.476600 0.000000
-9.462900 0.000000
-9.449200 0.000000
-9.435500 0.000000
-9.421800 0.000000
-9.408200 0.000000
-9.394500 0.000000
-9.380800 0.000000
-9.367100 0.000000
-9.353400 0.000000
-9.339700 0.000000
-9.326000 0.000000
-9.312300 0.000000
-9.298600 0.000000
-9.285000 0.000000
-9.271300 0.000000
-9.257600 0.000000
-9.243900 0.000000
-9.230200 0.000000
-9.216500 0.000000
-9.202800 0.000000
-9.189100 0.000000
-9.175400 0.000000
-9.161700 0.000000
-9.148100 0.000000
-9.134400 0.000000
-9.120700 0.000000
-9.107000 0.000000
-9.093300 0.000000
-9.079600 0.000000
-9.065900 0.000000
-9.052200 0.000000
-9.038500 0.000000
-9.024900 0.000000
-9.011200 0.000000
-8.997500 0.000000
-8.983800 0.000000
-8.970100 0.000000
-8.956400 0.000000
-8.942700 0.000000
-8.929000 0.000000
-8.915300 0.000000
-8.901600 0.000000
-8.888000 0.000000
-8.874300 0.000000
-8.860600 0.000000
-8.846900 0.000000
-8.833200 0.000000
-8.819500 0.000000
-8.805800 0.000000
-8.792100 0.000000
-8.778400 0.000000
-8.764800 0.000000
-8.751100 0.000000
-8.737400 0.000000
-8.723700 0.000000
-8.710000 0.000000
-8.696300 0.000000
-8.682600 0.000000
-8.668900 0.000000
-8.655200 0.000000
-8.641500 0.000000
-8.627900 0.000000
-8.614200 0.000000
-8.600500 0.000000
-8.586800 0.000000
-8.573100 0.000000
-8.559400 0.000000
-8.545700 0.000000
-8.532000 0.000000
-8.518300 0.000000
-8.504700 0.000000
-8.491000 0.000000
-8.477300 0.000000
-8.463600 0.000000
-8.449900 0.000000
-8.436200 0.000000
-8.422500 0.000000
-8.408800 0.000000
-8.395100 0.000000
-8.381500 0.000000
-8.367800 0.000000
-8.354100 0.000000
-8.340400 0.000000
-8.326700 0.000000
-8.313000 0.000000
-8.299300 0.000000
-8.285600 0.000000
-8.271900 0.000000
-8.258200 0.000000
-8.244600 0.000000
-8.230900 0.000000
-8.217200 0.000000
-8.203500 0.000000
-8.189800 0.000000
-8.176100 0.000000
-8.162400 0.000000
-8.148700 0.000000
-8.135000 0.000000
-8.121400 0.000000
-8.107700 0.000000
-8.094000 0.000000
-8.080300 0.000000
-8.066600 0.000000
-8.052900 0.000000
-8.039200 0.000000
-8.025500 0.000000
-8.011800 0.000000
-7.998100 0.000000
-7.984500 0.000000
-7.970800 0.000000
-7.957100 0.000000
-7.943400 0.000000
-7.929700 0.000000
-7.916000 0.000000
-7.902300 0.000000
-7.888600 0.000000
-7.874900 0.000000
-7.861300 0.000000
-7.847600 0.000000
-7.833900 0.000000
-7.820200 0.000000
-7.806500 0.000000
-7.792800 0.000000
-7.779100 0.000000
-7.765400 0.000000
-7.751700 0.000000
-7.738000 0.000000
-7.724400 0.000000
-7.710700 0.000000
-7.697000 0.000000
-7.683300 0.000000
-7.669600 0.000000
-7.655900 0.000000
-7.642200 0.000000
-7.628500 0.000000
-7.614800 0.000000
-7.601200 0.000000
-7.587500 0.000000
-7.573800 0.000000
-7.560100 0.000000
-7.546400 0.000000
-7.532700 0.000000
-7.519000 0.000000
-7.505300 0.000000
-7.491600 0.000000
-7.477900 0.000000
-7.464300 0.000000
-7.450600 0.000000
-7.436900 0.000000
-7.423200 0.000000
-7.409500 0.000000
-7.395800 0.000000
-7.382100 0.000000
-7.368400 0.000000
-7.354700 0.000000
-7.341100 0.000000
-7.327400 0.000000
-7.313700 0.000000
-7.300000 0.000000
-7.286300 0.000000
-7.272600 0.000000
-7.258900 0.000000
-7.245200 0.000000
-7.231500 0.000000
-7.217900 0.000000
-7.204200 0.000000
-7.190500 0.000000
-7.176800 0.000000
-7.163100 0.000000
-7.149400 0.000000
-7.135700 0.000000
-7.122000 0.000000
-7.108300 0.000000
-7.094600 0.000000
-7.081000 0.000000
-7.067300 0.000000
-7.053600 0.000000
-7.039900 0.000000
-7.026200 0.000000
-7.012500 0.000000
-6.998800 0.000000
-6.985100 0.000000
-6.971400 0.000000
-6.957800 0.000000
-6.944100 0.000000
-6.930400 0.000000
-6.916700 0.000000
-6.903000 0.000000
-6.889300 0.000000
-6.875600 0.000000
-6.861900 0.000000
-6.848200 0.000000
-6.834500 0.000000
-6.820900 0.000000
-6.807200 0.000000
-6.793500 0.000000
-6.779800 0.000000
-6.766100 0.000000
-6.752400 0.000000
-6.738700 0.000000
-6.725000 0.000000
-6.711300 0.000000
-6.697700 0.000000
-6.684000 0.000000
-6.670300 0.000000
-6.656600 0.000000
-6.642900 0.000000
-6.629200 0.000000
-6.615500 0.000000
-6.601800 0.000000
-6.588100 0.000000
-6.574400 0.000000
-6.560800 0.000000
-6.547100 0.000000
-6.533400 0.000000
-6.519700 0.000000
-6.506000 0.000000
-6.492300 0.000000
-6.478600 0.000000
-6.464900 0.000000
-6.451200 0.000000
-6.437600 0.000000
-6.423900 0.000000
-6.410200 0.000000
-6.396500 0.000000
-6.382800 0.000000
-6.369100 0.000000
-6.355400 0.000000
-6.341700 0.000000
-6.328000 0.000000
-6.314400 0.000000
-6.300700 0.000000
-6.287000 0.000000
-6.273300 0.000000
-6.259600 0.000000
-6.245900 0.000000
-6.232200 0.000000
-6.218500 0.000000
-6.204800 0.000000
-6.191100 0.000000
-6.177500 0.000000
-6.163800 0.000000
-6.150100 0.000000
-6.136400 0.000000
-6.122700 0.000000
-6.109000 0.000000
-6.095300 0.000000
-6.081600 0.000000
-6.067900 0.000000
-6.054300 0.000000
-6.040600 0.000000
-6.026900 0.000000
-6.013200 0.000000
-5.999500 0.000000
-5.985800 0.000000
-5.972100 0.000000
-5.958400 0.000000
-5.944700 0.000000
-5.931000 0.000000
-5.917400 0.000000
-5.903700 0.000000
-5.890000 0.000000
-5.876300 0.000000
-5.862600 0.000000
-5.848900 0.000000
-5.835200 0.000000
-5.821500 0.000000
-5.807800 0.000000
-5.794200 0.000000
-5.780500 0.000000
-5.766800 0.000000
-5.753100 0.000000
-5.739400 0.000000
-5.725700 0.000000
-5.712000 0.000000
-5.698300 0.000000
-5.684600 0.000000
-5.670900 0.000000
-5.657300 0.000000
-5.643600 0.000000
-5.629900 0.000000
-5.616200 0.000000
-5.602500 0.000000
-5.588800 0.000000
-5.575100 0.000000
-5.561400 0.000000
-5.547700 0.000000
-5.534100 0.000000
-5.520400 0.000000
-5.506700 0.000000
-5.493000 0.000000
-5.479300 0.000000
-5.465600 0.000000
-5.451900 0.000000
-5.438200 0.000000
-5.424500 0.000000
-5.410800 0.000000
-5.397200 0.000000
-5.383500 0.000000
-5.369800 0.000000
-5.356100 0.000000
-5.342400 0.000000
-5.328700 0.000000
-5.315000 0.000000
-5.301300 0.000000
-5.287600 0.000000
-5.274000 0.000000
-5.260300 0.000000
-5.246600 0.000000
-5.232900 0.000000
-5.219200 0.000000
-5.205500 0.000000
-5.191800 0.000000
-5.178100 0.000000
-5.164400 0.000000
-5.150800 0.000000
-5.137100 0.000000
-5.123400 0.000000
-5.109700 0.000000
-5.096000 0.000000
-5.082300 0.000000
-5.068600 0.000000
-5.054900 0.000000
-5.041200 0.000000
-5.027500 0.000000
-5.013900 0.000000
-5.000200 0.000000
-4.986500 0.000000
-4.972800 0.000000
-4.959100 0.000000
-4.945400 0.000000
-4.931700 0.000000
-4.918000 0.000000
-4.904300 0.000000
-4.890700 0.000000
-4.877000 0.000000
-4.863300 0.000000
-4.849600 0.000000
-4.835900 0.000000
-4.822200 0.000000
-4.808500 0.000000
-4.794800 0.000000
-4.781100 0.000000
-4.767400 0.000000
-4.753800 0.000000
-4.740100 0.000000
-4.726400 0.000000
-4.712700 0.000000
-4.699000 0.000000
-4.685300 0.000000
-4.671600 0.000000
-4.657900 0.000000
-4.644200 0.000000
-4.630600 0.000000
-4.616900 0.000000
-4.603200 0.000000
-4.589500 0.000000
-4.575800 0.000000
-4.562100 0.000000
-4.548400 0.000000
-4.534700 0.000000
-4.521000 0.000000
-4.507300 0.000000
-4.493700 0.000000
-4.480000 0.000000
-4.466300 0.000000
-4.452600 0.000000
-4.438900 0.000000
-4.425200 0.000000
-4.411500 18.428600
-4.397800 32.334000
-4.384100 81.209800
-4.370500 175.389600
-4.356800 182.315200
-4.343100 217.380500
-4.329400 248.963100
-4.315700 258.439300
-4.302000 285.692600
-4.288300 351.903600
-4.274600 375.786600
-4.260900 363.349600
-4.247200 254.018600
-4.233600 255.677900
-4.219900 210.723100
-4.206200 202.272300
-4.192500 174.072500
-4.178800 152.715400
-4.165100 166.936000
-4.151400 154.424200
-4.137700 168.099000
-4.124000 341.647800
-4.110400 153.081700
-4.096700 141.200700
-4.083000 138.738700
-4.069300 121.342200
-4.055600 110.291000
-4.041900 99.737700
-4.028200 56.924600
-4.014500 159.888000
-4.000800 101.386800
-3.987200 57.547600
-3.973500 99.732500
-3.959800 125.881300
-3.946100 352.184700
-3.932400 391.257500
-3.918700 477.909000
-3.905000 481.018300
-3.891300 382.363000
-3.877600 327.533700
-3.863900 192.951500
-3.850300 116.811100
-3.836600 101.181500
-3.822900 87.483200
-3.809200 82.784400
-3.795500 80.911800
-3.781800 77.693600
-3.768100 72.397200
-3.754400 65.053700
-3.740700 112.722600
-3.727100 43.372900
-3.713400 45.555000
-3.699700 62.252500
-3.686000 82.618500
-3.672300 37.614800
-3.658600 51.204500
-3.644900 78.944100
-3.631200 59.310700
-3.617500 54.611400
-3.603800 43.066600
-3.590200 27.717200
-3.576500 13.633500
-3.562800 0.000000
-3.549100 0.000000
-3.535400 0.000000
-3.521700 0.000000
-3.508000 0.000000
-3.494300 0.000000
-3.480600 0.000000
-3.467000 0.000000
-3.453300 0.000000
-3.439600 0.000000
-3.425900 0.000000
-3.412200 0.000000
-3.398500 0.000000
-3.384800 0.000000
-3.371100 0.000000
-3.357400 0.000000
-3.343700 0.000000
-3.330100 0.000000
-3.316400 0.000000
-3.302700 0.000000
-3.289000 0.000000
-3.275300 0.000000
-3.261600 0.000000
-3.247900 0.000000
-3.234200 0.072500
-3.220500 0.169600
-3.206900 0.266800
-3.193200 0.363900
-3.179500 0.461000
-3.165800 0.558100
-3.152100 0.655200
-3.138400 0.752300
-3.124700 0.849400
-3.111000 0.946600
-3.097300 1.043700
-3.083700 1.140800
-3.070000 1.237900
-3.056300 0.859400
-3.042600 0.881700
-3.028900 2.256800
-3.015200 3.735200
-3.001500 5.213600
-2.987800 8.238600
-2.974100 5.887100
-2.960400 7.757400
-2.946800 4.401700
-2.933100 4.608200
-2.919400 4.814700
-2.905700 5.021100
-2.892000 5.227600
-2.878300 5.434100
-2.864600 5.849100
-2.850900 9.470900
-2.837200 13.603900
-2.823600 12.546600
-2.809900 19.607400
-2.796200 13.586600
-2.782500 16.301300
-2.768800 17.634400
-2.755100 19.320900
-2.741400 21.007500
-2.727700 22.716200
-2.714000 25.576100
-2.700300 27.871900
-2.686700 29.993900
-2.673000 26.396500
-2.659300 26.896800
-2.645600 27.397100
-2.631900 33.669100
-2.618200 25.575500
-2.604500 25.739800
-2.590800 29.680900
-2.577100 39.137300
-2.563500 32.658100
-2.549800 45.236500
-2.536100 29.481300
-2.522400 17.593000
-2.508700 13.638000
-2.495000 17.841200
-2.481300 12.764100
-2.467600 22.884800
-2.453900 13.519200
-2.440200 13.643500
-2.426600 13.767700
-2.412900 13.892000
-2.399200 14.016200
-2.385500 14.140500
-2.371800 13.569700
-2.358100 14.580700
-2.344400 16.430200
-2.330700 19.904400
-2.317000 23.378500
-2.303400 12.827200
-2.289700 12.806400
-2.276000 12.785700
-2.262300 12.765000
-2.248600 12.744300
-2.234900 12.723500
-2.221200 12.702800
-2.207500 12.682100
-2.193800 12.777100
-2.180100 14.529100
-2.166500 18.387000
-2.152800 23.096700
-2.139100 28.164000
-2.125400 24.240700
-2.111700 26.692100
-2.098000 24.839800
-2.084300 10.302200
-2.070600 10.395600
-2.056900 10.489000
-2.043300 9.681300
-2.029600 9.696300
-2.015900 9.711200
-2.002200 9.726200
-1.988500 9.741200
-1.974800 9.756200
-1.961100 9.771200
-1.947400 8.686000
-1.933700 8.576300
-1.920100 8.466500
-1.906400 8.356800
-1.892700 8.058500
-1.879000 7.796800
-1.865300 7.744200
-1.851600 7.702600
-1.837900 7.661100
-1.824200 7.619600
-1.810500 7.578000
-1.796800 7.536500
-1.783200 7.494900
-1.769500 7.453400
-1.755800 7.411800
-1.742100 7.370300
-1.728400 7.328700
-1.714700 7.287200
-1.701000 7.245600
-1.687300 7.204100
-1.673600 7.032800
-1.660000 7.000300
-1.646300 6.967800
-1.632600 6.814400
-1.618900 6.793900
-1.605200 6.773400
-1.591500 6.750200
-1.577800 6.723000
-1.564100 6.696000
-1.550400 6.505800
-1.536700 6.496000
-1.523100 6.486200
-1.509400 6.476400
-1.495700 6.466500
-1.482000 6.456700
-1.468300 7.131700
-1.454600 7.182600
-1.440900 7.233500
-1.427200 7.284500
-1.413500 7.335400
-1.399900 7.386300
-1.386200 7.437200
-1.372500 7.488200
-1.358800 18.124300
-1.345100 5.454500
-1.331400 5.493100
-1.317700 5.531800
-1.304000 5.570400
-1.290300 5.609100
-1.276600 6.253500
-1.263000 6.361300
-1.249300 6.469000
-1.235600 6.574700
-1.221900 6.678700
-1.208200 7.427300
-1.194500 7.612500
-1.180800 7.797600
-1.167100 7.983000
-1.153400 15.484400
-1.139800 21.920900
-1.126100 16.673400
-1.112400 10.132300
-1.098700 8.490000
-1.085000 8.561100
-1.071300 8.632200
-1.057600 8.703300
-1.043900 9.465600
-1.030200 9.566600
-1.016600 10.291200
-1.002900 10.425200
-0.989200 10.559200
-0.975500 11.222600
-0.961800 13.284100
-0.948100 14.656800
-0.934400 16.029600
-0.920700 17.526100
-0.907000 20.689400
-0.893300 19.994900
-0.879700 19.300300
-0.866000 18.605700
-0.852300 17.935500
-0.838600 19.836100
-0.824900 13.006300
-0.811200 11.852400
-0.797500 12.642400
-0.783800 12.601000
-0.770100 12.561600
-0.756500 12.522200
-0.742800 13.299800
-0.729100 13.280500
-0.715400 13.261100
-0.701700 14.003800
-0.688000 14.019500
-0.674300 14.273200
-0.660600 14.583600
-0.646900 14.904800
-0.633200 15.226000
-0.619600 15.696100
-0.605900 17.611600
-0.592200 20.565400
-0.578500 24.045600
-0.564800 28.030000
-0.551100 32.719200
-0.537400 34.808400
-0.523700 31.809000
-0.510000 28.837800
-0.496400 25.878200
-0.482700 22.950800
-0.469000 19.920500
-0.455300 17.703100
-0.441600 17.181500
-0.427900 16.759300
-0.414200 17.637900
-0.400500 17.241200
-0.386800 17.044900
-0.373100 17.127800
-0.359500 17.387300
-0.345800 17.755400
-0.332100 19.254000
-0.318400 19.702000
-0.304700 20.150100
-0.291000 21.669700
-0.277300 22.208600
-0.263600 22.747500
-0.249900 24.439100
-0.236300 24.933200
-0.222600 25.321800
-0.208900 25.610100
-0.195200 25.348800
-0.181500 24.789500
-0.167800 24.887900
-0.154100 24.867500
-0.140400 24.253100
-0.126700 23.470800
-0.113000 22.557800
-0.099400 22.581200
-0.085700 22.604600
-0.072000 22.627900
-0.058300 23.945500
-0.044600 23.818400
-0.030900 23.487600
-0.017200 23.368000
-0.003500 23.248300
0.010200 23.241600
0.023800 21.881100
0.037500 21.738600
0.051200 21.778700
0.064900 24.092800
0.078600 25.225300
0.092300 25.288800
0.106000 25.352400
0.119700 25.284600
0.133400 25.015600
0.147000 24.882100
0.160700 24.764000
0.174400 24.646000
0.188100 26.159300
0.201800 26.020800
0.215500 25.875800
0.229200 25.804800
0.242900 25.761300
0.256600 25.049600
0.270300 23.321500
0.283900 23.175800
0.297600 22.797700
0.311300 24.799400
0.325000 26.171200
0.338700 26.081800
0.352400 27.642900
0.366100 27.689700
0.379800 27.617100
0.393500 27.558800
0.407100 27.736500
0.420800 28.077500
0.434500 30.738400
0.448200 30.737100
0.461900 30.870700
0.475600 30.984500
0.489300 31.138900
0.503000 31.313300
0.516700 33.113400
0.530400 32.910200
0.544000 29.956500
0.557700 31.595800
0.571400 30.432700
0.585100 29.137800
0.598800 28.125200
0.612500 28.018400
0.626200 27.964400
0.639900 28.259700
0.653600 28.250600
0.667200 29.874600
0.680900 31.389100
0.694600 31.330900
0.708300 31.136600
0.722000 31.003200
0.735700 30.867000
0.749400 30.952800
0.763100 30.804800
0.776800 30.647700
0.790500 30.446300
0.804100 30.107700
0.817800 28.219100
0.831500 27.664600
0.845200 27.763900
0.858900 28.022100
0.872600 27.180600
0.886300 27.033000
0.900000 26.878800
0.913700 26.747200
0.927300 26.550800
0.941000 26.428000
0.954700 25.388900
0.968400 25.243500
0.982100 25.098000
0.995800 24.952100
1.009500 23.948800
1.023200 22.434700
1.036900 22.043500
1.050500 21.660800
1.064200 21.278500
1.077900 20.898300
1.091600 19.602300
1.105300 18.939200
1.119000 18.457100
1.132700 17.951900
1.146400 17.445800
1.160100 16.939800
1.173800 16.433800
1.187400 15.936800
1.201100 15.479100
1.214800 15.028200
1.228500 14.583700
1.242200 14.407200
1.255900 13.897100
1.269600 13.460300
1.283300 13.023500
1.297000 12.824600
1.310600 12.436100
1.324300 11.993600
1.338000 11.552900
1.351700 11.145500
1.365400 10.762700
1.379100 10.418800
1.392800 10.074800
1.406500 9.745000
1.420200 9.422900
1.433900 9.107700
1.447500 8.795100
1.461200 8.499900
1.474900 8.204700
1.488600 7.909500
1.502300 7.614200
1.516000 8.433600
1.529700 8.244500
1.543400 7.923700
1.557100 7.895600
1.570700 7.559200
1.584400 7.222800
1.598100 6.886400
1.611800 6.550100
1.625500 6.213700
1.639200 5.877300
1.652900 5.540900
1.666600 6.018400
1.680300 6.237200
1.694000 6.032600
1.707600 5.496700
1.721300 5.067400
1.735000 4.882000
1.748700 4.330800
1.762400 3.779500
1.776100 3.228200
1.789800 2.676900
1.803500 2.125700
1.817200 1.574400
1.830800 1.038300
1.844500 0.660500
1.858200 0.393400
1.871900 0.166500
1.885600 0.000000
1.899300 0.000000
1.913000 0.000000
1.926700 0.000000
1.940400 0.000000
1.954100 0.000000
1.967700 0.000000
1.981400 0.000000
1.995100 0.000000
2.008800 0.000000
2.022500 0.000000
2.036200 0.000000
2.049900 0.000000
2.063600 0.000000
2.077300 0.000000
2.090900 0.000000
2.104600 0.000000
2.118300 0.000000
2.132000 0.000000
2.145700 0.000000
2.159400 0.000000
2.173100 0.000000
2.186800 0.000000
2.200500 0.000000
2.214100 0.000000
2.227800 0.000000
2.241500 0.000000
2.255200 0.000000
2.268900 0.000000
2.282600 0.000000
2.296300 0.000000
2.310000 0.000000
2.323700 0.000000
2.337400 0.000000
2.351000 0.000000
2.364700 0.000000
2.378400 0.000000
2.392100 0.000000
2.405800 0.000000
2.419500 0.000000
2.433200 0.000000
2.446900 0.000000
2.460600 0.000000
2.474200 0.000000
2.487900 0.000000
2.501600 0.000000
2.515300 0.000000
2.529000 0.000000
2.542700 0.000000
2.556400 0.000000
2.570100 0.000000
2.583800 0.000000
2.597500 0.000000
2.611100 0.000000
2.624800 0.000000
2.638500 0.000000
2.652200 0.000000
2.665900 0.000000
2.679600 0.000000
2.693300 0.000000
2.707000 0.000000
2.720700 0.000000
2.734300 0.000000
2.748000 0.000000
2.761700 0.000000
2.775400 0.000000
2.789100 0.000000
2.802800 0.000000
2.816500 0.000000
2.830200 0.000000
2.843900 0.000000
2.857600 0.000000
2.871200 0.000000
2.884900 0.000000
2.898600 0.000000
2.912300 0.000000
2.926000 0.000000
2.939700 0.000000
2.953400 0.000000
2.967100 0.000000
2.980800 0.000000
2.994400 0.000000
3.008100 0.000000
3.021800 0.000000
3.035500 0.000000
3.049200 0.000000
3.062900 0.000000
3.076600 0.000000
3.090300 0.000000
3.104000 0.000000
3.117600 0.000000
3.131300 0.000000
3.145000 0.000000
3.158700 0.000000
3.172400 0.000000
3.186100 0.000000
3.199800 0.000000
3.213500 0.000000
3.227200 0.000000
3.240900 0.000000
3.254500 0.000000
3.268200 0.000000
3.281900 0.000000
3.295600 0.000000
3.309300 0.000000
3.323000 0.000000
3.336700 0.000000
3.350400 0.000000
3.364100 0.000000
3.377700 0.000000
3.391400 0.000000
3.405100 0.000000
3.418800 0.000000
3.432500 0.000000
3.446200 0.000000
3.459900 0.000000
3.473600 0.000000
3.487300 0.000000
3.501000 0.000000
3.514600 0.000000
3.528300 0.000000
3.542000 0.000000
3.555700 0.000000
3.569400 0.000000
3.583100 0.000000
3.596800 0.000000
3.610500 0.000000
3.624200 0.000000
3.637800 0.000000
3.651500 0.000000
3.665200 0.000000
3.678900 0.000000
3.692600 0.000000
3.706300 0.000000
3.720000 0.000000
3.733700 0.000000
3.747400 0.000000
3.761100 0.000000
3.774700 0.000000
3.788400 0.000000
3.802100 0.000000
3.815800 0.000000
3.829500 0.000000
3.843200 0.000000
3.856900 0.000000
3.870600 0.000000
3.884300 0.000000
3.897900 0.000000
3.911600 0.000000
3.925300 0.000300
3.939000 0.004200
3.952700 0.008100
3.966400 0.011900
3.980100 0.015800
3.993800 0.019700
4.007500 0.023500
4.021200 0.027400
4.034800 0.031300
4.048500 0.035100
4.062200 0.039000
4.075900 0.042800
4.089600 0.046700
4.103300 0.050600
4.117000 0.054400
4.130700 0.058300
4.144400 0.062200
4.158000 0.066000
4.171700 0.069900
4.185400 0.073700
4.199100 0.077600
4.212800 0.081500
4.226500 0.085300
4.240200 0.089200
4.253900 0.093100
4.267600 0.096900
4.281200 0.101200
4.294900 0.110700
4.308600 0.120300
4.322300 0.129800
4.336000 0.141200
4.349700 0.156500
4.363400 0.171700
4.377100 0.186900
4.390800 0.202100
4.404500 0.217300
4.418100 0.232600
4.431800 0.247800
4.445500 0.263000
4.459200 0.278200
4.472900 0.293400
4.486600 0.308700
4.500300 0.323900
4.514000 0.339100
4.527700 0.354300
4.541300 0.369500
4.555000 0.384800
4.568700 0.400000
4.582400 0.415200
4.596100 0.430400
4.609800 0.445600
4.623500 0.460900
4.637200 0.476100
4.650900 0.491300
4.664600 0.506500
4.678200 0.521700
4.691900 0.537000
4.705600 0.552200
4.719300 0.567400
4.733000 0.582600
4.746700 0.597800
4.760400 0.613100
4.774100 0.628300
4.787800 0.643500
4.801400 0.658700
4.815100 0.673900
4.828800 0.689200
4.842500 0.704400
4.856200 0.726600
4.869900 0.747300
4.883600 0.767900
4.897300 0.788600
4.911000 0.809200
4.924700 0.838000
4.938300 0.875500
4.952000 0.913000
4.965700 0.950500
4.979400 0.990000
4.993100 1.032800
5.006800 1.075600
5.020500 1.118400
5.034200 1.161200
5.047900 1.210900
5.061500 1.263000
5.075200 1.315000
5.088900 1.367100
5.102600 1.428400
5.116300 1.493700
5.130000 1.560300
5.143700 1.626900
5.157400 1.693500
5.171100 1.760100
5.184800 1.826600
5.198400 1.893200
5.212100 1.959800
5.225800 2.033100
5.239500 2.646100
5.253200 2.784300
5.266900 2.922400
5.280600 3.065300
5.294300 3.209100
5.308000 3.925200
5.321600 4.141400
5.335300 4.359300
5.349000 4.577100
5.362700 4.799200
5.376400 5.022500
5.390100 5.245800
5.403800 5.973500
5.417500 6.200400
5.431200 6.402700
5.444800 6.605000
5.458500 6.807200
5.472200 7.569900
5.485900 7.755400
5.499600 7.925600
5.513300 8.095800
5.527000 8.266000
5.540700 8.436200
5.554400 9.476100
5.568100 9.760600
5.581700 10.614700
5.595400 10.933100
5.609100 11.251500
5.622800 11.569800
5.636500 11.888200
5.650200 12.206600
5.663900 12.869900
5.677600 13.221000
5.691300 13.550100
5.704900 13.879100
5.718600 14.208200
5.732300 14.551800
5.746000 14.905400
5.759700 15.174400
5.773400 15.958700
5.787100 16.357600
5.800800 17.166400
5.814500 17.628100
5.828200 18.089700
5.841800 18.472000
5.855500 18.832600
5.869200 19.158300
5.882900 19.479300
5.896600 20.459200
5.910300 20.973100
5.924000 21.393800
5.937700 21.050300
5.951400 21.387400
5.965000 20.964400
5.978700 21.236700
5.992400 22.007900
6.006100 21.197900
6.019800 27.003600
6.033500 20.301300
6.047200 20.749200
6.060900 20.862100
6.074600 20.949500
6.088300 21.087200
6.101900 21.136900
6.115600 21.613500
6.129300 21.698600
6.143000 21.779500
6.156700 21.817700
6.170400 21.833700
6.184100 21.849700
6.197800 21.851400
6.211500 21.786500
6.225100 21.721500
6.238800 21.698700
6.252500 21.742400
6.266200 21.676000
6.279900 25.014200
6.293600 24.598200
6.307300 23.290500
6.321000 22.442500
6.334700 20.989500
6.348300 20.158500
6.362000 19.967800
6.375700 26.455700
6.389400 23.368900
6.403100 23.212100
6.416800 22.730100
6.430500 22.224900
6.444200 21.726800
6.457900 21.279600
6.471600 20.832300
6.485200 20.385000
6.498900 19.510400
6.512600 18.732900
6.526300 18.519900
6.540000 18.347600
6.553700 16.855500
6.567400 16.926200
6.581100 16.996900
6.594800 17.067700
6.608400 17.233700
6.622100 17.458800
6.635800 27.113800
6.649500 22.969700
6.663200 18.810800
6.676900 27.646800
6.690600 22.116000
6.704300 17.509500
6.718000 17.102000
6.731700 20.772000
6.745300 18.896100
6.759000 17.763100
6.772700 16.089700
6.786400 15.319400
6.800100 14.549100
6.813800 18.442600
6.827500 20.878100
6.841200 18.063300
6.854900 19.079400
6.868500 16.849200
6.882200 15.417300
6.895900 13.409700
6.909600 12.187400
6.923300 11.004400
6.937000 10.279500
6.950700 10.847000
6.964400 10.604800
6.978100 10.362700
6.991800 11.480400
7.005400 11.310500
7.019100 10.404100
7.032800 10.316500
7.046500 11.400600
7.060200 11.205900
7.073900 11.011200
7.087600 10.816500
7.101300 10.621800
7.115000 10.427100
7.128600 10.232400
7.142300 10.037700
7.156000 9.297100
7.169700 11.156800
7.183400 11.702400
7.197100 11.471400
7.210800 10.483600
7.224500 10.083500
7.238200 9.683300
7.251900 9.283200
7.265500 8.883100
7.279200 9.062500
7.292900 10.374200
7.306600 11.685900
7.320300 22.332300
7.334000 22.114000
7.347700 17.051800
7.361400 15.461300
7.375100 13.934500
7.388700 12.178500
7.402400 10.038400
7.416100 9.948900
7.429800 9.859400
7.443500 9.769900
7.457200 15.874900
7.470900 15.392000
7.484600 14.909200
7.498300 14.426300
7.511900 13.966700
7.525600 14.019500
7.539300 14.326800
7.553000 14.634000
7.566700 14.905400
7.580400 15.522500
7.594100 16.139700
7.607800 16.721800
7.621500 17.247600
7.635200 17.711000
7.648800 18.136900
7.662500 18.189600
7.676200 17.899800
7.689900 16.936500
7.703600 16.492900
7.717300 15.710100
7.731000 15.289000
7.744700 15.111100
7.758400 19.583100
7.772000 25.970000
7.785700 21.763700
7.799400 21.104700
7.813100 26.013300
7.826800 25.534000
7.840500 24.034300
7.854200 22.788100
7.867900 22.221400
7.881600 21.842700
7.895300 21.474800
7.908900 20.422700
7.922600 19.541700
7.936300 18.841600
7.950000 18.141600
7.963700 17.441500
7.977400 16.772300
7.991100 16.168800
8.004800 15.627900
8.018500 14.859500
8.032100 15.498500
8.045800 18.013700
8.059500 20.440200
8.073200 21.959300
8.086900 23.502800
8.100600 22.676200
8.114300 21.111300
8.128000 21.209800
8.141700 17.598400
8.155400 17.666300
8.169000 17.740400
8.182700 14.622500
8.196400 12.117400
8.210100 11.944100
8.223800 11.770700
8.237500 11.607700
8.251200 11.464300
8.264900 15.394500
8.278600 14.446400
8.292200 13.669700
8.305900 12.920700
8.319600 14.253800
8.333300 15.038100
8.347000 15.822400
8.360700 15.570500
8.374400 15.157300
8.388100 13.959000
8.401800 13.612300
8.415400 13.446900
8.429100 13.732000
8.442800 14.249800
8.456500 15.202500
8.470200 16.211500
8.483900 17.615600
8.497600 14.213600
8.511300 14.532700
8.525000 10.921300
8.538700 10.630200
8.552300 10.830600
8.566000 12.226800
8.579700 10.891500
8.593400 12.119000
8.607100 12.212600
8.620800 12.385900
8.634500 12.559100
8.648200 14.823700
8.661900 16.404700
8.675500 16.359900
8.689200 16.148800
8.702900 15.328800
8.716600 13.113400
8.730300 13.757200
8.744000 15.309500
8.757700 15.763400
8.771400 16.361000
8.785100 18.570100
8.798800 21.209100
8.812400 24.264300
8.826100 25.726000
8.839800 27.845500
8.853500 27.508600
8.867200 25.760900
8.880900 26.331500
8.894600 27.163900
8.908300 27.906100
8.922000 26.166100
8.935600 27.055700
8.949300 27.241500
8.963000 27.404400
8.976700 28.208200
8.990400 29.929300
9.004100 31.340500
9.017800 28.899900
9.031500 24.149900
9.045200 19.010000
9.058900 15.355100
9.072500 15.409500
9.086200 16.326200
9.099900 16.177700
9.113600 16.053500
9.127300 15.433400
9.141000 17.582300
9.154700 19.504100
9.168400 20.013000
9.182100 19.844300
9.195700 19.803300
9.209400 20.256900
9.223100 20.303600
9.236800 20.455400
9.250500 20.611300
9.264200 20.767200
9.277900 20.923000
9.291600 22.591500
9.305300 21.023800
9.319000 22.180700
9.332600 22.460900
9.346300 22.573800
9.360000 24.126200
9.373700 24.273900
9.387400 21.912700
9.401100 22.397200
9.414800 22.787000
9.428500 22.973700
9.442200 23.160400
9.455800 26.401300
9.469500 33.367000
9.483200 23.405000
9.496900 22.146000
9.510600 22.931400
9.524300 48.899600
9.538000 17.832600
9.551700 18.197100
9.565400 18.448000
9.579000 18.698900
9.592700 18.949800
9.606400 19.479000
9.620100 19.666600
9.633800 23.091700
9.647500 22.127300
9.661200 21.162900
9.674900 20.281700
9.688600 18.169600
9.702300 17.239100
9.715900 17.225100
9.729600 17.341400
9.743300 17.457600
9.757000 15.150000
9.770700 15.116400
9.784400 14.334400
9.798100 14.303000
9.811800 17.408600
9.825500 16.904700
9.839100 16.833300
9.852800 16.370200
9.866500 15.907100
9.880200 15.452300
9.893900 15.420300
9.907600 15.748300
9.921300 15.276300
9.935000 15.433200
9.948700 15.601000
9.962400 15.769000
9.976000 15.937000
9.989700 16.105000
10.003400 16.273100
10.017100 16.441100
10.030800 15.079800
10.044500 15.067400
10.058200 15.055100
10.071900 15.571800
10.085600 15.523300
10.099200 14.853700
10.112900 15.360100
10.126600 15.903200
10.140300 15.852300
10.154000 15.847400
10.167700 15.842500
10.181400 15.837600
10.195100 15.847600
10.208800 15.885500
10.222500 16.575700
10.236100 16.961900
10.249800 18.180200
10.263500 18.526900
10.277200 19.491900
10.290900 21.383400
10.304600 21.017000
10.318300 20.590100
10.332000 20.142300
10.345700 19.694400
10.359300 19.674800
10.373000 19.296100
10.386700 20.431000
10.400400 20.888100
10.414100 20.305100
10.427800 19.829700
10.441500 19.683200
10.455200 19.644100
10.468900 22.757000
10.482500 21.640400
10.496200 20.091800
10.509900 18.710200
10.523600 18.663100
10.537300 18.306500
10.551000 18.063900
10.564700 19.580500
10.578400 18.942400
10.592100 19.185800
10.605800 18.536700
10.619400 24.204400
10.633100 16.784200
10.646800 15.911900
10.660500 20.023300
10.674200 14.828900
10.687900 14.676000
10.701600 14.523100
10.715300 14.370200
10.729000 14.201300
10.742600 14.006900
10.756300 13.812500
10.770000 13.618100
10.783700 14.044000
10.797400 13.805700
10.811100 13.567300
10.824800 13.329000
10.838500 13.090600
10.852200 16.833700
10.865900 22.485100
10.879500 12.898500
10.893200 13.331900
10.906900 13.252400
10.920600 13.172900
10.934300 13.093400
10.948000 13.054300
10.961700 13.552300
10.975400 13.366700
10.989100 13.181100
11.002700 12.995500
11.016400 13.204300
11.030100 13.074200
11.043800 12.944200
11.057500 12.814100
11.071200 13.313300
11.084900 13.187300
11.098600 13.080500
11.112300 14.564700
11.126000 19.112000
11.139600 27.350700
11.153300 12.876200
11.167000 11.600600
11.180700 10.915800
11.194400 10.561400
11.208100 12.176700
11.221800 13.506900
11.235500 14.808800
11.249200 16.097600
11.262800 13.736500
11.276500 13.394900
11.290200 12.712100
11.303900 12.029400
11.317600 11.541900
11.331300 11.066200
11.345000 10.590400
11.358700 10.114600
11.372400 9.847600
11.386100 12.265500
11.399700 11.705700
11.413400 12.484800
11.427100 11.800600
11.440800 11.283800
11.454500 10.767000
11.468200 10.743400
11.481900 10.865100
11.495600 20.034500
11.509300 14.039800
11.522900 10.606900
11.536600 10.995300
11.550300 13.354700
11.564000 12.804300
11.577700 12.421800
11.591400 12.039300
11.605100 11.656700
11.618800 11.274200
11.632500 10.891600
11.646100 10.509100
11.659800 10.126600
11.673500 7.858100
11.687200 7.747700
11.700900 7.663800
11.714600 7.606300
11.728300 7.550900
11.742000 7.495400
11.755700 26.619300
11.769400 11.551500
11.783000 11.060400
11.796700 10.569400
11.810400 10.078300
11.824100 9.587300
11.837800 9.821400
11.851500 10.229800
11.865200 10.640700
11.878900 32.396700
11.892600 13.049600
11.906200 12.972500
11.919900 12.895400
11.933600 12.818300
11.947300 12.741200
11.961000 12.664100
11.974700 12.587000
11.988400 12.509900
12.002100 11.592700
12.015800 10.985400
12.029500 11.171000
12.043100 11.762300
12.056800 12.823900
12.070500 13.044000
12.084200 13.264100
12.097900 13.497600
12.111600 13.731500
12.125300 13.965400
12.139000 14.199300
12.152700 18.105500
12.166300 14.053100
12.180000 10.349100
12.193700 24.391400
12.207400 11.075000
12.221100 10.888800
12.234800 11.659900
12.248500 11.448300
12.262200 11.236700
12.275900 11.025100
12.289600 10.813500
12.303200 10.606400
12.316900 10.553200
12.330600 10.499900
12.344300 10.576100
12.358000 10.660400
12.371700 10.744600
12.385400 10.835700
12.399100 10.933600
12.412800 11.653600
12.426400 11.734900
12.440100 11.816200
12.453800 11.907500
12.467500 12.023300
12.481200 12.150800
12.494900 12.282900
12.508600 18.682400
12.522300 16.078700
12.536000 14.811100
12.549600 14.155100
12.563300 14.010700
12.577000 19.036900
12.590700 17.681900
12.604400 16.327900
12.618100 14.973900
12.631800 15.460500
12.645500 15.254900
12.659200 14.520900
12.672900 17.376400
12.686500 16.401400
12.700200 15.513500
12.713900 14.649300
12.727600 14.514700
12.741300 14.213300
12.755000 13.911900
12.768700 14.858900
12.782400 16.074100
12.796100 17.358000
12.809700 18.727000
12.823400 13.894400
12.837100 14.508500
12.850800 14.786600
12.864500 15.604800
12.878200 16.000500
12.891900 15.834800
12.905600 14.298200
12.919300 14.807000
12.933000 15.315800
12.946600 14.067000
12.960300 14.481300
12.974000 12.508100
12.987700 12.612500
13.001400 11.810200
13.015100 12.098300
13.028800 12.386500
13.042500 10.771100
13.056200 10.987900
13.069800 11.545900
13.083500 10.498800
13.097200 11.451300
13.110900 12.474800
13.124600 13.498300
13.138300 14.522400
13.152000 8.420700
13.165700 10.748600
13.179400 13.081700
13.193100 7.096000
13.206700 7.122600
13.220400 7.151000
13.234100 7.179500
13.247800 7.208000
13.261500 7.236400
13.275200 5.696000
13.288900 5.746900
13.302600 5.797900
13.316300 5.848900
13.329900 5.899900
13.343600 9.238100
13.357300 7.243400
13.371000 5.248600
13.384700 3.253900
13.398400 2.739700
13.412100 2.699500
13.425800 2.659200
13.439500 2.619000
13.453200 2.656100
13.466800 2.704400
13.480500 2.752700
13.494200 2.801000
13.507900 2.849300
13.521600 2.897600
13.535300 2.945900
13.549000 2.994200
13.562700 3.042500
13.576400 1.235600
13.590000 1.227100
13.603700 1.218600
13.617400 1.210000
13.631100 1.201500
13.644800 1.193000
13.658500 1.184400
13.672200 1.175900
13.685900 1.167400
13.699600 1.158900
13.713200 1.150300
13.726900 1.141800
13.740600 1.133300
13.754300 1.124700
13.768000 5.966200
13.781700 3.112800
13.795400 0.259400
13.809100 0.000000
13.822800 0.000000
13.836500 0.000000
13.850100 0.000000
13.863800 0.000000
13.877500 0.000000
13.891200 0.000000
13.904900 0.000000
13.918600 0.000000
13.932300 0.000000
13.946000 0.000000
13.959700 0.000000
13.973300 0.000000
13.987000 0.000000
14.000700 0.000000
14.014400 0.000000
14.028100 0.000000
14.041800 0.000000
14.055500 0.000000
14.069200 0.000000
14.082900 0.000000
14.096600 0.000000
14.110200 0.000000
14.123900 0.000000
14.137600 0.000000
14.151300 0.000000
14.165000 0.000000
14.178700 0.000000
14.192400 0.000000
14.206100 0.000000
14.219800 0.000000
14.233400 0.000000
14.247100 0.000000
14.260800 0.000000
14.274500 0.000000
14.288200 0.000000
14.301900 0.000000
14.315600 0.000000
14.329300 0.000000
14.343000 0.000000
14.356700 0.000000
14.370300 0.000000
14.384000 0.000000
14.397700 0.000000
14.411400 0.000000
14.425100 0.000000
14.438800 0.000000
14.452500 0.000000
14.466200 0.000000
14.479900 0.000000
14.493500 0.000000
14.507200 0.000000
14.520900 0.000000
14.534600 0.000000
14.548300 0.000000
14.562000 0.000000
14.575700 0.000000
14.589400 0.000000
14.603100 0.000000
14.616700 0.000000
14.630400 0.000000
14.644100 0.000000
14.657800 0.000000
14.671500 0.000000
14.685200 0.000000
14.698900 0.000000
14.712600 0.000000
14.726300 0.000000
14.740000 0.000000
14.753600 0.000000
14.767300 0.000000
14.781000 0.000000
14.794700 0.000000
14.808400 0.000000
14.822100 0.000000
14.835800 0.000000
14.849500 0.000000
14.863200 0.000000
14.876800 0.000000
14.890500 0.000000
14.904200 0.000000
14.917900 0.000000
14.931600 0.000000
14.945300 0.000000
14.959000 0.000000
14.972700 0.000000
14.986400 0.000000
15.000100 0.000000
15.013700 0.000000
15.027400 0.000000
15.041100 0.000000
e
