set title 'mp-1096851 - Density of States'
set xlabel 'Energy (eV)'
set ylabel 'DOS (states/eV)'
set grid
set xrange [-10:10]
set yrange [0:2.031]
set xzeroaxis lt -1
set terminal png size 800,600
set output 'mp-1096851_dos_gnuplot.png'
plot '-' using 1:2 with lines title 'DOS'
-9.673100 0.000000
-9.652400 0.000000
-9.631700 0.000000
-9.610900 0.000000
-9.590200 0.000000
-9.569500 0.000000
-9.548800 0.000000
-9.528100 0.000000
-9.507300 0.000000
-9.486600 0.000000
-9.465900 0.000000
-9.445200 0.000000
-9.424500 0.000000
-9.403700 0.000000
-9.383000 0.000000
-9.362300 0.000000
-9.341600 0.000000
-9.320900 0.000000
-9.300100 0.000000
-9.279400 0.000000
-9.258700 0.000000
-9.238000 0.000000
-9.217300 0.000000
-9.196600 0.000000
-9.175800 0.000000
-9.155100 0.000000
-9.134400 0.000000
-9.113700 0.000000
-9.093000 0.000000
-9.072200 0.000000
-9.051500 0.000000
-9.030800 0.000000
-9.010100 0.000000
-8.989400 0.000000
-8.968600 0.000000
-8.947900 0.000000
-8.927200 0.000000
-8.906500 0.000000
-8.885800 0.000000
-8.865000 0.000000
-8.844300 0.000000
-8.823600 0.000000
-8.802900 0.000000
-8.782200 0.000000
-8.761400 0.000000
-8.740700 0.000000
-8.720000 0.000000
-8.699300 0.000000
-8.678600 0.000000
-8.657800 0.000000
-8.637100 0.000000
-8.616400 0.000000
-8.595700 0.000000
-8.575000 0.000000
-8.554300 0.000000
-8.533500 0.000000
-8.512800 0.000000
-8.492100 0.000000
-8.471400 0.000000
-8.450700 0.000000
-8.429900 0.000000
-8.409200 0.000000
-8.388500 0.000000
-8.367800 0.000000
-8.347100 0.000000
-8.326300 0.000000
-8.305600 0.000000
-8.284900 0.000000
-8.264200 0.000000
-8.243500 0.000000
-8.222700 0.000000
-8.202000 0.000000
-8.181300 0.000000
-8.160600 0.000000
-8.139900 0.000000
-8.119100 0.000000
-8.098400 0.000000
-8.077700 0.000000
-8.057000 0.000000
-8.036300 0.000000
-8.015600 0.000000
-7.994800 0.000000
-7.974100 0.000000
-7.953400 0.000000
-7.932700 0.000000
-7.912000 0.000000
-7.891200 0.000000
-7.870500 0.000000
-7.849800 0.000000
-7.829100 0.000000
-7.808400 0.000000
-7.787600 0.000100
-7.766900 0.014800
-7.746200 0.054200
-7.725500 0.113200
-7.704800 0.163000
-7.684000 0.188500
-7.663300 0.195700
-7.642600 0.205200
-7.621900 0.222800
-7.601200 0.246600
-7.580400 0.269900
-7.559700 0.291100
-7.539000 0.310200
-7.518300 0.325900
-7.497600 0.337200
-7.476800 0.345300
-7.456100 0.354600
-7.435400 0.366500
-7.414700 0.380400
-7.394000 0.394200
-7.373300 0.407700
-7.352500 0.420200
-7.331800 0.431800
-7.311100 0.443300
-7.290400 0.455700
-7.269700 0.469100
-7.248900 0.483300
-7.228200 0.515800
-7.207500 0.562500
-7.186800 0.597900
-7.166100 0.597200
-7.145300 0.585500
-7.124600 0.579700
-7.103900 0.587600
-7.083200 0.595100
-7.062500 0.602000
-7.041700 0.605900
-7.021000 0.607700
-7.000300 0.609700
-6.979600 0.610600
-6.958900 0.611900
-6.938100 0.614900
-6.917400 0.620100
-6.896700 0.625300
-6.876000 0.630500
-6.855300 0.635600
-6.834600 0.674500
-6.813800 0.722500
-6.793100 0.761200
-6.772400 0.767200
-6.751700 0.770500
-6.731000 0.782900
-6.710200 0.802100
-6.689500 0.821100
-6.668800 0.839200
-6.648100 0.853800
-6.627400 0.869200
-6.606600 0.884600
-6.585900 0.904700
-6.565200 0.933600
-6.544500 0.973000
-6.523800 1.013500
-6.503000 1.042800
-6.482300 1.056100
-6.461600 1.055600
-6.440900 1.052500
-6.420200 1.054100
-6.399400 1.062400
-6.378700 1.074000
-6.358000 1.086000
-6.337300 1.095700
-6.316600 1.102500
-6.295900 1.105000
-6.275100 1.105600
-6.254400 1.108800
-6.233700 1.115200
-6.213000 1.123300
-6.192300 1.131600
-6.171500 1.139800
-6.150800 1.147600
-6.130100 1.155400
-6.109400 1.163300
-6.088700 1.171500
-6.067900 1.181200
-6.047200 1.207000
-6.026500 1.239900
-6.005800 1.272300
-5.985100 1.293600
-5.964300 1.297200
-5.943600 1.296600
-5.922900 1.296400
-5.902200 1.297000
-5.881500 1.294000
-5.860700 1.291300
-5.840000 1.294500
-5.819300 1.300100
-5.798600 1.302500
-5.777900 1.303600
-5.757100 1.304200
-5.736400 1.305000
-5.715700 1.309100
-5.695000 1.314500
-5.674300 1.324000
-5.653600 1.345600
-5.632800 1.368400
-5.612100 1.389600
-5.591400 1.403200
-5.570700 1.396200
-5.550000 1.425400
-5.529200 1.450300
-5.508500 1.459000
-5.487800 1.437700
-5.467100 1.418200
-5.446400 1.415100
-5.425600 1.412800
-5.404900 1.409300
-5.384200 1.405200
-5.363500 1.397900
-5.342800 1.391800
-5.322000 1.382500
-5.301300 1.374900
-5.280600 1.369500
-5.259900 1.365000
-5.239200 1.360400
-5.218400 1.355700
-5.197700 1.351000
-5.177000 1.345900
-5.156300 1.339300
-5.135600 1.331700
-5.114900 1.323000
-5.094100 1.314800
-5.073400 1.306900
-5.052700 1.340800
-5.032000 1.319100
-5.011300 1.270600
-4.990500 1.264600
-4.969800 1.257900
-4.949100 1.249900
-4.928400 1.241700
-4.907700 1.233700
-4.886900 1.227200
-4.866200 1.218000
-4.845500 1.218100
-4.824800 1.219300
-4.804100 1.219200
-4.783300 1.216000
-4.762600 1.209600
-4.741900 1.198900
-4.721200 1.239700
-4.700500 1.217900
-4.679700 1.156200
-4.659000 1.132900
-4.638300 1.117300
-4.617600 1.105500
-4.596900 1.094900
-4.576100 1.083500
-4.555400 1.071300
-4.534700 1.050800
-4.514000 1.037700
-4.493300 1.025100
-4.472600 1.013000
-4.451800 1.001500
-4.431100 0.990200
-4.410400 0.978700
-4.389700 0.966500
-4.369000 0.968200
-4.348200 0.968900
-4.327500 0.963700
-4.306800 0.951700
-4.286100 0.923600
-4.265400 0.891800
-4.244600 0.862400
-4.223900 0.847500
-4.203200 0.833100
-4.182500 0.818600
-4.161800 0.804300
-4.141000 0.788500
-4.120300 0.772400
-4.099600 0.767100
-4.078900 0.759600
-4.058200 0.747100
-4.037400 0.729800
-4.016700 0.711700
-3.996000 0.679000
-3.975300 0.641300
-3.954600 0.611500
-3.933900 0.592300
-3.913100 0.572300
-3.892400 0.552700
-3.871700 0.548600
-3.851000 0.525700
-3.830300 0.504800
-3.809500 0.487200
-3.788800 0.445500
-3.768100 0.441400
-3.747400 0.434100
-3.726700 0.426100
-3.705900 0.418000
-3.685200 0.409400
-3.664500 0.400900
-3.643800 0.392500
-3.623100 0.384200
-3.602300 0.376000
-3.581600 0.368700
-3.560900 0.361400
-3.540200 0.372700
-3.519500 0.364600
-3.498700 0.356200
-3.478000 0.347500
-3.457300 0.307600
-3.436600 0.299100
-3.415900 0.290400
-3.395100 0.281900
-3.374400 0.273400
-3.353700 0.265000
-3.333000 0.256700
-3.312300 0.248700
-3.291600 0.240800
-3.270800 0.233100
-3.250100 0.225500
-3.229400 0.217900
-3.208700 0.210300
-3.188000 0.203100
-3.167200 0.196400
-3.146500 0.189800
-3.125800 0.184000
-3.105100 0.178200
-3.084400 0.171500
-3.063600 0.164800
-3.042900 0.157900
-3.022200 0.149900
-3.001500 0.141400
-2.980800 0.132400
-2.960000 0.123100
-2.939300 0.113900
-2.918600 0.104900
-2.897900 0.100000
-2.877200 0.094800
-2.856400 0.089200
-2.835700 0.083000
-2.815000 0.072100
-2.794300 0.054400
-2.773600 0.036700
-2.752900 0.021000
-2.732100 0.007200
-2.711400 0.000000
-2.690700 0.000000
-2.670000 0.000000
-2.649300 0.000000
-2.628500 0.000000
-2.607800 0.000000
-2.587100 0.000000
-2.566400 0.000000
-2.545700 0.000000
-2.524900 0.000000
-2.504200 0.000000
-2.483500 0.000000
-2.462800 0.000000
-2.442100 0.000000
-2.421300 0.000000
-2.400600 0.000000
-2.379900 0.000000
-2.359200 0.000000
-2.338500 0.000000
-2.317700 0.000000
-2.297000 0.000000
-2.276300 0.000000
-2.255600 0.000000
-2.234900 0.000000
-2.214200 0.000000
-2.193400 0.000000
-2.172700 0.000000
-2.152000 0.000000
-2.131300 0.000000
-2.110600 0.000000
-2.089800 0.000000
-2.069100 0.000000
-2.048400 0.000000
-2.027700 0.000000
-2.007000 0.000000
-1.986200 0.000000
-1.965500 0.000000
-1.944800 0.000000
-1.924100 0.000000
-1.903400 0.000000
-1.882600 0.000000
-1.861900 0.000000
-1.841200 0.000000
-1.820500 0.000000
-1.799800 0.000000
-1.779000 0.000000
-1.758300 0.000000
-1.737600 0.000000
-1.716900 0.000000
-1.696200 0.000000
-1.675400 0.000000
-1.654700 0.000000
-1.634000 0.000000
-1.613300 0.000000
-1.592600 0.000000
-1.571900 0.000000
-1.551100 0.000000
-1.530400 0.000000
-1.509700 0.000000
-1.489000 0.000000
-1.468300 0.000000
-1.447500 0.000000
-1.426800 0.000000
-1.406100 0.000000
-1.385400 0.000000
-1.364700 0.000000
-1.343900 0.000000
-1.323200 0.000000
-1.302500 0.000000
-1.281800 0.000000
-1.261100 0.000000
-1.240300 0.000000
-1.219600 0.000000
-1.198900 0.000000
-1.178200 0.000000
-1.157500 0.000000
-1.136700 0.000000
-1.116000 0.000000
-1.095300 0.000000
-1.074600 0.000000
-1.053900 0.000000
-1.033200 0.000000
-1.012400 0.000000
-0.991700 0.000000
-0.971000 0.000000
-0.950300 0.000000
-0.929600 0.000000
-0.908800 0.000000
-0.888100 0.000000
-0.867400 0.000000
-0.846700 0.000000
-0.826000 0.000000
-0.805200 0.000000
-0.784500 0.000000
-0.763800 0.000000
-0.743100 0.000000
-0.722400 0.000000
-0.701600 0.000000
-0.680900 0.000000
-0.660200 0.000000
-0.639500 0.000000
-0.618800 0.000000
-0.598000 0.000000
-0.577300 0.000000
-0.556600 0.000000
-0.535900 0.000000
-0.515200 0.000000
-0.494400 0.000000
-0.473700 0.000000
-0.453000 0.000000
-0.432300 0.000000
-0.411600 0.000000
-0.390900 0.000000
-0.370100 0.000000
-0.349400 0.000000
-0.328700 0.000000
-0.308000 0.000000
-0.287300 0.000000
-0.266500 0.000000
-0.245800 0.000000
-0.225100 0.000000
-0.204400 0.000000
-0.183700 0.000000
-0.162900 0.000000
-0.142200 0.000000
-0.121500 0.000000
-0.100800 0.000000
-0.080100 0.000000
-0.059300 0.000000
-0.038600 0.000000
-0.017900 0.000000
0.002800 0.000000
0.023500 0.000000
0.044300 0.000000
0.065000 0.000000
0.085700 0.000000
0.106400 0.000000
0.127100 0.000000
0.147800 0.000000
0.168600 0.000000
0.189300 0.000000
0.210000 0.000000
0.230700 0.000000
0.251400 0.000000
0.272200 0.000000
0.292900 0.000000
0.313600 0.000000
0.334300 0.000000
0.355000 0.000000
0.375800 0.001500
0.396500 0.007200
0.417200 0.016900
0.437900 0.028300
0.458600 0.038600
0.479400 0.047600
0.500100 0.056200
0.520800 0.208800
0.541500 0.292900
0.562200 0.309500
0.583000 0.283600
0.603700 0.299000
0.624400 0.332900
0.645100 0.365500
0.665800 0.397600
0.686600 0.429500
0.707300 0.454400
0.728000 0.466400
0.748700 0.486800
0.769400 0.558300
0.790100 0.572300
0.810900 0.549100
0.831600 0.562400
0.852300 0.575700
0.873000 0.589600
0.893700 0.603900
0.914500 0.618000
0.935200 0.630900
0.955900 0.632400
0.976600 0.644600
0.997300 0.658000
1.018100 0.671300
1.038800 0.684900
1.059500 0.697600
1.080200 0.708200
1.100900 0.775100
1.121700 0.802600
1.142400 0.830400
1.163100 0.817500
1.183800 0.832300
1.204500 0.848900
1.225300 0.865100
1.246000 0.880900
1.266700 0.897200
1.287400 0.913800
1.308100 0.923100
1.328800 0.938800
1.349600 0.949900
1.370300 0.959800
1.391000 0.970300
1.411700 0.994700
1.432400 1.019900
1.453200 1.034700
1.473900 1.037600
1.494600 1.037100
1.515300 1.049000
1.536000 1.074500
1.556800 1.099700
1.577500 1.122700
1.598200 1.142000
1.618900 1.162000
1.639600 1.182500
1.660400 1.204000
1.681100 1.226700
1.701800 1.253700
1.722500 1.284500
1.743200 1.333500
1.764000 1.407900
1.784700 1.450800
1.805400 1.482000
1.826100 1.509000
1.846800 1.454100
1.867500 1.452100
1.888300 1.461900
1.909000 1.468500
1.929700 1.475800
1.950400 1.487800
1.971100 1.518800
1.991900 1.565900
2.012600 1.588600
2.033300 1.585400
2.054000 1.571400
2.074700 1.531400
2.095500 1.537700
2.116200 1.542800
2.136900 1.548300
2.157600 1.553300
2.178300 1.558000
2.199100 1.563500
2.219800 1.571700
2.240500 1.580400
2.261200 1.591000
2.281900 1.602500
2.302700 1.613700
2.323400 1.628000
2.344100 1.618000
2.364800 1.604600
2.385500 1.589600
2.406300 1.553900
2.427000 1.554200
2.447700 1.557800
2.468400 1.565400
2.489100 1.570900
2.509800 1.571300
2.530600 1.568600
2.551300 1.577600
2.572000 1.590900
2.592700 1.599500
2.613400 1.591300
2.634200 1.579400
2.654900 1.566800
2.675600 1.558800
2.696300 1.569100
2.717000 1.617800
2.737800 1.660200
2.758500 1.666900
2.779200 1.702500
2.799900 1.757300
2.820600 1.800700
2.841400 1.804400
2.862100 1.793600
2.882800 1.783000
2.903500 1.782900
2.924200 1.808600
2.945000 1.846800
2.965700 1.819300
2.986400 1.812800
3.007100 1.808300
3.027800 1.768600
3.048500 1.750900
3.069300 1.763900
3.090000 1.777900
3.110700 1.791600
3.131400 1.794100
3.152100 1.776200
3.172900 1.739200
3.193600 1.692700
3.214300 1.640600
3.235000 1.575400
3.255700 1.520600
3.276500 1.567200
3.297200 1.537600
3.317900 1.479100
3.338600 1.423700
3.359300 1.416800
3.380100 1.427500
3.400800 1.459600
3.421500 1.492300
3.442200 1.519800
3.462900 1.534400
3.483700 1.529500
3.504400 1.541600
3.525100 1.552800
3.545800 1.561500
3.566500 1.562500
3.587300 1.568400
3.608000 1.586200
3.628700 1.592300
3.649400 1.583800
3.670100 1.549800
3.690800 1.499500
3.711600 1.428400
3.732300 1.368500
3.753000 1.328100
3.773700 1.311200
3.794400 1.314500
3.815200 1.333100
3.835900 1.349400
3.856600 1.369100
3.877300 1.392800
3.898000 1.421400
3.918800 1.457600
3.939500 1.487700
3.960200 1.507900
3.980900 1.514200
4.001600 1.446000
4.022400 1.433700
4.043100 1.430900
4.063800 1.425600
4.084500 1.418100
4.105200 1.423900
4.126000 1.433500
4.146700 1.442600
4.167400 1.445000
4.188100 1.439400
4.208800 1.402300
4.229500 1.368500
4.250300 1.338600
4.271000 1.324800
4.291700 1.370500
4.312400 1.421100
4.333100 1.504400
4.353900 1.469900
4.374600 1.438600
4.395300 1.419400
4.416000 1.407400
4.436700 1.401500
4.457500 1.407000
4.478200 1.462800
4.498900 1.492700
4.519600 1.462700
4.540300 1.423100
4.561100 1.410300
4.581800 1.416800
4.602500 1.414500
4.623200 1.401400
4.643900 1.373300
4.664700 1.342500
4.685400 1.260000
4.706100 1.253000
4.726800 1.242100
4.747500 1.225600
4.768200 1.210500
4.789000 1.227700
4.809700 1.227200
4.830400 1.218300
4.851100 1.220300
4.871800 1.215400
4.892600 1.195400
4.913300 1.160300
4.934000 1.137200
4.954700 1.128300
4.975400 1.118100
4.996200 1.109800
5.016900 1.104500
5.037600 1.100600
5.058300 1.100900
5.079000 1.103600
5.099800 1.108200
5.120500 1.109700
5.141200 1.112100
5.161900 1.115700
5.182600 1.116600
5.203400 1.180000
5.224100 1.182900
5.244800 1.193200
5.265500 1.159800
5.286200 1.162300
5.307000 1.164000
5.327700 1.164400
5.348400 1.162100
5.369100 1.158100
5.389800 1.154000
5.410500 1.144600
5.431300 1.141400
5.452000 1.137800
5.472700 1.139900
5.493400 1.140800
5.514100 1.139000
5.534900 1.139100
5.555600 1.137800
5.576300 1.134300
5.597000 1.133800
5.617700 1.143300
5.638500 1.147000
5.659200 1.167000
5.679900 1.182600
5.700600 1.194900
5.721300 1.204100
5.742100 1.200200
5.762800 1.197100
5.783500 1.227100
5.804200 1.248800
5.824900 1.261700
5.845700 1.240200
5.866400 1.240100
5.887100 1.182200
5.907800 1.171600
5.928500 1.173700
5.949200 1.161200
5.970000 1.152800
5.990700 1.140300
6.011400 1.126300
6.032100 1.111200
6.052800 1.096000
6.073600 1.086300
6.094300 1.084700
6.115000 1.083400
6.135700 1.080400
6.156400 1.078300
6.177200 1.088000
6.197900 1.103600
6.218600 1.106800
6.239300 1.069200
6.260000 1.071300
6.280800 1.075800
6.301500 1.081400
6.322200 1.087200
6.342900 1.092900
6.363600 1.098300
6.384400 1.102900
6.405100 1.107700
6.425800 1.110700
6.446500 1.119800
6.467200 1.137900
6.488000 1.136100
6.508700 1.185800
6.529400 1.177900
6.550100 1.140800
6.570800 1.104400
6.591500 1.105200
6.612300 1.107200
6.633000 1.107400
6.653700 1.107800
6.674400 1.112900
6.695100 1.119700
6.715900 1.099800
6.736600 1.110200
6.757300 1.120300
6.778000 1.130800
6.798700 1.146800
6.819500 1.168100
6.840200 1.189900
6.860900 1.180400
6.881600 1.173600
6.902300 1.168000
6.923100 1.170900
6.943800 1.181200
6.964500 1.216900
6.985200 1.265900
7.005900 1.278200
7.026700 1.284600
7.047400 1.291500
7.068100 1.301100
7.088800 1.312500
7.109500 1.325100
7.130200 1.338000
7.151000 1.352200
7.171700 1.366900
7.192400 1.380500
7.213100 1.387600
7.233800 1.400200
7.254600 1.413700
7.275300 1.431300
7.296000 1.451300
7.316700 1.460500
7.337400 1.460500
7.358200 1.474100
7.378900 1.471900
7.399600 1.447900
7.420300 1.399500
7.441000 1.350400
7.461800 1.319200
7.482500 1.334700
7.503200 1.294100
7.523900 1.262000
7.544600 1.248400
7.565400 1.240000
7.586100 1.232200
7.606800 1.228100
7.627500 1.226400
7.648200 1.227700
7.669000 1.225900
7.689700 1.227000
7.710400 1.231900
7.731100 1.240800
7.751800 1.250600
7.772500 1.283300
7.793300 1.299700
7.814000 1.315600
7.834700 1.330400
7.855400 1.341800
7.876100 1.321900
7.896900 1.314300
7.917600 1.325400
7.938300 1.338200
7.959000 1.352600
7.979700 1.367000
8.000500 1.382400
8.021200 1.394900
8.041900 1.406000
8.062600 1.421500
8.083300 1.439000
8.104100 1.456600
8.124800 1.469600
8.145500 1.481400
8.166200 1.494600
8.186900 1.499200
8.207700 1.498000
8.228400 1.491300
8.249100 1.473300
8.269800 1.482700
8.290500 1.480600
8.311200 1.483900
8.332000 1.497700
8.352700 1.518300
8.373400 1.536200
8.394100 1.551100
8.414800 1.565300
8.435600 1.578500
8.456300 1.606300
8.477000 1.536700
8.497700 1.503900
8.518400 1.478100
8.539200 1.480100
8.559900 1.495700
8.580600 1.519900
8.601300 1.526400
8.622000 1.528900
8.642800 1.563400
8.663500 1.600900
8.684200 1.603300
8.704900 1.602400
8.725600 1.570400
8.746400 1.523300
8.767100 1.485300
8.787800 1.453800
8.808500 1.424400
8.829200 1.410900
8.849900 1.398600
8.870700 1.387500
8.891400 1.407900
8.912100 1.448000
8.932800 1.489900
8.953500 1.505300
8.974300 1.500500
8.995000 1.488700
9.015700 1.473300
9.036400 1.449700
9.057100 1.432600
9.077900 1.409500
9.098600 1.395400
9.119300 1.384200
9.140000 1.378200
9.160700 1.380000
9.181500 1.372700
9.202200 1.358100
9.222900 1.333100
9.243600 1.304300
9.264300 1.283100
9.285100 1.262800
9.305800 1.241300
9.326500 1.204600
9.347200 1.151200
9.367900 1.097300
9.388700 1.073300
9.409400 1.064400
9.430100 1.076100
9.450800 1.104400
9.471500 1.139800
9.492200 1.176900
9.513000 1.222300
9.533700 1.283400
9.554400 1.297200
9.575100 1.323900
9.595800 1.337200
9.616600 1.322500
9.637300 1.305300
9.658000 1.292900
9.678700 1.286200
9.699400 1.284400
9.720200 1.281500
9.740900 1.282700
9.761600 1.282000
9.782300 1.284300
9.803000 1.289400
9.823800 1.296600
9.844500 1.300400
9.865200 1.300300
9.885900 1.301500
9.906600 1.304800
9.927400 1.304500
9.948100 1.303300
9.968800 1.298500
9.989500 1.290800
10.010200 1.286000
10.030900 1.267900
10.051700 1.234400
10.072400 1.206400
10.093100 1.194600
10.113800 1.189700
10.134500 1.197400
10.155300 1.211100
10.176000 1.228100
10.196700 1.273400
10.217400 1.270900
10.238100 1.280800
10.258900 1.257200
10.279600 1.256700
10.300300 1.254600
10.321000 1.252700
10.341700 1.251800
10.362500 1.251300
10.383200 1.238000
10.403900 1.232300
10.424600 1.229200
10.445300 1.218100
10.466100 1.202400
10.486800 1.184000
10.507500 1.158500
10.528200 1.127500
10.548900 1.077700
10.569700 1.062800
10.590400 1.051600
10.611100 1.057400
10.631800 1.074600
10.652500 1.087900
10.673200 1.101300
10.694000 1.116900
10.714700 1.134900
10.735400 1.158700
10.756100 1.179600
10.776800 1.193300
10.797600 1.198500
10.818300 1.196500
10.839000 1.194300
10.859700 1.193700
10.880400 1.187300
10.901200 1.177200
10.921900 1.167100
10.942600 1.164700
10.963300 1.165300
10.984000 1.160900
11.004800 1.155600
11.025500 1.154400
11.046200 1.151100
11.066900 1.151000
11.087600 1.153100
11.108400 1.149700
11.129100 1.139200
11.149800 1.131300
11.170500 1.132500
11.191200 1.140100
11.211900 1.149700
11.232700 1.158300
11.253400 1.226800
11.274100 1.306300
11.294800 1.341000
11.315500 1.330300
11.336300 1.356200
11.357000 1.382300
11.377700 1.361900
11.398400 1.377600
11.419100 1.386200
11.439900 1.394100
11.460600 1.419900
11.481300 1.378500
11.502000 1.358200
11.522700 1.349600
11.543500 1.337200
11.564200 1.321600
11.584900 1.307600
11.605600 1.295200
11.626300 1.283100
11.647100 1.275300
11.667800 1.263600
11.688500 1.250000
11.709200 1.248000
11.729900 1.239500
11.750700 1.229500
11.771400 1.225600
11.792100 1.232100
11.812800 1.241800
11.833500 1.249000
11.854200 1.250500
11.875000 1.251700
11.895700 1.255400
11.916400 1.271000
11.937100 1.324700
11.957800 1.358800
11.978600 1.388800
11.999300 1.424300
12.020000 1.443500
12.040700 1.475500
12.061400 1.526400
12.082200 1.535800
12.102900 1.541300
12.123600 1.549300
12.144300 1.584700
12.165000 1.583500
12.185800 1.642000
12.206500 1.620000
12.227200 1.603700
12.247900 1.561100
12.268600 1.548800
12.289400 1.541800
12.310100 1.552200
12.330800 1.560800
12.351500 1.566000
12.372200 1.568100
12.392900 1.574400
12.413700 1.583200
12.434400 1.589400
12.455100 1.603200
12.475800 1.619500
12.496500 1.634700
12.517300 1.659200
12.538000 1.657500
12.558700 1.672400
12.579400 1.682700
12.600100 1.684800
12.620900 1.674800
12.641600 1.677500
12.662300 1.680800
12.683000 1.685900
12.703700 1.693800
12.724500 1.703600
12.745200 1.709400
12.765900 1.646400
12.786600 1.645500
12.807300 1.729800
12.828100 1.723400
12.848800 1.739500
12.869500 1.748700
12.890200 1.751000
12.910900 1.750600
12.931600 1.751400
12.952400 1.752200
12.973100 1.730000
12.993800 1.710000
13.014500 1.708300
13.035200 1.706400
13.056000 1.704200
13.076700 1.700300
13.097400 1.699600
13.118100 1.695800
13.138800 1.688800
13.159600 1.765600
13.180300 1.795800
13.201000 1.694300
13.221700 1.637000
13.242400 1.580300
13.263200 1.574400
13.283900 1.580500
13.304600 1.593700
13.325300 1.604500
13.346000 1.616200
13.366800 1.623300
13.387500 1.634000
13.408200 1.675700
13.428900 1.733500
13.449600 1.837800
13.470400 1.748800
13.491100 1.722000
13.511800 1.702500
13.532500 1.701500
13.553200 1.718400
13.573900 1.736600
13.594700 1.764700
13.615400 1.787900
13.636100 1.808500
13.656800 1.829600
13.677500 1.844900
13.698300 1.860800
13.719000 1.872900
13.739700 1.878600
13.760400 1.890100
13.781100 1.894700
13.801900 1.886500
13.822600 1.894900
13.843300 1.906000
13.864000 1.922300
13.884700 1.957300
13.905500 1.969900
13.926200 1.979200
13.946900 1.990300
13.967600 2.003300
13.988300 2.017900
14.009100 2.035000
14.029800 2.027900
14.050500 2.025100
14.071200 1.993800
14.091900 1.978300
14.112600 1.986600
14.133400 1.909200
14.154100 1.914600
14.174800 1.907100
14.195500 1.919600
14.216200 1.930400
14.237000 1.938300
14.257700 1.959900
14.278400 1.989300
14.299100 2.029200
14.319800 2.020700
14.340600 2.010400
14.361300 2.006100
14.382000 2.027000
14.402700 2.066400
14.423400 2.069100
14.444200 2.055200
14.464900 2.027600
14.485600 1.963100
14.506300 1.880900
14.527000 1.833400
14.547800 1.802000
14.568500 1.805900
14.589200 1.828100
14.609900 1.844400
14.630600 1.826700
14.651400 1.830000
14.672100 1.846300
14.692800 1.865800
14.713500 1.841800
14.734200 1.818800
14.754900 1.793700
14.775700 1.799100
14.796400 1.818800
14.817100 1.847600
14.837800 1.871300
14.858500 1.904800
14.879300 1.942600
14.900000 1.968000
14.920700 1.993800
14.941400 2.025000
14.962100 2.064300
14.982900 2.124400
15.003600 2.149200
15.024300 2.179300
15.045000 2.210600
15.065700 2.246000
15.086500 2.270500
15.107200 2.302500
15.127900 2.340000
15.148600 2.342100
15.169300 2.373700
15.190100 2.416100
15.210800 2.445300
15.231500 2.462400
15.252200 2.482700
15.272900 2.485700
15.293600 2.492700
15.314400 2.480600
15.335100 2.463000
15.355800 2.433500
15.376500 2.408500
15.397200 2.383300
15.418000 2.364800
15.438700 2.351900
15.459400 2.338200
15.480100 2.327300
15.500800 2.468600
15.521600 2.358000
15.542300 2.279200
15.563000 2.209600
15.583700 2.206700
15.604400 2.218300
15.625200 2.236000
15.645900 2.253100
15.666600 2.266800
15.687300 2.267900
15.708000 2.317400
15.728800 2.464200
15.749500 2.526400
15.770200 2.593000
15.790900 2.579200
15.811600 2.509000
15.832400 2.431500
15.853100 2.413300
15.873800 2.421600
15.894500 2.444500
15.915200 2.390400
15.935900 2.334600
15.956700 2.307300
15.977400 2.274500
15.998100 2.245100
16.018800 2.211900
16.039500 2.180700
16.060300 2.155900
16.081000 2.134600
16.101700 2.109900
16.122400 2.095400
16.143100 2.085000
16.163900 2.075900
16.184600 2.074000
16.205300 2.118800
16.226000 2.100000
16.246700 2.098300
16.267500 2.109100
16.288200 2.126900
16.308900 2.137400
16.329600 2.117000
16.350300 2.094300
16.371100 2.094600
16.391800 2.109200
16.412500 2.137300
16.433200 2.167200
16.453900 2.194500
16.474600 2.225400
16.495400 2.285500
16.516100 2.358100
16.536800 2.375500
16.557500 2.394900
16.578200 2.417400
16.599000 2.430800
16.619700 2.400800
16.640400 2.394700
16.661100 2.366500
16.681800 2.355000
16.702600 2.336800
16.723300 2.349800
16.744000 2.375600
16.764700 2.423600
16.785400 2.477000
16.806200 2.552800
16.826900 2.426200
16.847600 2.403300
16.868300 2.376100
16.889000 2.363800
16.909800 2.358300
16.930500 2.362900
16.951200 2.370800
16.971900 2.377200
16.992600 2.385900
17.013300 2.395600
17.034100 2.410800
17.054800 2.425400
17.075500 2.405200
17.096200 2.361200
17.116900 2.359800
17.137700 2.430700
17.158400 2.523700
17.179100 2.584900
17.199800 2.501100
17.220500 2.481000
17.241300 2.483900
17.262000 2.492100
17.282700 2.488100
17.303400 2.520000
17.324100 2.574200
17.344900 2.626600
17.365600 2.624100
17.386300 2.643500
17.407000 2.681000
17.427700 2.677100
17.448500 2.670900
17.469200 2.676300
17.489900 2.667300
17.510600 2.639900
17.531300 2.599800
17.552100 2.554300
17.572800 2.449400
17.593500 2.367200
17.614200 2.343900
17.634900 2.329200
17.655600 2.321200
17.676400 2.316500
17.697100 2.337700
17.717800 2.372000
17.738500 2.405100
17.759200 2.436800
17.780000 2.464500
17.800700 2.492900
17.821400 2.500400
17.842100 2.509400
17.862800 2.526200
17.883600 2.547500
17.904300 2.560500
17.925000 2.565600
17.945700 2.565800
17.966400 2.568800
17.987200 2.579400
18.007900 2.611800
18.028600 2.621000
18.049300 2.681800
18.070000 2.720100
18.090800 2.727300
18.111500 2.733500
18.132200 2.727000
18.152900 2.728500
18.173600 2.725700
18.194300 2.732900
18.215100 2.753800
18.235800 2.790300
18.256500 2.824600
18.277200 2.897800
18.297900 2.860200
18.318700 2.895900
18.339400 2.878000
18.360100 2.842300
18.380800 2.812600
18.401500 2.792400
18.422300 2.769600
18.443000 2.759800
18.463700 2.741600
18.484400 2.715600
18.505100 2.686000
18.525900 2.652400
18.546600 2.625800
18.567300 2.617800
18.588000 2.619100
18.608700 2.615600
18.629500 2.595300
18.650200 2.588700
18.670900 2.586600
18.691600 2.582500
18.712300 2.562100
18.733100 2.561200
18.753800 2.558500
18.774500 2.569800
18.795200 2.562100
18.815900 2.565400
18.836600 2.574600
18.857400 2.585500
18.878100 2.582500
18.898800 2.578900
18.919500 2.572200
18.940200 2.569000
18.961000 2.587400
18.981700 2.599900
19.002400 2.625600
19.023100 2.670300
19.043800 2.710100
19.064600 2.758800
19.085300 2.804800
19.106000 2.827000
19.126700 2.813700
19.147400 2.839400
19.168200 2.860800
19.188900 2.908900
19.209600 2.929200
19.230300 2.940000
19.251000 2.944800
19.271800 2.919200
19.292500 2.948500
19.313200 2.950700
19.333900 2.941600
19.354600 2.929600
19.375300 2.915300
19.396100 2.934400
19.416800 2.865300
19.437500 2.799300
19.458200 2.789500
19.478900 2.787400
19.499700 2.797600
19.520400 2.812100
19.541100 2.831000
19.561800 2.840300
19.582500 2.827400
19.603300 2.792900
19.624000 2.774300
19.644700 2.766200
19.665400 2.767400
19.686100 2.809500
19.706900 2.825200
19.727600 2.795300
19.748300 2.742000
19.769000 2.742700
19.789700 2.740900
19.810500 2.726300
19.831200 2.718900
19.851900 2.717700
19.872600 2.737300
19.893300 2.700500
19.914000 2.684100
19.934800 2.644600
19.955500 2.642200
19.976200 2.712000
19.996900 2.743600
20.017600 2.746100
20.038400 2.705900
20.059100 2.623800
20.079800 2.582600
20.100500 2.580700
20.121200 2.587400
20.142000 2.598600
20.162700 2.606600
20.183400 2.638700
20.204100 2.670500
20.224800 2.701700
20.245600 2.710400
20.266300 2.717700
20.287000 2.736300
20.307700 2.760100
20.328400 2.797800
20.349200 2.816800
20.369900 2.840200
20.390600 2.870400
20.411300 2.888700
20.432000 2.868100
20.452800 2.851200
20.473500 2.828400
20.494200 2.812100
20.514900 2.848300
20.535600 2.871800
20.556300 2.911800
20.577100 2.944900
20.597800 2.977900
20.618500 2.980700
20.639200 2.915700
20.659900 2.901700
20.680700 2.902000
20.701400 2.908700
20.722100 2.893700
20.742800 2.911100
20.763500 2.898400
20.784300 2.872400
20.805000 2.918600
20.825700 2.851600
20.846400 2.816300
20.867100 2.777600
20.887900 2.746000
20.908600 2.726300
20.929300 2.734400
20.950000 2.724300
20.970700 2.722000
20.991500 2.731000
21.012200 2.736200
21.032900 2.734500
21.053600 2.738400
21.074300 2.752200
21.095000 2.770400
21.115800 2.800600
21.136500 2.812800
21.157200 2.833800
21.177900 2.832500
21.198600 2.840600
21.219400 2.837600
21.240100 2.850900
21.260800 2.892600
21.281500 2.933300
21.302200 3.004100
21.323000 2.970100
21.343700 3.001200
21.364400 3.031300
21.385100 3.079700
21.405800 3.133200
21.426600 3.140400
21.447300 3.161700
21.468000 3.176800
21.488700 3.193800
21.509400 3.225000
21.530200 3.265800
21.550900 3.129100
21.571600 3.099900
21.592300 3.067400
21.613000 2.995300
21.633800 2.927200
21.654500 2.905300
21.675200 2.907400
21.695900 2.896900
21.716600 2.901800
21.737300 2.884400
21.758100 2.879500
21.778800 2.889600
21.799500 2.924700
21.820200 2.945100
21.840900 2.938800
21.861700 2.942000
21.882400 2.945100
21.903100 2.936000
21.923800 2.935200
21.944500 2.938700
21.965300 2.947700
21.986000 2.967200
22.006700 2.991800
22.027400 3.020900
22.048100 3.047400
22.068900 3.065400
22.089600 3.109900
22.110300 3.114400
22.131000 3.114800
22.151700 3.098800
22.172500 3.086500
22.193200 3.063900
22.213900 3.072300
22.234600 3.072500
22.255300 3.073800
22.276000 3.078300
22.296800 3.099800
22.317500 3.138200
22.338200 3.180500
22.358900 3.236400
22.379600 3.254000
22.400400 3.274800
22.421100 3.292000
22.441800 3.305700
22.462500 3.279400
22.483200 3.263400
22.504000 3.253700
22.524700 3.246900
22.545400 3.197300
22.566100 3.168000
22.586800 3.147800
22.607600 3.129000
22.628300 3.112100
22.649000 3.100900
22.669700 3.121300
22.690400 3.103400
22.711200 3.069500
22.731900 3.057800
22.752600 3.059900
22.773300 3.077900
22.794000 3.092600
22.814800 3.096300
22.835500 3.072000
22.856200 3.072300
22.876900 3.024100
22.897600 3.030100
22.918300 3.043700
22.939100 3.067000
22.959800 3.103600
22.980500 3.138600
23.001200 3.167800
23.021900 3.180300
23.042700 3.171800
23.063400 3.190800
23.084100 3.210900
23.104800 3.230800
23.125500 3.245200
23.146300 3.235000
23.167000 3.231000
23.187700 3.234800
23.208400 3.253000
23.229100 3.276300
23.249900 3.295100
23.270600 3.319200
23.291300 3.322600
23.312000 3.315000
23.332700 3.312400
23.353500 3.310500
23.374200 3.297500
23.394900 3.287800
23.415600 3.288000
23.436300 3.270000
23.457000 3.232100
23.477800 3.219900
23.498500 3.216600
23.519200 3.204500
23.539900 3.190400
23.560600 3.186000
23.581400 3.178100
23.602100 3.185800
23.622800 3.189400
23.643500 3.198200
23.664200 3.197500
23.685000 3.195100
23.705700 3.202100
23.726400 3.224700
23.747100 3.239400
23.767800 3.260800
23.788600 3.400200
23.809300 3.213500
23.830000 3.201400
23.850700 3.192800
23.871400 3.173900
23.892200 3.157300
23.912900 3.150500
23.933600 3.149900
23.954300 3.146800
23.975000 3.139700
23.995700 3.200000
24.016500 3.157200
24.037200 3.120100
24.057900 3.118000
24.078600 3.127400
24.099300 3.158300
24.120100 3.207100
24.140800 3.247900
24.161500 3.298800
24.182200 3.352300
24.202900 3.388500
24.223700 3.336400
24.244400 3.303300
24.265100 3.306700
24.285800 3.307800
24.306500 3.334000
24.327300 3.378200
24.348000 3.423500
24.368700 3.422400
24.389400 3.418900
24.410100 3.419900
24.430900 3.444100
24.451600 3.443100
24.472300 3.443300
24.493000 3.435600
24.513700 3.431600
24.534500 3.437900
24.555200 3.439200
24.575900 3.441800
24.596600 3.393000
24.617300 3.284400
24.638000 3.232000
24.658800 3.212300
24.679500 3.207000
24.700200 3.215200
24.720900 3.250900
24.741600 3.325800
24.762400 3.381500
24.783100 3.419300
24.803800 3.448200
24.824500 3.469500
24.845200 3.415400
24.866000 3.412300
24.886700 3.390400
24.907400 3.371200
24.928100 3.335700
24.948800 3.302000
24.969600 3.280700
24.990300 3.316000
25.011000 3.378800
25.031700 3.404700
25.052400 3.428000
25.073200 3.443900
25.093900 3.441900
25.114600 3.434500
25.135300 3.436400
25.156000 3.423400
25.176700 3.416200
25.197500 3.414900
25.218200 3.427000
25.238900 3.428600
25.259600 3.422400
25.280300 3.411200
25.301100 3.386600
25.321800 3.352100
25.342500 3.314700
25.363200 3.258500
25.383900 3.203400
25.404700 3.170600
25.425400 3.167100
25.446100 3.225000
25.466800 3.218300
25.487500 3.230200
25.508300 3.271200
25.529000 3.253400
25.549700 3.265700
25.570400 3.280700
25.591100 3.301000
25.611900 3.331200
25.632600 3.371900
25.653300 3.398100
25.674000 3.430400
25.694700 3.471700
25.715500 3.506200
25.736200 3.524400
25.756900 3.542000
25.777600 3.575000
25.798300 3.584400
25.819000 3.593700
25.839800 3.608700
25.860500 3.611500
25.881200 3.598300
25.901900 3.572300
25.922600 3.572700
25.943400 3.551700
25.964100 3.527900
25.984800 3.561900
26.005500 3.599600
26.026200 3.611600
26.047000 3.615200
26.067700 3.613500
26.088400 3.606500
26.109100 3.592500
26.129800 3.613400
26.150600 3.612000
26.171300 3.602100
26.192000 3.575500
26.212700 3.552200
26.233400 3.545900
26.254200 3.551600
26.274900 3.563800
26.295600 3.583200
26.316300 3.574500
26.337000 3.536900
26.357700 3.491600
26.378500 3.420700
26.399200 3.404300
26.419900 3.397200
26.440600 3.404500
26.461300 3.411300
26.482100 3.419600
26.502800 3.428500
26.523500 3.442600
26.544200 3.483300
26.564900 3.507300
26.585700 3.527000
26.606400 3.531200
26.627100 3.522500
26.647800 3.507900
26.668500 3.495100
26.689300 3.494100
26.710000 3.494300
26.730700 3.501900
26.751400 3.514900
26.772100 3.527300
26.792900 3.523300
26.813600 3.626900
26.834300 3.616800
26.855000 3.583400
26.875700 3.628300
26.896500 3.670200
26.917200 3.676100
26.937900 3.705100
26.958600 3.729800
26.979300 3.771200
27.000000 3.886300
27.020800 3.742700
27.041500 3.534600
27.062200 3.492900
27.082900 3.450600
27.103600 3.409100
27.124400 3.381300
27.145100 3.345400
27.165800 3.313300
27.186500 3.294300
27.207200 3.280500
27.228000 3.269100
27.248700 3.499400
27.269400 3.234100
27.290100 3.236700
27.310800 3.291300
27.331600 3.365100
27.352300 3.348000
27.373000 3.342500
27.393700 3.294900
27.414400 3.215400
27.435200 3.160500
27.455900 3.117700
27.476600 3.116000
27.497300 3.127600
27.518000 3.156900
27.538700 3.098200
27.559500 2.986800
27.580200 2.936700
27.600900 2.902700
27.621600 2.937300
27.642300 2.949700
27.663100 2.899000
27.683800 2.895500
27.704500 2.916900
27.725200 2.897100
27.745900 2.870900
27.766700 2.938400
27.787400 2.852000
27.808100 2.591200
27.828800 2.516600
27.849500 2.492500
27.870300 2.488000
27.891000 2.460700
27.911700 2.455300
27.932400 2.430900
27.953100 2.418300
27.973900 2.424300
27.994600 2.417800
28.015300 2.390800
28.036000 2.390500
28.056700 2.405900
28.077400 2.398100
28.098200 2.495800
28.118900 2.400900
28.139600 2.350200
28.160300 2.326500
28.181000 2.247800
28.201800 2.172700
28.222500 2.119900
28.243200 2.078400
28.263900 2.012500
28.284600 1.940900
28.305400 1.870200
28.326100 1.795900
28.346800 1.718300
28.367500 1.704900
28.388200 1.659600
28.409000 1.615400
28.429700 1.581300
28.450400 1.531300
28.471100 1.511400
28.491800 1.496700
28.512600 1.484100
28.533300 1.471400
28.554000 1.461700
28.574700 1.452000
28.595400 1.436700
28.616200 1.398800
28.636900 1.364700
28.657600 1.344900
28.678300 1.328200
28.699000 1.294900
28.719700 1.272900
28.740500 1.261200
28.761200 1.291400
28.781900 1.287600
28.802600 1.215500
28.823300 1.154500
28.844100 1.083000
28.864800 1.028300
28.885500 0.990800
28.906200 0.956200
28.926900 0.924600
28.947700 1.038300
28.968400 0.938200
28.989100 0.933100
29.009800 0.892200
29.030500 0.855900
29.051300 0.816700
29.072000 0.769300
29.092700 0.696700
29.113400 0.669800
29.134100 0.635600
29.154900 0.623500
29.175600 0.556000
29.196300 0.528300
29.217000 0.511800
29.237700 0.510100
29.258400 0.501000
29.279200 0.485400
29.299900 0.464500
29.320600 0.444100
29.341300 0.416200
29.362000 0.368700
29.382800 0.316600
29.403500 0.274900
29.424200 0.237600
29.444900 0.226200
29.465600 0.211400
29.486400 0.197100
29.507100 0.182100
29.527800 0.166500
29.548500 0.140400
29.569200 0.112500
29.590000 0.083800
29.610700 0.068900
29.631400 0.062300
29.652100 0.056000
29.672800 0.049900
29.693600 0.044000
29.714300 0.038400
29.735000 0.033000
29.755700 0.027800
29.776400 0.022900
29.797200 0.018200
29.817900 0.013800
29.838600 0.009600
29.859300 0.005700
29.880000 0.005000
29.900700 0.000000
29.921500 0.000000
29.942200 0.000000
29.962900 0.000000
29.983600 0.000000
30.004300 0.000000
30.025100 0.000000
30.045800 0.000000
30.066500 0.000000
30.087200 0.000000
30.107900 0.000000
30.128700 0.000000
30.149400 0.000000
30.170100 0.000000
30.190800 0.000000
30.211500 0.000000
30.232300 0.000000
30.253000 0.000000
30.273700 0.000000
30.294400 0.000000
30.315100 0.000000
30.335900 0.000000
30.356600 0.000000
30.377300 0.000000
30.398000 0.000000
30.418700 0.000000
30.439400 0.000000
30.460200 0.000000
30.480900 0.000000
30.501600 0.000000
30.522300 0.000000
30.543000 0.000000
30.563800 0.000000
30.584500 0.000000
30.605200 0.000000
30.625900 0.000000
30.646600 0.000000
30.667400 0.000000
30.688100 0.000000
30.708800 0.000000
30.729500 0.000000
30.750200 0.000000
30.771000 0.000000
30.791700 0.000000
30.812400 0.000000
30.833100 0.000000
30.853800 0.000000
30.874600 0.000000
30.895300 0.000000
30.916000 0.000000
30.936700 0.000000
30.957400 0.000000
30.978200 0.000000
30.998900 0.000000
31.019600 0.000000
31.040300 0.000000
31.061000 0.000000
31.081700 0.000000
31.102500 0.000000
31.123200 0.000000
31.143900 0.000000
31.164600 0.000000
31.185300 0.000000
31.206100 0.000000
31.226800 0.000000
31.247500 0.000000
31.268200 0.000000
31.288900 0.000000
31.309700 0.000000
31.330400 0.000000
31.351100 0.000000
31.371800 0.000000
31.392500 0.000000
31.413300 0.000000
31.434000 0.000000
31.454700 0.000000
31.475400 0.000000
31.496100 0.000000
31.516900 0.000000
31.537600 0.000000
31.558300 0.000000
31.579000 0.000000
31.599700 0.000000
31.620400 0.000000
31.641200 0.000000
31.661900 0.000000
31.682600 0.000000
31.703300 0.000000
31.724000 0.000000
31.744800 0.000000
31.765500 0.000000
e
