set title 'mp-673171 - Density of States'
set xlabel 'Energy (eV)'
set ylabel 'DOS (states/eV)'
set grid
set xrange [-10:10]
set yrange [0:1.483]
set xzeroaxis lt -1
set terminal png size 800,600
set output 'mp-673171_dos_gnuplot.png'
plot '-' using 1:2 with lines title 'DOS'
-18.792800 0.000000
-18.738500 0.000000
-18.684200 0.000000
-18.630000 0.000000
-18.575700 0.000000
-18.521400 0.000000
-18.467200 0.000000
-18.412900 0.000000
-18.358600 0.000000
-18.304400 0.000000
-18.250100 0.000000
-18.195800 0.000000
-18.141600 0.000000
-18.087300 0.000000
-18.033000 0.000000
-17.978800 0.000000
-17.924500 0.000000
-17.870200 0.000000
-17.816000 0.000000
-17.761700 0.000000
-17.707400 0.000000
-17.653200 0.000000
-17.598900 0.000000
-17.544600 0.000000
-17.490400 0.000000
-17.436100 0.000000
-17.381800 0.000000
-17.327600 0.000000
-17.273300 0.000000
-17.219000 0.000000
-17.164800 0.000000
-17.110500 0.000000
-17.056200 0.000000
-17.002000 0.000000
-16.947700 0.000000
-16.893400 0.000000
-16.839200 0.000000
-16.784900 0.000000
-16.730600 0.000000
-16.676400 0.000000
-16.622100 0.000000
-16.567800 0.000000
-16.513600 0.000000
-16.459300 0.000000
-16.405000 0.000000
-16.350800 0.000000
-16.296500 0.000000
-16.242200 0.000000
-16.188000 0.000000
-16.133700 0.000000
-16.079400 0.000000
-16.025200 0.000000
-15.970900 0.000000
-15.916600 0.000000
-15.862400 0.000000
-15.808100 0.000000
-15.753800 0.000000
-15.699600 0.000000
-15.645300 0.000000
-15.591000 0.000000
-15.536800 0.000000
-15.482500 0.000000
-15.428200 0.000000
-15.374000 0.000000
-15.319700 0.000000
-15.265400 0.000000
-15.211200 0.000000
-15.156900 0.000000
-15.102600 0.000000
-15.048400 0.000000
-14.994100 0.000000
-14.939800 0.000000
-14.885500 0.000000
-14.831300 0.000000
-14.777000 0.000000
-14.722700 0.000000
-14.668500 0.000000
-14.614200 0.000000
-14.559900 0.000000
-14.505700 0.000000
-14.451400 0.000000
-14.397100 0.000000
-14.342900 0.000000
-14.288600 0.000000
-14.234300 0.000000
-14.180100 0.000000
-14.125800 0.000000
-14.071500 0.000000
-14.017300 0.000000
-13.963000 0.000000
-13.908700 0.000000
-13.854500 0.022000
-13.800200 0.064600
-13.745900 0.082500
-13.691700 0.109200
-13.637400 0.123500
-13.583100 0.139800
-13.528900 0.162300
-13.474600 0.174700
-13.420300 0.191300
-13.366100 0.210400
-13.311800 0.228800
-13.257500 0.246400
-13.203300 0.266800
-13.149000 0.289100
-13.094700 0.311600
-13.040500 0.337600
-12.986200 0.364700
-12.931900 0.396500
-12.877700 0.431200
-12.823400 0.472300
-12.769100 0.522400
-12.714900 0.576300
-12.660600 0.651100
-12.606300 0.748100
-12.552100 0.887200
-12.497800 1.114500
-12.443500 1.583300
-12.389300 1.531000
-12.335000 1.615800
-12.280700 1.089100
-12.226500 0.651900
-12.172200 0.519600
-12.117900 0.434900
-12.063700 0.369500
-12.009400 0.313200
-11.955100 0.264900
-11.900900 0.229700
-11.846600 0.190600
-11.792300 0.157200
-11.738100 0.126600
-11.683800 0.089000
-11.629500 0.049300
-11.575300 0.000000
-11.521000 0.000000
-11.466700 0.000000
-11.412500 0.000000
-11.358200 0.000000
-11.303900 0.000000
-11.249700 0.000000
-11.195400 0.000000
-11.141100 0.000000
-11.086900 0.000000
-11.032600 0.000000
-10.978300 0.000000
-10.924100 0.000000
-10.869800 0.000000
-10.815500 0.000000
-10.761300 0.000000
-10.707000 0.000000
-10.652700 0.000000
-10.598500 0.000000
-10.544200 0.000000
-10.489900 0.000000
-10.435700 0.000000
-10.381400 0.000000
-10.327100 0.000000
-10.272800 0.000000
-10.218600 0.000000
-10.164300 0.000000
-10.110000 0.000000
-10.055800 0.000000
-10.001500 0.000000
-9.947200 0.000000
-9.893000 0.000000
-9.838700 0.000000
-9.784400 0.000000
-9.730200 0.000000
-9.675900 0.000000
-9.621600 0.000000
-9.567400 0.000000
-9.513100 0.000000
-9.458800 0.000000
-9.404600 0.000000
-9.350300 0.000000
-9.296000 0.000000
-9.241800 0.000000
-9.187500 0.000000
-9.133200 0.000000
-9.079000 0.000000
-9.024700 0.000000
-8.970400 0.000000
-8.916200 0.000000
-8.861900 0.000000
-8.807600 0.000000
-8.753400 0.000000
-8.699100 0.000000
-8.644800 0.000000
-8.590600 0.000000
-8.536300 0.000000
-8.482000 0.000000
-8.427800 0.000000
-8.373500 0.000000
-8.319200 0.000000
-8.265000 0.000000
-8.210700 0.000000
-8.156400 0.000000
-8.102200 0.000000
-8.047900 0.000000
-7.993600 0.000000
-7.939400 0.000000
-7.885100 0.000000
-7.830800 0.000000
-7.776600 0.000000
-7.722300 0.000000
-7.668000 0.000000
-7.613800 0.000000
-7.559500 0.000000
-7.505200 0.000000
-7.451000 0.000000
-7.396700 0.000000
-7.342400 0.000000
-7.288200 0.000000
-7.233900 0.000000
-7.179600 0.000000
-7.125400 0.000000
-7.071100 0.000000
-7.016800 0.000000
-6.962600 0.000000
-6.908300 0.000000
-6.854000 0.000000
-6.799800 0.000000
-6.745500 0.000000
-6.691200 0.000000
-6.637000 0.000000
-6.582700 0.000000
-6.528400 0.000000
-6.474200 0.000000
-6.419900 0.000000
-6.365600 0.000000
-6.311400 0.000000
-6.257100 0.000000
-6.202800 0.000000
-6.148600 0.000000
-6.094300 0.000000
-6.040000 0.000000
-5.985800 0.000000
-5.931500 0.000000
-5.877200 0.000000
-5.823000 0.000000
-5.768700 0.000000
-5.714400 0.000000
-5.660100 0.000000
-5.605900 0.000000
-5.551600 0.000000
-5.497300 0.000000
-5.443100 0.000000
-5.388800 0.000000
-5.334500 0.000000
-5.280300 0.000000
-5.226000 0.000000
-5.171700 0.000000
-5.117500 0.000000
-5.063200 0.000000
-5.008900 0.000000
-4.954700 0.000000
-4.900400 0.000000
-4.846100 0.000000
-4.791900 0.000000
-4.737600 0.000000
-4.683300 0.000000
-4.629100 0.000000
-4.574800 0.000000
-4.520500 0.000000
-4.466300 0.000000
-4.412000 0.000000
-4.357700 0.000000
-4.303500 0.000000
-4.249200 0.000000
-4.194900 0.000000
-4.140700 0.000000
-4.086400 0.000000
-4.032100 0.000000
-3.977900 0.000000
-3.923600 0.000000
-3.869300 0.000000
-3.815100 0.000000
-3.760800 0.000000
-3.706500 0.000000
-3.652300 0.000000
-3.598000 0.000000
-3.543700 0.000000
-3.489500 0.000000
-3.435200 0.000000
-3.380900 0.000000
-3.326700 0.000000
-3.272400 0.000000
-3.218100 0.000000
-3.163900 0.000000
-3.109600 0.000000
-3.055300 0.000000
-3.001100 0.028500
-2.946800 0.120300
-2.892500 0.182700
-2.838300 0.236900
-2.784000 0.278800
-2.729700 0.309000
-2.675500 0.352300
-2.621200 0.399000
-2.566900 0.437700
-2.512700 0.487700
-2.458400 0.535500
-2.404100 0.599600
-2.349900 0.683000
-2.295600 0.832400
-2.241300 1.046400
-2.187100 0.943200
-2.132800 0.869100
-2.078500 0.771500
-2.024300 0.706700
-1.970000 0.643400
-1.915700 0.541100
-1.861500 0.504500
-1.807200 0.476500
-1.752900 0.452700
-1.698700 0.432900
-1.644400 0.413100
-1.590100 0.399900
-1.535900 0.387900
-1.481600 0.365100
-1.427300 0.343900
-1.373100 0.341300
-1.318800 0.328600
-1.264500 0.329100
-1.210200 0.343700
-1.156000 0.371500
-1.101700 0.419100
-1.047400 0.467300
-0.993200 0.525100
-0.938900 0.520000
-0.884600 0.502000
-0.830400 0.504800
-0.776100 0.508900
-0.721800 0.515600
-0.667600 0.524600
-0.613300 0.541000
-0.559000 0.543500
-0.504800 0.543600
-0.450500 0.543800
-0.396200 0.552700
-0.342000 0.556100
-0.287700 0.562100
-0.233400 0.574900
-0.179200 0.591400
-0.124900 0.592600
-0.070600 0.592000
-0.016400 0.598900
0.037900 0.608100
0.092200 0.616700
0.146400 0.638700
0.200700 0.645700
0.255000 0.653500
0.309200 0.664200
0.363500 0.698100
0.417800 0.696900
0.472000 0.726200
0.526300 0.734400
0.580600 0.741500
0.634800 0.688200
0.689100 0.664200
0.743400 0.640600
0.797600 0.631900
0.851900 0.627900
0.906200 0.653700
0.960400 0.675200
1.014700 0.685700
1.069000 0.698700
1.123200 0.714900
1.177500 0.750400
1.231800 0.794600
1.286000 0.858200
1.340300 1.184000
1.394600 1.348600
1.448800 1.176900
1.503100 1.020300
1.557400 0.944200
1.611600 0.896800
1.665900 0.833400
1.720200 0.783800
1.774400 0.741700
1.828700 0.656700
1.883000 0.477400
1.937200 0.382700
1.991500 0.289600
2.045800 0.265600
2.100000 0.000000
2.154300 0.000000
2.208600 0.000000
2.262800 0.000000
2.317100 0.000000
2.371400 0.000000
2.425600 0.000000
2.479900 0.000000
2.534200 0.000000
2.588400 0.000000
2.642700 0.000000
2.697000 0.000000
2.751200 0.000000
2.805500 0.000000
2.859800 0.000000
2.914000 0.000000
2.968300 0.000000
3.022600 0.000000
3.076800 0.000000
3.131100 0.000000
3.185400 0.000000
3.239600 0.000000
3.293900 0.000000
3.348200 0.000000
3.402500 0.000000
3.456700 0.000000
3.511000 0.000000
3.565300 0.000000
3.619500 0.000000
3.673800 0.000000
3.728100 0.000000
3.782300 0.000000
3.836600 0.000000
3.890900 0.000000
3.945100 0.000000
3.999400 0.000000
4.053700 0.000000
4.107900 0.000000
4.162200 0.000000
4.216500 0.000000
4.270700 0.000000
4.325000 0.000000
4.379300 0.000000
4.433500 0.000000
4.487800 0.000000
4.542100 0.000000
4.596300 0.000000
4.650600 0.000000
4.704900 0.000000
4.759100 0.000000
4.813400 0.000000
4.867700 0.000000
4.921900 0.000000
4.976200 0.000000
5.030500 0.000000
5.084700 0.000000
5.139000 0.000000
5.193300 0.000000
5.247500 0.000000
5.301800 0.000000
5.356100 0.000000
5.410300 0.000000
5.464600 0.000000
5.518900 0.000000
5.573100 0.000000
5.627400 0.000000
5.681700 0.000000
5.735900 0.000000
5.790200 0.000000
5.844500 0.000000
5.898700 0.000000
5.953000 0.000000
6.007300 0.000000
6.061500 0.000000
6.115800 0.000000
6.170100 0.000000
6.224300 0.000000
6.278600 0.000000
6.332900 0.000000
6.387100 0.000000
6.441400 0.000000
6.495700 0.000000
6.549900 0.000000
6.604200 0.000000
6.658500 0.000000
6.712700 0.000000
6.767000 0.000000
6.821300 0.000000
6.875500 0.000000
6.929800 0.000000
6.984100 0.000000
7.038300 0.000000
7.092600 0.000000
7.146900 0.000000
7.201100 0.000000
7.255400 0.000000
7.309700 0.000000
7.363900 0.000000
7.418200 0.000000
7.472500 0.000000
7.526700 0.000000
7.581000 0.000000
7.635300 0.000000
7.689500 0.000000
7.743800 0.000000
7.798100 0.000000
7.852300 0.000000
7.906600 0.000000
7.960900 0.000000
8.015200 0.006400
8.069400 0.010600
8.123700 0.022400
8.178000 0.029600
8.232200 0.033700
8.286500 0.036200
8.340800 0.040700
8.395000 0.045200
8.449300 0.049500
8.503600 0.053800
8.557800 0.059700
8.612100 0.062500
8.666400 0.063300
8.720600 0.062700
8.774900 0.066200
8.829200 0.069800
8.883400 0.073600
8.937700 0.076700
8.992000 0.080700
9.046200 0.084700
9.100500 0.088700
9.154800 0.093400
9.209000 0.125200
9.263300 0.146700
9.317600 0.163900
9.371800 0.179600
9.426100 0.197800
9.480400 0.216100
9.534600 0.229600
9.588900 0.249000
9.643200 0.271300
9.697400 0.294600
9.751700 0.314400
9.806000 0.330800
9.860200 0.363200
9.914500 0.397900
9.968800 0.449700
10.023000 0.471900
10.077300 0.486500
10.131600 0.498600
10.185800 0.497900
10.240100 0.500000
10.294400 0.508200
10.348600 0.516300
10.402900 0.521400
10.457200 0.527400
10.511400 0.539400
10.565700 0.558500
10.620000 0.594300
10.674200 0.637300
10.728500 0.678400
10.782800 0.751700
10.837000 0.746800
10.891300 0.682300
10.945600 0.615800
10.999800 0.525100
11.054100 0.478800
11.108400 0.439300
11.162600 0.397700
11.216900 0.351600
11.271200 0.395600
11.325400 0.393000
11.379700 0.393800
11.434000 0.412900
11.488200 0.427500
11.542500 0.463600
11.596800 0.497000
11.651000 0.544600
11.705300 0.599300
11.759600 0.652700
11.813800 0.710700
11.868100 0.797700
11.922400 0.939000
11.976600 1.000400
12.030900 1.030400
12.085200 1.019000
12.139400 0.976900
12.193700 0.913700
12.248000 0.815000
12.302200 0.733400
12.356500 0.657300
12.410800 0.579400
12.465100 0.506300
12.519300 0.442800
12.573600 0.378800
12.627900 0.326900
12.682100 0.291200
12.736400 0.260600
12.790700 0.252700
12.844900 0.248200
12.899200 0.251600
12.953500 0.262100
13.007700 0.275800
13.062000 0.281700
13.116300 0.307300
13.170500 0.339200
13.224800 0.380100
13.279100 0.431900
13.333300 0.483300
13.387600 0.530300
13.441900 0.571600
13.496100 0.593800
13.550400 0.574500
13.604700 0.549400
13.658900 0.532500
13.713200 0.515700
13.767500 0.497800
13.821700 0.477500
13.876000 0.487500
13.930300 0.451300
13.984500 0.462200
14.038800 0.451900
14.093100 0.430000
14.147300 0.397100
14.201600 0.376600
14.255900 0.361800
14.310100 0.357500
14.364400 0.369900
14.418700 0.360200
14.472900 0.365500
14.527200 0.373300
14.581500 0.394800
14.635700 0.388700
14.690000 0.400900
14.744300 0.411100
14.798500 0.418000
14.852800 0.423600
14.907100 0.427500
14.961300 0.432600
15.015600 0.442100
15.069900 0.436500
15.124100 0.435100
15.178400 0.441700
15.232700 0.453100
15.286900 0.477700
15.341200 0.480900
15.395500 0.481800
15.449700 0.485700
15.504000 0.483100
15.558300 0.488200
15.612500 0.494800
15.666800 0.501200
15.721100 0.509800
15.775300 0.504300
15.829600 0.484800
15.883900 0.493300
15.938100 0.497800
15.992400 0.487100
16.046700 0.478500
16.100900 0.465000
16.155200 0.458200
16.209500 0.452500
16.263700 0.446400
16.318000 0.446900
16.372300 0.437100
16.426500 0.461100
16.480800 0.472100
16.535100 0.472700
16.589300 0.475700
16.643600 0.475900
16.697900 0.484200
16.752100 0.480600
16.806400 0.469900
16.860700 0.447100
16.914900 0.445500
16.969200 0.456600
17.023500 0.441800
17.077800 0.464500
17.132000 0.443700
17.186300 0.437800
17.240600 0.430300
17.294800 0.422900
17.349100 0.425100
17.403400 0.424300
17.457600 0.435000
17.511900 0.428500
17.566200 0.427100
17.620400 0.433000
17.674700 0.437400
17.729000 0.439800
17.783200 0.428000
17.837500 0.397600
17.891800 0.384700
17.946000 0.372200
18.000300 0.365000
18.054600 0.376400
18.108800 0.377700
18.163100 0.379200
18.217400 0.382800
18.271600 0.379900
18.325900 0.386900
18.380200 0.396100
18.434400 0.401600
18.488700 0.410300
18.543000 0.425400
18.597200 0.443500
18.651500 0.460900
18.705800 0.478500
18.760000 0.503900
18.814300 0.555500
18.868600 0.586600
18.922800 0.664100
18.977100 0.757800
19.031400 0.780900
19.085600 0.754800
19.139900 0.754200
19.194200 0.765900
19.248400 0.751500
19.302700 0.631500
19.357000 0.509900
19.411200 0.441100
19.465500 0.405500
19.519800 0.382800
19.574000 0.383200
19.628300 0.384400
19.682600 0.423300
19.736800 0.355900
19.791100 0.331000
19.845400 0.323500
19.899600 0.339900
19.953900 0.341800
20.008200 0.352400
20.062400 0.336000
20.116700 0.332300
20.171000 0.339800
20.225200 0.343000
20.279500 0.346700
20.333800 0.347600
20.388000 0.352500
20.442300 0.366100
20.496600 0.367000
20.550800 0.382500
20.605100 0.397600
20.659400 0.405500
20.713600 0.410600
20.767900 0.406900
20.822200 0.384200
20.876400 0.368900
20.930700 0.363200
20.985000 0.359700
21.039200 0.351500
21.093500 0.346500
21.147800 0.343000
21.202000 0.330400
21.256300 0.328600
21.310600 0.332500
21.364800 0.333500
21.419100 0.332100
21.473400 0.351200
21.527600 0.361300
21.581900 0.402100
21.636200 0.428400
21.690500 0.450300
21.744700 0.480300
21.799000 0.510000
21.853300 0.542900
21.907500 0.581800
21.961800 0.635300
22.016100 0.710000
22.070300 0.668700
22.124600 0.652500
22.178900 0.657600
22.233100 0.673000
22.287400 0.674800
22.341700 0.652600
22.395900 0.627200
22.450200 0.566700
22.504500 0.536800
22.558700 0.497300
22.613000 0.466700
22.667300 0.480000
22.721500 0.505800
22.775800 0.554100
22.830100 0.538000
22.884300 0.511900
22.938600 0.508700
22.992900 0.519100
23.047100 0.506500
23.101400 0.501500
23.155700 0.494500
23.209900 0.486900
23.264200 0.470300
23.318500 0.453800
23.372700 0.446000
23.427000 0.404400
23.481300 0.385900
23.535500 0.461000
23.589800 0.434600
23.644100 0.396800
23.698300 0.409600
23.752600 0.422900
23.806900 0.436900
23.861100 0.458300
23.915400 0.488400
23.969700 0.497500
24.023900 0.514700
24.078200 0.505200
24.132500 0.499500
24.186700 0.492400
24.241000 0.490500
24.295300 0.497700
24.349500 0.489300
24.403800 0.481200
24.458100 0.476700
24.512300 0.475300
24.566600 0.473500
24.620900 0.478500
24.675100 0.477100
24.729400 0.473200
24.783700 0.469100
24.837900 0.473400
24.892200 0.473100
24.946500 0.472600
25.000700 0.482900
25.055000 0.492000
25.109300 0.512100
25.163500 0.535100
25.217800 0.585000
25.272100 0.578600
25.326300 0.548400
25.380600 0.545100
25.434900 0.580700
25.489100 0.638100
25.543400 0.664600
25.597700 0.637100
25.651900 0.583200
25.706200 0.579000
25.760500 0.579600
25.814700 0.579100
25.869000 0.567100
25.923300 0.610000
25.977500 0.509100
26.031800 0.501000
26.086100 0.483500
26.140300 0.479500
26.194600 0.476800
26.248900 0.474400
26.303200 0.467900
26.357400 0.465600
26.411700 0.474100
26.466000 0.488900
26.520200 0.565200
26.574500 0.600800
26.628800 0.634200
26.683000 0.664200
26.737300 0.678400
26.791600 0.682100
26.845800 0.669400
26.900100 0.657300
26.954400 0.643900
27.008600 0.635300
27.062900 0.620000
27.117200 0.570600
27.171400 0.538100
27.225700 0.508900
27.280000 0.491900
27.334200 0.483400
27.388500 0.498600
27.442800 0.479400
27.497000 0.470800
27.551300 0.464900
27.605600 0.461600
27.659800 0.455900
27.714100 0.451300
27.768400 0.448400
27.822600 0.446600
27.876900 0.445900
27.931200 0.446900
27.985400 0.451500
28.039700 0.457500
28.094000 0.464200
28.148200 0.478100
28.202500 0.503700
28.256800 0.537100
28.311000 0.561900
28.365300 0.594300
28.419600 0.620600
28.473800 0.660500
28.528100 0.667800
28.582400 0.672000
28.636600 0.673600
28.690900 0.684100
28.745200 0.696800
28.799400 0.726000
28.853700 0.767300
28.908000 0.716000
28.962200 0.721100
29.016500 0.718900
29.070800 0.745700
29.125000 0.769700
29.179300 0.785200
29.233600 0.749700
29.287800 0.695800
29.342100 0.662900
29.396400 0.629700
29.450600 0.601900
29.504900 0.566200
29.559200 0.561600
29.613400 0.561100
29.667700 0.565800
29.722000 0.566800
29.776200 0.563200
29.830500 0.550400
29.884800 0.521300
29.939000 0.495200
29.993300 0.474700
30.047600 0.470700
30.101800 0.474800
30.156100 0.495000
30.210400 0.504000
30.264600 0.504900
30.318900 0.497900
30.373200 0.490800
30.427400 0.483100
30.481700 0.480100
30.536000 0.474600
30.590200 0.465000
30.644500 0.451600
30.698800 0.441000
30.753100 0.442500
30.807300 0.434100
30.861600 0.431900
30.915900 0.427300
30.970100 0.420100
31.024400 0.408600
31.078700 0.400300
31.132900 0.405100
31.187200 0.409100
31.241500 0.411900
31.295700 0.436200
31.350000 0.459000
31.404300 0.544600
31.458500 0.554300
31.512800 0.571100
31.567100 0.576300
31.621300 0.576300
31.675600 0.554300
31.729900 0.582300
31.784100 0.576600
31.838400 0.564500
31.892700 0.545500
31.946900 0.541000
32.001200 0.535800
32.055500 0.534300
32.109700 0.534700
32.164000 0.540500
32.218300 0.558100
32.272500 0.597100
32.326800 0.614800
32.381100 0.589900
32.435300 0.611400
32.489600 0.628400
32.543900 0.657500
32.598100 0.624000
32.652400 0.604800
32.706700 0.591000
32.760900 0.497000
32.815200 0.490200
32.869500 0.497500
32.923700 0.510200
32.978000 0.519500
33.032300 0.534900
33.086500 0.548800
33.140800 0.566600
33.195100 0.585400
33.249300 0.601500
33.303600 0.614300
33.357900 0.646700
33.412100 0.678500
33.466400 0.692800
33.520700 0.722200
33.574900 0.755600
33.629200 0.792900
33.683500 0.814400
33.737700 0.810300
33.792000 0.777100
33.846300 0.742600
33.900500 0.717500
33.954800 0.688900
34.009100 0.701700
34.063300 0.607700
34.117600 0.582500
34.171900 0.559900
34.226100 0.540600
34.280400 0.528200
34.334700 0.523500
34.388900 0.533700
34.443200 0.566000
34.497500 0.585700
34.551700 0.578900
34.606000 0.582100
34.660300 0.586500
34.714500 0.588600
34.768800 0.602100
34.823100 0.595500
34.877300 0.620700
34.931600 0.565600
34.985900 0.558800
35.040100 0.561100
35.094400 0.554200
35.148700 0.556500
35.202900 0.565800
35.257200 0.583900
35.311500 0.598000
35.365800 0.609800
35.420000 0.636300
35.474300 0.674600
35.528600 0.706400
35.582800 0.697200
35.637100 0.677000
35.691400 0.647400
35.745600 0.604400
35.799900 0.565500
35.854200 0.532000
35.908400 0.503800
35.962700 0.482300
36.017000 0.465100
36.071200 0.462500
36.125500 0.464900
36.179800 0.480100
36.234000 0.513200
36.288300 0.537400
36.342600 0.582100
36.396800 0.607100
36.451100 0.609200
36.505400 0.599900
36.559600 0.590600
36.613900 0.592800
36.668200 0.599500
36.722400 0.608600
36.776700 0.635600
36.831000 0.670400
36.885200 0.671200
36.939500 0.670800
36.993800 0.673200
37.048000 0.668300
37.102300 0.649700
37.156600 0.628300
37.210800 0.601400
37.265100 0.592400
37.319400 0.591300
37.373600 0.581400
37.427900 0.564500
37.482200 0.563100
37.536400 0.556900
37.590700 0.567500
37.645000 0.589700
37.699200 0.623100
37.753500 0.660500
37.807800 0.708100
37.862000 0.743800
37.916300 0.759200
37.970600 0.771200
38.024800 0.740300
38.079100 0.708800
38.133400 0.684900
38.187600 0.663300
38.241900 0.643600
38.296200 0.607500
38.350400 0.582400
38.404700 0.550200
38.459000 0.533900
38.513200 0.526900
38.567500 0.530900
38.621800 0.542800
38.676000 0.549700
38.730300 0.559600
38.784600 0.566300
38.838800 0.572400
38.893100 0.585300
38.947400 0.600700
39.001600 0.622800
39.055900 0.657300
39.110200 0.691200
39.164400 0.732000
39.218700 0.774200
39.273000 0.796500
39.327200 0.787400
39.381500 0.806900
39.435800 0.848100
39.490000 0.874300
39.544300 0.886500
39.598600 0.828500
39.652800 0.759900
39.707100 0.704200
39.761400 0.664700
39.815600 0.637600
39.869900 0.629000
39.924200 0.633500
39.978500 0.640300
40.032700 0.641500
40.087000 0.636300
40.141300 0.628700
40.195500 0.622800
40.249800 0.618400
40.304100 0.604100
40.358300 0.592200
40.412600 0.597900
40.466900 0.584800
40.521100 0.572800
40.575400 0.564800
40.629700 0.565900
40.683900 0.564200
40.738200 0.562300
40.792500 0.561300
40.846700 0.565600
40.901000 0.570300
40.955300 0.576600
41.009500 0.586400
41.063800 0.595700
41.118100 0.606000
41.172300 0.611600
41.226600 0.615600
41.280900 0.623900
41.335100 0.622800
41.389400 0.610700
41.443700 0.589400
41.497900 0.583900
41.552200 0.568500
41.606500 0.567400
41.660700 0.572000
41.715000 0.579900
41.769300 0.604200
41.823500 0.664300
41.877800 0.635900
41.932100 0.588800
41.986300 0.611000
42.040600 0.632100
42.094900 0.641100
42.149100 0.637300
42.203400 0.646500
42.257700 0.646300
42.311900 0.684300
42.366200 0.607500
42.420500 0.626800
42.474700 0.667600
42.529000 0.617100
42.583300 0.589200
42.637500 0.574400
42.691800 0.570600
42.746100 0.556000
42.800300 0.561300
42.854600 0.578700
42.908900 0.599300
42.963100 0.621700
43.017400 0.637000
43.071700 0.638800
43.125900 0.649800
43.180200 0.658000
43.234500 0.674400
43.288700 0.685800
43.343000 0.694500
43.397300 0.701700
43.451500 0.696000
43.505800 0.688000
43.560100 0.694500
43.614300 0.686600
43.668600 0.664000
43.722900 0.667200
43.777100 0.675900
43.831400 0.683500
43.885700 0.688100
43.939900 0.687200
43.994200 0.688900
44.048500 0.687000
44.102700 0.679900
44.157000 0.676900
44.211300 0.683900
44.265500 0.677600
44.319800 0.660400
44.374100 0.643000
44.428400 0.651100
44.482600 0.648400
44.536900 0.649500
44.591200 0.652800
44.645400 0.662800
44.699700 0.666400
44.754000 0.670700
44.808200 0.683100
44.862500 0.692000
44.916800 0.696200
44.971000 0.690400
45.025300 0.682000
45.079600 0.703600
45.133800 0.709400
45.188100 0.715100
45.242400 0.726600
45.296600 0.707200
45.350900 0.713100
45.405200 0.716300
45.459400 0.688600
45.513700 0.666800
45.568000 0.676200
45.622200 0.691300
45.676500 0.725400
45.730800 0.721200
45.785000 0.719000
45.839300 0.707900
45.893600 0.696700
45.947800 0.665200
46.002100 0.685300
46.056400 0.679500
46.110600 0.671100
46.164900 0.659000
46.219200 0.657400
46.273400 0.658600
46.327700 0.657200
46.382000 0.655900
46.436200 0.659600
46.490500 0.659600
46.544800 0.655600
46.599000 0.653100
46.653300 0.645800
46.707600 0.636800
46.761800 0.629000
46.816100 0.605400
46.870400 0.605300
46.924600 0.616500
46.978900 0.638500
47.033200 0.678500
47.087400 0.717800
47.141700 0.742900
47.196000 0.760000
47.250200 0.762600
47.304500 0.755800
47.358800 0.739200
47.413000 0.721100
47.467300 0.709700
47.521600 0.708400
47.575800 0.708300
47.630100 0.725400
47.684400 0.729400
47.738600 0.727200
47.792900 0.761600
47.847200 0.791800
47.901400 0.730500
47.955700 0.720200
48.010000 0.712300
48.064200 0.707600
48.118500 0.695100
48.172800 0.666100
48.227000 0.669700
48.281300 0.662100
48.335600 0.638500
48.389800 0.668900
48.444100 0.754500
48.498400 0.767300
48.552600 0.807000
48.606900 0.880800
48.661200 0.799200
48.715400 0.738800
48.769700 0.732300
48.824000 0.745400
48.878200 0.732000
48.932500 0.734300
48.986800 0.731400
49.041100 0.715700
49.095300 0.678800
49.149600 0.637300
49.203900 0.601000
49.258100 0.590400
49.312400 0.599900
49.366700 0.620600
49.420900 0.638800
49.475200 0.651400
49.529500 0.674100
49.583700 0.704000
49.638000 0.710300
49.692300 0.718800
49.746500 0.726500
49.800800 0.721400
49.855100 0.713200
49.909300 0.722500
49.963600 0.768900
50.017900 0.776800
50.072100 0.734100
50.126400 0.706800
50.180700 0.691900
50.234900 0.681000
50.289200 0.682500
50.343500 0.683100
50.397700 0.686600
50.452000 0.657700
50.506300 0.648000
50.560500 0.647800
50.614800 0.652300
50.669100 0.637400
50.723300 0.634200
50.777600 0.639400
50.831900 0.642700
50.886100 0.649000
50.940400 0.664800
50.994700 0.663400
51.048900 0.662200
51.103200 0.646900
51.157500 0.634100
51.211700 0.631500
51.266000 0.634800
51.320300 0.662200
51.374500 0.656800
51.428800 0.670800
51.483100 0.691600
51.537300 0.728200
51.591600 0.744800
51.645900 0.721700
51.700100 0.658500
51.754400 0.639900
51.808700 0.630000
51.862900 0.612700
51.917200 0.570200
51.971500 0.555400
52.025700 0.563900
52.080000 0.571700
52.134300 0.628600
52.188500 0.739100
52.242800 0.809300
52.297100 0.873900
52.351300 0.956200
52.405600 1.014300
52.459900 1.025100
52.514100 1.010600
52.568400 1.019700
52.622700 0.966300
52.676900 0.942000
52.731200 0.925200
52.785500 0.917100
52.839700 0.900300
52.894000 0.862100
52.948300 0.823800
53.002500 0.795100
53.056800 0.754000
53.111100 0.714400
53.165300 0.653600
53.219600 0.630600
53.273900 0.586500
53.328100 0.527400
53.382400 0.505300
53.436700 0.498900
53.490900 0.495200
53.545200 0.498800
53.599500 0.510000
53.653800 0.525800
53.708000 0.537300
53.762300 0.547000
53.816600 0.569800
53.870800 0.581600
53.925100 0.593700
53.979400 0.607900
54.033600 0.627300
54.087900 0.648000
54.142200 0.675700
54.196400 0.692400
54.250700 0.725800
54.305000 0.738400
54.359200 0.771400
54.413500 0.769800
54.467800 0.781100
54.522000 0.790800
54.576300 0.853400
54.630600 0.805900
54.684800 0.776800
54.739100 0.766700
54.793400 0.752200
54.847600 0.740500
54.901900 0.733700
54.956200 0.722500
55.010400 0.700000
55.064700 0.690300
55.119000 0.691600
55.173200 0.716500
55.227500 0.737000
55.281800 0.750200
55.336000 0.764100
55.390300 0.746300
55.444600 0.703600
55.498800 0.703800
55.553100 0.667100
55.607400 0.654900
55.661600 0.657900
55.715900 0.668600
55.770200 0.685800
55.824400 0.709800
55.878700 0.743300
55.933000 0.740700
55.987200 0.739000
56.041500 0.741100
56.095800 0.744100
56.150000 0.751500
56.204300 0.742800
56.258600 0.728500
56.312800 0.713000
56.367100 0.705700
56.421400 0.705600
56.475600 0.698400
56.529900 0.695300
56.584200 0.706500
56.638400 0.706300
56.692700 0.716000
56.747000 0.735000
56.801200 0.747100
56.855500 0.755600
56.909800 0.782800
56.964000 0.799100
57.018300 0.816500
57.072600 0.834600
57.126800 0.841800
57.181100 0.823800
57.235400 0.791300
57.289600 0.753000
57.343900 0.743500
57.398200 0.722600
57.452400 0.720000
57.506700 0.756000
57.561000 0.766500
57.615200 0.751800
57.669500 0.761200
57.723800 0.779100
57.778000 0.801600
57.832300 0.855100
57.886600 0.841900
57.940800 0.824700
57.995100 0.816400
58.049400 0.796300
58.103600 0.788100
58.157900 0.777000
58.212200 0.775800
58.266500 0.770900
58.320700 0.770800
58.375000 0.777200
58.429300 0.772500
58.483500 0.772200
58.537800 0.765200
58.592100 0.767300
58.646300 0.773500
58.700600 0.778800
58.754900 0.781700
58.809100 0.780800
58.863400 0.790500
58.917700 0.757800
58.971900 0.769700
59.026200 0.783500
59.080500 0.793400
59.134700 0.791000
59.189000 0.789200
59.243300 0.804600
59.297500 0.813200
59.351800 0.778500
59.406100 0.760200
59.460300 0.754000
59.514600 0.740700
59.568900 0.711500
59.623100 0.681200
59.677400 0.663500
59.731700 0.665700
59.785900 0.672700
59.840200 0.677500
59.894500 0.688300
59.948700 0.713300
60.003000 0.732800
60.057300 0.744600
60.111500 0.760200
60.165800 0.770400
60.220100 0.785000
60.274300 0.823900
60.328600 0.796300
60.382900 0.778900
60.437100 0.744400
60.491400 0.722100
60.545700 0.742200
60.599900 0.759200
60.654200 0.779200
60.708500 0.766600
60.762700 0.773700
60.817000 0.765300
60.871300 0.778800
60.925500 0.796200
60.979800 0.792100
61.034100 0.776200
61.088300 0.769000
61.142600 0.778500
61.196900 0.762000
61.251100 0.748400
61.305400 0.737500
61.359700 0.733100
61.413900 0.729400
61.468200 0.723900
61.522500 0.707500
61.576700 0.694300
61.631000 0.688100
61.685300 0.686300
61.739500 0.693500
61.793800 0.701200
61.848100 0.717500
61.902300 0.737100
61.956600 0.760300
62.010900 0.774500
62.065100 0.782200
62.119400 0.797400
62.173700 0.840400
62.227900 0.815300
62.282200 0.792000
62.336500 0.762900
62.390700 0.742200
62.445000 0.709200
62.499300 0.696100
62.553500 0.688100
62.607800 0.687900
62.662100 0.691500
62.716400 0.700600
62.770600 0.724100
62.824900 0.720500
62.879200 0.731700
62.933400 0.754100
62.987700 0.792200
63.042000 0.826700
63.096200 0.848200
63.150500 0.862400
63.204800 0.865100
63.259000 0.843700
63.313300 0.834600
63.367600 0.809200
63.421800 0.786200
63.476100 0.777200
63.530400 0.771300
63.584600 0.747800
63.638900 0.765300
63.693200 0.798100
63.747400 0.808200
63.801700 0.801600
63.856000 0.823500
63.910200 0.855700
63.964500 0.909700
64.018800 0.933700
64.073000 0.930000
64.127300 0.924600
64.181600 0.913800
64.235800 0.902800
64.290100 0.859500
64.344400 0.823700
64.398600 0.780500
64.452900 0.743900
64.507200 0.704400
64.561400 0.671400
64.615700 0.650600
64.670000 0.641900
64.724200 0.658000
64.778500 0.668400
64.832800 0.681200
64.887000 0.697700
64.941300 0.716000
64.995600 0.729500
65.049800 0.747900
65.104100 0.766100
65.158400 0.806800
65.212600 0.804900
65.266900 0.811400
65.321200 0.813500
65.375400 0.806600
65.429700 0.788800
65.484000 0.782900
65.538200 0.781200
65.592500 0.788500
65.646800 0.793600
65.701000 0.804000
65.755300 0.788300
65.809600 0.767400
65.863800 0.749500
65.918100 0.744700
65.972400 0.768800
66.026600 0.796200
66.080900 0.771100
66.135200 0.749200
66.189400 0.757800
66.243700 0.760600
66.298000 0.783800
66.352200 0.804000
66.406500 0.824000
66.460800 0.847900
66.515000 0.875400
66.569300 0.926700
66.623600 0.986600
66.677800 0.891800
66.732100 0.874400
66.786400 0.870300
66.840600 0.827400
66.894900 0.795000
66.949200 0.756000
67.003400 0.712800
67.057700 0.671900
67.112000 0.671400
67.166200 0.664300
67.220500 0.662600
67.274800 0.660900
67.329100 0.666000
67.383300 0.689300
67.437600 0.722500
67.491900 0.743800
67.546100 0.747100
67.600400 0.761500
67.654700 0.769200
67.708900 0.780400
67.763200 0.806700
67.817500 0.827700
67.871700 0.806700
67.926000 0.812300
67.980300 0.817300
68.034500 0.841300
68.088800 0.836100
68.143100 0.828200
68.197300 0.825800
68.251600 0.812500
68.305900 0.799100
68.360100 0.750600
68.414400 0.727000
68.468700 0.707500
68.522900 0.693600
68.577200 0.693800
68.631500 0.688900
68.685700 0.685800
68.740000 0.710300
68.794300 0.803800
68.848500 0.768800
68.902800 0.786600
68.957100 0.821200
69.011300 0.857700
69.065600 0.890300
69.119900 0.883200
69.174100 0.883600
69.228400 0.875900
69.282700 0.839000
69.336900 0.818200
69.391200 0.806800
69.445500 0.799900
69.499700 0.808500
69.554000 0.815400
69.608300 0.809800
69.662500 0.810300
69.716800 0.807800
69.771100 0.802700
69.825300 0.794300
69.879600 0.785500
69.933900 0.774700
69.988100 0.781000
70.042400 0.789700
70.096700 0.782900
70.150900 0.779200
70.205200 0.781300
70.259500 0.789500
70.313700 0.807800
70.368000 0.859700
70.422300 0.925200
70.476500 0.997800
70.530800 1.059400
70.585100 1.058400
70.639300 0.973700
70.693600 0.934800
70.747900 0.902300
70.802100 0.877100
70.856400 0.854100
70.910700 0.834500
70.964900 0.824200
71.019200 0.803500
71.073500 0.794700
71.127700 0.781900
71.182000 0.781200
71.236300 0.762300
71.290500 0.756900
71.344800 0.751400
71.399100 0.749600
71.453300 0.762800
71.507600 0.793100
71.561900 0.813200
71.616100 0.841300
71.670400 0.866000
71.724700 0.895800
71.778900 0.871700
71.833200 0.886500
71.887500 0.827000
71.941800 0.772100
71.996000 0.735900
72.050300 0.725600
72.104600 0.716700
72.158800 0.708900
72.213100 0.705500
72.267400 0.699000
72.321600 0.722600
72.375900 0.769900
72.430200 0.811500
72.484400 0.835200
72.538700 0.845800
72.593000 0.870500
72.647200 0.901800
72.701500 0.908300
72.755800 0.882000
72.810000 0.872600
72.864300 0.870100
72.918600 0.859100
72.972800 0.840700
73.027100 0.800600
73.081400 0.756400
73.135600 0.728200
73.189900 0.713800
73.244200 0.748200
73.298400 0.716900
73.352700 0.695600
73.407000 0.699100
73.461200 0.726500
73.515500 0.758500
73.569800 0.770700
73.624000 0.792500
73.678300 0.808600
73.732600 0.826000
73.786800 0.830700
73.841100 0.845400
73.895400 0.861800
73.949600 0.880200
74.003900 0.904100
74.058200 0.907700
74.112400 0.917900
74.166700 0.958800
74.221000 0.974400
74.275200 0.982600
74.329500 0.985700
74.383800 0.924700
74.438000 0.899600
74.492300 0.880400
74.546600 0.862300
74.600800 0.841100
74.655100 0.820200
74.709400 0.809900
74.763600 0.788300
74.817900 0.788400
74.872200 0.798800
74.926400 0.823100
74.980700 0.849000
75.035000 0.864000
75.089200 0.868200
75.143500 0.868100
75.197800 0.869600
75.252000 0.857900
75.306300 0.850700
75.360600 0.841700
75.414800 0.829900
75.469100 0.828600
75.523400 0.769000
75.577600 0.711200
75.631900 0.696600
75.686200 0.692500
75.740400 0.699000
75.794700 0.689800
75.849000 0.699200
75.903200 0.691900
75.957500 0.680200
76.011800 0.683500
76.066000 0.686400
76.120300 0.701800
76.174600 0.684800
76.228800 0.656300
76.283100 0.637600
76.337400 0.616900
76.391700 0.596200
76.445900 0.576300
76.500200 0.560200
76.554500 0.542500
76.608700 0.523700
76.663000 0.502800
76.717300 0.486900
76.771500 0.462600
76.825800 0.450000
76.880100 0.442500
76.934300 0.412600
76.988600 0.385100
77.042900 0.357200
77.097100 0.329400
77.151400 0.303000
77.205700 0.283300
77.259900 0.261300
77.314200 0.243000
77.368500 0.228100
77.422700 0.217200
77.477000 0.212300
77.531300 0.207400
77.585500 0.202100
77.639800 0.198600
77.694100 0.194600
77.748300 0.191000
77.802600 0.188600
77.856900 0.185700
77.911100 0.181200
77.965400 0.175400
78.019700 0.167800
78.073900 0.162400
78.128200 0.159000
78.182500 0.154700
78.236700 0.150400
78.291000 0.146100
78.345300 0.142200
78.399500 0.138500
78.453800 0.137100
78.508100 0.135300
78.562300 0.133600
78.616600 0.131800
78.670900 0.127700
78.725100 0.124200
78.779400 0.126200
78.833700 0.119700
78.887900 0.115200
78.942200 0.110900
78.996500 0.106700
79.050700 0.103300
79.105000 0.100200
79.159300 0.098400
79.213500 0.096700
79.267800 0.095200
79.322100 0.093800
79.376300 0.092400
79.430600 0.091800
79.484900 0.090700
79.539100 0.089600
79.593400 0.091500
79.647700 0.089400
79.701900 0.086900
79.756200 0.083900
79.810500 0.080500
79.864700 0.075700
79.919000 0.071700
79.973300 0.080000
80.027500 0.074800
80.081800 0.073600
80.136100 0.072100
80.190300 0.070000
80.244600 0.068000
80.298900 0.065800
80.353100 0.063700
80.407400 0.061800
80.461700 0.053800
80.515900 0.066100
80.570200 0.054600
80.624500 0.052700
80.678700 0.050000
80.733000 0.046600
80.787300 0.046300
80.841500 0.046100
80.895800 0.045800
80.950100 0.045600
81.004400 0.045400
81.058600 0.045200
81.112900 0.047500
81.167200 0.051700
81.221400 0.050700
81.275700 0.049000
81.330000 0.047100
81.384200 0.046600
81.438500 0.046100
81.492800 0.072400
81.547000 0.039700
81.601300 0.020500
81.655600 0.031400
81.709800 0.016400
81.764100 0.014900
81.818400 0.014200
81.872600 0.013500
81.926900 0.012900
81.981200 0.012300
82.035400 0.011800
82.089700 0.011300
82.144000 0.010800
82.198200 0.010300
82.252500 0.009900
82.306800 0.009500
82.361000 0.009100
82.415300 0.008700
82.469600 0.008400
82.523800 0.009600
82.578100 0.009300
82.632400 0.008100
82.686600 0.005800
82.740900 0.004200
82.795200 0.003800
82.849400 0.003500
82.903700 0.003200
82.958000 0.003000
83.012200 0.002800
83.066500 0.002700
83.120800 0.002600
83.175000 0.002500
83.229300 0.002400
83.283600 0.002300
83.337800 0.002200
83.392100 0.002100
83.446400 0.002000
83.500600 0.001900
83.554900 0.001800
83.609200 0.001700
83.663400 0.001600
83.717700 0.001500
83.772000 0.001500
83.826200 0.001400
83.880500 0.001300
83.934800 0.001200
83.989000 0.001200
84.043300 0.001100
84.097600 0.001000
84.151800 0.001000
84.206100 0.000900
84.260400 0.000800
84.314600 0.000800
84.368900 0.000700
84.423200 0.000700
84.477400 0.000600
84.531700 0.000500
84.586000 0.001300
84.640200 0.000000
84.694500 0.000000
84.748800 0.000000
84.803000 0.000000
84.857300 0.000000
84.911600 0.000000
84.965800 0.000000
85.020100 0.000000
85.074400 0.000000
85.128600 0.000000
85.182900 0.000000
85.237200 0.000000
85.291400 0.000000
85.345700 0.000000
85.400000 0.000000
85.454200 0.000000
85.508500 0.000000
85.562800 0.000000
85.617100 0.000000
85.671300 0.000000
85.725600 0.000000
85.779900 0.000000
85.834100 0.000000
85.888400 0.000000
85.942700 0.000000
85.996900 0.000000
86.051200 0.000000
86.105500 0.000000
86.159700 0.000000
86.214000 0.000000
86.268300 0.000000
86.322500 0.000000
86.376800 0.000000
86.431100 0.000000
86.485300 0.000000
86.539600 0.000000
86.593900 0.000000
86.648100 0.000000
86.702400 0.000000
86.756700 0.000000
86.810900 0.000000
86.865200 0.000000
86.919500 0.000000
86.973700 0.000000
87.028000 0.000000
87.082300 0.000000
87.136500 0.000000
87.190800 0.000000
87.245100 0.000000
87.299300 0.000000
87.353600 0.000000
87.407900 0.000000
87.462100 0.000000
87.516400 0.000000
87.570700 0.000000
87.624900 0.000000
87.679200 0.000000
87.733500 0.000000
87.787700 0.000000
87.842000 0.000000
87.896300 0.000000
87.950500 0.000000
88.004800 0.000000
88.059100 0.000000
88.113300 0.000000
88.167600 0.000000
88.221900 0.000000
88.276100 0.000000
88.330400 0.000000
88.384700 0.000000
88.438900 0.000000
88.493200 0.000000
88.547500 0.000000
88.601700 0.000000
88.656000 0.000000
88.710300 0.000000
88.764500 0.000000
88.818800 0.000000
88.873100 0.000000
88.927300 0.000000
88.981600 0.000000
89.035900 0.000000
89.090100 0.000000
89.144400 0.000000
89.198700 0.000000
89.252900 0.000000
89.307200 0.000000
89.361500 0.000000
89.415700 0.000000
89.470000 0.000000
89.524300 0.000000
89.578500 0.000000
89.632800 0.000000
89.687100 0.000000
89.741300 0.000000
e
