set title 'mp-1184031 - Density of States'
set xlabel 'Energy (eV)'
set ylabel 'DOS (states/eV)'
set grid
set xrange [-10:10]
set yrange [0:3.014]
set xzeroaxis lt -1
set terminal png size 800,600
set output 'mp-1184031_dos_gnuplot.png'
plot '-' using 1:2 with lines title 'DOS'
-18.890400 0.000000
-18.867100 0.000000
-18.843800 0.000000
-18.820500 0.000000
-18.797200 0.000000
-18.773900 0.000000
-18.750600 0.000000
-18.727300 0.000000
-18.704000 0.000000
-18.680700 0.000000
-18.657400 0.000000
-18.634100 0.000000
-18.610800 0.000000
-18.587500 0.000000
-18.564200 0.000000
-18.540900 0.000000
-18.517600 0.000000
-18.494300 0.000000
-18.471000 0.000000
-18.447700 0.000000
-18.424400 0.000000
-18.401100 0.000000
-18.377800 0.000000
-18.354500 0.000000
-18.331200 0.000000
-18.307900 0.000000
-18.284600 0.000000
-18.261300 0.000000
-18.238000 0.000000
-18.214700 0.000000
-18.191400 0.000000
-18.168100 0.000000
-18.144800 0.000000
-18.121500 0.000000
-18.098200 0.000000
-18.074900 0.000000
-18.051600 0.000000
-18.028300 0.000000
-18.005000 0.000000
-17.981700 0.000000
-17.958400 0.000000
-17.935100 0.000000
-17.911800 0.000000
-17.888500 0.000000
-17.865200 0.000000
-17.841900 0.000000
-17.818600 0.000000
-17.795300 0.000000
-17.772000 0.000000
-17.748700 0.000000
-17.725400 0.000000
-17.702100 0.000000
-17.678800 0.000000
-17.655500 0.000000
-17.632200 0.000000
-17.608900 0.000000
-17.585600 0.000000
-17.562300 0.000000
-17.539000 0.000000
-17.515700 0.000000
-17.492400 0.000000
-17.469100 0.000000
-17.445800 0.000000
-17.422500 0.000000
-17.399200 0.000000
-17.375900 0.000000
-17.352600 0.000000
-17.329300 0.000000
-17.306000 0.000000
-17.282700 0.000000
-17.259400 0.000000
-17.236100 0.000000
-17.212800 0.000000
-17.189500 0.000000
-17.166200 0.000000
-17.142900 0.000000
-17.119600 0.000000
-17.096300 0.000000
-17.073000 0.000000
-17.049700 0.000000
-17.026400 0.000000
-17.003100 0.000000
-16.979800 0.000000
-16.956500 0.000000
-16.933200 0.000000
-16.909900 0.000000
-16.886600 0.000000
-16.863300 0.000000
-16.840000 0.000000
-16.816700 0.000000
-16.793400 0.000000
-16.770100 146.418900
-16.746800 354.854800
-16.723500 0.000000
-16.700200 0.000000
-16.676900 0.000000
-16.653600 0.000000
-16.630300 0.000000
-16.607000 0.000000
-16.583700 0.000000
-16.560400 0.000000
-16.537100 0.000000
-16.513800 0.000000
-16.490500 0.000000
-16.467200 0.000000
-16.443900 0.000000
-16.420600 0.000000
-16.397300 0.000000
-16.374000 0.000000
-16.350700 0.000000
-16.327400 0.000000
-16.304100 0.000000
-16.280800 0.000000
-16.257500 0.000000
-16.234200 0.000000
-16.210900 0.000000
-16.187600 0.000000
-16.164300 0.000000
-16.141000 0.000000
-16.117700 0.000000
-16.094400 0.000000
-16.071100 0.000000
-16.047800 0.000000
-16.024500 0.000000
-16.001200 0.000000
-15.977900 0.000000
-15.954600 0.000000
-15.931300 0.000000
-15.908000 0.000000
-15.884700 0.000000
-15.861400 0.000000
-15.838100 0.000000
-15.814800 0.000000
-15.791500 0.000000
-15.768200 0.000000
-15.744900 0.000000
-15.721600 0.000000
-15.698300 0.000000
-15.675000 0.000000
-15.651700 0.000000
-15.628400 0.000000
-15.605100 0.000000
-15.581800 0.000000
-15.558500 0.000000
-15.535200 0.000000
-15.511900 0.000000
-15.488600 0.000000
-15.465300 0.000000
-15.442000 0.000000
-15.418700 0.000000
-15.395400 0.000000
-15.372100 0.000000
-15.348800 0.000000
-15.325500 0.000000
-15.302200 0.000000
-15.278900 0.000000
-15.255600 0.000000
-15.232300 0.000000
-15.209000 0.000000
-15.185700 0.000000
-15.162400 0.000000
-15.139100 0.000000
-15.115800 0.000000
-15.092500 0.000000
-15.069200 0.000000
-15.045900 0.000000
-15.022600 0.000000
-14.999300 0.000000
-14.976000 0.000000
-14.952700 0.000000
-14.929400 0.000000
-14.906100 0.000000
-14.882800 0.000000
-14.859500 0.000000
-14.836200 0.000000
-14.812900 0.000000
-14.789600 0.000000
-14.766300 0.000000
-14.743000 0.000000
-14.719700 0.000000
-14.696400 0.000000
-14.673100 0.000000
-14.649800 0.000000
-14.626500 0.000000
-14.603200 0.000000
-14.579900 0.000000
-14.556600 0.000000
-14.533300 0.000000
-14.510000 0.000000
-14.486700 0.000000
-14.463400 0.000000
-14.440100 0.000000
-14.416800 0.000000
-14.393500 0.000000
-14.370200 0.000000
-14.346900 0.000000
-14.323600 0.000000
-14.300300 0.000000
-14.277000 0.000000
-14.253700 0.000000
-14.230400 0.000000
-14.207100 0.000000
-14.183800 0.000000
-14.160500 0.000000
-14.137200 0.000000
-14.113900 0.000000
-14.090600 0.000000
-14.067300 0.000000
-14.044000 0.000000
-14.020700 0.000000
-13.997400 0.000000
-13.974100 0.000000
-13.950800 0.000000
-13.927500 0.000000
-13.904200 0.000000
-13.880900 0.000000
-13.857600 0.000000
-13.834300 0.000000
-13.811000 0.000000
-13.787700 0.000000
-13.764400 0.000000
-13.741100 0.000000
-13.717800 0.000000
-13.694500 0.000000
-13.671200 0.000000
-13.647900 0.000000
-13.624600 0.000000
-13.601300 0.000000
-13.578000 0.000000
-13.554700 0.000000
-13.531400 0.000000
-13.508100 0.000000
-13.484800 0.000000
-13.461500 0.000000
-13.438200 0.000000
-13.414900 0.000000
-13.391600 0.000000
-13.368300 0.000000
-13.345000 0.000000
-13.321700 0.000000
-13.298400 0.000000
-13.275100 0.000000
-13.251800 0.000000
-13.228500 0.000000
-13.205200 0.000000
-13.181900 0.000000
-13.158600 0.000000
-13.135300 0.000000
-13.112000 0.000000
-13.088700 0.000000
-13.065400 0.000000
-13.042100 0.000000
-13.018800 0.000000
-12.995500 0.000000
-12.972200 0.000000
-12.948900 0.000000
-12.925600 0.000000
-12.902300 0.000000
-12.879000 0.000000
-12.855700 0.000000
-12.832400 0.000000
-12.809100 0.000000
-12.785800 0.000000
-12.762500 0.000000
-12.739200 0.000000
-12.715900 0.000000
-12.692600 0.000000
-12.669300 0.000000
-12.646000 0.000000
-12.622700 0.000000
-12.599400 0.000000
-12.576100 0.000000
-12.552800 0.000000
-12.529500 0.000000
-12.506200 0.000000
-12.482900 0.000000
-12.459600 0.000000
-12.436300 0.000000
-12.413000 0.000000
-12.389700 0.000000
-12.366400 0.000000
-12.343100 0.000000
-12.319800 0.000000
-12.296500 0.000000
-12.273200 0.000000
-12.249900 0.000000
-12.226600 0.000000
-12.203300 0.000000
-12.180000 0.000000
-12.156700 0.000000
-12.133400 0.000000
-12.110100 0.000000
-12.086800 0.000000
-12.063500 0.000000
-12.040200 0.000000
-12.016900 0.000000
-11.993600 0.000000
-11.970300 0.000000
-11.947000 0.000000
-11.923700 0.000000
-11.900400 0.000000
-11.877100 0.000000
-11.853800 0.000000
-11.830500 0.000000
-11.807200 0.000000
-11.783900 0.000000
-11.760600 0.000000
-11.737300 0.000000
-11.714000 0.000000
-11.690700 0.000000
-11.667400 0.000000
-11.644100 0.000000
-11.620800 0.000000
-11.597500 0.000000
-11.574200 0.000000
-11.550900 0.000000
-11.527600 0.000000
-11.504300 0.000000
-11.481000 0.000000
-11.457700 0.000000
-11.434400 0.000000
-11.411100 0.000000
-11.387800 0.000000
-11.364500 0.000000
-11.341200 0.000000
-11.317900 0.000000
-11.294600 0.000000
-11.271300 0.000000
-11.248000 0.000000
-11.224700 0.000000
-11.201400 0.000000
-11.178100 0.000000
-11.154800 0.000000
-11.131500 0.000000
-11.108200 0.000000
-11.084900 0.000000
-11.061600 0.000000
-11.038300 0.000000
-11.015000 0.000000
-10.991700 0.000000
-10.968400 0.000000
-10.945100 0.000000
-10.921800 0.000000
-10.898500 0.000000
-10.875200 0.000000
-10.851900 0.000000
-10.828600 0.000000
-10.805300 0.000000
-10.782000 0.000000
-10.758700 0.000000
-10.735400 0.000000
-10.712100 0.000000
-10.688800 0.000000
-10.665500 0.000000
-10.642200 0.000000
-10.618900 0.000000
-10.595600 0.000000
-10.572300 0.000000
-10.549000 0.000000
-10.525700 0.000000
-10.502400 0.000000
-10.479100 0.000000
-10.455800 0.000000
-10.432500 0.000000
-10.409200 0.000000
-10.385900 0.000000
-10.362600 0.000000
-10.339300 0.000000
-10.316000 0.000000
-10.292700 0.000000
-10.269400 0.000000
-10.246100 159.849300
-10.222800 220.765900
-10.199500 111.908000
-10.176200 107.884500
-10.152900 166.550700
-10.129600 101.141800
-10.106300 97.305200
-10.083000 178.091700
-10.059700 121.853900
-10.036400 0.000000
-10.013100 0.000000
-9.989800 0.000000
-9.966500 0.000000
-9.943200 0.000000
-9.919900 0.000000
-9.896600 0.000000
-9.873300 0.000000
-9.850000 0.000000
-9.826700 0.000000
-9.803400 0.000000
-9.780100 0.000000
-9.756800 0.000000
-9.733500 0.000000
-9.710200 0.000000
-9.686900 0.000000
-9.663600 0.000000
-9.640300 0.000000
-9.617000 0.000000
-9.593700 0.000000
-9.570400 0.000000
-9.547100 0.000000
-9.523800 0.000000
-9.500500 0.000000
-9.477200 0.000000
-9.453900 0.000000
-9.430600 0.000000
-9.407300 0.000000
-9.384000 0.000000
-9.360700 0.000000
-9.337400 0.000000
-9.314100 0.000000
-9.290800 0.000000
-9.267500 0.000000
-9.244200 0.000000
-9.220900 0.000000
-9.197600 0.000000
-9.174300 0.000000
-9.151000 0.000000
-9.127700 0.000000
-9.104400 0.000000
-9.081100 0.000000
-9.057800 0.000000
-9.034500 0.000000
-9.011200 0.000000
-8.987900 0.000000
-8.964600 0.000000
-8.941300 0.000000
-8.918000 0.000000
-8.894700 0.000000
-8.871400 0.000000
-8.848100 0.000000
-8.824800 0.000000
-8.801500 0.000000
-8.778200 0.000000
-8.754900 0.000000
-8.731600 0.000000
-8.708300 0.000000
-8.685000 0.000000
-8.661700 0.000000
-8.638400 0.000000
-8.615100 0.000000
-8.591800 0.000000
-8.568500 0.000000
-8.545200 0.000000
-8.521900 0.000000
-8.498600 0.000000
-8.475300 0.000000
-8.452000 0.000000
-8.428700 0.000000
-8.405400 0.000000
-8.382100 0.000000
-8.358800 0.000000
-8.335500 0.000000
-8.312200 0.000000
-8.288900 0.000000
-8.265600 0.000000
-8.242300 0.000000
-8.219000 0.000000
-8.195700 0.000000
-8.172400 0.000000
-8.149100 0.000000
-8.125800 0.000000
-8.102500 0.000000
-8.079200 0.000000
-8.055900 0.000000
-8.032600 0.000000
-8.009300 0.000000
-7.986000 0.000000
-7.962700 0.000000
-7.939400 0.000000
-7.916100 0.000000
-7.892800 0.000000
-7.869500 0.000000
-7.846200 0.000000
-7.822900 0.000000
-7.799600 0.000000
-7.776300 0.000000
-7.753000 0.000000
-7.729700 0.000000
-7.706400 0.000000
-7.683100 0.000000
-7.659800 0.000000
-7.636500 0.000000
-7.613200 0.000000
-7.589900 0.000000
-7.566600 0.000000
-7.543300 0.000000
-7.520000 0.000000
-7.496700 0.000000
-7.473400 0.000000
-7.450100 0.000000
-7.426800 0.000000
-7.403500 0.000000
-7.380200 0.000000
-7.356900 0.000000
-7.333600 0.000000
-7.310300 0.000000
-7.287000 0.000000
-7.263700 0.000000
-7.240400 0.000000
-7.217100 0.000000
-7.193800 0.000000
-7.170500 0.000000
-7.147200 0.000000
-7.123900 0.000000
-7.100600 0.000000
-7.077300 0.000000
-7.054000 0.000000
-7.030700 0.000000
-7.007400 0.000000
-6.984100 0.000000
-6.960800 0.000000
-6.937500 0.000000
-6.914200 0.000000
-6.890900 0.000000
-6.867600 0.000000
-6.844300 0.000000
-6.821000 0.000000
-6.797700 0.000000
-6.774400 0.000000
-6.751100 0.000000
-6.727800 0.000000
-6.704500 0.000000
-6.681200 0.000000
-6.657900 0.000000
-6.634600 0.000000
-6.611300 0.000000
-6.588000 0.000000
-6.564700 0.000000
-6.541400 0.000000
-6.518100 0.000000
-6.494800 0.000000
-6.471500 0.000000
-6.448200 0.000000
-6.424900 0.000000
-6.401600 0.000000
-6.378300 0.000000
-6.355000 0.000000
-6.331700 0.000000
-6.308400 0.000000
-6.285100 0.000000
-6.261800 0.000000
-6.238500 0.000000
-6.215200 0.000000
-6.191900 0.000000
-6.168600 0.000000
-6.145300 0.000000
-6.122000 0.000000
-6.098700 0.000100
-6.075400 0.016800
-6.052100 0.061400
-6.028800 0.134000
-6.005500 0.161200
-5.982200 0.166700
-5.958900 0.184600
-5.935600 0.205700
-5.912300 0.230000
-5.889000 0.254300
-5.865700 0.272100
-5.842400 0.288800
-5.819100 0.298000
-5.795800 0.299500
-5.772500 0.311700
-5.749200 0.324500
-5.725900 0.337600
-5.702600 0.351000
-5.679300 0.364800
-5.656000 0.377600
-5.632700 0.387100
-5.609400 0.396300
-5.586100 0.406700
-5.562800 0.418300
-5.539500 0.427100
-5.516200 0.435100
-5.492900 0.443400
-5.469600 0.451300
-5.446300 0.458900
-5.423000 0.466400
-5.399700 0.474800
-5.376400 0.483600
-5.353100 0.492600
-5.329800 0.501700
-5.306500 0.508800
-5.283200 0.516900
-5.259900 0.525100
-5.236600 0.533300
-5.213300 0.541300
-5.190000 0.549600
-5.166700 0.558400
-5.143400 0.566600
-5.120100 0.573200
-5.096800 0.578300
-5.073500 0.584500
-5.050200 0.591300
-5.026900 0.598100
-5.003600 0.605200
-4.980300 0.612400
-4.957000 0.619900
-4.933700 0.627400
-4.910400 0.634400
-4.887100 0.640900
-4.863800 0.646800
-4.840500 0.653100
-4.817200 0.660000
-4.793900 0.667100
-4.770600 0.674400
-4.747300 0.681700
-4.724000 0.689100
-4.700700 0.696600
-4.677400 0.704100
-4.654100 0.711700
-4.630800 0.719300
-4.607500 0.726600
-4.584200 0.733800
-4.560900 0.741200
-4.537600 0.748700
-4.514300 0.756400
-4.491000 0.764800
-4.467700 0.774200
-4.444400 0.783900
-4.421100 0.794000
-4.397800 0.803800
-4.374500 0.813900
-4.351200 0.824600
-4.327900 0.835700
-4.304600 0.847200
-4.281300 0.860600
-4.258000 0.878800
-4.234700 0.901900
-4.211400 0.933400
-4.188100 0.962600
-4.164800 0.989600
-4.141500 1.014700
-4.118200 1.037700
-4.094900 1.066400
-4.071600 1.092100
-4.048300 1.112700
-4.025000 1.128400
-4.001700 1.141500
-3.978400 1.172200
-3.955100 1.168800
-3.931800 1.096800
-3.908500 1.043900
-3.885200 1.016300
-3.861900 1.002300
-3.838600 0.986300
-3.815300 0.970500
-3.792000 0.957100
-3.768700 0.974500
-3.745400 1.007500
-3.722100 0.944800
-3.698800 0.898400
-3.675500 0.875600
-3.652200 0.873200
-3.628900 0.864200
-3.605600 0.848700
-3.582300 0.826600
-3.559000 0.797500
-3.535700 0.747300
-3.512400 0.690900
-3.489100 0.644100
-3.465800 0.608300
-3.442500 0.583400
-3.419200 0.568200
-3.395900 0.554900
-3.372600 0.542100
-3.349300 0.534300
-3.326000 0.544800
-3.302700 0.554200
-3.279400 0.567400
-3.256100 0.586600
-3.232800 0.633900
-3.209500 0.667800
-3.186200 0.696000
-3.162900 0.712200
-3.139600 0.732200
-3.116300 0.794300
-3.093000 0.889400
-3.069700 0.840600
-3.046400 0.834500
-3.023100 0.838200
-2.999800 0.843100
-2.976500 0.849900
-2.953200 0.860200
-2.929900 0.887500
-2.906600 0.947400
-2.883300 0.914900
-2.860000 0.927600
-2.836700 0.929200
-2.813400 0.905400
-2.790100 0.909900
-2.766800 0.879700
-2.743500 0.886500
-2.720200 0.921100
-2.696900 0.971400
-2.673600 1.032000
-2.650300 1.192600
-2.627000 0.992000
-2.603700 0.980900
-2.580400 0.969300
-2.557100 0.960400
-2.533800 0.958600
-2.510500 0.956500
-2.487200 0.954200
-2.463900 0.951600
-2.440600 0.949000
-2.417300 0.955700
-2.394000 0.972900
-2.370700 0.998300
-2.347400 1.024600
-2.324100 1.051900
-2.300800 1.080200
-2.277500 1.105300
-2.254200 1.141400
-2.230900 1.176400
-2.207600 1.243800
-2.184300 1.237800
-2.161000 1.303100
-2.137700 1.342500
-2.114400 1.382100
-2.091100 1.404600
-2.067800 1.348100
-2.044500 1.284100
-2.021200 1.257800
-1.997900 1.239600
-1.974600 1.223500
-1.951300 1.283900
-1.928000 1.242000
-1.904700 1.293300
-1.881400 1.238900
-1.858100 1.195000
-1.834800 1.174000
-1.811500 1.124700
-1.788200 1.137900
-1.764900 1.143500
-1.741600 1.150500
-1.718300 1.156600
-1.695000 1.160300
-1.671700 1.164400
-1.648400 1.165800
-1.625100 1.167200
-1.601800 1.173500
-1.578500 1.181300
-1.555200 1.189100
-1.531900 1.200800
-1.508600 1.212900
-1.485300 1.215700
-1.462000 1.218100
-1.438700 1.218900
-1.415400 1.220000
-1.392100 1.216100
-1.368800 1.218500
-1.345500 1.225500
-1.322200 1.234700
-1.298900 1.244000
-1.275600 1.252600
-1.252300 1.260500
-1.229000 1.340400
-1.205700 1.317900
-1.182400 1.333600
-1.159100 1.345600
-1.135800 1.383700
-1.112500 1.410100
-1.089200 1.431000
-1.065900 1.426400
-1.042600 1.418400
-1.019300 1.423100
-0.996000 1.391200
-0.972700 1.389900
-0.949400 1.389700
-0.926100 1.731300
-0.902800 1.389000
-0.879500 1.395700
-0.856200 1.399500
-0.832900 1.405300
-0.809600 1.410000
-0.786300 1.437700
-0.763000 1.431700
-0.739700 1.434100
-0.716400 1.445700
-0.693100 1.465600
-0.669800 1.483100
-0.646500 1.497400
-0.623200 1.511400
-0.599900 1.522600
-0.576600 1.541000
-0.553300 1.561800
-0.530000 1.585000
-0.506700 1.611800
-0.483400 1.653100
-0.460100 1.651600
-0.436800 1.660500
-0.413500 1.649100
-0.390200 1.636800
-0.366900 1.626800
-0.343600 1.615200
-0.320300 1.580300
-0.297000 1.575500
-0.273700 1.565800
-0.250400 1.554100
-0.227100 1.544800
-0.203800 1.540700
-0.180500 1.539300
-0.157200 1.565000
-0.133900 1.586800
-0.110600 1.546500
-0.087300 1.525800
-0.064000 1.499700
-0.040700 1.478300
-0.017400 1.463300
0.005900 1.452100
0.029200 1.445300
0.052500 1.440700
0.075800 1.437200
0.099100 1.474100
0.122400 1.478700
0.145700 1.473600
0.169000 1.466200
0.192300 1.459100
0.215600 1.457800
0.238900 1.460300
0.262200 1.490400
0.285500 1.503600
0.308800 1.459300
0.332100 1.439700
0.355400 1.424800
0.378700 1.414600
0.402000 1.331100
0.425300 1.298700
0.448600 1.281300
0.471900 1.267800
0.495200 1.253700
0.518500 1.238800
0.541800 1.223700
0.565100 1.210400
0.588400 1.198100
0.611700 1.186700
0.635000 1.175900
0.658300 1.167500
0.681600 1.162600
0.704900 1.159700
0.728200 1.164500
0.751500 1.176200
0.774800 1.183800
0.798100 1.195400
0.821400 1.178100
0.844700 1.183100
0.868000 1.193900
0.891300 1.207900
0.914600 1.235800
0.937900 1.271800
0.961200 1.310500
0.984500 1.333600
1.007800 1.357700
1.031100 1.385600
1.054400 1.424900
1.077700 1.456000
1.101000 1.458600
1.124300 1.456600
1.147600 1.435800
1.170900 1.429600
1.194200 1.422900
1.217500 1.414400
1.240800 1.396100
1.264100 1.374400
1.287400 1.353200
1.310700 1.328800
1.334000 1.312600
1.357300 1.291000
1.380600 1.269300
1.403900 1.234100
1.427200 1.188000
1.450500 1.172000
1.473800 1.161900
1.497100 1.162900
1.520400 1.173700
1.543700 1.151100
1.567000 1.139200
1.590300 1.138700
1.613600 1.145100
1.636900 1.158000
1.660200 1.176900
1.683500 1.183600
1.706800 1.181800
1.730100 1.188000
1.753500 1.193800
1.776800 1.198900
1.800100 1.203700
1.823400 1.208200
1.846700 1.213300
1.870000 1.221000
1.893300 1.230300
1.916600 1.225900
1.939900 1.230700
1.963200 1.237800
1.986500 1.234800
2.009800 1.209500
2.033100 1.191500
2.056400 1.183000
2.079700 1.177000
2.103000 1.171300
2.126300 1.172000
2.149600 1.165500
2.172900 1.160400
2.196200 1.157100
2.219500 1.156300
2.242800 1.714600
2.266100 1.121700
2.289400 1.110000
2.312700 1.109400
2.336000 1.120100
2.359300 1.140500
2.382600 1.166600
2.405900 1.195200
2.429200 1.226400
2.452500 1.260200
2.475800 1.345700
2.499100 1.365700
2.522400 1.417500
2.545700 1.491700
2.569000 1.572300
2.592300 1.650800
2.615600 1.715200
2.638900 1.743700
2.662200 1.794200
2.685500 1.859400
2.708800 1.834700
2.732100 1.768000
2.755400 1.774000
2.778700 1.783600
2.802000 1.793800
2.825300 1.810400
2.848600 1.832100
2.871900 1.849200
2.895200 1.868900
2.918500 1.889900
2.941800 1.907000
2.965100 1.922400
2.988400 1.937300
3.011700 1.965900
3.035000 1.996600
3.058300 1.997700
3.081600 2.004600
3.104900 2.017900
3.128200 1.998900
3.151500 1.977200
3.174800 1.955500
3.198100 1.952200
3.221400 1.947200
3.244700 1.990900
3.268000 1.949300
3.291300 1.943900
3.314600 1.934800
3.337900 1.921500
3.361200 1.888700
3.384500 1.893400
3.407800 1.895700
3.431100 1.912500
3.454400 1.940900
3.477700 1.954000
3.501000 2.087200
3.524300 2.098900
3.547600 2.083700
3.570900 2.100200
3.594200 2.104900
3.617500 2.073600
3.640800 2.046600
3.664100 2.003400
3.687400 1.918300
3.710700 1.838200
3.734000 1.777400
3.757300 1.865800
3.780600 1.763100
3.803900 1.733000
3.827200 1.724900
3.850500 1.729500
3.873800 1.683300
3.897100 1.673700
3.920400 1.673100
3.943700 1.701100
3.967000 1.721100
3.990300 1.708100
4.013600 1.726500
4.036900 1.735800
4.060200 1.720400
4.083500 1.687900
4.106800 1.695900
4.130100 1.712700
4.153400 1.782800
4.176700 1.745900
4.200000 1.682200
4.223300 1.655900
4.246600 1.583100
4.269900 1.527400
4.293200 1.521700
4.316500 1.488900
4.339800 1.483200
4.363100 1.484900
4.386400 1.491500
4.409700 1.511700
4.433000 1.531700
4.456300 1.532700
4.479600 1.540700
4.502900 1.558400
4.526200 1.581900
4.549500 1.610700
4.572800 1.640400
4.596100 1.673200
4.619400 1.714700
4.642700 1.733600
4.666000 1.731600
4.689300 1.723000
4.712600 1.722600
4.735900 1.745600
4.759200 1.780700
4.782500 1.828900
4.805800 1.881400
4.829100 2.011700
4.852400 1.927000
4.875700 1.939800
4.899000 1.957000
4.922300 1.902500
4.945600 1.886100
4.968900 1.873100
4.992200 1.849600
5.015500 1.802300
5.038800 1.754900
5.062100 1.754400
5.085400 1.786200
5.108700 1.814200
5.132000 1.825100
5.155300 1.784700
5.178600 1.774300
5.201900 1.819200
5.225200 1.825000
5.248500 1.830200
5.271800 1.837800
5.295100 1.833800
5.318400 1.830600
5.341700 1.834100
5.365000 1.844700
5.388300 1.856800
5.411600 1.835800
5.434900 1.808200
5.458200 1.817300
5.481500 1.826100
5.504800 1.830700
5.528100 1.837700
5.551400 1.845500
5.574700 1.852900
5.598000 1.862600
5.621300 1.949200
5.644600 1.884400
5.667900 1.893100
5.691200 1.878400
5.714500 1.871800
5.737800 1.891900
5.761100 1.940700
5.784400 1.981400
5.807700 2.018500
5.831000 2.050000
5.854300 2.090200
5.877600 2.103100
5.900900 2.107000
5.924200 2.103100
5.947500 2.074600
5.970800 2.060700
5.994100 2.045500
6.017400 2.030600
6.040700 2.014700
6.064000 2.019300
6.087300 1.997800
6.110600 1.978100
6.133900 1.960100
6.157200 1.944200
6.180500 1.928600
6.203800 1.910500
6.227100 1.892300
6.250400 1.878700
6.273700 1.870300
6.297000 1.871200
6.320300 1.886100
6.343600 1.984800
6.366900 1.962700
6.390200 1.954400
6.413500 1.950400
6.436800 1.940400
6.460100 1.940000
6.483400 1.947100
6.506700 1.963900
6.530000 1.978700
6.553300 1.973000
6.576600 1.972000
6.599900 1.986100
6.623200 2.008600
6.646500 2.090800
6.669800 2.093700
6.693100 2.096600
6.716400 2.223200
6.739700 2.109800
6.763000 2.098500
6.786300 2.093900
6.809600 2.075500
6.832900 2.089800
6.856200 2.192800
6.879500 2.234600
6.902800 2.129300
6.926100 2.110000
6.949400 2.093100
6.972700 2.082100
6.996000 2.065600
7.019300 2.047700
7.042600 2.032200
7.065900 1.993600
7.089200 1.989400
7.112500 1.979800
7.135800 1.965800
7.159100 1.983000
7.182400 1.982200
7.205700 1.995300
7.229000 2.015600
7.252300 2.033200
7.275600 2.045200
7.298900 2.058600
7.322200 2.072500
7.345500 2.072200
7.368800 2.092300
7.392100 2.111500
7.415400 2.129600
7.438700 2.147200
7.462000 2.165500
7.485300 2.182100
7.508600 2.267800
7.531900 2.222800
7.555200 2.216300
7.578500 2.217800
7.601800 2.222200
7.625100 2.225900
7.648400 2.231000
7.671700 2.236400
7.695000 2.250100
7.718300 2.273800
7.741600 2.478600
7.764900 2.560400
7.788200 2.588400
7.811500 2.653100
7.834800 2.646200
7.858100 2.653600
7.881400 2.647400
7.904700 2.622300
7.928000 2.592600
7.951300 2.554800
7.974600 2.522500
7.997900 2.471900
8.021200 2.454500
8.044500 2.426500
8.067800 2.415100
8.091100 2.410200
8.114400 2.431600
8.137700 2.437100
8.161000 2.412500
8.184300 2.385700
8.207600 2.344500
8.230900 2.319600
8.254200 2.297400
8.277500 2.294900
8.300800 2.305300
8.324100 2.327300
8.347400 2.349300
8.370700 2.374600
8.394000 2.396000
8.417300 2.413400
8.440600 2.418300
8.463900 2.416000
8.487200 2.403700
8.510500 2.382900
8.533800 2.356100
8.557100 2.324500
8.580400 2.287800
8.603700 2.216600
8.627000 2.148800
8.650300 2.096900
8.673600 2.085800
8.696900 2.050700
8.720200 2.012600
8.743500 1.991200
8.766800 1.977500
8.790100 1.968600
8.813400 1.968200
8.836700 1.970700
8.860000 1.987600
8.883300 2.021500
8.906600 2.069100
8.929900 2.125000
8.953200 2.218100
8.976500 2.169400
8.999800 2.184100
9.023100 2.199600
9.046400 2.212200
9.069700 2.214000
9.093000 2.210900
9.116300 2.215200
9.139600 2.241100
9.162900 2.299500
9.186200 2.355500
9.209500 2.378700
9.232800 2.434600
9.256100 2.478900
9.279400 2.599600
9.302700 2.528900
9.326000 2.551600
9.349300 2.674900
9.372600 2.740200
9.395900 2.712100
9.419200 2.688600
9.442500 2.689400
9.465800 2.705800
9.489100 2.514900
9.512400 2.481500
9.535700 2.442600
9.559000 2.418500
9.582300 2.418400
9.605600 2.436700
9.628900 2.468100
9.652200 2.537700
9.675500 2.602700
9.698800 2.587600
9.722100 2.589800
9.745400 2.592500
9.768700 2.589800
9.792000 2.548400
9.815300 2.513100
9.838600 2.503600
9.861900 2.490700
9.885200 2.479000
9.908500 2.480300
9.931800 2.414500
9.955100 2.346800
9.978400 2.234600
10.001700 2.088800
10.025000 2.083500
10.048300 2.084000
10.071600 2.094500
10.094900 2.117600
10.118200 2.145300
10.141500 2.178300
10.164800 2.226400
10.188100 2.267800
10.211400 2.312000
10.234700 2.359200
10.258000 2.421300
10.281300 2.483900
10.304600 2.566700
10.327900 2.619600
10.351200 2.646100
10.374500 2.664700
10.397800 2.685500
10.421100 2.663700
10.444400 2.612500
10.467700 2.544700
10.491000 2.502100
10.514300 2.483600
10.537600 2.433400
10.560900 2.382600
10.584200 2.448500
10.607500 2.258000
10.630800 2.225500
10.654100 2.201500
10.677400 2.180300
10.700700 2.170100
10.724000 2.147300
10.747300 2.108500
10.770600 2.083000
10.793900 2.072100
10.817200 2.055100
10.840500 2.033400
10.863800 2.082100
10.887100 2.203800
10.910400 2.136800
10.933700 2.278900
10.957000 2.137700
10.980300 2.128200
11.003600 2.159100
11.026900 2.202600
11.050200 2.257900
11.073500 2.330400
11.096800 2.364000
11.120100 2.343900
11.143400 2.341600
11.166700 2.348400
11.190000 2.354500
11.213300 2.359500
11.236600 2.359300
11.259900 2.347500
11.283200 2.324200
11.306500 2.320900
11.329800 2.312700
11.353100 2.281900
11.376400 2.267700
11.399700 2.246500
11.423000 2.198900
11.446300 2.159300
11.469600 2.124600
11.492900 2.088900
11.516200 2.045000
11.539500 2.012500
11.562800 1.995600
11.586100 1.939900
11.609400 1.951800
11.632700 2.068500
11.656000 2.096700
11.679300 2.129300
11.702600 2.157400
11.725900 2.193100
11.749200 2.216000
11.772500 2.216800
11.795800 2.219800
11.819100 2.238400
11.842400 2.231200
11.865700 2.202700
11.889000 2.059700
11.912300 1.968500
11.935600 1.950100
11.958900 1.962600
11.982200 1.986200
12.005500 1.998400
12.028800 2.029600
12.052100 2.056700
12.075400 2.099300
12.098700 2.151900
12.122000 2.200600
12.145300 2.239000
12.168600 2.244500
12.191900 2.237500
12.215200 2.222300
12.238500 2.201300
12.261800 2.195600
12.285100 2.195300
12.308400 2.195700
12.331700 2.195400
12.355000 2.196600
12.378300 2.211900
12.401600 2.244500
12.424900 2.283400
12.448200 2.244200
12.471500 2.191500
12.494800 2.161800
12.518100 2.173700
12.541400 2.159500
12.564700 2.139100
12.588000 2.118100
12.611300 2.097100
12.634600 2.071900
12.657900 2.036700
12.681200 2.012900
12.704500 1.969000
12.727800 1.923500
12.751100 1.892700
12.774400 1.880900
12.797700 1.886200
12.821000 1.900200
12.844300 1.934600
12.867600 1.950700
12.890900 1.973800
12.914200 1.970600
12.937500 1.974400
12.960800 1.996300
12.984100 2.022500
13.007400 2.045600
13.030700 2.210400
13.054000 2.188700
13.077300 2.162200
13.100600 2.123400
13.123900 2.169500
13.147200 2.145300
13.170500 2.176900
13.193800 2.180400
13.217100 2.164700
13.240400 2.186100
13.263700 2.215000
13.287000 2.229500
13.310300 2.360200
13.333600 2.227800
13.356900 2.214100
13.380200 2.191400
13.403500 2.169000
13.426800 2.150700
13.450100 2.132600
13.473400 2.116500
13.496700 2.108900
13.520000 2.085800
13.543300 2.056900
13.566600 2.029500
13.589900 2.022400
13.613200 2.028600
13.636500 2.016800
13.659800 1.983300
13.683100 1.936000
13.706400 1.951000
13.729700 1.858300
13.753000 1.837800
13.776300 1.848800
13.799600 1.865800
13.822900 1.888700
13.846200 1.921400
13.869500 1.993900
13.892800 2.128400
13.916100 2.182900
13.939400 2.196000
13.962700 2.172000
13.986000 2.152200
14.009300 2.114100
14.032600 2.064700
14.055900 2.007100
14.079200 1.983300
14.102500 1.999400
14.125800 1.992400
14.149100 1.990400
14.172400 1.995800
14.195700 2.005900
14.219000 2.019700
14.242300 2.035300
14.265600 2.046500
14.288900 2.037800
14.312200 2.046700
14.335500 2.067000
14.358800 2.072300
14.382100 2.167400
14.405400 2.106400
14.428700 2.067200
14.452000 2.048500
14.475300 2.046300
14.498600 2.059900
14.521900 2.073900
14.545200 2.084200
14.568500 2.100400
14.591800 2.115000
14.615100 2.127200
14.638400 2.138800
14.661700 2.152600
14.685000 2.170000
14.708300 2.226200
14.731600 2.264900
14.754900 2.246100
14.778200 2.339600
14.801500 2.357200
14.824800 2.414400
14.848100 2.458200
14.871400 2.535300
14.894700 2.636300
14.918000 2.686100
14.941300 2.654000
14.964600 2.590400
14.987900 2.547000
15.011200 2.525800
15.034500 2.473400
15.057800 2.404800
15.081100 2.348000
15.104400 2.299400
15.127700 2.262000
15.151000 2.317900
15.174300 2.373700
15.197600 2.374900
15.220900 2.329000
15.244200 2.297600
15.267500 2.264300
15.290800 2.235300
15.314100 2.204700
15.337400 2.183400
15.360700 2.184500
15.384000 2.200200
15.407300 2.218500
15.430600 2.250400
15.453900 2.271700
15.477200 2.280100
15.500500 2.282200
15.523800 2.282900
15.547100 2.286700
15.570400 2.280700
15.593700 2.300400
15.617000 2.276300
15.640300 2.261000
15.663600 2.242400
15.686900 2.219000
15.710200 2.193200
15.733500 2.160900
15.756800 2.131300
15.780100 2.108300
15.803400 2.087400
15.826700 2.066100
15.850000 2.045100
15.873300 2.024900
15.896600 2.011800
15.919900 2.004500
15.943200 2.000800
15.966500 2.001600
15.989800 2.013500
16.013100 2.025600
16.036400 2.031800
16.059700 2.034900
16.083000 2.045300
16.106300 2.064400
16.129600 2.081300
16.152900 2.101300
16.176200 2.136400
16.199500 2.140000
16.222800 2.143800
16.246100 2.153800
16.269400 2.181400
16.292700 2.183000
16.316000 2.143100
16.339300 2.093100
16.362600 2.088700
16.385900 2.024000
16.409200 2.009200
16.432500 2.004700
16.455800 2.016700
16.479100 2.050700
16.502400 2.117600
16.525700 2.155100
16.549000 2.187500
16.572300 2.227900
16.595600 2.246000
16.618900 2.255400
16.642200 2.260600
16.665500 2.278300
16.688800 2.307200
16.712100 2.363500
16.735400 2.485200
16.758700 2.570500
16.782000 2.665700
16.805300 2.774600
16.828600 2.891200
16.851900 2.999300
16.875200 3.004000
16.898500 2.920900
16.921800 2.865600
16.945100 2.996700
16.968400 3.146700
16.991700 3.099200
17.015000 3.116400
17.038300 3.102800
17.061600 3.085000
17.084900 3.072500
17.108200 3.063500
17.131500 3.049100
17.154800 3.033600
17.178100 3.022600
17.201400 3.015900
17.224700 2.997600
17.248000 2.970800
17.271300 2.956200
17.294600 2.932200
17.317900 2.912100
17.341200 2.907700
17.364500 2.907600
17.387800 2.932000
17.411100 2.979100
17.434400 3.120500
17.457700 3.281500
17.481000 3.451500
17.504300 3.491500
17.527600 3.448300
17.550900 3.552400
17.574200 3.520700
17.597500 3.507200
17.620800 3.491600
17.644100 3.464100
17.667400 3.403200
17.690700 3.345500
17.714000 3.288600
17.737300 3.263600
17.760600 3.286800
17.783900 3.325800
17.807200 3.435700
17.830500 3.458900
17.853800 3.410700
17.877100 3.368500
17.900400 3.326800
17.923700 3.300000
17.947000 3.256300
17.970300 3.202400
17.993600 3.150800
18.016900 3.255400
18.040200 3.117800
18.063500 3.055200
18.086800 2.985600
18.110100 2.904800
18.133400 2.923400
18.156700 2.947200
18.180000 2.970200
18.203300 2.974700
18.226600 2.975300
18.249900 2.960100
18.273200 2.913000
18.296500 2.943300
18.319800 2.916300
18.343100 2.811100
18.366400 2.815600
18.389700 2.829300
18.413000 2.807300
18.436300 2.772000
18.459600 2.755400
18.482900 2.769000
18.506200 2.797400
18.529500 2.846000
18.552800 2.833600
18.576100 2.813900
18.599400 2.857500
18.622700 2.974000
18.646000 3.025800
18.669300 3.034500
18.692600 3.025700
18.715900 3.001500
18.739200 2.979500
18.762500 2.973100
18.785800 3.004800
18.809100 2.983600
18.832400 2.791600
18.855700 2.739500
18.879000 2.752900
18.902300 2.693100
18.925600 2.655300
18.948900 2.630600
18.972200 2.614400
18.995500 2.595600
19.018800 2.600300
19.042100 2.572600
19.065400 2.550300
19.088700 2.548400
19.112000 2.566200
19.135300 2.549200
19.158600 2.547300
19.181900 2.583600
19.205200 2.626600
19.228500 2.635700
19.251800 2.606600
19.275100 2.869100
19.298400 2.726400
19.321700 2.672800
19.345000 2.662300
19.368300 2.679200
19.391600 2.712700
19.414900 2.714600
19.438200 2.731200
19.461500 2.749300
19.484800 2.748600
19.508100 2.738600
19.531400 2.733100
19.554700 2.724400
19.578000 2.712500
19.601300 2.678100
19.624600 2.641300
19.647900 2.578600
19.671200 2.527900
19.694500 2.498000
19.717800 2.498900
19.741100 2.467500
19.764400 2.451500
19.787700 2.448900
19.811000 2.511300
19.834300 2.500000
19.857600 2.509800
19.880900 2.531000
19.904200 2.552400
19.927500 2.549900
19.950800 2.541100
19.974100 2.559800
19.997400 2.589000
20.020700 2.595000
20.044000 2.597200
20.067300 2.619400
20.090600 2.627900
20.113900 2.654400
20.137200 2.689700
20.160500 2.767500
20.183800 2.739900
20.207100 2.729400
20.230400 2.730600
20.253700 2.734600
20.277000 2.735800
20.300300 2.741400
20.323600 2.755000
20.346900 2.761500
20.370200 2.760600
20.393500 2.784300
20.416800 2.813800
20.440100 2.847100
20.463400 2.882000
20.486700 2.929000
20.510000 2.978600
20.533300 3.014500
20.556600 3.041000
20.579900 3.071900
20.603200 3.101600
20.626500 3.194400
20.649800 3.235500
20.673100 3.241500
20.696400 3.224800
20.719700 3.181700
20.743000 3.120200
20.766300 3.035900
20.789600 2.984400
20.812900 2.950700
20.836200 2.899100
20.859500 2.837200
20.882800 2.801500
20.906100 2.724900
20.929400 2.661000
20.952700 2.612500
20.976000 2.579200
20.999300 2.559500
21.022600 2.488500
21.045900 2.445200
21.069200 2.549300
21.092500 2.610300
21.115800 2.532200
21.139100 2.517300
21.162400 2.506300
21.185700 2.501000
21.209000 2.493900
21.232300 2.522600
21.255600 2.532800
21.278900 2.544600
21.302200 2.569300
21.325500 2.600800
21.348800 2.633600
21.372100 2.669100
21.395400 2.705200
21.418700 2.752300
21.442000 2.796200
21.465300 2.852600
21.488600 2.921600
21.511900 2.855800
21.535200 2.911000
21.558500 2.929600
21.581800 2.953700
21.605100 2.983500
21.628400 2.970900
21.651700 2.916300
21.675000 2.792800
21.698300 2.711600
21.721600 2.644700
21.744900 2.607500
21.768200 2.557900
21.791500 2.501100
21.814800 2.458500
21.838100 2.425400
21.861400 2.395400
21.884700 2.368800
21.908000 2.340400
21.931300 2.302800
21.954600 2.284700
21.977900 2.284000
22.001200 2.329600
22.024500 2.308900
22.047800 2.310400
22.071100 2.275800
22.094400 2.250200
22.117700 2.218200
22.141000 2.191600
22.164300 2.165700
22.187600 2.138400
22.210900 2.110200
22.234200 2.087900
22.257500 2.071000
22.280800 2.053300
22.304100 2.038100
22.327400 1.997200
22.350700 1.951700
22.374000 1.890600
22.397300 1.827300
22.420600 1.750200
22.443900 1.669400
22.467200 1.589800
22.490500 1.538900
22.513800 1.498300
22.537100 1.455500
22.560400 1.409400
22.583700 1.366400
22.607000 1.325500
22.630300 1.288400
22.653600 1.255900
22.676900 1.183700
22.700200 1.142500
22.723500 1.102900
22.746800 1.054400
22.770100 1.002000
22.793400 0.954700
22.816700 0.911900
22.840000 0.882000
22.863300 0.872800
22.886600 0.829800
22.909900 0.802500
22.933200 0.778400
22.956500 0.755500
22.979800 0.728500
23.003100 0.702100
23.026400 0.681200
23.049700 0.666000
23.073000 0.655200
23.096300 0.675800
23.119600 0.676800
23.142900 0.677900
23.166200 0.674000
23.189500 0.663900
23.212800 0.648200
23.236100 0.626300
23.259400 0.606400
23.282700 0.586400
23.306000 0.566000
23.329300 0.545100
23.352600 0.523500
23.375900 0.501700
23.399200 0.479700
23.422500 0.457500
23.445800 0.435100
23.469100 0.413400
23.492400 0.393800
23.515700 0.376400
23.539000 0.360400
23.562300 0.344700
23.585600 0.328200
23.608900 0.310500
23.632200 0.291800
23.655500 0.269600
23.678800 0.248900
23.702100 0.233100
23.725400 0.221600
23.748700 0.210500
23.772000 0.200300
23.795300 0.191400
23.818600 0.183100
23.841900 0.175400
23.865200 0.168300
23.888500 0.161800
23.911800 0.155800
23.935100 0.150400
23.958400 0.145600
23.981700 0.141200
24.005000 0.137200
24.028300 0.133500
24.051600 0.130000
24.074900 0.126900
24.098200 0.124000
24.121500 0.120600
24.144800 0.116500
24.168100 0.111600
24.191400 0.105100
24.214700 0.095100
24.238000 0.086300
24.261300 0.078700
24.284600 0.073900
24.307900 0.071200
24.331200 0.069400
24.354500 0.067900
24.377800 0.066500
24.401100 0.065100
24.424400 0.063700
24.447700 0.062300
24.471000 0.061000
24.494300 0.059700
24.517600 0.058400
24.540900 0.057100
24.564200 0.055900
24.587500 0.054700
24.610800 0.053500
24.634100 0.054300
24.657400 0.054400
24.680700 0.054000
24.704000 0.052900
24.727300 0.051200
24.750600 0.048700
24.773900 0.045500
24.797200 0.041600
24.820500 0.037000
24.843800 0.034900
24.867100 0.033100
24.890400 0.031500
24.913700 0.029800
24.937000 0.028200
24.960300 0.026700
24.983600 0.025200
25.006900 0.023800
25.030200 0.022400
25.053500 0.021000
25.076800 0.019700
25.100100 0.018500
25.123400 0.017300
25.146700 0.016200
25.170000 0.015100
25.193300 0.014000
25.216600 0.013000
25.239900 0.012100
25.263200 0.011200
25.286500 0.010400
25.309800 0.009600
25.333100 0.008300
25.356400 0.006800
25.379700 0.005500
25.403000 0.004400
25.426300 0.003400
25.449600 0.002500
25.472900 0.001700
25.496200 0.001100
25.519500 0.000600
25.542800 0.000300
25.566100 0.000100
25.589400 0.000000
25.612700 0.000000
25.636000 0.000000
25.659300 0.000000
25.682600 0.000000
25.705900 0.000000
25.729200 0.000000
25.752500 0.000000
25.775800 0.000000
25.799100 0.000000
25.822400 0.000000
25.845700 0.000000
25.869000 0.000000
25.892300 0.000000
25.915600 0.000000
25.938900 0.000000
25.962200 0.000000
25.985500 0.000000
26.008800 0.000000
26.032100 0.000000
26.055400 0.000000
26.078700 0.000000
26.102000 0.000000
26.125300 0.000000
26.148600 0.000000
26.171900 0.000000
26.195200 0.000000
26.218500 0.000000
26.241800 0.000000
26.265100 0.000000
26.288400 0.000000
26.311700 0.000000
26.335000 0.000000
26.358300 0.000000
26.381600 0.000000
26.404900 0.000000
26.428200 0.000000
26.451500 0.000000
26.474800 0.000000
26.498100 0.000000
26.521400 0.000000
26.544700 0.000000
26.568000 0.000000
26.591300 0.000000
26.614600 0.000000
26.637900 0.000000
26.661200 0.000000
26.684500 0.000000
26.707800 0.000000
26.731100 0.000000
26.754400 0.000000
26.777700 0.000000
26.801000 0.000000
26.824300 0.000000
26.847600 0.000000
26.870900 0.000000
26.894200 0.000000
26.917500 0.000000
26.940800 0.000000
26.964100 0.000000
26.987400 0.000000
27.010700 0.000000
27.034000 0.000000
27.057300 0.000000
27.080600 0.000000
27.103900 0.000000
27.127200 0.000000
27.150500 0.000000
27.173800 0.000000
27.197100 0.000000
27.220400 0.000000
27.243700 0.000000
27.267000 0.000000
27.290300 0.000000
27.313600 0.000000
27.336900 0.000000
27.360200 0.000000
27.383500 0.000000
27.406800 0.000000
27.430100 0.000000
27.453400 0.000000
27.476700 0.000000
27.500000 0.000000
27.523300 0.000000
27.546600 0.000000
27.569900 0.000000
27.593200 0.000000
27.616500 0.000000
27.639800 0.000000
27.663100 0.000000
27.686400 0.000000
27.709700 0.000000
e
