set title 'mp-399 - Density of States'
set xlabel 'Energy (eV)'
set ylabel 'DOS (states/eV)'
set grid
set xrange [-10:10]
set yrange [0:19.106]
set xzeroaxis lt -1
set terminal png size 800,600
set output 'mp-399_dos_gnuplot.png'
plot '-' using 1:2 with lines title 'DOS'
-7.655600 0.000000
-7.641500 0.000000
-7.627400 0.000000
-7.613400 0.000000
-7.599300 0.000000
-7.585200 0.000000
-7.571100 0.000000
-7.557000 0.000000
-7.543000 0.000000
-7.528900 0.000000
-7.514800 0.000000
-7.500700 0.000000
-7.486600 0.000000
-7.472500 0.000000
-7.458500 0.000000
-7.444400 0.000000
-7.430300 0.000000
-7.416200 0.000000
-7.402100 0.000000
-7.388000 0.000000
-7.374000 0.000000
-7.359900 0.000000
-7.345800 0.000000
-7.331700 0.000000
-7.317600 0.000000
-7.303600 0.000000
-7.289500 0.000000
-7.275400 0.000000
-7.261300 0.000000
-7.247200 0.000000
-7.233100 0.000000
-7.219100 0.000000
-7.205000 0.000000
-7.190900 0.000000
-7.176800 0.000000
-7.162700 0.000000
-7.148600 0.000000
-7.134600 0.000000
-7.120500 0.000000
-7.106400 0.000000
-7.092300 0.000000
-7.078200 0.000000
-7.064200 0.000000
-7.050100 0.000000
-7.036000 0.000000
-7.021900 0.000000
-7.007800 0.000000
-6.993700 0.000000
-6.979700 0.000000
-6.965600 0.000000
-6.951500 0.000000
-6.937400 0.000000
-6.923300 0.000000
-6.909200 0.000000
-6.895200 0.000000
-6.881100 0.000000
-6.867000 0.000000
-6.852900 0.000000
-6.838800 0.000000
-6.824800 0.000000
-6.810700 0.000000
-6.796600 0.000000
-6.782500 0.000000
-6.768400 0.000000
-6.754300 0.000000
-6.740300 0.000000
-6.726200 0.000000
-6.712100 0.000000
-6.698000 0.000000
-6.683900 0.000000
-6.669800 0.000000
-6.655800 0.000000
-6.641700 0.000000
-6.627600 0.000000
-6.613500 0.000000
-6.599400 0.000000
-6.585400 0.000000
-6.571300 0.000000
-6.557200 0.000000
-6.543100 0.000000
-6.529000 0.000000
-6.514900 0.000000
-6.500900 0.000000
-6.486800 0.000000
-6.472700 0.000000
-6.458600 0.000000
-6.444500 0.000000
-6.430400 0.000000
-6.416400 0.000000
-6.402300 0.000000
-6.388200 0.000000
-6.374100 0.000100
-6.360000 0.019900
-6.346000 0.073000
-6.331900 0.135300
-6.317800 0.151600
-6.303700 0.155000
-6.289600 0.178000
-6.275500 0.201900
-6.261500 0.226900
-6.247400 0.249800
-6.233300 0.263600
-6.219200 0.269400
-6.205100 0.278700
-6.191000 0.290900
-6.177000 0.305100
-6.162900 0.319200
-6.148800 0.333300
-6.134700 0.347500
-6.120600 0.362600
-6.106600 0.377700
-6.092500 0.388800
-6.078400 0.396500
-6.064300 0.406300
-6.050200 0.416800
-6.036100 0.427000
-6.022100 0.436800
-6.008000 0.446900
-5.993900 0.457600
-5.979800 0.469300
-5.965700 0.481400
-5.951600 0.493800
-5.937600 0.506300
-5.923500 0.518800
-5.909400 0.531100
-5.895300 0.542100
-5.881200 0.552000
-5.867200 0.561500
-5.853100 0.571800
-5.839000 0.583000
-5.824900 0.594200
-5.810800 0.605500
-5.796700 0.617000
-5.782700 0.628600
-5.768600 0.640400
-5.754500 0.652300
-5.740400 0.665500
-5.726300 0.683500
-5.712200 0.706700
-5.698200 0.726600
-5.684100 0.746600
-5.670000 0.767700
-5.655900 0.788600
-5.641800 0.808200
-5.627800 0.819300
-5.613700 0.819500
-5.599600 0.822500
-5.585500 0.827500
-5.571400 0.831900
-5.557300 0.835800
-5.543300 0.839100
-5.529200 0.841900
-5.515100 0.845700
-5.501000 0.850700
-5.486900 0.856800
-5.472800 0.862200
-5.458800 0.867300
-5.444700 0.872200
-5.430600 0.876900
-5.416500 0.881400
-5.402400 0.885800
-5.388400 0.890200
-5.374300 0.896000
-5.360200 0.902000
-5.346100 0.908300
-5.332000 0.914700
-5.317900 0.921400
-5.303900 0.928300
-5.289800 0.935000
-5.275700 0.941700
-5.261600 0.948400
-5.247500 0.955000
-5.233400 0.961700
-5.219400 0.968400
-5.205300 0.975300
-5.191200 0.982600
-5.177100 0.990300
-5.163000 0.998200
-5.149000 1.006300
-5.134900 1.014400
-5.120800 1.022700
-5.106700 1.031400
-5.092600 1.042500
-5.078500 1.053700
-5.064500 1.065200
-5.050400 1.077100
-5.036300 1.089200
-5.022200 1.101500
-5.008100 1.113800
-4.994000 1.126700
-4.980000 1.140000
-4.965900 1.153800
-4.951800 1.168000
-4.937700 1.182400
-4.923600 1.197400
-4.909600 1.212800
-4.895500 1.228800
-4.881400 1.245700
-4.867300 1.263300
-4.853200 1.281600
-4.839100 1.300500
-4.825100 1.321800
-4.811000 1.360300
-4.796900 1.425300
-4.782800 1.491200
-4.768700 1.562700
-4.754600 1.634900
-4.740600 1.712900
-4.726500 1.797900
-4.712400 1.888300
-4.698300 1.984700
-4.684200 2.088900
-4.670200 2.247000
-4.656100 2.447800
-4.642000 2.575300
-4.627900 2.623800
-4.613800 2.603100
-4.599700 2.623600
-4.585700 2.687800
-4.571600 2.790600
-4.557500 3.160300
-4.543400 3.248700
-4.529300 3.186400
-4.515200 3.125900
-4.501200 3.100900
-4.487100 2.979300
-4.473000 2.710100
-4.458900 2.664900
-4.444800 2.624400
-4.430800 2.583700
-4.416700 2.585900
-4.402600 2.613500
-4.388500 2.514600
-4.374400 2.418900
-4.360300 2.404000
-4.346300 2.330300
-4.332200 2.346900
-4.318100 2.361200
-4.304000 2.432500
-4.289900 2.592200
-4.275800 2.731000
-4.261800 3.410800
-4.247700 4.272100
-4.233600 7.447800
-4.219500 6.156300
-4.205400 5.630600
-4.191400 5.132900
-4.177300 4.349500
-4.163200 3.858100
-4.149100 3.468800
-4.135000 3.159300
-4.120900 2.977000
-4.106900 2.830900
-4.092800 2.691000
-4.078700 2.563700
-4.064600 2.406200
-4.050500 2.289700
-4.036400 2.173400
-4.022400 2.062200
-4.008300 1.983000
-3.994200 1.926000
-3.980100 1.860900
-3.966000 1.785900
-3.952000 1.726300
-3.937900 1.647400
-3.923800 1.570900
-3.909700 1.497200
-3.895600 1.426200
-3.881500 1.366300
-3.867500 1.312600
-3.853400 1.267000
-3.839300 1.223000
-3.825200 1.177700
-3.811100 1.129400
-3.797000 1.080100
-3.783000 1.037800
-3.768900 1.002700
-3.754800 0.968100
-3.740700 0.933000
-3.726600 0.898400
-3.712600 0.864600
-3.698500 0.831800
-3.684400 0.800500
-3.670300 0.761900
-3.656200 0.722700
-3.642100 0.685200
-3.628100 0.649100
-3.614000 0.615300
-3.599900 0.583900
-3.585800 0.555000
-3.571700 0.526200
-3.557600 0.497300
-3.543600 0.466300
-3.529500 0.438000
-3.515400 0.416300
-3.501300 0.393400
-3.487200 0.369500
-3.473200 0.346100
-3.459100 0.323200
-3.445000 0.300200
-3.430900 0.279300
-3.416800 0.233700
-3.402700 0.189500
-3.388700 0.145000
-3.374600 0.102400
-3.360500 0.064400
-3.346400 0.023900
-3.332300 0.000000
-3.318200 0.000000
-3.304200 0.000000
-3.290100 0.000000
-3.276000 0.000000
-3.261900 0.000000
-3.247800 0.000000
-3.233800 0.000000
-3.219700 0.000000
-3.205600 0.000000
-3.191500 0.000000
-3.177400 0.000000
-3.163300 0.000000
-3.149300 0.000000
-3.135200 0.000000
-3.121100 0.000000
-3.107000 0.000000
-3.092900 0.000000
-3.078800 0.000000
-3.064800 0.000000
-3.050700 0.000000
-3.036600 0.000000
-3.022500 0.000000
-3.008400 0.000000
-2.994400 0.000000
-2.980300 0.000000
-2.966200 0.000000
-2.952100 0.000000
-2.938000 0.000000
-2.923900 0.000000
-2.909900 0.000000
-2.895800 0.000000
-2.881700 0.000000
-2.867600 0.000000
-2.853500 0.000000
-2.839400 0.000000
-2.825400 0.000000
-2.811300 0.000000
-2.797200 0.000000
-2.783100 0.000000
-2.769000 0.000000
-2.755000 0.000000
-2.740900 0.000000
-2.726800 0.000000
-2.712700 0.000000
-2.698600 0.000000
-2.684500 0.000000
-2.670500 0.000000
-2.656400 0.000000
-2.642300 0.000000
-2.628200 0.000000
-2.614100 0.000000
-2.600000 0.000000
-2.586000 0.000000
-2.571900 0.000000
-2.557800 0.000000
-2.543700 0.000000
-2.529600 0.000000
-2.515600 0.000000
-2.501500 0.000000
-2.487400 0.000000
-2.473300 0.000000
-2.459200 0.000000
-2.445100 0.000000
-2.431100 0.000000
-2.417000 0.000000
-2.402900 0.000000
-2.388800 0.000000
-2.374700 0.000000
-2.360600 0.000000
-2.346600 0.000000
-2.332500 0.000000
-2.318400 0.000000
-2.304300 0.000000
-2.290200 0.000000
-2.276200 0.000000
-2.262100 0.000000
-2.248000 0.000000
-2.233900 0.000000
-2.219800 0.000000
-2.205700 0.000000
-2.191700 0.000000
-2.177600 0.000000
-2.163500 0.000000
-2.149400 0.000000
-2.135300 0.000000
-2.121200 0.000000
-2.107200 0.000000
-2.093100 0.000000
-2.079000 0.000000
-2.064900 0.000000
-2.050800 0.000000
-2.036800 0.000000
-2.022700 0.000000
-2.008600 0.000000
-1.994500 0.000000
-1.980400 0.000000
-1.966300 0.000000
-1.952300 0.000000
-1.938200 0.000000
-1.924100 0.000000
-1.910000 0.000000
-1.895900 0.000000
-1.881800 0.000000
-1.867800 0.000000
-1.853700 0.000000
-1.839600 0.000000
-1.825500 0.000000
-1.811400 0.000000
-1.797400 0.000000
-1.783300 0.000000
-1.769200 0.000000
-1.755100 0.000000
-1.741000 0.000000
-1.726900 0.000000
-1.712900 0.000000
-1.698800 0.000000
-1.684700 0.000000
-1.670600 0.000000
-1.656500 0.000000
-1.642400 0.000000
-1.628400 0.000000
-1.614300 0.000000
-1.600200 0.000000
-1.586100 0.000000
-1.572000 0.000000
-1.558000 0.000000
-1.543900 0.000000
-1.529800 0.000000
-1.515700 0.000000
-1.501600 0.000000
-1.487500 0.000000
-1.473500 0.000000
-1.459400 0.000000
-1.445300 0.000000
-1.431200 0.000000
-1.417100 0.000000
-1.403000 0.000000
-1.389000 0.000000
-1.374900 0.000000
-1.360800 0.000000
-1.346700 0.000000
-1.332600 0.000000
-1.318600 0.000000
-1.304500 0.000000
-1.290400 0.000000
-1.276300 0.000000
-1.262200 0.000000
-1.248100 0.000000
-1.234100 0.000000
-1.220000 0.000000
-1.205900 0.000000
-1.191800 0.000000
-1.177700 0.000000
-1.163600 0.000000
-1.149600 0.000000
-1.135500 0.000000
-1.121400 0.000000
-1.107300 0.000000
-1.093200 0.000000
-1.079200 0.000000
-1.065100 0.000000
-1.051000 0.000000
-1.036900 0.000000
-1.022800 0.000000
-1.008700 0.000000
-0.994700 0.000000
-0.980600 0.000000
-0.966500 0.000000
-0.952400 0.000000
-0.938300 0.000000
-0.924200 0.000000
-0.910200 0.000000
-0.896100 0.000000
-0.882000 0.000000
-0.867900 0.000000
-0.853800 0.000000
-0.839800 0.000000
-0.825700 0.000000
-0.811600 0.000000
-0.797500 0.000000
-0.783400 0.000000
-0.769300 0.000000
-0.755300 0.000000
-0.741200 0.000000
-0.727100 0.000000
-0.713000 0.000000
-0.698900 0.000000
-0.684800 0.000000
-0.670800 0.000000
-0.656700 0.000000
-0.642600 0.000000
-0.628500 0.000000
-0.614400 0.000000
-0.600400 0.000000
-0.586300 0.000000
-0.572200 0.000000
-0.558100 0.000000
-0.544000 0.000000
-0.529900 0.000000
-0.515900 0.000000
-0.501800 0.000000
-0.487700 0.000000
-0.473600 0.000000
-0.459500 0.000000
-0.445400 0.000000
-0.431400 0.000000
-0.417300 0.000000
-0.403200 0.000000
-0.389100 0.000000
-0.375000 0.000000
-0.361000 0.000000
-0.346900 0.000000
-0.332800 0.000000
-0.318700 0.000000
-0.304600 0.000000
-0.290500 0.000000
-0.276500 0.000000
-0.262400 0.000000
-0.248300 0.000000
-0.234200 0.000000
-0.220100 0.000000
-0.206000 0.000000
-0.192000 0.000000
-0.177900 0.000000
-0.163800 0.000000
-0.149700 0.000000
-0.135600 0.000000
-0.121600 0.000000
-0.107500 0.000000
-0.093400 0.000000
-0.079300 0.000000
-0.065200 0.000000
-0.051100 0.000000
-0.037100 0.000000
-0.023000 0.000000
-0.008900 0.000000
0.005200 0.000000
0.019300 0.000000
0.033400 0.000000
0.047400 0.000000
0.061500 0.000000
0.075600 0.000000
0.089700 0.000000
0.103800 0.000000
0.117800 0.000000
0.131900 0.000000
0.146000 0.000000
0.160100 0.000000
0.174200 0.000000
0.188300 0.000000
0.202300 0.000000
0.216400 0.000000
0.230500 0.000000
0.244600 0.000000
0.258700 0.000000
0.272800 0.000000
0.286800 0.000000
0.300900 0.000000
0.315000 0.000000
0.329100 0.000000
0.343200 0.000000
0.357200 0.000000
0.371300 0.000000
0.385400 0.000000
0.399500 0.000000
0.413600 0.000000
0.427700 0.000000
0.441700 0.003200
0.455800 0.029300
0.469900 0.082200
0.484000 0.166600
0.498100 0.283200
0.512200 0.302800
0.526200 0.345400
0.540300 0.399000
0.554400 0.388700
0.568500 0.418300
0.582600 0.453100
0.596600 0.488100
0.610700 0.523700
0.624800 0.561000
0.638900 0.597300
0.653000 0.629100
0.667100 0.658200
0.681100 0.678700
0.695200 0.707700
0.709300 0.737600
0.723400 0.767700
0.737500 0.797800
0.751600 0.829300
0.765600 0.870900
0.779700 0.919300
0.793800 0.963700
0.807900 1.009100
0.822000 1.052400
0.836000 1.096400
0.850100 1.145800
0.864200 1.252100
0.878300 1.377200
0.892400 1.480400
0.906500 1.594800
0.920500 1.771800
0.934600 1.952500
0.948700 2.316000
0.962800 2.349600
0.976900 2.274400
0.991000 2.196900
1.005000 2.196600
1.019100 2.195100
1.033200 2.173000
1.047300 2.128000
1.061400 2.080200
1.075400 2.071800
1.089500 2.106400
1.103600 2.224700
1.117700 2.281900
1.131800 2.263900
1.145900 2.189200
1.159900 2.082100
1.174000 2.007500
1.188100 1.978000
1.202200 1.994100
1.216300 2.026600
1.230400 2.039700
1.244400 2.083500
1.258500 2.201500
1.272600 2.278100
1.286700 2.298300
1.300800 2.300800
1.314800 2.301600
1.328900 2.387300
1.343000 2.431500
1.357100 2.470500
1.371200 2.756200
1.385300 2.844400
1.399300 2.636200
1.413400 2.733100
1.427500 2.893900
1.441600 3.201700
1.455700 2.959500
1.469800 2.704200
1.483800 2.509300
1.497900 2.392700
1.512000 2.333600
1.526100 2.303700
1.540200 2.517200
1.554200 2.586400
1.568300 2.501500
1.582400 2.494100
1.596500 2.518900
1.610600 2.562800
1.624700 2.605700
1.638700 2.649100
1.652800 2.632200
1.666900 2.714000
1.681000 2.869900
1.695100 2.771100
1.709200 2.741100
1.723200 2.707400
1.737300 2.658800
1.751400 2.597800
1.765500 2.524200
1.779600 2.468300
1.793600 2.539000
1.807700 2.528100
1.821800 2.445500
1.835900 2.918300
1.850000 3.105600
1.864100 3.213400
1.878100 3.367300
1.892200 3.565400
1.906300 3.908400
1.920400 3.916100
1.934500 4.030300
1.948600 4.143300
1.962600 4.258900
1.976700 4.423800
1.990800 4.633400
2.004900 4.969000
2.019000 5.491600
2.033000 5.573800
2.047100 5.554700
2.061200 5.247800
2.075300 5.177400
2.089400 5.271800
2.103500 5.217700
2.117500 4.865700
2.131600 4.471500
2.145700 4.216100
2.159800 4.021300
2.173900 3.958700
2.188000 4.362400
2.202000 4.373000
2.216100 4.278000
2.230200 4.288000
2.244300 4.578400
2.258400 4.962100
2.272400 5.344600
2.286500 5.524200
2.300600 5.752800
2.314700 6.001500
2.328800 6.242700
2.342900 6.360100
2.356900 6.112100
2.371000 5.899300
2.385100 5.382800
2.399200 5.024700
2.413300 4.524000
2.427400 4.191600
2.441400 4.075000
2.455500 4.140800
2.469600 3.925500
2.483700 3.653000
2.497800 3.207600
2.511800 2.540800
2.525900 2.106300
2.540000 1.748000
2.554100 1.588900
2.568200 1.527500
2.582300 1.484400
2.596300 1.458400
2.610400 1.439600
2.624500 1.459500
2.638600 1.454800
2.652700 1.478300
2.666800 1.508600
2.680800 1.522600
2.694900 1.521600
2.709000 1.689800
2.723100 1.333300
2.737200 1.206700
2.751200 1.187200
2.765300 1.269200
2.779400 1.370700
2.793500 1.437200
2.807600 1.576200
2.821700 1.724300
2.835700 1.857600
2.849800 1.971300
2.863900 1.964400
2.878000 2.124200
2.892100 2.301000
2.906200 2.527800
2.920200 2.792100
2.934300 3.173300
2.948400 3.418900
2.962500 3.584000
2.976600 3.797100
2.990600 3.998800
3.004700 4.081700
3.018800 4.048600
3.032900 4.008100
3.047000 3.859500
3.061100 3.747600
3.075100 3.625000
3.089200 3.483500
3.103300 3.364000
3.117400 3.186300
3.131500 3.150800
3.145600 3.463000
3.159600 3.587400
3.173700 3.560600
3.187800 3.691000
3.201900 3.870500
3.216000 4.034800
3.230000 4.190500
3.244100 4.464800
3.258200 4.759700
3.272300 5.180600
3.286400 5.585300
3.300500 5.893000
3.314500 6.385200
3.328600 6.389700
3.342700 6.743000
3.356800 8.057600
3.370900 7.318300
3.385000 7.572800
3.399000 7.757900
3.413100 7.528200
3.427200 7.336500
3.441300 7.141000
3.455400 6.466800
3.469400 6.095700
3.483500 5.861700
3.497600 5.969100
3.511700 5.419000
3.525800 4.837700
3.539900 4.362100
3.553900 4.044300
3.568000 3.775600
3.582100 3.561700
3.596200 3.568800
3.610300 3.486000
3.624400 3.075000
3.638400 2.449800
3.652500 1.483900
3.666600 1.117600
3.680700 1.075100
3.694800 1.045800
3.708800 1.036900
3.722900 1.006800
3.737000 0.993100
3.751100 0.982600
3.765200 0.976600
3.779300 0.975300
3.793300 1.078000
3.807400 1.734700
3.821500 1.753300
3.835600 1.804000
3.849700 1.953100
3.863800 2.208200
3.877800 2.208900
3.891900 2.277300
3.906000 2.425000
3.920100 3.865500
3.934200 11.891200
3.948200 15.593000
3.962300 17.369500
3.976400 11.022800
3.990500 8.300300
4.004600 6.946400
4.018700 5.985400
4.032700 5.642400
4.046800 5.005700
4.060900 4.729000
4.075000 4.546100
4.089100 4.348100
4.103200 4.133600
4.117200 3.903900
4.131300 3.801900
4.145400 3.624800
4.159500 3.293300
4.173600 3.111800
4.187600 3.004400
4.201700 2.920900
4.215800 2.843200
4.229900 2.743600
4.244000 2.674600
4.258100 2.624500
4.272100 2.579600
4.286200 2.565100
4.300300 2.563300
4.314400 2.582300
4.328500 2.626800
4.342600 2.689000
4.356600 2.756100
4.370700 2.781000
4.384800 2.787000
4.398900 2.761100
4.413000 2.733600
4.427000 2.706200
4.441100 2.732600
4.455200 2.692800
4.469300 2.644000
4.483400 2.602200
4.497500 2.593000
4.511500 2.598800
4.525600 2.576500
4.539700 2.580900
4.553800 2.589100
4.567900 2.595800
4.582000 2.627500
4.596000 2.685000
4.610100 2.733300
4.624200 2.796600
4.638300 2.876000
4.652400 3.138100
4.666400 3.250400
4.680500 3.243100
4.694600 3.134800
4.708700 3.106700
4.722800 3.077400
4.736900 3.024700
4.750900 2.967600
4.765000 2.999300
4.779100 3.004400
4.793200 2.987500
4.807300 2.965200
4.821400 2.961800
4.835400 2.952800
4.849500 2.956700
4.863600 2.949200
4.877700 2.945200
4.891800 2.973900
4.905800 2.958600
4.919900 2.925200
4.934000 2.891300
4.948100 2.854200
4.962200 2.773300
4.976300 2.752600
4.990300 2.740900
5.004400 2.729600
5.018500 2.697900
5.032600 2.674900
5.046700 2.651100
5.060800 2.623100
5.074800 2.564400
5.088900 2.463800
5.103000 2.385300
5.117100 2.328800
5.131200 2.276700
5.145200 2.232900
5.159300 2.206700
5.173400 2.183100
5.187500 2.170300
5.201600 2.153000
5.215700 2.146700
5.229700 2.140100
5.243800 2.193000
5.257900 2.082500
5.272000 2.077500
5.286100 2.076400
5.300200 2.080800
5.314200 2.093300
5.328300 2.108100
5.342400 2.124400
5.356500 2.142100
5.370600 2.169100
5.384600 2.193200
5.398700 2.210200
5.412800 2.233500
5.426900 2.270100
5.441000 2.319800
5.455100 2.380300
5.469100 2.443800
5.483200 2.491300
5.497300 2.531600
5.511400 2.570800
5.525500 2.609600
5.539600 2.663800
5.553600 2.705500
5.567700 2.719300
5.581800 2.730100
5.595900 2.757900
5.610000 2.789000
5.624000 2.812300
5.638100 2.847000
5.652200 2.878100
5.666300 2.849800
5.680400 2.757400
5.694500 2.650800
5.708500 2.561500
5.722600 2.476100
5.736700 2.440400
5.750800 2.427700
5.764900 2.398100
5.779000 2.342200
5.793000 2.242200
5.807100 2.165500
5.821200 2.114200
5.835300 2.072500
5.849400 2.036700
5.863400 2.003100
5.877500 1.969200
5.891600 1.933800
5.905700 1.898200
5.919800 1.866300
5.933900 1.841600
5.947900 1.820700
5.962000 1.797600
5.976100 1.773300
5.990200 1.746300
6.004300 1.715800
6.018400 1.683300
6.032400 1.650200
6.046500 1.621500
6.060600 1.596900
6.074700 1.585500
6.088800 1.577900
6.102800 1.575400
6.116900 1.572900
6.131000 1.573000
6.145100 1.576500
6.159200 1.583400
6.173300 1.594700
6.187300 1.624800
6.201400 1.678500
6.215500 1.758700
6.229600 1.789200
6.243700 1.793300
6.257800 1.721500
6.271800 1.701100
6.285900 1.678100
6.300000 1.656000
6.314100 1.636400
6.328200 1.620800
6.342200 1.606900
6.356300 1.605400
6.370400 1.597500
6.384500 1.580600
6.398600 1.478500
6.412700 1.347800
6.426700 1.308800
6.440800 1.269600
6.454900 1.229700
6.469000 1.191900
6.483100 1.157800
6.497200 1.127800
6.511200 1.096600
6.525300 1.064000
6.539400 1.034800
6.553500 1.007700
6.567600 0.982800
6.581600 0.958100
6.595700 0.931300
6.609800 0.904500
6.623900 0.881700
6.638000 0.860400
6.652100 0.840600
6.666100 0.821300
6.680200 0.802400
6.694300 0.782600
6.708400 0.761700
6.722500 0.739800
6.736600 0.717300
6.750600 0.691600
6.764700 0.661500
6.778800 0.642900
6.792900 0.633400
6.807000 0.628500
6.821000 0.624500
6.835100 0.621300
6.849200 0.618600
6.863300 0.617200
6.877400 0.617400
6.891500 0.615400
6.905500 0.610800
6.919600 0.603700
6.933700 0.595600
6.947800 0.587900
6.961900 0.602500
6.976000 0.643200
6.990000 0.659400
7.004100 0.661400
7.018200 0.648800
7.032300 0.619700
7.046400 0.589800
7.060400 0.552600
7.074500 0.509000
7.088600 0.483400
7.102700 0.498000
7.116800 0.548500
7.130900 0.691300
7.144900 0.806000
7.159000 0.881900
7.173100 0.917700
7.187200 0.941600
7.201300 0.955500
7.215400 0.981800
7.229400 1.036300
7.243500 1.088000
7.257600 1.142600
7.271700 1.193100
7.285800 1.237300
7.299800 1.281200
7.313900 1.319800
7.328000 1.359500
7.342100 1.411200
7.356200 1.503600
7.370300 1.585400
7.384300 1.645800
7.398400 1.648400
7.412500 1.644200
7.426600 1.662700
7.440700 1.700300
7.454800 1.890700
7.468800 1.682600
7.482900 1.677200
7.497000 1.661600
7.511100 1.639800
7.525200 1.620500
7.539200 1.605500
7.553300 1.593500
7.567400 1.584500
7.581500 1.582200
7.595600 1.584800
7.609700 1.589500
7.623700 1.595700
7.637800 1.614400
7.651900 1.633200
7.666000 1.642600
7.680100 1.655200
7.694200 1.662300
7.708200 1.659300
7.722300 1.649600
7.736400 1.634400
7.750500 1.641600
7.764600 1.646700
7.778600 1.650500
7.792700 1.663200
7.806800 1.686700
7.820900 1.770100
7.835000 1.860200
7.849100 1.905200
7.863100 1.919300
7.877200 1.932200
7.891300 1.944700
7.905400 1.972600
7.919500 1.997100
7.933600 2.026500
7.947600 2.048700
7.961700 2.054100
7.975800 2.036900
7.989900 1.998700
8.004000 1.949700
8.018000 1.905500
8.032100 1.866300
8.046200 1.830300
8.060300 1.821800
8.074400 1.797400
8.088500 1.775100
8.102500 1.755100
8.116600 1.735100
8.130700 1.715600
8.144800 1.701200
8.158900 1.691100
8.173000 1.684800
8.187000 1.682400
8.201100 1.684100
8.215200 1.689700
8.229300 1.698700
8.243400 1.712200
8.257400 1.734400
8.271500 1.759100
8.285600 1.785600
8.299700 1.811000
8.313800 1.832800
8.327900 1.854400
8.341900 1.872700
8.356000 1.889300
8.370100 1.907600
8.384200 1.930400
8.398300 1.951700
8.412400 1.976000
8.426400 2.001100
8.440500 2.028700
8.454600 2.060100
8.468700 2.094000
8.482800 2.144800
8.496800 2.186900
8.510900 2.271400
8.525000 2.282100
8.539100 2.304100
8.553200 2.323200
8.567300 2.338200
8.581300 2.346700
8.595400 2.348700
8.609500 2.344700
8.623600 2.342800
8.637700 2.356800
8.651800 2.385400
8.665800 2.374700
8.679900 2.369900
8.694000 2.373200
8.708100 2.377600
8.722200 2.376400
8.736200 2.370800
8.750300 2.366800
8.764400 2.364100
8.778500 2.350700
8.792600 2.339600
8.806700 2.334100
8.820700 2.331100
8.834800 2.327600
8.848900 2.323100
8.863000 2.322100
8.877100 2.332800
8.891200 2.362500
8.905200 2.344100
8.919300 2.311600
8.933400 2.299600
8.947500 2.313100
8.961600 2.340600
8.975600 2.140700
8.989700 2.091800
9.003800 2.050900
9.017900 2.030600
9.032000 1.981800
9.046100 1.951200
9.060100 1.937300
9.074200 1.931100
9.088300 1.918900
9.102400 1.893500
9.116500 1.873600
9.130600 1.854600
9.144600 1.839400
9.158700 1.827200
9.172800 1.819100
9.186900 1.823800
9.201000 1.837800
9.215000 1.833700
9.229100 1.772500
9.243200 1.696600
9.257300 1.612000
9.271400 1.534200
9.285500 1.423500
9.299500 1.308300
9.313600 1.229800
9.327700 1.169900
9.341800 1.127500
9.355900 1.086200
9.370000 1.069800
9.384000 1.010400
9.398100 0.913700
9.412200 0.844300
9.426300 0.793700
9.440400 0.736600
9.454400 0.662800
9.468500 0.581600
9.482600 0.484300
9.496700 0.366900
9.510800 0.186500
9.524900 0.041700
9.538900 0.031400
9.553000 0.022400
9.567100 0.014500
9.581200 0.007800
9.595300 0.002900
9.609400 0.000300
9.623400 0.000000
9.637500 0.000000
9.651600 0.000000
9.665700 0.000000
9.679800 0.000000
9.693800 0.000000
9.707900 0.000000
9.722000 0.000000
9.736100 0.000000
9.750200 0.000000
9.764300 0.000000
9.778300 0.000000
9.792400 0.000000
9.806500 0.000000
9.820600 0.000000
9.834700 0.000000
9.848800 0.000000
9.862800 0.000000
9.876900 0.000000
9.891000 0.000000
9.905100 0.000000
9.919200 0.000000
9.933200 0.000000
9.947300 0.000000
9.961400 0.007500
9.975500 0.014800
9.989600 0.022900
10.003700 0.031900
10.017700 0.041600
10.031800 0.052200
10.045900 0.063600
10.060000 0.075200
10.074100 0.086100
10.088200 0.096200
10.102200 0.105600
10.116300 0.114900
10.130400 0.127600
10.144500 0.148700
10.158600 0.164000
10.172600 0.185800
10.186700 0.209900
10.200800 0.236300
10.214900 0.264700
10.229000 0.294700
10.243100 0.325300
10.257100 0.356300
10.271200 0.388900
10.285300 0.424100
10.299400 0.462500
10.313500 0.496600
10.327600 0.528400
10.341600 0.559300
10.355700 0.585600
10.369800 0.608100
10.383900 0.633900
10.398000 0.658900
10.412000 0.679600
10.426100 0.697200
10.440200 0.715000
10.454300 0.734600
10.468400 0.755500
10.482500 0.776000
10.496500 0.798500
10.510600 0.822500
10.524700 0.848200
10.538800 0.875200
10.552900 0.903500
10.567000 0.932800
10.581000 0.963300
10.595100 0.994500
10.609200 1.027700
10.623300 1.062100
10.637400 1.096800
10.651400 1.135300
10.665500 1.179800
10.679600 1.230000
10.693700 1.286500
10.707800 1.350500
10.721900 1.419100
10.735900 1.494000
10.750000 1.575300
10.764100 1.668600
10.778200 1.816500
10.792300 1.937600
10.806400 2.055700
10.820400 2.186000
10.834500 2.352500
10.848600 2.485500
10.862700 2.547000
10.876800 2.845300
10.890800 3.364000
10.904900 2.536900
10.919000 2.176400
10.933100 1.871000
10.947200 1.736800
10.961300 1.698500
10.975300 1.669000
10.989400 1.647100
11.003500 1.633300
11.017600 1.625700
11.031700 1.624700
11.045800 1.631700
11.059800 1.669200
11.073900 1.709800
11.088000 1.684000
11.102100 1.641000
11.116200 1.612400
11.130200 1.586300
11.144300 1.564600
11.158400 1.550000
11.172500 1.511900
11.186600 1.486200
11.200700 1.473600
11.214700 1.464200
11.228800 1.455200
11.242900 1.449300
11.257000 1.436300
11.271100 1.438200
11.285200 1.440000
11.299200 1.430200
11.313300 1.418300
11.327400 1.404000
11.341500 1.387500
11.355600 1.369300
11.369600 1.348600
11.383700 1.336300
11.397800 1.339000
11.411900 1.331500
11.426000 1.311100
11.440100 1.296500
11.454100 1.292800
11.468200 1.279400
11.482300 1.257900
11.496400 1.227300
11.510500 1.198400
11.524600 1.173000
11.538600 1.118500
11.552700 1.015800
11.566800 0.944500
11.580900 0.935300
11.595000 0.942400
11.609000 0.973400
11.623100 1.020600
11.637200 1.053100
11.651300 1.071800
11.665400 1.087900
11.679500 1.087500
11.693500 1.104100
11.707600 1.158300
11.721700 1.216200
11.735800 1.270300
11.749900 1.306400
11.764000 1.326700
11.778000 1.336900
11.792100 1.340100
11.806200 1.302600
11.820300 1.256600
11.834400 1.244700
11.848400 1.249200
11.862500 1.255500
11.876600 1.263100
11.890700 1.267800
11.904800 1.268400
11.918900 1.266700
11.932900 1.263900
11.947000 1.264200
11.961100 1.266700
11.975200 1.268300
11.989300 1.271400
12.003400 1.276900
12.017400 1.284000
12.031500 1.293200
12.045600 1.304400
12.059700 1.316100
12.073800 1.327800
12.087800 1.339600
12.101900 1.352200
12.116000 1.369300
12.130100 1.391000
12.144200 1.407500
12.158300 1.429800
12.172300 1.456600
12.186400 1.483400
12.200500 1.506300
12.214600 1.531200
12.228700 1.564900
12.242800 1.607400
12.256800 1.656800
12.270900 1.708800
12.285000 1.742100
12.299100 1.804200
12.313200 1.898400
12.327200 2.016900
12.341300 2.144100
12.355400 2.216500
12.369500 2.240400
12.383600 2.249000
12.397700 2.237800
12.411700 2.226400
12.425800 2.213200
12.439900 2.189900
12.454000 2.143500
12.468100 2.045700
12.482200 1.983100
12.496200 1.952100
12.510300 1.905500
12.524400 1.844500
12.538500 1.787300
12.552600 1.737400
12.566600 1.704000
12.580700 1.668700
12.594800 1.620000
12.608900 1.554500
12.623000 1.485300
12.637100 1.412700
12.651100 1.342700
12.665200 1.278300
12.679300 1.218800
12.693400 1.176300
12.707500 1.144300
12.721600 1.116300
12.735600 1.088400
12.749700 1.064000
12.763800 1.044300
12.777900 1.030000
12.792000 1.019300
12.806000 1.011600
12.820100 1.007100
12.834200 1.009800
12.848300 1.027600
12.862400 1.074500
12.876500 1.151000
12.890500 1.198400
12.904600 1.184600
12.918700 1.200200
12.932800 1.222900
12.946900 1.243400
12.961000 1.266800
12.975000 1.293200
12.989100 1.322300
13.003200 1.348800
13.017300 1.370800
13.031400 1.387000
13.045400 1.385500
13.059500 1.354200
13.073600 1.324300
13.087700 1.302900
13.101800 1.291600
13.115900 1.308300
13.129900 1.334900
13.144000 1.343100
13.158100 1.366800
13.172200 1.398500
13.186300 1.451100
13.200400 1.516400
13.214400 1.578500
13.228500 1.632000
13.242600 1.813700
13.256700 1.830900
13.270800 1.804000
13.284800 1.836000
13.298900 1.883400
13.313000 1.931200
13.327100 1.974800
13.341200 2.011900
13.355300 2.040600
13.369300 2.063800
13.383400 2.078500
13.397500 2.087000
13.411600 2.089800
13.425700 2.095000
13.439800 2.091800
13.453800 2.087700
13.467900 2.100400
13.482000 2.137900
13.496100 2.163400
13.510200 2.183100
13.524200 2.215900
13.538300 2.260100
13.552400 2.306000
13.566500 2.272900
13.580600 2.253000
13.594700 2.251100
13.608700 2.256500
13.622800 2.278200
13.636900 2.317300
13.651000 2.424000
13.665100 2.430300
13.679200 2.371500
13.693200 2.346100
13.707300 2.341400
13.721400 2.358800
13.735500 2.325800
13.749600 2.255100
13.763600 2.192300
13.777700 2.133300
13.791800 2.090400
13.805900 2.061500
13.820000 2.062800
13.834100 2.078900
13.848100 2.103800
13.862200 2.139200
13.876300 2.195500
13.890400 2.240400
13.904500 2.283300
13.918600 2.343800
13.932600 2.430800
13.946700 2.452100
13.960800 2.478100
13.974900 2.498900
13.989000 2.544500
14.003000 2.614400
14.017100 2.704500
14.031200 2.771400
14.045300 2.852000
14.059400 2.959700
14.073500 2.885600
14.087500 2.773600
14.101600 2.700300
14.115700 2.625500
14.129800 2.557900
14.143900 2.520500
14.158000 2.490000
14.172000 2.463900
14.186100 2.461300
14.200200 2.470400
14.214300 2.490400
14.228400 2.508300
14.242400 2.522500
14.256500 2.558200
14.270600 2.617000
14.284700 2.642300
14.298800 2.633800
14.312900 2.618600
14.326900 2.602000
14.341000 2.527500
14.355100 2.511700
14.369200 2.497600
14.383300 2.486000
14.397400 2.478900
14.411400 2.469500
14.425500 2.451600
14.439600 2.418500
14.453700 2.390700
14.467800 2.369100
14.481800 2.348400
14.495900 2.336300
14.510000 2.331800
14.524100 2.333800
14.538200 2.344300
14.552300 2.449000
14.566300 2.514600
14.580400 2.477900
14.594500 2.482500
14.608600 2.484600
14.622700 2.418900
14.636800 2.293300
14.650800 2.236600
14.664900 2.186900
14.679000 2.160700
14.693100 2.152000
14.707200 2.156400
14.721200 2.166300
14.735300 2.157700
14.749400 2.152100
14.763500 2.171200
14.777600 2.188700
14.791700 2.191600
14.805700 2.179000
14.819800 2.165300
14.833900 2.159200
14.848000 2.136300
14.862100 2.107200
14.876200 2.065900
14.890200 2.042500
14.904300 2.028900
14.918400 2.031900
14.932500 2.042400
14.946600 2.051400
14.960600 2.059800
14.974700 2.084700
14.988800 2.140400
15.002900 2.122700
15.017000 2.159700
15.031100 2.190400
15.045100 2.230900
15.059200 2.279500
15.073300 2.334800
15.087400 2.396100
15.101500 2.447300
15.115600 2.478500
15.129600 2.536400
15.143700 2.572500
15.157800 2.623600
15.171900 2.653200
15.186000 2.717200
15.200000 2.816200
15.214100 2.908600
15.228200 3.023200
15.242300 3.401000
15.256400 3.276400
15.270500 3.207000
15.284500 3.192900
15.298600 3.213400
15.312700 3.213800
15.326800 3.194200
15.340900 3.201000
15.355000 3.219600
15.369000 3.237400
15.383100 3.253200
15.397200 3.175200
15.411300 3.053400
15.425400 2.963700
15.439400 2.907600
15.453500 2.838900
15.467600 2.782400
15.481700 2.741100
15.495800 2.681300
15.509900 2.612300
15.523900 2.576900
15.538000 2.545700
15.552100 2.524100
15.566200 2.513500
15.580300 2.514200
15.594400 2.507000
15.608400 2.517100
15.622500 2.527800
15.636600 2.566900
15.650700 2.608300
15.664800 2.660500
15.678800 2.701100
15.692900 2.682400
15.707000 2.636200
15.721100 2.606200
15.735200 2.580200
15.749300 2.557800
15.763300 2.538900
15.777400 2.526400
15.791500 2.508700
15.805600 2.487800
15.819700 2.481000
15.833800 2.472900
15.847800 2.464100
15.861900 2.450900
15.876000 2.423400
15.890100 2.404900
15.904200 2.391000
15.918200 2.312000
15.932300 2.212600
15.946400 2.144600
15.960500 2.067100
15.974600 2.022000
15.988700 1.972800
16.002700 1.932200
16.016800 1.894900
16.030900 1.863000
16.045000 1.839100
16.059100 1.815600
16.073200 1.793200
16.087200 1.783800
16.101300 1.771000
16.115400 1.761300
16.129500 1.748600
16.143600 1.737800
16.157600 1.722000
16.171700 1.707200
16.185800 1.694400
16.199900 1.685000
16.214000 1.679100
16.228100 1.678800
16.242100 1.687100
16.256200 1.699400
16.270300 1.703400
16.284400 1.697800
16.298500 1.691200
16.312600 1.708900
16.326600 1.740600
16.340700 1.772500
16.354800 1.810000
16.368900 1.844500
16.383000 1.844900
16.397000 1.823500
16.411100 1.792500
16.425200 1.776800
16.439300 1.767900
16.453400 1.752800
16.467500 1.732700
16.481500 1.710900
16.495600 1.694300
16.509700 1.674800
16.523800 1.658000
16.537900 1.645700
16.552000 1.639000
16.566000 1.644900
16.580100 1.659600
16.594200 1.679900
16.608300 1.700300
16.622400 1.725000
16.636400 1.750000
16.650500 1.775800
16.664600 1.801900
16.678700 1.827600
16.692800 1.916200
16.706900 1.960000
16.720900 1.882600
16.735000 1.876700
16.749100 1.831500
16.763200 1.786100
16.777300 1.751100
16.791400 1.728500
16.805400 1.713000
16.819500 1.701300
16.833600 1.691100
16.847700 1.682200
16.861800 1.674700
16.875800 1.670300
16.889900 1.676000
16.904000 1.684400
16.918100 1.690200
16.932200 1.695400
16.946300 1.700800
16.960300 1.704100
16.974400 1.706200
16.988500 1.704900
17.002600 1.696900
17.016700 1.684500
17.030800 1.678700
17.044800 1.670600
17.058900 1.663500
17.073000 1.655400
17.087100 1.642000
17.101200 1.624100
17.115200 1.603300
17.129300 1.579600
17.143400 1.553300
17.157500 1.523000
17.171600 1.488700
17.185700 1.453300
17.199700 1.417600
17.213800 1.375800
17.227900 1.332000
17.242000 1.292800
17.256100 1.259000
17.270100 1.231600
17.284200 1.207400
17.298300 1.197100
17.312400 1.193100
17.326500 1.191100
17.340600 1.188000
17.354600 1.183900
17.368700 1.173600
17.382800 1.157400
17.396900 1.139100
17.411000 1.120000
17.425100 1.098200
17.439100 1.072300
17.453200 1.049300
17.467300 1.027400
17.481400 1.008600
17.495500 0.993300
17.509500 0.981900
17.523600 0.971400
17.537700 0.962900
17.551800 0.959600
17.565900 0.951400
17.580000 0.941300
17.594000 0.929600
17.608100 0.917500
17.622200 0.905500
17.636300 0.892900
17.650400 0.887300
17.664500 0.890600
17.678500 0.892200
17.692600 0.894600
17.706700 0.868100
17.720800 0.845700
17.734900 0.831900
17.748900 0.826500
17.763000 0.828400
17.777100 0.833600
17.791200 0.839600
17.805300 0.847300
17.819400 0.851800
17.833400 0.863300
17.847500 0.873800
17.861600 0.879100
17.875700 0.878900
17.889800 0.871100
17.903900 0.861000
17.917900 0.851000
17.932000 0.842300
17.946100 0.819600
17.960200 0.776400
17.974300 0.742300
17.988300 0.720100
18.002400 0.708200
18.016500 0.697400
18.030600 0.687100
18.044700 0.675700
18.058800 0.664500
18.072800 0.654200
18.086900 0.645700
18.101000 0.637700
18.115100 0.621900
18.129200 0.606600
18.143300 0.591700
18.157300 0.577000
18.171400 0.563300
18.185500 0.550900
18.199600 0.540500
18.213700 0.532600
18.227700 0.526600
18.241800 0.514200
18.255900 0.502700
18.270000 0.492100
18.284100 0.482300
18.298200 0.473300
18.312200 0.461400
18.326300 0.441700
18.340400 0.416300
18.354500 0.391100
18.368600 0.366600
18.382700 0.343600
18.396700 0.322600
18.410800 0.303500
18.424900 0.286000
18.439000 0.269500
18.453100 0.254000
18.467100 0.239300
18.481200 0.225400
18.495300 0.212100
18.509400 0.199300
18.523500 0.187300
18.537600 0.176300
18.551600 0.166200
18.565700 0.156700
18.579800 0.147200
18.593900 0.138300
18.608000 0.130600
18.622100 0.124100
18.636100 0.118400
18.650200 0.112700
18.664300 0.106700
18.678400 0.100700
18.692500 0.096500
18.706500 0.092200
18.720600 0.088100
18.734700 0.084000
18.748800 0.080000
18.762900 0.076000
18.777000 0.072100
18.791000 0.068300
18.805100 0.064500
18.819200 0.060800
18.833300 0.057200
18.847400 0.053600
18.861500 0.050100
18.875500 0.046600
18.889600 0.043200
18.903700 0.040000
18.917800 0.036800
18.931900 0.033800
18.945900 0.030800
18.960000 0.027900
18.974100 0.025200
18.988200 0.022500
19.002300 0.020000
19.016400 0.017600
19.030400 0.015300
19.044500 0.013200
19.058600 0.011300
19.072700 0.009500
19.086800 0.007900
19.100900 0.006400
19.114900 0.005100
19.129000 0.003900
19.143100 0.002900
19.157200 0.002000
19.171300 0.001300
19.185300 0.000700
19.199400 0.000300
19.213500 0.000100
19.227600 0.000000
19.241700 0.000000
19.255800 0.000000
19.269800 0.000000
19.283900 0.000000
19.298000 0.000000
19.312100 0.000000
19.326200 0.000000
19.340300 0.000000
19.354300 0.000000
19.368400 0.000000
19.382500 0.000000
19.396600 0.000000
19.410700 0.000000
19.424700 0.000000
19.438800 0.000000
19.452900 0.000000
19.467000 0.000000
19.481100 0.000000
19.495200 0.000000
19.509200 0.000000
19.523300 0.000000
19.537400 0.000000
19.551500 0.000000
19.565600 0.000000
19.579700 0.000000
19.593700 0.000000
19.607800 0.000000
19.621900 0.000000
19.636000 0.000000
19.650100 0.000000
19.664100 0.000000
19.678200 0.000000
19.692300 0.000000
19.706400 0.000000
19.720500 0.000000
19.734600 0.000000
19.748600 0.000000
19.762700 0.000000
19.776800 0.000000
19.790900 0.000000
19.805000 0.000000
19.819100 0.000000
19.833100 0.000000
19.847200 0.000000
19.861300 0.000000
19.875400 0.000000
19.889500 0.000000
19.903500 0.000000
19.917600 0.000000
19.931700 0.000000
19.945800 0.000000
19.959900 0.000000
19.974000 0.000000
19.988000 0.000000
20.002100 0.000000
20.016200 0.000000
20.030300 0.000000
20.044400 0.000000
20.058500 0.000000
20.072500 0.000000
20.086600 0.000000
20.100700 0.000000
20.114800 0.000000
20.128900 0.000000
20.142900 0.000000
20.157000 0.000000
20.171100 0.000000
20.185200 0.000000
20.199300 0.000000
20.213400 0.000000
20.227400 0.000000
20.241500 0.000000
20.255600 0.000000
20.269700 0.000000
20.283800 0.000000
20.297900 0.000000
20.311900 0.000000
20.326000 0.000000
20.340100 0.000000
20.354200 0.000000
20.368300 0.000000
20.382300 0.000000
20.396400 0.000000
20.410500 0.000000
20.424600 0.000000
20.438700 0.000000
20.452800 0.000000
20.466800 0.000000
20.480900 0.000000
20.495000 0.000000
20.509100 0.000000
e
