set title 'mp-1184783 - Density of States'
set xlabel 'Energy (eV)'
set ylabel 'DOS (states/eV)'
set grid
set xrange [-10:10]
set yrange [0:9.469]
set xzeroaxis lt -1
set terminal png size 800,600
set output 'mp-1184783_dos_gnuplot.png'
plot '-' using 1:2 with lines title 'DOS'
-8.831700 0.000000
-8.806400 0.000000
-8.781100 0.000000
-8.755800 0.000000
-8.730500 0.000000
-8.705200 0.000000
-8.679900 0.000000
-8.654600 0.000000
-8.629300 0.000000
-8.604000 0.000000
-8.578700 0.000000
-8.553400 0.000000
-8.528100 0.000000
-8.502800 0.000000
-8.477600 0.000000
-8.452300 0.000000
-8.427000 0.000000
-8.401700 0.000000
-8.376400 0.000000
-8.351100 0.000000
-8.325800 0.000000
-8.300500 0.000000
-8.275200 0.000000
-8.249900 0.000000
-8.224600 0.000000
-8.199300 0.000000
-8.174000 0.000000
-8.148700 0.000000
-8.123400 0.000000
-8.098100 0.000000
-8.072800 0.000000
-8.047500 0.000000
-8.022200 0.000000
-7.996900 0.000000
-7.971600 0.000000
-7.946300 0.000000
-7.921000 0.000000
-7.895700 0.000000
-7.870400 0.000000
-7.845100 0.000000
-7.819800 0.000000
-7.794500 0.000000
-7.769200 0.000000
-7.743900 0.000000
-7.718600 0.000000
-7.693300 0.000000
-7.668000 0.000000
-7.642700 0.000000
-7.617400 0.000000
-7.592100 0.000000
-7.566800 0.000000
-7.541500 0.000000
-7.516200 0.000000
-7.490900 0.000000
-7.465600 0.000000
-7.440300 0.000000
-7.415100 0.000000
-7.389800 0.000000
-7.364500 0.000000
-7.339200 0.000000
-7.313900 0.000000
-7.288600 0.000000
-7.263300 0.000000
-7.238000 0.000000
-7.212700 0.000000
-7.187400 0.000000
-7.162100 0.000000
-7.136800 0.000000
-7.111500 0.000000
-7.086200 0.000000
-7.060900 0.000000
-7.035600 0.000000
-7.010300 0.000000
-6.985000 0.000000
-6.959700 0.000000
-6.934400 0.000000
-6.909100 0.000000
-6.883800 0.000000
-6.858500 0.000000
-6.833200 0.000000
-6.807900 0.000000
-6.782600 0.000000
-6.757300 0.000000
-6.732000 0.000000
-6.706700 0.000000
-6.681400 0.000000
-6.656100 0.000000
-6.630800 0.000200
-6.605500 0.001800
-6.580200 0.008700
-6.554900 0.028500
-6.529600 0.069300
-6.504300 0.135400
-6.479000 0.217900
-6.453700 0.275200
-6.428400 0.283600
-6.403100 0.311300
-6.377800 0.418900
-6.352600 0.541200
-6.327300 0.582700
-6.302000 0.530800
-6.276700 0.480300
-6.251400 0.557500
-6.226100 0.752500
-6.200800 0.910200
-6.175500 0.910400
-6.150200 0.845700
-6.124900 0.909100
-6.099600 1.068200
-6.074300 1.150800
-6.049000 1.191600
-6.023700 1.318300
-5.998400 1.506700
-5.973100 1.716600
-5.947800 1.950000
-5.922500 2.124300
-5.897200 2.230700
-5.871900 2.485800
-5.846600 2.975200
-5.821300 3.486200
-5.796000 3.952500
-5.770700 4.628400
-5.745400 5.739100
-5.720100 7.088500
-5.694800 7.943900
-5.669500 7.494900
-5.644200 5.589700
-5.618900 3.088700
-5.593600 1.192300
-5.568300 0.307700
-5.543000 0.051500
-5.517700 0.005500
-5.492400 0.000400
-5.467100 0.000000
-5.441800 0.000000
-5.416500 0.000000
-5.391200 0.000000
-5.365900 0.000000
-5.340600 0.000000
-5.315300 0.000000
-5.290100 0.000000
-5.264800 0.000000
-5.239500 0.000000
-5.214200 0.000000
-5.188900 0.000000
-5.163600 0.000000
-5.138300 0.000000
-5.113000 0.000000
-5.087700 0.000000
-5.062400 0.000000
-5.037100 0.000000
-5.011800 0.000000
-4.986500 0.000000
-4.961200 0.000000
-4.935900 0.000000
-4.910600 0.000000
-4.885300 0.000000
-4.860000 0.000000
-4.834700 0.000000
-4.809400 0.000000
-4.784100 0.000000
-4.758800 0.000000
-4.733500 0.000000
-4.708200 0.000000
-4.682900 0.000000
-4.657600 0.000000
-4.632300 0.000000
-4.607000 0.000000
-4.581700 0.000000
-4.556400 0.000000
-4.531100 0.000000
-4.505800 0.000000
-4.480500 0.000000
-4.455200 0.000000
-4.429900 0.000000
-4.404600 0.000000
-4.379300 0.000000
-4.354000 0.000000
-4.328700 0.000000
-4.303400 0.000000
-4.278100 0.000000
-4.252900 0.000000
-4.227600 0.000000
-4.202300 0.000000
-4.177000 0.000000
-4.151700 0.000000
-4.126400 0.000000
-4.101100 0.000000
-4.075800 0.000000
-4.050500 0.000000
-4.025200 0.000000
-3.999900 0.000000
-3.974600 0.000000
-3.949300 0.000000
-3.924000 0.000000
-3.898700 0.000000
-3.873400 0.000000
-3.848100 0.000000
-3.822800 0.000000
-3.797500 0.000000
-3.772200 0.000000
-3.746900 0.000000
-3.721600 0.000000
-3.696300 0.000000
-3.671000 0.000000
-3.645700 0.000000
-3.620400 0.000000
-3.595100 0.000000
-3.569800 0.000000
-3.544500 0.000000
-3.519200 0.000000
-3.493900 0.000000
-3.468600 0.000000
-3.443300 0.000000
-3.418000 0.000000
-3.392700 0.000000
-3.367400 0.000000
-3.342100 0.000000
-3.316800 0.000000
-3.291500 0.000000
-3.266200 0.000000
-3.240900 0.000000
-3.215600 0.000000
-3.190400 0.000000
-3.165100 0.000000
-3.139800 0.000000
-3.114500 0.000000
-3.089200 0.000000
-3.063900 0.000000
-3.038600 0.000000
-3.013300 0.000000
-2.988000 0.000000
-2.962700 0.000000
-2.937400 0.000000
-2.912100 0.000000
-2.886800 0.000000
-2.861500 0.000000
-2.836200 0.000000
-2.810900 0.000000
-2.785600 0.000000
-2.760300 0.000000
-2.735000 0.000000
-2.709700 0.000000
-2.684400 0.000000
-2.659100 0.000000
-2.633800 0.000000
-2.608500 0.000000
-2.583200 0.000000
-2.557900 0.000000
-2.532600 0.000000
-2.507300 0.000000
-2.482000 0.000000
-2.456700 0.000000
-2.431400 0.000000
-2.406100 0.000000
-2.380800 0.000000
-2.355500 0.000000
-2.330200 0.000000
-2.304900 0.000000
-2.279600 0.000000
-2.254300 0.000000
-2.229000 0.000000
-2.203700 0.000000
-2.178400 0.000000
-2.153100 0.000000
-2.127900 0.000000
-2.102600 0.000000
-2.077300 0.000000
-2.052000 0.000000
-2.026700 0.000000
-2.001400 0.000000
-1.976100 0.000000
-1.950800 0.000000
-1.925500 0.000000
-1.900200 0.000000
-1.874900 0.000000
-1.849600 0.000000
-1.824300 0.000000
-1.799000 0.000000
-1.773700 0.000000
-1.748400 0.000000
-1.723100 0.000000
-1.697800 0.000000
-1.672500 0.000000
-1.647200 0.000000
-1.621900 0.000000
-1.596600 0.000000
-1.571300 0.000000
-1.546000 0.000000
-1.520700 0.000000
-1.495400 0.000000
-1.470100 0.000000
-1.444800 0.000000
-1.419500 0.000000
-1.394200 0.000000
-1.368900 0.000000
-1.343600 0.000000
-1.318300 0.000000
-1.293000 0.000000
-1.267700 0.000000
-1.242400 0.000000
-1.217100 0.000000
-1.191800 0.000000
-1.166500 0.000000
-1.141200 0.000000
-1.115900 0.000000
-1.090600 0.000000
-1.065400 0.000000
-1.040100 0.000000
-1.014800 0.000000
-0.989500 0.000000
-0.964200 0.000000
-0.938900 0.000000
-0.913600 0.000000
-0.888300 0.000000
-0.863000 0.000000
-0.837700 0.000000
-0.812400 0.000000
-0.787100 0.000000
-0.761800 0.000000
-0.736500 0.000000
-0.711200 0.000000
-0.685900 0.000000
-0.660600 0.000000
-0.635300 0.000000
-0.610000 0.000000
-0.584700 0.000000
-0.559400 0.000000
-0.534100 0.000000
-0.508800 0.000000
-0.483500 0.000000
-0.458200 0.000000
-0.432900 0.000000
-0.407600 0.000000
-0.382300 0.000000
-0.357000 0.000000
-0.331700 0.000000
-0.306400 0.000000
-0.281100 0.000000
-0.255800 0.000000
-0.230500 0.000000
-0.205200 0.000000
-0.179900 0.000000
-0.154600 0.000000
-0.129300 0.000000
-0.104000 0.000000
-0.078700 0.000000
-0.053400 0.000000
-0.028100 0.000000
-0.002900 0.000000
0.022400 0.000000
0.047700 0.000000
0.073000 0.000000
0.098300 0.000000
0.123600 0.000000
0.148900 0.000000
0.174200 0.000000
0.199500 0.000000
0.224800 0.000000
0.250100 0.000100
0.275400 0.000800
0.300700 0.004200
0.326000 0.014400
0.351300 0.036300
0.376600 0.077200
0.401900 0.142400
0.427200 0.212100
0.452500 0.250300
0.477800 0.265400
0.503100 0.311100
0.528400 0.406200
0.553700 0.530000
0.579000 0.719900
0.604300 1.017300
0.629600 1.361300
0.654900 1.720900
0.680200 2.145300
0.705500 2.529000
0.730800 2.669200
0.756100 2.621300
0.781400 2.618700
0.806700 2.730000
0.832000 2.848000
0.857300 2.929200
0.882600 3.025700
0.907900 3.068200
0.933200 2.928600
0.958500 2.677900
0.983800 2.560000
1.009100 2.646400
1.034300 2.721600
1.059600 2.583200
1.084900 2.244600
1.110200 1.865800
1.135500 1.602100
1.160800 1.526900
1.186100 1.605600
1.211400 1.729200
1.236700 1.795500
1.262000 1.692800
1.287300 1.400600
1.312600 1.110300
1.337900 1.006400
1.363200 1.082500
1.388500 1.236300
1.413800 1.342200
1.439100 1.295700
1.464400 1.087200
1.489700 0.823500
1.515000 0.630300
1.540300 0.547900
1.565600 0.577800
1.590900 0.717400
1.616200 0.925600
1.641500 1.092300
1.666800 1.072600
1.692100 0.880100
1.717400 0.759000
1.742700 0.859800
1.768000 1.057300
1.793300 1.153100
1.818600 1.073300
1.843900 0.926300
1.869200 0.868200
1.894500 0.934700
1.919800 1.068900
1.945100 1.224600
1.970400 1.358400
1.995700 1.475700
2.021000 1.729800
2.046300 2.177800
2.071600 2.581900
2.096800 2.758200
2.122100 2.869200
2.147400 3.062700
2.172700 3.104900
2.198000 2.830800
2.223300 2.542900
2.248600 2.527100
2.273900 2.677300
2.299200 2.802500
2.324500 2.833500
2.349800 2.778400
2.375100 2.732700
2.400400 2.779500
2.425700 2.946100
2.451000 3.260300
2.476300 3.757600
2.501600 4.479000
2.526900 5.250900
2.552200 5.701800
2.577500 5.665500
2.602800 5.227500
2.628100 4.623900
2.653400 4.172600
2.678700 4.036500
2.704000 4.165700
2.729300 4.362900
2.754600 4.346400
2.779900 3.953000
2.805200 3.320000
2.830500 2.771600
2.855800 2.535400
2.881100 2.523600
2.906400 2.450400
2.931700 2.283100
2.957000 2.264600
2.982300 2.443200
3.007600 2.573500
3.032900 2.408600
3.058200 1.946500
3.083500 1.431200
3.108800 1.099000
3.134100 0.974000
3.159300 0.919100
3.184600 0.803200
3.209900 0.653400
3.235200 0.599900
3.260500 0.673400
3.285800 0.797600
3.311100 0.906000
3.336400 0.917400
3.361700 0.796500
3.387000 0.725000
3.412300 0.865100
3.437600 1.065700
3.462900 1.138300
3.488200 1.125900
3.513500 1.136400
3.538800 1.225900
3.564100 1.376500
3.589400 1.467400
3.614700 1.478800
3.640000 1.600300
3.665300 1.931200
3.690600 2.340600
3.715900 2.677200
3.741200 2.955100
3.766500 3.311900
3.791800 3.664800
3.817100 3.760200
3.842400 3.645500
3.867700 3.555400
3.893000 3.627100
3.918300 4.027200
3.943600 4.875000
3.968900 5.872000
3.994200 6.552100
4.019500 6.901400
4.044800 7.009400
4.070100 6.681400
4.095400 5.923900
4.120700 5.058400
4.146000 4.334000
4.171300 3.813800
4.196600 3.548900
4.221800 3.649200
4.247100 4.096400
4.272400 4.553200
4.297700 4.635500
4.323000 4.454700
4.348300 4.479000
4.373600 4.818800
4.398900 5.200400
4.424200 5.411200
4.449500 5.274800
4.474800 4.759900
4.500100 4.185900
4.525400 3.810500
4.550700 3.585900
4.576000 3.494600
4.601300 3.593400
4.626600 3.910300
4.651900 4.411700
4.677200 4.653800
4.702500 4.152400
4.727800 3.308800
4.753100 2.914300
4.778400 3.090100
4.803700 3.491700
4.829000 3.744600
4.854300 3.573000
4.879600 3.135000
4.904900 2.871100
4.930200 2.898300
4.955500 2.906300
4.980800 2.762900
5.006100 2.710900
5.031400 2.874000
5.056700 3.069700
5.082000 3.014300
5.107300 2.691400
5.132600 2.444500
5.157900 2.479700
5.183200 2.695900
5.208500 3.006500
5.233800 3.379500
5.259100 3.708700
5.284300 3.983900
5.309600 4.437400
5.334900 5.182300
5.360200 6.009300
5.385500 6.601600
5.410800 6.743900
5.436100 6.662100
5.461400 6.947200
5.486700 7.731900
5.512000 8.467300
5.537300 8.607800
5.562600 8.009000
5.587900 6.997900
5.613200 6.183800
5.638500 5.853700
5.663800 5.757700
5.689100 5.586200
5.714400 5.332900
5.739700 5.055800
5.765000 4.757600
5.790300 4.502100
5.815600 4.311800
5.840900 4.204300
5.866200 4.203000
5.891500 4.138900
5.916800 3.877200
5.942100 3.649100
5.967400 3.735400
5.992700 4.056600
6.018000 4.280500
6.043300 4.134500
6.068600 3.627100
6.093900 3.140900
6.119200 3.063100
6.144500 3.283100
6.169800 3.484700
6.195100 3.614300
6.220400 3.659500
6.245700 3.468800
6.271000 3.089900
6.296300 2.786400
6.321500 2.551900
6.346800 2.232800
6.372100 1.990600
6.397400 2.134500
6.422700 2.710400
6.448000 3.483900
6.473300 4.162500
6.498600 4.461100
6.523900 4.270700
6.549200 3.862600
6.574500 3.525000
6.599800 3.237900
6.625100 3.018600
6.650400 3.168200
6.675700 3.848400
6.701000 4.725700
6.726300 5.245700
6.751600 5.172000
6.776900 4.837300
6.802200 4.651700
6.827500 4.579900
6.852800 4.551100
6.878100 4.710300
6.903400 4.863900
6.928700 4.517700
6.954000 3.692700
6.979300 3.041400
7.004600 2.967800
7.029900 3.225200
7.055200 3.469400
7.080500 3.675000
7.105800 3.944400
7.131100 4.292000
7.156400 4.588700
7.181700 4.628500
7.207000 4.501900
7.232300 4.584200
7.257600 4.941200
7.282900 5.344000
7.308200 5.926600
7.333500 6.964600
7.358800 8.023400
7.384000 8.280600
7.409300 7.719100
7.434600 7.146000
7.459900 6.929300
7.485200 6.654400
7.510500 6.135900
7.535800 5.783200
7.561100 5.871200
7.586400 6.171100
7.611700 6.353600
7.637000 6.467300
7.662300 6.806400
7.687600 7.329900
7.712900 7.688700
7.738200 7.641800
7.763500 7.095000
7.788800 6.210800
7.814100 5.335800
7.839400 4.635500
7.864700 4.144300
7.890000 3.929600
7.915300 3.947300
7.940600 4.068700
7.965900 4.282300
7.991200 4.635600
8.016500 5.107600
8.041800 5.527200
8.067100 5.547000
8.092400 5.027700
8.117700 4.254200
8.143000 3.597000
8.168300 3.313900
8.193600 3.500400
8.218900 3.927500
8.244200 4.138100
8.269500 3.955400
8.294800 3.675800
8.320100 3.617300
8.345400 3.793700
8.370700 4.085600
8.396000 4.412400
8.421300 4.690100
8.446500 4.810600
8.471800 4.705500
8.497100 4.334600
8.522400 3.800200
8.547700 3.511700
8.573000 3.792800
8.598300 4.431200
8.623600 4.972600
8.648900 5.078000
8.674200 4.579000
8.699500 3.750200
8.724800 3.191300
8.750100 3.096600
8.775400 3.137300
8.800700 3.066600
8.826000 2.955200
8.851300 2.880500
8.876600 2.795800
8.901900 2.673600
8.927200 2.483500
8.952500 2.199900
8.977800 1.965500
9.003100 1.970100
9.028400 2.090100
9.053700 2.021800
9.079000 1.817600
9.104300 1.798800
9.129600 2.087400
9.154900 2.546600
9.180200 2.940000
9.205500 3.202300
9.230800 3.561800
9.256100 4.117600
9.281400 4.658500
9.306700 5.081300
9.332000 5.494400
9.357300 5.880800
9.382600 6.022900
9.407900 5.919500
9.433200 5.860900
9.458500 5.863600
9.483800 5.717000
9.509000 5.593800
9.534300 5.756500
9.559600 6.006800
9.584900 6.093800
9.610200 6.059100
9.635500 5.904800
9.660800 5.518300
9.686100 4.951800
9.711400 4.413400
9.736700 4.068500
9.762000 3.920400
9.787300 3.899100
9.812600 3.910400
9.837900 3.872700
9.863200 3.841900
9.888500 3.803900
9.913800 3.648100
9.939100 3.470200
9.964400 3.456400
9.989700 3.617400
10.015000 3.831400
10.040300 3.899300
10.065600 3.736700
10.090900 3.593000
10.116200 3.735100
10.141500 4.078700
10.166800 4.291900
10.192100 4.166800
10.217400 3.841000
10.242700 3.615400
10.268000 3.622100
10.293300 3.636400
10.318600 3.420200
10.343900 3.148300
10.369200 3.090800
10.394500 3.157300
10.419800 3.076400
10.445100 2.899700
10.470400 2.975800
10.495700 3.333600
10.521000 3.560500
10.546300 3.399600
10.571500 3.032200
10.596800 2.752200
10.622100 2.642200
10.647400 2.612800
10.672700 2.679500
10.698000 3.007500
10.723300 3.525100
10.748600 3.753200
10.773900 3.383900
10.799200 2.726800
10.824500 2.258600
10.849800 2.182900
10.875100 2.432200
10.900400 2.744100
10.925700 2.910400
10.951000 2.867600
10.976300 2.669400
11.001600 2.525200
11.026900 2.509000
11.052200 2.386300
11.077500 2.009400
11.102800 1.542800
11.128100 1.142700
11.153400 0.820200
11.178700 0.630000
11.204000 0.618800
11.229300 0.656100
11.254600 0.576900
11.279900 0.412500
11.305200 0.311300
11.330500 0.306800
11.355800 0.327400
11.381100 0.369300
11.406400 0.490000
11.431700 0.674200
11.457000 0.809800
11.482300 0.829000
11.507600 0.803500
11.532900 0.788200
11.558200 0.715000
11.583500 0.551100
11.608700 0.355300
11.634000 0.187400
11.659300 0.103700
11.684600 0.173800
11.709900 0.458300
11.735200 0.888000
11.760500 1.157000
11.785800 1.007900
11.811100 0.602800
11.836400 0.309700
11.861700 0.266800
11.887000 0.336900
11.912300 0.365800
11.937600 0.367000
11.962900 0.406600
11.988200 0.464900
12.013500 0.486600
12.038800 0.441000
12.064100 0.368500
12.089400 0.361500
12.114700 0.458600
12.140000 0.635600
12.165300 0.816000
12.190600 0.856100
12.215900 0.702000
12.241200 0.550800
12.266500 0.624200
12.291800 0.815000
12.317100 0.831200
12.342400 0.621100
12.367700 0.386000
12.393000 0.291100
12.418300 0.365900
12.443600 0.533900
12.468900 0.682300
12.494200 0.775100
12.519500 0.846200
12.544800 0.949100
12.570100 1.113000
12.595400 1.270600
12.620700 1.348900
12.646000 1.361000
12.671200 1.304000
12.696500 1.142000
12.721800 0.929000
12.747100 0.810600
12.772400 0.849900
12.797700 0.987500
12.823000 1.186000
12.848300 1.402900
12.873600 1.505800
12.898900 1.445800
12.924200 1.375300
12.949500 1.466100
12.974800 1.697300
13.000100 1.840300
13.025400 1.708300
13.050700 1.352900
13.076000 0.970200
13.101300 0.719800
13.126600 0.686300
13.151900 0.884100
13.177200 1.173400
13.202500 1.350300
13.227800 1.425100
13.253100 1.665700
13.278400 2.148900
13.303700 2.368100
13.329000 1.901300
13.354300 1.163500
13.379600 0.748300
13.404900 0.705000
13.430200 0.782200
13.455500 0.802300
13.480800 0.795200
13.506100 0.893400
13.531400 1.084900
13.556700 1.211500
13.582000 1.223600
13.607300 1.242000
13.632600 1.322400
13.657900 1.363600
13.683200 1.363300
13.708500 1.512200
13.733700 1.816400
13.759000 1.976000
13.784300 1.887700
13.809600 1.825700
13.834900 2.020000
13.860200 2.362100
13.885500 2.598600
13.910800 2.691900
13.936100 2.705200
13.961400 2.555600
13.986700 2.240000
14.012000 1.948400
14.037300 1.764500
14.062600 1.631200
14.087900 1.622300
14.113200 1.906900
14.138500 2.382900
14.163800 2.613400
14.189100 2.415500
14.214400 2.286600
14.239700 2.717700
14.265000 3.375000
14.290300 3.620500
14.315600 3.343900
14.340900 2.771800
14.366200 2.082800
14.391500 1.477000
14.416800 1.164200
14.442100 1.149500
14.467400 1.269700
14.492700 1.414900
14.518000 1.550600
14.543300 1.564900
14.568600 1.301400
14.593900 0.904100
14.619200 0.735300
14.644500 0.846500
14.669800 0.979700
14.695100 0.975600
14.720400 0.874900
14.745700 0.766800
14.771000 0.695600
14.796200 0.721200
14.821500 0.935600
14.846800 1.263500
14.872100 1.457900
14.897400 1.477400
14.922700 1.545800
14.948000 1.785300
14.973300 2.034400
14.998600 2.035200
15.023900 1.735700
15.049200 1.317900
15.074500 1.010800
15.099800 0.913500
15.125100 0.951600
15.150400 1.006500
15.175700 1.077000
15.201000 1.221100
15.226300 1.383100
15.251600 1.461900
15.276900 1.453500
15.302200 1.447700
15.327500 1.593600
15.352800 1.915500
15.378100 2.131700
15.403400 2.026700
15.428700 1.791700
15.454000 1.632900
15.479300 1.497800
15.504600 1.364500
15.529900 1.423600
15.555200 1.764100
15.580500 2.067200
15.605800 1.980700
15.631100 1.575300
15.656400 1.196000
15.681700 1.120600
15.707000 1.353700
15.732300 1.592300
15.757600 1.543400
15.782900 1.278400
15.808200 1.030200
15.833500 0.870400
15.858700 0.815500
15.884000 0.915000
15.909300 1.070100
15.934600 1.107800
15.959900 1.066900
15.985200 1.133200
16.010500 1.363900
16.035800 1.604700
16.061100 1.672000
16.086400 1.537200
16.111700 1.298000
16.137000 1.121200
16.162300 1.147500
16.187600 1.299700
16.212900 1.391600
16.238200 1.385900
16.263500 1.354700
16.288800 1.292700
16.314100 1.127900
16.339400 0.897600
16.364700 0.709600
16.390000 0.582000
16.415300 0.492100
16.440600 0.473900
16.465900 0.540200
16.491200 0.624600
16.516500 0.702700
16.541800 0.798700
16.567100 0.892600
16.592400 0.951300
16.617700 0.979000
16.643000 1.045500
16.668300 1.195200
16.693600 1.342600
16.718900 1.404900
16.744200 1.460600
16.769500 1.635800
16.794800 1.935100
16.820100 2.342500
16.845400 2.808400
16.870700 3.050400
16.895900 2.821800
16.921200 2.248800
16.946500 1.665100
16.971800 1.361700
16.997100 1.377000
17.022400 1.411000
17.047700 1.177400
17.073000 0.789700
17.098300 0.581000
17.123600 0.631400
17.148900 0.758600
17.174200 0.887500
17.199500 1.050600
17.224800 1.144300
17.250100 1.084500
17.275400 1.056300
17.300700 1.279700
17.326000 1.664500
17.351300 1.923500
17.376600 1.862300
17.401900 1.493400
17.427200 1.074700
17.452500 0.958500
17.477800 1.221700
17.503100 1.598900
17.528400 1.839200
17.553700 1.944200
17.579000 2.041600
17.604300 2.147200
17.629600 2.160700
17.654900 2.007300
17.680200 1.762100
17.705500 1.681700
17.730800 1.947000
17.756100 2.374900
17.781400 2.532500
17.806700 2.231800
17.832000 1.739600
17.857300 1.391400
17.882600 1.291400
17.907900 1.448500
17.933200 1.789000
17.958400 2.018600
17.983700 2.005500
18.009000 2.034700
18.034300 2.217400
18.059600 2.288100
18.084900 2.163200
18.110200 2.010900
18.135500 1.863400
18.160800 1.668700
18.186100 1.532100
18.211400 1.547900
18.236700 1.591000
18.262000 1.557300
18.287300 1.571100
18.312600 1.742500
18.337900 1.973400
18.363200 2.122900
18.388500 2.093700
18.413800 1.879800
18.439100 1.711500
18.464400 1.761400
18.489700 1.849100
18.515000 1.781000
18.540300 1.554200
18.565600 1.247700
18.590900 1.081700
18.616200 1.257900
18.641500 1.690800
18.666800 2.035400
18.692100 1.992800
18.717400 1.687200
18.742700 1.494300
18.768000 1.514200
18.793300 1.538600
18.818600 1.420900
18.843900 1.214400
18.869200 1.020900
18.894500 0.938800
18.919800 1.038200
18.945100 1.298300
18.970400 1.598600
18.995700 1.753200
19.020900 1.697100
19.046200 1.562600
19.071500 1.489300
19.096800 1.559000
19.122100 1.813000
19.147400 2.048500
19.172700 1.902800
19.198000 1.459100
19.223300 1.247300
19.248600 1.496600
19.273900 1.954000
19.299200 2.306500
19.324500 2.387200
19.349800 2.233100
19.375100 2.107000
19.400400 2.146600
19.425700 2.196600
19.451000 2.080800
19.476300 1.815800
19.501600 1.619600
19.526900 1.648100
19.552200 1.793000
19.577500 1.889300
19.602800 1.986100
19.628100 2.188200
19.653400 2.377600
19.678700 2.415100
19.704000 2.397800
19.729300 2.406400
19.754600 2.283100
19.779900 1.961600
19.805200 1.719000
19.830500 1.712700
19.855800 1.688100
19.881100 1.455200
19.906400 1.181000
19.931700 1.121500
19.957000 1.311200
19.982300 1.542700
20.007600 1.634900
20.032900 1.582500
20.058200 1.472500
20.083400 1.438400
20.108700 1.500700
20.134000 1.509900
20.159300 1.422000
20.184600 1.347700
20.209900 1.311800
20.235200 1.244900
20.260500 1.160900
20.285800 1.102700
20.311100 1.060500
20.336400 1.116000
20.361700 1.342500
20.387000 1.594900
20.412300 1.717600
20.437600 1.798300
20.462900 1.965600
20.488200 2.115700
20.513500 2.067500
20.538800 1.853600
20.564100 1.647900
20.589400 1.482100
20.614700 1.287800
20.640000 1.108600
20.665300 1.038400
20.690600 1.088200
20.715900 1.153000
20.741200 1.122800
20.766500 1.033000
20.791800 0.982300
20.817100 0.960600
20.842400 0.916300
20.867700 0.922000
20.893000 1.073400
20.918300 1.274600
20.943600 1.347100
20.968900 1.265500
20.994200 1.085900
21.019500 0.892400
21.044800 0.875300
21.070100 1.151200
21.095400 1.547300
21.120700 1.770500
21.145900 1.735200
21.171200 1.605600
21.196500 1.597800
21.221800 1.777600
21.247100 1.975000
21.272400 1.994800
21.297700 1.880000
21.323000 1.760300
21.348300 1.709400
21.373600 1.875100
21.398900 2.347700
21.424200 2.889600
21.449500 3.068000
21.474800 2.859100
21.500100 2.778100
21.525400 3.069100
21.550700 3.330300
21.576000 3.158600
21.601300 2.633900
21.626600 2.040500
21.651900 1.578000
21.677200 1.355800
21.702500 1.360600
21.727800 1.482700
21.753100 1.637200
21.778400 1.863900
21.803700 2.250300
21.829000 2.742900
21.854300 3.198100
21.879600 3.390500
21.904900 3.084100
21.930200 2.497200
21.955500 2.216200
21.980800 2.379500
22.006100 2.528200
22.031400 2.353000
22.056700 2.026600
22.082000 1.819300
22.107300 1.876900
22.132600 2.198700
22.157900 2.442100
22.183100 2.144900
22.208400 1.422200
22.233700 0.885100
22.259000 0.840700
22.284300 1.054800
22.309600 1.190500
22.334900 1.161100
22.360200 1.064300
22.385500 1.004900
22.410800 1.023400
22.436100 1.064700
22.461400 1.071600
22.486700 1.121500
22.512000 1.315700
22.537300 1.586700
22.562600 1.754800
22.587900 1.776200
22.613200 1.769600
22.638500 1.778100
22.663800 1.793400
22.689100 1.877700
22.714400 1.957900
22.739700 1.851100
22.765000 1.622900
22.790300 1.458700
22.815600 1.365000
22.840900 1.314900
22.866200 1.358300
22.891500 1.503600
22.916800 1.739300
22.942100 2.056100
22.967400 2.313700
22.992700 2.316700
23.018000 2.028000
23.043300 1.657800
23.068600 1.483400
23.093900 1.536200
23.119200 1.702400
23.144500 1.981000
23.169800 2.352600
23.195100 2.690100
23.220400 2.855700
23.245600 2.698700
23.270900 2.254000
23.296200 1.811400
23.321500 1.604300
23.346800 1.713500
23.372100 2.115700
23.397400 2.565000
23.422700 2.733200
23.448000 2.665200
23.473300 2.683900
23.498600 2.756700
23.523900 2.664300
23.549200 2.617400
23.574500 2.903300
23.599800 3.300200
23.625100 3.445400
23.650400 3.365800
23.675700 3.203800
23.701000 2.930900
23.726300 2.650200
23.751600 2.556400
23.776900 2.525200
23.802200 2.390200
23.827500 2.338400
23.852800 2.481000
23.878100 2.569500
23.903400 2.426200
23.928700 2.221500
23.954000 2.173200
23.979300 2.247800
24.004600 2.281000
24.029900 2.142200
24.055200 1.849200
24.080500 1.609300
24.105800 1.579700
24.131100 1.720600
24.156400 1.848800
24.181700 1.836700
24.207000 1.822200
24.232300 1.887200
24.257600 1.840100
24.282900 1.635100
24.308100 1.405400
24.333400 1.182500
24.358700 1.011300
24.384000 1.038400
24.409300 1.297200
24.434600 1.545700
24.459900 1.543300
24.485200 1.378500
24.510500 1.260900
24.535800 1.304400
24.561100 1.543700
24.586400 1.798200
24.611700 1.713600
24.637000 1.267400
24.662300 0.879900
24.687600 0.796600
24.712900 0.873800
24.738200 0.991900
24.763500 1.161700
24.788800 1.334700
24.814100 1.455200
24.839400 1.572600
24.864700 1.708400
24.890000 1.750600
24.915300 1.666400
24.940600 1.660200
24.965900 1.878700
24.991200 2.145500
25.016500 2.239400
25.041800 2.211300
25.067100 2.199500
25.092400 2.145600
25.117700 1.968500
25.143000 1.812500
25.168300 1.855800
25.193600 2.024400
25.218900 2.117300
25.244200 2.130900
25.269500 2.240200
25.294800 2.461500
25.320100 2.583300
25.345400 2.509500
25.370600 2.367800
25.395900 2.267500
25.421200 2.222400
25.446500 2.173900
25.471800 2.006700
25.497100 1.683000
25.522400 1.299100
25.547700 1.086400
25.573000 1.297700
25.598300 1.855800
25.623600 2.350900
25.648900 2.571500
25.674200 2.702700
25.699500 2.780200
25.724800 2.659400
25.750100 2.521500
25.775400 2.538500
25.800700 2.569300
25.826000 2.540000
25.851300 2.487200
25.876600 2.364500
25.901900 2.170600
25.927200 2.027500
25.952500 1.987500
25.977800 2.047300
26.003100 2.232800
26.028400 2.448300
26.053700 2.564100
26.079000 2.519200
26.104300 2.253500
26.129600 1.880400
26.154900 1.695600
26.180200 1.859300
26.205500 2.184000
26.230800 2.399600
26.256100 2.582000
26.281400 2.879600
26.306700 3.092200
26.332000 3.042400
26.357300 2.896900
26.382600 2.781500
26.407900 2.727100
26.433100 2.887900
26.458400 3.206700
26.483700 3.332500
26.509000 3.211500
26.534300 3.181700
26.559600 3.375700
26.584900 3.522900
26.610200 3.361000
26.635500 2.944300
26.660800 2.547400
26.686100 2.365300
26.711400 2.373800
26.736700 2.490300
26.762000 2.635500
26.787300 2.616300
26.812600 2.299100
26.837900 1.853300
26.863200 1.581500
26.888500 1.663300
26.913800 2.075500
26.939100 2.548900
26.964400 2.716200
26.989700 2.479700
27.015000 2.101700
27.040300 1.915100
27.065600 2.030800
27.090900 2.311800
27.116200 2.630400
27.141500 3.014100
27.166800 3.396400
27.192100 3.461900
27.217400 3.055100
27.242700 2.471900
27.268000 2.094600
27.293300 1.951800
27.318600 1.860600
27.343900 1.779100
27.369200 1.706800
27.394500 1.645400
27.419800 1.706300
27.445100 1.884000
27.470300 2.044800
27.495600 2.203100
27.520900 2.375200
27.546200 2.450700
27.571500 2.467300
27.596800 2.598000
27.622100 2.894800
27.647400 3.238500
27.672700 3.375600
27.698000 3.213000
27.723300 2.949700
27.748600 2.640500
27.773900 2.245000
27.799200 2.059000
27.824500 2.295100
27.849800 2.561400
27.875100 2.443300
27.900400 2.136800
27.925700 2.040600
27.951000 2.191600
27.976300 2.337600
28.001600 2.337300
28.026900 2.357100
28.052200 2.539100
28.077500 2.668100
28.102800 2.523300
28.128100 2.318400
28.153400 2.397600
28.178700 2.813400
28.204000 3.333700
28.229300 3.541600
28.254600 3.249100
28.279900 2.832200
28.305200 2.712800
28.330500 2.810700
28.355800 2.836900
28.381100 2.752100
28.406400 2.677200
28.431700 2.571000
28.457000 2.282500
28.482300 1.977800
28.507600 2.070300
28.532800 2.650300
28.558100 3.378400
28.583400 3.779800
28.608700 3.567500
28.634000 2.955200
28.659300 2.444200
28.684600 2.316600
28.709900 2.502300
28.735200 2.690800
28.760500 2.659000
28.785800 2.534100
28.811100 2.550800
28.836400 2.785900
28.861700 3.180900
28.887000 3.548900
28.912300 3.615700
28.937600 3.246700
28.962900 2.657600
28.988200 2.159800
29.013500 1.823900
29.038800 1.589800
29.064100 1.421500
29.089400 1.375000
29.114700 1.548300
29.140000 1.879700
29.165300 2.131700
29.190600 2.192900
29.215900 2.226400
29.241200 2.358300
29.266500 2.457800
29.291800 2.421500
29.317100 2.444100
29.342400 2.627100
29.367700 2.705400
29.393000 2.589600
29.418300 2.631100
29.443600 3.024900
29.468900 3.395600
29.494200 3.307800
29.519500 2.846000
29.544800 2.389100
29.570100 2.180000
29.595300 2.238200
29.620600 2.446800
29.645900 2.628600
29.671200 2.622500
29.696500 2.397400
29.721800 2.092900
29.747100 1.935900
29.772400 2.017600
29.797700 2.246400
29.823000 2.507000
29.848300 2.679300
29.873600 2.692400
29.898900 2.556400
29.924200 2.269300
29.949500 1.992700
29.974800 2.051700
30.000100 2.422300
30.025400 2.667300
30.050700 2.536200
30.076000 2.275400
30.101300 2.268000
30.126600 2.502400
30.151900 2.699600
30.177200 2.772400
30.202500 2.804500
30.227800 2.925000
30.253100 3.201200
30.278400 3.468100
30.303700 3.465500
30.329000 3.066000
30.354300 2.409300
30.379600 1.883100
30.404900 1.664000
30.430200 1.472400
30.455500 1.138900
30.480800 0.943100
30.506100 1.097300
30.531400 1.349700
30.556700 1.457400
30.582000 1.634400
30.607300 2.002300
30.632600 2.223100
30.657800 2.123400
30.683100 1.972000
30.708400 2.005200
30.733700 2.174500
30.759000 2.314300
30.784300 2.347600
30.809600 2.311900
30.834900 2.306100
30.860200 2.380400
30.885500 2.361600
30.910800 2.056800
30.936100 1.642300
30.961400 1.493100
30.986700 1.654400
31.012000 1.858800
31.037300 2.045500
31.062600 2.387200
31.087900 2.816900
31.113200 2.996500
31.138500 2.714800
31.163800 2.167500
31.189100 1.837500
31.214400 2.031600
31.239700 2.626800
31.265000 3.191400
31.290300 3.327000
31.315600 3.009900
31.340900 2.542500
31.366200 2.219300
31.391500 2.230000
31.416800 2.696400
31.442100 3.478800
31.467400 4.107300
31.492700 4.103700
31.518000 3.408200
31.543300 2.478700
31.568600 1.848600
31.593900 1.684000
31.619200 1.800700
31.644500 1.901200
31.669800 1.864000
31.695100 1.839000
31.720300 1.954700
31.745600 2.122000
31.770900 2.189900
31.796200 2.217400
31.821500 2.426600
31.846800 2.744300
31.872100 2.829400
31.897400 2.625200
31.922700 2.369500
31.948000 2.132600
31.973300 1.857000
31.998600 1.701500
32.023900 1.833900
32.049200 2.094700
32.074500 2.188200
32.099800 2.007700
32.125100 1.808500
32.150400 1.990600
32.175700 2.555700
32.201000 3.034500
32.226300 3.043300
32.251600 2.757300
32.276900 2.597100
32.302200 2.685200
32.327500 2.925000
32.352800 3.117700
32.378100 3.091200
32.403400 3.032600
32.428700 3.186300
32.454000 3.498300
32.479300 3.818800
32.504600 3.905000
32.529900 3.537200
32.555200 2.971000
32.580500 2.748500
32.605800 3.004500
32.631100 3.429800
32.656400 3.850300
32.681700 4.187000
32.707000 4.152200
32.732300 3.706900
32.757500 3.295200
32.782800 3.292400
32.808100 3.477000
32.833400 3.269500
32.858700 2.664200
32.884000 2.219900
32.909300 2.105700
32.934600 2.089600
32.959900 2.046500
32.985200 1.894400
33.010500 1.699300
33.035800 1.797600
33.061100 2.254000
33.086400 2.608200
33.111700 2.566400
33.137000 2.451200
33.162300 2.567700
33.187600 2.749300
33.212900 2.746600
33.238200 2.558000
33.263500 2.315100
33.288800 2.080600
33.314100 1.890000
33.339400 1.817700
33.364700 1.807900
33.390000 1.734200
33.415300 1.729600
33.440600 1.991400
33.465900 2.416800
33.491200 2.759100
33.516500 2.769700
33.541800 2.345000
33.567100 1.764200
33.592400 1.392800
33.617700 1.309500
33.643000 1.395000
33.668300 1.515500
33.693600 1.584000
33.718900 1.580500
33.744200 1.591500
33.769500 1.734500
33.794800 2.046800
33.820000 2.394300
33.845300 2.514500
33.870600 2.378700
33.895900 2.227100
33.921200 2.231100
33.946500 2.451400
33.971800 2.761200
33.997100 2.801600
34.022400 2.491500
34.047700 2.130300
34.073000 1.858400
34.098300 1.618700
34.123600 1.435100
34.148900 1.353100
34.174200 1.363800
34.199500 1.414100
34.224800 1.394800
34.250100 1.307500
34.275400 1.283400
34.300700 1.449000
34.326000 1.831000
34.351300 2.328400
34.376600 2.868600
34.401900 3.312900
34.427200 3.457500
34.452500 3.385600
34.477800 3.230200
34.503100 2.900500
34.528400 2.468700
34.553700 2.243900
34.579000 2.353900
34.604300 2.614000
34.629600 2.837800
34.654900 3.045600
34.680200 3.253000
34.705500 3.302500
34.730800 3.008700
34.756100 2.495000
34.781400 2.114700
34.806700 1.995100
34.832000 2.044500
34.857300 2.101000
34.882500 1.994100
34.907800 1.793100
34.933100 1.746200
34.958400 1.934300
34.983700 2.223600
35.009000 2.432700
35.034300 2.514200
35.059600 2.611500
35.084900 2.805800
35.110200 3.012800
35.135500 3.245800
35.160800 3.498700
35.186100 3.600700
35.211400 3.562100
35.236700 3.500100
35.262000 3.384200
35.287300 3.249000
35.312600 3.109200
35.337900 2.844500
35.363200 2.544000
35.388500 2.478600
35.413800 2.683500
35.439100 2.866700
35.464400 2.849800
35.489700 2.881300
35.515000 3.171500
35.540300 3.474500
35.565600 3.504500
35.590900 3.331800
35.616200 3.120800
35.641500 2.897400
35.666800 2.623900
35.692100 2.338800
35.717400 2.201600
35.742700 2.305100
35.768000 2.520500
35.793300 2.620600
35.818600 2.586900
35.843900 2.632300
35.869200 2.797100
35.894500 2.939800
35.919800 3.028200
35.945000 3.080700
35.970300 3.130300
35.995600 3.186600
36.020900 3.145300
36.046200 2.939600
36.071500 2.648700
36.096800 2.464700
36.122100 2.630600
36.147400 3.121000
36.172700 3.414100
36.198000 3.116300
36.223300 2.557700
36.248600 2.287100
36.273900 2.390900
36.299200 2.594400
36.324500 2.802100
36.349800 3.097700
36.375100 3.287500
36.400400 3.075900
36.425700 2.530300
36.451000 1.955200
36.476300 1.631300
36.501600 1.754300
36.526900 2.300800
36.552200 3.013100
36.577500 3.689500
36.602800 4.241000
36.628100 4.441800
36.653400 4.187500
36.678700 3.787600
36.704000 3.561300
36.729300 3.561800
36.754600 3.756900
36.779900 4.022800
36.805200 4.014500
36.830500 3.572500
36.855800 3.048700
36.881100 2.751700
36.906400 2.580100
36.931700 2.448300
36.957000 2.454100
36.982300 2.688400
37.007500 3.074400
37.032800 3.253500
37.058100 2.973800
37.083400 2.472000
37.108700 2.180400
37.134000 2.310600
37.159300 2.772500
37.184600 3.324100
37.209900 3.780400
37.235200 4.124300
37.260500 4.390200
37.285800 4.490000
37.311100 4.277700
37.336400 3.832100
37.361700 3.566400
37.387000 3.676300
37.412300 3.851700
37.437600 3.811700
37.462900 3.559900
37.488200 3.301800
37.513500 3.276300
37.538800 3.462000
37.564100 3.700900
37.589400 3.935000
37.614700 4.158200
37.640000 4.321500
37.665300 4.369100
37.690600 4.260300
37.715900 3.934000
37.741200 3.524000
37.766500 3.311200
37.791800 3.294800
37.817100 3.160600
37.842400 2.760400
37.867700 2.464400
37.893000 2.659300
37.918300 3.082400
37.943600 3.235200
37.968900 3.082000
37.994200 2.877900
38.019500 2.742900
38.044700 2.668800
38.070000 2.573000
38.095300 2.342400
38.120600 2.063200
38.145900 2.024100
38.171200 2.301800
38.196500 2.507200
38.221800 2.278300
38.247100 1.810600
38.272400 1.534700
38.297700 1.583400
38.323000 1.763800
38.348300 1.872700
38.373600 1.847300
38.398900 1.676800
38.424200 1.410900
38.449500 1.136100
38.474800 0.893100
38.500100 0.736400
38.525400 0.712700
38.550700 0.775900
38.576000 0.860500
38.601300 0.927900
38.626600 0.948100
38.651900 0.887200
38.677200 0.731300
38.702500 0.559200
38.727800 0.499900
38.753100 0.545200
38.778400 0.526300
38.803700 0.384100
38.829000 0.260400
38.854300 0.239100
38.879600 0.245600
38.904900 0.216800
38.930200 0.175100
38.955500 0.137500
38.980800 0.089900
39.006100 0.041000
39.031400 0.013000
39.056700 0.010700
39.082000 0.039400
39.107200 0.109500
39.132500 0.187400
39.157800 0.196500
39.183100 0.126200
39.208400 0.049600
39.233700 0.011900
39.259000 0.001800
39.284300 0.000200
39.309600 0.000000
39.334900 0.000100
39.360200 0.001000
39.385500 0.007500
39.410800 0.032600
39.436100 0.087300
39.461400 0.143400
39.486700 0.144500
39.512000 0.089400
39.537300 0.033900
39.562600 0.007900
39.587900 0.001100
39.613200 0.000100
39.638500 0.000000
39.663800 0.000000
39.689100 0.000000
39.714400 0.000000
39.739700 0.000000
39.765000 0.000000
39.790300 0.000000
39.815600 0.000000
39.840900 0.000000
39.866200 0.000000
39.891500 0.000000
39.916800 0.000000
39.942100 0.000000
39.967400 0.000000
39.992700 0.000000
40.018000 0.000000
40.043300 0.000000
40.068600 0.000000
40.093900 0.000000
40.119200 0.000000
40.144500 0.000000
40.169700 0.000000
40.195000 0.000000
40.220300 0.000000
40.245600 0.000000
40.270900 0.000000
40.296200 0.000000
40.321500 0.000000
40.346800 0.000000
40.372100 0.000000
40.397400 0.000000
40.422700 0.000000
40.448000 0.000000
40.473300 0.000000
40.498600 0.000000
40.523900 0.000000
40.549200 0.000000
40.574500 0.000000
40.599800 0.000000
40.625100 0.000000
40.650400 0.000000
40.675700 0.000000
40.701000 0.000000
40.726300 0.000000
40.751600 0.000000
40.776900 0.000000
40.802200 0.000000
40.827500 0.000000
40.852800 0.000000
40.878100 0.000000
40.903400 0.000000
40.928700 0.000000
40.954000 0.000000
40.979300 0.000000
41.004600 0.000000
41.029900 0.000000
41.055200 0.000000
41.080500 0.000000
41.105800 0.000000
41.131100 0.000000
41.156400 0.000000
41.181700 0.000000
41.207000 0.000000
41.232200 0.000000
41.257500 0.000000
41.282800 0.000000
41.308100 0.000000
41.333400 0.000000
41.358700 0.000000
41.384000 0.000000
41.409300 0.000000
41.434600 0.000000
41.459900 0.000000
41.485200 0.000000
41.510500 0.000000
41.535800 0.000000
41.561100 0.000000
41.586400 0.000000
41.611700 0.000000
41.637000 0.000000
41.662300 0.000000
41.687600 0.000000
41.712900 0.000000
41.738200 0.000000
41.763500 0.000000
e
