set title 'mp-571261 - Density of States'
set xlabel 'Energy (eV)'
set ylabel 'DOS (states/eV)'
set grid
set xrange [-10:10]
set yrange [0:3.838]
set xzeroaxis lt -1
set terminal png size 800,600
set output 'mp-571261_dos_gnuplot.png'
plot '-' using 1:2 with lines title 'DOS'
-36.019000 0.000000
-35.954200 0.000000
-35.889500 0.000000
-35.824700 0.000000
-35.759900 0.000000
-35.695200 0.000000
-35.630400 0.000000
-35.565700 0.000000
-35.500900 0.000000
-35.436100 0.000000
-35.371400 0.000000
-35.306600 0.000000
-35.241800 0.000000
-35.177100 0.000000
-35.112300 0.000000
-35.047500 0.000000
-34.982800 0.000000
-34.918000 0.000000
-34.853200 0.000000
-34.788500 0.000000
-34.723700 0.000000
-34.658900 0.000000
-34.594200 0.000000
-34.529400 0.000000
-34.464600 0.000000
-34.399900 0.000000
-34.335100 0.000000
-34.270300 0.000000
-34.205600 0.000000
-34.140800 0.000000
-34.076000 0.000000
-34.011300 0.000000
-33.946500 0.000000
-33.881700 0.000000
-33.817000 0.000000
-33.752200 0.000000
-33.687400 0.000000
-33.622700 0.000000
-33.557900 0.000000
-33.493100 0.000000
-33.428400 0.000000
-33.363600 0.000000
-33.298800 0.000000
-33.234100 0.000000
-33.169300 0.000000
-33.104600 0.000000
-33.039800 0.000000
-32.975000 0.000000
-32.910300 0.000000
-32.845500 0.000000
-32.780700 0.000000
-32.716000 0.000000
-32.651200 0.000000
-32.586400 0.000000
-32.521700 0.000000
-32.456900 0.000000
-32.392100 0.000000
-32.327400 0.000000
-32.262600 0.000000
-32.197800 0.000000
-32.133100 0.000000
-32.068300 0.000000
-32.003500 0.000000
-31.938800 0.000000
-31.874000 0.000000
-31.809200 0.000000
-31.744500 0.000000
-31.679700 0.000000
-31.614900 0.000000
-31.550200 0.000000
-31.485400 0.000000
-31.420600 0.000000
-31.355900 0.000000
-31.291100 0.000000
-31.226300 0.000000
-31.161600 0.000000
-31.096800 0.000000
-31.032000 0.000000
-30.967300 0.000000
-30.902500 0.000000
-30.837700 0.000000
-30.773000 0.000000
-30.708200 0.000000
-30.643400 0.000000
-30.578700 0.000000
-30.513900 0.000000
-30.449200 0.000000
-30.384400 0.000000
-30.319600 0.000000
-30.254900 0.000000
-30.190100 0.000000
-30.125300 0.007800
-30.060600 0.263900
-29.995800 0.390100
-29.931000 0.501500
-29.866300 0.597200
-29.801500 0.696200
-29.736700 0.792500
-29.672000 0.894400
-29.607200 1.003700
-29.542400 1.123000
-29.477700 1.259800
-29.412900 1.422800
-29.348100 1.639700
-29.283400 1.995300
-29.218600 2.416900
-29.153800 2.282600
-29.089100 2.161100
-29.024300 2.026300
-28.959500 1.883400
-28.894800 1.726300
-28.830000 1.570400
-28.765200 1.413200
-28.700500 1.125400
-28.635700 0.799800
-28.570900 0.562600
-28.506200 0.330400
-28.441400 0.209800
-28.376600 0.406800
-28.311900 0.884700
-28.247100 1.110100
-28.182300 1.269000
-28.117600 1.416500
-28.052800 1.554100
-27.988100 1.680600
-27.923300 1.795000
-27.858500 1.895700
-27.793800 2.001300
-27.729000 2.085800
-27.664200 2.164400
-27.599500 1.867800
-27.534700 1.527800
-27.469900 1.325500
-27.405200 1.176700
-27.340400 1.051300
-27.275600 0.942400
-27.210900 0.844500
-27.146100 0.753900
-27.081300 0.668900
-27.016600 0.585300
-26.951800 0.503700
-26.887000 0.420800
-26.822300 0.329000
-26.757500 0.216300
-26.692700 0.007400
-26.628000 0.000000
-26.563200 0.000000
-26.498400 0.000000
-26.433700 0.000000
-26.368900 0.000000
-26.304100 0.000000
-26.239400 0.000000
-26.174600 0.000000
-26.109800 0.000000
-26.045100 0.000000
-25.980300 0.000000
-25.915500 0.000000
-25.850800 0.000000
-25.786000 0.000000
-25.721200 0.000000
-25.656500 0.000000
-25.591700 0.000000
-25.527000 0.000000
-25.462200 0.000000
-25.397400 0.000000
-25.332700 0.000000
-25.267900 0.000000
-25.203100 0.000000
-25.138400 0.000000
-25.073600 0.000000
-25.008800 0.000000
-24.944100 0.000000
-24.879300 0.000000
-24.814500 0.000000
-24.749800 0.000000
-24.685000 0.000000
-24.620200 0.000000
-24.555500 0.000000
-24.490700 0.000000
-24.425900 0.000000
-24.361200 0.000000
-24.296400 0.000000
-24.231600 0.000000
-24.166900 0.000000
-24.102100 0.000000
-24.037300 0.000000
-23.972600 0.000000
-23.907800 0.000000
-23.843000 0.000000
-23.778300 0.000000
-23.713500 0.000000
-23.648700 0.000000
-23.584000 0.000000
-23.519200 0.000000
-23.454400 0.000000
-23.389700 0.000000
-23.324900 0.000000
-23.260100 0.000000
-23.195400 0.000000
-23.130600 0.000000
-23.065900 0.000000
-23.001100 0.000000
-22.936300 0.000000
-22.871600 0.000000
-22.806800 0.000000
-22.742000 0.000000
-22.677300 0.000000
-22.612500 0.000000
-22.547700 0.000000
-22.483000 0.000000
-22.418200 0.000000
-22.353400 0.000000
-22.288700 0.000000
-22.223900 0.000000
-22.159100 0.000000
-22.094400 0.000000
-22.029600 0.000000
-21.964800 0.000000
-21.900100 0.000000
-21.835300 0.000000
-21.770500 0.000000
-21.705800 0.000000
-21.641000 0.000000
-21.576200 0.000000
-21.511500 0.000000
-21.446700 0.000000
-21.381900 0.000000
-21.317200 0.000000
-21.252400 0.000000
-21.187600 0.000000
-21.122900 0.000000
-21.058100 0.000000
-20.993300 0.000000
-20.928600 0.000000
-20.863800 0.000000
-20.799000 0.000000
-20.734300 0.000000
-20.669500 0.000000
-20.604700 0.000000
-20.540000 0.000000
-20.475200 0.000000
-20.410500 0.000000
-20.345700 0.000000
-20.280900 0.000000
-20.216200 0.000000
-20.151400 0.000000
-20.086600 0.000000
-20.021900 0.000000
-19.957100 0.000000
-19.892300 0.000000
-19.827600 0.000000
-19.762800 0.000000
-19.698000 0.000000
-19.633300 0.000000
-19.568500 0.000000
-19.503700 0.000000
-19.439000 0.000000
-19.374200 0.000000
-19.309400 0.000000
-19.244700 0.000000
-19.179900 0.000000
-19.115100 0.000000
-19.050400 0.000000
-18.985600 0.000000
-18.920800 0.000000
-18.856100 0.000000
-18.791300 0.000000
-18.726500 0.000000
-18.661800 0.000000
-18.597000 0.000000
-18.532200 0.000000
-18.467500 0.000000
-18.402700 0.000000
-18.337900 0.000000
-18.273200 0.000000
-18.208400 0.000000
-18.143600 0.000000
-18.078900 0.000000
-18.014100 0.000000
-17.949400 0.000000
-17.884600 0.000000
-17.819800 0.000000
-17.755100 0.000000
-17.690300 0.000000
-17.625500 0.000000
-17.560800 0.000000
-17.496000 0.000000
-17.431200 0.000000
-17.366500 0.000000
-17.301700 0.000000
-17.236900 0.000000
-17.172200 0.000000
-17.107400 0.000000
-17.042600 0.000000
-16.977900 0.000000
-16.913100 0.000000
-16.848300 0.000000
-16.783600 0.000000
-16.718800 0.000000
-16.654000 0.000000
-16.589300 0.000000
-16.524500 0.000000
-16.459700 0.000000
-16.395000 0.000000
-16.330200 0.000000
-16.265400 0.000000
-16.200700 0.000000
-16.135900 0.000000
-16.071100 0.000000
-16.006400 0.000000
-15.941600 0.000000
-15.876800 0.000000
-15.812100 0.000000
-15.747300 0.000000
-15.682500 0.000000
-15.617800 0.000000
-15.553000 0.000000
-15.488300 0.000000
-15.423500 0.000000
-15.358700 0.000000
-15.294000 0.000000
-15.229200 0.000000
-15.164400 0.000000
-15.099700 0.000000
-15.034900 0.000000
-14.970100 0.000000
-14.905400 0.000000
-14.840600 0.000000
-14.775800 0.000000
-14.711100 0.000000
-14.646300 0.000000
-14.581500 0.000000
-14.516800 0.000000
-14.452000 0.000000
-14.387200 0.000000
-14.322500 0.000000
-14.257700 0.000000
-14.192900 0.000000
-14.128200 0.000000
-14.063400 0.000000
-13.998600 0.000000
-13.933900 0.000000
-13.869100 0.000000
-13.804300 0.000000
-13.739600 0.000000
-13.674800 0.000000
-13.610000 0.000000
-13.545300 0.000000
-13.480500 0.000000
-13.415700 0.000000
-13.351000 0.000000
-13.286200 0.000000
-13.221400 0.000000
-13.156700 0.000000
-13.091900 0.000000
-13.027200 0.000000
-12.962400 0.000000
-12.897600 0.000000
-12.832900 0.000000
-12.768100 0.000000
-12.703300 0.000000
-12.638600 0.000000
-12.573800 0.000000
-12.509000 0.000000
-12.444300 0.000000
-12.379500 0.000000
-12.314700 0.000000
-12.250000 0.000000
-12.185200 0.000000
-12.120400 0.000000
-12.055700 0.000000
-11.990900 0.000000
-11.926100 0.000000
-11.861400 0.000000
-11.796600 0.000000
-11.731800 0.000000
-11.667100 0.000000
-11.602300 0.000000
-11.537500 0.000000
-11.472800 0.000000
-11.408000 0.000000
-11.343200 0.000000
-11.278500 0.000000
-11.213700 0.000000
-11.148900 0.000000
-11.084200 0.000000
-11.019400 0.000000
-10.954600 0.000000
-10.889900 0.000000
-10.825100 0.000000
-10.760300 0.000000
-10.695600 0.000000
-10.630800 0.000000
-10.566000 0.000000
-10.501300 0.000000
-10.436500 0.000000
-10.371800 0.000000
-10.307000 0.000000
-10.242200 0.000000
-10.177500 0.000000
-10.112700 0.000000
-10.047900 0.000000
-9.983200 0.000000
-9.918400 0.000000
-9.853600 0.000000
-9.788900 0.000000
-9.724100 0.000000
-9.659300 0.000000
-9.594600 0.000000
-9.529800 0.000000
-9.465000 0.000000
-9.400300 0.000000
-9.335500 0.000000
-9.270700 0.000000
-9.206000 0.000000
-9.141200 0.000000
-9.076400 0.000000
-9.011700 0.000000
-8.946900 0.000000
-8.882100 0.000000
-8.817400 0.000000
-8.752600 0.000000
-8.687800 0.000000
-8.623100 0.000000
-8.558300 0.000000
-8.493500 0.000000
-8.428800 0.000000
-8.364000 0.000000
-8.299200 0.000000
-8.234500 0.000000
-8.169700 0.000000
-8.104900 0.000000
-8.040200 0.000000
-7.975400 0.000000
-7.910700 0.000000
-7.845900 0.000000
-7.781100 0.000000
-7.716400 0.000000
-7.651600 0.000000
-7.586800 0.000000
-7.522100 0.000000
-7.457300 0.000000
-7.392500 0.000000
-7.327800 0.000000
-7.263000 0.000000
-7.198200 0.000000
-7.133500 0.000000
-7.068700 0.000000
-7.003900 0.000000
-6.939200 0.000000
-6.874400 0.000000
-6.809600 0.088700
-6.744900 0.235100
-6.680100 0.368900
-6.615300 0.484700
-6.550600 0.607100
-6.485800 0.758300
-6.421000 0.946100
-6.356300 1.116500
-6.291500 1.322100
-6.226700 1.957600
-6.162000 2.017900
-6.097200 2.209600
-6.032400 2.543600
-5.967700 3.489100
-5.902900 2.475800
-5.838100 1.987900
-5.773400 1.747000
-5.708600 1.560100
-5.643800 1.423300
-5.579100 1.314800
-5.514300 1.221800
-5.449600 1.155600
-5.384800 1.090400
-5.320000 1.040500
-5.255300 0.981200
-5.190500 0.944000
-5.125700 0.916500
-5.061000 0.916100
-4.996200 0.920000
-4.931400 0.974700
-4.866700 1.063800
-4.801900 1.227300
-4.737100 1.187800
-4.672400 1.164900
-4.607600 1.144900
-4.542800 1.091900
-4.478100 1.062300
-4.413300 1.037000
-4.348500 1.020400
-4.283800 1.007900
-4.219000 0.995700
-4.154200 0.989300
-4.089500 0.977700
-4.024700 0.973200
-3.959900 0.983300
-3.895200 1.024900
-3.830400 1.119200
-3.765600 1.306800
-3.700900 1.711300
-3.636100 0.962500
-3.571300 0.640900
-3.506600 0.447900
-3.441800 0.620400
-3.377000 0.830000
-3.312300 0.903000
-3.247500 1.059500
-3.182700 1.289100
-3.118000 1.823000
-3.053200 1.984500
-2.988500 1.913100
-2.923700 1.642600
-2.858900 1.504200
-2.794200 1.333600
-2.729400 1.227400
-2.664600 1.182600
-2.599900 1.218700
-2.535100 1.244900
-2.470300 1.289100
-2.405600 1.469300
-2.340800 1.392900
-2.276000 1.205700
-2.211300 1.077200
-2.146500 0.973900
-2.081700 0.881100
-2.017000 0.874300
-1.952200 0.898700
-1.887400 1.019200
-1.822700 1.250100
-1.757900 1.294600
-1.693100 1.188400
-1.628400 1.149300
-1.563600 1.149200
-1.498800 1.232100
-1.434100 1.306700
-1.369300 1.515000
-1.304500 1.131300
-1.239800 1.129400
-1.175000 1.111500
-1.110200 1.099500
-1.045500 1.119700
-0.980700 1.119500
-0.915900 1.137000
-0.851200 1.140200
-0.786400 1.130100
-0.721600 1.052200
-0.656900 1.017200
-0.592100 0.946300
-0.527400 0.900100
-0.462600 0.846700
-0.397800 0.811300
-0.333100 0.785600
-0.268300 0.778800
-0.203500 0.796100
-0.138800 0.832400
-0.074000 0.813000
-0.009200 0.732700
0.055500 0.701800
0.120300 0.730900
0.185100 0.752400
0.249800 0.654600
0.314600 0.617600
0.379400 0.701400
0.444100 0.819000
0.508900 1.015000
0.573700 1.269900
0.638400 1.418200
0.703200 1.402000
0.768000 1.471700
0.832700 1.618800
0.897500 1.756100
0.962300 1.562600
1.027000 1.455100
1.091800 1.306100
1.156600 1.217400
1.221300 1.152900
1.286100 1.124200
1.350900 1.019700
1.415600 1.000800
1.480400 0.936700
1.545200 0.986000
1.609900 0.967200
1.674700 0.999000
1.739500 1.152400
1.804200 1.558100
1.869000 1.468800
1.933800 1.459200
1.998500 1.540200
2.063300 1.936900
2.128000 1.876500
2.192800 1.787700
2.257600 1.722000
2.322300 1.676100
2.387100 1.631000
2.451900 1.602800
2.516600 1.592700
2.581400 1.592600
2.646200 1.614200
2.710900 1.540900
2.775700 1.360800
2.840500 1.298000
2.905200 0.811200
2.970000 0.683900
3.034800 0.582700
3.099500 0.516900
3.164300 0.455500
3.229100 0.391900
3.293800 0.369600
3.358600 0.318100
3.423400 0.286300
3.488100 0.247700
3.552900 0.209300
3.617700 0.175000
3.682400 0.142400
3.747200 0.111300
3.812000 0.077400
3.876700 0.006600
3.941500 0.000000
4.006300 0.000000
4.071000 0.000000
4.135800 0.000000
4.200600 0.000000
4.265300 0.000000
4.330100 0.000000
4.394900 0.000000
4.459600 0.000000
4.524400 0.000000
4.589100 0.000000
4.653900 0.000000
4.718700 0.000000
4.783400 0.000000
4.848200 0.000000
4.913000 0.000000
4.977700 0.000000
5.042500 0.000000
5.107300 0.000000
5.172000 0.000000
5.236800 0.000000
5.301600 0.000000
5.366300 0.000000
5.431100 0.000000
5.495900 0.000000
5.560600 0.000000
5.625400 0.000000
5.690200 0.000000
5.754900 0.000000
5.819700 0.000000
5.884500 0.000000
5.949200 0.000000
6.014000 0.000000
6.078800 0.000000
6.143500 0.000000
6.208300 0.000000
6.273100 0.000000
6.337800 0.000000
6.402600 0.000000
6.467400 0.000000
6.532100 0.000000
6.596900 0.000000
6.661700 0.000000
6.726400 0.000000
6.791200 0.000000
6.856000 0.000000
6.920700 0.000000
6.985500 0.000000
7.050200 0.000000
7.115000 0.000000
7.179800 0.000000
7.244500 0.000000
7.309300 0.000000
7.374100 0.000000
7.438800 0.000000
7.503600 0.000000
7.568400 0.000000
7.633100 0.000000
7.697900 0.000000
7.762700 0.000000
7.827400 0.000000
7.892200 0.000000
7.957000 0.000000
8.021700 0.000000
8.086500 0.000000
8.151300 0.000000
8.216000 0.000000
8.280800 0.000000
8.345600 0.000000
8.410300 0.000000
8.475100 0.000000
8.539900 0.000000
8.604600 0.000000
8.669400 0.000000
8.734200 0.000000
8.798900 0.000000
8.863700 0.000000
8.928500 0.000000
8.993200 0.000000
9.058000 0.000000
9.122800 0.000000
9.187500 0.000000
9.252300 0.000000
9.317100 0.000000
9.381800 0.000000
9.446600 0.000000
9.511300 0.000000
9.576100 0.000000
9.640900 0.000000
9.705600 0.000000
9.770400 0.000000
9.835200 0.000000
9.899900 0.000000
9.964700 0.000000
10.029500 0.000000
10.094200 0.000000
10.159000 0.000000
10.223800 0.000000
10.288500 0.000000
10.353300 0.000000
10.418100 0.000000
10.482800 0.000000
10.547600 0.000000
10.612400 0.000000
10.677100 0.000000
10.741900 0.000000
10.806700 0.000000
10.871400 0.000000
10.936200 0.000000
11.001000 0.000000
11.065700 0.000000
11.130500 0.000000
11.195300 0.000000
11.260000 0.000000
11.324800 0.000000
11.389600 0.000000
11.454300 0.000000
11.519100 0.000000
11.583900 0.000000
11.648600 0.000000
11.713400 0.000000
11.778200 0.000000
11.842900 0.000000
11.907700 0.000000
11.972500 0.000000
12.037200 0.000000
12.102000 0.000000
12.166700 0.000000
12.231500 0.000000
12.296300 0.000000
12.361000 0.000000
12.425800 0.000000
12.490600 0.000000
12.555300 0.000000
12.620100 0.000000
12.684900 0.000000
12.749600 0.000000
12.814400 0.000000
12.879200 0.053100
12.943900 0.138900
13.008700 0.166100
13.073500 0.209200
13.138200 0.251500
13.203000 0.299500
13.267800 0.330600
13.332500 0.366000
13.397300 0.409500
13.462100 0.456700
13.526800 0.506700
13.591600 0.569000
13.656400 0.655200
13.721100 0.740500
13.785900 1.401300
13.850700 1.598500
13.915400 1.776900
13.980200 2.236300
14.045000 2.705900
14.109700 2.814500
14.174500 2.956900
14.239300 3.753600
14.304000 2.749700
14.368800 2.616100
14.433600 2.595400
14.498300 2.571300
14.563100 2.407900
14.627800 2.088000
14.692600 1.943300
14.757400 1.889600
14.822100 2.075300
14.886900 2.613000
14.951700 3.275400
15.016400 3.528300
15.081200 4.010900
15.146000 4.205200
15.210700 3.703700
15.275500 3.461000
15.340300 3.154600
15.405000 3.627400
15.469800 4.365400
15.534600 5.819600
15.599300 7.237900
15.664100 8.343400
15.728900 6.995500
15.793600 3.257000
15.858400 3.216900
15.923200 4.329500
15.987900 4.513600
16.052700 5.904000
16.117500 8.583900
16.182200 8.453300
16.247000 8.003500
16.311800 11.452300
16.376500 8.511000
16.441300 7.030200
16.506100 7.675300
16.570800 6.680300
16.635600 5.258900
16.700400 4.615400
16.765100 5.180600
16.829900 4.976100
16.894700 4.010400
16.959400 3.734600
17.024200 3.211500
17.088900 3.686000
17.153700 4.738300
17.218500 5.143900
17.283200 4.641600
17.348000 4.597600
17.412800 3.923800
17.477500 3.794200
17.542300 3.999100
17.607100 4.058000
17.671800 4.016500
17.736600 3.999700
17.801400 4.390600
17.866100 5.181100
17.930900 5.976100
17.995700 5.714600
18.060400 5.780800
18.125200 6.603900
18.190000 6.961800
18.254700 9.487100
18.319500 10.308400
18.384300 7.062300
18.449000 8.671400
18.513800 5.244300
18.578600 5.516900
18.643300 5.716500
18.708100 6.963300
18.772900 6.362900
18.837600 6.731200
18.902400 6.442000
18.967200 6.899400
19.031900 7.539100
19.096700 7.771900
19.161500 6.739600
19.226200 5.458100
19.291000 5.023700
19.355800 5.469500
19.420500 8.021200
19.485300 7.629200
19.550000 7.316100
19.614800 6.543400
19.679600 5.347700
19.744300 4.979400
19.809100 4.997400
19.873900 4.231800
19.938600 3.501500
20.003400 2.950300
20.068200 3.007100
20.132900 2.904600
20.197700 2.586200
20.262500 2.235900
20.327200 2.080400
20.392000 1.841400
20.456800 1.579900
20.521500 1.570600
20.586300 1.784900
20.651100 1.914600
20.715800 1.923200
20.780600 1.998500
20.845400 2.054200
20.910100 2.134300
20.974900 2.050200
21.039700 1.950700
21.104400 1.908600
21.169200 1.802300
21.234000 1.708600
21.298700 1.697500
21.363500 1.691700
21.428300 1.670400
21.493000 1.640300
21.557800 1.606500
21.622600 1.550300
21.687300 1.513700
21.752100 1.481300
21.816900 1.460700
21.881600 1.469100
21.946400 1.463600
22.011200 1.422700
22.075900 1.469400
22.140700 1.508000
22.205400 1.543700
22.270200 1.565300
22.335000 1.589400
22.399700 1.535100
22.464500 1.504400
22.529300 1.518400
22.594000 1.429700
22.658800 1.399100
22.723600 1.389900
22.788300 1.384700
22.853100 1.369800
22.917900 1.364000
22.982600 1.352600
23.047400 1.341300
23.112200 1.351100
23.176900 1.335500
23.241700 1.310600
23.306500 1.280700
23.371200 1.260500
23.436000 1.327200
23.500800 1.331300
23.565500 1.300900
23.630300 1.344300
23.695100 1.411400
23.759800 1.365500
23.824600 1.321400
23.889400 1.306000
23.954100 1.312600
24.018900 1.313200
24.083700 1.348100
24.148400 1.368500
24.213200 1.271700
24.278000 1.280600
24.342700 1.355800
24.407500 1.435000
24.472300 1.497100
24.537000 1.509800
24.601800 1.463200
24.666500 1.452900
24.731300 1.451300
24.796100 1.399100
24.860800 1.367200
24.925600 1.378500
24.990400 1.406700
25.055100 1.427000
25.119900 1.443000
25.184700 1.470100
25.249400 1.494700
25.314200 1.525000
25.379000 1.587300
25.443700 1.638700
25.508500 1.663500
25.573300 1.617600
25.638000 1.598900
25.702800 1.617600
25.767600 1.635700
25.832300 1.443100
25.897100 1.311200
25.961900 1.225100
26.026600 1.183400
26.091400 1.180500
26.156200 1.196100
26.220900 1.193000
26.285700 1.218500
26.350500 1.263800
26.415200 1.326800
26.480000 1.378300
26.544800 1.414500
26.609500 1.458600
26.674300 1.527700
26.739100 1.544200
26.803800 1.583400
26.868600 1.721000
26.933400 1.745300
26.998100 1.840000
27.062900 1.853300
27.127600 1.759900
27.192400 1.636600
27.257200 1.558800
27.321900 1.498800
27.386700 1.477900
27.451500 1.408600
27.516200 1.406900
27.581000 1.405700
27.645800 1.446000
27.710500 1.477200
27.775300 1.339700
27.840100 1.257800
27.904800 1.182100
27.969600 1.135700
28.034400 1.195400
28.099100 1.321100
28.163900 1.594500
28.228700 1.682700
28.293400 1.630200
28.358200 1.423000
28.423000 1.301500
28.487700 1.211100
28.552500 1.137900
28.617300 1.080600
28.682000 1.053600
28.746800 1.062900
28.811600 1.032900
28.876300 0.993700
28.941100 0.984700
29.005900 1.005200
29.070600 1.001100
29.135400 1.024800
29.200200 1.018800
29.264900 1.020600
29.329700 1.018200
29.394500 1.046400
29.459200 1.034600
29.524000 1.038100
29.588700 1.060500
29.653500 1.099600
29.718300 1.075700
29.783000 1.051600
29.847800 1.068900
29.912600 1.113900
29.977300 1.159600
30.042100 1.148500
30.106900 1.130200
30.171600 1.102100
30.236400 1.052800
30.301200 0.998400
30.365900 0.992400
30.430700 1.006300
30.495500 1.026200
30.560200 1.080500
30.625000 1.149300
30.689800 1.216700
30.754500 1.286800
30.819300 1.293900
30.884100 1.290000
30.948800 1.264100
31.013600 1.261500
31.078400 1.276700
31.143100 1.306500
31.207900 1.320800
31.272700 1.294600
31.337400 1.248700
31.402200 1.246400
31.467000 1.250000
31.531700 1.213800
31.596500 1.189800
31.661300 1.163100
31.726000 1.183400
31.790800 1.253000
31.855600 1.340300
31.920300 1.423800
31.985100 1.478600
32.049900 1.438500
32.114600 1.355300
32.179400 1.307500
32.244100 1.242000
32.308900 1.202400
32.373700 1.192200
32.438400 1.223000
32.503200 1.261400
32.568000 1.277900
32.632700 1.277400
32.697500 1.280100
32.762300 1.283700
32.827000 1.310100
32.891800 1.292600
32.956600 1.249400
33.021300 1.218200
33.086100 1.215100
33.150900 1.243200
33.215600 1.260300
33.280400 1.253500
33.345200 1.251400
33.409900 1.279700
33.474700 1.326800
33.539500 1.374000
33.604200 1.401500
33.669000 1.407900
33.733800 1.329200
33.798500 1.237000
33.863300 1.151100
33.928100 1.066100
33.992800 0.930100
34.057600 0.831200
34.122400 0.763200
34.187100 0.709900
34.251900 0.689600
34.316700 0.707700
34.381400 0.730900
34.446200 0.776400
34.511000 0.865000
34.575700 0.979500
34.640500 1.101200
34.705200 1.274100
34.770000 1.361300
34.834800 1.388900
34.899500 1.391200
34.964300 1.402200
35.029100 1.408800
35.093800 1.411900
35.158600 1.332500
35.223400 1.229000
35.288100 1.113100
35.352900 1.072500
35.417700 1.095300
35.482400 1.132700
35.547200 1.123400
35.612000 1.153700
35.676700 1.239200
35.741500 1.232600
35.806300 1.219800
35.871000 1.258300
35.935800 1.325800
36.000600 1.405300
36.065300 1.422000
36.130100 1.418000
36.194900 1.385600
36.259600 1.344300
36.324400 1.293000
36.389200 1.259300
36.453900 1.262900
36.518700 1.265700
36.583500 1.258900
36.648200 1.240800
36.713000 1.191700
36.777800 1.150100
36.842500 1.100200
36.907300 1.041400
36.972100 1.006700
37.036800 0.990300
37.101600 0.983800
37.166300 0.957600
37.231100 0.926900
37.295900 0.915200
37.360600 0.915100
37.425400 0.920500
37.490200 0.945000
37.554900 0.972400
37.619700 0.964000
37.684500 0.947400
37.749200 0.933400
37.814000 0.941600
37.878800 0.989200
37.943500 1.044600
38.008300 1.069900
38.073100 1.092500
38.137800 1.108900
38.202600 1.140000
38.267400 1.137400
38.332100 1.105500
38.396900 1.124800
38.461700 1.122300
38.526400 1.109400
38.591200 1.070000
38.656000 1.032800
38.720700 1.028500
38.785500 1.036800
38.850300 1.012600
38.915000 0.980700
38.979800 0.939800
39.044600 0.919800
39.109300 0.945300
39.174100 1.029100
39.238900 1.058900
39.303600 1.094300
39.368400 1.106800
39.433200 1.128300
39.497900 1.182500
39.562700 1.189700
39.627400 1.215500
39.692200 1.241100
39.757000 1.267700
39.821700 1.310000
39.886500 1.365900
39.951300 1.400200
40.016000 1.431200
40.080800 1.475400
40.145600 1.499000
40.210300 1.504400
40.275100 1.505500
40.339900 1.497300
40.404600 1.456600
40.469400 1.471100
40.534200 1.516000
40.598900 1.548600
40.663700 1.513400
40.728500 1.483000
40.793200 1.464900
40.858000 1.447600
40.922800 1.451100
40.987500 1.584300
41.052300 1.771100
41.117100 1.809100
41.181800 1.785100
41.246600 1.711700
41.311400 1.696600
41.376100 1.708500
41.440900 1.727900
41.505700 1.805500
41.570400 1.856300
41.635200 1.859200
41.700000 1.845100
41.764700 1.839200
41.829500 1.814700
41.894300 1.789400
41.959000 1.785700
42.023800 1.796800
42.088500 1.784400
42.153300 1.771600
42.218100 1.735500
42.282800 1.699500
42.347600 1.630800
42.412400 1.589900
42.477100 1.561100
42.541900 1.516900
42.606700 1.526600
42.671400 1.523800
42.736200 1.494800
42.801000 1.484600
42.865700 1.483700
42.930500 1.516900
42.995300 1.496900
43.060000 1.444800
43.124800 1.413300
43.189600 1.386200
43.254300 1.365100
43.319100 1.363800
43.383900 1.401800
43.448600 1.435900
43.513400 1.429000
43.578200 1.488200
43.642900 1.576800
43.707700 1.522900
43.772500 1.525000
43.837200 1.507600
43.902000 1.490600
43.966800 1.452500
44.031500 1.453600
44.096300 1.547700
44.161100 1.512700
44.225800 1.527200
44.290600 1.533700
44.355400 1.541400
44.420100 1.582400
44.484900 1.602900
44.549700 1.546600
44.614400 1.507800
44.679200 1.473000
44.743900 1.452800
44.808700 1.444700
44.873500 1.469300
44.938200 1.527700
45.003000 1.556000
45.067800 1.580300
45.132500 1.522300
45.197300 1.507600
45.262100 1.486600
45.326800 1.434400
45.391600 1.396300
45.456400 1.368000
45.521100 1.384500
45.585900 1.408000
45.650700 1.453900
45.715400 1.514400
45.780200 1.516000
45.845000 1.473800
45.909700 1.408900
45.974500 1.340200
46.039300 1.268100
46.104000 1.199500
46.168800 1.142900
46.233600 1.073800
46.298300 1.068200
46.363100 1.123500
46.427900 1.167000
46.492600 1.211500
46.557400 1.274500
46.622200 1.371600
46.686900 1.483200
46.751700 1.578100
46.816500 1.554200
46.881200 1.516000
46.946000 1.471000
47.010800 1.431200
47.075500 1.411600
47.140300 1.431300
47.205000 1.426100
47.269800 1.411400
47.334600 1.394300
47.399300 1.400800
47.464100 1.390700
47.528900 1.380700
47.593600 1.407800
47.658400 1.479700
47.723200 1.540300
47.787900 1.609100
47.852700 1.661900
47.917500 1.688800
47.982200 1.704500
48.047000 1.703800
48.111800 1.696000
48.176500 1.675500
48.241300 1.640400
48.306100 1.594900
48.370800 1.627200
48.435600 1.613100
48.500400 1.599000
48.565100 1.561700
48.629900 1.561800
48.694700 1.595100
48.759400 1.656800
48.824200 1.680800
48.889000 1.687200
48.953700 1.697100
49.018500 1.726200
49.083300 1.886100
49.148000 1.899700
49.212800 1.876100
49.277600 1.832100
49.342300 1.754400
49.407100 1.717300
49.471900 1.667500
49.536600 1.642500
49.601400 1.634600
49.666100 1.573800
49.730900 1.542600
49.795700 1.537400
49.860400 1.564200
49.925200 1.595700
49.990000 1.631400
50.054700 1.663800
50.119500 1.674800
50.184300 1.703000
50.249000 1.676500
50.313800 1.666100
50.378600 1.648300
50.443300 1.656500
50.508100 1.650800
50.572900 1.657400
50.637600 1.672700
50.702400 1.668200
50.767200 1.676300
50.831900 1.685000
50.896700 1.733300
50.961500 1.683200
51.026200 1.715900
51.091000 1.724700
51.155800 1.765500
51.220500 1.816600
51.285300 1.873900
51.350100 1.938300
51.414800 1.965800
51.479600 1.971300
51.544400 1.963600
51.609100 1.966100
51.673900 1.954800
51.738700 1.911400
51.803400 1.820300
51.868200 1.785000
51.933000 1.781300
51.997700 1.787100
52.062500 1.791200
52.127200 1.821700
52.192000 1.843600
52.256800 1.853200
52.321500 1.863300
52.386300 1.902400
52.451100 1.944700
52.515800 1.935900
52.580600 1.913600
52.645400 1.884200
52.710100 1.881700
52.774900 1.895700
52.839700 1.922300
52.904400 1.960300
52.969200 2.013500
53.034000 2.002900
53.098700 1.979600
53.163500 1.920800
53.228300 1.860600
53.293000 1.810100
53.357800 1.781200
53.422600 1.819800
53.487300 1.852900
53.552100 1.918100
53.616900 1.927300
53.681600 1.860000
53.746400 1.830300
53.811200 1.786500
53.875900 1.792600
53.940700 1.817400
54.005500 1.856400
54.070200 1.944000
54.135000 1.950900
54.199800 1.914600
54.264500 1.871500
54.329300 1.880200
54.394100 1.917400
54.458800 1.945600
54.523600 1.972500
54.588400 1.989100
54.653100 2.031000
54.717900 2.057400
54.782600 2.059400
54.847400 2.022400
54.912200 1.989900
54.976900 1.926500
55.041700 1.909800
55.106500 1.903800
55.171200 1.952100
55.236000 1.981200
55.300800 1.988600
55.365500 1.971900
55.430300 1.971200
55.495100 2.003300
55.559800 2.039400
55.624600 2.079100
55.689400 2.064600
55.754100 2.064000
55.818900 2.047100
55.883700 2.023000
55.948400 1.985500
56.013200 1.968200
56.078000 1.987400
56.142700 2.017500
56.207500 1.969800
56.272300 1.952400
56.337000 1.920400
56.401800 1.850100
56.466600 1.798000
56.531300 1.764700
56.596100 1.757100
56.660900 1.757300
56.725600 1.782500
56.790400 1.827300
56.855200 1.894400
56.919900 1.947800
56.984700 1.975700
57.049500 2.002000
57.114200 2.046000
57.179000 2.032500
57.243700 2.015000
57.308500 2.007600
57.373300 1.980500
57.438000 1.964300
57.502800 1.963700
57.567600 1.984200
57.632300 2.003700
57.697100 2.034600
57.761900 2.084300
57.826600 2.051200
57.891400 2.006100
57.956200 1.948300
58.020900 1.938500
58.085700 1.979600
58.150500 2.060800
58.215200 2.226300
58.280000 2.360000
58.344800 2.324500
58.409500 2.325400
58.474300 2.207100
58.539100 2.098400
58.603800 1.969100
58.668600 1.966600
58.733400 1.938600
58.798100 1.926800
58.862900 1.879000
58.927700 1.844200
58.992400 1.928600
59.057200 1.951100
59.122000 1.919600
59.186700 1.910700
59.251500 1.946800
59.316300 1.893500
59.381000 1.876600
59.445800 1.903900
59.510600 1.971700
59.575300 2.034100
59.640100 2.084700
59.704800 2.083000
59.769600 2.090200
59.834400 2.060100
59.899100 2.097500
59.963900 2.062500
60.028700 2.031400
60.093400 2.022300
60.158200 2.058100
60.223000 2.083900
60.287700 2.130400
60.352500 2.136000
60.417300 2.095200
60.482000 2.050500
60.546800 1.980300
60.611600 1.939900
60.676300 1.940500
60.741100 1.949300
60.805900 1.972400
60.870600 1.953700
60.935400 1.983400
61.000200 1.991000
61.064900 1.984500
61.129700 1.946600
61.194500 1.930000
61.259200 1.916000
61.324000 1.950200
61.388800 1.989000
61.453500 2.059200
61.518300 2.077000
61.583100 2.065800
61.647800 2.062400
61.712600 2.061900
61.777400 2.018900
61.842100 1.966700
61.906900 1.944500
61.971700 1.950500
62.036400 1.967900
62.101200 1.964600
62.165900 1.938300
62.230700 1.919500
62.295500 1.927000
62.360200 1.873400
62.425000 1.823500
62.489800 1.837100
62.554500 1.864200
62.619300 1.871100
62.684100 1.925200
62.748800 1.922000
62.813600 1.927200
62.878400 1.863100
62.943100 1.780400
63.007900 1.738100
63.072700 1.668800
63.137400 1.645100
63.202200 1.643600
63.267000 1.617100
63.331700 1.609500
63.396500 1.653900
63.461300 1.705100
63.526000 1.745200
63.590800 1.804000
63.655600 1.834400
63.720300 1.823400
63.785100 1.805700
63.849900 1.802100
63.914600 1.806100
63.979400 1.807400
64.044200 1.819100
64.108900 1.828400
64.173700 1.890400
64.238500 1.952900
64.303200 2.022000
64.368000 2.044000
64.432800 2.020400
64.497500 2.021600
64.562300 2.011300
64.627100 2.026400
64.691800 2.004500
64.756600 2.040500
64.821300 2.021900
64.886100 1.959500
64.950900 1.926000
65.015600 1.867700
65.080400 1.853600
65.145200 1.876100
65.209900 1.915900
65.274700 1.979800
65.339500 2.068700
65.404200 2.024800
65.469000 2.016100
65.533800 2.056100
65.598500 2.090300
65.663300 2.069100
65.728100 2.023100
65.792800 1.959300
65.857600 1.915500
65.922400 1.885500
65.987100 1.880600
66.051900 1.880600
66.116700 1.901200
66.181400 1.920600
66.246200 1.992100
66.311000 1.988300
66.375700 1.996300
66.440500 1.987500
66.505300 1.994600
66.570000 2.016100
66.634800 2.056300
66.699600 2.074300
66.764300 2.067700
66.829100 2.040600
66.893900 2.031100
66.958600 2.051000
67.023400 2.074200
67.088200 2.091200
67.152900 2.108500
67.217700 2.110900
67.282400 2.116100
67.347200 2.129200
67.412000 2.147200
67.476700 2.149100
67.541500 2.137800
67.606300 2.094400
67.671000 2.035400
67.735800 1.998700
67.800600 1.987800
67.865300 2.018700
67.930100 2.041400
67.994900 2.091400
68.059600 2.162500
68.124400 2.259300
68.189200 2.339400
68.253900 2.410700
68.318700 2.418300
68.383500 2.415800
68.448200 2.401400
68.513000 2.366000
68.577800 2.363500
68.642500 2.369300
68.707300 2.384100
68.772100 2.423500
68.836800 2.438500
68.901600 2.446500
68.966400 2.442100
69.031100 2.488500
69.095900 2.477600
69.160700 2.503700
69.225400 2.575700
69.290200 2.630100
69.355000 2.610900
69.419700 2.616300
69.484500 2.561100
69.549300 2.496800
69.614000 2.469300
69.678800 2.509000
69.743500 2.574200
69.808300 2.614500
69.873100 2.654500
69.937800 2.720400
70.002600 2.774300
70.067400 2.790800
70.132100 2.803400
70.196900 2.713200
70.261700 2.627800
70.326400 2.540300
70.391200 2.509000
70.456000 2.477300
70.520700 2.517400
70.585500 2.528800
70.650300 2.474200
70.715000 2.479900
70.779800 2.488500
70.844600 2.547300
70.909300 2.603000
70.974100 2.666000
71.038900 2.649500
71.103600 2.635900
71.168400 2.707700
71.233200 2.723000
71.297900 2.630400
71.362700 2.579000
71.427500 2.580600
71.492200 2.628200
71.557000 2.681800
71.621800 2.559500
71.686500 2.413400
71.751300 2.431600
71.816100 2.466700
71.880800 2.507500
71.945600 2.555700
72.010400 2.586500
72.075100 2.610200
72.139900 2.720000
72.204600 2.756000
72.269400 2.867300
72.334200 2.828200
72.398900 2.790300
72.463700 2.824300
72.528500 2.883900
72.593200 2.861900
72.658000 2.801100
72.722800 2.794900
72.787500 2.728800
72.852300 2.651900
72.917100 2.612900
72.981800 2.594000
73.046600 2.583400
73.111400 2.564100
73.176100 2.605300
73.240900 2.599600
73.305700 2.549600
73.370400 2.500000
73.435200 2.516300
73.500000 2.523500
73.564700 2.487400
73.629500 2.436100
73.694300 2.417300
73.759000 2.425500
73.823800 2.476400
73.888600 2.507500
73.953300 2.517300
74.018100 2.492000
74.082900 2.503500
74.147600 2.515000
74.212400 2.489500
74.277200 2.451300
74.341900 2.457900
74.406700 2.453400
74.471500 2.477600
74.536200 2.490400
74.601000 2.496000
74.665800 2.483600
74.730500 2.437400
74.795300 2.358700
74.860000 2.312300
74.924800 2.263200
74.989600 2.235000
75.054300 2.156000
75.119100 2.140700
75.183900 2.136800
75.248600 2.205000
75.313400 2.366700
75.378200 2.465500
75.442900 2.579200
75.507700 2.597200
75.572500 2.517500
75.637200 2.438900
75.702000 2.379300
75.766800 2.274500
75.831500 2.248800
75.896300 2.245100
75.961100 2.246900
76.025800 2.276800
76.090600 2.324300
76.155400 2.375400
76.220100 2.369300
76.284900 2.284400
76.349700 2.202200
76.414400 2.151400
76.479200 2.159100
76.544000 2.190400
76.608700 2.231000
76.673500 2.280000
76.738300 2.373200
76.803000 2.338000
76.867800 2.304400
76.932600 2.293300
76.997300 2.300600
77.062100 2.290600
77.126900 2.285500
77.191600 2.280400
77.256400 2.284200
77.321100 2.293100
77.385900 2.342900
77.450700 2.397300
77.515400 2.402600
77.580200 2.414300
77.645000 2.379100
77.709700 2.373500
77.774500 2.313200
77.839300 2.245900
77.904000 2.183400
77.968800 2.150300
78.033600 2.134400
78.098300 2.115800
78.163100 2.093700
78.227900 2.069800
78.292600 2.073400
78.357400 2.065900
78.422200 2.048800
78.486900 2.025200
78.551700 2.024200
78.616500 2.010200
78.681200 1.994700
78.746000 2.007900
78.810800 2.017800
78.875500 2.041400
78.940300 2.075100
79.005100 2.093400
79.069800 2.088100
79.134600 2.120500
79.199400 2.161200
79.264100 2.236600
79.328900 2.355600
79.393700 2.331900
79.458400 2.320700
79.523200 2.291400
79.588000 2.298200
79.652700 2.201500
79.717500 2.099800
79.782200 2.057300
79.847000 2.095200
79.911800 2.130100
79.976500 2.068000
80.041300 2.091000
80.106100 2.118200
80.170800 2.138500
80.235600 2.175600
80.300400 2.226800
80.365100 2.181900
80.429900 2.148900
80.494700 2.122000
80.559400 2.133300
80.624200 2.098300
80.689000 2.034300
80.753700 1.985500
80.818500 1.975200
80.883300 1.981400
80.948000 1.934000
81.012800 1.888600
81.077600 1.898300
81.142300 1.931900
81.207100 1.942600
81.271900 1.949800
81.336600 1.922500
81.401400 1.848200
81.466200 1.785800
81.530900 1.740600
81.595700 1.696300
81.660500 1.677700
81.725200 1.677500
81.790000 1.704500
81.854800 1.754300
81.919500 1.805300
81.984300 1.822600
82.049100 1.738800
82.113800 1.728200
82.178600 1.753800
82.243300 1.709800
82.308100 1.645000
82.372900 1.581200
82.437600 1.452700
82.502400 1.341000
82.567200 1.238600
82.631900 1.169900
82.696700 1.123700
82.761500 1.112400
82.826200 1.124700
82.891000 1.144300
82.955800 1.136800
83.020500 1.080300
83.085300 1.028800
83.150100 0.964400
83.214800 0.907500
83.279600 0.845400
83.344400 0.801700
83.409100 0.724600
83.473900 0.666500
83.538700 0.611300
83.603400 0.564300
83.668200 0.527500
83.733000 0.478600
83.797700 0.439700
83.862500 0.405500
83.927300 0.371900
83.992000 0.339800
84.056800 0.326400
84.121600 0.309500
84.186300 0.298500
84.251100 0.290000
84.315900 0.283600
84.380600 0.276400
84.445400 0.270400
84.510200 0.265800
84.574900 0.265400
84.639700 0.260100
84.704400 0.255100
84.769200 0.250200
84.834000 0.242700
84.898700 0.232800
84.963500 0.222700
85.028300 0.218900
85.093000 0.214800
85.157800 0.211200
85.222600 0.202200
85.287300 0.189500
85.352100 0.181000
85.416900 0.171100
85.481600 0.161400
85.546400 0.153300
85.611200 0.144800
85.675900 0.137500
85.740700 0.133400
85.805500 0.132200
85.870200 0.125000
85.935000 0.117600
85.999800 0.112500
86.064500 0.104900
86.129300 0.095900
86.194100 0.088800
86.258800 0.083600
86.323600 0.079400
86.388400 0.077700
86.453100 0.073300
86.517900 0.068300
86.582700 0.064400
86.647400 0.064100
86.712200 0.068500
86.777000 0.059700
86.841700 0.056800
86.906500 0.054000
86.971300 0.050600
87.036000 0.047000
87.100800 0.042900
87.165600 0.039500
87.230300 0.037400
87.295100 0.043500
87.359800 0.025500
87.424600 0.016500
87.489400 0.010600
87.554100 0.006800
87.618900 0.000100
87.683700 0.000000
87.748400 0.000000
87.813200 0.000000
87.878000 0.000000
87.942700 0.000000
88.007500 0.000000
88.072300 0.000000
88.137000 0.000000
88.201800 0.000000
88.266600 0.000000
88.331300 0.000000
88.396100 0.000000
88.460900 0.000000
88.525600 0.000000
88.590400 0.000000
88.655200 0.000000
88.719900 0.000000
88.784700 0.000000
88.849500 0.000000
88.914200 0.000000
88.979000 0.000000
89.043800 0.000000
89.108500 0.000000
89.173300 0.000000
89.238100 0.000000
89.302800 0.000000
89.367600 0.000000
89.432400 0.000000
89.497100 0.000000
89.561900 0.000000
89.626700 0.000000
89.691400 0.000000
89.756200 0.000000
89.820900 0.000000
89.885700 0.000000
89.950500 0.000000
90.015200 0.000000
90.080000 0.000000
90.144800 0.000000
90.209500 0.000000
90.274300 0.000000
90.339100 0.000000
90.403800 0.000000
90.468600 0.000000
90.533400 0.000000
90.598100 0.000000
90.662900 0.000000
90.727700 0.000000
90.792400 0.000000
90.857200 0.000000
90.922000 0.000000
90.986700 0.000000
91.051500 0.000000
91.116300 0.000000
91.181000 0.000000
91.245800 0.000000
91.310600 0.000000
91.375300 0.000000
91.440100 0.000000
91.504900 0.000000
91.569600 0.000000
91.634400 0.000000
91.699200 0.000000
91.763900 0.000000
91.828700 0.000000
91.893500 0.000000
91.958200 0.000000
92.023000 0.000000
92.087800 0.000000
92.152500 0.000000
92.217300 0.000000
92.282000 0.000000
92.346800 0.000000
92.411600 0.000000
92.476300 0.000000
92.541100 0.000000
92.605900 0.000000
92.670600 0.000000
92.735400 0.000000
92.800200 0.000000
92.864900 0.000000
92.929700 0.000000
92.994500 0.000000
93.059200 0.000000
93.124000 0.000000
93.188800 0.000000
93.253500 0.000000
93.318300 0.000000
93.383100 0.000000
93.447800 0.000000
93.512600 0.000000
e
