set title 'mp-30339 - Density of States'
set xlabel 'Energy (eV)'
set ylabel 'DOS (states/eV)'
set grid
set xrange [-10:10]
set yrange [0:21.515]
set xzeroaxis lt -1
set terminal png size 800,600
set output 'mp-30339_dos_gnuplot.png'
plot '-' using 1:2 with lines title 'DOS'
-25.386900 0.000000
-25.344600 0.000000
-25.302400 0.000000
-25.260100 0.000000
-25.217900 0.000000
-25.175600 0.000000
-25.133400 0.000000
-25.091100 0.000000
-25.048900 0.000000
-25.006600 0.000000
-24.964400 0.000000
-24.922100 0.000000
-24.879800 0.000000
-24.837600 0.000000
-24.795300 0.000000
-24.753100 0.000000
-24.710800 0.000000
-24.668600 0.000000
-24.626300 0.000000
-24.584100 0.000000
-24.541800 0.000000
-24.499600 0.000000
-24.457300 0.000000
-24.415100 0.000000
-24.372800 0.000000
-24.330500 0.000000
-24.288300 0.000000
-24.246000 0.000000
-24.203800 0.000000
-24.161500 0.000000
-24.119300 0.000000
-24.077000 0.000000
-24.034800 0.000000
-23.992500 0.000000
-23.950300 0.000000
-23.908000 0.000000
-23.865800 0.000000
-23.823500 0.000000
-23.781200 0.000000
-23.739000 0.000000
-23.696700 0.000000
-23.654500 0.000000
-23.612200 0.000000
-23.570000 0.000000
-23.527700 0.000000
-23.485500 0.000000
-23.443200 0.000000
-23.401000 0.000000
-23.358700 0.000000
-23.316500 0.000000
-23.274200 0.000000
-23.231900 0.000000
-23.189700 0.000000
-23.147400 0.000000
-23.105200 0.000000
-23.062900 0.000000
-23.020700 0.000000
-22.978400 0.000000
-22.936200 0.000000
-22.893900 0.000000
-22.851700 0.000000
-22.809400 0.000000
-22.767200 0.000000
-22.724900 0.000000
-22.682700 0.000000
-22.640400 0.000000
-22.598100 0.000000
-22.555900 0.000000
-22.513600 0.000000
-22.471400 0.000000
-22.429100 0.000000
-22.386900 0.000000
-22.344600 0.000000
-22.302400 0.000000
-22.260100 0.000000
-22.217900 0.000000
-22.175600 0.000000
-22.133400 0.000000
-22.091100 0.000000
-22.048800 0.000000
-22.006600 0.000000
-21.964300 0.000000
-21.922100 0.000000
-21.879800 0.000000
-21.837600 0.000000
-21.795300 0.000000
-21.753100 0.000000
-21.710800 0.000000
-21.668600 0.001200
-21.626300 0.075300
-21.584100 1.361800
-21.541800 8.046300
-21.499500 20.260900
-21.457300 33.092600
-21.415000 35.349800
-21.372800 24.532800
-21.330500 14.292800
-21.288300 4.479600
-21.246000 0.490100
-21.203800 0.016000
-21.161500 0.000100
-21.119300 0.000000
-21.077000 0.000000
-21.034800 0.000000
-20.992500 0.000000
-20.950200 0.000000
-20.908000 0.000000
-20.865700 0.000000
-20.823500 0.000000
-20.781200 0.000000
-20.739000 0.000000
-20.696700 0.000000
-20.654500 0.000000
-20.612200 0.000000
-20.570000 0.000000
-20.527700 0.000000
-20.485500 0.000000
-20.443200 0.000000
-20.401000 0.000000
-20.358700 0.000000
-20.316400 0.000000
-20.274200 0.000000
-20.231900 0.000000
-20.189700 0.000000
-20.147400 0.000000
-20.105200 0.000000
-20.062900 0.000000
-20.020700 0.000000
-19.978400 0.000000
-19.936200 0.000000
-19.893900 0.000000
-19.851700 0.000000
-19.809400 0.000000
-19.767100 0.000000
-19.724900 0.000000
-19.682600 0.000000
-19.640400 0.000000
-19.598100 0.000000
-19.555900 0.000000
-19.513600 0.000000
-19.471400 0.000000
-19.429100 0.000000
-19.386900 0.000000
-19.344600 0.000000
-19.302400 0.000000
-19.260100 0.000000
-19.217800 0.000000
-19.175600 0.000000
-19.133300 0.000000
-19.091100 0.000000
-19.048800 0.000000
-19.006600 0.000000
-18.964300 0.000000
-18.922100 0.000000
-18.879800 0.000000
-18.837600 0.000000
-18.795300 0.000000
-18.753100 0.000000
-18.710800 0.000000
-18.668500 0.000000
-18.626300 0.000000
-18.584000 0.000000
-18.541800 0.000000
-18.499500 0.000000
-18.457300 0.000000
-18.415000 0.000000
-18.372800 0.000000
-18.330500 0.000000
-18.288300 0.000000
-18.246000 0.000000
-18.203800 0.000000
-18.161500 0.000000
-18.119200 0.000000
-18.077000 0.000000
-18.034700 0.000000
-17.992500 0.000000
-17.950200 0.000000
-17.908000 0.000000
-17.865700 0.000000
-17.823500 0.000000
-17.781200 0.000000
-17.739000 0.000000
-17.696700 0.000000
-17.654500 0.000000
-17.612200 0.000000
-17.570000 0.000000
-17.527700 0.000000
-17.485400 0.000000
-17.443200 0.000000
-17.400900 0.000000
-17.358700 0.000000
-17.316400 0.000000
-17.274200 0.000000
-17.231900 0.000000
-17.189700 0.000000
-17.147400 0.000000
-17.105200 0.000000
-17.062900 0.000000
-17.020700 0.000000
-16.978400 0.000000
-16.936100 0.000000
-16.893900 0.000000
-16.851600 0.000000
-16.809400 0.000000
-16.767100 0.000000
-16.724900 0.000000
-16.682600 0.000000
-16.640400 0.000000
-16.598100 0.000000
-16.555900 0.000000
-16.513600 0.000000
-16.471400 0.000000
-16.429100 0.000000
-16.386800 0.000000
-16.344600 0.000000
-16.302300 0.000000
-16.260100 0.000000
-16.217800 0.000000
-16.175600 0.000000
-16.133300 0.000000
-16.091100 0.000000
-16.048800 0.000000
-16.006600 0.000000
-15.964300 0.000000
-15.922100 0.000000
-15.879800 0.000000
-15.837500 0.000000
-15.795300 0.000000
-15.753000 0.000000
-15.710800 0.000000
-15.668500 0.000000
-15.626300 0.000000
-15.584000 0.000000
-15.541800 0.000000
-15.499500 0.000000
-15.457300 0.000000
-15.415000 0.000000
-15.372800 0.000000
-15.330500 0.000000
-15.288200 0.000000
-15.246000 0.000000
-15.203700 0.000000
-15.161500 0.000000
-15.119200 0.000000
-15.077000 0.000000
-15.034700 0.000000
-14.992500 0.000000
-14.950200 0.000000
-14.908000 0.000000
-14.865700 0.000000
-14.823500 0.000000
-14.781200 0.000000
-14.739000 0.000000
-14.696700 0.000000
-14.654400 0.000000
-14.612200 0.000000
-14.569900 0.000000
-14.527700 0.000000
-14.485400 0.000000
-14.443200 0.000000
-14.400900 0.000000
-14.358700 0.000000
-14.316400 0.000000
-14.274200 0.000000
-14.231900 0.000000
-14.189700 0.000000
-14.147400 0.000000
-14.105100 0.000000
-14.062900 0.000000
-14.020600 0.000000
-13.978400 0.000000
-13.936100 0.000000
-13.893900 0.000000
-13.851600 0.000000
-13.809400 0.000000
-13.767100 0.000000
-13.724900 0.000000
-13.682600 0.000000
-13.640400 0.000000
-13.598100 0.000000
-13.555800 0.000000
-13.513600 0.000000
-13.471300 0.000000
-13.429100 0.000000
-13.386800 0.000000
-13.344600 0.000000
-13.302300 0.000000
-13.260100 0.000000
-13.217800 0.000000
-13.175600 0.000000
-13.133300 0.000000
-13.091100 0.000000
-13.048800 0.000000
-13.006500 0.000000
-12.964300 0.000000
-12.922000 0.000000
-12.879800 0.000000
-12.837500 0.000000
-12.795300 0.000000
-12.753000 0.000000
-12.710800 0.000000
-12.668500 0.000000
-12.626300 0.000000
-12.584000 0.000000
-12.541800 0.000000
-12.499500 0.000000
-12.457300 0.000000
-12.415000 0.000000
-12.372700 0.000000
-12.330500 0.000000
-12.288200 0.000000
-12.246000 0.000000
-12.203700 0.000000
-12.161500 0.000000
-12.119200 0.000000
-12.077000 0.000000
-12.034700 0.000000
-11.992500 0.000000
-11.950200 0.000000
-11.908000 0.000000
-11.865700 0.000000
-11.823400 0.000000
-11.781200 0.000000
-11.738900 0.000000
-11.696700 0.000000
-11.654400 0.000000
-11.612200 0.000000
-11.569900 0.000000
-11.527700 0.000000
-11.485400 0.000000
-11.443200 0.000000
-11.400900 0.000000
-11.358700 0.000000
-11.316400 0.000000
-11.274100 0.000000
-11.231900 0.000000
-11.189600 0.000000
-11.147400 0.000000
-11.105100 0.000000
-11.062900 0.000000
-11.020600 0.000000
-10.978400 0.000000
-10.936100 0.000000
-10.893900 0.000000
-10.851600 0.000000
-10.809400 0.000000
-10.767100 0.000000
-10.724800 0.000000
-10.682600 0.000000
-10.640300 0.000000
-10.598100 0.000000
-10.555800 0.000000
-10.513600 0.000000
-10.471300 0.000000
-10.429100 0.000000
-10.386800 0.000000
-10.344600 0.000000
-10.302300 0.000000
-10.260100 0.000000
-10.217800 0.000000
-10.175500 0.000000
-10.133300 0.000000
-10.091000 0.000000
-10.048800 0.000000
-10.006500 0.000000
-9.964300 0.000000
-9.922000 0.000000
-9.879800 0.000000
-9.837500 0.000000
-9.795300 0.000000
-9.753000 0.000000
-9.710800 0.000000
-9.668500 0.000000
-9.626300 0.000000
-9.584000 0.000000
-9.541700 0.000000
-9.499500 0.000000
-9.457200 0.000000
-9.415000 0.000000
-9.372700 0.000000
-9.330500 0.000000
-9.288200 0.000000
-9.246000 0.000000
-9.203700 0.000000
-9.161500 0.000000
-9.119200 0.000000
-9.077000 0.000000
-9.034700 0.000000
-8.992400 0.000000
-8.950200 0.000000
-8.907900 0.000000
-8.865700 0.000000
-8.823400 0.000000
-8.781200 0.000000
-8.738900 0.000000
-8.696700 0.000000
-8.654400 0.000000
-8.612200 0.000000
-8.569900 0.000000
-8.527700 0.000000
-8.485400 0.000000
-8.443100 0.000000
-8.400900 0.000000
-8.358600 0.000000
-8.316400 0.000000
-8.274100 0.000000
-8.231900 0.000000
-8.189600 0.000000
-8.147400 0.000000
-8.105100 0.000000
-8.062900 0.000000
-8.020600 0.000000
-7.978400 0.000000
-7.936100 0.000000
-7.893800 0.000000
-7.851600 0.000000
-7.809300 0.000000
-7.767100 0.000000
-7.724800 0.000000
-7.682600 0.000000
-7.640300 0.000000
-7.598100 0.000000
-7.555800 0.000000
-7.513600 0.000000
-7.471300 0.000000
-7.429100 0.000000
-7.386800 0.000000
-7.344500 0.000000
-7.302300 0.000000
-7.260000 0.000000
-7.217800 0.000000
-7.175500 0.000000
-7.133300 0.000000
-7.091000 0.000000
-7.048800 0.000000
-7.006500 0.000000
-6.964300 0.000000
-6.922000 0.000000
-6.879800 0.000000
-6.837500 0.000000
-6.795300 0.000000
-6.753000 0.000000
-6.710700 0.000000
-6.668500 0.000000
-6.626200 0.000000
-6.584000 0.000000
-6.541700 0.000000
-6.499500 0.000000
-6.457200 0.000000
-6.415000 0.000000
-6.372700 0.000000
-6.330500 0.000000
-6.288200 0.000000
-6.246000 0.000000
-6.203700 0.000000
-6.161400 0.000000
-6.119200 0.000000
-6.076900 0.000000
-6.034700 0.000000
-5.992400 0.000000
-5.950200 0.000000
-5.907900 0.000000
-5.865700 0.000000
-5.823400 0.000000
-5.781200 0.000000
-5.738900 0.000000
-5.696700 0.000000
-5.654400 0.000000
-5.612100 0.000000
-5.569900 0.000000
-5.527600 0.000000
-5.485400 0.000000
-5.443100 0.000000
-5.400900 0.000000
-5.358600 0.000000
-5.316400 0.000000
-5.274100 0.000000
-5.231900 0.000000
-5.189600 0.000000
-5.147400 0.000000
-5.105100 0.000000
-5.062800 0.000000
-5.020600 0.000000
-4.978300 0.000000
-4.936100 0.000000
-4.893800 0.000000
-4.851600 0.000000
-4.809300 0.000000
-4.767100 0.000000
-4.724800 0.000000
-4.682600 0.000000
-4.640300 0.000000
-4.598100 0.000000
-4.555800 0.000000
-4.513600 0.000000
-4.471300 0.000000
-4.429000 0.000000
-4.386800 0.000000
-4.344500 0.000000
-4.302300 0.000000
-4.260000 0.000000
-4.217800 0.000000
-4.175500 0.000000
-4.133300 0.000000
-4.091000 0.000000
-4.048800 0.000000
-4.006500 0.000000
-3.964300 0.000000
-3.922000 0.000000
-3.879700 0.000000
-3.837500 0.000000
-3.795200 0.000000
-3.753000 0.000000
-3.710700 0.000000
-3.668500 0.000000
-3.626200 0.000000
-3.584000 0.000000
-3.541700 0.000100
-3.499500 0.001500
-3.457200 0.011800
-3.415000 0.028500
-3.372700 0.043300
-3.330400 0.082800
-3.288200 0.149500
-3.245900 0.187000
-3.203700 0.120700
-3.161400 0.052700
-3.119200 0.125300
-3.076900 0.244600
-3.034700 0.235900
-2.992400 0.189500
-2.950200 0.249400
-2.907900 0.346400
-2.865700 0.258300
-2.823400 0.153700
-2.781100 0.220900
-2.738900 0.384400
-2.696600 0.343600
-2.654400 0.235800
-2.612100 0.267000
-2.569900 0.381100
-2.527600 0.416400
-2.485400 0.516700
-2.443100 0.802000
-2.400900 0.983600
-2.358600 1.576200
-2.316400 3.857600
-2.274100 6.701000
-2.231800 7.791000
-2.189600 8.632900
-2.147300 7.712600
-2.105100 6.269600
-2.062800 7.106800
-2.020600 10.386900
-1.978300 15.115800
-1.936100 18.058500
-1.893800 19.246200
-1.851600 19.559400
-1.809300 18.968400
-1.767100 18.102200
-1.724800 16.621400
-1.682600 15.118200
-1.640300 13.581500
-1.598000 10.417800
-1.555800 8.314700
-1.513500 7.136700
-1.471300 5.768800
-1.429000 5.127000
-1.386800 4.844400
-1.344500 4.623200
-1.302300 5.486900
-1.260000 7.813200
-1.217800 11.032200
-1.175500 13.247800
-1.133300 14.029800
-1.091000 13.866100
-1.048700 13.289900
-1.006500 12.040400
-0.964200 11.151300
-0.922000 11.409800
-0.879700 12.213400
-0.837500 13.938700
-0.795200 14.933600
-0.753000 14.025900
-0.710700 12.133200
-0.668500 9.885400
-0.626200 9.033600
-0.584000 8.900100
-0.541700 6.627600
-0.499400 3.411800
-0.457200 1.417100
-0.414900 1.221700
-0.372700 1.096800
-0.330400 0.664000
-0.288200 0.900500
-0.245900 1.080500
-0.203700 0.847300
-0.161400 0.542000
-0.119200 0.625100
-0.076900 0.881300
-0.034700 0.854600
0.007600 0.835000
0.049900 0.692300
0.092100 0.727600
0.134400 0.924600
0.176600 1.057000
0.218900 0.763300
0.261100 0.552800
0.303400 0.760400
0.345600 0.954900
0.387900 0.856400
0.430100 0.719700
0.472400 0.985300
0.514600 1.594500
0.556900 1.480800
0.599200 0.946400
0.641400 0.505500
0.683700 0.376900
0.725900 0.537200
0.768200 0.919700
0.810400 1.235500
0.852700 0.957400
0.894900 0.751700
0.937200 0.702800
0.979400 0.490100
1.021700 0.712600
1.063900 1.049700
1.106200 1.162700
1.148400 1.183400
1.190700 1.307700
1.233000 1.801400
1.275200 2.277000
1.317500 1.767200
1.359700 0.926700
1.402000 0.728600
1.444200 0.945800
1.486500 1.063900
1.528700 1.152300
1.571000 1.106700
1.613200 1.163400
1.655500 1.413500
1.697700 1.776500
1.740000 1.564900
1.782300 0.986900
1.824500 1.068400
1.866800 1.310300
1.909000 1.209200
1.951300 1.144900
1.993500 1.209000
2.035800 1.272200
2.078000 1.115200
2.120300 1.001100
2.162500 0.806200
2.204800 0.745200
2.247000 1.399400
2.289300 1.863500
2.331600 1.420400
2.373800 0.939400
2.416100 0.963500
2.458300 0.917600
2.500600 0.832600
2.542800 1.063700
2.585100 1.321700
2.627300 1.258800
2.669600 1.337400
2.711800 1.593700
2.754100 1.666400
2.796300 1.491800
2.838600 1.156600
2.880900 1.138800
2.923100 1.572100
2.965400 2.120900
3.007600 1.889000
3.049900 1.330500
3.092100 1.296600
3.134400 1.313700
3.176600 1.398800
3.218900 1.414900
3.261100 1.179000
3.303400 0.904300
3.345600 0.861800
3.387900 1.038100
3.430100 1.056900
3.472400 1.102100
3.514700 1.280100
3.556900 1.267100
3.599200 1.142400
3.641400 0.948900
3.683700 1.026800
3.725900 1.412900
3.768200 1.560700
3.810400 1.195200
3.852700 0.967400
3.894900 0.945100
3.937200 0.889900
3.979400 1.043800
4.021700 1.064400
4.064000 0.815700
4.106200 0.682200
4.148500 0.553800
4.190700 0.288100
4.233000 0.225700
4.275200 0.660300
4.317500 1.519500
4.359700 2.350600
4.402000 2.920800
4.444200 2.785300
4.486500 1.868900
4.528700 1.188400
4.571000 0.970100
4.613300 1.196900
4.655500 1.376200
4.697800 1.463600
4.740000 2.033600
4.782300 2.285300
4.824500 1.884000
4.866800 1.832800
4.909000 1.856700
4.951300 2.085500
4.993500 2.594700
5.035800 2.479100
5.078000 2.280800
5.120300 2.321700
5.162600 2.079600
5.204800 1.595100
5.247100 1.744600
5.289300 2.743700
5.331600 3.601000
5.373800 3.206700
5.416100 3.016100
5.458300 4.037400
5.500600 4.798800
5.542800 4.559200
5.585100 3.933900
5.627300 3.106000
5.669600 3.039900
5.711900 3.077900
5.754100 2.726400
5.796400 2.617100
5.838600 3.025800
5.880900 3.734300
5.923100 3.451000
5.965400 3.054300
6.007600 3.458300
6.049900 4.503500
6.092100 4.947400
6.134400 4.367200
6.176600 3.499800
6.218900 2.952400
6.261100 3.347700
6.303400 3.415800
6.345700 2.677200
6.387900 1.993000
6.430200 1.638200
6.472400 1.579000
6.514700 1.589400
6.556900 1.826400
6.599200 2.109100
6.641400 1.903700
6.683700 1.387800
6.725900 0.941300
6.768200 0.848000
6.810400 0.943700
6.852700 1.034400
6.895000 1.602900
6.937200 2.189400
6.979500 2.004800
7.021700 2.233200
7.064000 2.797000
7.106200 2.661200
7.148500 2.522500
7.190700 2.918500
7.233000 2.995100
7.275200 3.182600
7.317500 3.651300
7.359700 3.551100
7.402000 2.823400
7.444300 2.558100
7.486500 2.113800
7.528800 1.117600
7.571000 0.535900
7.613300 0.299900
7.655500 0.269700
7.697800 0.347800
7.740000 0.250100
7.782300 0.199000
7.824500 0.334300
7.866800 0.493400
7.909000 0.433500
7.951300 0.297300
7.993600 0.281600
8.035800 0.270400
8.078100 0.273100
8.120300 0.457300
8.162600 0.861600
8.204800 0.961900
8.247100 0.745400
8.289300 0.658500
8.331600 0.517700
8.373800 0.263600
8.416100 0.320000
8.458300 0.622100
8.500600 0.879400
8.542800 0.965100
8.585100 0.991200
8.627400 0.970700
8.669600 1.008900
8.711900 1.371600
8.754100 1.735400
8.796400 1.630600
8.838600 2.343200
8.880900 3.109000
8.923100 2.770400
8.965400 2.497900
9.007600 1.820000
9.049900 1.003500
9.092100 0.725800
9.134400 0.962500
9.176700 1.482200
9.218900 1.390300
9.261200 1.068400
9.303400 1.281800
9.345700 1.136400
9.387900 0.805200
9.430200 0.539700
9.472400 0.457200
9.514700 0.595700
9.556900 0.861900
9.599200 1.032900
9.641400 1.031100
9.683700 1.146600
9.726000 1.376200
9.768200 1.251900
9.810500 1.000300
9.852700 0.834300
9.895000 0.879700
9.937200 1.259300
9.979500 1.427100
10.021700 1.061700
10.064000 0.781800
10.106200 1.042800
10.148500 1.168300
10.190700 0.943200
10.233000 0.966100
10.275300 1.108200
10.317500 1.017100
10.359800 1.210900
10.402000 1.592800
10.444300 1.465900
10.486500 1.234300
10.528800 1.305500
10.571000 1.444800
10.613300 1.915500
10.655500 2.320500
10.697800 2.117500
10.740000 2.121200
10.782300 2.333200
10.824600 2.108200
10.866800 1.458700
10.909100 1.367000
10.951300 1.718400
10.993600 1.593200
11.035800 1.196300
11.078100 1.174400
11.120300 1.250400
11.162600 1.657900
11.204800 2.211100
11.247100 2.429300
11.289300 2.616900
11.331600 2.618400
11.373800 2.343400
11.416100 2.523100
11.458400 2.901100
11.500600 3.096900
11.542900 2.947600
11.585100 2.298100
11.627400 2.341500
11.669600 2.574700
11.711900 2.116800
11.754100 1.692800
11.796400 1.713600
11.838600 1.957300
11.880900 1.849000
11.923100 1.780200
11.965400 2.129300
12.007700 2.240600
12.049900 1.672100
12.092200 1.437800
12.134400 1.507300
12.176700 1.610700
12.218900 1.892900
12.261200 1.685800
12.303400 1.469200
12.345700 1.701400
12.387900 1.958000
12.430200 1.761000
12.472400 1.575300
12.514700 1.709800
12.557000 1.924900
12.599200 1.911500
12.641500 2.001000
12.683700 1.817700
12.726000 1.192500
12.768200 1.283600
12.810500 1.751100
12.852700 1.709200
12.895000 1.789800
12.937200 1.987800
12.979500 2.191100
13.021700 2.495700
13.064000 2.815100
13.106300 2.845600
13.148500 2.193600
13.190800 1.696000
13.233000 1.507300
13.275300 1.183700
13.317500 1.136900
13.359800 1.518800
13.402000 2.036500
13.444300 2.159500
13.486500 1.693100
13.528800 1.700200
13.571000 2.389000
13.613300 2.488600
13.655600 1.887900
13.697800 1.658300
13.740100 1.512300
13.782300 1.564200
13.824600 1.784600
13.866800 2.129000
13.909100 2.286100
13.951300 1.977900
13.993600 1.357500
14.035800 1.405600
14.078100 1.904100
14.120300 2.285600
14.162600 2.009800
14.204800 1.774300
14.247100 1.889100
14.289400 1.578700
14.331600 1.308000
14.373900 1.268900
14.416100 1.698400
14.458400 2.064800
14.500600 1.963300
14.542900 1.685300
14.585100 1.537400
14.627400 1.762500
14.669600 1.839100
14.711900 1.398500
14.754100 1.240500
14.796400 1.806000
14.838700 2.434400
14.880900 2.839200
14.923200 2.822000
14.965400 2.170400
15.007700 1.268000
15.049900 1.085200
15.092200 1.687100
15.134400 1.906600
15.176700 1.889600
15.218900 1.660600
15.261200 1.670100
15.303400 2.005600
15.345700 2.705000
15.388000 3.047300
15.430200 2.434700
15.472500 2.270300
15.514700 2.032800
15.557000 1.777000
15.599200 2.248700
15.641500 2.596400
15.683700 2.350700
15.726000 2.298200
15.768200 2.726400
15.810500 2.916100
15.852700 2.679800
15.895000 2.131100
15.937300 1.552400
15.979500 1.085900
16.021800 1.316500
16.064000 1.869000
16.106300 1.876300
16.148500 1.870800
16.190800 2.119800
16.233000 2.078600
16.275300 2.047200
16.317500 1.838700
16.359800 1.720200
16.402000 1.716500
16.444300 1.571200
16.486500 1.157600
16.528800 1.152300
16.571100 1.317800
16.613300 1.245100
16.655600 1.229800
16.697800 1.316900
16.740100 1.623600
16.782300 1.859800
16.824600 1.888400
16.866800 2.004400
16.909100 2.174000
16.951300 2.215400
16.993600 2.278800
17.035800 2.340100
17.078100 2.687800
17.120400 3.147700
17.162600 2.849700
17.204900 2.270400
17.247100 1.792000
17.289400 1.788400
17.331600 2.238400
17.373900 2.481000
17.416100 2.439600
17.458400 2.259100
17.500600 1.861200
17.542900 1.706500
17.585100 1.652900
17.627400 1.915400
17.669700 2.251100
17.711900 2.239600
17.754200 2.321900
17.796400 2.838500
17.838700 3.015400
17.880900 2.465500
17.923200 1.828000
17.965400 2.146100
18.007700 2.299100
18.049900 1.887400
18.092200 1.594200
18.134400 1.711000
18.176700 1.895900
18.219000 1.802500
18.261200 1.778700
18.303500 1.715800
18.345700 1.476800
18.388000 1.855900
18.430200 2.093500
18.472500 1.643200
18.514700 1.553900
18.557000 1.805400
18.599200 1.602300
18.641500 1.175000
18.683700 1.272000
18.726000 1.629800
18.768300 1.905900
18.810500 2.062900
18.852800 1.999900
18.895000 1.570100
18.937300 1.555800
18.979500 2.258400
19.021800 2.296500
19.064000 1.560200
19.106300 1.198300
19.148500 1.460400
19.190800 1.403500
19.233000 1.215600
19.275300 1.559600
19.317500 1.699500
19.359800 1.379000
19.402100 1.549600
19.444300 1.814700
19.486600 2.001700
19.528800 2.416200
19.571100 2.384700
19.613300 1.913100
19.655600 1.356500
19.697800 1.419000
19.740100 1.654500
19.782300 1.647500
19.824600 1.674900
19.866800 1.741200
19.909100 1.809900
19.951400 2.191400
19.993600 2.650700
20.035900 2.755500
20.078100 2.557900
20.120400 2.226100
20.162600 2.266900
20.204900 2.722800
20.247100 2.615100
20.289400 1.654800
20.331600 1.367200
20.373900 1.604500
20.416100 1.737100
20.458400 1.653200
20.500700 1.519600
20.542900 1.693700
20.585200 2.042600
20.627400 2.048000
20.669700 1.957200
20.711900 2.456700
20.754200 2.808900
20.796400 2.324400
20.838700 1.410300
20.880900 1.071800
20.923200 1.748700
20.965400 2.168200
21.007700 1.859300
21.050000 1.649000
21.092200 1.608600
21.134500 1.802200
21.176700 1.632200
21.219000 1.586300
21.261200 2.162600
21.303500 1.906000
21.345700 1.473600
21.388000 2.267600
21.430200 3.046900
21.472500 2.742200
21.514700 2.239700
21.557000 2.317900
21.599300 2.732600
21.641500 2.760700
21.683800 2.266500
21.726000 2.052600
21.768300 2.230500
21.810500 2.445000
21.852800 2.321900
21.895000 2.030200
21.937300 2.221200
21.979500 2.189200
22.021800 1.584400
22.064000 1.518000
22.106300 2.490900
22.148500 2.956000
22.190800 2.247900
22.233100 1.745200
22.275300 1.699400
22.317600 2.136000
22.359800 2.778000
22.402100 2.443600
22.444300 1.647200
22.486600 1.178100
22.528800 1.141900
22.571100 1.466500
22.613300 2.175200
22.655600 2.368300
22.697800 2.147000
22.740100 1.896500
22.782400 1.879900
22.824600 2.001400
22.866900 2.229200
22.909100 2.453800
22.951400 2.310400
22.993600 2.540200
23.035900 3.129500
23.078100 3.197000
23.120400 3.508800
23.162600 3.060500
23.204900 2.275400
23.247100 2.467100
23.289400 2.509100
23.331700 2.330400
23.373900 2.282500
23.416200 2.485200
23.458400 2.497900
23.500700 2.474900
23.542900 2.767300
23.585200 2.429500
23.627400 1.811100
23.669700 1.370100
23.711900 1.571300
23.754200 2.299000
23.796400 2.581800
23.838700 2.413100
23.881000 2.629600
23.923200 3.125900
23.965500 2.648100
24.007700 2.102400
24.050000 1.863400
24.092200 2.105900
24.134500 2.946500
24.176700 3.058900
24.219000 2.457300
24.261200 1.949700
24.303500 1.827100
24.345700 1.805700
24.388000 1.927700
24.430200 2.155600
24.472500 2.063200
24.514800 1.847800
24.557000 1.670700
24.599300 1.558300
24.641500 1.925200
24.683800 2.221700
24.726000 2.514300
24.768300 2.806600
24.810500 2.531800
24.852800 2.230800
24.895000 2.145700
24.937300 2.634000
24.979500 3.319800
25.021800 3.252300
25.064100 3.220200
25.106300 3.291100
25.148600 3.276300
25.190800 2.641400
25.233100 2.277700
25.275300 2.667400
25.317600 2.428300
25.359800 2.005400
25.402100 1.668900
25.444300 1.693000
25.486600 2.332100
25.528800 2.982000
25.571100 2.945800
25.613400 2.685900
25.655600 3.106100
25.697900 3.397600
25.740100 3.062100
25.782400 3.080900
25.824600 2.764100
25.866900 2.412100
25.909100 2.514300
25.951400 2.675000
25.993600 2.970600
26.035900 3.190600
26.078100 3.073700
26.120400 2.140500
26.162700 1.635200
26.204900 2.285300
26.247200 3.380600
26.289400 3.243600
26.331700 2.323900
26.373900 2.656500
26.416200 2.998800
26.458400 2.499900
26.500700 2.423400
26.542900 2.585100
26.585200 2.193900
26.627400 2.303800
26.669700 2.772800
26.712000 3.138800
26.754200 2.900500
26.796500 1.929900
26.838700 1.392400
26.881000 1.306800
26.923200 1.894600
26.965500 2.985300
27.007700 3.332000
27.050000 2.663000
27.092200 1.987100
27.134500 2.100200
27.176700 2.341500
27.219000 2.506500
27.261200 2.807000
27.303500 2.737800
27.345800 2.328100
27.388000 2.189200
27.430300 2.243500
27.472500 2.445100
27.514800 2.197400
27.557000 2.062200
27.599300 2.199000
27.641500 2.136700
27.683800 2.119200
27.726000 2.649600
27.768300 2.909400
27.810500 2.277600
27.852800 1.704900
27.895100 1.681600
27.937300 1.624700
27.979600 1.335300
28.021800 1.219200
28.064100 1.751300
28.106300 2.025200
28.148600 1.825600
28.190800 1.751000
28.233100 1.945500
28.275300 2.314700
28.317600 2.386600
28.359800 2.361500
28.402100 2.339000
28.444400 2.292700
28.486600 2.212600
28.528900 2.476800
28.571100 2.553100
28.613400 2.465900
28.655600 2.529500
28.697900 2.792900
28.740100 3.136400
28.782400 3.307900
28.824600 2.935000
28.866900 1.862900
28.909100 1.755900
28.951400 2.286800
28.993700 2.178900
29.035900 2.128800
29.078200 2.275600
29.120400 2.356200
29.162700 2.577700
29.204900 2.368400
29.247200 2.036000
29.289400 2.125100
29.331700 2.246600
29.373900 2.456000
29.416200 2.189900
29.458400 2.553100
29.500700 2.931200
29.542900 2.080400
29.585200 1.431400
29.627500 1.868600
29.669700 2.959000
29.712000 3.393900
29.754200 2.719300
29.796500 2.135500
29.838700 1.661400
29.881000 1.235800
29.923200 1.674900
29.965500 2.292400
30.007700 2.251200
30.050000 2.501400
30.092200 2.952300
30.134500 3.216900
30.176800 2.926100
30.219000 2.715700
30.261300 2.860400
30.303500 2.886100
30.345800 2.168300
30.388000 1.375000
30.430300 1.534500
30.472500 2.126900
30.514800 2.636300
30.557000 3.043000
30.599300 3.049600
30.641500 2.761600
30.683800 2.692500
30.726100 3.534900
30.768300 3.743300
30.810600 2.879000
30.852800 2.759900
30.895100 2.816000
30.937300 2.547500
30.979600 2.461900
31.021800 2.569900
31.064100 2.424700
31.106300 2.504100
31.148600 2.858900
31.190800 2.572800
31.233100 1.873500
31.275400 1.952500
31.317600 2.473200
31.359900 2.554800
31.402100 2.148100
31.444400 1.743300
31.486600 2.108100
31.528900 2.562700
31.571100 2.161900
31.613400 1.947700
31.655600 2.370100
31.697900 2.792600
31.740100 3.049800
31.782400 3.229600
31.824700 3.065500
31.866900 3.175400
31.909200 3.406400
31.951400 3.352400
31.993700 3.000800
32.035900 2.736400
32.078200 2.877000
32.120400 3.063800
32.162700 2.741300
32.204900 2.574500
32.247200 2.754600
32.289400 2.696100
32.331700 2.661800
32.373900 2.665200
32.416200 3.042900
32.458500 3.447000
32.500700 3.948700
32.543000 4.154600
32.585200 3.610500
32.627500 3.476700
32.669700 3.556400
32.712000 2.930400
32.754200 2.585400
32.796500 2.721200
32.838700 2.648900
32.881000 2.453600
32.923200 2.369700
32.965500 2.159400
33.007800 2.120400
33.050000 2.626700
33.092300 3.050200
33.134500 2.597600
33.176800 2.343300
33.219000 2.947000
33.261300 2.848600
33.303500 2.421800
33.345800 2.463400
33.388000 2.639800
33.430300 2.639200
33.472500 2.650200
33.514800 2.743200
33.557100 3.230300
33.599300 3.978500
33.641600 4.086800
33.683800 3.489800
33.726100 3.256400
33.768300 3.112400
33.810600 2.832800
33.852800 2.906000
33.895100 3.400300
33.937300 3.676700
33.979600 3.527400
34.021800 3.515000
34.064100 3.533000
34.106400 2.957100
34.148600 2.523900
34.190900 2.917400
34.233100 3.499400
34.275400 3.343500
34.317600 3.463900
34.359900 4.237900
34.402100 3.686300
34.444400 3.105000
34.486600 3.207500
34.528900 2.975900
34.571100 2.704300
34.613400 2.915700
34.655700 3.310100
34.697900 3.414700
34.740200 3.548600
34.782400 3.100800
34.824700 2.634500
34.866900 2.883300
34.909200 3.456800
34.951400 3.433300
34.993700 2.892400
35.035900 2.832900
35.078200 3.304300
35.120400 3.137000
35.162700 3.250800
35.204900 3.564700
35.247200 3.066700
35.289500 3.499500
35.331700 4.427200
35.374000 4.337100
35.416200 4.842900
35.458500 6.183900
35.500700 6.572700
35.543000 6.150000
35.585200 5.675800
35.627500 4.964900
35.669700 4.164500
35.712000 3.917900
35.754200 4.046800
35.796500 3.336900
35.838800 3.474400
35.881000 4.294300
35.923300 3.664100
35.965500 3.597400
36.007800 4.008300
36.050000 3.247200
36.092300 3.134100
36.134500 3.981500
36.176800 3.981500
36.219000 2.917300
36.261300 2.485100
36.303500 2.557100
36.345800 2.426800
36.388100 2.487200
36.430300 3.061500
36.472600 3.135300
36.514800 2.690300
36.557100 2.725300
36.599300 2.422100
36.641600 2.108900
36.683800 2.746300
36.726100 3.093400
36.768300 2.794600
36.810600 2.572900
36.852800 2.642400
36.895100 2.763900
36.937400 2.617700
36.979600 2.162100
37.021900 1.981600
37.064100 2.089700
37.106400 2.138000
37.148600 2.539500
37.190900 3.459600
37.233100 3.497400
37.275400 2.965500
37.317600 3.232900
37.359900 3.712600
37.402100 3.454900
37.444400 3.160800
37.486600 3.218500
37.528900 3.188800
37.571200 3.137800
37.613400 3.057000
37.655700 2.638100
37.697900 2.277400
37.740200 2.265700
37.782400 2.578700
37.824700 2.919500
37.866900 2.527900
37.909200 1.970900
37.951400 2.179900
37.993700 2.593600
38.035900 2.881200
38.078200 3.455800
38.120500 3.527700
38.162700 3.157600
38.205000 3.373800
38.247200 3.330500
38.289500 2.822700
38.331700 2.634300
38.374000 3.213500
38.416200 4.081700
38.458500 3.953400
38.500700 2.638200
38.543000 2.026900
38.585200 2.152700
38.627500 2.518400
38.669800 2.924100
38.712000 2.705900
38.754300 2.643400
38.796500 3.134600
38.838800 3.307000
38.881000 3.487600
38.923300 3.816000
38.965500 3.574900
39.007800 3.086500
39.050000 3.095200
39.092300 2.979000
39.134500 2.680300
39.176800 3.069300
39.219100 3.610800
39.261300 3.916800
39.303600 3.618900
39.345800 3.134100
39.388100 3.163200
39.430300 3.103900
39.472600 3.028300
39.514800 2.910500
39.557100 2.608900
39.599300 2.287800
39.641600 2.857800
39.683800 3.649500
39.726100 3.623100
39.768400 3.127700
39.810600 2.583000
39.852900 2.285700
39.895100 2.413800
39.937400 2.642400
39.979600 2.473300
40.021900 2.277500
40.064100 2.356900
40.106400 2.563900
40.148600 2.594900
40.190900 2.855600
40.233100 3.441000
40.275400 3.496400
40.317600 3.307800
40.359900 3.363800
40.402200 3.406300
40.444400 3.000600
40.486700 2.715100
40.528900 2.612400
40.571200 2.392500
40.613400 2.761000
40.655700 3.136100
40.697900 3.106000
40.740200 3.458200
40.782400 3.494300
40.824700 2.964900
40.866900 2.653100
40.909200 2.927000
40.951500 3.683300
40.993700 3.917100
41.036000 3.493500
41.078200 3.165000
41.120500 2.867900
41.162700 2.950300
41.205000 2.831400
41.247200 2.764900
41.289500 2.766100
41.331700 2.507200
41.374000 2.715000
41.416200 3.001700
41.458500 2.471600
41.500800 2.253800
41.543000 2.546600
41.585300 2.687200
41.627500 2.880700
41.669800 2.952600
41.712000 2.789900
41.754300 2.555600
41.796500 2.478100
41.838800 2.673500
41.881000 2.792000
41.923300 3.050000
41.965500 3.319800
42.007800 3.074700
42.050100 2.997000
42.092300 3.342900
42.134600 3.359300
42.176800 3.098800
42.219100 3.404200
42.261300 4.087100
42.303600 4.202700
42.345800 3.167000
42.388100 2.510400
42.430300 2.571500
42.472600 2.684200
42.514800 2.868800
42.557100 2.610600
42.599400 2.920600
42.641600 3.989300
42.683900 4.192800
42.726100 3.882000
42.768400 4.133000
42.810600 4.280700
42.852900 3.452900
42.895100 2.962800
42.937400 2.441200
42.979600 1.922600
43.021900 1.941600
43.064100 2.310000
43.106400 2.555700
43.148600 2.774000
43.190900 2.486500
43.233200 2.374200
43.275400 2.884200
43.317700 3.011700
43.359900 2.792900
43.402200 3.142900
43.444400 3.453400
43.486700 3.270000
43.528900 3.036500
43.571200 2.765000
43.613400 2.446400
43.655700 2.107900
43.697900 2.330300
43.740200 2.536200
43.782500 2.391900
43.824700 2.566600
43.867000 2.922200
43.909200 2.744300
43.951500 3.093600
43.993700 3.994000
44.036000 3.887500
44.078200 2.874000
44.120500 2.516300
44.162700 3.067400
44.205000 4.196700
44.247200 4.599600
44.289500 4.130300
44.331800 3.531600
44.374000 3.568400
44.416300 3.644300
44.458500 3.841600
44.500800 3.810900
44.543000 3.119900
44.585300 2.789200
44.627500 3.203700
44.669800 3.000800
44.712000 2.700000
44.754300 2.969100
44.796500 2.971600
44.838800 3.262400
44.881100 3.457300
44.923300 3.430900
44.965600 3.134400
45.007800 3.105000
45.050100 3.405200
45.092300 3.341900
45.134600 2.576700
45.176800 2.632200
45.219100 3.251900
45.261300 3.401200
45.303600 3.024900
45.345800 2.839700
45.388100 2.626700
45.430300 2.377100
45.472600 2.699600
45.514900 2.932900
45.557100 2.898000
45.599400 2.773900
45.641600 2.723200
45.683900 2.852700
45.726100 2.277100
45.768400 2.005400
45.810600 3.400900
45.852900 4.391100
45.895100 4.035000
45.937400 3.844300
45.979600 4.171700
46.021900 3.488800
46.064200 2.925100
46.106400 3.972300
46.148700 4.612800
46.190900 3.996900
46.233200 3.053200
46.275400 3.099300
46.317700 3.298700
46.359900 2.680500
46.402200 2.326400
46.444400 2.391800
46.486700 2.021500
46.528900 2.109000
46.571200 3.327900
46.613500 3.960000
46.655700 3.767700
46.698000 4.048700
46.740200 4.655000
46.782500 4.703400
46.824700 4.729200
46.867000 4.360900
46.909200 3.642100
46.951500 3.487100
46.993700 3.811000
47.036000 3.602500
47.078200 2.954800
47.120500 3.018600
47.162800 3.304300
47.205000 3.695400
47.247300 4.111000
47.289500 3.914000
47.331800 3.001800
47.374000 2.547100
47.416300 2.965000
47.458500 3.144500
47.500800 3.285100
47.543000 3.746800
47.585300 4.394600
47.627500 4.190100
47.669800 3.162900
47.712100 2.468000
47.754300 2.778300
47.796600 3.441600
47.838800 3.560200
47.881100 3.568100
47.923300 3.449200
47.965600 3.038200
48.007800 2.775700
48.050100 2.750100
48.092300 2.840600
48.134600 2.723600
48.176800 2.772000
48.219100 2.868200
48.261300 2.920200
48.303600 2.899800
48.345900 2.666000
48.388100 2.686200
48.430400 2.865200
48.472600 2.989100
48.514900 2.740600
48.557100 2.308000
48.599400 2.657100
48.641600 3.541200
48.683900 3.538600
48.726100 2.962400
48.768400 2.759500
48.810600 2.924800
48.852900 2.921100
48.895200 3.290100
48.937400 3.786900
48.979700 3.986300
49.021900 3.835400
49.064200 3.811600
49.106400 3.577400
49.148700 3.242100
49.190900 2.993000
49.233200 2.860500
49.275400 2.586500
49.317700 2.954000
49.359900 3.389100
49.402200 3.443700
49.444500 3.909900
49.486700 4.006500
49.529000 3.692800
49.571200 3.749700
49.613500 3.751200
49.655700 3.583300
49.698000 3.135100
49.740200 2.826700
49.782500 2.968400
49.824700 3.048400
49.867000 2.980000
49.909200 3.083600
49.951500 2.978700
49.993800 2.881300
50.036000 2.921900
50.078300 3.178900
50.120500 3.741400
50.162800 4.542800
50.205000 4.398200
50.247300 3.171300
50.289500 2.729400
50.331800 3.250900
50.374000 4.116900
50.416300 4.126500
50.458500 3.505400
50.500800 3.092500
50.543000 2.713500
50.585300 2.335900
50.627600 2.187200
50.669800 3.005300
50.712100 3.656100
50.754300 3.555100
50.796600 3.984900
50.838800 4.029900
50.881100 3.582600
50.923300 3.674800
50.965600 3.839900
51.007800 3.728000
51.050100 3.583100
51.092300 3.517000
51.134600 3.439400
51.176900 3.350500
51.219100 3.505300
51.261400 3.232000
51.303600 2.893900
51.345900 3.486500
51.388100 4.442300
51.430400 4.227100
51.472600 3.655600
51.514900 3.903000
51.557100 4.527500
51.599400 4.564800
51.641600 4.062500
51.683900 3.196000
51.726200 2.605500
51.768400 2.636900
51.810700 2.962200
51.852900 3.343500
51.895200 3.257100
51.937400 3.322300
51.979700 3.822800
52.021900 4.302600
52.064200 4.078900
52.106400 3.717300
52.148700 3.536500
52.190900 3.281500
52.233200 3.030000
52.275500 2.779900
52.317700 2.941200
52.360000 4.257000
52.402200 4.910300
52.444500 4.285800
52.486700 3.906900
52.529000 3.624900
52.571200 3.297400
52.613500 3.151800
52.655700 3.137000
52.698000 3.321300
52.740200 3.430300
52.782500 3.339100
52.824800 3.458200
52.867000 3.463100
52.909300 3.167600
52.951500 3.089000
52.993800 3.066800
53.036000 3.046400
53.078300 2.836600
53.120500 2.689300
53.162800 2.718500
53.205000 2.767500
53.247300 2.874500
53.289500 2.761500
53.331800 2.611500
53.374000 2.607000
53.416300 2.936500
53.458600 2.977900
53.500800 2.675500
53.543100 2.769500
53.585300 2.928300
53.627600 2.674800
53.669800 2.502100
53.712100 2.657100
53.754300 2.683700
53.796600 2.709600
53.838800 2.813600
53.881100 2.738300
53.923300 2.431800
53.965600 2.216100
54.007900 2.137600
54.050100 2.182900
54.092400 2.182800
54.134600 2.018200
54.176900 1.832800
54.219100 1.689100
54.261400 1.484400
54.303600 1.297000
54.345900 1.291500
54.388100 1.248800
54.430400 1.085100
54.472600 1.078500
54.514900 1.096300
54.557200 0.919000
54.599400 0.816900
54.641700 0.799900
54.683900 0.641900
54.726200 0.475000
54.768400 0.353500
54.810700 0.262200
54.852900 0.221800
54.895200 0.186500
54.937400 0.132700
54.979700 0.156100
55.021900 0.191300
55.064200 0.172200
55.106500 0.121900
55.148700 0.045000
55.191000 0.029100
55.233200 0.046300
55.275500 0.049100
55.317700 0.030200
55.360000 0.007700
55.402200 0.000600
55.444500 0.000000
55.486700 0.000000
55.529000 0.000000
55.571200 0.000000
55.613500 0.000000
55.655800 0.000000
55.698000 0.000000
55.740300 0.000000
55.782500 0.000000
55.824800 0.000000
55.867000 0.000000
55.909300 0.000000
55.951500 0.000000
55.993800 0.000000
56.036000 0.000000
56.078300 0.000000
56.120500 0.000000
56.162800 0.000000
56.205000 0.000000
56.247300 0.000000
56.289600 0.000000
56.331800 0.000000
56.374100 0.000000
56.416300 0.000000
56.458600 0.000000
56.500800 0.000000
56.543100 0.000000
56.585300 0.000000
56.627600 0.000000
56.669800 0.000000
56.712100 0.000000
56.754300 0.000000
56.796600 0.000000
56.838900 0.000000
56.881100 0.000000
56.923400 0.000000
56.965600 0.000000
57.007900 0.000000
57.050100 0.000000
57.092400 0.000000
57.134600 0.000000
57.176900 0.000000
57.219100 0.000000
57.261400 0.000000
57.303600 0.000000
57.345900 0.000000
57.388200 0.000000
57.430400 0.000000
57.472700 0.000000
57.514900 0.000000
57.557200 0.000000
57.599400 0.000000
57.641700 0.000000
57.683900 0.000000
57.726200 0.000000
57.768400 0.000000
57.810700 0.000000
57.852900 0.000000
57.895200 0.000000
57.937500 0.000000
57.979700 0.000000
58.022000 0.000000
58.064200 0.000000
58.106500 0.000000
58.148700 0.000000
58.191000 0.000000
58.233200 0.000000
58.275500 0.000000
58.317700 0.000000
58.360000 0.000000
58.402200 0.000000
58.444500 0.000000
58.486700 0.000000
58.529000 0.000000
58.571300 0.000000
58.613500 0.000000
58.655800 0.000000
58.698000 0.000000
58.740300 0.000000
58.782500 0.000000
58.824800 0.000000
58.867000 0.000000
58.909300 0.000000
58.951500 0.000000
58.993800 0.000000
59.036000 0.000000
59.078300 0.000000
59.120600 0.000000
e
