set title 'mp-7140 - Density of States'
set xlabel 'Energy (eV)'
set ylabel 'DOS (states/eV)'
set grid
set xrange [-10:10]
set yrange [0:3.934]
set xzeroaxis lt -1
set terminal png size 800,600
set output 'mp-7140_dos_gnuplot.png'
plot '-' using 1:2 with lines title 'DOS'
-8.787000 0.000000
-8.771200 0.000000
-8.755400 0.000000
-8.739700 0.000000
-8.723900 0.000000
-8.708100 0.000000
-8.692300 0.000000
-8.676600 0.000000
-8.660800 0.000000
-8.645000 0.000000
-8.629300 0.000000
-8.613500 0.000000
-8.597700 0.000000
-8.581900 0.000000
-8.566200 0.000000
-8.550400 0.000000
-8.534600 0.000000
-8.518800 0.000000
-8.503100 0.000000
-8.487300 0.000000
-8.471500 0.000000
-8.455800 0.000000
-8.440000 0.000000
-8.424200 0.000000
-8.408400 0.000000
-8.392700 0.000000
-8.376900 0.000000
-8.361100 0.000000
-8.345300 0.000000
-8.329600 0.000000
-8.313800 0.000000
-8.298000 0.000000
-8.282300 0.000000
-8.266500 0.000000
-8.250700 0.000000
-8.234900 0.000000
-8.219200 0.000000
-8.203400 0.000000
-8.187600 0.000000
-8.171800 0.000000
-8.156100 0.000000
-8.140300 0.000000
-8.124500 0.000000
-8.108800 0.000000
-8.093000 0.000000
-8.077200 0.000000
-8.061400 0.000000
-8.045700 0.000000
-8.029900 0.000000
-8.014100 0.000000
-7.998300 0.000000
-7.982600 0.000000
-7.966800 0.000000
-7.951000 0.000000
-7.935300 0.000000
-7.919500 0.000000
-7.903700 0.000000
-7.887900 0.000000
-7.872200 0.000000
-7.856400 0.000000
-7.840600 0.000000
-7.824800 0.000000
-7.809100 0.000000
-7.793300 0.000000
-7.777500 0.000000
-7.761700 0.000000
-7.746000 0.000000
-7.730200 0.000000
-7.714400 0.000000
-7.698700 0.000000
-7.682900 0.000000
-7.667100 0.000000
-7.651300 0.000000
-7.635600 0.000000
-7.619800 0.000000
-7.604000 0.000000
-7.588200 0.000000
-7.572500 0.000000
-7.556700 0.000000
-7.540900 0.000000
-7.525200 0.000000
-7.509400 0.000000
-7.493600 0.000000
-7.477800 0.000000
-7.462100 0.000000
-7.446300 0.000000
-7.430500 0.000000
-7.414700 0.000000
-7.399000 0.000000
-7.383200 0.000000
-7.367400 0.000000
-7.351700 0.000100
-7.335900 0.013200
-7.320100 0.048500
-7.304300 0.078200
-7.288600 0.086100
-7.272800 0.091800
-7.257000 0.105500
-7.241200 0.119900
-7.225500 0.133900
-7.209700 0.144100
-7.193900 0.148500
-7.178200 0.151600
-7.162400 0.158800
-7.146600 0.166600
-7.130800 0.174500
-7.115100 0.182300
-7.099300 0.190100
-7.083500 0.198300
-7.067700 0.204300
-7.052000 0.209700
-7.036200 0.215300
-7.020400 0.219800
-7.004700 0.224100
-6.988900 0.228900
-6.973100 0.233900
-6.957300 0.239000
-6.941600 0.244300
-6.925800 0.249800
-6.910000 0.255600
-6.894200 0.261600
-6.878500 0.267500
-6.862700 0.272300
-6.846900 0.276200
-6.831100 0.280300
-6.815400 0.285000
-6.799600 0.289200
-6.783800 0.292700
-6.768100 0.296600
-6.752300 0.300500
-6.736500 0.304500
-6.720700 0.308700
-6.705000 0.313000
-6.689200 0.317500
-6.673400 0.322100
-6.657600 0.326700
-6.641900 0.331400
-6.626100 0.336100
-6.610300 0.340000
-6.594600 0.343400
-6.578800 0.346900
-6.563000 0.350600
-6.547200 0.354300
-6.531500 0.358100
-6.515700 0.362000
-6.499900 0.365500
-6.484100 0.368800
-6.468400 0.372400
-6.452600 0.376100
-6.436800 0.379700
-6.421100 0.383400
-6.405300 0.387000
-6.389500 0.390700
-6.373700 0.394400
-6.358000 0.398200
-6.342200 0.402100
-6.326400 0.406100
-6.310600 0.410000
-6.294900 0.413400
-6.279100 0.416400
-6.263300 0.419600
-6.247600 0.423100
-6.231800 0.426600
-6.216000 0.430000
-6.200200 0.433500
-6.184500 0.436900
-6.168700 0.440300
-6.152900 0.443600
-6.137100 0.446800
-6.121400 0.450000
-6.105600 0.453300
-6.089800 0.456600
-6.074100 0.460000
-6.058300 0.463300
-6.042500 0.466700
-6.026700 0.470200
-6.011000 0.473700
-5.995200 0.477300
-5.979400 0.480900
-5.963600 0.484500
-5.947900 0.487900
-5.932100 0.491000
-5.916300 0.494100
-5.900500 0.497200
-5.884800 0.500400
-5.869000 0.503500
-5.853200 0.506700
-5.837500 0.510000
-5.821700 0.513200
-5.805900 0.516500
-5.790100 0.519900
-5.774400 0.523300
-5.758600 0.526700
-5.742800 0.530000
-5.727000 0.533100
-5.711300 0.536400
-5.695500 0.539700
-5.679700 0.543000
-5.664000 0.546300
-5.648200 0.549700
-5.632400 0.553100
-5.616600 0.556500
-5.600900 0.559900
-5.585100 0.563400
-5.569300 0.566900
-5.553500 0.570300
-5.537800 0.573600
-5.522000 0.576700
-5.506200 0.579800
-5.490500 0.583000
-5.474700 0.586400
-5.458900 0.589700
-5.443100 0.593000
-5.427400 0.596400
-5.411600 0.599800
-5.395800 0.603200
-5.380000 0.606700
-5.364300 0.610200
-5.348500 0.613800
-5.332700 0.617300
-5.317000 0.620900
-5.301200 0.624400
-5.285400 0.627900
-5.269600 0.631300
-5.253900 0.634800
-5.238100 0.638300
-5.222300 0.641900
-5.206500 0.645500
-5.190800 0.649100
-5.175000 0.652800
-5.159200 0.656500
-5.143500 0.660300
-5.127700 0.664100
-5.111900 0.667900
-5.096100 0.671700
-5.080400 0.675300
-5.064600 0.679000
-5.048800 0.682800
-5.033000 0.686500
-5.017300 0.690400
-5.001500 0.694200
-4.985700 0.698100
-4.969900 0.702100
-4.954200 0.706000
-4.938400 0.710100
-4.922600 0.714100
-4.906900 0.718100
-4.891100 0.722300
-4.875300 0.726400
-4.859500 0.730600
-4.843800 0.734900
-4.828000 0.739100
-4.812200 0.743600
-4.796400 0.748100
-4.780700 0.752600
-4.764900 0.757300
-4.749100 0.761900
-4.733400 0.766600
-4.717600 0.771300
-4.701800 0.776200
-4.686000 0.781100
-4.670300 0.786000
-4.654500 0.791000
-4.638700 0.796100
-4.622900 0.801200
-4.607200 0.806400
-4.591400 0.811700
-4.575600 0.817100
-4.559900 0.822500
-4.544100 0.828000
-4.528300 0.833600
-4.512500 0.839300
-4.496800 0.845300
-4.481000 0.851400
-4.465200 0.857600
-4.449400 0.863900
-4.433700 0.870500
-4.417900 0.877300
-4.402100 0.884200
-4.386400 0.891500
-4.370600 0.899100
-4.354800 0.907000
-4.339000 0.915600
-4.323300 0.924200
-4.307500 0.932900
-4.291700 0.941900
-4.275900 0.951000
-4.260200 0.961300
-4.244400 0.972900
-4.228600 0.985200
-4.212900 0.998000
-4.197100 1.011300
-4.181300 1.025300
-4.165500 1.039900
-4.149800 1.055100
-4.134000 1.088000
-4.118200 1.122300
-4.102400 1.132100
-4.086700 1.137100
-4.070900 1.139500
-4.055100 1.142500
-4.039300 1.221600
-4.023600 1.214300
-4.007800 1.170000
-3.992000 1.170300
-3.976300 1.173600
-3.960500 1.180300
-3.944700 1.184100
-3.928900 1.179200
-3.913200 1.183300
-3.897400 1.186700
-3.881600 1.188600
-3.865800 1.190200
-3.850100 1.191500
-3.834300 1.194200
-3.818500 1.194400
-3.802800 1.188100
-3.787000 1.189100
-3.771200 1.190300
-3.755400 1.191600
-3.739700 1.191600
-3.723900 1.178200
-3.708100 1.170200
-3.692300 1.169000
-3.676600 1.168100
-3.660800 1.165200
-3.645000 1.161500
-3.629300 1.157900
-3.613500 1.155200
-3.597700 1.152400
-3.581900 1.148900
-3.566200 1.145100
-3.550400 1.140900
-3.534600 1.136400
-3.518800 1.131600
-3.503100 1.127200
-3.487300 1.122300
-3.471500 1.117300
-3.455800 1.112200
-3.440000 1.108600
-3.424200 1.106400
-3.408400 1.104100
-3.392700 1.102200
-3.376900 1.100300
-3.361100 1.098300
-3.345300 1.096700
-3.329600 1.095300
-3.313800 1.094300
-3.298000 1.094100
-3.282300 1.091800
-3.266500 1.082200
-3.250700 1.077200
-3.234900 1.073400
-3.219200 1.070300
-3.203400 1.067700
-3.187600 1.067000
-3.171800 1.065900
-3.156100 1.063900
-3.140300 1.061900
-3.124500 1.059600
-3.108700 1.056700
-3.093000 1.053900
-3.077200 1.050800
-3.061400 1.047800
-3.045700 1.044800
-3.029900 1.042400
-3.014100 1.040500
-2.998300 1.038100
-2.982600 1.035400
-2.966800 1.037700
-2.951000 1.048400
-2.935200 1.054000
-2.919500 1.057000
-2.903700 1.061000
-2.887900 1.066000
-2.872200 1.072300
-2.856400 1.079500
-2.840600 1.089700
-2.824800 1.108600
-2.809100 1.125300
-2.793300 1.139500
-2.777500 1.158500
-2.761700 1.176800
-2.746000 1.199200
-2.730200 1.227000
-2.714400 1.272000
-2.698700 1.331900
-2.682900 1.434100
-2.667100 1.506000
-2.651300 1.573200
-2.635600 1.646900
-2.619800 1.847400
-2.604000 2.085100
-2.588200 2.399000
-2.572500 2.209800
-2.556700 2.471100
-2.540900 2.199300
-2.525200 2.190900
-2.509400 1.953400
-2.493600 1.685000
-2.477800 1.588800
-2.462100 1.489900
-2.446300 1.395700
-2.430500 1.316500
-2.414700 1.279600
-2.399000 1.263000
-2.383200 1.201900
-2.367400 1.173700
-2.351700 1.040900
-2.335900 0.867800
-2.320100 0.735500
-2.304300 0.658600
-2.288600 0.611500
-2.272800 0.500300
-2.257000 0.397400
-2.241200 0.389500
-2.225500 0.246300
-2.209700 0.126700
-2.193900 0.027900
-2.178100 0.000000
-2.162400 0.000000
-2.146600 0.000000
-2.130800 0.000000
-2.115100 0.000000
-2.099300 0.000000
-2.083500 0.000000
-2.067700 0.000000
-2.052000 0.000000
-2.036200 0.000000
-2.020400 0.000000
-2.004600 0.000000
-1.988900 0.000000
-1.973100 0.000000
-1.957300 0.000000
-1.941600 0.000000
-1.925800 0.000000
-1.910000 0.000000
-1.894200 0.000000
-1.878500 0.000000
-1.862700 0.000000
-1.846900 0.000000
-1.831100 0.000000
-1.815400 0.000000
-1.799600 0.000000
-1.783800 0.000000
-1.768100 0.000000
-1.752300 0.000000
-1.736500 0.000000
-1.720700 0.000000
-1.705000 0.000000
-1.689200 0.000000
-1.673400 0.000000
-1.657600 0.000000
-1.641900 0.000000
-1.626100 0.000000
-1.610300 0.000000
-1.594600 0.000000
-1.578800 0.000000
-1.563000 0.000000
-1.547200 0.000000
-1.531500 0.000000
-1.515700 0.000000
-1.499900 0.000000
-1.484100 0.000000
-1.468400 0.000000
-1.452600 0.000000
-1.436800 0.000000
-1.421100 0.000000
-1.405300 0.000000
-1.389500 0.000000
-1.373700 0.000000
-1.358000 0.000000
-1.342200 0.000000
-1.326400 0.000000
-1.310600 0.000000
-1.294900 0.000000
-1.279100 0.000000
-1.263300 0.000000
-1.247500 0.000000
-1.231800 0.000000
-1.216000 0.000000
-1.200200 0.000000
-1.184500 0.000000
-1.168700 0.000000
-1.152900 0.000000
-1.137100 0.000000
-1.121400 0.000000
-1.105600 0.000000
-1.089800 0.000000
-1.074000 0.000000
-1.058300 0.000000
-1.042500 0.000000
-1.026700 0.000000
-1.011000 0.000000
-0.995200 0.000000
-0.979400 0.000000
-0.963600 0.000000
-0.947900 0.000000
-0.932100 0.000000
-0.916300 0.000000
-0.900500 0.000000
-0.884800 0.000000
-0.869000 0.000000
-0.853200 0.000000
-0.837500 0.000000
-0.821700 0.000000
-0.805900 0.000000
-0.790100 0.000000
-0.774400 0.000000
-0.758600 0.000000
-0.742800 0.000000
-0.727000 0.000000
-0.711300 0.000000
-0.695500 0.000000
-0.679700 0.000000
-0.664000 0.000000
-0.648200 0.000000
-0.632400 0.000000
-0.616600 0.000000
-0.600900 0.000000
-0.585100 0.000000
-0.569300 0.000000
-0.553500 0.000000
-0.537800 0.000000
-0.522000 0.000000
-0.506200 0.000700
-0.490500 0.005300
-0.474700 0.012400
-0.458900 0.017600
-0.443100 0.023100
-0.427400 0.029000
-0.411600 0.035200
-0.395800 0.041600
-0.380000 0.047600
-0.364300 0.053200
-0.348500 0.059000
-0.332700 0.064900
-0.316900 0.070900
-0.301200 0.077000
-0.285400 0.167600
-0.269600 0.212000
-0.253900 0.263900
-0.238100 0.297500
-0.222300 0.327400
-0.206500 0.372900
-0.190800 0.410400
-0.175000 0.459300
-0.159200 0.478000
-0.143400 0.496700
-0.127700 0.514500
-0.111900 0.533600
-0.096100 0.554500
-0.080400 0.576400
-0.064600 0.603500
-0.048800 0.630000
-0.033000 0.659700
-0.017300 0.693400
-0.001500 0.728700
0.014300 0.762800
0.030100 0.788100
0.045800 0.807500
0.061600 0.828000
0.077400 0.851100
0.093100 0.874700
0.108900 0.904400
0.124700 0.931900
0.140500 0.959900
0.156200 0.987900
0.172000 1.014900
0.187800 1.044700
0.203600 1.077800
0.219300 1.113900
0.235100 1.160000
0.250900 1.234000
0.266600 1.299500
0.282400 1.365200
0.298200 1.430100
0.314000 1.498100
0.329700 1.566900
0.345500 1.613400
0.361300 1.633300
0.377100 1.734900
0.392800 1.825700
0.408600 1.787000
0.424400 1.743000
0.440100 1.711800
0.455900 1.694000
0.471700 1.679200
0.487500 1.681200
0.503200 1.677400
0.519000 1.675000
0.534800 1.656800
0.550600 1.643300
0.566300 1.633700
0.582100 1.632300
0.597900 1.639200
0.613700 1.651400
0.629400 1.673900
0.645200 1.702000
0.661000 1.732800
0.676700 1.765400
0.692500 1.799300
0.708300 1.814300
0.724100 1.792700
0.739800 1.767200
0.755600 1.755400
0.771400 1.770500
0.787200 1.774400
0.802900 1.734200
0.818700 1.710700
0.834500 1.684800
0.850200 1.667100
0.866000 1.670600
0.881800 1.674000
0.897600 1.708100
0.913300 1.531000
0.929100 1.325000
0.944900 1.289300
0.960700 1.252000
0.976400 1.219300
0.992200 1.193900
1.008000 1.166500
1.023700 1.139300
1.039500 1.114200
1.055300 1.091700
1.071100 1.071700
1.086800 1.054100
1.102600 1.038600
1.118400 1.023800
1.134200 1.011900
1.149900 1.000800
1.165700 0.990400
1.181500 0.980600
1.197200 0.971400
1.213000 0.963300
1.228800 0.955300
1.244600 0.948300
1.260300 0.942800
1.276100 0.938200
1.291900 0.933100
1.307700 0.927400
1.323400 0.921100
1.339200 0.914200
1.355000 0.905400
1.370700 0.895700
1.386500 0.886700
1.402300 0.878300
1.418100 0.870800
1.433800 0.864100
1.449600 0.857300
1.465400 0.851900
1.481200 0.849700
1.496900 0.849200
1.512700 0.850500
1.528500 0.854500
1.544300 0.860700
1.560000 0.867600
1.575800 0.875000
1.591600 0.883100
1.607300 0.892000
1.623100 0.904200
1.638900 0.919200
1.654700 0.981800
1.670400 1.008300
1.686200 1.010000
1.702000 0.974300
1.717800 0.960400
1.733500 0.954900
1.749300 0.955200
1.765100 0.961400
1.780800 0.966200
1.796600 0.972300
1.812400 0.980700
1.828200 0.991400
1.843900 1.012900
1.859700 1.027600
1.875500 1.041200
1.891300 1.048700
1.907000 1.057200
1.922800 1.068300
1.938600 1.072400
1.954300 1.083300
1.970100 1.083400
1.985900 1.092300
2.001700 1.102800
2.017400 1.110800
2.033200 1.116500
2.049000 1.121900
2.064800 1.130000
2.080500 1.136500
2.096300 1.149300
2.112100 1.173900
2.127800 1.199300
2.143600 1.223900
2.159400 1.257200
2.175200 1.304100
2.190900 1.316000
2.206700 1.322400
2.222500 1.310600
2.238300 1.298000
2.254000 1.286300
2.269800 1.273500
2.285600 1.252500
2.301300 1.224500
2.317100 1.211100
2.332900 1.249300
2.348700 1.223800
2.364400 1.108400
2.380200 1.085600
2.396000 1.064900
2.411800 1.045600
2.427500 1.027900
2.443300 1.012000
2.459100 0.998700
2.474900 0.989600
2.490600 0.984700
2.506400 0.979100
2.522200 0.972500
2.537900 0.968100
2.553700 0.965700
2.569500 0.965300
2.585300 0.966100
2.601000 0.974600
2.616800 1.014400
2.632600 1.054400
2.648400 1.103400
2.664100 1.140300
2.679900 1.176500
2.695700 1.215900
2.711400 1.249800
2.727200 1.272000
2.743000 1.300100
2.758800 1.382700
2.774500 1.457500
2.790300 1.502200
2.806100 1.532900
2.821900 1.539200
2.837600 1.528700
2.853400 1.493400
2.869200 1.449700
2.884900 1.412800
2.900700 1.388900
2.916500 1.367600
2.932300 1.324900
2.948000 1.308100
2.963800 1.287600
2.979600 1.272400
2.995400 1.265900
3.011100 1.259700
3.026900 1.252600
3.042700 1.248200
3.058400 1.239100
3.074200 1.221400
3.090000 1.195900
3.105800 1.173400
3.121500 1.161800
3.137300 1.163300
3.153100 1.171400
3.168900 1.182000
3.184600 1.187500
3.200400 1.192400
3.216200 1.196800
3.231900 1.200400
3.247700 1.204100
3.263500 1.209800
3.279300 1.217900
3.295000 1.230000
3.310800 1.253400
3.326600 1.282300
3.342400 1.288000
3.358100 1.287800
3.373900 1.290500
3.389700 1.296000
3.405500 1.307000
3.421200 1.320000
3.437000 1.332600
3.452800 1.333200
3.468500 1.325700
3.484300 1.326200
3.500100 1.329700
3.515900 1.334200
3.531600 1.342300
3.547400 1.339000
3.563200 1.337100
3.579000 1.336200
3.594700 1.335900
3.610500 1.337000
3.626300 1.339500
3.642000 1.343100
3.657800 1.347700
3.673600 1.348500
3.689400 1.348500
3.705100 1.348100
3.720900 1.348000
3.736700 1.350600
3.752500 1.356100
3.768200 1.362100
3.784000 1.368300
3.799800 1.378600
3.815500 1.395100
3.831300 1.410800
3.847100 1.414300
3.862900 1.442200
3.878600 1.461100
3.894400 1.450700
3.910200 1.455300
3.926000 1.467700
3.941700 1.480800
3.957500 1.494700
3.973300 1.508700
3.989000 1.521500
4.004800 1.538000
4.020600 1.547500
4.036400 1.550300
4.052100 1.545600
4.067900 1.537700
4.083700 1.527500
4.099500 1.513500
4.115200 1.495200
4.131000 1.473800
4.146800 1.449100
4.162500 1.425700
4.178300 1.404400
4.194100 1.389400
4.209900 1.382000
4.225600 1.379600
4.241400 1.380600
4.257200 1.382400
4.273000 1.385700
4.288700 1.390900
4.304500 1.400200
4.320300 1.422100
4.336100 1.435400
4.351800 1.453100
4.367600 1.476300
4.383400 1.539900
4.399100 1.555100
4.414900 1.550500
4.430700 1.552900
4.446500 1.561000
4.462200 1.569100
4.478000 1.575600
4.493800 1.580000
4.509600 1.582300
4.525300 1.583400
4.541100 1.589500
4.556900 1.601400
4.572600 1.606400
4.588400 1.618900
4.604200 1.630900
4.620000 1.644300
4.635700 1.661400
4.651500 1.690600
4.667300 1.723400
4.683100 1.748100
4.698800 1.771300
4.714600 1.796800
4.730400 1.822400
4.746100 1.846100
4.761900 1.867100
4.777700 1.883800
4.793500 1.907100
4.809200 1.933200
4.825000 1.942700
4.840800 1.946600
4.856600 1.953700
4.872300 1.968800
4.888100 1.993900
4.903900 2.018200
4.919600 2.034100
4.935400 2.070000
4.951200 2.058400
4.967000 2.068600
4.982700 2.075800
4.998500 2.080200
5.014300 2.075200
5.030100 2.066200
5.045800 2.058100
5.061600 2.059700
5.077400 2.067700
5.093100 2.080600
5.108900 2.097500
5.124700 2.119400
5.140500 2.135700
5.156200 2.125500
5.172000 2.132500
5.187800 2.140800
5.203600 2.142300
5.219300 2.135300
5.235100 2.124400
5.250900 2.118400
5.266700 2.124400
5.282400 2.126600
5.298200 2.125900
5.314000 2.122600
5.329700 2.119000
5.345500 2.115200
5.361300 2.111100
5.377100 2.112600
5.392800 2.122600
5.408600 2.143900
5.424400 2.167300
5.440200 2.189600
5.455900 2.191200
5.471700 2.168000
5.487500 2.148000
5.503200 2.140200
5.519000 2.129300
5.534800 2.116000
5.550600 2.104100
5.566300 2.093400
5.582100 2.080700
5.597900 2.064500
5.613700 2.045000
5.629400 2.032900
5.645200 2.047800
5.661000 2.072900
5.676700 2.057600
5.692500 2.057400
5.708300 2.073100
5.724100 2.095900
5.739800 2.125600
5.755600 2.159200
5.771400 2.197200
5.787200 2.240300
5.802900 2.289300
5.818700 2.340200
5.834500 2.389900
5.850200 2.492500
5.866000 2.431200
5.881800 2.431500
5.897600 2.446100
5.913300 2.456700
5.929100 2.461500
5.944900 2.461800
5.960700 2.476300
5.976400 2.498700
5.992200 2.468900
6.008000 2.429300
6.023700 2.417700
6.039500 2.413700
6.055300 2.418500
6.071100 2.426500
6.086800 2.439300
6.102600 2.463800
6.118400 2.493400
6.134200 2.526500
6.149900 2.563200
6.165700 2.604600
6.181500 2.649000
6.197300 2.694300
6.213000 2.778300
6.228800 2.917200
6.244600 3.046300
6.260300 3.177600
6.276100 3.251900
6.291900 3.312000
6.307700 3.384700
6.323400 3.451900
6.339200 3.576700
6.355000 3.250200
6.370800 3.003400
6.386500 2.873000
6.402300 2.842100
6.418100 2.521700
6.433800 2.453400
6.449600 2.390400
6.465400 2.340300
6.481200 2.308200
6.496900 2.254700
6.512700 2.205300
6.528500 2.172300
6.544300 2.151400
6.560000 2.140600
6.575800 2.131500
6.591600 2.121700
6.607300 2.128700
6.623100 2.090100
6.638900 2.039000
6.654700 2.003300
6.670400 1.970000
6.686200 1.940000
6.702000 1.911400
6.717800 1.894600
6.733500 1.890000
6.749300 1.866700
6.765100 1.841500
6.780800 1.811300
6.796600 1.770600
6.812400 1.731700
6.828200 1.697600
6.843900 1.667200
6.859700 1.640800
6.875500 1.609600
6.891300 1.580200
6.907000 1.553100
6.922800 1.531800
6.938600 1.508300
6.954300 1.481600
6.970100 1.451800
6.985900 1.410400
7.001700 1.369500
7.017400 1.341300
7.033200 1.314800
7.049000 1.289800
7.064800 1.265600
7.080500 1.241100
7.096300 1.215600
7.112100 1.189400
7.127900 1.162300
7.143600 1.135200
7.159400 1.109200
7.175200 1.101900
7.190900 1.093500
7.206700 1.061900
7.222500 1.035600
7.238300 1.017200
7.254000 0.999600
7.269800 0.982700
7.285600 0.966100
7.301400 0.949700
7.317100 0.933200
7.332900 0.919600
7.348700 0.915900
7.364400 0.904600
7.380200 0.888000
7.396000 0.862300
7.411800 0.847500
7.427500 0.830800
7.443300 0.815100
7.459100 0.799200
7.474900 0.783600
7.490600 0.768300
7.506400 0.753900
7.522200 0.739200
7.537900 0.724300
7.553700 0.707000
7.569500 0.691200
7.585300 0.678300
7.601000 0.666300
7.616800 0.652700
7.632600 0.637400
7.648400 0.621000
7.664100 0.605100
7.679900 0.590200
7.695700 0.577900
7.711400 0.565000
7.727200 0.552900
7.743000 0.538100
7.758800 0.524000
7.774500 0.506500
7.790300 0.487700
7.806100 0.467700
7.821900 0.447800
7.837600 0.428000
7.853400 0.412000
7.869200 0.405000
7.884900 0.395800
7.900700 0.371200
7.916500 0.347000
7.932300 0.320400
7.948000 0.294600
7.963800 0.265900
7.979600 0.239500
7.995400 0.228800
8.011100 0.208300
8.026900 0.168100
8.042700 0.131200
8.058500 0.122100
8.074200 0.079100
8.090000 0.003300
8.105800 0.000000
8.121500 0.000000
8.137300 0.000000
8.153100 0.000000
8.168900 0.000000
8.184600 0.000000
8.200400 0.000000
8.216200 0.000000
8.232000 0.000000
8.247700 0.000000
8.263500 0.000000
8.279300 0.000000
8.295000 0.000000
8.310800 0.000000
8.326600 0.000000
8.342400 0.000000
8.358100 0.000000
8.373900 0.000000
8.389700 0.000000
8.405500 0.000000
8.421200 0.000000
8.437000 0.000000
8.452800 0.000000
8.468500 0.000000
8.484300 0.000000
8.500100 0.000000
8.515900 0.000000
8.531600 0.000000
8.547400 0.000000
8.563200 0.000000
8.579000 0.000000
8.594700 0.000000
8.610500 0.000000
8.626300 0.000000
8.642000 0.000000
8.657800 0.000000
8.673600 0.000000
8.689400 0.000000
8.705100 0.000000
8.720900 0.000000
8.736700 0.000000
8.752500 0.000000
8.768200 0.000000
8.784000 0.000000
8.799800 0.000000
8.815500 0.000000
8.831300 0.000000
8.847100 0.000000
8.862900 0.000000
8.878600 0.000000
8.894400 0.000000
8.910200 0.000000
8.926000 0.000000
8.941700 0.000000
8.957500 0.000000
8.973300 0.000000
8.989100 0.000000
9.004800 0.000000
9.020600 0.000000
9.036400 0.000000
9.052100 0.000000
9.067900 0.000000
9.083700 0.000000
9.099500 0.000000
9.115200 0.000000
9.131000 0.000000
9.146800 0.000000
9.162600 0.000000
9.178300 0.000000
9.194100 0.000000
9.209900 0.000000
9.225600 0.000000
9.241400 0.000000
9.257200 0.000000
9.273000 0.000000
9.288700 0.000000
9.304500 0.000000
9.320300 0.000000
9.336100 0.000000
9.351800 0.000000
9.367600 0.000000
9.383400 0.000000
9.399100 0.000000
9.414900 0.000000
9.430700 0.000000
9.446500 0.000000
9.462200 0.000000
9.478000 0.000000
9.493800 0.000000
9.509600 0.000000
9.525300 0.000000
9.541100 0.000000
9.556900 0.000000
9.572600 0.000000
9.588400 0.000000
9.604200 0.000000
9.620000 0.000000
9.635700 0.000000
9.651500 0.000000
9.667300 0.000000
9.683100 0.000000
9.698800 0.000000
9.714600 0.000000
9.730400 0.000000
9.746100 0.000000
9.761900 0.000000
9.777700 0.000000
9.793500 0.000000
9.809200 0.000000
9.825000 0.000000
9.840800 0.000000
9.856600 0.000000
9.872300 0.000000
9.888100 0.000000
9.903900 0.000000
9.919700 0.000000
9.935400 0.000000
9.951200 0.000000
9.967000 0.000000
9.982700 0.000000
9.998500 0.000000
10.014300 0.000000
10.030100 0.000000
10.045800 0.000000
10.061600 0.000000
10.077400 0.000000
10.093200 0.000000
10.108900 0.000000
10.124700 0.000000
10.140500 0.000000
10.156200 0.000000
10.172000 0.000000
10.187800 0.000000
10.203600 0.000000
10.219300 0.000000
10.235100 0.000000
10.250900 0.000000
10.266700 0.000000
10.282400 0.000000
10.298200 0.000000
10.314000 0.000000
10.329700 0.000000
10.345500 0.000000
10.361300 0.000000
10.377100 0.000000
10.392800 0.000000
10.408600 0.000400
10.424400 0.002000
10.440200 0.005000
10.455900 0.009400
10.471700 0.015000
10.487500 0.022000
10.503200 0.030300
10.519000 0.035400
10.534800 0.040500
10.550600 0.045700
10.566300 0.050300
10.582100 0.054200
10.597900 0.057200
10.613700 0.059400
10.629400 0.060800
10.645200 0.061400
10.661000 0.063700
10.676700 0.066900
10.692500 0.070200
10.708300 0.073400
10.724100 0.076700
10.739800 0.079700
10.755600 0.082600
10.771400 0.085200
10.787200 0.087700
10.802900 0.089900
10.818700 0.092000
10.834500 0.094000
10.850300 0.096000
10.866000 0.103800
10.881800 0.117200
10.897600 0.132000
10.913300 0.144400
10.929100 0.158100
10.944900 0.173000
10.960700 0.188900
10.976400 0.204500
10.992200 0.219400
11.008000 0.234700
11.023800 0.249900
11.039500 0.265400
11.055300 0.281100
11.071100 0.297600
11.086800 0.343400
11.102600 0.429100
11.118400 0.512500
11.134200 0.581800
11.149900 0.641900
11.165700 0.674100
11.181500 0.704200
11.197300 0.725700
11.213000 0.734000
11.228800 0.737100
11.244600 0.739900
11.260300 0.744700
11.276100 0.751000
11.291900 0.756500
11.307700 0.761300
11.323400 0.765700
11.339200 0.772300
11.355000 0.782600
11.370800 0.797400
11.386500 0.858100
11.402300 0.882800
11.418100 0.895400
11.433800 0.918700
11.449600 0.941600
11.465400 0.965000
11.481200 0.989300
11.496900 1.013900
11.512700 1.033500
11.528500 1.053900
11.544300 1.076800
11.560000 1.101900
11.575800 1.129200
11.591600 1.159200
11.607300 1.192100
11.623100 1.226000
11.638900 1.261400
11.654700 1.296800
11.670400 1.334400
11.686200 1.376000
11.702000 1.417300
11.717800 1.460600
11.733500 1.514400
11.749300 1.559800
11.765100 1.578100
11.780900 1.533700
11.796600 1.376900
11.812400 1.348700
11.828200 1.346200
11.843900 1.359700
11.859700 1.365200
11.875500 1.366100
11.891300 1.361800
11.907000 1.351900
11.922800 1.337300
11.938600 1.350200
11.954400 1.329200
11.970100 1.340500
11.985900 1.347400
12.001700 1.354000
12.017400 1.360100
12.033200 1.366100
12.049000 1.371300
12.064800 1.376700
12.080500 1.382700
12.096300 1.390100
12.112100 1.392100
12.127900 1.392500
12.143600 1.396400
12.159400 1.387800
12.175200 1.375000
12.190900 1.365800
12.206700 1.362100
12.222500 1.357600
12.238300 1.356400
12.254000 1.352200
12.269800 1.345300
12.285600 1.336700
12.301400 1.329200
12.317100 1.322800
12.332900 1.321600
12.348700 1.321400
12.364400 1.323500
12.380200 1.325500
12.396000 1.326300
12.411800 1.317600
12.427500 1.315800
12.443300 1.314000
12.459100 1.312300
12.474900 1.311400
12.490600 1.310700
12.506400 1.309600
12.522200 1.307200
12.537900 1.305100
12.553700 1.303400
12.569500 1.302600
12.585300 1.304100
12.601000 1.307300
12.616800 1.312000
12.632600 1.318100
12.648400 1.325800
12.664100 1.334000
12.679900 1.343100
12.695700 1.352500
12.711500 1.365900
12.727200 1.392800
12.743000 1.422300
12.758800 1.440500
12.774500 1.426400
12.790300 1.415000
12.806100 1.413600
12.821900 1.421800
12.837600 1.433700
12.853400 1.438800
12.869200 1.457300
12.885000 1.503100
12.900700 1.523100
12.916500 1.523000
12.932300 1.528900
12.948000 1.506400
12.963800 1.477800
12.979600 1.470600
12.995400 1.489800
13.011100 1.471300
13.026900 1.463400
13.042700 1.456800
13.058500 1.451400
13.074200 1.437300
13.090000 1.435400
13.105800 1.456900
13.121500 1.539200
13.137300 1.509600
13.153100 1.501600
13.168900 1.493700
13.184600 1.498400
13.200400 1.483600
13.216200 1.471300
13.232000 1.477600
13.247700 1.487700
13.263500 1.477900
13.279300 1.464900
13.295000 1.453000
13.310800 1.444900
13.326600 1.447400
13.342400 1.445800
13.358100 1.445100
13.373900 1.448900
13.389700 1.452200
13.405500 1.444800
13.421200 1.457000
13.437000 1.470300
13.452800 1.454200
13.468500 1.415200
13.484300 1.379300
13.500100 1.346900
13.515900 1.311400
13.531600 1.280900
13.547400 1.259900
13.563200 1.248600
13.579000 1.239900
13.594700 1.233200
13.610500 1.229800
13.626300 1.261600
13.642100 1.233200
13.657800 1.224000
13.673600 1.223400
13.689400 1.254200
13.705100 1.252800
13.720900 1.224200
13.736700 1.211600
13.752500 1.210300
13.768200 1.211800
13.784000 1.214400
13.799800 1.222700
13.815600 1.238100
13.831300 1.257300
13.847100 1.284700
13.862900 1.322400
13.878600 1.319200
13.894400 1.314800
13.910200 1.322700
13.926000 1.330400
13.941700 1.339600
13.957500 1.350400
13.973300 1.363400
13.989100 1.379700
14.004800 1.403800
14.020600 1.428200
14.036400 1.453900
14.052100 1.515400
14.067900 1.571300
14.083700 1.551400
14.099500 1.611100
14.115200 1.677200
14.131000 1.756500
14.146800 1.774800
14.162600 1.821400
14.178300 1.830400
14.194100 1.782800
14.209900 1.765300
14.225600 1.759200
14.241400 1.763300
14.257200 1.776500
14.273000 1.804800
14.288700 1.842100
14.304500 1.791300
14.320300 1.758900
14.336100 1.756300
14.351800 1.750900
14.367600 1.742100
14.383400 1.727500
14.399100 1.705100
14.414900 1.688600
14.430700 1.684200
14.446500 1.704700
14.462200 1.718500
14.478000 1.726700
14.493800 1.706400
14.509600 1.720800
14.525300 1.746600
14.541100 1.761400
14.556900 1.742400
14.572700 1.737700
14.588400 1.706200
14.604200 1.685100
14.620000 1.696500
14.635700 1.738600
14.651500 1.765900
14.667300 1.783000
14.683100 1.811700
14.698800 1.812300
14.714600 1.836100
14.730400 1.867000
14.746200 1.966300
14.761900 1.986000
14.777700 2.017800
14.793500 2.052400
14.809200 2.089700
14.825000 2.137700
14.840800 2.222300
14.856600 2.297300
14.872300 2.491900
14.888100 2.681500
14.903900 2.831300
14.919700 2.934600
14.935400 3.136900
14.951200 3.205300
14.967000 3.222500
14.982700 3.264600
14.998500 3.247600
15.014300 3.143700
15.030100 3.107200
15.045800 2.723700
15.061600 2.595400
15.077400 2.531400
15.093200 2.477700
15.108900 2.427600
15.124700 2.383000
15.140500 2.326500
15.156200 2.286200
15.172000 2.221800
15.187800 2.143400
15.203600 2.086500
15.219300 2.032500
15.235100 1.989400
15.250900 1.961800
15.266700 1.942900
15.282400 1.946400
15.298200 1.964100
15.314000 1.915700
15.329700 1.898200
15.345500 1.959300
15.361300 2.060600
15.377100 2.193800
15.392800 2.481400
15.408600 2.515800
15.424400 2.510100
15.440200 2.546300
15.455900 2.634600
15.471700 2.568400
15.487500 2.522500
15.503300 2.467700
15.519000 2.391900
15.534800 2.363500
15.550600 2.350700
15.566300 2.339800
15.582100 2.337600
15.597900 2.344700
15.613700 2.357000
15.629400 2.378800
15.645200 2.392700
15.661000 2.403000
15.676800 2.402400
15.692500 2.385600
15.708300 2.366600
15.724100 2.342500
15.739800 2.328600
15.755600 2.305200
15.771400 2.289800
15.787200 2.330200
15.802900 2.359600
15.818700 2.424900
15.834500 2.429900
15.850300 2.413300
15.866000 2.395400
15.881800 2.283100
15.897600 2.169800
15.913300 2.061000
15.929100 1.997600
15.944900 1.932400
15.960700 1.874100
15.976400 1.862400
15.992200 1.844800
16.008000 1.817100
16.023800 1.788700
16.039500 1.757200
16.055300 1.730000
16.071100 1.708700
16.086800 1.716200
16.102600 1.672800
16.118400 1.664100
16.134200 1.659600
16.149900 1.645800
16.165700 1.613800
16.181500 1.577500
16.197300 1.552100
16.213000 1.537200
16.228800 1.527000
16.244600 1.521200
16.260300 1.523300
16.276100 1.537300
16.291900 1.559000
16.307700 1.583800
16.323400 1.607200
16.339200 1.637900
16.355000 1.684600
16.370800 1.740600
16.386500 1.825400
16.402300 1.878100
16.418100 1.920200
16.433900 1.976100
16.449600 2.037300
16.465400 2.074400
16.481200 2.125800
16.496900 2.174300
16.512700 2.221500
16.528500 2.266700
16.544300 2.309500
16.560000 2.364000
16.575800 2.447000
16.591600 2.461300
16.607400 2.527300
16.623100 2.508300
16.638900 2.404900
16.654700 2.409600
16.670400 2.417200
16.686200 2.381600
16.702000 2.332700
16.717800 2.334800
16.733500 2.288800
16.749300 2.258700
16.765100 2.227300
16.780900 2.188500
16.796600 2.140900
16.812400 2.062600
16.828200 2.036100
16.843900 2.052300
16.859700 2.083800
16.875500 2.095000
16.891300 2.083800
16.907000 2.030700
16.922800 1.963700
16.938600 1.897600
16.954400 1.849500
16.970100 1.826500
16.985900 1.805700
17.001700 1.789400
17.017400 1.779500
17.033200 1.773600
17.049000 1.769900
17.064800 1.771500
17.080500 1.769100
17.096300 1.769300
17.112100 1.763300
17.127900 1.758900
17.143600 1.766600
17.159400 1.781300
17.175200 1.790700
17.190900 1.791200
17.206700 1.781500
17.222500 1.763900
17.238300 1.743700
17.254000 1.784400
17.269800 1.741800
17.285600 1.676000
17.301400 1.647900
17.317100 1.628200
17.332900 1.615300
17.348700 1.603600
17.364500 1.594000
17.380200 1.586800
17.396000 1.582100
17.411800 1.580100
17.427500 1.582200
17.443300 1.594900
17.459100 1.631300
17.474900 1.709000
17.490600 1.800000
17.506400 1.879800
17.522200 1.931800
17.538000 1.966400
17.553700 1.944800
17.569500 1.874600
17.585300 1.814900
17.601000 1.765600
17.616800 1.728000
17.632600 1.701800
17.648400 1.707000
17.664100 1.688200
17.679900 1.699000
17.695700 1.705200
17.711500 1.717300
17.727200 1.725000
17.743000 1.728800
17.758800 1.739400
17.774500 1.751500
17.790300 1.766400
17.806100 1.787700
17.821900 1.814900
17.837600 1.847500
17.853400 1.882200
17.869200 1.926800
17.885000 2.105700
17.900700 2.112900
17.916500 2.131800
17.932300 2.180100
17.948000 2.326300
17.963800 2.394800
17.979600 2.426500
17.995400 2.448400
18.011100 2.460100
18.026900 2.483800
18.042700 2.587500
18.058500 2.776700
18.074200 2.730300
18.090000 2.797700
18.105800 2.911600
18.121500 2.886900
18.137300 2.661000
18.153100 2.349900
18.168900 2.222200
18.184600 2.168300
18.200400 2.143800
18.216200 2.113000
18.232000 2.074500
18.247700 2.032800
18.263500 1.969800
18.279300 1.951500
18.295100 1.929800
18.310800 1.896000
18.326600 1.877600
18.342400 1.893800
18.358100 1.897800
18.373900 1.925400
18.389700 1.955300
18.405500 2.015500
18.421200 2.100600
18.437000 2.184600
18.452800 2.228200
18.468600 2.114700
18.484300 2.097400
18.500100 2.086600
18.515900 2.071700
18.531600 2.051800
18.547400 2.013700
18.563200 1.920300
18.579000 1.872000
18.594700 1.842800
18.610500 1.807800
18.626300 1.774200
18.642100 1.747100
18.657800 1.727500
18.673600 1.715900
18.689400 1.720100
18.705100 1.733700
18.720900 1.733700
18.736700 1.742400
18.752500 1.750400
18.768200 1.709400
18.784000 1.712900
18.799800 1.708200
18.815600 1.697200
18.831300 1.688600
18.847100 1.675500
18.862900 1.672200
18.878600 1.671500
18.894400 1.667900
18.910200 1.665100
18.926000 1.666100
18.941700 1.668000
18.957500 1.672100
18.973300 1.680500
18.989100 1.692400
19.004800 1.703900
19.020600 1.694200
19.036400 1.690800
19.052100 1.690300
19.067900 1.693700
19.083700 1.695900
19.099500 1.696200
19.115200 1.697400
19.131000 1.691900
19.146800 1.706700
19.162600 1.670900
19.178300 1.716000
19.194100 1.763100
19.209900 1.750400
19.225700 1.747100
19.241400 1.747400
19.257200 1.751700
19.273000 1.756800
19.288700 1.760100
19.304500 1.767300
19.320300 1.776300
19.336100 1.804500
19.351800 1.860800
19.367600 1.925900
19.383400 1.962800
19.399200 1.941700
19.414900 1.893500
19.430700 1.843600
19.446500 1.792500
19.462200 1.779200
19.478000 1.732800
19.493800 1.706900
19.509600 1.695700
19.525300 1.709200
19.541100 1.698200
19.556900 1.676900
19.572700 1.649000
19.588400 1.614400
19.604200 1.578000
19.620000 1.515600
19.635700 1.523500
19.651500 1.559500
19.667300 1.526200
19.683100 1.495600
19.698800 1.477300
19.714600 1.463000
19.730400 1.449800
19.746200 1.431800
19.761900 1.412400
19.777700 1.392400
19.793500 1.371900
19.809200 1.351300
19.825000 1.332100
19.840800 1.318800
19.856600 1.378600
19.872300 1.370300
19.888100 1.354200
19.903900 1.299000
19.919700 1.241200
19.935400 1.169400
19.951200 1.124400
19.967000 1.103800
19.982700 1.082600
19.998500 1.059900
20.014300 1.035600
20.030100 1.009900
20.045800 0.984000
20.061600 0.961000
20.077400 0.939600
20.093200 0.917900
20.108900 0.894800
20.124700 0.870100
20.140500 0.843000
20.156300 0.831200
20.172000 0.824600
20.187800 0.812000
20.203600 0.798100
20.219300 0.786100
20.235100 0.774600
20.250900 0.762800
20.266700 0.750700
20.282400 0.738200
20.298200 0.724800
20.314000 0.707700
20.329800 0.691000
20.345500 0.675500
20.361300 0.662000
20.377100 0.650600
20.392800 0.642600
20.408600 0.635300
20.424400 0.627500
20.440200 0.619700
20.455900 0.612800
20.471700 0.605200
20.487500 0.597000
20.503300 0.594400
20.519000 0.583600
20.534800 0.573500
20.550600 0.568700
20.566300 0.559900
20.582100 0.550900
20.597900 0.539300
20.613700 0.525800
20.629400 0.514100
20.645200 0.502400
20.661000 0.491200
20.676800 0.479600
20.692500 0.467200
20.708300 0.454100
20.724100 0.440100
20.739800 0.420400
20.755600 0.383400
20.771400 0.364900
20.787200 0.347000
20.802900 0.327300
20.818700 0.312000
20.834500 0.298100
20.850300 0.284000
20.866000 0.269600
20.881800 0.255100
20.897600 0.240600
20.913300 0.226700
20.929100 0.213300
20.944900 0.200600
20.960700 0.188400
20.976400 0.191200
20.992200 0.175700
21.008000 0.157100
21.023800 0.139800
21.039500 0.117600
21.055300 0.091500
21.071100 0.084900
21.086900 0.078300
21.102600 0.071600
21.118400 0.065000
21.134200 0.058700
21.149900 0.052800
21.165700 0.047100
21.181500 0.041800
21.197300 0.036800
21.213000 0.032100
21.228800 0.027700
21.244600 0.023700
21.260400 0.020000
21.276100 0.016600
21.291900 0.013500
21.307700 0.010800
21.323400 0.002800
21.339200 0.000000
21.355000 0.000000
21.370800 0.000000
21.386500 0.000000
21.402300 0.000000
21.418100 0.000000
21.433900 0.000000
21.449600 0.000000
21.465400 0.000000
21.481200 0.000000
21.496900 0.000000
21.512700 0.000000
21.528500 0.000000
21.544300 0.000000
21.560000 0.000000
21.575800 0.000000
21.591600 0.000000
21.607400 0.000000
21.623100 0.000000
21.638900 0.000000
21.654700 0.000000
21.670400 0.000000
21.686200 0.000000
21.702000 0.000000
21.717800 0.000000
21.733500 0.000000
21.749300 0.000000
21.765100 0.000000
21.780900 0.000000
21.796600 0.000000
21.812400 0.000000
21.828200 0.000000
21.843900 0.000000
21.859700 0.000000
21.875500 0.000000
21.891300 0.000000
21.907000 0.000000
21.922800 0.000000
21.938600 0.000000
21.954400 0.000000
21.970100 0.000000
21.985900 0.000000
22.001700 0.000000
22.017500 0.000000
22.033200 0.000000
22.049000 0.000000
22.064800 0.000000
22.080500 0.000000
22.096300 0.000000
22.112100 0.000000
22.127900 0.000000
22.143600 0.000000
22.159400 0.000000
22.175200 0.000000
22.191000 0.000000
22.206700 0.000000
22.222500 0.000000
22.238300 0.000000
22.254000 0.000000
22.269800 0.000000
22.285600 0.000000
22.301400 0.000000
22.317100 0.000000
22.332900 0.000000
22.348700 0.000000
22.364500 0.000000
22.380200 0.000000
22.396000 0.000000
22.411800 0.000000
22.427500 0.000000
22.443300 0.000000
22.459100 0.000000
22.474900 0.000000
22.490600 0.000000
22.506400 0.000000
22.522200 0.000000
22.538000 0.000000
22.553700 0.000000
22.569500 0.000000
22.585300 0.000000
22.601000 0.000000
22.616800 0.000000
22.632600 0.000000
22.648400 0.000000
22.664100 0.000000
22.679900 0.000000
22.695700 0.000000
22.711500 0.000000
22.727200 0.000000
22.743000 0.000000
22.758800 0.000000
e
