set title 'mp-1217756 - Density of States'
set xlabel 'Energy (eV)'
set ylabel 'DOS (states/eV)'
set grid
set xrange [-10:10]
set yrange [0:2.322]
set xzeroaxis lt -1
set terminal png size 800,600
set output 'mp-1217756_dos_gnuplot.png'
plot '-' using 1:2 with lines title 'DOS'
-36.100100 0.000000
-36.033700 0.000000
-35.967300 0.000000
-35.900900 0.000000
-35.834500 0.000000
-35.768000 0.000000
-35.701600 0.000000
-35.635200 0.000000
-35.568800 0.000000
-35.502400 0.000000
-35.435900 0.000000
-35.369500 0.000000
-35.303100 0.000000
-35.236700 0.000000
-35.170300 0.000000
-35.103800 0.000000
-35.037400 0.000000
-34.971000 0.000000
-34.904600 0.000000
-34.838200 0.000000
-34.771700 0.000000
-34.705300 0.000000
-34.638900 0.000000
-34.572500 0.000000
-34.506100 0.000000
-34.439600 0.000000
-34.373200 0.000000
-34.306800 0.000000
-34.240400 0.000000
-34.174000 0.000000
-34.107500 0.000000
-34.041100 0.000000
-33.974700 0.000000
-33.908300 0.000000
-33.841900 0.000000
-33.775400 0.000000
-33.709000 0.000000
-33.642600 0.000000
-33.576200 0.000000
-33.509800 0.000000
-33.443300 0.000000
-33.376900 0.000000
-33.310500 0.000000
-33.244100 0.000000
-33.177700 0.000000
-33.111200 0.000000
-33.044800 0.000000
-32.978400 0.000000
-32.912000 0.000000
-32.845600 0.000000
-32.779100 0.000000
-32.712700 0.000000
-32.646300 0.000000
-32.579900 0.000000
-32.513500 0.000000
-32.447000 0.000000
-32.380600 0.000000
-32.314200 0.000000
-32.247800 0.000000
-32.181400 0.000000
-32.114900 0.000000
-32.048500 0.000000
-31.982100 0.000000
-31.915700 0.000000
-31.849300 0.000000
-31.782800 0.000000
-31.716400 0.000000
-31.650000 0.000000
-31.583600 0.000000
-31.517200 0.000000
-31.450700 0.000000
-31.384300 0.000000
-31.317900 0.000000
-31.251500 0.000000
-31.185100 0.000000
-31.118600 0.000000
-31.052200 0.000000
-30.985800 0.000000
-30.919400 0.000000
-30.853000 0.000000
-30.786500 0.000000
-30.720100 0.000000
-30.653700 0.000000
-30.587300 0.000000
-30.520900 0.000000
-30.454400 0.000000
-30.388000 0.000000
-30.321600 0.000000
-30.255200 0.000000
-30.188800 0.000000
-30.122300 0.000000
-30.055900 0.887500
-29.989500 2.677300
-29.923100 5.103800
-29.856700 6.837200
-29.790200 6.671600
-29.723800 5.279800
-29.657400 4.136400
-29.591000 4.045000
-29.524600 3.870000
-29.458100 3.507300
-29.391700 3.433300
-29.325300 3.383000
-29.258900 3.272400
-29.192500 3.682200
-29.126000 4.402100
-29.059600 4.156900
-28.993200 4.761200
-28.926800 5.948400
-28.860400 7.478400
-28.793900 4.797600
-28.727500 1.344200
-28.661100 0.000000
-28.594700 0.000000
-28.528300 0.000000
-28.461800 0.000000
-28.395400 0.000000
-28.329000 0.000000
-28.262600 0.000000
-28.196200 0.000000
-28.129700 0.000000
-28.063300 0.000000
-27.996900 0.000000
-27.930500 0.000000
-27.864100 0.000000
-27.797600 0.000000
-27.731200 0.000000
-27.664800 0.000000
-27.598400 0.000000
-27.532000 0.000000
-27.465500 0.000000
-27.399100 0.000000
-27.332700 0.000000
-27.266300 0.000000
-27.199900 0.000000
-27.133400 0.000000
-27.067000 0.000000
-27.000600 0.000000
-26.934200 0.000000
-26.867800 0.000000
-26.801300 0.000000
-26.734900 0.000000
-26.668500 0.000000
-26.602100 0.000000
-26.535700 0.000000
-26.469200 0.000000
-26.402800 0.000000
-26.336400 0.000000
-26.270000 0.000000
-26.203600 0.000000
-26.137100 0.000000
-26.070700 0.000000
-26.004300 0.000000
-25.937900 0.000000
-25.871500 0.000000
-25.805000 0.000000
-25.738600 0.000000
-25.672200 0.000000
-25.605800 0.000000
-25.539400 0.000000
-25.472900 0.000000
-25.406500 0.000000
-25.340100 0.000000
-25.273700 0.000000
-25.207300 0.000000
-25.140800 0.000000
-25.074400 0.000000
-25.008000 0.000000
-24.941600 0.000000
-24.875200 0.000000
-24.808700 0.000000
-24.742300 0.000000
-24.675900 0.000000
-24.609500 0.000000
-24.543100 0.000000
-24.476600 0.000000
-24.410200 0.000000
-24.343800 0.000000
-24.277400 0.000000
-24.211000 0.000000
-24.144500 0.000000
-24.078100 0.000000
-24.011700 0.000000
-23.945300 0.000000
-23.878900 0.000000
-23.812400 0.000000
-23.746000 0.000000
-23.679600 0.000000
-23.613200 0.000000
-23.546800 0.000000
-23.480400 0.000000
-23.413900 0.000000
-23.347500 0.000000
-23.281100 0.000000
-23.214700 0.000000
-23.148300 0.000000
-23.081800 0.000000
-23.015400 0.000000
-22.949000 0.000000
-22.882600 0.000000
-22.816200 0.000000
-22.749700 0.000000
-22.683300 0.000000
-22.616900 0.000000
-22.550500 0.000000
-22.484100 0.000000
-22.417600 0.000000
-22.351200 0.000000
-22.284800 0.000000
-22.218400 0.000000
-22.152000 0.000000
-22.085500 0.000000
-22.019100 0.000000
-21.952700 0.000000
-21.886300 0.000000
-21.819900 0.000000
-21.753400 0.000000
-21.687000 0.000000
-21.620600 0.000000
-21.554200 0.000000
-21.487800 0.000000
-21.421300 0.000000
-21.354900 0.000000
-21.288500 0.000000
-21.222100 0.000000
-21.155700 0.000000
-21.089200 0.000000
-21.022800 0.000000
-20.956400 0.000000
-20.890000 0.000000
-20.823600 0.000000
-20.757100 0.000000
-20.690700 0.000000
-20.624300 0.000000
-20.557900 0.000000
-20.491500 0.000000
-20.425000 0.000000
-20.358600 0.000000
-20.292200 0.000000
-20.225800 0.000000
-20.159400 0.000000
-20.092900 0.000000
-20.026500 0.000000
-19.960100 0.000000
-19.893700 0.000000
-19.827300 0.000000
-19.760800 0.000000
-19.694400 0.000000
-19.628000 0.000000
-19.561600 0.000000
-19.495200 0.000000
-19.428700 0.000000
-19.362300 0.000000
-19.295900 0.000000
-19.229500 0.000000
-19.163100 0.000000
-19.096600 0.000000
-19.030200 0.000000
-18.963800 0.000000
-18.897400 0.000000
-18.831000 0.000000
-18.764500 0.000000
-18.698100 0.000000
-18.631700 0.000000
-18.565300 0.000000
-18.498900 0.000000
-18.432400 0.000000
-18.366000 0.000000
-18.299600 0.000000
-18.233200 0.000000
-18.166800 0.000000
-18.100300 0.000000
-18.033900 0.000000
-17.967500 0.000000
-17.901100 0.000000
-17.834700 0.000000
-17.768200 0.000000
-17.701800 0.000000
-17.635400 0.000000
-17.569000 0.000000
-17.502600 0.000000
-17.436100 0.000000
-17.369700 0.000000
-17.303300 0.000000
-17.236900 0.000000
-17.170500 0.000000
-17.104000 0.000000
-17.037600 0.000000
-16.971200 0.000000
-16.904800 0.000000
-16.838400 0.000000
-16.771900 0.000000
-16.705500 0.000000
-16.639100 0.000000
-16.572700 0.000000
-16.506300 0.000000
-16.439800 0.000000
-16.373400 0.000000
-16.307000 0.000000
-16.240600 0.000000
-16.174200 0.000000
-16.107700 0.000000
-16.041300 0.000000
-15.974900 0.000000
-15.908500 0.000000
-15.842100 0.000000
-15.775600 0.000000
-15.709200 0.000000
-15.642800 0.000000
-15.576400 0.000000
-15.510000 0.000000
-15.443500 0.000000
-15.377100 0.000000
-15.310700 0.000000
-15.244300 0.000000
-15.177900 0.000000
-15.111400 0.000000
-15.045000 0.000000
-14.978600 0.000000
-14.912200 0.000000
-14.845800 0.000000
-14.779300 0.000000
-14.712900 0.000000
-14.646500 0.000000
-14.580100 0.000000
-14.513700 0.000000
-14.447200 0.000000
-14.380800 0.000000
-14.314400 0.000000
-14.248000 0.000000
-14.181600 0.000000
-14.115100 0.000000
-14.048700 0.000000
-13.982300 0.000000
-13.915900 0.000000
-13.849500 0.000000
-13.783000 0.000000
-13.716600 0.000000
-13.650200 0.000000
-13.583800 0.000000
-13.517400 0.000000
-13.450900 0.000000
-13.384500 0.000000
-13.318100 0.000000
-13.251700 0.000000
-13.185300 0.000000
-13.118800 0.000000
-13.052400 0.000000
-12.986000 0.000000
-12.919600 0.000000
-12.853200 0.000000
-12.786700 0.000000
-12.720300 0.000000
-12.653900 0.000000
-12.587500 0.000000
-12.521100 0.000000
-12.454600 0.000000
-12.388200 0.000000
-12.321800 0.000000
-12.255400 0.000000
-12.189000 0.000000
-12.122500 0.000000
-12.056100 0.000000
-11.989700 0.000000
-11.923300 0.000000
-11.856900 0.000000
-11.790400 0.000000
-11.724000 0.000000
-11.657600 0.000000
-11.591200 0.000000
-11.524800 0.000000
-11.458300 0.000000
-11.391900 0.000000
-11.325500 0.000000
-11.259100 0.000000
-11.192700 0.000000
-11.126200 0.000000
-11.059800 0.000000
-10.993400 0.000000
-10.927000 0.000000
-10.860600 0.000000
-10.794200 0.000000
-10.727700 0.000000
-10.661300 0.000000
-10.594900 0.000000
-10.528500 0.000000
-10.462100 0.000000
-10.395600 0.000000
-10.329200 0.000000
-10.262800 0.000000
-10.196400 0.000000
-10.130000 0.000000
-10.063500 0.000000
-9.997100 0.000000
-9.930700 0.000000
-9.864300 0.000000
-9.797900 0.000000
-9.731400 0.000000
-9.665000 0.000000
-9.598600 0.000000
-9.532200 0.000000
-9.465800 0.000000
-9.399300 0.000000
-9.332900 0.000000
-9.266500 0.000000
-9.200100 0.000000
-9.133700 0.000000
-9.067200 0.000000
-9.000800 0.000000
-8.934400 0.000000
-8.868000 0.000000
-8.801600 0.000000
-8.735100 0.000000
-8.668700 0.000000
-8.602300 0.000000
-8.535900 0.000000
-8.469500 0.000000
-8.403000 0.000000
-8.336600 0.000000
-8.270200 0.000000
-8.203800 0.000000
-8.137400 0.000000
-8.070900 0.000000
-8.004500 0.000000
-7.938100 0.000000
-7.871700 0.000000
-7.805300 0.000000
-7.738800 0.000000
-7.672400 0.000000
-7.606000 0.000000
-7.539600 0.000000
-7.473200 0.000000
-7.406700 0.000000
-7.340300 0.000000
-7.273900 0.000000
-7.207500 0.000000
-7.141100 0.000000
-7.074600 0.000000
-7.008200 0.000000
-6.941800 0.000000
-6.875400 0.000000
-6.809000 0.000000
-6.742500 0.000000
-6.676100 0.000000
-6.609700 0.000000
-6.543300 0.000000
-6.476900 0.000000
-6.410400 0.000000
-6.344000 0.000000
-6.277600 0.000000
-6.211200 0.000000
-6.144800 0.000000
-6.078300 0.000000
-6.011900 0.000000
-5.945500 0.000000
-5.879100 0.000000
-5.812700 0.000000
-5.746200 0.000000
-5.679800 0.000000
-5.613400 0.000000
-5.547000 0.000000
-5.480600 0.000000
-5.414100 0.000000
-5.347700 0.000000
-5.281300 0.000000
-5.214900 0.000000
-5.148500 0.000000
-5.082000 0.000000
-5.015600 0.000000
-4.949200 0.000000
-4.882800 0.000000
-4.816400 0.000000
-4.749900 0.000000
-4.683500 0.000000
-4.617100 0.000000
-4.550700 0.000000
-4.484300 0.000000
-4.417800 0.000000
-4.351400 0.000000
-4.285000 0.000000
-4.218600 0.000000
-4.152200 0.000000
-4.085700 0.000000
-4.019300 0.000000
-3.952900 0.000000
-3.886500 0.000000
-3.820100 0.000000
-3.753600 0.000000
-3.687200 0.000000
-3.620800 0.000000
-3.554400 0.000000
-3.488000 0.000000
-3.421500 0.000000
-3.355100 0.000000
-3.288700 0.000000
-3.222300 0.000000
-3.155900 0.000000
-3.089400 0.000000
-3.023000 0.000000
-2.956600 0.000000
-2.890200 0.000000
-2.823800 0.000000
-2.757300 0.000000
-2.690900 0.011600
-2.624500 0.020800
-2.558100 0.031900
-2.491700 0.037500
-2.425200 0.042800
-2.358800 0.047400
-2.292400 0.052200
-2.226000 0.058300
-2.159600 0.063000
-2.093100 0.067300
-2.026700 0.071000
-1.960300 0.074700
-1.893900 0.079100
-1.827500 0.083800
-1.761000 0.088700
-1.694600 0.093000
-1.628200 0.097000
-1.561800 0.101000
-1.495400 0.105100
-1.428900 0.109500
-1.362500 0.114000
-1.296100 0.118600
-1.229700 0.123300
-1.163300 0.128100
-1.096800 0.132700
-1.030400 0.137500
-0.964000 0.142400
-0.897600 0.147400
-0.831200 0.152400
-0.764700 0.157500
-0.698300 0.162900
-0.631900 0.168600
-0.565500 0.174600
-0.499100 0.180800
-0.432600 0.187000
-0.366200 0.193300
-0.299800 0.199600
-0.233400 0.205900
-0.167000 0.213300
-0.100500 0.220800
-0.034100 0.229100
0.032300 0.237700
0.098700 0.246700
0.165100 0.256000
0.231600 0.265100
0.298000 0.275700
0.364400 0.286700
0.430800 0.301000
0.497200 0.316900
0.563700 0.333800
0.630100 0.460600
0.696500 0.532800
0.762900 0.606100
0.829300 0.650000
0.895800 0.696600
0.962200 0.740500
1.028600 0.799400
1.095000 0.847100
1.161400 0.932500
1.227900 1.042600
1.294300 1.183900
1.360700 1.169600
1.427100 1.165100
1.493500 1.182100
1.560000 1.153100
1.626400 1.147700
1.692800 1.152900
1.759200 1.201000
1.825600 1.249800
1.892000 1.461800
1.958500 1.708600
2.024900 1.039100
2.091300 0.579700
2.157700 0.432500
2.224100 0.435100
2.290600 0.503000
2.357000 0.582400
2.423400 0.604700
2.489800 0.776700
2.556200 0.981400
2.622700 1.179200
2.689100 1.321700
2.755500 1.447100
2.821900 1.583900
2.888300 1.705900
2.954800 1.908200
3.021200 2.111200
3.087600 1.903100
3.154000 1.823500
3.220400 1.618100
3.286900 1.280900
3.353300 1.196000
3.419700 1.142100
3.486100 1.152000
3.552500 1.203800
3.619000 1.224000
3.685400 1.319700
3.751800 1.428400
3.818200 1.646300
3.884600 1.864100
3.951100 1.822100
4.017500 2.017400
4.083900 1.805200
4.150300 1.507700
4.216700 1.330600
4.283200 1.173400
4.349600 1.075100
4.416000 0.897900
4.482400 0.892600
4.548800 0.865600
4.615300 0.799200
4.681700 0.800200
4.748100 0.710200
4.814500 0.658400
4.880900 0.600400
4.947400 0.563200
5.013800 0.541400
5.080200 0.501700
5.146600 0.487200
5.213000 0.483300
5.279500 0.491700
5.345900 0.545700
5.412300 0.589900
5.478700 0.617500
5.545100 0.666600
5.611600 0.724500
5.678000 0.799100
5.744400 0.932000
5.810800 1.089000
5.877200 1.185800
5.943700 1.147500
6.010100 1.038400
6.076500 1.056600
6.142900 1.072500
6.209300 1.074700
6.275800 1.084400
6.342200 1.173000
6.408600 1.261600
6.475000 1.061500
6.541400 1.042400
6.607900 1.043700
6.674300 1.038400
6.740700 1.271400
6.807100 1.167500
6.873500 1.138600
6.940000 1.096700
7.006400 1.258400
7.072800 1.010500
7.139200 0.913500
7.205600 0.925700
7.272100 1.031000
7.338500 1.034700
7.404900 1.103200
7.471300 1.082300
7.537700 1.175100
7.604200 1.326100
7.670600 1.515500
7.737000 1.618100
7.803400 1.673800
7.869800 1.762500
7.936300 1.790100
8.002700 1.833000
8.069100 1.611400
8.135500 1.607400
8.201900 1.657900
8.268400 1.685500
8.334800 1.732500
8.401200 1.629500
8.467600 1.556600
8.534000 1.373000
8.600500 1.268400
8.666900 1.198500
8.733300 1.145800
8.799700 1.085100
8.866100 1.083000
8.932600 1.076400
8.999000 1.060400
9.065400 1.051100
9.131800 1.114600
9.198200 1.116900
9.264700 1.118600
9.331100 1.080900
9.397500 1.051800
9.463900 1.046300
9.530300 1.003700
9.596800 0.946900
9.663200 0.924200
9.729600 0.881700
9.796000 0.857200
9.862400 0.841400
9.928900 0.824300
9.995300 0.809700
10.061700 0.814600
10.128100 0.766900
10.194500 0.757600
10.261000 0.739700
10.327400 0.717100
10.393800 0.685800
10.460200 0.620800
10.526600 0.574400
10.593100 0.506200
10.659500 0.447700
10.725900 0.398200
10.792300 0.268200
10.858700 0.262000
10.925200 0.257100
10.991600 0.251300
11.058000 0.248800
11.124400 0.243100
11.190800 0.237300
11.257300 0.231800
11.323700 0.225400
11.390100 0.217400
11.456500 0.214400
11.522900 0.206900
11.589400 0.199800
11.655800 0.193200
11.722200 0.187100
11.788600 0.181600
11.855000 0.176600
11.921500 0.171700
11.987900 0.168700
12.054300 0.163700
12.120700 0.158800
12.187100 0.151900
12.253600 0.148000
12.320000 0.144500
12.386400 0.145000
12.452800 0.140700
12.519200 0.151700
12.585700 0.148500
12.652100 0.139100
12.718500 0.109400
12.784900 0.356100
12.851300 0.144300
12.917800 0.140200
12.984200 0.136300
13.050600 0.178100
13.117000 0.177100
13.183400 0.185200
13.249900 0.201000
13.316300 0.210600
13.382700 0.225100
13.449100 0.216000
13.515500 0.212600
13.582000 0.173400
13.648400 0.178700
13.714800 0.183300
13.781200 0.255800
13.847600 0.319400
13.914100 0.370100
13.980500 0.458600
14.046900 0.556000
14.113300 0.689000
14.179700 0.982900
14.246200 1.391200
14.312600 1.492700
14.379000 1.128200
14.445400 1.025900
14.511800 0.929200
14.578200 0.858600
14.644700 0.819600
14.711100 0.791200
14.777500 0.756400
14.843900 0.723100
14.910300 0.723100
14.976800 0.738400
15.043200 0.731200
15.109600 0.643800
15.176000 0.588200
15.242400 0.564700
15.308900 0.552100
15.375300 0.545000
15.441700 0.539500
15.508100 0.526200
15.574500 0.529600
15.641000 0.545500
15.707400 0.541600
15.773800 0.538500
15.840200 0.535900
15.906600 0.533000
15.973100 0.535300
16.039500 0.529400
16.105900 0.508400
16.172300 0.481800
16.238700 0.438200
16.305200 0.433500
16.371600 0.429900
16.438000 0.427400
16.504400 0.432300
16.570800 0.434600
16.637300 0.440700
16.703700 0.455700
16.770100 0.451700
16.836500 0.461600
16.902900 0.478200
16.969400 0.499100
17.035800 0.539600
17.102200 0.583700
17.168600 0.730700
17.235000 1.060500
17.301500 2.067400
17.367900 3.857300
17.434300 1.436200
17.500700 1.105300
17.567100 0.940000
17.633600 0.860500
17.700000 0.843200
17.766400 0.848200
17.832800 0.838700
17.899200 0.815100
17.965700 0.738200
18.032100 0.727300
18.098500 0.660500
18.164900 0.652900
18.231300 0.657500
18.297800 0.664700
18.364200 0.673500
18.430600 0.904900
18.497000 0.653800
18.563400 0.888200
18.629900 0.716100
18.696300 0.728000
18.762700 0.781000
18.829100 0.805700
18.895500 0.821900
18.962000 0.816000
19.028400 0.804100
19.094800 0.787000
19.161200 0.773800
19.227600 0.755500
19.294100 0.751800
19.360500 0.751100
19.426900 0.754100
19.493300 0.752500
19.559700 0.755100
19.626200 0.761900
19.692600 0.785900
19.759000 0.816300
19.825400 0.839700
19.891800 0.862800
19.958300 0.859000
20.024700 0.840300
20.091100 0.819300
20.157500 0.779000
20.223900 0.723500
20.290400 0.686800
20.356800 0.644700
20.423200 0.591800
20.489600 0.510300
20.556000 0.450600
20.622500 0.464600
20.688900 0.510700
20.755300 0.594100
20.821700 0.661700
20.888100 0.764500
20.954600 0.857300
21.021000 0.974300
21.087400 1.094800
21.153800 1.171900
21.220200 1.141000
21.286700 1.092800
21.353100 1.051500
21.419500 1.022800
21.485900 1.008100
21.552300 0.970500
21.618800 0.893200
21.685200 0.869600
21.751600 0.845100
21.818000 0.819600
21.884400 0.797000
21.950900 0.830800
22.017300 0.789100
22.083700 0.740900
22.150100 0.795700
22.216500 0.616400
22.283000 0.584700
22.349400 0.454800
22.415800 0.433700
22.482200 0.426400
22.548600 0.448200
22.615100 0.452700
22.681500 0.457900
22.747900 0.451700
22.814300 0.474800
22.880700 0.503100
22.947200 0.569000
23.013600 0.654800
23.080000 0.710400
23.146400 0.751200
23.212800 0.757400
23.279300 0.751200
23.345700 0.772000
23.412100 0.822200
23.478500 0.846700
23.544900 0.873900
23.611400 0.902500
23.677800 0.906900
23.744200 0.921300
23.810600 0.947100
23.877000 0.978800
23.943500 1.025900
24.009900 1.042400
24.076300 1.122700
24.142700 1.191000
24.209100 1.190400
24.275600 1.096000
24.342000 1.022400
24.408400 0.906200
24.474800 0.760800
24.541200 0.713800
24.607700 0.670300
24.674100 0.663300
24.740500 0.655700
24.806900 0.687600
24.873300 0.721900
24.939800 0.745900
25.006200 0.828200
25.072600 0.832000
25.139000 0.835000
25.205400 0.922200
25.271900 0.993700
25.338300 1.017000
25.404700 1.107300
25.471100 1.207600
25.537500 1.088300
25.604000 1.124700
25.670400 1.158600
25.736800 1.045900
25.803200 1.056600
25.869600 1.096400
25.936100 1.127500
26.002500 1.131600
26.068900 1.123400
26.135300 1.126000
26.201700 1.116000
26.268200 1.110900
26.334600 1.127800
26.401000 1.129900
26.467400 1.134600
26.533800 1.151700
26.600300 1.207500
26.666700 1.235800
26.733100 1.215100
26.799500 1.170900
26.865900 1.088900
26.932400 0.974400
26.998800 0.930500
27.065200 0.884300
27.131600 0.854700
27.198000 0.813500
27.264500 0.784200
27.330900 0.762100
27.397300 0.741800
27.463700 0.715300
27.530100 0.689000
27.596500 0.681600
27.663000 0.681800
27.729400 0.685600
27.795800 0.671600
27.862200 0.654700
27.928600 0.629800
27.995100 0.599000
28.061500 0.558500
28.127900 0.508200
28.194300 0.483200
28.260700 0.474200
28.327200 0.465400
28.393600 0.443900
28.460000 0.447100
28.526400 0.455900
28.592800 0.461400
28.659300 0.462400
28.725700 0.466200
28.792100 0.468800
28.858500 0.471300
28.924900 0.485400
28.991400 0.509100
29.057800 0.538800
29.124200 0.572300
29.190600 0.629900
29.257000 0.822400
29.323500 0.830500
29.389900 0.828400
29.456300 0.792200
29.522700 0.709500
29.589100 0.645900
29.655600 0.541300
29.722000 0.443500
29.788400 0.374000
29.854800 0.314600
29.921200 0.274100
29.987700 0.253500
30.054100 0.242300
30.120500 0.340600
30.186900 0.358000
30.253300 0.391200
30.319800 0.437100
30.386200 0.553800
30.452600 0.647800
30.519000 0.746600
30.585400 0.787200
30.651900 0.819100
30.718300 0.848100
30.784700 0.859100
30.851100 0.868100
30.917500 0.868700
30.984000 0.868200
31.050400 0.880100
31.116800 0.930000
31.183200 0.832100
31.249600 0.835000
31.316100 0.828400
31.382500 0.831300
31.448900 0.868900
31.515300 0.916200
31.581700 0.966700
31.648200 1.023900
31.714600 1.087100
31.781000 1.289200
31.847400 1.410200
31.913800 1.015800
31.980300 0.920000
32.046700 0.862400
32.113100 0.863200
32.179500 0.891400
32.245900 0.888300
32.312400 0.933000
32.378800 0.959100
32.445200 0.981900
32.511600 1.041500
32.578000 1.143200
32.644500 1.202400
32.710900 1.273900
32.777300 1.324600
32.843700 1.320900
32.910100 1.276300
32.976600 1.136300
33.043000 1.059800
33.109400 1.032500
33.175800 1.002300
33.242200 0.974700
33.308700 0.918700
33.375100 0.849000
33.441500 0.801900
33.507900 0.756100
33.574300 0.768100
33.640800 0.755300
33.707200 0.748400
33.773600 0.742100
33.840000 0.724800
33.906400 0.710200
33.972900 0.703200
34.039300 0.704300
34.105700 0.725200
34.172100 0.806400
34.238500 0.804300
34.305000 0.779900
34.371400 0.804700
34.437800 0.800000
34.504200 0.810300
34.570600 0.824300
34.637100 0.870000
34.703500 0.822600
34.769900 0.809100
34.836300 0.786400
34.902700 0.815100
34.969200 1.034300
35.035600 0.805300
35.102000 0.836400
35.168400 0.844500
35.234800 0.861100
35.301300 0.868200
35.367700 0.934300
35.434100 0.907400
35.500500 0.968600
35.566900 0.895200
35.633400 0.959000
35.699800 0.943500
35.766200 0.921300
35.832600 0.909000
35.899000 0.904900
35.965500 0.899600
36.031900 0.886900
36.098300 0.886400
36.164700 0.927400
36.231100 0.919900
36.297600 0.930300
36.364000 0.944600
36.430400 0.970300
36.496800 1.022900
36.563200 1.123400
36.629700 1.231500
36.696100 1.379700
36.762500 1.453700
36.828900 1.357600
36.895300 1.309400
36.961800 1.267800
37.028200 1.204500
37.094600 1.154600
37.161000 1.149300
37.227400 1.192400
37.293900 1.148200
37.360300 1.175900
37.426700 1.201900
37.493100 1.227500
37.559500 1.250200
37.626000 1.257100
37.692400 1.288700
37.758800 1.434700
37.825200 1.610500
37.891600 1.392600
37.958100 1.366100
38.024500 1.354500
38.090900 1.422700
38.157300 1.298700
38.223700 1.019900
38.290200 0.983100
38.356600 0.932700
38.423000 0.915300
38.489400 0.915000
38.555800 0.882700
38.622300 0.851800
38.688700 0.854800
38.755100 0.854000
38.821500 0.895200
38.887900 0.951900
38.954400 0.943400
39.020800 0.937400
39.087200 0.971300
39.153600 0.984300
39.220000 0.980000
39.286500 0.984000
39.352900 1.008500
39.419300 0.998500
39.485700 0.962400
39.552100 0.921000
39.618600 0.898200
39.685000 0.880900
39.751400 0.873900
39.817800 0.823200
39.884200 0.780100
39.950700 0.773500
40.017100 0.747800
40.083500 0.714300
40.149900 0.698600
40.216300 0.683300
40.282700 0.663300
40.349200 0.650000
40.415600 0.637200
40.482000 0.626900
40.548400 0.614200
40.614800 0.600800
40.681300 0.590300
40.747700 0.583000
40.814100 0.594200
40.880500 0.614500
40.946900 0.645200
41.013400 0.660500
41.079800 0.679300
41.146200 0.689400
41.212600 0.701100
41.279000 0.713500
41.345500 0.726400
41.411900 0.697800
41.478300 0.646400
41.544700 0.647500
41.611100 0.658200
41.677600 0.670300
41.744000 0.683100
41.810400 0.698700
41.876800 0.727300
41.943200 0.745400
42.009700 0.764500
42.076100 0.777500
42.142500 0.797300
42.208900 0.819600
42.275300 0.857500
42.341800 0.917800
42.408200 0.969100
42.474600 1.001800
42.541000 1.069200
42.607400 1.125500
42.673900 1.200600
42.740300 1.279300
42.806700 1.324100
42.873100 1.423100
42.939500 1.459400
43.006000 1.468800
43.072400 1.320200
43.138800 1.266300
43.205200 1.155800
43.271600 1.112500
43.338100 1.101000
43.404500 1.225200
43.470900 1.057000
43.537300 0.954400
43.603700 0.886800
43.670200 0.910300
43.736600 0.932000
43.803000 0.991400
43.869400 1.014900
43.935800 1.086400
44.002300 1.114200
44.068700 1.022200
44.135100 1.005900
44.201500 0.943800
44.267900 0.908300
44.334400 0.930400
44.400800 0.941100
44.467200 0.945100
44.533600 0.944500
44.600000 0.958200
44.666500 0.966500
44.732900 1.006600
44.799300 1.042600
44.865700 1.131300
44.932100 1.236700
44.998600 1.189200
45.065000 1.176100
45.131400 1.078900
45.197800 1.042600
45.264200 0.997600
45.330700 0.928000
45.397100 0.929800
45.463500 0.959000
45.529900 0.968000
45.596300 0.981900
45.662800 1.008400
45.729200 1.105600
45.795600 1.132300
45.862000 1.072600
45.928400 0.971200
45.994900 0.973900
46.061300 0.997300
46.127700 1.018600
46.194100 1.048800
46.260500 1.074600
46.327000 1.054700
46.393400 1.033400
46.459800 1.046200
46.526200 1.055700
46.592600 1.031300
46.659100 1.061000
46.725500 1.122900
46.791900 1.105400
46.858300 1.121400
46.924700 1.175200
46.991200 1.028800
47.057600 0.976600
47.124000 0.965100
47.190400 0.949200
47.256800 0.931100
47.323300 0.927400
47.389700 0.912200
47.456100 0.928200
47.522500 0.934600
47.588900 0.962200
47.655400 1.060600
47.721800 1.028600
47.788200 1.096600
47.854600 1.188300
47.921000 1.268500
47.987500 1.248600
48.053900 1.243300
48.120300 1.235100
48.186700 1.221000
48.253100 1.147200
48.319600 0.992700
48.386000 0.993900
48.452400 0.929700
48.518800 0.938500
48.585200 0.931200
48.651700 0.930400
48.718100 0.917200
48.784500 0.894000
48.850900 0.884300
48.917300 0.876400
48.983800 0.874200
49.050200 0.890200
49.116600 0.895200
49.183000 0.914100
49.249400 0.985000
49.315900 1.088000
49.382300 1.077700
49.448700 1.092500
49.515100 1.111100
49.581500 1.096500
49.648000 1.051500
49.714400 0.998200
49.780800 0.958700
49.847200 0.943700
49.913600 0.941700
49.980100 0.949600
50.046500 0.955900
50.112900 0.970500
50.179300 0.981700
50.245700 1.024300
50.312200 1.019200
50.378600 0.988300
50.445000 1.025800
50.511400 0.976300
50.577800 1.010600
50.644300 0.957200
50.710700 0.916000
50.777100 0.937000
50.843500 0.937600
50.909900 0.931100
50.976400 0.941900
51.042800 0.925300
51.109200 0.910000
51.175600 0.891200
51.242000 0.880800
51.308500 0.887800
51.374900 0.923300
51.441300 0.941100
51.507700 0.994600
51.574100 0.984500
51.640600 1.043700
51.707000 1.126000
51.773400 1.242900
51.839800 1.275500
51.906200 1.320500
51.972700 1.359900
52.039100 1.425900
52.105500 1.452500
52.171900 1.434400
52.238300 1.409100
52.304800 1.330700
52.371200 1.179000
52.437600 1.083200
52.504000 1.016400
52.570400 0.989300
52.636900 0.983500
52.703300 0.998000
52.769700 1.102800
52.836100 1.107900
52.902500 1.069500
52.968900 1.025100
53.035400 1.025300
53.101800 1.054800
53.168200 1.060600
53.234600 1.077400
53.301000 1.103800
53.367500 1.215100
53.433900 1.311100
53.500300 1.294400
53.566700 1.328200
53.633100 1.431100
53.699600 1.433200
53.766000 1.430600
53.832400 1.400200
53.898800 1.309700
53.965200 1.212800
54.031700 1.091800
54.098100 1.041800
54.164500 0.983900
54.230900 0.960800
54.297300 1.017000
54.363800 1.078900
54.430200 1.090300
54.496600 1.075100
54.563000 1.115000
54.629400 1.180300
54.695900 1.271600
54.762300 1.258200
54.828700 1.241100
54.895100 1.232300
54.961500 1.178600
55.028000 1.144500
55.094400 1.101700
55.160800 1.029900
55.227200 1.008200
55.293600 1.001000
55.360100 1.007500
55.426500 0.993400
55.492900 0.981000
55.559300 1.016100
55.625700 1.013800
55.692200 1.002000
55.758600 1.035300
55.825000 0.888100
55.891400 0.884700
55.957800 0.895300
56.024300 0.910700
56.090700 0.916800
56.157100 0.955600
56.223500 0.979100
56.289900 0.994300
56.356400 1.020900
56.422800 1.058500
56.489200 1.048400
56.555600 1.055300
56.622000 1.084000
56.688500 1.119800
56.754900 1.159000
56.821300 1.171300
56.887700 1.146300
56.954100 1.121700
57.020600 1.145100
57.087000 1.079400
57.153400 1.019100
57.219800 0.976800
57.286200 0.964800
57.352700 0.952600
57.419100 0.950300
57.485500 1.007800
57.551900 1.034000
57.618300 1.052600
57.684800 1.075700
57.751200 1.102000
57.817600 1.109300
57.884000 1.096400
57.950400 1.079100
58.016900 1.097700
58.083300 1.133400
58.149700 1.182000
58.216100 1.162800
58.282500 1.221300
58.349000 1.212300
58.415400 1.212500
58.481800 1.204200
58.548200 1.197300
58.614600 1.142300
58.681100 1.154700
58.747500 1.215600
58.813900 1.117100
58.880300 1.090400
58.946700 1.122200
59.013200 1.042400
59.079600 1.000600
59.146000 1.014600
59.212400 1.021200
59.278800 0.947500
59.345300 0.940100
59.411700 0.949100
59.478100 0.965800
59.544500 0.997600
59.610900 1.055600
59.677400 1.108200
59.743800 1.179400
59.810200 1.252300
59.876600 1.270800
59.943000 1.295300
60.009500 1.259700
60.075900 1.220100
60.142300 1.202100
60.208700 1.190600
60.275100 1.193700
60.341600 1.208600
60.408000 1.227600
60.474400 1.242300
60.540800 1.227800
60.607200 1.223200
60.673700 1.237000
60.740100 1.156800
60.806500 1.108900
60.872900 1.108500
60.939300 1.142100
61.005800 1.151600
61.072200 1.207900
61.138600 1.248100
61.205000 1.276900
61.271400 1.293000
61.337900 1.293100
61.404300 1.212500
61.470700 1.209000
61.537100 1.265500
61.603500 1.156900
61.670000 1.137900
61.736400 1.105400
61.802800 1.071000
61.869200 1.050800
61.935600 1.065300
62.002100 1.121600
62.068500 1.155200
62.134900 1.174000
62.201300 1.170200
62.267700 1.135900
62.334200 1.167600
62.400600 1.186300
62.467000 1.207600
62.533400 1.229100
62.599800 1.197400
62.666300 1.256400
62.732700 1.184700
62.799100 1.134400
62.865500 1.113400
62.931900 1.091000
62.998400 1.080400
63.064800 1.074900
63.131200 1.113900
63.197600 1.178300
63.264000 1.138100
63.330500 1.130000
63.396900 1.148100
63.463300 1.162800
63.529700 1.183500
63.596100 1.211800
63.662600 1.258800
63.729000 1.323700
63.795400 1.350300
63.861800 1.364500
63.928200 1.382900
63.994700 1.367000
64.061100 1.318900
64.127500 1.296300
64.193900 1.241700
64.260300 1.208700
64.326800 1.242300
64.393200 1.178200
64.459600 1.164700
64.526000 1.151800
64.592400 1.131000
64.658900 1.114300
64.725300 1.121900
64.791700 1.141400
64.858100 1.187500
64.924500 1.209800
64.991000 1.199200
65.057400 1.186800
65.123800 1.191500
65.190200 1.191200
65.256600 1.175800
65.323100 1.147200
65.389500 1.136500
65.455900 1.221000
65.522300 1.172500
65.588700 1.189600
65.655100 1.201700
65.721600 1.243400
65.788000 1.311800
65.854400 1.348200
65.920800 1.412100
65.987200 1.449300
66.053700 1.428400
66.120100 1.377400
66.186500 1.281900
66.252900 1.290200
66.319300 1.221800
66.385800 1.165900
66.452200 1.163100
66.518600 1.175500
66.585000 1.154700
66.651400 1.101200
66.717900 1.103000
66.784300 1.115200
66.850700 1.150100
66.917100 1.140900
66.983500 1.126200
67.050000 1.119900
67.116400 1.077800
67.182800 1.043600
67.249200 1.030200
67.315600 1.012100
67.382100 1.010600
67.448500 1.019900
67.514900 1.036100
67.581300 1.080100
67.647700 1.107500
67.714200 1.129100
67.780600 1.136200
67.847000 1.199700
67.913400 1.194800
67.979800 1.158400
68.046300 1.143900
68.112700 1.124300
68.179100 1.081900
68.245500 1.040800
68.311900 1.030000
68.378400 1.016800
68.444800 1.029800
68.511200 1.022300
68.577600 1.043700
68.644000 1.086500
68.710500 1.118700
68.776900 1.184700
68.843300 1.222500
68.909700 1.236200
68.976100 1.226900
69.042600 1.217700
69.109000 1.229000
69.175400 1.145000
69.241800 1.129700
69.308200 1.131200
69.374700 1.138400
69.441100 1.168600
69.507500 1.199600
69.573900 1.232700
69.640300 1.266300
69.706800 1.290900
69.773200 1.298000
69.839600 1.286200
69.906000 1.292000
69.972400 1.243500
70.038900 1.289100
70.105300 1.322900
70.171700 1.345100
70.238100 1.349600
70.304500 1.408300
70.371000 1.370800
70.437400 1.324500
70.503800 1.263600
70.570200 1.234800
70.636600 1.261000
70.703100 1.301900
70.769500 1.278100
70.835900 1.254500
70.902300 1.240100
70.968700 1.249500
71.035200 1.281400
71.101600 1.287600
71.168000 1.293600
71.234400 1.311200
71.300800 1.304500
71.367300 1.316800
71.433700 1.353700
71.500100 1.290000
71.566500 1.243400
71.632900 1.231000
71.699400 1.237600
71.765800 1.242500
71.832200 1.244100
71.898600 1.245400
71.965000 1.255100
72.031500 1.262500
72.097900 1.298300
72.164300 1.337600
72.230700 1.294500
72.297100 1.278500
72.363600 1.287900
72.430000 1.312100
72.496400 1.314100
72.562800 1.286000
72.629200 1.269500
72.695700 1.274900
72.762100 1.244800
72.828500 1.247800
72.894900 1.235500
72.961300 1.221900
73.027800 1.221600
73.094200 1.172400
73.160600 1.149200
73.227000 1.097500
73.293400 1.071400
73.359900 1.002700
73.426300 0.964600
73.492700 1.051000
73.559100 1.029200
73.625500 1.019900
73.692000 1.030100
73.758400 1.006700
73.824800 1.052200
73.891200 1.124000
73.957600 1.158600
74.024100 1.201800
74.090500 1.316800
74.156900 1.323400
74.223300 1.417000
74.289700 1.424400
74.356200 1.378700
74.422600 1.314900
74.489000 1.325500
74.555400 1.269300
74.621800 1.312500
74.688300 1.244700
74.754700 1.211900
74.821100 1.203500
74.887500 1.198900
74.953900 1.219800
75.020400 1.283500
75.086800 1.384100
75.153200 1.367000
75.219600 1.348000
75.286000 1.340000
75.352500 1.308100
75.418900 1.283000
75.485300 1.257700
75.551700 1.269400
75.618100 1.271100
75.684600 1.276800
75.751000 1.303100
75.817400 1.331500
75.883800 1.333400
75.950200 1.340800
76.016700 1.297800
76.083100 1.256800
76.149500 1.241000
76.215900 1.239100
76.282300 1.245400
76.348800 1.232200
76.415200 1.200500
76.481600 1.205600
76.548000 1.179400
76.614400 1.166200
76.680900 1.209900
76.747300 1.221000
76.813700 1.274400
76.880100 1.316400
76.946500 1.298100
77.013000 1.255500
77.079400 1.217200
77.145800 1.188700
77.212200 1.162900
77.278600 1.127000
77.345100 1.110600
77.411500 1.097300
77.477900 1.162300
77.544300 1.149200
77.610700 1.135700
77.677200 1.114800
77.743600 1.131800
77.810000 1.149600
77.876400 1.158500
77.942800 1.186600
78.009300 1.218400
78.075700 1.308200
78.142100 1.385100
78.208500 1.427000
78.274900 1.426400
78.341400 1.348900
78.407800 1.313700
78.474200 1.259400
78.540600 1.222800
78.607000 1.211300
78.673400 1.225900
78.739900 1.240200
78.806300 1.258700
78.872700 1.233400
78.939100 1.208100
79.005500 1.222500
79.072000 1.265000
79.138400 1.322300
79.204800 1.405200
79.271200 1.413500
79.337600 1.466100
79.404100 1.461400
79.470500 1.506200
79.536900 1.460700
79.603300 1.427900
79.669700 1.367900
79.736200 1.352100
79.802600 1.579800
79.869000 1.293500
79.935400 1.272100
80.001800 1.249800
80.068300 1.299200
80.134700 1.181700
80.201100 1.235000
80.267500 1.215900
80.333900 1.193900
80.400400 1.196300
80.466800 1.254800
80.533200 1.226700
80.599600 1.236100
80.666000 1.245600
80.732500 1.245000
80.798900 1.269000
80.865300 1.287000
80.931700 1.291600
80.998100 1.267300
81.064600 1.263900
81.131000 1.256500
81.197400 1.234800
81.263800 1.205500
81.330200 1.221500
81.396700 1.253700
81.463100 1.261100
81.529500 1.267300
81.595900 1.291700
81.662300 1.334700
81.728800 1.377500
81.795200 1.513300
81.861600 1.548900
81.928000 1.585100
81.994400 1.496400
82.060900 1.287100
82.127300 1.310900
82.193700 1.274700
82.260100 1.214200
82.326500 1.189900
82.393000 1.192700
82.459400 1.220300
82.525800 1.376600
82.592200 1.293900
82.658600 1.255900
82.725100 1.272800
82.791500 1.292100
82.857900 1.324700
82.924300 1.355300
82.990700 1.377700
83.057200 1.416200
83.123600 1.427100
83.190000 1.414700
83.256400 1.463600
83.322800 1.489000
83.389300 1.529600
83.455700 1.570300
83.522100 1.569000
83.588500 1.511100
83.654900 1.545400
83.721400 1.458800
83.787800 1.418400
83.854200 1.379100
83.920600 1.367400
83.987000 1.335100
84.053500 1.271000
84.119900 1.275700
84.186300 1.281400
84.252700 1.272300
84.319100 1.247800
84.385600 1.239600
84.452000 1.251700
84.518400 1.283500
84.584800 1.296400
84.651200 1.298400
84.717700 1.294800
84.784100 1.285800
84.850500 1.338600
84.916900 1.338000
84.983300 1.350800
85.049800 1.349800
85.116200 2.028000
85.182600 1.248500
85.249000 1.208800
85.315400 1.173400
85.381900 1.217100
85.448300 1.239100
85.514700 1.104300
85.581100 1.097000
85.647500 1.094300
85.714000 1.111700
85.780400 1.056600
85.846800 1.044900
85.913200 1.020400
85.979600 1.000000
86.046100 0.984500
86.112500 0.990200
86.178900 1.009900
86.245300 1.009600
86.311700 1.007900
86.378200 0.998700
86.444600 0.985100
86.511000 0.955500
86.577400 0.913500
86.643800 0.870900
86.710300 0.847900
86.776700 0.812700
86.843100 0.778400
86.909500 0.796200
86.975900 0.837100
87.042400 0.858400
87.108800 0.756400
87.175200 0.591000
87.241600 0.541300
87.308000 0.495500
87.374500 0.462400
87.440900 0.434700
87.507300 0.422200
87.573700 0.395400
87.640100 0.355700
87.706600 0.347500
87.773000 0.328900
87.839400 0.321400
87.905800 0.313400
87.972200 0.297100
88.038700 0.287300
88.105100 0.254400
88.171500 0.235400
88.237900 0.224800
88.304300 0.213900
88.370800 0.202500
88.437200 0.187800
88.503600 0.172300
88.570000 0.176300
88.636400 0.171800
88.702900 0.165400
88.769300 0.152300
88.835700 0.124700
88.902100 0.090100
88.968500 0.081300
89.035000 0.071800
89.101400 0.063800
89.167800 0.056900
89.234200 0.050800
89.300600 0.045400
89.367100 0.040700
89.433500 0.036600
89.499900 0.033200
89.566300 0.031600
89.632700 0.030300
89.699200 0.029100
89.765600 0.028000
89.832000 0.026800
89.898400 0.025600
89.964800 0.024400
90.031300 0.023200
90.097700 0.019900
90.164100 0.019000
90.230500 0.018200
90.296900 0.017300
90.363400 0.016400
90.429800 0.015500
90.496200 0.014600
90.562600 0.013700
90.629000 0.012700
90.695500 0.002000
90.761900 0.000000
90.828300 0.000000
90.894700 0.000000
90.961100 0.000000
91.027600 0.000000
91.094000 0.000000
91.160400 0.000000
91.226800 0.000000
91.293200 0.000000
91.359600 0.000000
91.426100 0.000000
91.492500 0.000000
91.558900 0.000000
91.625300 0.000000
91.691700 0.000000
91.758200 0.000000
91.824600 0.000000
91.891000 0.000000
91.957400 0.000000
92.023800 0.000000
92.090300 0.000000
92.156700 0.000000
92.223100 0.000000
92.289500 0.000000
92.355900 0.000000
92.422400 0.000000
92.488800 0.000000
92.555200 0.000000
92.621600 0.000000
92.688000 0.000000
92.754500 0.000000
92.820900 0.000000
92.887300 0.000000
92.953700 0.000000
93.020100 0.000000
93.086600 0.000000
93.153000 0.000000
93.219400 0.000000
93.285800 0.000000
93.352200 0.000000
93.418700 0.000000
93.485100 0.000000
93.551500 0.000000
93.617900 0.000000
93.684300 0.000000
93.750800 0.000000
93.817200 0.000000
93.883600 0.000000
93.950000 0.000000
94.016400 0.000000
94.082900 0.000000
94.149300 0.000000
94.215700 0.000000
94.282100 0.000000
94.348500 0.000000
94.415000 0.000000
94.481400 0.000000
94.547800 0.000000
94.614200 0.000000
94.680600 0.000000
94.747100 0.000000
94.813500 0.000000
94.879900 0.000000
94.946300 0.000000
95.012700 0.000000
95.079200 0.000000
95.145600 0.000000
95.212000 0.000000
95.278400 0.000000
95.344800 0.000000
95.411300 0.000000
95.477700 0.000000
95.544100 0.000000
95.610500 0.000000
95.676900 0.000000
95.743400 0.000000
95.809800 0.000000
95.876200 0.000000
95.942600 0.000000
96.009000 0.000000
96.075500 0.000000
96.141900 0.000000
96.208300 0.000000
96.274700 0.000000
96.341100 0.000000
96.407600 0.000000
96.474000 0.000000
96.540400 0.000000
96.606800 0.000000
96.673200 0.000000
96.739700 0.000000
e
