set title 'mp-569916 - Density of States'
set xlabel 'Energy (eV)'
set ylabel 'DOS (states/eV)'
set grid
set xrange [-10:10]
set yrange [0:36.183]
set xzeroaxis lt -1
set terminal png size 800,600
set output 'mp-569916_dos_gnuplot.png'
plot '-' using 1:2 with lines title 'DOS'
-5.358200 0.000000
-5.339900 0.000000
-5.321600 0.000000
-5.303300 0.000000
-5.285000 0.000000
-5.266800 0.000000
-5.248500 0.000000
-5.230200 0.000000
-5.211900 0.000000
-5.193600 0.000000
-5.175300 0.000000
-5.157100 0.000000
-5.138800 0.000000
-5.120500 0.000000
-5.102200 0.000000
-5.083900 0.000000
-5.065600 0.000000
-5.047400 0.000000
-5.029100 0.000000
-5.010800 0.000000
-4.992500 0.000000
-4.974200 0.000000
-4.955900 0.000000
-4.937700 0.000000
-4.919400 0.000000
-4.901100 0.000000
-4.882800 0.000000
-4.864500 0.000000
-4.846200 0.000000
-4.828000 0.000000
-4.809700 0.000000
-4.791400 0.000000
-4.773100 0.000000
-4.754800 0.000000
-4.736500 0.000000
-4.718300 0.000000
-4.700000 0.000000
-4.681700 0.000000
-4.663400 0.000000
-4.645100 0.000000
-4.626800 0.000000
-4.608500 0.000000
-4.590300 0.000000
-4.572000 0.000000
-4.553700 0.000000
-4.535400 0.000000
-4.517100 0.000000
-4.498800 0.000000
-4.480600 0.000000
-4.462300 0.000000
-4.444000 0.000000
-4.425700 0.000000
-4.407400 0.000000
-4.389100 0.000000
-4.370900 0.000000
-4.352600 0.000000
-4.334300 0.000000
-4.316000 0.000000
-4.297700 0.000000
-4.279400 0.000000
-4.261200 0.000000
-4.242900 0.000000
-4.224600 0.000000
-4.206300 0.000000
-4.188000 0.000000
-4.169700 0.000000
-4.151500 0.000000
-4.133200 0.000000
-4.114900 0.000000
-4.096600 0.000000
-4.078300 0.000000
-4.060000 0.000000
-4.041800 0.000000
-4.023500 0.000000
-4.005200 0.000000
-3.986900 0.000000
-3.968600 0.000000
-3.950300 0.000000
-3.932100 0.000000
-3.913800 0.000000
-3.895500 0.000000
-3.877200 0.000000
-3.858900 0.000000
-3.840600 0.000000
-3.822400 0.000000
-3.804100 0.000000
-3.785800 0.000000
-3.767500 0.000000
-3.749200 0.000000
-3.730900 0.000000
-3.712700 0.000000
-3.694400 0.000400
-3.676100 0.052500
-3.657800 0.189100
-3.639500 0.367800
-3.621200 0.546600
-3.603000 0.716600
-3.584700 0.630700
-3.566400 0.482800
-3.548100 0.485400
-3.529800 0.500700
-3.511500 0.516000
-3.493200 0.531300
-3.475000 0.546600
-3.456700 0.561900
-3.438400 0.577200
-3.420100 0.592500
-3.401800 0.599400
-3.383500 0.590600
-3.365300 0.573000
-3.347000 0.555300
-3.328700 0.537700
-3.310400 0.526300
-3.292100 0.526100
-3.273800 0.531800
-3.255600 0.537500
-3.237300 0.543100
-3.219000 0.548800
-3.200700 0.554500
-3.182400 0.560200
-3.164100 0.565900
-3.145900 0.571600
-3.127600 0.577300
-3.109300 0.582900
-3.091000 0.588600
-3.072700 0.594300
-3.054400 0.594200
-3.036200 0.577100
-3.017900 0.562200
-2.999600 0.561800
-2.981300 0.561300
-2.963000 0.560900
-2.944700 0.560500
-2.926500 0.560100
-2.908200 0.559600
-2.889900 0.559200
-2.871600 0.559100
-2.853300 0.560700
-2.835000 0.563700
-2.816800 0.566900
-2.798500 0.570100
-2.780200 0.573400
-2.761900 0.576600
-2.743600 0.579800
-2.725300 0.583000
-2.707100 0.586200
-2.688800 0.589400
-2.670500 0.592600
-2.652200 0.595800
-2.633900 0.599100
-2.615600 0.602200
-2.597400 0.602300
-2.579100 0.598300
-2.560800 0.592900
-2.542500 0.587500
-2.524200 0.582600
-2.505900 0.580800
-2.487700 0.581800
-2.469400 0.583100
-2.451100 0.584400
-2.432800 0.585800
-2.414500 0.587100
-2.396200 0.588400
-2.377900 0.596800
-2.359700 0.620000
-2.341400 0.658200
-2.323100 0.711300
-2.304800 0.757200
-2.286500 0.793200
-2.268200 0.830700
-2.250000 0.870000
-2.231700 0.908400
-2.213400 0.941300
-2.195100 0.968700
-2.176800 0.990600
-2.158500 1.017900
-2.140300 1.049500
-2.122000 1.079100
-2.103700 1.106500
-2.085400 1.131900
-2.067100 1.155800
-2.048800 1.179500
-2.030600 1.203100
-2.012300 1.221800
-1.994000 1.239900
-1.975700 1.263300
-1.957400 1.281500
-1.939100 1.291600
-1.920900 1.292900
-1.902600 1.289800
-1.884300 1.297500
-1.866000 1.304700
-1.847700 1.311000
-1.829400 1.314600
-1.811200 1.317400
-1.792900 1.319000
-1.774600 1.319400
-1.756300 1.318900
-1.738000 1.319500
-1.719700 1.321800
-1.701500 1.325800
-1.683200 1.330200
-1.664900 1.334700
-1.646600 1.339100
-1.628300 1.343600
-1.610000 1.348000
-1.591800 1.353400
-1.573500 1.363500
-1.555200 1.378700
-1.536900 1.399000
-1.518600 1.421800
-1.500300 1.438100
-1.482100 1.454600
-1.463800 1.473000
-1.445500 1.491800
-1.427200 1.510600
-1.408900 1.529400
-1.390600 1.548600
-1.372300 1.568600
-1.354100 1.589300
-1.335800 1.609900
-1.317500 1.630300
-1.299200 1.650700
-1.280900 1.671300
-1.262600 1.692100
-1.244400 1.713000
-1.226100 1.734000
-1.207800 1.755100
-1.189500 1.776400
-1.171200 1.797900
-1.152900 1.819300
-1.134700 1.840600
-1.116400 1.862300
-1.098100 2.050200
-1.079800 2.299100
-1.061500 2.280000
-1.043200 2.260900
-1.025000 2.241900
-1.006700 2.223200
-0.988400 2.204300
-0.970100 2.185200
-0.951800 2.166200
-0.933500 2.147200
-0.915300 2.128300
-0.897000 2.109300
-0.878700 2.090300
-0.860400 2.071700
-0.842100 2.053700
-0.823800 2.036400
-0.805600 2.019600
-0.787300 2.003400
-0.769000 2.004300
-0.750700 2.022900
-0.732400 2.073600
-0.714100 2.147400
-0.695900 2.217100
-0.677600 2.644800
-0.659300 3.229600
-0.641000 3.203000
-0.622700 2.982900
-0.604400 2.752500
-0.586200 2.558500
-0.567900 2.488500
-0.549600 2.488900
-0.531300 2.481200
-0.513000 2.493900
-0.494700 2.727000
-0.476500 2.943100
-0.458200 3.136300
-0.439900 3.286200
-0.421600 3.368000
-0.403300 3.384600
-0.385000 3.336400
-0.366800 3.205000
-0.348500 2.044800
-0.330200 1.930400
-0.311900 1.903800
-0.293600 2.048000
-0.275300 2.141300
-0.257000 2.266600
-0.238800 2.428800
-0.220500 2.621500
-0.202200 2.851800
-0.183900 3.132400
-0.165600 3.440200
-0.147300 3.760700
-0.129100 3.788100
-0.110800 3.551900
-0.092500 3.057300
-0.074200 2.832000
-0.055900 2.710100
-0.037600 2.638200
-0.019400 2.831700
-0.001100 3.401400
0.017200 4.103000
0.035500 4.676200
0.053800 5.243800
0.072100 5.364400
0.090300 5.706500
0.108600 5.638200
0.126900 5.205700
0.145200 4.616700
0.163500 4.348700
0.181800 4.027400
0.200000 3.923800
0.218300 3.284600
0.236600 3.049400
0.254900 2.947200
0.273200 2.821100
0.291500 2.731000
0.309700 2.746900
0.328000 2.841800
0.346300 2.964400
0.364600 3.118500
0.382900 3.376100
0.401200 4.179900
0.419400 4.215100
0.437700 4.365200
0.456000 4.504700
0.474300 4.346700
0.492600 4.144300
0.510900 3.904600
0.529100 3.597100
0.547400 3.178900
0.565700 2.639600
0.584000 2.346600
0.602300 2.148800
0.620600 1.991400
0.638800 1.860800
0.657100 1.738900
0.675400 1.924700
0.693700 2.029300
0.712000 2.080000
0.730300 2.374900
0.748500 2.827500
0.766800 3.368200
0.785100 4.217000
0.803400 4.423000
0.821700 4.629800
0.840000 4.716100
0.858300 4.676100
0.876500 4.569900
0.894800 4.630500
0.913100 4.797900
0.931400 4.808400
0.949700 4.662000
0.968000 4.467600
0.986200 4.223400
1.004500 4.089300
1.022800 4.051000
1.041100 3.823900
1.059400 3.619900
1.077700 3.724500
1.095900 3.772900
1.114200 3.648800
1.132500 3.505200
1.150800 3.662000
1.169100 3.804300
1.187400 3.755300
1.205600 3.614700
1.223900 3.319500
1.242200 2.846700
1.260500 2.330500
1.278800 2.295100
1.297100 2.577600
1.315300 2.901900
1.333600 3.298500
1.351900 3.780300
1.370200 4.264400
1.388500 4.632200
1.406800 4.354700
1.425000 4.210100
1.443300 4.089700
1.461600 3.988600
1.479900 4.023900
1.498200 3.968600
1.516500 3.905400
1.534700 3.847600
1.553000 3.786600
1.571300 3.834700
1.589600 4.422400
1.607900 5.031100
1.626200 4.967500
1.644400 5.386200
1.662700 5.910500
1.681000 5.893100
1.699300 6.239700
1.717600 6.237000
1.735900 8.534800
1.754100 7.504400
1.772400 6.551200
1.790700 4.914700
1.809000 3.998700
1.827300 3.190100
1.845600 2.868300
1.863800 3.172800
1.882100 4.314100
1.900400 7.112500
1.918700 8.812800
1.937000 6.174400
1.955300 5.867800
1.973600 5.897800
1.991800 5.870400
2.010100 5.912700
2.028400 6.359900
2.046700 6.544700
2.065000 6.620100
2.083300 6.396400
2.101500 6.083000
2.119800 6.176000
2.138100 7.104700
2.156400 7.923700
2.174700 6.417800
2.193000 6.833700
2.211200 6.829200
2.229500 7.093200
2.247800 7.392500
2.266100 7.730600
2.284400 9.218500
2.302700 10.180500
2.320900 11.004700
2.339200 11.450400
2.357500 11.617400
2.375800 11.296700
2.394100 11.636200
2.412400 11.360900
2.430600 11.259700
2.448900 11.462300
2.467200 16.651900
2.485500 9.497900
2.503800 8.044500
2.522100 6.361200
2.540300 4.400600
2.558600 4.376400
2.576900 5.196500
2.595200 6.389300
2.613500 7.326100
2.631800 10.456500
2.650000 13.026000
2.668300 17.451900
2.686600 17.365700
2.704900 10.049300
2.723200 6.679400
2.741500 5.516400
2.759700 3.828100
2.778000 3.347900
2.796300 3.811600
2.814600 4.142600
2.832900 4.453900
2.851200 4.773700
2.869400 5.293900
2.887700 7.190400
2.906000 8.282700
2.924300 9.038500
2.942600 9.400700
2.960900 9.688100
2.979200 8.863000
2.997400 6.860200
3.015700 4.049400
3.034000 2.542200
3.052300 2.348100
3.070600 3.332100
3.088900 5.898700
3.107100 7.916600
3.125400 11.394100
3.143700 15.283600
3.162000 14.973800
3.180300 14.535600
3.198600 17.405600
3.216800 14.598500
3.235100 23.957100
3.253400 32.893600
3.271700 22.034300
3.290000 15.481800
3.308300 10.529200
3.326500 10.344500
3.344800 11.962200
3.363100 10.120500
3.381400 11.334700
3.399700 15.848400
3.418000 17.323200
3.436200 16.465500
3.454500 14.631500
3.472800 17.750900
3.491100 21.873300
3.509400 20.393100
3.527700 18.005300
3.545900 19.771600
3.564200 16.595000
3.582500 10.952400
3.600800 13.074300
3.619100 21.627200
3.637400 24.004900
3.655600 18.089600
3.673900 12.993400
3.692200 11.692000
3.710500 10.445200
3.728800 12.229400
3.747100 19.839000
3.765300 14.371900
3.783600 9.888400
3.801900 9.932500
3.820200 9.123700
3.838500 8.283200
3.856800 7.655600
3.875000 7.046000
3.893300 6.544800
3.911600 6.183900
3.929900 7.423300
3.948200 10.632500
3.966500 10.236600
3.984700 8.885400
4.003000 7.744700
4.021300 9.545000
4.039600 11.684200
4.057900 9.395600
4.076200 7.923300
4.094500 10.155100
4.112700 13.239200
4.131000 11.713200
4.149300 15.705900
4.167600 15.243600
4.185900 15.172800
4.204200 17.175500
4.222400 15.819200
4.240700 17.217300
4.259000 16.166700
4.277300 17.383000
4.295600 21.737800
4.313900 17.829300
4.332100 14.025100
4.350400 14.719900
4.368700 20.469800
4.387000 19.371300
4.405300 16.458600
4.423600 13.987600
4.441800 8.070000
4.460100 8.038200
4.478400 8.187700
4.496700 12.091600
4.515000 14.238400
4.533300 11.476400
4.551500 11.640000
4.569800 12.498900
4.588100 15.059500
4.606400 16.893500
4.624700 18.638000
4.643000 21.464900
4.661200 31.450100
4.679500 16.843700
4.697800 20.520500
4.716100 20.814400
4.734400 22.144700
4.752700 21.630500
4.770900 22.872700
4.789200 12.914500
4.807500 4.696500
4.825800 2.930700
4.844100 3.914600
4.862400 4.555700
4.880600 8.491800
4.898900 8.585200
4.917200 7.991700
4.935500 6.385400
4.953800 6.121800
4.972100 5.952400
4.990300 5.957400
5.008600 6.107200
5.026900 6.192200
5.045200 5.645600
5.063500 5.057300
5.081800 4.696200
5.100000 4.445800
5.118300 4.763400
5.136600 5.116000
5.154900 4.964000
5.173200 4.094700
5.191500 3.741300
5.209800 3.688900
5.228000 3.704900
5.246300 3.788300
5.264600 3.703100
5.282900 3.767800
5.301200 3.945800
5.319500 4.240700
5.337700 4.826200
5.356000 4.865100
5.374300 4.481400
5.392600 4.129000
5.410900 3.821400
5.429200 3.551100
5.447400 3.323400
5.465700 3.137000
5.484000 2.989300
5.502300 2.916200
5.520600 2.880300
5.538900 2.895400
5.557100 2.942500
5.575400 2.986900
5.593700 3.331500
5.612000 4.175500
5.630300 4.817500
5.648600 5.317900
5.666800 5.543000
5.685100 5.593400
5.703400 5.483700
5.721700 5.471500
5.740000 5.263700
5.758300 4.918600
5.776500 4.695900
5.794800 4.662300
5.813100 4.624600
5.831400 4.575700
5.849700 4.515900
5.868000 4.456400
5.886200 4.423900
5.904500 4.448600
5.922800 4.117700
5.941100 4.210900
5.959400 4.405200
5.977700 4.759700
5.995900 4.768000
6.014200 4.857000
6.032500 4.858900
6.050800 4.786400
6.069100 4.697000
6.087400 4.606400
6.105600 4.514700
6.123900 4.196300
6.142200 4.004900
6.160500 3.893300
6.178800 3.862600
6.197100 3.986700
6.215300 4.048100
6.233600 3.871800
6.251900 3.670500
6.270200 3.640500
6.288500 3.675100
6.306800 3.710200
6.325100 3.713300
6.343300 3.743600
6.361600 3.867800
6.379900 4.026000
6.398200 3.978400
6.416500 3.942300
6.434800 3.915900
6.453000 3.892700
6.471300 3.934400
6.489600 4.156300
6.507900 4.241700
6.526200 4.266800
6.544500 4.275100
6.562700 4.181000
6.581000 3.897600
6.599300 3.728900
6.617600 3.615100
6.635900 3.497200
6.654200 3.381800
6.672400 3.278400
6.690700 3.332300
6.709000 3.269200
6.727300 3.196000
6.745600 3.114800
6.763900 3.038100
6.782100 2.791500
6.800400 2.786800
6.818700 2.840900
6.837000 3.116100
6.855300 3.220700
6.873600 3.267600
6.891800 3.289000
6.910100 3.284300
6.928400 3.252700
6.946700 3.209300
6.965000 3.172200
6.983300 3.141900
7.001500 3.124300
7.019800 3.128400
7.038100 3.157400
7.056400 3.192400
7.074700 3.225700
7.093000 3.254200
7.111200 3.281300
7.129500 3.308900
7.147800 3.337200
7.166100 3.321400
7.184400 3.368700
7.202700 3.428900
7.220900 3.487300
7.239200 3.532300
7.257500 3.532200
7.275800 3.551200
7.294100 3.497400
7.312400 3.480800
7.330700 3.462300
7.348900 3.328000
7.367200 3.213300
7.385500 3.144500
7.403800 3.105500
7.422100 3.078100
7.440400 3.055100
7.458600 3.041800
7.476900 3.033600
7.495200 3.030400
7.513500 3.029000
7.531800 3.026800
7.550100 3.025200
7.568300 3.024400
7.586600 3.024600
7.604900 3.018700
7.623200 3.008200
7.641500 2.998900
7.659800 2.992100
7.678000 2.987400
7.696300 3.010500
7.714600 3.040400
7.732900 2.961400
7.751200 2.935800
7.769500 2.922100
7.787700 2.914500
7.806000 2.914200
7.824300 2.918900
7.842600 2.928700
7.860900 2.944700
7.879200 2.966500
7.897400 2.987900
7.915700 3.013200
7.934000 3.037700
7.952300 3.061200
7.970600 3.073100
7.988900 3.056500
8.007100 3.037400
8.025400 3.018300
8.043700 3.019700
8.062000 3.041100
8.080300 3.158100
8.098600 3.530600
8.116800 3.539100
8.135100 3.625300
8.153400 3.714900
8.171700 3.802700
8.190000 3.870200
8.208300 3.909300
8.226500 3.922400
8.244800 3.924300
8.263100 3.919800
8.281400 3.906500
8.299700 3.883900
8.318000 3.848500
8.336200 3.804600
8.354500 3.754800
8.372800 3.701100
8.391100 3.642300
8.409400 3.558200
8.427700 3.434400
8.446000 3.374000
8.464200 3.331000
8.482500 3.318700
8.500800 3.325300
8.519100 3.335000
8.537400 3.340900
8.555700 3.342100
8.573900 3.362600
8.592200 3.416800
8.610500 3.475000
8.628800 3.539800
8.647100 3.601800
8.665400 3.654000
8.683600 3.696400
8.701900 3.739200
8.720200 3.780300
8.738500 3.825200
8.756800 3.834700
8.775100 3.851700
8.793300 3.836400
8.811600 3.802900
8.829900 3.783600
8.848200 3.785300
8.866500 3.864500
8.884800 3.974000
8.903000 4.007800
8.921300 3.995900
8.939600 4.027100
8.957900 4.117900
8.976200 4.352500
8.994500 4.584900
9.012700 4.601800
9.031000 4.573000
9.049300 4.508400
9.067600 4.389100
9.085900 4.224900
9.104200 4.002800
9.122400 3.766800
9.140700 3.541700
9.159000 3.394600
9.177300 3.282600
9.195600 3.199300
9.213900 3.129000
9.232100 3.015800
9.250400 2.930500
9.268700 2.870000
9.287000 2.822000
9.305300 2.755800
9.323600 2.720100
9.341800 2.689900
9.360100 2.643700
9.378400 2.599800
9.396700 2.564700
9.415000 2.538700
9.433300 2.530000
9.451500 2.563200
9.469800 2.651700
9.488100 2.757600
9.506400 2.833000
9.524700 2.923000
9.543000 3.036300
9.561300 3.347500
9.579500 3.212300
9.597800 3.144500
9.616100 3.115400
9.634400 3.183800
9.652700 3.621500
9.671000 3.989800
9.689200 4.287700
9.707500 4.539800
9.725800 4.793200
9.744100 5.011500
9.762400 5.166300
9.780700 5.303200
9.798900 5.399000
9.817200 5.422300
9.835500 5.316100
9.853800 5.150000
9.872100 4.944500
9.890400 4.729700
9.908600 4.598200
9.926900 4.440600
9.945200 4.135100
9.963500 3.887800
9.981800 3.787300
10.000100 3.778200
10.018300 3.782400
10.036600 3.807700
10.054900 3.916700
10.073200 4.041000
10.091500 4.067500
10.109800 3.872600
10.128000 3.552700
10.146300 3.461900
10.164600 3.395800
10.182900 3.407700
10.201200 3.597300
10.219500 3.872800
10.237700 4.022700
10.256000 4.049400
10.274300 4.087700
10.292600 4.199100
10.310900 4.329900
10.329200 4.389600
10.347400 4.410400
10.365700 4.409300
10.384000 4.357000
10.402300 4.194000
10.420600 4.109600
10.438900 4.253600
10.457100 4.392800
10.475400 4.525000
10.493700 4.536400
10.512000 4.462200
10.530300 4.391700
10.548600 4.349300
10.566800 4.344900
10.585100 4.322100
10.603400 4.285800
10.621700 4.304800
10.640000 4.381000
10.658300 4.457100
10.676600 4.597600
10.694800 4.752400
10.713100 4.813600
10.731400 4.498500
10.749700 4.465500
10.768000 4.496700
10.786300 4.528000
10.804500 4.656400
10.822800 4.963200
10.841100 5.026500
10.859400 4.830800
10.877700 4.612200
10.896000 4.525500
10.914200 4.405500
10.932500 4.242200
10.950800 4.086300
10.969100 3.963700
10.987400 3.847100
11.005700 3.770000
11.023900 3.754000
11.042200 3.830600
11.060500 4.087100
11.078800 4.690600
11.097100 5.740900
11.115400 5.293500
11.133600 5.126900
11.151900 4.976100
11.170200 4.820100
11.188500 4.419800
11.206800 4.194000
11.225100 3.810400
11.243300 3.675500
11.261600 3.594800
11.279900 3.741200
11.298200 3.973000
11.316500 3.865800
11.334800 3.831400
11.353000 3.720900
11.371300 3.648600
11.389600 3.600700
11.407900 3.507100
11.426200 3.387400
11.444500 3.276000
11.462700 3.165100
11.481000 3.026700
11.499300 2.880200
11.517600 2.822000
11.535900 2.868700
11.554200 3.121700
11.572400 3.465000
11.590700 3.641400
11.609000 3.664100
11.627300 3.729200
11.645600 3.829300
11.663900 3.959000
11.682100 4.121700
11.700400 4.307500
11.718700 4.496100
11.737000 4.653400
11.755300 4.727600
11.773600 4.856700
11.791900 5.075800
11.810100 5.212400
11.828400 5.314200
11.846700 5.237000
11.865000 5.282900
11.883300 5.251900
11.901600 5.256000
11.919800 5.248500
11.938100 5.398900
11.956400 5.709600
11.974700 5.885100
11.993000 5.964200
12.011300 5.892500
12.029500 5.689400
12.047800 5.500600
12.066100 5.250500
12.084400 5.132600
12.102700 5.140500
12.121000 4.932600
12.139200 4.695000
12.157500 4.394500
12.175800 4.320300
12.194100 4.259700
12.212400 4.208300
12.230700 4.080800
12.248900 4.031400
12.267200 4.044400
12.285500 4.122700
12.303800 4.319400
12.322100 4.387600
12.340400 4.256700
12.358600 4.040000
12.376900 3.818800
12.395200 3.617500
12.413500 3.450400
12.431800 3.306400
12.450100 3.260900
12.468300 3.246600
12.486600 3.238200
12.504900 3.253300
12.523200 3.261000
12.541500 3.349300
12.559800 3.503200
12.578000 3.679600
12.596300 3.910300
12.614600 4.489300
12.632900 5.136700
12.651200 4.359200
12.669500 4.190000
12.687700 5.211400
12.706000 5.482900
12.724300 5.175300
12.742600 5.412100
12.760900 6.158400
12.779200 6.886200
12.797500 7.402900
12.815700 6.877700
12.834000 6.085800
12.852300 5.593600
12.870600 5.073100
12.888900 4.679700
12.907200 4.353200
12.925400 4.073200
12.943700 3.823900
12.962000 3.620000
12.980300 3.446600
12.998600 3.238300
13.016900 3.264900
13.035100 3.281000
13.053400 3.276500
13.071700 3.327200
13.090000 3.390800
13.108300 3.459000
13.126600 3.442800
13.144800 3.526800
13.163100 3.602300
13.181400 3.761400
13.199700 3.998000
13.218000 4.252700
13.236300 4.127500
13.254500 4.061000
13.272800 4.063900
13.291100 4.042900
13.309400 3.989800
13.327700 3.899500
13.346000 3.798100
13.364200 3.721600
13.382500 3.636700
13.400800 3.621400
13.419100 3.659600
13.437400 3.817200
13.455700 4.081000
13.473900 4.342500
13.492200 4.459200
13.510500 4.628700
13.528800 4.845800
13.547100 5.128200
13.565400 5.055400
13.583600 4.716300
13.601900 4.551100
13.620200 4.452600
13.638500 4.418900
13.656800 4.375000
13.675100 4.172900
13.693300 3.940300
13.711600 4.094500
13.729900 4.283500
13.748200 4.456900
13.766500 5.213100
13.784800 5.357900
13.803000 5.529500
13.821300 5.776900
13.839600 5.886200
13.857900 5.816300
13.876200 5.515500
13.894500 5.425800
13.912800 5.529700
13.931000 5.629500
13.949300 5.654600
13.967600 5.654200
13.985900 5.572600
14.004200 5.444700
14.022500 5.511800
14.040700 5.448800
14.059000 5.258100
14.077300 5.019700
14.095600 4.817900
14.113900 4.823900
14.132200 4.953600
14.150400 4.990900
14.168700 5.096600
14.187000 5.170400
14.205300 4.897600
14.223600 4.566700
14.241900 4.439000
14.260100 4.366300
14.278400 4.309800
14.296700 4.210900
14.315000 4.308100
14.333300 4.267900
14.351600 4.467800
14.369800 4.750200
14.388100 4.953100
14.406400 5.121900
14.424700 5.252600
14.443000 5.300600
14.461300 5.632900
14.479500 5.501400
14.497800 5.459700
14.516100 5.375000
14.534400 5.551500
14.552700 5.936000
14.571000 6.194200
14.589200 6.292500
14.607500 6.343000
14.625800 6.474500
14.644100 6.318800
14.662400 6.179500
14.680700 6.106400
14.698900 5.956000
14.717200 5.701300
14.735500 5.424800
14.753800 5.156300
14.772100 4.958400
14.790400 4.813600
14.808600 5.041200
14.826900 5.495200
14.845200 5.705900
14.863500 5.932500
14.881800 6.138500
14.900100 6.309200
14.918300 6.339100
14.936600 6.358100
14.954900 6.351000
14.973200 6.323700
14.991500 6.270600
15.009800 6.163100
15.028100 5.999200
15.046300 6.282300
15.064600 6.197500
15.082900 5.646700
15.101200 4.904600
15.119500 4.395900
15.137800 4.116300
15.156000 4.084000
15.174300 4.106900
15.192600 4.183000
15.210900 4.366400
15.229200 4.650000
15.247500 4.385100
15.265700 4.402900
15.284000 4.557600
15.302300 4.818400
15.320600 5.278700
15.338900 5.327200
15.357200 5.248700
15.375400 5.165200
15.393700 5.076900
15.412000 4.992700
15.430300 4.945500
15.448600 4.860800
15.466900 4.736500
15.485100 4.684300
15.503400 4.755700
15.521700 4.840900
15.540000 4.935600
15.558300 5.660500
15.576600 5.896700
15.594800 6.158000
15.613100 6.411000
15.631400 6.470200
15.649700 6.214300
15.668000 5.823400
15.686300 5.487300
15.704500 5.256500
15.722800 5.089300
15.741100 4.957000
15.759400 4.903600
15.777700 4.826300
15.796000 4.592500
15.814200 4.334600
15.832500 4.251400
15.850800 4.231500
15.869100 4.243800
15.887400 4.286900
15.905700 4.325200
15.923900 4.192100
15.942200 4.112200
15.960500 4.352500
15.978800 4.860100
15.997100 5.209500
16.015400 5.347800
16.033600 5.620800
16.051900 5.869200
16.070200 6.038600
16.088500 6.034400
16.106800 5.921600
16.125100 5.822600
16.143400 5.647500
16.161600 5.328100
16.179900 5.286500
16.198200 5.269400
16.216500 5.285300
16.234800 5.144900
16.253100 5.074900
16.271300 5.036600
16.289600 5.054000
16.307900 5.108900
16.326200 5.237600
16.344500 5.395400
16.362800 5.558200
16.381000 5.703000
16.399300 5.730400
16.417600 5.907400
16.435900 6.098300
16.454200 6.007800
16.472500 5.914600
16.490700 5.971300
16.509000 5.961600
16.527300 5.943300
16.545600 6.311100
16.563900 6.394800
16.582200 6.448500
16.600400 6.465200
16.618700 6.474500
16.637000 6.516000
16.655300 6.534400
16.673600 6.212700
16.691900 5.916100
16.710100 5.649300
16.728400 5.423100
16.746700 5.200300
16.765000 4.952800
16.783300 4.700400
16.801600 4.488300
16.819800 4.334100
16.838100 4.243900
16.856400 4.212800
16.874700 4.234900
16.893000 4.226700
16.911300 4.185600
16.929500 4.175200
16.947800 4.205000
16.966100 4.204700
16.984400 4.223500
17.002700 4.234400
17.021000 4.236500
17.039200 4.248400
17.057500 4.277700
17.075800 4.323800
17.094100 4.359600
17.112400 4.357700
17.130700 4.423600
17.149000 4.482100
17.167200 4.538000
17.185500 4.618200
17.203800 4.721300
17.222100 4.825200
17.240400 4.924800
17.258700 5.026000
17.276900 5.182700
17.295200 5.271400
17.313500 5.309800
17.331800 5.351000
17.350100 5.301300
17.368400 5.549100
17.386600 5.639200
17.404900 5.756800
17.423200 5.970600
17.441500 5.985400
17.459800 5.950800
17.478100 5.978900
17.496300 6.039400
17.514600 6.122500
17.532900 6.166800
17.551200 6.078600
17.569500 6.023200
17.587800 6.005400
17.606000 6.040300
17.624300 6.029700
17.642600 5.803500
17.660900 5.613400
17.679200 5.460000
17.697500 5.324900
17.715700 5.200500
17.734000 5.116600
17.752300 5.065200
17.770600 4.873900
17.788900 4.740900
17.807200 4.715600
17.825400 4.685000
17.843700 4.684400
17.862000 4.735800
17.880300 4.858700
17.898600 4.996800
17.916900 5.093300
17.935100 5.173700
17.953400 5.214100
17.971700 5.237500
17.990000 5.294700
18.008300 5.324300
18.026600 5.308200
18.044800 5.294600
18.063100 5.298100
18.081400 5.342000
18.099700 5.399700
18.118000 5.357400
18.136300 5.402600
18.154500 5.488800
18.172800 5.667400
18.191100 5.906400
18.209400 5.920900
18.227700 5.938800
18.246000 5.923700
18.264300 5.764300
18.282500 5.572900
18.300800 5.439200
18.319100 5.377000
18.337400 5.351200
18.355700 5.302300
18.374000 5.251100
18.392200 5.142900
18.410500 5.374800
18.428800 5.299900
18.447100 5.131100
18.465400 5.068400
18.483700 5.057500
18.501900 5.045900
18.520200 5.063700
18.538500 5.237200
18.556800 5.183000
18.575100 4.990500
18.593400 4.826100
18.611600 4.710000
18.629900 4.639700
18.648200 4.624400
18.666500 4.788600
18.684800 4.965800
18.703100 5.106300
18.721300 5.367800
18.739600 5.887700
18.757900 6.619700
18.776200 7.209700
18.794500 6.884900
18.812800 6.207100
18.831000 5.548200
18.849300 5.005200
18.867600 4.676200
18.885900 4.559200
18.904200 4.640400
18.922500 4.757200
18.940700 4.908600
18.959000 5.087000
18.977300 5.390700
18.995600 5.706300
19.013900 5.968300
19.032200 6.148200
19.050400 6.164300
19.068700 5.950100
19.087000 5.773100
19.105300 5.602200
19.123600 5.411500
19.141900 5.209100
19.160100 5.001500
19.178400 4.833000
19.196700 4.791200
19.215000 4.765900
19.233300 4.726200
19.251600 4.690800
19.269800 4.661700
19.288100 4.647800
19.306400 4.600000
19.324700 4.524900
19.343000 4.593200
19.361300 4.771100
19.379600 5.241700
19.397800 5.842000
19.416100 6.407400
19.434400 6.887400
19.452700 7.262600
19.471000 7.558400
19.489300 7.585700
19.507500 7.458400
19.525800 7.440500
19.544100 7.251400
19.562400 6.814200
19.580700 6.174000
19.599000 5.591700
19.617200 5.249700
19.635500 5.163900
19.653800 5.213700
19.672100 5.278000
19.690400 5.802000
19.708700 6.150500
19.726900 6.366200
19.745200 6.467000
19.763500 6.796400
19.781800 7.082900
19.800100 7.098000
19.818400 6.857600
19.836600 6.521600
19.854900 6.327700
19.873200 6.116800
19.891500 5.848900
19.909800 5.580900
19.928100 5.370000
19.946300 5.222300
19.964600 5.127200
19.982900 5.143900
20.001200 5.518800
20.019500 5.399000
20.037800 5.469200
20.056000 5.615200
20.074300 5.659000
20.092600 5.581900
20.110900 5.512600
20.129200 5.501800
20.147500 5.534300
20.165700 5.709400
20.184000 5.823300
20.202300 5.485600
20.220600 5.365200
20.238900 5.272900
20.257200 5.205000
20.275400 5.177500
20.293700 5.083600
20.312000 4.986600
20.330300 5.430800
20.348600 6.467300
20.366900 6.853700
20.385100 7.071600
20.403400 7.065700
20.421700 6.899300
20.440000 6.661400
20.458300 6.428600
20.476600 6.167900
20.494900 5.909100
20.513100 5.612700
20.531400 5.121600
20.549700 4.618100
20.568000 4.460400
20.586300 4.500200
20.604600 4.537500
20.622800 4.500600
20.641100 4.562300
20.659400 4.679900
20.677700 4.982500
20.696000 5.280400
20.714300 5.340400
20.732500 5.511300
20.750800 5.344600
20.769100 5.208000
20.787400 5.017300
20.805700 4.820900
20.824000 4.618600
20.842200 4.478600
20.860500 4.420100
20.878800 4.420400
20.897100 4.492400
20.915400 4.639600
20.933700 4.814400
20.951900 5.022700
20.970200 5.316500
20.988500 5.700700
21.006800 6.076900
21.025100 6.430500
21.043400 6.619600
21.061600 6.892400
21.079900 6.869100
21.098200 6.120800
21.116500 5.722500
21.134800 5.443100
21.153100 5.245700
21.171300 5.104800
21.189600 4.984100
21.207900 4.911400
21.226200 4.878100
21.244500 4.889400
21.262800 4.985100
21.281000 5.367100
21.299300 5.547800
21.317600 5.643400
21.335900 5.844300
21.354200 5.809700
21.372500 5.590600
21.390700 5.360700
21.409000 5.338000
21.427300 5.416400
21.445600 5.493100
21.463900 5.577300
21.482200 5.689100
21.500500 5.810800
21.518700 5.991100
21.537000 5.838600
21.555300 5.547100
21.573600 5.452400
21.591900 5.411400
21.610200 5.629600
21.628400 5.929500
21.646700 6.167600
21.665000 6.149000
21.683300 5.997300
21.701600 6.167000
21.719900 6.332300
21.738100 6.265900
21.756400 6.219300
21.774700 6.142300
21.793000 6.120300
21.811300 6.140100
21.829600 6.150700
21.847800 6.147200
21.866100 6.508900
21.884400 7.390400
21.902700 7.734600
21.921000 7.798000
21.939300 7.706900
21.957500 7.341800
21.975800 6.515600
21.994100 5.991700
22.012400 5.645600
22.030700 5.545300
22.049000 5.656700
22.067200 5.882400
22.085500 6.064200
22.103800 6.255400
22.122100 6.429400
22.140400 6.474600
22.158700 6.447400
22.176900 6.405600
22.195200 6.348500
22.213500 6.555200
22.231800 6.529500
22.250100 6.497900
22.268400 6.385700
22.286600 6.059400
22.304900 5.760300
22.323200 5.518800
22.341500 5.357200
22.359800 5.371100
22.378100 5.696900
22.396300 5.823300
22.414600 5.954200
22.432900 6.000300
22.451200 6.102400
22.469500 6.462400
22.487800 6.528800
22.506000 6.616400
22.524300 6.782300
22.542600 6.570500
22.560900 6.110500
22.579200 5.671200
22.597500 5.451500
22.615800 5.319900
22.634000 5.249300
22.652300 5.283800
22.670600 5.455700
22.688900 5.736000
22.707200 5.961600
22.725500 6.154200
22.743700 6.097200
22.762000 6.072400
22.780300 6.080000
22.798600 6.090300
22.816900 6.268800
22.835200 7.104700
22.853400 7.090200
22.871700 6.117800
22.890000 5.941600
22.908300 5.936800
22.926600 5.976300
22.944900 6.001800
22.963100 6.165000
22.981400 6.280300
22.999700 6.066400
23.018000 5.870100
23.036300 5.612700
23.054600 5.190300
23.072800 4.913300
23.091100 4.777200
23.109400 4.962000
23.127700 5.038700
23.146000 5.148500
23.164300 5.302400
23.182500 5.296800
23.200800 5.158500
23.219100 5.038800
23.237400 5.011400
23.255700 5.030100
23.274000 5.047600
23.292200 5.121600
23.310500 5.282900
23.328800 5.730400
23.347100 5.901700
23.365400 6.198800
23.383700 6.165500
23.401900 6.043300
23.420200 5.882400
23.438500 5.736300
23.456800 5.643500
23.475100 5.722200
23.493400 5.951800
23.511600 6.523100
23.529900 7.341900
23.548200 8.176400
23.566500 8.306500
23.584800 7.938500
23.603100 7.547700
23.621300 7.253300
23.639600 7.051600
23.657900 6.833400
23.676200 6.645500
23.694500 6.350400
23.712800 6.971600
23.731100 6.488500
23.749300 5.055900
23.767600 4.523800
23.785900 4.429300
23.804200 4.400800
23.822500 4.384300
23.840800 4.378600
23.859000 4.714900
23.877300 4.894700
23.895600 5.231900
23.913900 5.577600
23.932200 5.726300
23.950500 5.907200
23.968700 6.104900
23.987000 6.349400
24.005300 6.855500
24.023600 7.298500
24.041900 7.936700
24.060200 8.262700
24.078400 7.761000
24.096700 6.814700
24.115000 5.691200
24.133300 5.151600
24.151600 4.782400
24.169900 4.605000
24.188100 4.576700
24.206400 4.681200
24.224700 4.848800
24.243000 5.039900
24.261300 5.246400
24.279600 5.422100
24.297800 5.460900
24.316100 5.469700
24.334400 5.459400
24.352700 5.357000
24.371000 5.344700
24.389300 5.449900
24.407500 5.654200
24.425800 5.834600
24.444100 5.957200
24.462400 6.101800
24.480700 6.307700
24.499000 6.757600
24.517200 5.981300
24.535500 6.072400
24.553800 7.238900
24.572100 6.874600
24.590400 7.313800
24.608700 7.005300
24.626900 6.703900
24.645200 6.502700
24.663500 6.422500
24.681800 6.892800
24.700100 7.321500
24.718400 7.527300
24.736600 7.516900
24.754900 7.442100
24.773200 6.897400
24.791500 6.495700
24.809800 5.919800
24.828100 5.528300
24.846400 5.220900
24.864600 5.139500
24.882900 5.215500
24.901200 5.430000
24.919500 5.844500
24.937800 6.227000
24.956100 6.240900
24.974300 6.481700
24.992600 6.957400
25.010900 7.691000
25.029200 7.673400
25.047500 7.531700
25.065800 7.660400
25.084000 7.737900
25.102300 7.669900
25.120600 6.620600
25.138900 5.988100
25.157200 5.046000
25.175500 4.005500
25.193700 3.282700
25.212000 3.581600
25.230300 4.138200
25.248600 4.738900
25.266900 5.846400
25.285200 7.318800
25.303400 8.657100
25.321700 7.929200
25.340000 7.177800
25.358300 6.611300
25.376600 6.254400
25.394900 5.957200
25.413100 5.490400
25.431400 5.054600
25.449700 4.769500
25.468000 4.497500
25.486300 4.261400
25.504600 4.198100
25.522800 4.423600
25.541100 4.576200
25.559400 4.768500
25.577700 4.927600
25.596000 5.045500
25.614300 5.220700
25.632500 5.352400
25.650800 5.495800
25.669100 5.632200
25.687400 5.707200
25.705700 5.882300
25.724000 6.022800
25.742200 6.434000
25.760500 6.589000
25.778800 6.661300
25.797100 6.688400
25.815400 6.590800
25.833700 6.388000
25.851900 5.980800
25.870200 5.542400
25.888500 5.243100
25.906800 5.104800
25.925100 5.610600
25.943400 5.953600
25.961700 6.564900
25.979900 7.294700
25.998200 7.463100
26.016500 7.615400
26.034800 7.776000
26.053100 7.859300
26.071400 7.941100
26.089600 7.981400
26.107900 8.036200
26.126200 7.688100
26.144500 7.610300
26.162800 7.456100
26.181100 7.218200
26.199300 7.166800
26.217600 7.079100
26.235900 6.648200
26.254200 6.161000
26.272500 5.867100
26.290800 6.049000
26.309000 6.332800
26.327300 6.645300
26.345600 6.890000
26.363900 7.374500
26.382200 7.394500
26.400500 7.225700
26.418700 7.200800
26.437000 6.847700
26.455300 6.466800
26.473600 5.999300
26.491900 5.658100
26.510200 5.494400
26.528400 5.453500
26.546700 5.441000
26.565000 5.567300
26.583300 5.730500
26.601600 5.875400
26.619900 6.085500
26.638100 6.273200
26.656400 6.368500
26.674700 6.354800
26.693000 6.334500
26.711300 6.348200
26.729600 6.366800
26.747800 6.265100
26.766100 6.123700
26.784400 6.068500
26.802700 5.923000
26.821000 5.913600
26.839300 6.035300
26.857500 6.267000
26.875800 6.411100
26.894100 6.521700
26.912400 6.102200
26.930700 5.832700
26.949000 5.595800
26.967300 5.411200
26.985500 5.380800
27.003800 5.703600
27.022100 5.725000
27.040400 4.769800
27.058700 4.167000
27.077000 3.632300
27.095200 3.272800
27.113500 2.981500
27.131800 2.736800
27.150100 2.572000
27.168400 2.466900
27.186700 2.379300
27.204900 2.303400
27.223200 2.231800
27.241500 2.122600
27.259800 2.072300
27.278100 2.005800
27.296400 1.951300
27.314600 1.886600
27.332900 1.805500
27.351200 1.830000
27.369500 1.580600
27.387800 1.456100
27.406100 1.413200
27.424300 1.360300
27.442600 1.308800
27.460900 1.260600
27.479200 1.208500
27.497500 1.154800
27.515800 1.107300
27.534000 1.066400
27.552300 1.029700
27.570600 0.996800
27.588900 0.967400
27.607200 0.942200
27.625500 0.921500
27.643700 0.901600
27.662000 0.881600
27.680300 0.862300
27.698600 0.843500
27.716900 0.825200
27.735200 0.807500
27.753400 0.790400
27.771700 0.773800
27.790000 0.758200
27.808300 0.743800
27.826600 0.730800
27.844900 0.714900
27.863100 0.699000
27.881400 0.686400
27.899700 0.675300
27.918000 0.665700
27.936300 0.658000
27.954600 0.651700
27.972800 0.645400
27.991100 0.639200
28.009400 0.644800
28.027700 0.628200
28.046000 0.597000
28.064300 0.570500
28.082600 0.546500
28.100800 0.523200
28.119100 0.500200
28.137400 0.479200
28.155700 0.460100
28.174000 0.437600
28.192300 0.412300
28.210500 0.386400
28.228800 0.359900
28.247100 0.332900
28.265400 0.306500
28.283700 0.265700
28.302000 0.208800
28.320200 0.168600
28.338500 0.142600
28.356800 0.123400
28.375100 0.109900
28.393400 0.101300
28.411700 0.094600
28.429900 0.088800
28.448200 0.083500
28.466500 0.078700
28.484800 0.074200
28.503100 0.070100
28.521400 0.066300
28.539600 0.062700
28.557900 0.059200
28.576200 0.055900
28.594500 0.052800
28.612800 0.049800
28.631100 0.047000
28.649300 0.044400
28.667600 0.042000
28.685900 0.039700
28.704200 0.037600
28.722500 0.035500
28.740800 0.033500
28.759000 0.031600
28.777300 0.029900
28.795600 0.028200
28.813900 0.026600
28.832200 0.025100
28.850500 0.023800
28.868700 0.022500
28.887000 0.021300
28.905300 0.020100
28.923600 0.019000
28.941900 0.017900
28.960200 0.016800
28.978400 0.015800
28.996700 0.014800
29.015000 0.013800
29.033300 0.012900
29.051600 0.012000
29.069900 0.011100
29.088100 0.010300
29.106400 0.009500
29.124700 0.008700
29.143000 0.008000
29.161300 0.007300
29.179600 0.006600
29.197900 0.006000
29.216100 0.005300
29.234400 0.004800
29.252700 0.004200
29.271000 0.003700
29.289300 0.003200
29.307600 0.002800
29.325800 0.002400
29.344100 0.002000
29.362400 0.001700
29.380700 0.001400
29.399000 0.001100
29.417300 0.000800
29.435500 0.000600
29.453800 0.000400
29.472100 0.000300
29.490400 0.000200
29.508700 0.000100
29.527000 0.000000
29.545200 0.000000
29.563500 0.000000
29.581800 0.000000
29.600100 0.000000
29.618400 0.000000
29.636700 0.000000
29.654900 0.000000
29.673200 0.000000
29.691500 0.000000
29.709800 0.000000
29.728100 0.000000
29.746400 0.000000
29.764600 0.000000
29.782900 0.000000
29.801200 0.000000
29.819500 0.000000
29.837800 0.000000
29.856100 0.000000
29.874300 0.000000
29.892600 0.000000
29.910900 0.000000
29.929200 0.000000
29.947500 0.000000
29.965800 0.000000
29.984000 0.000000
30.002300 0.000000
30.020600 0.000000
30.038900 0.000000
30.057200 0.000000
30.075500 0.000000
30.093700 0.000000
30.112000 0.000000
30.130300 0.000000
30.148600 0.000000
30.166900 0.000000
30.185200 0.000000
30.203400 0.000000
30.221700 0.000000
30.240000 0.000000
30.258300 0.000000
30.276600 0.000000
30.294900 0.000000
30.313200 0.000000
30.331400 0.000000
30.349700 0.000000
30.368000 0.000000
30.386300 0.000000
30.404600 0.000000
30.422900 0.000000
30.441100 0.000000
30.459400 0.000000
30.477700 0.000000
30.496000 0.000000
30.514300 0.000000
30.532600 0.000000
30.550800 0.000000
30.569100 0.000000
30.587400 0.000000
30.605700 0.000000
30.624000 0.000000
30.642300 0.000000
30.660500 0.000000
30.678800 0.000000
30.697100 0.000000
30.715400 0.000000
30.733700 0.000000
30.752000 0.000000
30.770200 0.000000
30.788500 0.000000
30.806800 0.000000
30.825100 0.000000
30.843400 0.000000
30.861700 0.000000
30.879900 0.000000
30.898200 0.000000
30.916500 0.000000
30.934800 0.000000
30.953100 0.000000
30.971400 0.000000
30.989600 0.000000
31.007900 0.000000
31.026200 0.000000
31.044500 0.000000
31.062800 0.000000
31.081100 0.000000
31.099300 0.000000
31.117600 0.000000
31.135900 0.000000
31.154200 0.000000
31.172500 0.000000
31.190800 0.000000
31.209000 0.000000
e
