set title 'mp-1223654 - Density of States'
set xlabel 'Energy (eV)'
set ylabel 'DOS (states/eV)'
set grid
set xrange [-10:10]
set yrange [0:60.448]
set xzeroaxis lt -1
set terminal png size 800,600
set output 'mp-1223654_dos_gnuplot.png'
plot '-' using 1:2 with lines title 'DOS'
-13.165800 0.000000
-13.136700 0.000000
-13.107700 0.000000
-13.078600 0.000000
-13.049600 0.000000
-13.020600 0.000000
-12.991500 0.000000
-12.962500 0.000000
-12.933400 0.000000
-12.904400 0.000000
-12.875300 0.000000
-12.846300 0.000000
-12.817300 0.000000
-12.788200 0.000000
-12.759200 0.000000
-12.730100 0.000000
-12.701100 0.000000
-12.672000 0.000000
-12.643000 0.000000
-12.614000 0.000000
-12.584900 0.000000
-12.555900 0.000000
-12.526800 0.000000
-12.497800 0.000000
-12.468800 0.000000
-12.439700 0.000000
-12.410700 0.000000
-12.381600 0.000000
-12.352600 0.000000
-12.323500 0.000000
-12.294500 0.000000
-12.265500 0.000000
-12.236400 0.000000
-12.207400 0.000000
-12.178300 0.000000
-12.149300 0.000000
-12.120200 0.000000
-12.091200 0.000000
-12.062200 0.000000
-12.033100 0.000000
-12.004100 0.000000
-11.975000 0.000000
-11.946000 0.000000
-11.916900 0.000000
-11.887900 0.000000
-11.858900 0.000000
-11.829800 0.000000
-11.800800 0.000000
-11.771700 0.000000
-11.742700 0.000000
-11.713600 0.000000
-11.684600 0.000000
-11.655600 0.000000
-11.626500 0.000000
-11.597500 0.000000
-11.568400 0.000000
-11.539400 0.000000
-11.510400 0.000000
-11.481300 0.000000
-11.452300 0.000000
-11.423200 0.000000
-11.394200 0.000000
-11.365100 0.000000
-11.336100 0.000000
-11.307100 0.000000
-11.278000 0.000000
-11.249000 0.000000
-11.219900 0.000000
-11.190900 0.000000
-11.161800 0.000000
-11.132800 0.000000
-11.103800 0.000000
-11.074700 0.000000
-11.045700 0.000000
-11.016600 0.000000
-10.987600 0.000000
-10.958500 0.000000
-10.929500 0.000000
-10.900500 0.000000
-10.871400 0.000000
-10.842400 0.000000
-10.813300 0.000000
-10.784300 0.000000
-10.755200 0.000000
-10.726200 0.000000
-10.697200 0.000000
-10.668100 0.000000
-10.639100 0.000000
-10.610000 0.000000
-10.581000 0.000000
-10.552000 0.000000
-10.522900 2.538700
-10.493900 13.861000
-10.464800 20.084400
-10.435800 8.028000
-10.406700 43.295100
-10.377700 27.993300
-10.348700 63.496900
-10.319600 78.755300
-10.290600 59.525400
-10.261500 12.702800
-10.232500 37.794300
-10.203400 12.626200
-10.174400 0.000000
-10.145400 0.000000
-10.116300 0.000000
-10.087300 0.000000
-10.058200 0.000000
-10.029200 0.000000
-10.000100 0.000000
-9.971100 0.000000
-9.942100 0.000000
-9.913000 0.000000
-9.884000 0.000000
-9.854900 0.000000
-9.825900 0.000000
-9.796900 0.000000
-9.767800 0.000000
-9.738800 0.000000
-9.709700 0.000000
-9.680700 0.000000
-9.651600 0.000000
-9.622600 0.000000
-9.593600 0.000000
-9.564500 0.000000
-9.535500 0.000000
-9.506400 0.000000
-9.477400 0.000000
-9.448300 0.000000
-9.419300 0.000000
-9.390300 0.000000
-9.361200 0.000000
-9.332200 0.000000
-9.303100 0.000000
-9.274100 0.000000
-9.245000 0.000000
-9.216000 0.000000
-9.187000 0.000000
-9.157900 0.000000
-9.128900 0.000000
-9.099800 0.000000
-9.070800 0.000000
-9.041700 0.000000
-9.012700 0.000000
-8.983700 0.000000
-8.954600 0.000000
-8.925600 0.000000
-8.896500 0.000000
-8.867500 0.000000
-8.838500 0.000000
-8.809400 0.000000
-8.780400 0.000000
-8.751300 0.000000
-8.722300 0.000000
-8.693200 0.000000
-8.664200 0.000000
-8.635200 0.000000
-8.606100 0.000000
-8.577100 0.000000
-8.548000 0.000000
-8.519000 0.000000
-8.489900 0.000000
-8.460900 0.000000
-8.431900 0.000000
-8.402800 0.000000
-8.373800 0.000000
-8.344700 0.000000
-8.315700 0.000000
-8.286600 0.000000
-8.257600 0.000000
-8.228600 0.000000
-8.199500 0.000000
-8.170500 0.000000
-8.141400 0.000000
-8.112400 0.000000
-8.083300 0.000000
-8.054300 0.000000
-8.025300 0.000000
-7.996200 0.000000
-7.967200 9.369200
-7.938100 18.832300
-7.909100 28.640600
-7.880100 54.952400
-7.851000 11.831800
-7.822000 32.913900
-7.792900 53.234800
-7.763900 18.086600
-7.734800 47.631900
-7.705800 17.700700
-7.676800 0.000000
-7.647700 0.000000
-7.618700 0.000000
-7.589600 0.000000
-7.560600 0.000000
-7.531500 0.000000
-7.502500 0.000000
-7.473500 0.000000
-7.444400 0.000000
-7.415400 0.000000
-7.386300 0.000000
-7.357300 0.000000
-7.328200 0.000000
-7.299200 0.000000
-7.270200 0.000000
-7.241100 0.000000
-7.212100 0.000000
-7.183000 0.000000
-7.154000 0.000000
-7.125000 0.000000
-7.095900 0.000000
-7.066900 0.000000
-7.037800 0.000000
-7.008800 0.000000
-6.979700 0.000000
-6.950700 0.000000
-6.921700 0.000000
-6.892600 0.000000
-6.863600 0.000000
-6.834500 0.000000
-6.805500 0.000000
-6.776400 0.000000
-6.747400 0.000000
-6.718400 0.000000
-6.689300 0.000000
-6.660300 0.000000
-6.631200 0.000000
-6.602200 0.000000
-6.573100 0.000000
-6.544100 0.000000
-6.515100 0.000000
-6.486000 0.000000
-6.457000 0.000000
-6.427900 0.000000
-6.398900 0.000000
-6.369800 0.000000
-6.340800 0.000000
-6.311800 0.000000
-6.282700 0.000000
-6.253700 0.000000
-6.224600 0.000000
-6.195600 0.000000
-6.166600 0.000000
-6.137500 0.000000
-6.108500 0.000000
-6.079400 0.000000
-6.050400 0.000000
-6.021300 0.000000
-5.992300 0.000000
-5.963300 0.000000
-5.934200 0.000000
-5.905200 0.000000
-5.876100 0.000000
-5.847100 0.000000
-5.818000 0.000000
-5.789000 0.000000
-5.760000 0.000000
-5.730900 0.000000
-5.701900 0.000000
-5.672800 0.000000
-5.643800 0.000000
-5.614700 0.000000
-5.585700 0.000000
-5.556700 0.000000
-5.527600 0.000000
-5.498600 0.000000
-5.469500 0.000000
-5.440500 0.000000
-5.411400 0.000000
-5.382400 0.000000
-5.353400 0.000000
-5.324300 0.000000
-5.295300 0.000000
-5.266200 0.000000
-5.237200 0.000000
-5.208200 0.000000
-5.179100 0.000000
-5.150100 0.000000
-5.121000 0.000000
-5.092000 0.000000
-5.062900 0.000000
-5.033900 0.000000
-5.004900 0.000000
-4.975800 0.000000
-4.946800 0.000000
-4.917700 0.000000
-4.888700 0.000000
-4.859600 0.000000
-4.830600 0.000000
-4.801600 0.000000
-4.772500 0.000000
-4.743500 0.000000
-4.714400 0.000000
-4.685400 0.000000
-4.656300 0.000000
-4.627300 0.000000
-4.598300 0.000000
-4.569200 0.000000
-4.540200 0.000000
-4.511100 0.000000
-4.482100 0.000000
-4.453100 0.000000
-4.424000 0.000000
-4.395000 0.000000
-4.365900 0.000000
-4.336900 0.000000
-4.307800 0.000000
-4.278800 0.000000
-4.249800 0.000000
-4.220700 0.000000
-4.191700 0.000000
-4.162600 0.000000
-4.133600 0.000000
-4.104500 0.000000
-4.075500 0.000000
-4.046500 0.016000
-4.017400 0.058600
-3.988400 0.114200
-3.959300 0.179700
-3.930300 0.177100
-3.901200 0.195500
-3.872200 0.214100
-3.843200 0.237100
-3.814100 0.260700
-3.785100 0.285200
-3.756000 0.311400
-3.727000 0.342000
-3.697900 0.374800
-3.668900 0.414400
-3.639900 0.442800
-3.610800 0.459300
-3.581800 0.436800
-3.552700 0.424900
-3.523700 0.430200
-3.494700 0.435300
-3.465600 0.439900
-3.436600 0.444000
-3.407500 0.447600
-3.378500 0.449900
-3.349400 0.450300
-3.320400 0.448500
-3.291400 0.447800
-3.262300 0.445100
-3.233300 0.443500
-3.204200 0.445000
-3.175200 0.446600
-3.146100 0.448100
-3.117100 0.449400
-3.088100 0.450500
-3.059000 0.451300
-3.030000 0.452000
-3.000900 0.452900
-2.971900 0.453500
-2.942800 0.453900
-2.913800 0.453200
-2.884800 0.451000
-2.855700 0.452600
-2.826700 0.454300
-2.797600 0.456300
-2.768600 0.458400
-2.739500 0.460700
-2.710500 0.463200
-2.681500 0.465000
-2.652400 0.466600
-2.623400 0.467700
-2.594300 0.468500
-2.565300 0.469800
-2.536300 0.471300
-2.507200 0.472900
-2.478200 0.474500
-2.449100 0.476000
-2.420100 0.477500
-2.391000 0.478800
-2.362000 0.480000
-2.333000 0.480500
-2.303900 0.481400
-2.274900 0.482600
-2.245800 0.484600
-2.216800 0.487200
-2.187700 0.489900
-2.158700 0.492700
-2.129700 0.495500
-2.100600 0.498400
-2.071600 0.501300
-2.042500 0.504300
-2.013500 0.507400
-1.984400 0.510500
-1.955400 0.514000
-1.926400 0.517900
-1.897300 0.521800
-1.868300 0.526000
-1.839200 0.530200
-1.810200 0.534600
-1.781200 0.539200
-1.752100 0.544300
-1.723100 0.549800
-1.694000 0.555800
-1.665000 0.562400
-1.635900 0.569700
-1.606900 0.576700
-1.577900 0.583900
-1.548800 0.591300
-1.519800 0.598800
-1.490700 0.606700
-1.461700 0.615000
-1.432600 0.623500
-1.403600 0.632900
-1.374600 0.642900
-1.345500 0.653500
-1.316500 0.664700
-1.287400 0.676500
-1.258400 0.688900
-1.229300 0.703200
-1.200300 0.724300
-1.171300 0.750900
-1.142200 0.782700
-1.113200 0.818300
-1.084100 0.857600
-1.055100 0.901800
-1.026000 0.959300
-0.997000 1.236200
-0.968000 1.337800
-0.938900 1.298500
-0.909900 1.281500
-0.880800 1.357900
-0.851800 1.353600
-0.822800 1.003500
-0.793700 0.889600
-0.764700 0.831300
-0.735600 0.773700
-0.706600 0.724600
-0.677500 0.719400
-0.648500 0.745700
-0.619500 0.824600
-0.590400 0.862800
-0.561400 0.866400
-0.532300 0.835100
-0.503300 0.753900
-0.474200 0.679000
-0.445200 0.553900
-0.416200 0.427700
-0.387100 0.300500
-0.358100 0.173000
-0.329000 0.171000
-0.300000 0.176300
-0.270900 0.181700
-0.241900 0.187100
-0.212900 0.192500
-0.183800 0.198000
-0.154800 0.203600
-0.125700 0.209200
-0.096700 0.214900
-0.067700 0.219100
-0.038600 0.222500
-0.009600 0.225700
0.019500 0.229500
0.048500 0.233500
0.077600 0.237500
0.106600 0.241500
0.135600 0.245600
0.164700 0.249700
0.193700 0.253900
0.222800 0.258200
0.251800 0.262600
0.280900 0.267000
0.309900 0.271500
0.338900 0.276200
0.368000 0.280900
0.397000 0.285700
0.426100 0.290500
0.455100 0.295400
0.484200 0.300400
0.513200 0.305400
0.542200 0.310500
0.571300 0.314900
0.600300 0.319200
0.629400 0.323500
0.658400 0.327800
0.687500 0.332300
0.716500 0.337000
0.745500 0.341800
0.774600 0.346700
0.803600 0.351800
0.832700 0.356900
0.861700 0.362100
0.890700 0.367300
0.919800 0.373400
0.948800 0.380900
0.977900 0.389000
1.006900 0.397500
1.036000 0.406500
1.065000 0.416900
1.094000 0.435700
1.123100 0.449300
1.152100 0.457700
1.181200 0.460700
1.210200 0.458500
1.239300 0.456500
1.268300 0.462800
1.297300 0.468400
1.326400 0.473100
1.355400 0.477100
1.384500 0.476300
1.413500 0.474400
1.442600 0.473900
1.471600 0.475000
1.500600 0.477500
1.529700 0.481400
1.558700 0.485600
1.587800 0.489400
1.616800 0.493200
1.645900 0.497100
1.674900 0.501100
1.703900 0.505500
1.733000 0.510300
1.762000 0.515400
1.791100 0.520900
1.820100 0.527100
1.849100 0.535100
1.878200 0.543400
1.907200 0.552900
1.936300 0.564600
1.965300 0.579300
1.994400 0.615600
2.023400 0.686300
2.052400 0.793100
2.081500 0.883500
2.110500 0.922800
2.139600 0.968700
2.168600 0.921100
2.197700 0.893700
2.226700 0.909900
2.255700 0.925000
2.284800 0.939300
2.313800 0.957200
2.342900 0.977800
2.371900 0.974300
2.401000 0.966300
2.430000 0.973300
2.459000 0.980200
2.488100 0.987600
2.517100 0.996600
2.546200 1.009500
2.575200 1.026200
2.604200 1.038400
2.633300 1.062900
2.662300 1.112400
2.691400 1.189600
2.720400 1.165300
2.749500 1.118200
2.778500 1.030400
2.807500 0.953600
2.836600 0.921500
2.865600 0.915000
2.894700 0.938600
2.923700 0.964000
2.952800 0.918000
2.981800 0.620600
3.010800 0.536000
3.039900 0.490700
3.068900 0.454700
3.098000 0.428500
3.127000 0.412100
3.156100 0.438100
3.185100 0.413700
3.214100 0.336000
3.243200 0.368200
3.272200 0.300600
3.301300 0.170200
3.330300 0.082200
3.359400 0.144600
3.388400 0.189700
3.417400 0.217300
3.446500 0.244600
3.475500 0.268400
3.504600 0.288700
3.533600 0.303600
3.562600 0.307600
3.591700 0.309300
3.620700 0.312300
3.649800 0.318800
3.678800 0.328500
3.707900 0.341700
3.736900 0.357200
3.765900 0.373200
3.795000 0.389200
3.824000 0.406300
3.853100 0.427000
3.882100 0.459200
3.911200 0.501300
3.940200 0.526700
3.969200 0.533000
3.998300 0.548000
4.027300 0.567200
4.056400 0.587200
4.085400 0.607600
4.114500 0.628500
4.143500 0.650300
4.172500 0.670400
4.201600 0.687900
4.230600 0.703700
4.259700 0.718100
4.288700 0.731700
4.317800 0.746000
4.346800 0.760100
4.375800 0.774100
4.404900 0.788100
4.433900 0.803800
4.463000 0.829200
4.492000 0.840500
4.521000 0.849400
4.550100 0.862100
4.579100 0.889900
4.608200 0.921200
4.637200 0.953600
4.666300 0.983600
4.695300 1.030500
4.724300 1.063100
4.753400 1.070400
4.782400 1.083700
4.811500 1.122900
4.840500 1.167200
4.869600 1.232200
4.898600 1.295000
4.927600 1.325800
4.956700 1.320100
4.985700 1.311200
5.014800 1.307600
5.043800 1.362500
5.072900 1.407000
5.101900 1.440400
5.130900 1.472000
5.160000 1.496700
5.189000 1.511300
5.218100 1.543500
5.247100 1.598700
5.276100 1.544200
5.305200 1.496800
5.334200 1.429800
5.363300 1.389400
5.392300 1.358000
5.421400 1.332400
5.450400 1.303400
5.479400 1.276800
5.508500 1.240400
5.537500 1.194200
5.566600 1.138600
5.595600 1.074400
5.624700 1.024500
5.653700 0.986300
5.682700 0.954000
5.711800 0.975200
5.740800 0.995100
5.769900 1.006400
5.798900 0.982500
5.828000 0.971500
5.857000 0.973500
5.886000 0.981100
5.915100 0.996700
5.944100 1.049600
5.973200 1.089400
6.002200 1.087100
6.031300 1.093800
6.060300 0.937700
6.089300 0.923700
6.118400 0.915100
6.147400 0.909800
6.176500 0.906400
6.205500 0.903600
6.234500 0.901800
6.263600 0.900800
6.292600 0.901000
6.321700 0.901900
6.350700 0.907000
6.379800 0.922100
6.408800 0.951700
6.437800 0.967900
6.466900 0.967100
6.495900 0.967100
6.525000 0.992700
6.554000 0.963700
6.583100 0.929400
6.612100 0.905100
6.641100 0.895100
6.670200 0.890600
6.699200 0.888600
6.728300 0.893900
6.757300 0.901400
6.786400 0.911100
6.815400 0.923000
6.844400 0.936200
6.873500 0.951500
6.902500 0.968200
6.931600 0.982800
6.960600 0.996600
6.989700 1.019100
7.018700 1.046100
7.047700 1.069200
7.076800 1.088500
7.105800 1.103700
7.134900 1.115400
7.163900 1.125400
7.192900 1.136400
7.222000 1.152500
7.251000 1.163400
7.280100 1.165600
7.309100 1.166900
7.338200 1.164800
7.367200 1.156400
7.396200 1.145400
7.425300 1.135600
7.454300 1.128300
7.483400 1.123600
7.512400 1.121600
7.541500 1.122800
7.570500 1.126200
7.599500 1.130400
7.628600 1.135100
7.657600 1.139600
7.686700 1.143100
7.715700 1.148800
7.744800 1.155900
7.773800 1.159500
7.802800 1.162500
7.831900 1.164600
7.860900 1.165200
7.890000 1.165300
7.919000 1.167200
7.948000 1.170300
7.977100 1.172400
8.006100 1.173600
8.035200 1.173400
8.064200 1.173700
8.093300 1.177900
8.122300 1.183500
8.151300 1.185900
8.180400 1.188900
8.209400 1.205100
8.238500 1.215700
8.267500 1.222700
8.296600 1.227200
8.325600 1.230600
8.354600 1.172600
8.383700 1.145500
8.412700 1.138200
8.441800 1.129100
8.470800 1.126900
8.499900 1.131700
8.528900 1.149900
8.557900 1.165400
8.587000 1.175700
8.616000 1.187100
8.645100 1.200000
8.674100 1.212800
8.703200 1.225700
8.732200 1.239200
8.761200 1.253500
8.790300 1.268700
8.819300 1.286900
8.848400 1.354100
8.877400 1.354400
8.906400 1.364900
8.935500 1.386600
8.964500 1.422100
8.993600 1.475100
9.022600 1.513200
9.051700 1.526100
9.080700 1.520600
9.109700 1.511700
9.138800 1.487000
9.167800 1.469100
9.196900 1.464300
9.225900 1.468100
9.255000 1.470400
9.284000 1.484700
9.313000 1.504500
9.342100 1.522500
9.371100 1.541200
9.400200 1.559000
9.429200 1.574100
9.458300 1.587300
9.487300 1.590600
9.516300 1.597500
9.545400 1.621800
9.574400 1.646000
9.603500 1.661900
9.632500 1.672600
9.661600 1.669000
9.690600 1.652600
9.719600 1.588100
9.748700 1.539700
9.777700 1.526600
9.806800 1.516800
9.835800 1.513400
9.864800 1.507100
9.893900 1.495500
9.922900 1.479700
9.952000 1.508600
9.981000 1.488700
10.010100 1.466100
10.039100 1.444700
10.068100 1.424400
10.097200 1.390600
10.126200 1.357500
10.155300 1.332400
10.184300 1.310900
10.213400 1.291000
10.242400 1.299000
10.271400 1.335100
10.300500 1.359000
10.329500 1.354500
10.358600 1.333300
10.387600 1.294900
10.416700 1.289000
10.445700 1.284300
10.474700 1.275800
10.503800 1.268400
10.532800 1.328000
10.561900 1.306900
10.590900 1.303600
10.619900 1.313000
10.649000 1.323800
10.678000 1.337700
10.707100 1.359000
10.736100 1.387200
10.765200 1.257000
10.794200 1.261000
10.823200 1.269400
10.852300 1.284100
10.881300 1.308500
10.910400 1.320500
10.939400 1.327600
10.968500 1.329900
10.997500 1.328000
11.026500 1.331100
11.055600 1.332000
11.084600 1.328700
11.113700 1.322000
11.142700 1.316600
11.171800 1.315900
11.200800 1.360300
11.229800 1.342900
11.258900 1.347100
11.287900 1.348700
11.317000 1.343700
11.346000 1.332000
11.375100 1.320700
11.404100 1.311000
11.433100 1.303200
11.462200 1.299700
11.491200 1.303000
11.520300 1.306800
11.549300 1.311200
11.578300 1.314100
11.607400 1.310800
11.636400 1.304300
11.665500 1.295900
11.694500 1.286400
11.723600 1.277000
11.752600 1.267500
11.781600 1.257000
11.810700 1.244800
11.839700 1.231100
11.868800 1.218600
11.897800 1.207800
11.926900 1.198700
11.955900 1.190100
11.984900 1.181600
12.014000 1.173600
12.043000 1.169600
12.072100 1.162500
12.101100 1.155400
12.130200 1.149100
12.159200 1.143400
12.188200 1.137900
12.217300 1.134900
12.246300 1.135300
12.275400 1.136800
12.304400 1.139600
12.333500 1.145100
12.362500 1.154600
12.391500 1.165500
12.420600 1.177400
12.449600 1.190200
12.478700 1.194400
12.507700 1.194400
12.536700 1.187600
12.565800 1.175700
12.594800 1.162100
12.623900 1.144600
12.652900 1.126100
12.682000 1.106100
12.711000 1.083400
12.740000 1.058300
12.769100 1.031900
12.798100 1.006100
12.827200 0.984500
12.856200 0.967300
12.885300 0.937100
12.914300 0.902700
12.943300 0.889500
12.972400 0.876200
13.001400 0.864400
13.030500 0.853300
13.059500 0.862500
13.088600 0.879700
13.117600 0.901200
13.146600 0.948900
13.175700 1.015000
13.204700 1.045200
13.233800 1.045800
13.262800 1.039600
13.291800 1.025300
13.320900 1.014800
13.349900 1.011600
13.379000 1.013700
13.408000 1.016300
13.437100 1.019100
13.466100 1.022700
13.495100 1.032100
13.524200 1.045500
13.553200 1.061400
13.582300 1.079500
13.611300 1.084600
13.640400 1.083500
13.669400 1.094500
13.698400 1.112400
13.727500 1.129800
13.756500 1.144200
13.785600 1.163900
13.814600 1.150500
13.843700 1.164100
13.872700 1.183500
13.901700 1.204700
13.930800 1.227700
13.959800 1.281200
13.988900 1.270000
14.017900 1.288900
14.047000 1.306600
14.076000 1.322800
14.105000 1.340700
14.134100 1.357200
14.163100 1.373000
14.192200 1.387500
14.221200 1.389600
14.250200 1.385800
14.279300 1.381600
14.308300 1.373700
14.337400 1.378000
14.366400 1.386200
14.395500 1.396900
14.424500 1.409000
14.453500 1.423100
14.482600 1.443900
14.511600 1.466300
14.540700 1.500200
14.569700 1.547300
14.598800 1.589500
14.627800 1.620300
14.656800 1.645900
14.685900 1.667000
14.714900 1.677000
14.744000 1.673300
14.773000 1.662700
14.802100 1.649800
14.831100 1.635900
14.860100 1.620900
14.889200 1.612300
14.918200 1.603700
14.947300 1.591500
14.976300 1.579900
15.005300 1.570700
15.034400 1.562700
15.063400 1.532100
15.092500 1.475200
15.121500 1.437700
15.150600 1.433900
15.179600 1.432800
15.208600 1.446100
15.237700 1.453000
15.266700 1.460600
15.295800 1.473200
15.324800 1.484800
15.353900 1.494600
15.382900 1.511000
15.411900 1.527500
15.441000 1.558600
15.470000 1.586600
15.499100 1.606200
15.528100 1.629600
15.557200 1.653900
15.586200 1.655800
15.615200 1.723600
15.644300 1.754300
15.673300 1.726700
15.702400 1.708200
15.731400 1.698600
15.760500 1.700400
15.789500 1.708100
15.818500 1.722900
15.847600 1.743200
15.876600 1.772500
15.905700 1.807400
15.934700 1.845500
15.963700 1.879400
15.992800 1.909200
16.021800 1.935600
16.050900 1.966300
16.079900 2.006900
16.109000 2.021000
16.138000 1.995500
16.167000 1.956900
16.196100 1.925200
16.225100 1.902000
16.254200 1.864300
16.283200 1.816900
16.312300 1.788900
16.341300 1.765700
16.370300 1.753000
16.399400 1.768500
16.428400 1.725800
16.457500 1.665900
16.486500 1.633500
16.515600 1.622500
16.544600 1.637900
16.573600 1.646000
16.602700 1.647400
16.631700 1.675900
16.660800 1.817200
16.689800 1.819600
16.718900 1.849200
16.747900 1.698200
16.776900 1.553100
16.806000 1.449700
16.835000 1.371300
16.864100 1.290300
16.893100 1.207300
16.922100 1.100000
16.951200 0.996600
16.980200 0.930900
17.009300 0.890000
17.038300 0.852700
17.067400 0.818700
17.096400 0.787900
17.125400 0.760500
17.154500 0.736200
17.183500 0.714100
17.212600 0.694800
17.241600 0.680500
17.270700 0.670300
17.299700 0.681000
17.328700 0.672000
17.357800 0.668500
17.386800 0.708000
17.415900 0.732100
17.444900 0.758300
17.474000 0.791400
17.503000 0.833400
17.532000 0.865600
17.561100 0.885200
17.590100 0.896200
17.619200 0.904500
17.648200 0.925100
17.677200 0.947200
17.706300 0.976400
17.735300 1.013300
17.764400 1.044500
17.793400 1.076100
17.822500 1.107500
17.851500 1.143600
17.880500 1.199300
17.909600 1.300800
17.938600 1.346400
17.967700 1.412600
17.996700 1.477000
18.025800 1.532300
18.054800 1.580000
18.083800 1.638500
18.112900 1.733000
18.141900 1.791200
18.171000 1.836700
18.200000 1.864700
18.229100 2.002500
18.258100 2.001400
18.287100 2.029100
18.316200 2.048000
18.345200 2.042500
18.374300 2.039900
18.403300 2.038300
18.432400 2.050000
18.461400 2.091000
18.490400 2.184200
18.519500 2.217800
18.548500 2.171300
18.577600 2.073200
18.606600 2.052800
18.635600 2.011900
18.664700 1.955500
18.693700 1.899400
18.722800 1.876400
18.751800 1.882400
18.780900 1.861100
18.809900 1.789800
18.838900 1.712600
18.868000 1.645300
18.897000 1.589400
18.926100 1.536200
18.955100 1.494900
18.984200 1.462400
19.013200 1.434800
19.042200 1.426300
19.071300 1.428000
19.100300 1.429600
19.129400 1.434600
19.158400 1.474800
19.187500 1.529100
19.216500 1.591000
19.245500 1.634300
19.274600 1.657400
19.303600 1.687700
19.332700 1.776900
19.361700 1.890100
19.390800 1.928900
19.419800 1.941600
19.448800 1.926200
19.477900 1.928000
19.506900 1.954100
19.536000 2.000400
19.565000 2.051400
19.594000 2.051800
19.623100 2.091700
19.652100 2.014700
19.681200 2.009200
19.710200 2.003500
19.739300 1.970400
19.768300 1.911700
19.797300 1.862400
19.826400 1.862900
19.855400 1.871300
19.884500 1.894200
19.913500 1.920000
19.942600 1.896200
19.971600 1.903000
20.000600 1.967300
20.029700 2.020000
20.058700 2.071300
20.087800 2.127300
20.116800 2.327800
20.145900 2.257500
20.174900 2.261200
20.203900 2.266800
20.233000 2.096500
20.262000 2.087900
20.291100 2.081800
20.320100 2.064500
20.349100 2.053200
20.378200 2.041500
20.407200 2.030300
20.436300 2.031400
20.465300 2.002600
20.494400 2.040900
20.523400 2.047200
20.552400 2.049700
20.581500 2.051400
20.610500 2.059100
20.639600 2.090200
20.668600 2.123000
20.697700 2.166400
20.726700 2.235400
20.755700 2.267500
20.784800 2.312200
20.813800 2.370900
20.842900 2.418200
20.871900 2.455400
20.901000 2.481500
20.930000 2.524000
20.959000 2.455300
20.988100 2.376000
21.017100 2.348700
21.046200 2.311900
21.075200 2.323900
21.104300 2.324600
21.133300 2.307300
21.162300 2.313500
21.191400 2.323800
21.220400 2.376100
21.249500 2.389400
21.278500 2.407800
21.307500 2.416700
21.336600 2.408400
21.365600 2.387400
21.394700 2.360200
21.423700 2.353000
21.452800 2.280500
21.481800 2.263500
21.510800 2.241300
21.539900 2.204600
21.568900 2.182300
21.598000 2.189300
21.627000 2.206700
21.656100 2.227200
21.685100 2.249300
21.714100 2.266400
21.743200 2.304200
21.772200 2.358200
21.801300 2.411900
21.830300 2.435700
21.859400 2.453300
21.888400 2.486100
21.917400 2.499200
21.946500 2.509400
21.975500 2.505500
22.004600 2.492800
22.033600 2.439300
22.062700 2.389400
22.091700 2.359100
22.120700 2.331700
22.149800 2.304500
22.178800 2.280500
22.207900 2.276800
22.236900 2.322800
22.265900 2.322100
22.295000 2.307500
22.324000 2.274900
22.353100 2.234500
22.382100 2.175300
22.411200 2.147100
22.440200 2.130500
22.469200 2.131500
22.498300 2.142600
22.527300 2.159100
22.556400 2.179900
22.585400 2.202300
22.614500 2.223900
22.643500 2.254700
22.672500 2.284800
22.701600 2.304200
22.730600 2.343800
22.759700 2.364700
22.788700 2.344900
22.817800 2.325300
22.846800 2.323100
22.875800 2.316800
22.904900 2.298400
22.933900 2.278900
22.963000 2.259500
22.992000 2.246900
23.021000 2.242400
23.050100 2.244100
23.079100 2.263400
23.108200 2.265500
23.137200 2.306000
23.166300 2.302600
23.195300 2.277000
23.224300 2.297000
23.253400 2.323200
23.282400 2.363500
23.311500 2.415400
23.340500 2.451500
23.369600 2.475200
23.398600 2.515100
23.427600 2.551900
23.456700 2.584900
23.485700 2.668400
23.514800 2.584700
23.543800 2.608100
23.572900 2.608100
23.601900 2.554400
23.630900 2.470000
23.660000 2.388000
23.689000 2.375300
23.718100 2.362800
23.747100 2.350500
23.776200 2.346000
23.805200 2.363700
23.834200 2.407500
23.863300 2.455400
23.892300 2.528800
23.921400 2.542500
23.950400 2.497100
23.979400 2.445900
24.008500 2.492100
24.037500 2.520100
24.066600 2.628400
24.095600 2.628200
24.124700 2.597000
24.153700 2.554300
24.182700 2.547200
24.211800 2.538100
24.240800 2.517100
24.269900 2.547000
24.298900 2.460100
24.328000 2.449900
24.357000 2.447700
24.386000 2.455300
24.415100 2.445500
24.444100 2.402600
24.473200 2.352500
24.502200 2.300200
24.531300 2.251700
24.560300 2.209100
24.589300 2.172600
24.618400 2.141700
24.647400 2.127600
24.676500 2.099100
24.705500 2.070200
24.734600 2.065800
24.763600 2.075400
24.792600 2.091500
24.821700 2.120700
24.850700 2.135800
24.879800 2.139800
24.908800 2.149500
24.937800 2.166900
24.966900 2.185400
24.995900 2.203300
25.025000 2.220400
25.054000 2.238700
25.083100 2.259900
25.112100 2.280400
25.141100 2.299600
25.170200 2.322700
25.199200 2.358400
25.228300 2.351900
25.257300 2.286400
25.286400 2.235400
25.315400 2.206400
25.344400 2.199100
25.373500 2.212700
25.402500 2.230800
25.431600 2.229800
25.460600 2.206900
25.489700 2.206500
25.518700 2.255400
25.547700 2.256500
25.576800 2.302500
25.605800 2.359600
25.634900 2.472900
25.663900 2.528700
25.692900 2.596200
25.722000 2.687900
25.751000 2.804300
25.780100 2.760900
25.809100 2.836100
25.838200 2.907400
25.867200 3.012700
25.896200 2.998100
25.925300 2.879300
25.954300 2.780100
25.983400 2.609500
26.012400 2.571700
26.041500 2.599600
26.070500 2.569000
26.099500 2.562900
26.128600 2.635800
26.157600 2.675700
26.186700 2.702300
26.215700 2.733300
26.244800 2.753900
26.273800 2.733200
26.302800 2.718200
26.331900 2.696100
26.360900 2.675000
26.390000 2.664900
26.419000 2.676300
26.448100 2.716800
26.477100 2.732300
26.506100 2.746300
26.535200 2.764600
26.564200 2.747900
26.593300 2.724700
26.622300 2.721900
26.651300 2.740900
26.680400 2.767900
26.709400 2.814600
26.738500 2.834900
26.767500 2.803500
26.796600 2.791900
26.825600 2.793200
26.854600 2.797400
26.883700 2.802000
26.912700 2.819300
26.941800 2.888800
26.970800 2.980300
26.999900 2.996900
27.028900 2.909900
27.057900 2.873200
27.087000 2.863900
27.116000 2.846900
27.145100 2.832600
27.174100 2.930400
27.203200 2.951000
27.232200 2.903500
27.261200 2.776100
27.290300 2.636500
27.319300 2.605400
27.348400 2.563000
27.377400 2.546200
27.406500 2.504100
27.435500 2.366200
27.464500 2.266100
27.493600 2.217400
27.522600 2.194600
27.551700 2.176800
27.580700 2.165400
27.609700 2.194100
27.638800 2.275900
27.667800 2.362000
27.696900 2.457600
27.725900 2.513200
27.755000 2.580400
27.784000 2.640200
27.813000 2.638100
27.842100 2.652900
27.871100 2.631700
27.900200 2.589600
27.929200 2.562200
27.958300 2.584700
27.987300 2.603500
28.016300 2.536900
28.045400 2.461600
28.074400 2.404800
28.103500 2.363500
28.132500 2.316900
28.161600 2.265100
28.190600 2.224200
28.219600 2.198300
28.248700 2.181000
28.277700 2.166900
28.306800 2.087300
28.335800 2.034000
28.364800 2.040100
28.393900 2.056700
28.422900 2.073800
28.452000 2.057300
28.481000 2.030600
28.510100 1.990700
28.539100 1.935400
28.568100 1.854900
28.597200 1.798200
28.626200 1.768500
28.655300 1.736700
28.684300 1.713700
28.713400 1.697400
28.742400 1.687200
28.771400 1.681200
28.800500 1.677600
28.829500 1.675700
28.858600 1.674800
28.887600 1.677000
28.916700 1.684900
28.945700 1.695800
28.974700 1.738100
29.003800 1.834100
29.032800 1.731000
29.061900 1.731400
29.090900 1.727800
29.120000 1.729200
29.149000 1.737100
29.178000 1.745200
29.207100 1.751900
29.236100 1.757300
29.265200 1.770400
29.294200 1.795800
29.323200 1.826200
29.352300 1.857700
29.381300 1.889400
29.410400 1.924400
29.439400 1.964300
29.468500 2.010600
29.497500 2.057200
29.526500 2.102400
29.555600 2.145000
29.584600 2.190300
29.613700 2.240600
29.642700 2.305100
29.671800 2.345000
29.700800 2.371900
29.729800 2.456200
29.758900 2.442400
29.787900 2.412100
29.817000 2.382800
29.846000 2.262200
29.875100 2.150400
29.904100 2.122800
29.933100 2.127500
29.962200 2.132700
29.991200 2.140200
30.020300 2.181400
30.049300 2.233400
30.078300 2.248800
30.107400 2.229400
30.136400 2.201200
30.165500 2.244900
30.194500 2.189800
30.223600 2.175500
30.252600 2.157900
30.281600 2.142600
30.310700 2.128100
30.339700 2.118100
30.368800 2.236400
30.397800 2.089700
30.426900 2.050200
30.455900 2.058100
30.484900 2.084600
30.514000 2.120600
30.543000 2.166900
30.572100 2.237000
30.601100 2.309400
30.630200 2.364000
30.659200 2.395200
30.688200 2.409000
30.717300 2.417000
30.746300 2.386000
30.775400 2.335200
30.804400 2.394400
30.833500 2.507100
30.862500 2.179300
30.891500 2.045300
30.920600 1.964800
30.949600 1.954800
30.978700 1.958300
31.007700 1.966900
31.036700 1.974000
31.065800 1.981100
31.094800 1.968300
31.123900 1.941300
31.152900 1.944800
31.182000 2.071000
31.211000 2.209100
31.240000 2.231600
31.269100 2.259300
31.298100 2.369600
31.327200 2.492100
31.356200 2.584600
31.385300 2.777100
31.414300 2.726300
31.443300 2.559600
31.472400 2.400100
31.501400 2.283400
31.530500 2.197100
31.559500 2.137400
31.588600 2.104100
31.617600 2.026600
31.646600 2.004300
31.675700 1.960300
31.704700 1.894000
31.733800 1.820100
31.762800 1.829700
31.791900 1.877200
31.820900 1.968300
31.849900 2.111000
31.879000 2.304100
31.908000 2.492000
31.937100 2.525600
31.966100 2.623100
31.995100 2.714900
32.024200 2.881900
32.053200 3.131300
32.082300 3.417600
32.111300 3.599500
32.140400 3.781100
32.169400 3.807000
32.198400 3.622400
32.227500 3.630700
32.256500 3.727200
32.285600 3.778900
32.314600 3.845100
32.343700 3.657800
32.372700 3.590700
32.401700 3.756200
32.430800 3.807900
32.459800 3.864000
32.488900 3.887900
32.517900 3.923800
32.547000 3.912100
32.576000 3.924800
32.605000 3.915000
32.634100 3.921300
32.663100 4.007500
32.692200 3.844700
32.721200 3.757200
32.750200 3.737200
32.779300 3.739500
32.808300 3.756300
32.837400 3.792100
32.866400 3.797700
32.895500 3.752400
32.924500 3.611000
32.953500 3.574300
32.982600 3.396000
33.011600 3.375500
33.040700 3.425800
33.069700 3.581800
33.098800 3.790500
33.127800 4.022400
33.156800 4.217500
33.185900 4.418600
33.214900 4.294800
33.244000 4.237400
33.273000 4.064800
33.302100 3.636700
33.331100 3.494600
33.360100 3.321700
33.389200 3.133000
33.418200 2.939200
33.447300 2.811700
33.476300 2.703600
33.505400 2.679500
33.534400 2.634100
33.563400 2.632000
33.592500 2.683900
33.621500 2.806800
33.650600 3.014200
33.679600 3.146600
33.708600 3.407800
33.737700 3.398500
33.766700 3.451800
33.795800 3.398100
33.824800 3.523500
33.853900 3.516200
33.882900 3.393400
33.911900 3.107400
33.941000 3.016700
33.970000 2.959700
33.999100 2.965800
34.028100 2.890400
34.057200 2.779100
34.086200 2.703600
34.115200 2.667700
34.144300 2.675300
34.173300 2.723200
34.202400 2.808600
34.231400 2.848900
34.260500 3.003600
34.289500 3.032300
34.318500 2.974100
34.347600 2.998700
34.376600 2.977000
34.405700 2.981700
34.434700 2.992700
34.463800 3.015000
34.492800 3.058500
34.521800 3.152700
34.550900 3.249100
34.579900 3.285000
34.609000 3.315100
34.638000 3.399900
34.667000 3.359900
34.696100 3.340700
34.725100 3.321600
34.754200 3.286000
34.783200 3.118000
34.812300 2.771300
34.841300 2.588600
34.870300 2.505500
34.899400 2.433400
34.928400 2.375400
34.957500 2.324400
34.986500 2.262900
35.015600 2.245200
35.044600 2.255800
35.073600 2.296000
35.102700 2.372100
35.131700 2.438800
35.160800 2.513400
35.189800 2.594800
35.218900 2.653000
35.247900 2.700900
35.276900 2.745100
35.306000 2.830100
35.335000 2.750500
35.364100 2.690100
35.393100 2.634800
35.422100 2.553300
35.451200 2.456900
35.480200 2.247800
35.509300 2.157700
35.538300 2.110200
35.567400 2.071100
35.596400 2.053900
35.625400 2.061300
35.654500 2.021400
35.683500 2.035300
35.712600 2.077700
35.741600 2.124200
35.770700 2.171500
35.799700 2.075700
35.828700 2.066000
35.857800 2.080800
35.886800 2.166600
35.915900 2.120100
35.944900 2.121800
35.974000 2.133500
36.003000 2.117900
36.032000 2.108700
36.061100 2.105800
36.090100 2.111800
36.119200 2.113800
36.148200 2.099900
36.177300 2.087100
36.206300 2.073600
36.235300 2.077900
36.264400 2.088100
36.293400 2.078200
36.322500 2.052000
36.351500 2.041500
36.380500 2.126700
36.409600 2.107800
36.438600 1.918500
36.467700 1.890300
36.496700 1.872300
36.525800 1.871400
36.554800 1.882900
36.583800 1.915300
36.612900 1.975400
36.641900 2.071800
36.671000 2.198800
36.700000 2.302700
36.729100 2.583600
36.758100 2.609100
36.787100 2.549700
36.816200 2.551700
36.845200 2.547800
36.874300 2.502000
36.903300 2.503800
36.932400 2.560600
36.961400 2.679100
36.990400 2.647800
37.019500 2.684200
37.048500 2.532900
37.077600 2.590600
37.106600 2.507900
37.135700 2.619200
37.164700 2.745700
37.193700 2.880000
37.222800 3.047200
37.251800 3.328600
37.280900 3.668700
37.309900 4.046000
37.338900 4.285300
37.368000 4.381500
37.397000 4.319300
37.426100 4.178400
37.455100 4.020300
37.484200 3.863700
37.513200 3.738800
37.542200 3.520900
37.571300 3.418700
37.600300 3.492700
37.629400 3.566700
37.658400 3.706900
37.687500 4.091400
37.716500 3.853200
37.745500 3.747900
37.774600 3.768000
37.803600 3.722000
37.832700 3.755700
37.861700 3.882700
37.890800 3.891800
37.919800 4.262800
37.948800 3.843600
37.977900 3.678600
38.006900 3.534700
38.036000 3.448700
38.065000 3.492300
38.094000 3.579000
38.123100 3.643200
38.152100 3.611700
38.181200 3.641500
38.210200 3.669800
38.239300 3.668300
38.268300 3.535400
38.297300 3.329900
38.326400 2.997600
38.355400 2.844200
38.384500 2.593700
38.413500 2.558100
38.442600 2.560500
38.471600 2.606000
38.500600 2.673600
38.529700 2.718800
38.558700 2.785600
38.587800 2.892600
38.616800 3.045900
38.645900 3.084800
38.674900 3.125600
38.703900 3.135500
38.733000 3.118300
38.762000 3.114100
38.791100 3.076200
38.820100 2.982800
38.849200 2.929800
38.878200 2.865500
38.907200 2.772100
38.936300 2.638800
38.965300 2.503300
38.994400 2.357100
39.023400 2.256800
39.052400 2.133600
39.081500 2.049300
39.110500 1.970100
39.139600 1.913300
39.168600 1.858400
39.197700 1.751400
39.226700 1.662500
39.255700 1.527800
39.284800 1.433000
39.313800 1.358000
39.342900 1.301700
39.371900 1.255900
39.401000 1.214500
39.430000 1.169900
39.459000 1.143900
39.488100 1.123300
39.517100 1.106700
39.546200 1.099400
39.575200 1.102800
39.604300 1.123100
39.633300 1.291200
39.662300 1.309100
39.691400 1.192300
39.720400 1.180500
39.749500 1.158800
39.778500 1.114900
39.807600 1.014700
39.836600 0.923600
39.865600 0.795600
39.894700 0.773300
39.923700 0.601200
39.952800 0.538000
39.981800 0.516400
40.010800 0.495200
40.039900 0.473400
40.068900 0.450900
40.098000 0.427300
40.127000 0.403900
40.156100 0.382800
40.185100 0.357300
40.214100 0.333200
40.243200 0.321200
40.272200 0.311100
40.301300 0.302200
40.330300 0.293900
40.359400 0.285900
40.388400 0.278000
40.417400 0.271100
40.446500 0.265100
40.475500 0.259300
40.504600 0.253600
40.533600 0.248000
40.562700 0.242700
40.591700 0.237600
40.620700 0.232800
40.649800 0.228200
40.678800 0.223300
40.707900 0.218200
40.736900 0.213600
40.765900 0.209200
40.795000 0.204800
40.824000 0.200300
40.853100 0.195800
40.882100 0.191100
40.911200 0.185800
40.940200 0.179900
40.969200 0.174500
40.998300 0.172900
41.027300 0.171300
41.056400 0.169600
41.085400 0.167800
41.114500 0.165800
41.143500 0.163800
41.172500 0.161600
41.201600 0.159400
41.230600 0.157600
41.259700 0.156400
41.288700 0.155800
41.317800 0.155800
41.346800 0.156500
41.375800 0.157600
41.404900 0.159100
41.433900 0.161000
41.463000 0.163200
41.492000 0.165700
41.521100 0.168500
41.550100 0.171600
41.579100 0.214500
41.608200 0.274800
41.637200 0.249500
41.666300 0.238000
41.695300 0.223000
41.724300 0.204700
41.753400 0.193800
41.782400 0.194700
41.811500 0.195300
41.840500 0.195500
41.869600 0.195200
41.898600 0.194300
41.927600 0.193000
41.956700 0.210500
41.985700 0.285700
42.014800 0.121200
42.043800 0.110900
42.072900 0.110800
42.101900 0.107300
42.130900 0.089200
42.160000 0.063100
42.189000 0.039200
42.218100 0.018300
42.247100 0.005000
42.276200 0.000000
42.305200 0.000000
42.334200 0.000000
42.363300 0.000000
42.392300 0.000000
42.421400 0.000000
42.450400 0.000000
42.479400 0.000000
42.508500 0.000000
42.537500 0.000000
42.566600 0.000000
42.595600 0.000000
42.624700 0.000000
42.653700 0.000000
42.682700 0.000000
42.711800 0.000000
42.740800 0.000000
42.769900 0.000000
42.798900 0.000000
42.828000 0.000000
42.857000 0.000000
42.886000 0.000000
42.915100 0.000000
42.944100 0.000000
42.973200 0.000000
43.002200 0.000000
43.031300 0.000000
43.060300 0.000000
43.089300 0.000000
43.118400 0.000000
43.147400 0.000000
43.176500 0.000000
43.205500 0.000000
43.234600 0.000000
43.263600 0.000000
43.292600 0.000000
43.321700 0.000000
43.350700 0.000000
43.379800 0.000000
43.408800 0.000000
43.437800 0.000000
43.466900 0.000000
43.495900 0.000000
43.525000 0.000000
43.554000 0.000000
43.583100 0.000000
43.612100 0.000000
43.641100 0.000000
43.670200 0.000000
43.699200 0.000000
43.728300 0.000000
43.757300 0.000000
43.786400 0.000000
43.815400 0.000000
43.844400 0.000000
43.873500 0.000000
43.902500 0.000000
43.931600 0.000000
43.960600 0.000000
43.989700 0.000000
44.018700 0.000000
44.047700 0.000000
44.076800 0.000000
44.105800 0.000000
44.134900 0.000000
44.163900 0.000000
44.193000 0.000000
44.222000 0.000000
44.251000 0.000000
44.280100 0.000000
44.309100 0.000000
44.338200 0.000000
44.367200 0.000000
44.396200 0.000000
44.425300 0.000000
44.454300 0.000000
44.483400 0.000000
44.512400 0.000000
44.541500 0.000000
44.570500 0.000000
44.599500 0.000000
44.628600 0.000000
44.657600 0.000000
44.686700 0.000000
44.715700 0.000000
44.744800 0.000000
44.773800 0.000000
44.802800 0.000000
44.831900 0.000000
44.860900 0.000000
44.890000 0.000000
44.919000 0.000000
e
