set title 'mp-1184709 - Density of States'
set xlabel 'Energy (eV)'
set ylabel 'DOS (states/eV)'
set grid
set xrange [-10:10]
set yrange [0:68.768]
set xzeroaxis lt -1
set terminal png size 800,600
set output 'mp-1184709_dos_gnuplot.png'
plot '-' using 1:2 with lines title 'DOS'
-7.428200 0.000000
-7.414000 0.000000
-7.399800 0.000000
-7.385500 0.000000
-7.371300 0.000000
-7.357100 0.000000
-7.342900 0.000000
-7.328600 0.000000
-7.314400 0.000000
-7.300200 0.000000
-7.286000 0.000000
-7.271700 0.000000
-7.257500 0.000000
-7.243300 0.000000
-7.229100 0.000000
-7.214800 0.000000
-7.200600 0.000000
-7.186400 0.000000
-7.172200 0.000000
-7.157900 0.000000
-7.143700 0.000000
-7.129500 0.000000
-7.115300 0.000000
-7.101000 0.000000
-7.086800 0.000000
-7.072600 0.000000
-7.058400 0.000000
-7.044200 0.000000
-7.029900 0.000000
-7.015700 0.000000
-7.001500 0.000000
-6.987300 0.000000
-6.973000 0.000000
-6.958800 0.000000
-6.944600 0.000000
-6.930400 0.000000
-6.916100 0.000000
-6.901900 0.000000
-6.887700 0.000000
-6.873500 0.000000
-6.859200 0.000000
-6.845000 0.000000
-6.830800 0.000000
-6.816600 0.000000
-6.802300 0.000000
-6.788100 0.000000
-6.773900 0.000000
-6.759700 0.000000
-6.745400 0.000000
-6.731200 0.000000
-6.717000 0.000000
-6.702800 0.000000
-6.688500 0.000000
-6.674300 0.000000
-6.660100 0.000000
-6.645900 0.000000
-6.631600 0.000000
-6.617400 0.000000
-6.603200 0.000000
-6.589000 0.000000
-6.574700 0.000000
-6.560500 0.000000
-6.546300 0.000000
-6.532100 0.000000
-6.517800 0.000000
-6.503600 0.000000
-6.489400 0.000000
-6.475200 0.000000
-6.461000 0.000000
-6.446700 0.000000
-6.432500 0.000000
-6.418300 0.000000
-6.404100 0.000000
-6.389800 0.000000
-6.375600 0.000000
-6.361400 0.000000
-6.347200 0.000000
-6.332900 0.000000
-6.318700 0.000000
-6.304500 0.000000
-6.290300 0.000000
-6.276000 0.000000
-6.261800 0.000000
-6.247600 0.000000
-6.233400 0.000000
-6.219100 0.000000
-6.204900 0.000000
-6.190700 0.000000
-6.176500 0.000000
-6.162200 0.000000
-6.148000 0.000000
-6.133800 0.000000
-6.119600 0.006400
-6.105300 0.023700
-6.091100 0.051800
-6.076900 0.090700
-6.062700 0.140400
-6.048400 0.198300
-6.034200 0.235100
-6.020000 0.270800
-6.005800 0.305300
-5.991500 0.338600
-5.977300 0.503000
-5.963100 2.170400
-5.948900 5.255100
-5.934700 9.436800
-5.920400 14.087300
-5.906200 17.022500
-5.892000 19.099800
-5.877800 20.751900
-5.863500 22.761600
-5.849300 28.485400
-5.835100 34.517400
-5.820900 49.106500
-5.806600 44.799800
-5.792400 38.590200
-5.778200 37.519000
-5.764000 39.212100
-5.749700 40.344300
-5.735500 50.609100
-5.721300 41.826800
-5.707100 37.422300
-5.692800 35.000800
-5.678600 29.523100
-5.664400 27.237200
-5.650200 28.311400
-5.635900 30.232300
-5.621700 24.262100
-5.607500 24.452300
-5.593300 26.002000
-5.579000 37.641800
-5.564800 53.563000
-5.550600 59.148100
-5.536400 52.713500
-5.522100 62.516100
-5.507900 46.216000
-5.493700 44.492600
-5.479500 31.453300
-5.465200 42.822500
-5.451000 41.184600
-5.436800 39.176200
-5.422600 45.085400
-5.408300 48.326600
-5.394100 39.768800
-5.379900 30.867500
-5.365700 28.015700
-5.351500 23.163000
-5.337200 26.240500
-5.323000 31.710600
-5.308800 35.970600
-5.294600 32.786200
-5.280300 31.604800
-5.266100 34.627300
-5.251900 45.757100
-5.237700 52.772000
-5.223400 45.973400
-5.209200 50.366900
-5.195000 42.354600
-5.180800 41.109200
-5.166500 43.547000
-5.152300 38.554800
-5.138100 42.211600
-5.123900 39.948500
-5.109600 37.958900
-5.095400 34.231400
-5.081200 36.472700
-5.067000 35.124900
-5.052700 38.551700
-5.038500 43.096400
-5.024300 39.227400
-5.010100 39.993000
-4.995800 42.236000
-4.981600 45.131700
-4.967400 45.610700
-4.953200 58.594800
-4.938900 44.825300
-4.924700 49.146600
-4.910500 55.023600
-4.896300 42.904600
-4.882000 22.893200
-4.867800 1.242300
-4.853600 1.155800
-4.839400 1.117000
-4.825100 1.086800
-4.810900 1.065100
-4.796700 1.051800
-4.782500 1.048000
-4.768300 1.048300
-4.754000 1.048900
-4.739800 1.047800
-4.725600 1.037300
-4.711400 1.016600
-4.697100 0.986100
-4.682900 0.958500
-4.668700 0.937900
-4.654500 0.924100
-4.640200 0.917100
-4.626000 0.913800
-4.611800 0.910200
-4.597600 0.906200
-4.583300 0.902000
-4.569100 0.897400
-4.554900 0.892500
-4.540700 0.887300
-4.526400 0.882100
-4.512200 0.880100
-4.498000 0.878000
-4.483800 0.876100
-4.469500 0.874800
-4.455300 0.874100
-4.441100 0.873900
-4.426900 0.874700
-4.412600 0.876200
-4.398400 0.878300
-4.384200 0.881000
-4.370000 0.884000
-4.355700 0.887000
-4.341500 0.890100
-4.327300 0.893200
-4.313100 0.896400
-4.298800 0.899700
-4.284600 0.903200
-4.270400 0.906900
-4.256200 0.910700
-4.242000 0.914700
-4.227700 0.918800
-4.213500 0.922900
-4.199300 0.927100
-4.185100 0.931400
-4.170800 0.935600
-4.156600 0.939900
-4.142400 0.944200
-4.128200 0.947100
-4.113900 0.949700
-4.099700 0.952100
-4.085500 0.954400
-4.071300 0.956800
-4.057000 0.960000
-4.042800 0.963300
-4.028600 0.966500
-4.014400 0.969800
-4.000100 0.973000
-3.985900 0.976200
-3.971700 0.979500
-3.957500 0.982900
-3.943200 0.986600
-3.929000 0.990300
-3.914800 0.994200
-3.900600 0.998100
-3.886300 1.002100
-3.872100 1.006000
-3.857900 1.009900
-3.843700 1.013900
-3.829400 1.017700
-3.815200 1.021500
-3.801000 1.025100
-3.786800 1.028700
-3.772500 1.032100
-3.758300 1.035800
-3.744100 1.039600
-3.729900 1.043400
-3.715600 1.047100
-3.701400 1.050900
-3.687200 1.054700
-3.673000 1.058500
-3.658800 1.062300
-3.644500 1.066000
-3.630300 1.069700
-3.616100 1.073500
-3.601900 1.077200
-3.587600 1.081000
-3.573400 1.084700
-3.559200 1.088500
-3.545000 1.092300
-3.530700 1.096100
-3.516500 1.099900
-3.502300 1.103800
-3.488100 1.107900
-3.473800 1.112000
-3.459600 1.116300
-3.445400 1.120500
-3.431200 1.124800
-3.416900 1.129000
-3.402700 1.133100
-3.388500 1.137000
-3.374300 1.140800
-3.360000 1.144500
-3.345800 1.148000
-3.331600 1.151600
-3.317400 1.155300
-3.303100 1.159000
-3.288900 1.162900
-3.274700 1.166900
-3.260500 1.170900
-3.246200 1.174900
-3.232000 1.178900
-3.217800 1.182900
-3.203600 1.187000
-3.189300 1.191100
-3.175100 1.195200
-3.160900 1.199300
-3.146700 1.203400
-3.132400 1.207500
-3.118200 1.211700
-3.104000 1.215800
-3.089800 1.220000
-3.075600 1.224200
-3.061300 1.228500
-3.047100 1.232800
-3.032900 1.237100
-3.018700 1.241500
-3.004400 1.245900
-2.990200 1.250300
-2.976000 1.254800
-2.961800 1.259200
-2.947500 1.263700
-2.933300 1.268200
-2.919100 1.272600
-2.904900 1.277000
-2.890600 1.281300
-2.876400 1.285700
-2.862200 1.290100
-2.848000 1.294400
-2.833700 1.298900
-2.819500 1.303500
-2.805300 1.308100
-2.791100 1.312700
-2.776800 1.317400
-2.762600 1.322100
-2.748400 1.326800
-2.734200 1.331600
-2.719900 1.336300
-2.705700 1.341100
-2.691500 1.345900
-2.677300 1.350700
-2.663000 1.355500
-2.648800 1.360400
-2.634600 1.365200
-2.620400 1.370200
-2.606100 1.375200
-2.591900 1.380400
-2.577700 1.385600
-2.563500 1.391000
-2.549300 1.396500
-2.535000 1.402000
-2.520800 1.407700
-2.506600 1.413400
-2.492400 1.419200
-2.478100 1.425000
-2.463900 1.430900
-2.449700 1.436900
-2.435500 1.442900
-2.421200 1.448900
-2.407000 1.455100
-2.392800 1.461300
-2.378600 1.467800
-2.364300 1.474400
-2.350100 1.481300
-2.335900 1.488400
-2.321700 1.495600
-2.307400 1.503100
-2.293200 1.510600
-2.279000 1.518300
-2.264800 1.526100
-2.250500 1.534000
-2.236300 1.542100
-2.222100 1.550300
-2.207900 1.558600
-2.193600 1.567500
-2.179400 1.576700
-2.165200 1.585900
-2.151000 1.595300
-2.136700 1.604700
-2.122500 1.614300
-2.108300 1.624100
-2.094100 1.634000
-2.079800 1.644000
-2.065600 1.679800
-2.051400 1.718200
-2.037200 1.754500
-2.022900 1.788700
-2.008700 1.820800
-1.994500 1.834100
-1.980300 1.843800
-1.966100 1.852800
-1.951800 1.861200
-1.937600 1.869000
-1.923400 1.876200
-1.909200 1.882900
-1.894900 1.888900
-1.880700 1.894400
-1.866500 1.899900
-1.852300 1.905200
-1.838000 1.910400
-1.823800 1.915600
-1.809600 1.919900
-1.795400 1.923200
-1.781100 1.925300
-1.766900 1.926500
-1.752700 1.926800
-1.738500 1.926500
-1.724200 1.927500
-1.710000 1.930300
-1.695800 1.934900
-1.681600 1.941200
-1.667300 1.983900
-1.653100 2.056100
-1.638900 2.115300
-1.624700 2.161500
-1.610400 2.194700
-1.596200 2.193100
-1.582000 2.157900
-1.567800 2.115100
-1.553500 2.084500
-1.539300 2.068000
-1.525100 2.068300
-1.510900 2.122600
-1.496600 2.312900
-1.482400 2.164000
-1.468200 2.123000
-1.454000 2.115800
-1.439700 2.107800
-1.425500 2.098900
-1.411300 2.089000
-1.397100 2.075400
-1.382900 2.056200
-1.368600 2.035900
-1.354400 2.018400
-1.340200 2.003900
-1.326000 1.992300
-1.311700 2.010700
-1.297500 2.158600
-1.283300 1.915800
-1.269100 1.772900
-1.254800 1.777000
-1.240600 1.781300
-1.226400 1.785800
-1.212200 1.790100
-1.197900 1.794100
-1.183700 1.797900
-1.169500 1.801400
-1.155300 1.804700
-1.141000 1.805500
-1.126800 1.802400
-1.112600 1.804600
-1.098400 1.812500
-1.084100 1.820600
-1.069900 1.828600
-1.055700 1.923200
-1.041500 1.920400
-1.027200 1.918100
-1.013000 1.916500
-0.998800 1.865400
-0.984600 1.932900
-0.970300 2.032400
-0.956100 2.130600
-0.941900 2.206900
-0.927700 2.259900
-0.913400 2.288500
-0.899200 2.293200
-0.885000 2.271600
-0.870800 2.192500
-0.856600 2.117600
-0.842300 2.074700
-0.828100 2.079000
-0.813900 2.088900
-0.799700 2.102100
-0.785400 1.882700
-0.771200 1.906900
-0.757000 1.928200
-0.742800 1.949800
-0.728500 1.971800
-0.714300 1.994000
-0.700100 2.016600
-0.685900 2.046700
-0.671600 2.069500
-0.657400 2.064500
-0.643200 2.056900
-0.629000 2.053200
-0.614700 2.068000
-0.600500 2.082000
-0.586300 2.095200
-0.572100 2.107300
-0.557800 2.150700
-0.543600 2.192900
-0.529400 2.233800
-0.515200 2.273300
-0.500900 2.313100
-0.486700 2.353700
-0.472500 2.714400
-0.458300 2.885700
-0.444000 3.068700
-0.429800 3.155500
-0.415600 3.074200
-0.401400 2.893900
-0.387100 2.905100
-0.372900 3.002100
-0.358700 3.005200
-0.344500 3.086200
-0.330200 3.172200
-0.316000 3.121300
-0.301800 3.087300
-0.287600 3.070300
-0.273400 3.054600
-0.259100 3.020900
-0.244900 2.996000
-0.230700 3.007900
-0.216500 2.548000
-0.202200 2.398800
-0.188000 2.267900
-0.173800 2.261900
-0.159600 2.213200
-0.145300 2.044100
-0.131100 1.896000
-0.116900 1.766800
-0.102700 1.635900
-0.088400 1.497500
-0.074200 1.351700
-0.060000 1.198400
-0.045800 1.039800
-0.031500 0.895700
-0.017300 0.768600
-0.003100 0.656900
0.011100 0.562600
0.025400 0.485500
0.039600 0.425700
0.053800 0.218200
0.068000 0.042200
0.082300 0.000000
0.096500 0.000000
0.110700 0.000000
0.124900 0.000000
0.139200 0.000000
0.153400 0.000000
0.167600 0.000000
0.181800 0.000000
0.196100 0.000000
0.210300 0.000000
0.224500 0.000000
0.238700 0.000000
0.253000 0.000000
0.267200 0.000000
0.281400 0.000000
0.295600 0.000000
0.309800 0.000000
0.324100 0.000000
0.338300 0.000000
0.352500 0.000000
0.366700 0.000000
0.381000 0.000000
0.395200 0.000400
0.409400 0.001100
0.423600 0.002300
0.437900 0.003900
0.452100 0.005900
0.466300 0.008300
0.480500 0.011000
0.494800 0.014200
0.509000 0.017700
0.523200 0.019700
0.537400 0.022200
0.551700 0.025100
0.565900 0.028600
0.580100 0.032600
0.594300 0.037200
0.608600 0.042300
0.622800 0.047900
0.637000 0.054100
0.651200 0.060800
0.665500 0.068100
0.679700 0.075900
0.693900 0.084200
0.708100 0.093100
0.722400 0.102500
0.736600 0.112500
0.750800 0.123000
0.765000 0.134000
0.779300 0.145600
0.793500 0.157600
0.807700 0.170100
0.821900 0.183000
0.836100 0.196500
0.850400 0.210700
0.864600 0.260900
0.878800 0.373500
0.893000 0.667200
0.907300 0.625900
0.921500 0.391000
0.935700 0.400400
0.949900 0.410200
0.964200 0.420400
0.978400 0.431100
0.992600 0.442200
1.006800 0.453700
1.021100 0.465700
1.035300 0.478100
1.049500 0.490900
1.063700 0.504200
1.078000 0.517900
1.092200 0.532100
1.106400 0.546700
1.120600 0.561800
1.134900 0.577700
1.149100 0.594400
1.163300 0.611800
1.177500 0.636200
1.191800 0.665200
1.206000 0.691700
1.220200 0.715800
1.234400 0.737500
1.248700 0.758500
1.262900 0.780900
1.277100 0.805900
1.291300 0.833300
1.305600 0.863000
1.319800 0.895100
1.334000 0.929600
1.348200 0.966300
1.362500 1.005300
1.376700 1.044300
1.390900 1.082300
1.405100 1.118700
1.419300 1.153600
1.433600 1.186900
1.447800 1.219300
1.462000 1.261700
1.476200 1.302600
1.490500 1.339500
1.504700 1.372500
1.518900 1.402600
1.533100 1.430700
1.547400 1.456700
1.561600 1.479400
1.575800 1.493900
1.590000 1.500300
1.604300 1.499100
1.618500 1.490400
1.632700 1.475000
1.646900 1.489200
1.661200 1.498500
1.675400 1.502600
1.689600 1.501600
1.703800 1.495900
1.718100 1.492100
1.732300 1.491300
1.746500 1.493400
1.760700 1.498500
1.775000 1.506500
1.789200 1.517500
1.803400 1.531200
1.817600 1.545900
1.831900 1.560800
1.846100 1.576000
1.860300 1.594300
1.874500 1.612900
1.888800 1.631600
1.903000 1.650400
1.917200 1.669200
1.931400 1.688400
1.945700 1.707700
1.959900 1.776800
1.974100 1.845200
1.988300 1.886400
2.002500 1.901600
2.016800 1.968700
2.031000 2.072800
2.045200 2.169900
2.059400 2.160000
2.073700 2.129900
2.087900 2.097100
2.102100 2.504800
2.116300 2.450500
2.130600 2.203500
2.144800 2.142900
2.159000 2.103100
2.173200 2.083900
2.187500 2.090700
2.201700 2.133100
2.215900 2.212500
2.230100 2.193300
2.244400 2.150500
2.258600 2.109500
2.272800 2.070300
2.287000 2.001300
2.301300 1.963000
2.315500 1.947700
2.329700 1.923200
2.343900 1.890300
2.358200 1.858800
2.372400 1.864100
2.386600 1.900800
2.400800 1.940400
2.415100 1.979900
2.429300 2.017300
2.443500 2.048400
2.457700 2.072900
2.472000 2.094500
2.486200 2.115900
2.500400 2.139000
2.514600 2.163800
2.528800 2.194600
2.543100 2.233200
2.557300 2.267400
2.571500 2.297200
2.585700 2.322700
2.600000 2.343700
2.614200 2.359700
2.628400 2.370500
2.642600 2.373000
2.656900 2.346600
2.671100 2.468300
2.685300 2.526800
2.699500 2.599200
2.713800 2.651700
2.728000 2.686700
2.742200 2.728300
2.756400 2.706100
2.770700 2.748200
2.784900 2.791000
2.799100 2.834500
2.813300 2.873100
2.827600 2.906700
2.841800 2.939100
2.856000 2.970300
2.870200 2.988500
2.884500 2.987900
2.898700 2.978900
2.912900 2.939000
2.927100 2.878800
2.941400 2.841100
2.955600 2.806000
2.969800 2.764100
2.984000 2.711300
2.998300 2.648200
3.012500 2.574800
3.026700 2.598300
3.040900 2.541300
3.055200 2.482900
3.069400 2.437700
3.083600 2.333900
3.097800 2.299300
3.112000 2.279400
3.126300 2.257700
3.140500 2.127100
3.154700 2.104700
3.168900 2.078600
3.183200 2.048400
3.197400 2.015500
3.211600 1.980200
3.225800 1.943000
3.240100 1.921700
3.254300 1.903300
3.268500 1.887400
3.282700 1.874000
3.297000 1.863100
3.311200 1.854600
3.325400 1.861200
3.339600 1.861500
3.353900 1.860000
3.368100 1.859100
3.382300 1.858300
3.396500 1.857800
3.410800 1.857600
3.425000 1.858200
3.439200 1.860500
3.453400 1.863300
3.467700 1.866800
3.481900 1.871400
3.496100 1.876900
3.510300 1.883400
3.524600 1.892700
3.538800 1.899300
3.553000 1.900500
3.567200 1.898100
3.581500 1.894900
3.595700 1.888700
3.609900 1.841700
3.624100 1.827900
3.638400 1.809500
3.652600 1.796600
3.666800 1.792800
3.681000 1.798300
3.695200 1.813400
3.709500 1.835700
3.723700 1.831200
3.737900 1.775000
3.752100 1.732700
3.766400 1.710700
3.780600 1.705100
3.794800 1.709200
3.809000 1.718700
3.823300 1.732200
3.837500 1.749700
3.851700 1.815500
3.865900 2.243800
3.880200 1.849300
3.894400 1.856500
3.908600 1.855200
3.922800 1.853900
3.937100 1.853000
3.951300 1.852300
3.965500 1.852000
3.979700 1.853400
3.994000 1.857600
4.008200 1.864700
4.022400 1.876200
4.036600 1.890000
4.050900 1.906000
4.065100 1.900200
4.079300 1.895600
4.093500 1.895100
4.107800 1.895700
4.122000 1.897500
4.136200 1.900700
4.150400 1.904800
4.164700 1.909700
4.178900 1.914900
4.193100 1.919500
4.207300 1.923600
4.221500 1.927100
4.235800 1.930300
4.250000 1.927200
4.264200 1.921400
4.278400 1.915300
4.292700 1.909000
4.306900 1.902500
4.321100 1.895600
4.335300 1.894000
4.349600 1.893200
4.363800 1.893000
4.378000 1.893700
4.392200 1.895600
4.406500 1.898400
4.420700 1.900700
4.434900 1.901200
4.449100 1.901400
4.463400 1.903300
4.477600 1.906800
4.491800 1.912300
4.506000 1.921100
4.520300 1.933000
4.534500 1.947800
4.548700 1.965200
4.562900 1.985300
4.577200 2.008100
4.591400 2.038000
4.605600 2.081300
4.619800 2.123600
4.634100 2.164200
4.648300 2.261700
4.662500 2.283800
4.676700 2.302800
4.691000 2.319100
4.705200 2.332200
4.719400 2.222200
4.733600 2.236600
4.747900 2.252000
4.762100 2.267800
4.776300 2.289500
4.790500 2.309800
4.804700 2.328100
4.819000 2.327800
4.833200 2.312800
4.847400 2.297000
4.861600 2.294500
4.875900 2.291500
4.890100 2.286500
4.904300 2.278400
4.918500 2.267100
4.932800 2.252600
4.947000 2.234100
4.961200 2.212600
4.975400 2.205500
4.989700 2.199400
5.003900 2.193000
5.018100 2.186800
5.032300 2.180300
5.046600 2.173900
5.060800 2.167600
5.075000 2.161500
5.089200 2.143200
5.103500 2.135800
5.117700 2.129200
5.131900 2.123200
5.146100 2.118000
5.160400 2.113400
5.174600 2.110300
5.188800 2.107800
5.203000 2.105400
5.217300 2.102700
5.231500 2.098400
5.245700 2.094000
5.259900 2.089500
5.274200 2.084600
5.288400 2.079500
5.302600 2.074100
5.316800 2.068700
5.331100 2.064300
5.345300 2.073100
5.359500 2.083000
5.373700 2.094100
5.387900 2.105300
5.402200 2.140300
5.416400 2.204700
5.430600 2.144400
5.444800 2.098800
5.459100 2.067800
5.473300 2.054200
5.487500 2.064300
5.501700 2.084200
5.516000 2.109800
5.530200 2.139800
5.544400 2.170400
5.558600 2.202000
5.572900 2.234500
5.587100 2.276600
5.601300 2.313700
5.615500 2.351800
5.629800 2.389800
5.644000 2.417900
5.658200 2.372300
5.672400 2.381800
5.686700 2.390200
5.700900 2.397500
5.715100 2.403600
5.729300 2.408600
5.743600 2.398500
5.757800 2.348100
5.772000 2.280500
5.786200 2.279300
5.800500 2.284100
5.814700 2.288600
5.828900 2.293000
5.843100 2.297300
5.857400 2.301400
5.871600 2.305400
5.885800 2.310500
5.900000 2.320800
5.914200 2.335600
5.928500 2.354700
5.942700 2.377900
5.956900 2.406000
5.971100 2.437100
5.985400 2.415200
5.999600 2.407100
6.013800 2.426700
6.028000 2.449100
6.042300 2.469200
6.056500 2.485700
6.070700 2.498600
6.084900 2.462400
6.099200 2.469200
6.113400 2.486200
6.127600 2.503700
6.141800 2.525000
6.156100 2.550000
6.170300 2.576100
6.184500 2.605100
6.198700 2.637400
6.213000 2.673000
6.227200 2.660300
6.241400 2.637200
6.255600 2.648700
6.269900 2.660300
6.284100 2.671200
6.298300 2.658100
6.312500 2.635800
6.326800 2.615700
6.341000 2.597200
6.355200 2.580200
6.369400 2.564500
6.383700 2.550200
6.397900 2.536500
6.412100 2.522800
6.426300 2.509500
6.440600 2.505600
6.454800 2.514400
6.469000 2.531800
6.483200 2.550600
6.497400 2.549800
6.511700 2.545100
6.525900 2.544200
6.540100 2.546900
6.554300 2.551800
6.568600 2.555300
6.582800 2.559000
6.597000 2.567600
6.611200 2.576700
6.625500 2.586900
6.639700 2.598200
6.653900 2.610600
6.668100 2.623600
6.682400 2.636400
6.696600 2.648800
6.710800 2.659900
6.725000 2.668100
6.739300 2.672500
6.753500 2.673000
6.767700 2.669700
6.781900 2.662900
6.796200 2.654500
6.810400 2.643600
6.824600 2.637600
6.838800 2.632800
6.853100 2.642000
6.867300 2.656400
6.881500 2.725100
6.895700 2.739900
6.910000 2.741100
6.924200 2.744900
6.938400 2.753400
6.952600 2.766400
6.966900 2.776700
6.981100 2.783600
6.995300 2.787400
7.009500 2.787700
7.023800 2.783500
7.038000 2.774600
7.052200 2.766000
7.066400 2.765200
7.080600 2.761100
7.094900 2.764300
7.109100 2.769300
7.123300 2.776100
7.137500 2.783200
7.151800 2.788900
7.166000 2.805800
7.180200 2.812200
7.194400 2.819100
7.208700 2.827600
7.222900 2.841800
7.237100 2.848600
7.251300 2.852100
7.265600 2.855900
7.279800 2.860000
7.294000 2.862700
7.308200 2.861000
7.322500 2.860300
7.336700 3.027500
7.350900 2.965400
7.365100 2.977100
7.379400 2.989800
7.393600 3.000800
7.407800 3.010200
7.422000 3.017900
7.436300 3.023900
7.450500 3.028000
7.464700 3.030300
7.478900 3.036100
7.493200 3.054200
7.507400 3.084000
7.521600 3.072300
7.535800 3.038200
7.550100 3.008700
7.564300 2.983900
7.578500 2.962600
7.592700 2.943100
7.606900 2.925300
7.621200 2.910000
7.635400 2.901700
7.649600 2.888000
7.663800 2.873500
7.678100 2.858200
7.692300 2.842400
7.706500 2.825600
7.720700 2.808700
7.735000 2.791100
7.749200 2.772400
7.763400 2.757200
7.777600 2.749600
7.791900 2.750200
7.806100 2.757500
7.820300 2.761000
7.834500 2.773000
7.848800 2.776700
7.863000 2.772900
7.877200 2.761400
7.891400 2.741800
7.905700 2.713000
7.919900 2.675100
7.934100 2.643500
7.948300 2.594900
7.962600 2.566200
7.976800 2.539200
7.991000 2.514100
8.005200 2.493400
8.019500 2.480600
8.033700 2.471300
8.047900 2.465500
8.062100 2.463100
8.076400 2.465200
8.090600 2.470800
8.104800 2.477600
8.119000 2.512600
8.133300 2.557700
8.147500 2.604300
8.161700 2.652500
8.175900 2.685200
8.190100 2.696200
8.204400 2.690400
8.218600 2.675600
8.232800 2.652000
8.247000 2.619400
8.261300 2.584800
8.275500 2.550300
8.289700 2.516200
8.303900 2.486100
8.318200 2.453000
8.332400 2.421500
8.346600 2.389200
8.360800 2.358500
8.375100 2.331300
8.389300 2.308100
8.403500 2.288000
8.417700 2.270800
8.432000 2.258300
8.446200 2.250000
8.460400 2.243700
8.474600 2.238300
8.488900 2.234000
8.503100 2.230000
8.517300 2.226100
8.531500 2.222300
8.545800 2.218800
8.560000 2.215700
8.574200 2.212900
8.588400 2.210500
8.602700 2.208800
8.616900 2.208400
8.631100 2.210200
8.645300 2.214100
8.659600 2.208100
8.673800 2.209700
8.688000 2.213900
8.702200 2.226400
8.716500 2.248400
8.730700 2.280800
8.744900 2.338000
8.759100 2.411500
8.773300 2.492400
8.787600 2.574800
8.801800 2.651000
8.816000 2.731500
8.830200 2.829500
8.844500 2.939600
8.858700 3.044400
8.872900 3.142700
8.887100 3.233900
8.901400 3.297300
8.915600 3.332100
8.929800 3.346000
8.944000 3.383500
8.958300 3.410900
8.972500 3.128400
8.986700 3.072700
9.000900 3.022900
9.015200 2.988200
9.029400 2.959100
9.043600 2.935000
9.057800 2.915900
9.072100 2.900600
9.086300 2.885500
9.100500 2.870300
9.114700 2.855200
9.129000 2.840100
9.143200 2.824900
9.157400 2.812900
9.171600 2.810300
9.185900 2.816200
9.200100 2.830400
9.214300 2.852100
9.228500 2.884500
9.242800 2.895000
9.257000 2.825200
9.271200 2.760900
9.285400 2.701900
9.299600 2.693100
9.313900 2.697500
9.328100 2.712700
9.342300 2.738100
9.356500 2.770200
9.370800 2.780100
9.385000 2.794100
9.399200 2.817700
9.413400 2.845800
9.427700 2.878400
9.441900 2.913200
9.456100 2.994100
9.470300 3.096200
9.484600 3.203100
9.498800 3.313100
9.513000 3.400400
9.527200 3.447500
9.541500 3.465600
9.555700 3.474100
9.569900 3.478800
9.584100 3.475900
9.598400 3.466100
9.612600 3.447100
9.626800 3.416700
9.641000 3.375200
9.655300 3.323500
9.669500 3.261600
9.683700 3.191400
9.697900 3.150800
9.712200 3.118100
9.726400 3.087600
9.740600 3.059300
9.754800 3.032400
9.769100 3.006600
9.783300 2.981400
9.797500 2.960300
9.811700 2.937400
9.826000 2.943100
9.840200 2.898200
9.854400 2.850500
9.868600 2.800100
9.882800 2.746800
9.897100 2.690900
9.911300 2.632200
9.925500 2.591700
9.939700 2.558900
9.954000 2.512600
9.968200 2.447300
9.982400 2.417700
9.996600 2.390600
10.010900 2.365300
10.025100 2.341000
10.039300 2.318100
10.053500 2.296300
10.067800 2.275500
10.082000 2.255300
10.096200 2.235100
10.110400 2.214900
10.124700 2.194700
10.138900 2.174300
10.153100 2.153900
10.167300 2.174000
10.181600 2.154400
10.195800 2.134700
10.210000 2.115000
10.224200 2.095300
10.238500 2.075800
10.252700 2.052500
10.266900 2.048300
10.281100 2.043800
10.295400 2.037900
10.309600 2.031300
10.323800 2.025100
10.338000 2.017200
10.352300 2.006600
10.366500 1.997100
10.380700 1.988700
10.394900 1.981300
10.409200 1.974600
10.423400 1.969100
10.437600 1.965000
10.451800 1.962000
10.466000 1.954800
10.480300 1.939200
10.494500 1.925100
10.508700 1.912500
10.522900 1.901300
10.537200 1.889800
10.551400 1.878600
10.565600 1.868000
10.579800 1.856900
10.594100 1.844800
10.608300 1.831900
10.622500 1.818800
10.636700 1.805700
10.651000 1.792400
10.665200 1.778800
10.679400 1.761900
10.693600 1.729200
10.707900 1.701600
10.722100 1.677300
10.736300 1.650400
10.750500 1.622600
10.764800 1.595400
10.779000 1.568600
10.793200 1.543800
10.807400 1.521600
10.821700 1.499600
10.835900 1.479000
10.850100 1.465500
10.864300 1.461600
10.878600 1.492000
10.892800 1.507900
10.907000 1.528300
10.921200 1.550300
10.935500 1.573600
10.949700 1.598100
10.963900 1.623900
10.978100 1.651000
10.992300 1.680100
11.006600 1.712200
11.020800 1.752700
11.035000 1.801600
11.049200 1.858300
11.063500 1.941300
11.077700 2.003200
11.091900 2.054300
11.106100 2.111500
11.120400 2.180100
11.134600 2.261000
11.148800 2.354400
11.163000 2.478700
11.177300 2.549500
11.191500 2.618000
11.205700 2.682200
11.219900 2.742400
11.234200 2.800700
11.248400 2.857400
11.262600 2.913200
11.276800 2.969300
11.291100 3.027600
11.305300 3.080800
11.319500 3.103900
11.333700 3.129400
11.348000 3.153600
11.362200 3.175200
11.376400 3.192800
11.390600 3.188900
11.404900 3.061500
11.419100 3.092800
11.433300 3.176400
11.447500 3.309800
11.461800 3.432500
11.476000 3.529600
11.490200 3.600900
11.504400 3.646900
11.518700 3.666400
11.532900 3.651500
11.547100 3.607900
11.561300 3.545300
11.575500 3.476500
11.589800 3.455400
11.604000 3.408100
11.618200 3.356600
11.632400 3.309400
11.646700 3.263700
11.660900 3.218400
11.675100 3.179100
11.689300 3.156900
11.703600 3.143300
11.717800 3.131900
11.732000 3.123000
11.746200 3.116700
11.760500 3.117100
11.774700 3.124200
11.788900 3.145900
11.803100 3.185300
11.817400 3.208700
11.831600 3.172200
11.845800 3.132700
11.860000 3.094700
11.874300 3.072000
11.888500 3.057400
11.902700 3.050500
11.916900 3.049600
11.931200 3.054400
11.945400 3.064600
11.959600 3.080000
11.973800 3.097000
11.988100 3.114600
12.002300 3.132900
12.016500 3.153300
12.030700 3.172500
12.045000 3.188600
12.059200 3.201300
12.073400 3.210600
12.087600 3.216500
12.101900 3.217600
12.116100 3.212700
12.130300 3.220800
12.144500 3.237300
12.158700 3.237300
12.173000 3.237700
12.187200 3.236100
12.201400 3.226400
12.215600 3.225500
12.229900 3.456600
12.244100 3.657200
12.258300 3.787000
12.272500 4.016800
12.286800 3.864000
12.301000 3.849100
12.315200 3.819400
12.329400 3.775200
12.343700 3.730000
12.357900 3.704100
12.372100 3.678600
12.386300 3.655100
12.400600 3.635500
12.414800 3.619900
12.429000 3.613800
12.443200 3.620700
12.457500 3.649300
12.471700 3.704500
12.485900 3.759700
12.500100 3.844800
12.514400 3.945500
12.528600 4.054500
12.542800 4.148900
12.557000 4.123900
12.571300 3.980600
12.585500 3.922400
12.599700 3.870600
12.613900 3.824400
12.628200 4.098700
12.642400 3.586700
12.656600 3.562800
12.670800 3.578700
12.685000 3.514600
12.699300 3.478500
12.713500 3.448600
12.727700 3.412100
12.741900 3.362200
12.756200 3.293800
12.770400 3.204900
12.784600 3.107300
12.798800 3.023200
12.813100 2.932400
12.827300 2.819400
12.841500 2.733300
12.855700 2.680300
12.870000 2.647400
12.884200 2.627400
12.898400 2.613500
12.912600 2.600700
12.926900 2.589100
12.941100 2.579000
12.955300 2.569300
12.969500 2.551600
12.983800 2.522300
12.998000 2.489100
13.012200 2.460200
13.026400 2.442100
13.040700 2.430400
13.054900 2.423800
13.069100 2.422300
13.083300 2.426300
13.097600 2.435900
13.111800 2.451400
13.126000 2.471700
13.140200 2.507400
13.154500 2.544200
13.168700 2.580800
13.182900 2.618600
13.197100 2.658000
13.211400 2.699700
13.225600 2.759100
13.239800 2.851800
13.254000 2.951600
13.268200 3.077300
13.282500 3.278800
13.296700 3.561800
13.310900 3.858400
13.325100 4.128500
13.339400 4.359400
13.353600 4.494300
13.367800 3.463700
13.382000 3.254700
13.396300 3.245800
13.410500 3.240200
13.424700 3.235100
13.438900 3.229600
13.453200 3.223400
13.467400 3.216400
13.481600 3.208400
13.495800 3.199200
13.510100 3.188800
13.524300 3.245000
13.538500 3.569100
13.552700 3.519500
13.567000 3.409200
13.581200 3.312600
13.595400 3.230300
13.609600 3.167700
13.623900 3.152800
13.638100 3.156100
13.652300 3.162700
13.666500 3.167000
13.680800 3.158500
13.695000 3.143100
13.709200 3.113500
13.723400 3.088700
13.737700 3.085200
13.751900 3.070700
13.766100 3.043100
13.780300 3.008700
13.794600 2.971700
13.808800 2.930500
13.823000 2.870000
13.837200 2.806200
13.851400 2.740000
13.865700 2.676200
13.879900 2.620300
13.894100 2.583200
13.908300 2.571000
13.922600 2.579400
13.936800 2.594300
13.951000 2.651800
13.965200 2.816300
13.979500 2.248500
13.993700 2.219600
14.007900 2.200100
14.022100 2.193500
14.036400 2.203000
14.050600 2.206600
14.064800 2.211000
14.079000 2.216700
14.093300 2.227200
14.107500 2.242700
14.121700 2.261800
14.135900 2.286000
14.150200 2.315600
14.164400 2.350500
14.178600 2.390400
14.192800 2.435800
14.207100 2.495000
14.221300 2.569600
14.235500 2.638800
14.249700 2.702700
14.264000 2.761200
14.278200 2.813900
14.292400 2.860500
14.306600 2.907200
14.320900 2.951900
14.335100 3.009400
14.349300 3.075600
14.363500 3.148000
14.377700 3.184700
14.392000 3.173200
14.406200 3.138700
14.420400 3.083600
14.434600 3.007200
14.448900 2.963400
14.463100 2.980700
14.477300 3.025000
14.491500 3.059000
14.505800 3.079600
14.520000 3.086500
14.534200 3.079200
14.548400 3.081800
14.562700 3.092000
14.576900 3.101100
14.591100 3.057600
14.605300 3.029600
14.619600 3.018900
14.633800 3.009400
14.648000 2.990000
14.662200 2.976700
14.676500 2.970500
14.690700 2.995500
14.704900 3.054400
14.719100 3.134200
14.733400 3.169300
14.747600 3.197800
14.761800 3.219900
14.776000 3.235600
14.790300 3.250100
14.804500 3.272400
14.818700 3.302600
14.832900 3.334100
14.847200 3.314600
14.861400 3.288100
14.875600 3.258600
14.889800 3.225600
14.904100 3.205500
14.918300 3.219900
14.932500 2.959400
14.946700 2.881400
14.960900 2.831900
14.975200 2.787100
14.989400 2.745500
15.003600 2.707200
15.017800 2.673000
15.032100 2.643600
15.046300 2.620500
15.060500 2.603900
15.074700 2.596800
15.089000 2.602500
15.103200 2.625900
15.117400 2.671000
15.131600 2.489000
15.145900 2.433500
15.160100 2.400700
15.174300 2.381800
15.188500 2.365200
15.202800 2.350900
15.217000 2.327300
15.231200 2.234500
15.245400 2.088900
15.259700 1.896100
15.273900 1.655600
15.288100 1.521300
15.302300 1.460500
15.316600 1.402300
15.330800 1.345900
15.345000 1.293700
15.359200 1.244800
15.373500 1.223400
15.387700 1.189300
15.401900 1.138200
15.416100 1.067900
15.430400 1.042300
15.444600 1.023000
15.458800 1.002200
15.473000 0.979800
15.487300 0.957500
15.501500 0.943600
15.515700 1.011100
15.529900 1.605400
15.544100 1.811500
15.558400 1.794700
15.572600 1.796300
15.586800 1.931900
15.601000 2.072500
15.615300 2.317700
15.629500 2.529800
15.643700 2.702500
15.657900 2.826600
15.672200 2.948000
15.686400 3.126900
15.700600 3.409900
15.714800 3.587200
15.729100 3.714700
15.743300 3.786700
15.757500 3.832300
15.771700 3.875300
15.786000 3.905500
15.800200 3.949400
15.814400 4.002100
15.828600 4.048900
15.842900 4.089000
15.857100 4.122200
15.871300 4.150100
15.885500 4.172900
15.899800 4.200800
15.914000 4.223700
15.928200 4.212000
15.942400 4.210400
15.956700 4.233400
15.970900 4.262200
15.985100 4.198200
15.999300 4.123900
16.013600 4.048700
16.027800 3.977900
16.042000 3.920100
16.056200 3.916000
16.070400 3.854600
16.084700 3.849600
16.098900 3.748200
16.113100 3.646800
16.127300 3.569600
16.141600 3.521500
16.155800 3.468400
16.170000 3.379600
16.184200 3.311700
16.198500 3.288300
16.212700 3.260800
16.226900 3.223000
16.241100 3.183500
16.255400 3.143000
16.269600 3.109800
16.283800 3.107300
16.298000 3.111200
16.312300 3.123800
16.326500 3.147400
16.340700 3.180500
16.354900 3.211200
16.369200 3.230500
16.383400 3.254000
16.397600 3.293100
16.411800 3.333600
16.426100 3.372100
16.440300 3.408900
16.454500 3.450500
16.468700 3.488300
16.483000 3.517500
16.497200 3.539600
16.511400 3.557800
16.525600 3.569900
16.539900 3.580100
16.554100 3.588300
16.568300 3.593900
16.582500 3.599600
16.596800 3.609200
16.611000 3.670800
16.625200 3.721700
16.639400 3.907300
16.653600 4.582400
16.667900 5.119600
16.682100 4.642100
16.696300 4.451700
16.710500 4.834200
16.724800 5.034900
16.739000 5.106500
16.753200 5.190300
16.767400 4.879900
16.781700 4.643400
16.795900 4.582400
16.810100 4.537200
16.824300 4.476600
16.838600 4.451400
16.852800 4.424700
16.867000 4.396500
16.881200 4.370100
16.895500 4.348500
16.909700 4.322300
16.923900 4.267900
16.938100 4.206400
16.952400 4.132100
16.966600 4.053700
16.980800 3.975000
16.995000 3.834000
17.009300 3.818700
17.023500 4.000900
17.037700 3.918900
17.051900 3.753800
17.066200 3.604000
17.080400 3.469500
17.094600 3.399400
17.108800 3.340500
17.123100 3.398300
17.137300 3.506800
17.151500 3.575300
17.165700 3.630200
17.180000 3.684700
17.194200 3.734000
17.208400 3.680500
17.222600 3.695300
17.236800 3.730800
17.251100 3.738600
17.265300 3.778600
17.279500 3.822200
17.293700 3.871200
17.308000 3.924700
17.322200 3.990400
17.336400 4.093000
17.350600 4.179900
17.364900 4.236300
17.379100 4.267700
17.393300 4.316200
17.407500 4.365100
17.421800 4.391200
17.436000 4.388100
17.450200 4.384000
17.464400 4.444200
17.478700 4.452100
17.492900 4.443900
17.507100 4.445900
17.521300 4.381700
17.535600 4.304800
17.549800 4.193600
17.564000 4.084400
17.578200 4.069200
17.592500 4.013000
17.606700 3.924100
17.620900 3.848000
17.635100 3.789800
17.649400 3.748500
17.663600 3.718800
17.677800 3.697400
17.692000 3.675500
17.706300 3.651900
17.720500 3.626800
17.734700 3.604100
17.748900 3.521100
17.763100 3.473900
17.777400 3.462000
17.791600 3.444700
17.805800 3.437200
17.820000 3.435300
17.834300 3.440300
17.848500 3.439400
17.862700 3.408800
17.876900 3.403600
17.891200 3.398100
17.905400 3.394600
17.919600 3.366000
17.933800 3.340100
17.948100 3.316800
17.962300 3.296200
17.976500 3.278500
17.990700 3.265700
18.005000 3.256800
18.019200 3.250400
18.033400 3.247400
18.047600 3.248800
18.061900 3.250200
18.076100 3.257400
18.090300 3.260100
18.104500 3.238700
18.118800 3.170700
18.133000 3.115900
18.147200 3.087800
18.161400 3.048300
18.175700 3.047800
18.189900 3.048300
18.204100 3.048700
18.218300 3.044400
18.232600 3.032700
18.246800 3.017400
18.261000 3.000300
18.275200 2.981300
18.289500 2.968300
18.303700 2.960000
18.317900 2.953500
18.332100 2.935600
18.346300 2.911300
18.360600 2.887600
18.374800 2.875500
18.389000 2.849700
18.403200 2.820900
18.417500 2.789200
18.431700 2.754600
18.445900 2.717000
18.460100 2.676500
18.474400 2.633100
18.488600 2.587200
18.502800 2.547400
18.517000 2.512000
18.531300 2.498600
18.545500 2.464000
18.559700 2.430700
18.573900 2.398600
18.588200 2.358400
18.602400 2.384400
18.616600 2.412500
18.630800 2.345900
18.645100 2.266200
18.659300 2.210900
18.673500 2.159700
18.687700 2.112600
18.702000 2.069600
18.716200 2.057100
18.730400 2.009300
18.744600 1.940400
18.758900 1.897700
18.773100 1.855600
18.787300 1.814000
18.801500 1.773100
18.815800 1.734500
18.830000 1.747200
18.844200 1.699200
18.858400 1.655900
18.872700 1.617900
18.886900 1.556200
18.901100 1.530200
18.915300 1.384400
18.929500 1.368700
18.943800 1.349100
18.958000 1.329700
18.972200 1.310700
18.986400 1.291900
19.000700 1.273400
19.014900 1.255100
19.029100 1.236900
19.043300 1.218900
19.057600 1.200900
19.071800 1.182900
19.086000 1.164100
19.100200 1.144500
19.114500 1.124000
19.128700 1.102600
19.142900 1.080400
19.157100 1.057500
19.171400 1.033800
19.185600 1.009500
19.199800 0.984300
19.214000 0.958500
19.228300 0.931800
19.242500 0.914700
19.256700 0.895400
19.270900 0.873600
19.285200 0.849400
19.299400 0.822700
19.313600 0.793600
19.327800 0.762100
19.342100 0.727600
19.356300 0.689700
19.370500 0.639800
19.384700 0.587400
19.399000 0.534700
19.413200 0.485100
19.427400 0.351000
19.441600 0.258400
19.455800 0.178100
19.470100 0.125900
19.484300 0.105500
19.498500 0.092900
19.512700 0.080300
19.527000 0.067900
19.541200 0.054200
19.555400 0.042200
19.569600 0.032200
19.583900 0.024400
19.598100 0.018700
19.612300 0.008800
19.626500 0.006700
19.640800 0.004800
19.655000 0.003300
19.669200 0.002100
19.683400 0.001100
19.697700 0.000500
19.711900 0.000100
19.726100 0.000000
19.740300 0.000000
19.754600 0.000000
19.768800 0.000000
19.783000 0.000000
19.797200 0.000000
19.811500 0.000000
19.825700 0.000000
19.839900 0.000000
19.854100 0.000000
19.868400 0.000000
19.882600 0.000000
19.896800 0.000000
19.911000 0.000000
19.925300 0.000000
19.939500 0.000000
19.953700 0.000000
19.967900 0.000000
19.982200 0.000000
19.996400 0.000000
20.010600 0.000000
20.024800 0.000000
20.039000 0.000000
20.053300 0.000000
20.067500 0.000000
20.081700 0.000000
20.095900 0.000000
20.110200 0.000000
20.124400 0.000000
20.138600 0.000000
20.152800 0.000000
20.167100 0.000000
20.181300 0.000000
20.195500 0.000000
20.209700 0.000000
20.224000 0.000000
20.238200 0.000000
20.252400 0.000000
20.266600 0.000000
20.280900 0.000000
20.295100 0.000000
20.309300 0.000000
20.323500 0.000000
20.337800 0.000000
20.352000 0.000000
20.366200 0.000000
20.380400 0.000000
20.394700 0.000000
20.408900 0.000000
20.423100 0.000000
20.437300 0.000000
20.451600 0.000000
20.465800 0.000000
20.480000 0.000000
20.494200 0.000000
20.508500 0.000000
20.522700 0.000000
20.536900 0.000000
20.551100 0.000000
20.565400 0.000000
20.579600 0.000000
20.593800 0.000000
20.608000 0.000000
20.622200 0.000000
20.636500 0.000000
20.650700 0.000000
20.664900 0.000000
20.679100 0.000000
20.693400 0.000000
20.707600 0.000000
20.721800 0.000000
20.736000 0.000000
20.750300 0.000000
20.764500 0.000000
20.778700 0.000000
20.792900 0.000000
20.807200 0.000000
20.821400 0.000000
20.835600 0.000000
20.849800 0.000000
20.864100 0.000000
20.878300 0.000000
20.892500 0.000000
20.906700 0.000000
20.921000 0.000000
20.935200 0.000000
20.949400 0.000000
20.963600 0.000000
20.977900 0.000000
20.992100 0.000000
21.006300 0.000000
21.020500 0.000000
e
