set title 'mp-1202723 - Density of States'
set xlabel 'Energy (eV)'
set ylabel 'DOS (states/eV)'
set grid
set xrange [-10:10]
set yrange [0:12.318]
set xzeroaxis lt -1
set terminal png size 800,600
set output 'mp-1202723_dos_gnuplot.png'
plot '-' using 1:2 with lines title 'DOS'
-12.096300 0.000000
-12.078300 0.000000
-12.060200 0.000000
-12.042200 0.000000
-12.024200 0.000000
-12.006200 0.000000
-11.988200 0.000000
-11.970100 0.000000
-11.952100 0.000000
-11.934100 0.000000
-11.916100 0.000000
-11.898100 0.000000
-11.880100 0.000000
-11.862000 0.000000
-11.844000 0.000000
-11.826000 0.000000
-11.808000 0.000000
-11.790000 0.000000
-11.771900 0.000000
-11.753900 0.000000
-11.735900 0.000000
-11.717900 0.000000
-11.699900 0.000000
-11.681900 0.000000
-11.663800 0.000000
-11.645800 0.000000
-11.627800 0.000000
-11.609800 0.000000
-11.591800 0.000000
-11.573800 0.000000
-11.555700 0.000000
-11.537700 0.000000
-11.519700 0.000000
-11.501700 0.000000
-11.483700 0.000000
-11.465600 0.000000
-11.447600 0.000000
-11.429600 0.000000
-11.411600 0.000000
-11.393600 0.000000
-11.375600 0.000000
-11.357500 0.000000
-11.339500 0.000000
-11.321500 0.000000
-11.303500 0.000000
-11.285500 0.000000
-11.267500 0.000000
-11.249400 0.000000
-11.231400 0.000000
-11.213400 0.000000
-11.195400 0.000000
-11.177400 0.000000
-11.159300 0.000000
-11.141300 0.000000
-11.123300 0.000000
-11.105300 0.000000
-11.087300 0.000000
-11.069300 0.000000
-11.051200 0.000000
-11.033200 0.000000
-11.015200 0.000000
-10.997200 0.000000
-10.979200 0.000000
-10.961200 0.000000
-10.943100 0.000000
-10.925100 0.000000
-10.907100 0.000000
-10.889100 0.000000
-10.871100 0.000000
-10.853000 0.000000
-10.835000 0.000000
-10.817000 0.000000
-10.799000 0.000000
-10.781000 0.000000
-10.763000 0.000000
-10.744900 0.000000
-10.726900 0.000000
-10.708900 0.000000
-10.690900 0.000000
-10.672900 0.000000
-10.654800 0.000000
-10.636800 0.000000
-10.618800 0.000000
-10.600800 0.000000
-10.582800 0.000000
-10.564800 0.000000
-10.546700 0.000000
-10.528700 0.000000
-10.510700 0.000000
-10.492700 0.000000
-10.474700 0.000000
-10.456700 0.112300
-10.438600 0.264600
-10.420600 0.358800
-10.402600 0.420900
-10.384600 0.497400
-10.366600 0.569800
-10.348500 0.614600
-10.330500 0.660800
-10.312500 0.720500
-10.294500 0.782800
-10.276500 0.832100
-10.258500 0.875400
-10.240400 0.923200
-10.222400 0.972800
-10.204400 1.025100
-10.186400 1.086600
-10.168400 1.143800
-10.150400 1.191900
-10.132300 1.241800
-10.114300 1.299100
-10.096300 1.363500
-10.078300 1.430400
-10.060300 1.500600
-10.042200 1.569800
-10.024200 1.645500
-10.006200 1.729400
-9.988200 1.818900
-9.970200 1.912500
-9.952200 2.011800
-9.934100 2.133500
-9.916100 2.280400
-9.898100 2.444100
-9.880100 2.632500
-9.862100 2.863500
-9.844100 3.232400
-9.826000 4.099800
-9.808000 3.929900
-9.790000 3.998200
-9.772000 3.987600
-9.754000 3.960100
-9.735900 3.940900
-9.717900 4.046100
-9.699900 4.143100
-9.681900 4.121500
-9.663900 4.042900
-9.645900 4.052400
-9.627800 4.699900
-9.609800 4.907300
-9.591800 4.696600
-9.573800 11.198000
-9.555800 0.000000
-9.537700 0.000000
-9.519700 0.000000
-9.501700 0.000000
-9.483700 0.000000
-9.465700 0.000000
-9.447700 0.000000
-9.429600 0.000000
-9.411600 0.000000
-9.393600 0.000000
-9.375600 0.000000
-9.357600 0.000000
-9.339600 0.000000
-9.321500 0.000000
-9.303500 0.000000
-9.285500 0.000000
-9.267500 0.000000
-9.249500 0.000000
-9.231400 0.000000
-9.213400 0.000000
-9.195400 0.000000
-9.177400 0.000000
-9.159400 0.000000
-9.141400 0.000000
-9.123300 0.000000
-9.105300 0.000000
-9.087300 0.000000
-9.069300 0.000000
-9.051300 0.000000
-9.033300 0.000000
-9.015200 0.000000
-8.997200 0.000000
-8.979200 0.000000
-8.961200 0.000000
-8.943200 0.000000
-8.925100 0.000000
-8.907100 0.000000
-8.889100 0.000000
-8.871100 0.000000
-8.853100 0.000000
-8.835100 0.000000
-8.817000 0.000000
-8.799000 0.000000
-8.781000 0.000000
-8.763000 0.000000
-8.745000 0.000000
-8.727000 0.000000
-8.708900 0.000000
-8.690900 0.000000
-8.672900 0.000000
-8.654900 0.000000
-8.636900 0.000000
-8.618800 0.000000
-8.600800 0.000000
-8.582800 0.000000
-8.564800 0.000000
-8.546800 0.000000
-8.528800 0.000000
-8.510700 0.000000
-8.492700 0.000000
-8.474700 0.000000
-8.456700 0.000000
-8.438700 0.000000
-8.420600 0.000000
-8.402600 0.000000
-8.384600 0.000000
-8.366600 0.000000
-8.348600 0.000000
-8.330600 0.000000
-8.312500 0.000000
-8.294500 0.000000
-8.276500 0.000000
-8.258500 0.000000
-8.240500 0.000000
-8.222500 0.000000
-8.204400 0.000000
-8.186400 0.000000
-8.168400 0.000000
-8.150400 0.000000
-8.132400 0.000000
-8.114300 0.000000
-8.096300 0.000000
-8.078300 0.000000
-8.060300 0.000000
-8.042300 0.000000
-8.024300 0.000000
-8.006200 0.000000
-7.988200 0.000000
-7.970200 0.000000
-7.952200 0.000000
-7.934200 0.000000
-7.916200 0.000000
-7.898100 0.000000
-7.880100 0.000000
-7.862100 0.000000
-7.844100 0.000000
-7.826100 0.000000
-7.808000 0.000000
-7.790000 0.000000
-7.772000 0.000000
-7.754000 0.000000
-7.736000 0.000000
-7.718000 0.000000
-7.699900 0.000000
-7.681900 0.000000
-7.663900 0.000000
-7.645900 0.000000
-7.627900 0.000000
-7.609900 0.000000
-7.591800 0.348900
-7.573800 0.743200
-7.555800 1.173800
-7.537800 1.312000
-7.519800 1.553400
-7.501700 1.827000
-7.483700 2.193000
-7.465700 2.391700
-7.447700 2.598000
-7.429700 2.817100
-7.411700 3.143200
-7.393600 3.588000
-7.375600 4.432200
-7.357600 4.756800
-7.339600 4.784200
-7.321600 4.610900
-7.303500 4.308100
-7.285500 4.143800
-7.267500 4.032200
-7.249500 3.831200
-7.231500 4.755600
-7.213500 2.989900
-7.195400 2.356400
-7.177400 2.046600
-7.159400 1.768900
-7.141400 1.640200
-7.123400 1.523300
-7.105400 1.417100
-7.087300 1.309800
-7.069300 1.244900
-7.051300 1.805700
-7.033300 1.996700
-7.015300 2.536900
-6.997200 2.257700
-6.979200 2.254900
-6.961200 2.256300
-6.943200 2.235400
-6.925200 2.230800
-6.907200 2.211700
-6.889100 2.234700
-6.871100 2.256800
-6.853100 2.275200
-6.835100 2.285000
-6.817100 2.274900
-6.799100 2.259900
-6.781000 2.245000
-6.763000 2.226200
-6.745000 2.216700
-6.727000 2.208300
-6.709000 2.203400
-6.690900 2.204000
-6.672900 2.202200
-6.654900 2.200200
-6.636900 2.198500
-6.618900 2.191300
-6.600900 2.180300
-6.582800 2.153700
-6.564800 2.134400
-6.546800 2.124300
-6.528800 2.108800
-6.510800 2.093200
-6.492800 2.079100
-6.474700 2.066000
-6.456700 2.052700
-6.438700 2.058900
-6.420700 2.053800
-6.402700 2.040400
-6.384600 2.022400
-6.366600 1.998900
-6.348600 2.417600
-6.330600 2.648500
-6.312600 2.758300
-6.294600 3.039500
-6.276500 3.355500
-6.258500 3.567800
-6.240500 4.380100
-6.222500 4.491400
-6.204500 4.242400
-6.186400 4.441300
-6.168400 4.331300
-6.150400 4.260300
-6.132400 4.223600
-6.114400 4.170700
-6.096400 4.113000
-6.078300 4.181300
-6.060300 4.180500
-6.042300 4.137800
-6.024300 4.080900
-6.006300 4.037000
-5.988300 3.996000
-5.970200 4.000900
-5.952200 4.017200
-5.934200 4.073700
-5.916200 4.041500
-5.898200 3.995900
-5.880100 3.970600
-5.862100 3.967900
-5.844100 3.918300
-5.826100 3.876100
-5.808100 3.872200
-5.790100 3.999900
-5.772000 4.061700
-5.754000 3.998800
-5.736000 3.840000
-5.718000 3.519600
-5.700000 3.161600
-5.682000 2.693900
-5.663900 2.500100
-5.645900 2.341700
-5.627900 2.154800
-5.609900 2.010200
-5.591900 1.788900
-5.573800 1.620200
-5.555800 1.516100
-5.537800 1.310900
-5.519800 1.236600
-5.501800 1.199600
-5.483800 1.059500
-5.465700 0.802400
-5.447700 0.606400
-5.429700 0.686300
-5.411700 0.237100
-5.393700 0.000000
-5.375700 0.000000
-5.357600 0.000000
-5.339600 0.000000
-5.321600 0.000000
-5.303600 0.000000
-5.285600 0.000000
-5.267500 0.000000
-5.249500 0.000000
-5.231500 0.000000
-5.213500 0.000000
-5.195500 0.000000
-5.177500 0.000000
-5.159400 0.000000
-5.141400 0.000000
-5.123400 0.000000
-5.105400 0.000000
-5.087400 0.000000
-5.069300 0.000000
-5.051300 0.000000
-5.033300 0.000000
-5.015300 0.000000
-4.997300 0.000000
-4.979300 0.000000
-4.961200 0.000000
-4.943200 0.000000
-4.925200 0.000000
-4.907200 0.000000
-4.889200 0.000000
-4.871200 0.000000
-4.853100 0.116400
-4.835100 0.150900
-4.817100 0.146700
-4.799100 0.172000
-4.781100 0.198800
-4.763000 0.227200
-4.745000 0.243800
-4.727000 0.270500
-4.709000 0.298300
-4.691000 0.327200
-4.673000 0.357300
-4.654900 0.387000
-4.636900 0.412300
-4.618900 0.426700
-4.600900 0.446200
-4.582900 0.464800
-4.564900 0.482500
-4.546800 0.499100
-4.528800 0.518300
-4.510800 0.541200
-4.492800 0.566600
-4.474800 0.589500
-4.456700 0.617600
-4.438700 0.646700
-4.420700 0.676700
-4.402700 0.707800
-4.384700 0.740000
-4.366700 0.773400
-4.348600 0.825400
-4.330600 0.891800
-4.312600 0.978900
-4.294600 1.083800
-4.276600 1.141300
-4.258600 1.266700
-4.240500 1.367600
-4.222500 1.377600
-4.204500 1.452100
-4.186500 1.533800
-4.168500 1.622300
-4.150400 1.718600
-4.132400 1.844900
-4.114400 1.994300
-4.096400 2.145700
-4.078400 2.290600
-4.060400 2.509300
-4.042300 2.771800
-4.024300 3.085300
-4.006300 3.234600
-3.988300 3.288200
-3.970300 3.526700
-3.952200 3.660000
-3.934200 3.237200
-3.916200 3.176000
-3.898200 3.095200
-3.880200 3.020000
-3.862200 2.948400
-3.844100 2.870100
-3.826100 2.813700
-3.808100 2.806000
-3.790100 2.868400
-3.772100 2.718700
-3.754100 2.490100
-3.736000 2.322100
-3.718000 2.167200
-3.700000 2.054700
-3.682000 2.052600
-3.664000 1.855300
-3.645900 1.826100
-3.627900 1.841800
-3.609900 1.167900
-3.591900 1.039700
-3.573900 0.952500
-3.555900 0.796500
-3.537800 0.713900
-3.519800 0.617200
-3.501800 0.546100
-3.483800 0.620900
-3.465800 0.214100
-3.447800 0.176700
-3.429700 0.182500
-3.411700 0.276000
-3.393700 1.152700
-3.375700 1.053700
-3.357700 1.784400
-3.339600 2.498000
-3.321600 2.999200
-3.303600 3.770700
-3.285600 4.831100
-3.267600 5.943700
-3.249600 7.517300
-3.231500 8.193200
-3.213500 6.555200
-3.195500 5.166400
-3.177500 4.097700
-3.159500 3.829300
-3.141500 3.836800
-3.123400 3.946900
-3.105400 4.016100
-3.087400 4.103300
-3.069400 4.197200
-3.051400 3.857100
-3.033300 3.801100
-3.015300 3.771500
-2.997300 3.813200
-2.979300 3.759300
-2.961300 3.785000
-2.943300 3.830700
-2.925200 3.804000
-2.907200 3.780500
-2.889200 3.757500
-2.871200 3.689500
-2.853200 3.652200
-2.835100 3.437800
-2.817100 3.291800
-2.799100 3.056200
-2.781100 2.674600
-2.763100 2.581200
-2.745100 2.506800
-2.727000 2.428900
-2.709000 2.444900
-2.691000 2.552200
-2.673000 2.729100
-2.655000 2.790900
-2.637000 2.757900
-2.618900 2.734800
-2.600900 2.683800
-2.582900 2.799800
-2.564900 2.806800
-2.546900 2.805000
-2.528800 2.838100
-2.510800 2.957000
-2.492800 2.957300
-2.474800 3.090200
-2.456800 3.117800
-2.438800 3.174700
-2.420700 3.261100
-2.402700 3.161900
-2.384700 3.059800
-2.366700 3.140000
-2.348700 3.092900
-2.330700 3.113700
-2.312600 3.156000
-2.294600 3.150100
-2.276600 3.153100
-2.258600 3.409900
-2.240600 3.461800
-2.222500 3.267500
-2.204500 3.068800
-2.186500 3.116000
-2.168500 3.077100
-2.150500 3.032400
-2.132500 2.876500
-2.114400 2.576900
-2.096400 2.585400
-2.078400 2.530200
-2.060400 2.467200
-2.042400 2.473800
-2.024400 2.332500
-2.006300 2.353600
-1.988300 2.427100
-1.970300 2.557500
-1.952300 2.750900
-1.934300 3.006900
-1.916200 3.336700
-1.898200 3.546300
-1.880200 3.846200
-1.862200 4.088600
-1.844200 3.964900
-1.826200 3.757100
-1.808100 3.392900
-1.790100 3.242900
-1.772100 3.099100
-1.754100 2.957300
-1.736100 3.063900
-1.718000 3.212400
-1.700000 2.728500
-1.682000 2.631700
-1.664000 2.596600
-1.646000 2.763800
-1.628000 2.723100
-1.609900 2.654600
-1.591900 2.691300
-1.573900 2.775500
-1.555900 2.977500
-1.537900 3.434100
-1.519900 3.602900
-1.501800 3.521200
-1.483800 3.831900
-1.465800 3.905900
-1.447800 3.827300
-1.429800 3.682700
-1.411700 3.652800
-1.393700 3.579200
-1.375700 3.571200
-1.357700 3.538300
-1.339700 3.507300
-1.321700 3.449400
-1.303600 3.394400
-1.285600 3.334200
-1.267600 5.777700
-1.249600 2.980000
-1.231600 2.953800
-1.213600 2.932600
-1.195500 2.937900
-1.177500 2.924300
-1.159500 2.914300
-1.141500 2.925500
-1.123500 2.893300
-1.105400 2.891300
-1.087400 2.875400
-1.069400 2.753100
-1.051400 2.692800
-1.033400 2.698800
-1.015400 2.705800
-0.997300 2.724300
-0.979300 2.746500
-0.961300 2.773300
-0.943300 2.790800
-0.925300 2.797200
-0.907300 2.895300
-0.889200 2.946700
-0.871200 2.929100
-0.853200 2.921900
-0.835200 2.906100
-0.817200 2.881900
-0.799100 2.869600
-0.781100 2.948100
-0.763100 2.822000
-0.745100 2.874100
-0.727100 2.947300
-0.709100 3.076000
-0.691000 3.333200
-0.673000 3.724200
-0.655000 4.282400
-0.637000 3.728700
-0.619000 3.587700
-0.600900 3.545500
-0.582900 3.517000
-0.564900 3.429100
-0.546900 3.346500
-0.528900 3.297900
-0.510900 3.235800
-0.492800 3.064300
-0.474800 2.881200
-0.456800 2.791900
-0.438800 2.728000
-0.420800 2.677400
-0.402800 2.667100
-0.384700 2.677400
-0.366700 2.757100
-0.348700 3.048400
-0.330700 3.420200
-0.312700 3.550700
-0.294600 3.759400
-0.276600 3.916600
-0.258600 3.946500
-0.240600 4.167700
-0.222600 4.153600
-0.204600 3.897200
-0.186500 3.814300
-0.168500 3.716600
-0.150500 3.687800
-0.132500 3.722200
-0.114500 3.746500
-0.096500 3.805100
-0.078400 3.780600
-0.060400 3.641000
-0.042400 3.296900
-0.024400 3.011200
-0.006400 2.808400
0.011700 2.654600
0.029700 2.625000
0.047700 2.545700
0.065700 2.495600
0.083700 2.315000
0.101700 2.250100
0.119800 2.184500
0.137800 2.121000
0.155800 2.059100
0.173800 1.999700
0.191800 1.946700
0.209800 1.918800
0.227900 1.878700
0.245900 4.847000
0.263900 1.725300
0.281900 1.811200
0.299900 1.831700
0.318000 1.924300
0.336000 2.060300
0.354000 2.850300
0.372000 4.842000
0.390000 1.672900
0.408000 2.710700
0.426100 4.807900
0.444100 6.262200
0.462100 4.946600
0.480100 5.031000
0.498100 5.045500
0.516200 5.071200
0.534200 5.129200
0.552200 5.055800
0.570200 5.213500
0.588200 5.291100
0.606200 5.258900
0.624300 5.047800
0.642300 4.839900
0.660300 4.564400
0.678300 4.392800
0.696300 4.342900
0.714300 4.456800
0.732400 4.666900
0.750400 4.798500
0.768400 4.689200
0.786400 4.647200
0.804400 4.531300
0.822500 4.432000
0.840500 4.584800
0.858500 4.243600
0.876500 4.158300
0.894500 4.007800
0.912500 3.914900
0.930600 3.843100
0.948600 3.760800
0.966600 3.740600
0.984600 3.760400
1.002600 3.832300
1.020600 3.611900
1.038700 3.651200
1.056700 3.708200
1.074700 3.727900
1.092700 3.676800
1.110700 3.599300
1.128800 3.624800
1.146800 3.683000
1.164800 3.794500
1.182800 3.878100
1.200800 3.996800
1.218800 4.196500
1.236900 4.292900
1.254900 4.355600
1.272900 4.366700
1.290900 4.349200
1.308900 4.202800
1.326900 4.072200
1.345000 3.587600
1.363000 3.205800
1.381000 2.987400
1.399000 2.763000
1.417000 2.524700
1.435100 2.538700
1.453100 2.623900
1.471100 2.657100
1.489100 2.712500
1.507100 2.978500
1.525100 3.598300
1.543200 3.768300
1.561200 4.095600
1.579200 4.526600
1.597200 4.882600
1.615200 5.124000
1.633300 5.352300
1.651300 5.373500
1.669300 5.427900
1.687300 5.558300
1.705300 5.563400
1.723300 5.601300
1.741400 5.717200
1.759400 5.498900
1.777400 5.343600
1.795400 4.777400
1.813400 3.961400
1.831400 3.400400
1.849500 2.941300
1.867500 2.333700
1.885500 2.266800
1.903500 2.492900
1.921500 2.672700
1.939600 2.860100
1.957600 3.296100
1.975600 6.709700
1.993600 6.002100
2.011600 8.170900
2.029600 7.783000
2.047700 7.266500
2.065700 6.774300
2.083700 6.144700
2.101700 5.349800
2.119700 4.101400
2.137700 2.966400
2.155800 2.284000
2.173800 2.076800
2.191800 2.007400
2.209800 1.968300
2.227800 1.991600
2.245900 2.100700
2.263900 2.287800
2.281900 2.726400
2.299900 3.198100
2.317900 3.451400
2.335900 5.162900
2.354000 3.872200
2.372000 4.459500
2.390000 4.716100
2.408000 5.013000
2.426000 5.437800
2.444000 5.559000
2.462100 5.625500
2.480100 5.672900
2.498100 5.786200
2.516100 5.591700
2.534100 5.255100
2.552200 4.721000
2.570200 4.314900
2.588200 4.009800
2.606200 3.804000
2.624200 3.903800
2.642200 3.747600
2.660300 3.953500
2.678300 4.616300
2.696300 5.013400
2.714300 5.327400
2.732300 5.508900
2.750400 5.783700
2.768400 5.852900
2.786400 6.246000
2.804400 6.536000
2.822400 6.865000
2.840400 8.769500
2.858500 9.027200
2.876500 6.253100
2.894500 6.002600
2.912500 5.700600
2.930500 5.755000
2.948500 5.120100
2.966600 5.746200
2.984600 6.347600
3.002600 7.198400
3.020600 8.523900
3.038600 7.451500
3.056700 6.696600
3.074700 7.028400
3.092700 5.841200
3.110700 6.368200
3.128700 6.580000
3.146700 6.460300
3.164800 6.115500
3.182800 5.785500
3.200800 5.668900
3.218800 5.589100
3.236800 5.548300
3.254800 5.365400
3.272900 5.722900
3.290900 6.907100
3.308900 8.131600
3.326900 7.049600
3.344900 6.275300
3.363000 6.219100
3.381000 5.735600
3.399000 5.378200
3.417000 5.433100
3.435000 5.482800
3.453000 5.461700
3.471100 5.511000
3.489100 5.645200
3.507100 6.039900
3.525100 7.463300
3.543100 7.391000
3.561100 6.740400
3.579200 5.742100
3.597200 4.786000
3.615200 4.058900
3.633200 3.658900
3.651200 3.116200
3.669300 2.556000
3.687300 2.001000
3.705300 1.169000
3.723300 1.187700
3.741300 0.718100
3.759300 0.589900
3.777400 0.465000
3.795400 0.497800
3.813400 0.301600
3.831400 0.264800
3.849400 0.231400
3.867500 0.201300
3.885500 0.174700
3.903500 0.172300
3.921500 0.136400
3.939500 0.104200
3.957500 0.075700
3.975600 0.000000
3.993600 0.000000
4.011600 0.000000
4.029600 0.000000
4.047600 0.000000
4.065600 0.000000
4.083700 0.000000
4.101700 0.000000
4.119700 0.000000
4.137700 0.000000
4.155700 0.000000
4.173800 0.000000
4.191800 0.000000
4.209800 0.000000
4.227800 0.000000
4.245800 0.000000
4.263800 0.000000
4.281900 0.000000
4.299900 0.000000
4.317900 0.000000
4.335900 0.000000
4.353900 0.000000
4.371900 0.000000
4.390000 0.000000
4.408000 0.000000
4.426000 0.000000
4.444000 0.000000
4.462000 0.000000
4.480100 0.000000
4.498100 0.000000
4.516100 0.000000
4.534100 0.000000
4.552100 0.000000
4.570100 0.000000
4.588200 0.000000
4.606200 0.000000
4.624200 0.000000
4.642200 0.000000
4.660200 0.000000
4.678200 0.000000
4.696300 0.000000
4.714300 0.000000
4.732300 0.000000
4.750300 0.000000
4.768300 0.000000
4.786400 0.000000
4.804400 0.000000
4.822400 0.000000
4.840400 0.000000
4.858400 0.000000
4.876400 0.000000
4.894500 0.000000
4.912500 0.000000
4.930500 0.000000
4.948500 0.000000
4.966500 0.000000
4.984600 0.000000
5.002600 0.000000
5.020600 0.000000
5.038600 0.000000
5.056600 0.000000
5.074600 0.000000
5.092700 0.000000
5.110700 0.000000
5.128700 0.000000
5.146700 0.000000
5.164700 0.000000
5.182700 0.000000
5.200800 0.000000
5.218800 0.000000
5.236800 0.000000
5.254800 0.000000
5.272800 0.000000
5.290900 0.253100
5.308900 0.412300
5.326900 0.362300
5.344900 0.428100
5.362900 0.493900
5.380900 0.563300
5.399000 0.636600
5.417000 0.791700
5.435000 0.907200
5.453000 0.880000
5.471000 0.935600
5.489000 0.980700
5.507100 1.024500
5.525100 1.030300
5.543100 1.069200
5.561100 1.107100
5.579100 1.132600
5.597200 1.125600
5.615200 1.103400
5.633200 1.071000
5.651200 1.078100
5.669200 1.084700
5.687200 1.090900
5.705300 1.096200
5.723300 1.106500
5.741300 1.123400
5.759300 1.141800
5.777300 1.160600
5.795300 1.196300
5.813400 1.221300
5.831400 1.245700
5.849400 1.248100
5.867400 1.264800
5.885400 1.280500
5.903500 1.294500
5.921500 1.307500
5.939500 1.319300
5.957500 1.327500
5.975500 1.335600
5.993500 1.349600
6.011600 1.364400
6.029600 1.377100
6.047600 1.398600
6.065600 1.420400
6.083600 1.430600
6.101700 1.441900
6.119700 1.454300
6.137700 1.467400
6.155700 1.482600
6.173700 1.493100
6.191700 1.504400
6.209800 1.516100
6.227800 1.528600
6.245800 1.556500
6.263800 1.593500
6.281800 1.625800
6.299800 1.667600
6.317900 1.704100
6.335900 1.729800
6.353900 1.750300
6.371900 1.766600
6.389900 1.785200
6.408000 1.804000
6.426000 1.821800
6.444000 1.839400
6.462000 1.845200
6.480000 1.856200
6.498000 1.890300
6.516100 1.913400
6.534100 1.931700
6.552100 1.954300
6.570100 1.979500
6.588100 2.012600
6.606100 2.052000
6.624200 2.097600
6.642200 2.923400
6.660200 2.875100
6.678200 2.793400
6.696200 2.800000
6.714300 2.957200
6.732300 2.756300
6.750300 2.503100
6.768300 2.541000
6.786300 2.563600
6.804300 2.450000
6.822400 2.381000
6.840400 2.302500
6.858400 2.266200
6.876400 2.149900
6.894400 2.039300
6.912400 1.929600
6.930500 1.816500
6.948500 1.705100
6.966500 1.624900
6.984500 1.574600
7.002500 1.532800
7.020600 1.493600
7.038600 1.457500
7.056600 1.424300
7.074600 1.594100
7.092600 1.898500
7.110600 2.364600
7.128700 2.982600
7.146700 3.064100
7.164700 2.667400
7.182700 2.638500
7.200700 2.552700
7.218800 2.472300
7.236800 2.447500
7.254800 2.408000
7.272800 2.384700
7.290800 2.364200
7.308800 2.347000
7.326900 2.340400
7.344900 2.332300
7.362900 2.314400
7.380900 2.284500
7.398900 2.259600
7.416900 2.234700
7.435000 2.217900
7.453000 2.204200
7.471000 2.191200
7.489000 2.180000
7.507000 2.171700
7.525100 2.164200
7.543100 2.159400
7.561100 2.156100
7.579100 2.149700
7.597100 2.131900
7.615100 2.120600
7.633200 2.112800
7.651200 2.103500
7.669200 2.095700
7.687200 2.092800
7.705200 2.086900
7.723200 2.085900
7.741300 2.085100
7.759300 2.080900
7.777300 2.073400
7.795300 2.066200
7.813300 2.057500
7.831400 2.046400
7.849400 2.026800
7.867400 2.008800
7.885400 2.000800
7.903400 1.994500
7.921400 1.989500
7.939500 2.002400
7.957500 1.988600
7.975500 1.975000
7.993500 1.956500
8.011500 1.939200
8.029500 1.945200
8.047600 1.929700
8.065600 1.892100
8.083600 1.882800
8.101600 1.731100
8.119600 1.676700
8.137700 1.648800
8.155700 1.666700
8.173700 1.725600
8.191700 1.725900
8.209700 1.660400
8.227700 1.583500
8.245800 1.516200
8.263800 1.599100
8.281800 1.505900
8.299800 1.726200
8.317800 1.404800
8.335900 1.289100
8.353900 1.104600
8.371900 0.975800
8.389900 0.847500
8.407900 0.806400
8.425900 0.778400
8.444000 0.756500
8.462000 0.740100
8.480000 0.729200
8.498000 0.724000
8.516000 0.724300
8.534000 0.731600
8.552100 0.746300
8.570100 0.830500
8.588100 0.817300
8.606100 0.750100
8.624100 1.064500
8.642200 1.178300
8.660200 1.296700
8.678200 1.340000
8.696200 1.396800
8.714200 1.462400
8.732200 1.524600
8.750300 1.603600
8.768300 1.683400
8.786300 1.760900
8.804300 1.840200
8.822300 1.963800
8.840300 2.029700
8.858400 2.096200
8.876400 2.152900
8.894400 2.093600
8.912400 2.209800
8.930400 2.308800
8.948500 2.476100
8.966500 2.683700
8.984500 2.888400
9.002500 3.226400
9.020500 3.403100
9.038500 3.714100
9.056600 3.872100
9.074600 4.144600
9.092600 4.172700
9.110600 3.928200
9.128600 3.918600
9.146600 3.898800
9.164700 3.909100
9.182700 4.040400
9.200700 3.939100
9.218700 3.783800
9.236700 3.839900
9.254800 3.460500
9.272800 2.936800
9.290800 2.589900
9.308800 2.533900
9.326800 2.701900
9.344800 2.582700
9.362900 2.514900
9.380900 2.432700
9.398900 2.389100
9.416900 2.436600
9.434900 2.446300
9.453000 2.462500
9.471000 2.438200
9.489000 2.462100
9.507000 2.602500
9.525000 3.070800
9.543000 2.622800
9.561100 2.606100
9.579100 2.651200
9.597100 2.747200
9.615100 2.799600
9.633100 2.858100
9.651100 2.951400
9.669200 3.236300
9.687200 3.166900
9.705200 3.145200
9.723200 3.169200
9.741200 3.231100
9.759300 3.252100
9.777300 3.255100
9.795300 3.426700
9.813300 3.305100
9.831300 3.284000
9.849300 3.878700
9.867400 4.187600
9.885400 4.463700
9.903400 4.697500
9.921400 5.080300
9.939400 5.645500
9.957400 6.393800
9.975500 5.776100
9.993500 4.652600
10.011500 4.028900
10.029500 3.737200
10.047500 3.601200
10.065600 3.512500
10.083600 3.498900
10.101600 3.595200
10.119600 3.679900
10.137600 3.612500
10.155600 3.948000
10.173700 3.916500
10.191700 4.156900
10.209700 4.640300
10.227700 4.920300
10.245700 4.666100
10.263700 4.608500
10.281800 4.415800
10.299800 4.296500
10.317800 4.333500
10.335800 4.434900
10.353800 4.706700
10.371900 4.091600
10.389900 3.895300
10.407900 4.022000
10.425900 4.061100
10.443900 4.373000
10.461900 4.391400
10.480000 4.571700
10.498000 4.643700
10.516000 4.450100
10.534000 4.217200
10.552000 3.985000
10.570100 3.682500
10.588100 3.406600
10.606100 3.300300
10.624100 2.853900
10.642100 2.675600
10.660100 2.570300
10.678200 2.571600
10.696200 2.667400
10.714200 2.765600
10.732200 3.037200
10.750200 3.387800
10.768200 3.733700
10.786300 3.858600
10.804300 4.090700
10.822300 4.334500
10.840300 4.604500
10.858300 4.807500
10.876400 4.892800
10.894400 5.026100
10.912400 5.160600
10.930400 5.497600
10.948400 4.807400
10.966400 3.993800
10.984500 3.542700
11.002500 3.252200
11.020500 3.063100
11.038500 3.021500
11.056500 3.134800
11.074500 3.380200
11.092600 3.616900
11.110600 3.506300
11.128600 3.508900
11.146600 3.878300
11.164600 4.103800
11.182700 4.415400
11.200700 4.637100
11.218700 4.844700
11.236700 4.853100
11.254700 4.890800
11.272700 5.754900
11.290800 5.103400
11.308800 4.872800
11.326800 4.749000
11.344800 4.626000
11.362800 4.345800
11.380800 4.199200
11.398900 3.723700
11.416900 3.480100
11.434900 3.327600
11.452900 3.737200
11.470900 3.960200
11.489000 4.369700
11.507000 5.106900
11.525000 5.253500
11.543000 4.933400
11.561000 4.735000
11.579000 4.472600
11.597100 4.209200
11.615100 4.177100
11.633100 4.375000
11.651100 4.109500
11.669100 4.166300
11.687200 4.215300
11.705200 4.181900
11.723200 4.090800
11.741200 4.012800
11.759200 3.914600
11.777200 3.512300
11.795300 3.744100
11.813300 4.041800
11.831300 6.945200
11.849300 4.435000
11.867300 4.842100
11.885300 5.476500
11.903400 5.183200
11.921400 5.185700
11.939400 5.218700
11.957400 5.214500
11.975400 5.277800
11.993500 5.415100
12.011500 5.458300
12.029500 5.582000
12.047500 5.818800
12.065500 6.130900
12.083500 5.893300
12.101600 5.737800
12.119600 5.667100
12.137600 6.123300
12.155600 6.428300
12.173600 7.054400
12.191600 7.382100
12.209700 7.849300
12.227700 8.002600
12.245700 8.148400
12.263700 8.424900
12.281700 7.978500
12.299800 7.689800
12.317800 7.096100
12.335800 6.771200
12.353800 6.345600
12.371800 5.906600
12.389800 5.640900
12.407900 4.820300
12.425900 4.482200
12.443900 4.265800
12.461900 4.072000
12.479900 3.896900
12.497900 3.736100
12.516000 3.684800
12.534000 3.786600
12.552000 3.891900
12.570000 3.557800
12.588000 3.433800
12.606100 3.219000
12.624100 3.100400
12.642100 2.705600
12.660100 2.205000
12.678100 1.764000
12.696100 1.522900
12.714200 1.665000
12.732200 1.366200
12.750200 1.576500
12.768200 1.600700
12.786200 0.924900
12.804300 1.726900
12.822300 1.470800
12.840300 1.629800
12.858300 1.704200
12.876300 1.763400
12.894300 1.720200
12.912400 1.655800
12.930400 1.699900
12.948400 1.718600
12.966400 1.764600
12.984400 1.819400
13.002400 1.868400
13.020500 1.929100
13.038500 2.003700
13.056500 2.084600
13.074500 2.159700
13.092500 2.298400
13.110600 2.393100
13.128600 2.529100
13.146600 2.677100
13.164600 2.793700
13.182600 2.850200
13.200600 2.897200
13.218700 3.038200
13.236700 3.084100
13.254700 3.195300
13.272700 3.296800
13.290700 3.443800
13.308700 3.650500
13.326800 3.782600
13.344800 3.826100
13.362800 4.174000
13.380800 4.296000
13.398800 3.621500
13.416900 3.089700
13.434900 2.953600
13.452900 3.005400
13.470900 3.080200
13.488900 3.091300
13.506900 3.036700
13.525000 2.989700
13.543000 2.952500
13.561000 2.913400
13.579000 2.921800
13.597000 2.879600
13.615000 2.765500
13.633100 2.688800
13.651100 2.650800
13.669100 2.565200
13.687100 2.476200
13.705100 2.374300
13.723200 2.277800
13.741200 3.745900
13.759200 2.104100
13.777200 2.024000
13.795200 1.960900
13.813200 1.917000
13.831300 1.903600
13.849300 2.042300
13.867300 2.060100
13.885300 2.107500
13.903300 2.157500
13.921400 2.210700
13.939400 2.261500
13.957400 2.292200
13.975400 2.328700
13.993400 2.422300
14.011400 2.445400
14.029500 2.558400
14.047500 2.641100
14.065500 2.776500
14.083500 2.880000
14.101500 2.962900
14.119500 2.979700
14.137600 2.957000
14.155600 2.884200
14.173600 2.868900
14.191600 2.872000
14.209600 2.886900
14.227700 2.946100
14.245700 2.944900
14.263700 3.024200
14.281700 3.127800
14.299700 3.070700
14.317700 3.048000
14.335800 3.033700
14.353800 3.023200
14.371800 3.037600
14.389800 3.111000
14.407800 2.980600
14.425800 3.015300
14.443900 3.068400
14.461900 3.127600
14.479900 3.264800
14.497900 3.364000
14.515900 3.308400
14.534000 3.314300
14.552000 3.321500
14.570000 3.263200
14.588000 3.261500
14.606000 3.255600
14.624000 3.256500
14.642100 3.290500
14.660100 3.424200
14.678100 3.421700
14.696100 3.412700
14.714100 3.297100
14.732100 3.105500
14.750200 3.119400
14.768200 3.174700
14.786200 3.258300
14.804200 3.303700
14.822200 3.331200
14.840300 3.379000
14.858300 3.406600
14.876300 3.327700
14.894300 3.289400
14.912300 3.182200
14.930300 3.168000
14.948400 3.155900
14.966400 3.133000
14.984400 3.107100
15.002400 3.091700
15.020400 3.060200
15.038500 3.095900
15.056500 3.086600
15.074500 3.110900
15.092500 3.155200
15.110500 3.231200
15.128500 3.548400
15.146600 3.635200
15.164600 3.572400
15.182600 3.493700
15.200600 3.482700
15.218600 3.352500
15.236600 3.183500
15.254700 3.136200
15.272700 2.997100
15.290700 2.923200
15.308700 2.901800
15.326700 2.952700
15.344800 2.999400
15.362800 2.952800
15.380800 3.187300
15.398800 2.848100
15.416800 2.839000
15.434800 2.833600
15.452900 2.839700
15.470900 2.886900
15.488900 2.931600
15.506900 3.041800
15.524900 3.022800
15.542900 3.053200
15.561000 3.072900
15.579000 3.104500
15.597000 3.102600
15.615000 3.027600
15.633000 2.906600
15.651100 2.883200
15.669100 2.914500
15.687100 2.950600
15.705100 3.000400
15.723100 3.035200
15.741100 3.072300
15.759200 2.956900
15.777200 2.972900
15.795200 3.003700
15.813200 3.165400
15.831200 2.887300
15.849200 2.868400
15.867300 2.979800
15.885300 3.095000
15.903300 3.169500
15.921300 3.128500
15.939300 3.214800
15.957400 3.330300
15.975400 3.451900
15.993400 3.465800
16.011400 3.514400
16.029400 3.727000
16.047400 3.887800
16.065500 3.910700
16.083500 3.742200
16.101500 3.521800
16.119500 3.357800
16.137500 3.216600
16.155600 3.230700
16.173600 3.357500
16.191600 3.511400
16.209600 3.913700
16.227600 4.488800
16.245600 4.735800
16.263700 4.669800
16.281700 4.609400
16.299700 4.729100
16.317700 4.957100
16.335700 5.246300
16.353700 5.621400
16.371800 6.259600
16.389800 6.259200
16.407800 5.830300
16.425800 5.043700
16.443800 5.370100
16.461900 5.153200
16.479900 4.795500
16.497900 4.303800
16.515900 3.858900
16.533900 3.450800
16.551900 3.383900
16.570000 3.740900
16.588000 4.233800
16.606000 4.003500
16.624000 3.855900
16.642000 3.666000
16.660000 3.521900
16.678100 3.394700
16.696100 3.413500
16.714100 3.370100
16.732100 3.356700
16.750100 3.330300
16.768200 3.351400
16.786200 3.466900
16.804200 3.386300
16.822200 3.427900
16.840200 3.501300
16.858200 3.851100
16.876300 4.243700
16.894300 4.382400
16.912300 4.058100
16.930300 3.545300
16.948300 3.378800
16.966300 3.277700
16.984400 3.068000
17.002400 2.906900
17.020400 2.593300
17.038400 2.435300
17.056400 2.351700
17.074500 2.280700
17.092500 2.217800
17.110500 2.162300
17.128500 2.193500
17.146500 2.122000
17.164500 2.118100
17.182600 2.102000
17.200600 2.080800
17.218600 2.078400
17.236600 2.078900
17.254600 2.096000
17.272700 2.308300
17.290700 2.400300
17.308700 2.455500
17.326700 2.500500
17.344700 2.526700
17.362700 2.603100
17.380800 2.608100
17.398800 2.631900
17.416800 2.707400
17.434800 2.817200
17.452800 2.902400
17.470800 2.981800
17.488900 3.085800
17.506900 3.201300
17.524900 3.306800
17.542900 3.273500
17.560900 3.285600
17.579000 3.165300
17.597000 3.088600
17.615000 3.070300
17.633000 3.146900
17.651000 3.212200
17.669000 3.176500
17.687100 3.368800
17.705100 3.558900
17.723100 3.760100
17.741100 4.003800
17.759100 4.349300
17.777100 4.448100
17.795200 4.609100
17.813200 5.117100
17.831200 4.802300
17.849200 4.604900
17.867200 4.530900
17.885300 4.537500
17.903300 4.384400
17.921300 4.393000
17.939300 4.780000
17.957300 4.909600
17.975300 5.067400
17.993400 5.290400
18.011400 5.210800
18.029400 5.426000
18.047400 5.561200
18.065400 5.441300
18.083400 5.483300
18.101500 5.726200
18.119500 5.812700
18.137500 5.879300
18.155500 5.883600
18.173500 5.762100
18.191600 5.217700
18.209600 5.221200
18.227600 5.762100
18.245600 6.093500
18.263600 6.312300
18.281600 7.299000
18.299700 6.248300
18.317700 6.029100
18.335700 6.249000
18.353700 6.921700
18.371700 7.444900
18.389800 7.366700
18.407800 6.999500
18.425800 6.960100
18.443800 6.981700
18.461800 6.938400
18.479800 6.961500
18.497900 7.969600
18.515900 7.623300
18.533900 7.772300
18.551900 7.170900
18.569900 6.857800
18.587900 6.360200
18.606000 5.969800
18.624000 6.828500
18.642000 6.341500
18.660000 6.354400
18.678000 6.553700
18.696100 7.050200
18.714100 7.327000
18.732100 8.053000
18.750100 8.659900
18.768100 8.730000
18.786100 9.499300
18.804200 7.634900
18.822200 7.193100
18.840200 6.860500
18.858200 6.627200
18.876200 6.741300
18.894200 6.316500
18.912300 6.666300
18.930300 7.034500
18.948300 8.413400
18.966300 8.250900
18.984300 7.831800
19.002400 7.496900
19.020400 7.192900
19.038400 6.870900
19.056400 7.000700
19.074400 7.053600
19.092400 7.385000
19.110500 6.909300
19.128500 6.626000
19.146500 6.517200
19.164500 5.937900
19.182500 5.684900
19.200500 5.531700
19.218600 5.332900
19.236600 5.053300
19.254600 5.068300
19.272600 5.175500
19.290600 5.457500
19.308700 5.921400
19.326700 5.858700
19.344700 5.839100
19.362700 5.618000
19.380700 5.158300
19.398700 5.031500
19.416800 4.910000
19.434800 4.914000
19.452800 4.943100
19.470800 4.785600
19.488800 4.752200
19.506900 4.791100
19.524900 4.790400
19.542900 4.803400
19.560900 4.921600
19.578900 5.031500
19.596900 5.023000
19.615000 5.142800
19.633000 5.095900
19.651000 5.281000
19.669000 5.487700
19.687000 5.632800
19.705000 6.414000
19.723100 6.299700
19.741100 6.132300
19.759100 6.496800
19.777100 6.499800
19.795100 6.218800
19.813200 5.646200
19.831200 5.638900
19.849200 5.582800
19.867200 5.333000
19.885200 5.237300
19.903200 5.088500
19.921300 4.856600
19.939300 4.712200
19.957300 4.696700
19.975300 4.986900
19.993300 5.276500
20.011300 5.066400
20.029400 4.968500
20.047400 4.860700
20.065400 4.743300
20.083400 4.588600
20.101400 4.403400
20.119500 4.380700
20.137500 4.449600
20.155500 4.828200
20.173500 4.832900
20.191500 4.910900
20.209500 5.085700
20.227600 5.121100
20.245600 5.199600
20.263600 5.276800
20.281600 5.267000
20.299600 4.969000
20.317600 5.070300
20.335700 5.617300
20.353700 5.401500
20.371700 4.966100
20.389700 4.784800
20.407700 4.641700
20.425800 4.586800
20.443800 4.530600
20.461800 4.510500
20.479800 4.559600
20.497800 4.669800
20.515800 4.635900
20.533900 4.229100
20.551900 4.183500
20.569900 4.214300
20.587900 4.190800
20.605900 4.153800
20.624000 4.102100
20.642000 4.073500
20.660000 4.068600
20.678000 4.182800
20.696000 4.123800
20.714000 3.890600
20.732100 3.594500
20.750100 3.448400
20.768100 3.342400
20.786100 3.225500
20.804100 3.114200
20.822100 2.998600
20.840200 2.844600
20.858200 2.717800
20.876200 2.739000
20.894200 2.691000
20.912200 2.667300
20.930300 2.714900
20.948300 2.626100
20.966300 2.570500
20.984300 2.516700
21.002300 2.522900
21.020300 2.729700
21.038400 3.003500
21.056400 3.166400
21.074400 3.327500
21.092400 3.462800
21.110400 3.574800
21.128400 3.635900
21.146500 3.780800
21.164500 3.875100
21.182500 3.822300
21.200500 3.730900
21.218500 3.633500
21.236600 3.513700
21.254600 3.546700
21.272600 3.250400
21.290600 3.206800
21.308600 3.152300
21.326600 3.095200
21.344700 3.030700
21.362700 2.955600
21.380700 2.888400
21.398700 2.834200
21.416700 2.811000
21.434700 2.728500
21.452800 2.716800
21.470800 2.728100
21.488800 2.828600
21.506800 2.575900
21.524800 2.504300
21.542900 2.471700
21.560900 2.696300
21.578900 2.981300
21.596900 2.974500
21.614900 2.892700
21.632900 2.844100
21.651000 2.762600
21.669000 3.201300
21.687000 2.327900
21.705000 2.093100
21.723000 1.913900
21.741100 1.735000
21.759100 1.582800
21.777100 1.514400
21.795100 1.509200
21.813100 1.447900
21.831100 1.381300
21.849200 1.311500
21.867200 1.249400
21.885200 1.260300
21.903200 1.191700
21.921200 1.308200
21.939200 1.324100
21.957300 1.074800
21.975300 1.038800
21.993300 0.979300
22.011300 0.992900
22.029300 1.069300
22.047400 1.133700
22.065400 1.199000
22.083400 1.247500
22.101400 1.264400
22.119400 1.317200
22.137400 1.367400
22.155500 1.224800
22.173500 0.917700
22.191500 0.784400
22.209500 0.739300
22.227500 0.710300
22.245500 0.434200
22.263600 0.143700
22.281600 0.011200
22.299600 0.000100
22.317600 0.000000
22.335600 0.000000
22.353700 0.000000
22.371700 0.000000
22.389700 0.000000
22.407700 0.000000
22.425700 0.000000
22.443700 0.000000
22.461800 0.000000
22.479800 0.000000
22.497800 0.000000
22.515800 0.000000
22.533800 0.000000
22.551800 0.000000
22.569900 0.000000
22.587900 0.000000
22.605900 0.000000
22.623900 0.000000
22.641900 0.000000
22.660000 0.000000
22.678000 0.000000
22.696000 0.000000
22.714000 0.000000
22.732000 0.000000
22.750000 0.000000
22.768100 0.000000
22.786100 0.000000
22.804100 0.000000
22.822100 0.000000
22.840100 0.000000
22.858200 0.000000
22.876200 0.000000
22.894200 0.000000
22.912200 0.000000
22.930200 0.000000
22.948200 0.000000
22.966300 0.000000
22.984300 0.000000
23.002300 0.000000
23.020300 0.000000
23.038300 0.000000
23.056300 0.000000
23.074400 0.000000
23.092400 0.000000
23.110400 0.000000
23.128400 0.000000
23.146400 0.000000
23.164500 0.000000
23.182500 0.000000
23.200500 0.000000
23.218500 0.000000
23.236500 0.000000
23.254500 0.000000
23.272600 0.000000
23.290600 0.000000
23.308600 0.000000
23.326600 0.000000
23.344600 0.000000
23.362600 0.000000
23.380700 0.000000
23.398700 0.000000
23.416700 0.000000
23.434700 0.000000
23.452700 0.000000
23.470800 0.000000
23.488800 0.000000
23.506800 0.000000
23.524800 0.000000
23.542800 0.000000
23.560800 0.000000
23.578900 0.000000
23.596900 0.000000
23.614900 0.000000
23.632900 0.000000
23.650900 0.000000
23.668900 0.000000
23.687000 0.000000
23.705000 0.000000
23.723000 0.000000
23.741000 0.000000
23.759000 0.000000
23.777100 0.000000
23.795100 0.000000
23.813100 0.000000
23.831100 0.000000
23.849100 0.000000
23.867100 0.000000
23.885200 0.000000
23.903200 0.000000
23.921200 0.000000
23.939200 0.000000
e
