set title 'mp-556750 - Density of States'
set xlabel 'Energy (eV)'
set ylabel 'DOS (states/eV)'
set grid
set xrange [-10:10]
set yrange [0:5.652]
set xzeroaxis lt -1
set terminal png size 800,600
set output 'mp-556750_dos_gnuplot.png'
plot '-' using 1:2 with lines title 'DOS'
-26.904800 0.000000
-26.863000 0.000000
-26.821300 0.000000
-26.779500 0.000000
-26.737700 0.000000
-26.695900 0.000000
-26.654100 0.000000
-26.612300 0.000000
-26.570500 0.000000
-26.528800 0.000000
-26.487000 0.000000
-26.445200 0.000000
-26.403400 0.000000
-26.361600 0.000000
-26.319800 0.000000
-26.278100 0.000000
-26.236300 0.000000
-26.194500 0.000000
-26.152700 0.000000
-26.110900 0.000000
-26.069100 0.000000
-26.027300 0.000000
-25.985600 0.000000
-25.943800 0.000000
-25.902000 0.000000
-25.860200 0.000000
-25.818400 0.000000
-25.776600 0.000000
-25.734900 0.000000
-25.693100 0.000000
-25.651300 0.000000
-25.609500 0.000000
-25.567700 0.000000
-25.525900 0.000000
-25.484100 0.000000
-25.442400 0.000000
-25.400600 0.000000
-25.358800 0.000000
-25.317000 0.000000
-25.275200 0.000000
-25.233400 0.000000
-25.191700 0.000000
-25.149900 0.000000
-25.108100 0.000000
-25.066300 0.000000
-25.024500 0.000000
-24.982700 0.000000
-24.940900 0.000000
-24.899200 0.000000
-24.857400 0.000000
-24.815600 0.000000
-24.773800 0.000000
-24.732000 0.000000
-24.690200 0.000000
-24.648500 0.000000
-24.606700 0.000000
-24.564900 0.000000
-24.523100 0.000000
-24.481300 0.000000
-24.439500 0.000000
-24.397800 0.000000
-24.356000 0.000000
-24.314200 0.000000
-24.272400 0.000000
-24.230600 0.000000
-24.188800 0.000000
-24.147000 0.000000
-24.105300 0.000000
-24.063500 0.000000
-24.021700 0.000000
-23.979900 0.000000
-23.938100 0.000000
-23.896300 0.000000
-23.854600 0.000000
-23.812800 0.000000
-23.771000 0.000000
-23.729200 0.000000
-23.687400 0.000000
-23.645600 0.000000
-23.603800 0.000000
-23.562100 0.000000
-23.520300 0.000000
-23.478500 0.000000
-23.436700 0.000000
-23.394900 0.000000
-23.353100 0.000000
-23.311400 0.000000
-23.269600 0.000000
-23.227800 0.000000
-23.186000 0.000000
-23.144200 0.000000
-23.102400 0.481300
-23.060600 0.373300
-23.018900 0.331000
-22.977100 0.365700
-22.935300 0.366700
-22.893500 0.365500
-22.851700 0.382200
-22.809900 0.401100
-22.768200 0.395000
-22.726400 0.403900
-22.684600 0.417000
-22.642800 0.430700
-22.601000 0.438100
-22.559200 0.449900
-22.517400 0.462200
-22.475700 0.477800
-22.433900 0.494200
-22.392100 0.512200
-22.350300 0.529500
-22.308500 0.549000
-22.266700 0.573000
-22.225000 0.594500
-22.183200 0.632700
-22.141400 0.667800
-22.099600 0.708800
-22.057800 0.745300
-22.016000 0.820200
-21.974300 0.915700
-21.932500 1.022600
-21.890700 1.342800
-21.848900 1.195700
-21.807100 1.040600
-21.765300 0.941200
-21.723500 0.916600
-21.681800 0.880700
-21.640000 0.929600
-21.598200 1.121900
-21.556400 10.632300
-21.514600 4.080100
-21.472800 3.098100
-21.431100 2.660200
-21.389300 2.396300
-21.347500 2.169700
-21.305700 1.974200
-21.263900 1.955600
-21.222100 0.000000
-21.180300 0.000000
-21.138600 0.000000
-21.096800 0.000000
-21.055000 0.000000
-21.013200 0.000000
-20.971400 0.000000
-20.929600 0.000000
-20.887900 0.000000
-20.846100 0.000000
-20.804300 0.000000
-20.762500 0.000000
-20.720700 0.000000
-20.678900 0.000000
-20.637100 0.000000
-20.595400 0.000000
-20.553600 0.000000
-20.511800 0.000000
-20.470000 0.000000
-20.428200 0.000000
-20.386400 0.000000
-20.344700 0.000000
-20.302900 0.000000
-20.261100 0.000000
-20.219300 0.000000
-20.177500 0.000000
-20.135700 0.000000
-20.093900 0.000000
-20.052200 0.000000
-20.010400 0.000000
-19.968600 0.000000
-19.926800 0.000000
-19.885000 0.000000
-19.843200 0.000000
-19.801500 0.000000
-19.759700 0.000000
-19.717900 0.000000
-19.676100 0.000000
-19.634300 0.000000
-19.592500 0.000000
-19.550800 0.000000
-19.509000 0.000000
-19.467200 0.000000
-19.425400 0.000000
-19.383600 0.000000
-19.341800 0.000000
-19.300000 0.000000
-19.258300 0.000000
-19.216500 0.000000
-19.174700 0.000000
-19.132900 0.000000
-19.091100 0.000000
-19.049300 0.000000
-19.007600 0.000000
-18.965800 0.000000
-18.924000 0.000000
-18.882200 0.000000
-18.840400 0.000000
-18.798600 0.000000
-18.756800 0.000000
-18.715100 0.000000
-18.673300 0.000000
-18.631500 0.000000
-18.589700 0.000000
-18.547900 0.000000
-18.506100 0.000000
-18.464400 0.000000
-18.422600 0.000000
-18.380800 0.000000
-18.339000 0.000000
-18.297200 0.000000
-18.255400 0.000000
-18.213600 0.000000
-18.171900 0.000000
-18.130100 0.000000
-18.088300 0.000000
-18.046500 0.000000
-18.004700 0.000000
-17.962900 0.000000
-17.921200 0.000000
-17.879400 0.000000
-17.837600 0.000000
-17.795800 0.000000
-17.754000 0.000000
-17.712200 0.000000
-17.670400 0.000000
-17.628700 0.000000
-17.586900 0.000000
-17.545100 0.000000
-17.503300 0.000000
-17.461500 0.000000
-17.419700 0.000000
-17.378000 0.000000
-17.336200 0.000000
-17.294400 0.000000
-17.252600 0.000000
-17.210800 0.000000
-17.169000 0.000000
-17.127300 0.000000
-17.085500 0.000000
-17.043700 0.000000
-17.001900 0.000000
-16.960100 0.000000
-16.918300 0.000000
-16.876500 0.000000
-16.834800 0.000000
-16.793000 0.000000
-16.751200 0.000000
-16.709400 0.000000
-16.667600 0.000000
-16.625800 0.000000
-16.584100 0.000000
-16.542300 0.000000
-16.500500 0.000000
-16.458700 0.000000
-16.416900 0.000000
-16.375100 0.000000
-16.333300 0.000000
-16.291600 0.000000
-16.249800 0.000000
-16.208000 0.000000
-16.166200 0.000000
-16.124400 0.000000
-16.082600 0.000000
-16.040900 0.000000
-15.999100 0.000000
-15.957300 0.000000
-15.915500 0.000000
-15.873700 0.000000
-15.831900 0.000000
-15.790100 0.000000
-15.748400 0.000000
-15.706600 0.000000
-15.664800 0.000000
-15.623000 0.000000
-15.581200 0.000000
-15.539400 0.000000
-15.497700 0.000000
-15.455900 0.000000
-15.414100 0.000000
-15.372300 0.000000
-15.330500 0.000000
-15.288700 0.000000
-15.246900 0.000000
-15.205200 0.000000
-15.163400 0.000000
-15.121600 0.000000
-15.079800 0.000000
-15.038000 0.000000
-14.996200 0.000000
-14.954500 0.000000
-14.912700 0.000000
-14.870900 0.000000
-14.829100 0.000000
-14.787300 0.000000
-14.745500 0.000000
-14.703800 0.000000
-14.662000 0.000000
-14.620200 0.000000
-14.578400 0.000000
-14.536600 0.000000
-14.494800 0.000000
-14.453000 0.000000
-14.411300 0.000000
-14.369500 0.000000
-14.327700 0.000000
-14.285900 0.000000
-14.244100 0.000000
-14.202300 0.000000
-14.160600 0.000000
-14.118800 0.000000
-14.077000 0.000000
-14.035200 0.000000
-13.993400 0.000000
-13.951600 0.000000
-13.909800 0.000000
-13.868100 0.000000
-13.826300 0.000000
-13.784500 0.000000
-13.742700 0.000000
-13.700900 0.000000
-13.659100 0.000000
-13.617400 0.000000
-13.575600 0.000000
-13.533800 0.000000
-13.492000 0.000000
-13.450200 0.000000
-13.408400 0.000000
-13.366600 0.000000
-13.324900 0.000000
-13.283100 0.000000
-13.241300 0.000000
-13.199500 0.000000
-13.157700 0.000000
-13.115900 0.000000
-13.074200 0.000000
-13.032400 0.000000
-12.990600 0.000000
-12.948800 0.000000
-12.907000 0.000000
-12.865200 0.000000
-12.823400 0.000000
-12.781700 0.000000
-12.739900 0.000000
-12.698100 0.000000
-12.656300 0.000000
-12.614500 0.000000
-12.572700 0.000000
-12.531000 0.000000
-12.489200 0.000000
-12.447400 0.000000
-12.405600 0.000000
-12.363800 0.000000
-12.322000 0.000000
-12.280200 0.000000
-12.238500 0.000000
-12.196700 0.000000
-12.154900 0.000000
-12.113100 0.000000
-12.071300 0.000000
-12.029500 0.000000
-11.987800 0.000000
-11.946000 0.000000
-11.904200 0.000000
-11.862400 0.000000
-11.820600 0.000000
-11.778800 0.000000
-11.737100 0.000000
-11.695300 0.000000
-11.653500 0.000000
-11.611700 0.000000
-11.569900 0.594900
-11.528100 0.707800
-11.486300 0.712500
-11.444600 0.854000
-11.402800 2.301100
-11.361000 2.829500
-11.319200 1.630600
-11.277400 1.299900
-11.235600 1.118100
-11.193900 0.916200
-11.152100 0.830100
-11.110300 0.949000
-11.068500 0.958300
-11.026700 0.927300
-10.984900 0.904600
-10.943100 1.432500
-10.901400 1.416800
-10.859600 1.739500
-10.817800 1.577900
-10.776000 3.298400
-10.734200 3.973200
-10.692400 3.489000
-10.650700 3.442900
-10.608900 3.980400
-10.567100 3.453100
-10.525300 3.133800
-10.483500 2.164300
-10.441700 1.357200
-10.399900 1.106700
-10.358200 0.898200
-10.316400 0.526900
-10.274600 0.567600
-10.232800 0.664800
-10.191000 0.719100
-10.149200 0.712100
-10.107500 0.645100
-10.065700 0.641800
-10.023900 0.949100
-9.982100 1.176800
-9.940300 1.332800
-9.898500 1.503500
-9.856700 1.677600
-9.815000 2.032600
-9.773200 2.299200
-9.731400 2.286500
-9.689600 2.043500
-9.647800 2.016900
-9.606000 2.191500
-9.564300 2.734800
-9.522500 2.157200
-9.480700 1.577000
-9.438900 1.985000
-9.397100 1.248400
-9.355300 1.123000
-9.313600 1.332400
-9.271800 1.663100
-9.230000 1.234100
-9.188200 1.267200
-9.146400 0.891800
-9.104600 0.858100
-9.062800 0.881300
-9.021100 0.910100
-8.979300 1.028500
-8.937500 1.285900
-8.895700 0.920600
-8.853900 0.950000
-8.812100 0.945300
-8.770400 1.699500
-8.728600 0.833500
-8.686800 0.805700
-8.645000 0.776400
-8.603200 0.838800
-8.561400 0.909000
-8.519600 0.982900
-8.477900 1.070800
-8.436100 1.127400
-8.394300 1.630600
-8.352500 1.268700
-8.310700 1.379800
-8.268900 2.119300
-8.227200 0.851600
-8.185400 0.249500
-8.143600 0.292800
-8.101800 0.284900
-8.060000 0.468700
-8.018200 0.548300
-7.976400 0.638500
-7.934700 0.933600
-7.892900 0.765900
-7.851100 0.849900
-7.809300 0.912600
-7.767500 0.884700
-7.725700 0.684900
-7.684000 0.672400
-7.642200 0.790900
-7.600400 0.781200
-7.558600 0.836500
-7.516800 1.163900
-7.475000 1.417500
-7.433200 1.599200
-7.391500 1.488100
-7.349700 1.511900
-7.307900 1.411200
-7.266100 1.670800
-7.224300 1.288700
-7.182500 1.302000
-7.140800 1.334200
-7.099000 1.413200
-7.057200 1.104900
-7.015400 0.987300
-6.973600 0.979800
-6.931800 0.978000
-6.890100 1.089400
-6.848300 1.018000
-6.806500 0.909100
-6.764700 0.770300
-6.722900 2.058300
-6.681100 1.443600
-6.639300 1.528400
-6.597600 1.888500
-6.555800 1.749300
-6.514000 1.847400
-6.472200 2.129000
-6.430400 1.779600
-6.388600 1.591100
-6.346900 1.418900
-6.305100 1.266100
-6.263300 1.304500
-6.221500 1.696700
-6.179700 1.548400
-6.137900 1.366200
-6.096100 1.193900
-6.054400 1.184800
-6.012600 1.174600
-5.970800 1.166700
-5.929000 1.149500
-5.887200 1.136900
-5.845400 1.203100
-5.803700 1.281000
-5.761900 1.325800
-5.720100 2.349200
-5.678300 1.770600
-5.636500 1.789700
-5.594700 1.639500
-5.552900 1.143300
-5.511200 1.102100
-5.469400 1.063700
-5.427600 1.057900
-5.385800 1.062600
-5.344000 1.239900
-5.302200 1.931300
-5.260500 0.684500
-5.218700 2.337800
-5.176900 1.126600
-5.135100 1.179400
-5.093300 2.213700
-5.051500 0.866300
-5.009700 1.212600
-4.968000 0.000000
-4.926200 0.000000
-4.884400 0.000000
-4.842600 0.000000
-4.800800 0.000000
-4.759000 0.000000
-4.717300 0.778000
-4.675500 0.752600
-4.633700 0.677500
-4.591900 0.726600
-4.550100 0.831800
-4.508300 0.934100
-4.466600 5.138300
-4.424800 3.352000
-4.383000 2.195500
-4.341200 1.957900
-4.299400 1.817000
-4.257600 1.783900
-4.215800 1.125600
-4.174100 0.879900
-4.132300 0.747900
-4.090500 0.675000
-4.048700 0.670000
-4.006900 0.201800
-3.965100 0.243800
-3.923400 0.321900
-3.881600 0.245100
-3.839800 0.278100
-3.798000 0.284000
-3.756200 0.295500
-3.714400 0.345900
-3.672600 0.381400
-3.630900 0.414200
-3.589100 0.472100
-3.547300 0.592300
-3.505500 0.673800
-3.463700 1.664900
-3.421900 2.684000
-3.380200 1.091900
-3.338400 1.038700
-3.296600 0.894200
-3.254800 0.890100
-3.213000 0.935500
-3.171200 0.952800
-3.129400 1.030100
-3.087700 1.178800
-3.045900 1.614800
-3.004100 1.489200
-2.962300 1.187800
-2.920500 1.035000
-2.878700 0.307400
-2.837000 0.283900
-2.795200 0.378800
-2.753400 0.000000
-2.711600 0.000000
-2.669800 0.000000
-2.628000 0.000000
-2.586200 0.000000
-2.544500 0.000000
-2.502700 0.000000
-2.460900 0.000000
-2.419100 0.000000
-2.377300 0.000000
-2.335500 0.000000
-2.293800 0.000000
-2.252000 0.000000
-2.210200 0.000000
-2.168400 0.000000
-2.126600 0.000000
-2.084800 0.000000
-2.043100 0.000000
-2.001300 0.000000
-1.959500 0.000000
-1.917700 0.000000
-1.875900 0.000000
-1.834100 0.000000
-1.792300 0.000000
-1.750600 0.000000
-1.708800 0.000000
-1.667000 0.000000
-1.625200 0.000000
-1.583400 0.000000
-1.541600 0.000000
-1.499900 0.000000
-1.458100 0.000000
-1.416300 0.000000
-1.374500 0.000000
-1.332700 0.000000
-1.290900 0.000000
-1.249100 0.000000
-1.207400 0.000000
-1.165600 0.000000
-1.123800 0.000000
-1.082000 0.000000
-1.040200 0.000000
-0.998400 0.000000
-0.956700 0.000000
-0.914900 0.000000
-0.873100 0.000000
-0.831300 0.000000
-0.789500 0.000000
-0.747700 0.000000
-0.705900 0.000000
-0.664200 0.000000
-0.622400 0.000000
-0.580600 0.000000
-0.538800 0.000000
-0.497000 0.000000
-0.455200 0.000000
-0.413500 0.000000
-0.371700 0.000000
-0.329900 0.000000
-0.288100 0.000000
-0.246300 0.000000
-0.204500 0.000000
-0.162700 0.000000
-0.121000 0.000000
-0.079200 0.000000
-0.037400 0.000000
0.004400 0.000000
0.046200 0.000000
0.088000 0.000000
0.129700 0.000000
0.171500 0.000000
0.213300 0.000000
0.255100 0.000000
0.296900 0.000000
0.338700 0.000000
0.380400 0.000000
0.422200 0.000000
0.464000 0.000000
0.505800 0.000000
0.547600 0.000000
0.589400 0.000000
0.631200 0.000000
0.672900 0.000000
0.714700 0.000000
0.756500 0.000000
0.798300 0.000000
0.840100 0.000000
0.881900 0.000000
0.923600 0.000000
0.965400 0.000000
1.007200 0.000000
1.049000 0.000000
1.090800 0.000000
1.132600 0.000000
1.174400 0.000000
1.216100 0.000000
1.257900 0.000000
1.299700 0.000000
1.341500 0.000000
1.383300 0.000000
1.425100 0.000000
1.466800 0.000000
1.508600 0.000000
1.550400 0.000000
1.592200 0.000000
1.634000 0.000000
1.675800 0.000000
1.717600 0.000000
1.759300 0.000000
1.801100 0.000000
1.842900 0.000000
1.884700 0.000000
1.926500 0.000000
1.968300 0.000000
2.010000 0.000000
2.051800 0.000000
2.093600 0.000000
2.135400 0.000000
2.177200 0.000000
2.219000 0.000000
2.260800 0.000000
2.302500 0.000000
2.344300 0.000000
2.386100 0.000000
2.427900 0.000000
2.469700 0.000000
2.511500 0.000000
2.553200 0.000000
2.595000 0.000000
2.636800 0.040800
2.678600 0.050300
2.720400 0.069000
2.762200 0.102800
2.803900 0.100600
2.845700 0.104100
2.887500 0.106500
2.929300 0.105800
2.971100 0.105100
3.012900 0.105900
3.054700 0.107400
3.096400 0.110600
3.138200 0.112200
3.180000 0.114100
3.221800 0.115500
3.263600 0.116200
3.305400 0.115500
3.347100 0.116500
3.388900 0.117600
3.430700 0.118900
3.472500 0.146200
3.514300 0.166400
3.556100 0.179300
3.597900 0.190900
3.639600 0.198700
3.681400 0.206000
3.723200 0.215600
3.765000 0.225200
3.806800 0.235300
3.848600 0.243800
3.890300 0.299500
3.932100 0.285700
3.973900 0.293100
4.015700 0.295000
4.057500 0.294900
4.099300 0.296600
4.141100 0.300600
4.182800 0.303900
4.224600 0.305400
4.266400 0.304800
4.308200 0.305700
4.350000 0.306500
4.391800 0.308300
4.433500 0.310800
4.475300 0.313300
4.517100 0.315600
4.558900 0.317000
4.600700 0.318000
4.642500 0.319800
4.684300 0.321900
4.726000 0.360100
4.767800 0.361800
4.809600 0.369500
4.851400 0.376700
4.893200 0.381500
4.935000 0.386100
4.976700 0.391000
5.018500 0.396700
5.060300 0.403300
5.102100 0.410400
5.143900 0.417300
5.185700 0.424200
5.227400 0.430600
5.269200 0.437000
5.311000 0.443800
5.352800 0.487900
5.394600 0.478700
5.436400 0.485000
5.478200 0.488700
5.519900 0.488100
5.561700 0.488900
5.603500 0.490600
5.645300 0.495100
5.687100 0.499700
5.728900 0.503600
5.770600 0.506700
5.812400 0.509700
5.854200 0.513400
5.896000 0.516900
5.937800 0.544900
5.979600 0.559100
6.021400 0.569000
6.063100 0.579800
6.104900 0.590500
6.146700 0.600900
6.188500 0.611000
6.230300 0.619000
6.272100 0.629300
6.313800 0.663500
6.355600 0.665300
6.397400 0.675600
6.439200 0.686400
6.481000 0.695700
6.522800 0.703200
6.564600 0.712300
6.606300 0.722400
6.648100 0.731600
6.689900 0.743200
6.731700 0.755800
6.773500 0.769100
6.815300 0.859300
6.857000 0.849100
6.898800 0.819200
6.940600 0.794400
6.982400 0.802100
7.024200 0.813800
7.066000 0.838100
7.107800 0.874900
7.149500 0.904800
7.191300 0.833300
7.233100 0.827200
7.274900 0.821700
7.316700 0.814800
7.358500 0.807100
7.400200 0.803100
7.442000 0.809600
7.483800 0.818700
7.525600 0.829400
7.567400 0.842800
7.609200 0.862200
7.650900 0.876000
7.692700 0.896300
7.734500 0.909000
7.776300 0.884500
7.818100 0.905400
7.859900 0.966500
7.901700 0.921000
7.943400 0.874700
7.985200 0.945900
8.027000 0.981200
8.068800 1.052100
8.110600 1.040500
8.152400 1.070700
8.194100 1.109800
8.235900 1.129800
8.277700 1.135100
8.319500 1.096000
8.361300 1.068100
8.403100 1.019000
8.444900 0.998800
8.486600 1.234300
8.528400 1.210100
8.570200 1.211600
8.612000 1.250200
8.653800 1.263600
8.695600 1.272900
8.737300 1.290200
8.779100 1.228200
8.820900 1.214000
8.862700 1.185200
8.904500 1.146400
8.946300 1.128100
8.988100 1.092700
9.029800 1.022600
9.071600 0.994700
9.113400 0.951800
9.155200 0.926200
9.197000 0.905200
9.238800 0.912100
9.280500 0.946000
9.322300 0.936700
9.364100 0.915900
9.405900 0.826700
9.447700 0.768000
9.489500 0.731800
9.531300 0.684800
9.573000 0.990100
9.614800 1.233200
9.656600 1.244700
9.698400 1.408800
9.740200 1.451400
9.782000 1.393800
9.823700 1.375800
9.865500 1.377500
9.907300 1.233900
9.949100 1.002900
9.990900 1.001200
10.032700 0.951300
10.074400 1.016400
10.116200 1.189300
10.158000 1.259800
10.199800 1.266300
10.241600 1.192300
10.283400 1.156800
10.325200 1.142000
10.366900 1.078600
10.408700 1.028700
10.450500 0.978000
10.492300 1.018400
10.534100 1.314800
10.575900 1.304300
10.617600 1.306300
10.659400 1.222100
10.701200 1.142700
10.743000 1.149100
10.784800 0.852800
10.826600 0.826900
10.868400 0.750600
10.910100 0.676600
10.951900 0.615100
10.993700 0.646100
11.035500 0.737700
11.077300 0.971900
11.119100 1.037300
11.160800 1.217700
11.202600 1.367900
11.244400 1.293200
11.286200 1.231200
11.328000 1.200800
11.369800 1.188400
11.411600 1.415900
11.453300 1.522800
11.495100 1.840700
11.536900 1.815300
11.578700 1.596500
11.620500 1.507900
11.662300 1.509700
11.704000 1.426100
11.745800 1.279300
11.787600 1.217300
11.829400 1.403800
11.871200 1.264200
11.913000 1.189800
11.954800 1.165900
11.996500 1.252600
12.038300 1.290400
12.080100 1.180500
12.121900 1.138500
12.163700 1.128300
12.205500 1.116600
12.247200 1.012600
12.289000 0.982100
12.330800 0.991300
12.372600 1.043900
12.414400 1.013800
12.456200 0.951300
12.497900 0.947100
12.539700 0.974200
12.581500 0.981300
12.623300 0.992800
12.665100 0.979800
12.706900 0.952200
12.748700 0.934900
12.790400 0.942900
12.832200 0.938800
12.874000 0.939200
12.915800 0.955100
12.957600 0.980700
12.999400 1.015700
13.041100 1.050400
13.082900 1.066100
13.124700 1.127700
13.166500 1.008700
13.208300 0.988700
13.250100 1.000100
13.291900 1.017300
13.333600 1.025400
13.375400 1.011400
13.417200 1.059600
13.459000 1.025400
13.500800 1.031600
13.542600 1.026300
13.584300 0.983700
13.626100 0.978200
13.667900 0.966200
13.709700 1.029400
13.751500 1.138100
13.793300 0.971500
13.835100 0.915800
13.876800 0.920600
13.918600 0.868200
13.960400 0.832700
14.002200 0.807800
14.044000 0.806200
14.085800 0.808300
14.127500 0.815700
14.169300 0.835600
14.211100 0.874800
14.252900 0.886900
14.294700 0.924400
14.336500 0.945300
14.378300 0.932100
14.420000 0.940100
14.461800 0.962700
14.503600 0.998200
14.545400 1.066900
14.587200 1.025600
14.629000 1.022500
14.670700 0.997200
14.712500 0.990900
14.754300 1.011600
14.796100 1.051500
14.837900 1.113700
14.879700 1.265900
14.921400 1.300500
14.963200 1.249800
15.005000 1.173400
15.046800 1.121400
15.088600 1.114800
15.130400 1.023900
15.172200 1.007400
15.213900 1.038700
15.255700 1.056000
15.297500 1.055000
15.339300 1.082800
15.381100 1.102500
15.422900 1.110000
15.464600 1.110800
15.506400 1.097500
15.548200 1.090500
15.590000 1.089800
15.631800 1.108200
15.673600 1.126100
15.715400 1.121100
15.757100 1.120700
15.798900 1.143200
15.840700 1.154000
15.882500 1.179900
15.924300 1.149700
15.966100 1.105500
16.007800 1.072400
16.049600 1.057500
16.091400 1.251100
16.133200 1.221900
16.175000 1.224500
16.216800 1.237200
16.258600 1.232800
16.300300 1.240800
16.342100 1.259800
16.383900 1.276500
16.425700 1.408400
16.467500 1.391000
16.509300 1.351600
16.551000 1.276400
16.592800 1.285500
16.634600 1.319500
16.676400 1.313400
16.718200 1.248400
16.760000 1.141500
16.801800 1.098000
16.843500 1.062900
16.885300 1.038100
16.927100 1.026100
16.968900 1.001700
17.010700 1.003600
17.052500 1.052700
17.094200 1.084100
17.136000 1.085700
17.177800 1.087100
17.219600 1.074500
17.261400 1.084300
17.303200 1.263300
17.344900 1.039500
17.386700 1.021000
17.428500 1.003800
17.470300 0.982900
17.512100 0.951300
17.553900 0.919900
17.595700 0.928500
17.637400 0.945700
17.679200 0.971600
17.721000 0.999700
17.762800 1.018700
17.804600 1.034000
17.846400 1.057500
17.888100 1.067000
17.929900 1.059200
17.971700 1.072100
18.013500 1.105500
18.055300 1.099300
18.097100 1.103600
18.138900 1.121800
18.180600 1.129300
18.222400 1.201500
18.264200 1.291300
18.306000 1.334700
18.347800 1.333000
18.389600 1.273800
18.431300 1.274900
18.473100 1.239200
18.514900 1.219800
18.556700 1.214200
18.598500 1.198200
18.640300 1.158500
18.682100 1.152000
18.723800 1.116900
18.765600 1.079600
18.807400 1.042700
18.849200 1.048100
18.891000 1.025200
18.932800 1.023500
18.974500 1.037900
19.016300 1.055500
19.058100 1.072300
19.099900 1.110600
19.141700 1.173400
19.183500 1.222500
19.225300 1.181300
19.267000 1.146300
19.308800 1.142000
19.350600 1.099700
19.392400 1.112600
19.434200 1.205700
19.476000 1.264400
19.517700 1.330500
19.559500 1.352700
19.601300 1.391100
19.643100 1.364000
19.684900 1.394000
19.726700 1.381900
19.768400 1.344600
19.810200 1.278600
19.852000 1.258600
19.893800 1.176400
19.935600 1.162100
19.977400 1.216600
20.019200 1.239900
20.060900 1.234000
20.102700 1.226400
20.144500 1.253900
20.186300 1.305400
20.228100 1.308000
20.269900 1.273700
20.311600 1.353900
20.353400 1.309100
20.395200 1.303100
20.437000 1.308900
20.478800 1.288000
20.520600 1.265300
20.562400 1.234700
20.604100 1.172900
20.645900 1.116900
20.687700 1.098200
20.729500 1.096500
20.771300 1.138600
20.813100 1.190900
20.854800 1.102700
20.896600 1.092000
20.938400 1.131800
20.980200 1.138100
21.022000 1.140800
21.063800 1.157000
21.105600 1.156700
21.147300 1.109000
21.189100 1.094100
21.230900 1.095400
21.272700 1.092600
21.314500 1.076200
21.356300 1.093400
21.398000 1.103700
21.439800 1.191400
21.481600 1.202200
21.523400 1.223900
21.565200 1.274900
21.607000 1.312600
21.648800 1.285900
21.690500 1.235100
21.732300 1.198800
21.774100 1.163200
21.815900 1.130300
21.857700 1.105200
21.899500 1.098700
21.941200 1.123000
21.983000 1.139700
22.024800 1.125800
22.066600 1.121500
22.108400 1.123600
22.150200 1.113300
22.191900 1.217200
22.233700 1.183900
22.275500 1.226200
22.317300 1.315200
22.359100 1.418400
22.400900 1.365700
22.442700 1.348100
22.484400 1.280100
22.526200 1.231400
22.568000 1.194400
22.609800 1.174700
22.651600 1.193900
22.693400 1.224300
22.735100 1.272200
22.776900 1.270800
22.818700 1.281900
22.860500 1.263400
22.902300 1.323300
22.944100 1.289100
22.985900 1.372500
23.027600 1.403200
23.069400 1.441700
23.111200 1.433900
23.153000 1.367100
23.194800 1.312200
23.236600 1.283100
23.278300 1.220400
23.320100 1.169600
23.361900 1.189500
23.403700 1.274000
23.445500 1.303600
23.487300 1.277500
23.529100 1.270600
23.570800 1.277600
23.612600 1.296100
23.654400 1.277000
23.696200 1.283000
23.738000 1.270500
23.779800 1.258200
23.821500 1.285800
23.863300 1.311700
23.905100 1.325600
23.946900 1.351800
23.988700 1.385400
24.030500 1.437000
24.072300 1.489700
24.114000 1.525900
24.155800 1.440700
24.197600 1.440400
24.239400 1.463400
24.281200 1.411700
24.323000 1.331300
24.364700 1.278700
24.406500 1.268400
24.448300 1.204200
24.490100 1.199000
24.531900 1.193200
24.573700 1.247800
24.615400 1.272800
24.657200 1.222900
24.699000 1.148100
24.740800 1.185000
24.782600 1.177600
24.824400 1.171900
24.866200 1.212600
24.907900 1.267000
24.949700 1.288700
24.991500 1.356900
25.033300 1.383800
25.075100 1.448200
25.116900 1.402300
25.158600 1.346300
25.200400 1.288800
25.242200 1.299700
25.284000 1.311700
25.325800 1.360900
25.367600 1.360500
25.409400 1.370700
25.451100 1.389300
25.492900 1.375800
25.534700 1.336500
25.576500 1.284900
25.618300 1.273700
25.660100 1.323000
25.701800 1.365000
25.743600 1.404200
25.785400 1.462900
25.827200 1.428100
25.869000 1.419500
25.910800 1.413600
25.952600 1.426400
25.994300 1.537100
26.036100 1.477500
26.077900 1.517800
26.119700 1.473500
26.161500 1.444500
26.203300 1.427100
26.245000 1.445700
26.286800 1.428700
26.328600 1.388300
26.370400 1.364900
26.412200 1.422700
26.454000 1.387000
26.495800 1.381200
26.537500 1.418600
26.579300 1.464400
26.621100 1.465400
26.662900 1.488800
26.704700 1.513000
26.746500 1.512500
26.788200 1.481100
26.830000 1.449100
26.871800 1.347700
26.913600 1.316600
26.955400 1.343800
26.997200 1.315900
27.038900 1.284500
27.080700 1.274300
27.122500 1.285200
27.164300 1.430700
27.206100 1.498200
27.247900 1.524800
27.289700 1.596400
27.331400 1.591700
27.373200 1.772000
27.415000 1.667000
27.456800 1.644600
27.498600 1.581400
27.540400 1.547900
27.582100 1.552700
27.623900 1.541400
27.665700 1.549600
27.707500 1.592400
27.749300 1.610700
27.791100 1.643900
27.832900 1.688800
27.874600 1.649500
27.916400 1.653000
27.958200 1.608900
28.000000 1.538800
28.041800 1.476100
28.083600 1.463900
28.125300 1.433300
28.167100 1.447000
28.208900 1.447700
28.250700 1.483600
28.292500 1.495600
28.334300 1.513900
28.376100 1.570900
28.417800 1.590400
28.459600 1.552000
28.501400 1.511500
28.543200 1.493400
28.585000 1.513500
28.626800 1.515900
28.668500 1.367100
28.710300 1.316600
28.752100 1.295900
28.793900 1.292700
28.835700 1.270300
28.877500 1.284400
28.919300 1.301400
28.961000 1.395900
29.002800 1.428200
29.044600 1.433800
29.086400 1.457600
29.128200 1.502700
29.170000 1.587100
29.211700 1.491500
29.253500 1.474300
29.295300 1.485900
29.337100 1.505600
29.378900 1.572200
29.420700 1.548800
29.462500 1.535900
29.504200 1.506800
29.546000 1.506800
29.587800 1.560800
29.629600 1.739800
29.671400 2.002900
29.713200 1.843200
29.754900 1.752300
29.796700 1.726900
29.838500 1.682600
29.880300 1.657400
29.922100 1.653600
29.963900 1.660600
30.005600 1.679400
30.047400 1.685600
30.089200 1.722200
30.131000 1.720700
30.172800 1.743000
30.214600 1.764600
30.256400 1.728600
30.298100 1.746400
30.339900 1.785500
30.381700 1.832800
30.423500 1.842100
30.465300 1.807700
30.507100 1.927400
30.548800 1.948200
30.590600 1.819200
30.632400 1.739200
30.674200 1.686500
30.716000 1.709800
30.757800 1.741300
30.799600 1.659700
30.841300 1.564900
30.883100 1.551000
30.924900 1.572100
30.966700 1.617100
31.008500 1.669800
31.050300 1.720400
31.092000 1.735700
31.133800 1.718100
31.175600 1.742900
31.217400 1.781500
31.259200 1.727000
31.301000 1.745900
31.342800 1.698400
31.384500 1.663200
31.426300 1.652600
31.468100 1.655400
31.509900 1.632300
31.551700 1.697400
31.593500 1.762600
31.635200 1.855100
31.677000 1.833900
31.718800 1.753300
31.760600 1.801600
31.802400 1.645800
31.844200 1.592400
31.886000 1.608400
31.927700 1.626400
31.969500 1.662200
32.011300 1.668900
32.053100 1.696200
32.094900 1.726600
32.136700 1.715200
32.178400 1.705300
32.220200 1.878700
32.262000 1.739100
32.303800 1.709200
32.345600 1.696000
32.387400 1.658900
32.429100 1.604400
32.470900 1.600500
32.512700 1.637500
32.554500 1.617500
32.596300 1.634100
32.638100 1.646500
32.679900 1.686400
32.721600 1.766700
32.763400 1.852500
32.805200 1.947300
32.847000 1.954000
32.888800 1.859700
32.930600 1.765300
32.972300 1.704800
33.014100 1.675100
33.055900 1.659900
33.097700 1.699000
33.139500 1.746200
33.181300 1.693700
33.223100 1.658400
33.264800 1.638400
33.306600 1.666500
33.348400 1.708200
33.390200 1.752300
33.432000 1.815700
33.473800 1.755800
33.515500 1.658800
33.557300 1.502300
33.599100 1.442200
33.640900 1.460900
33.682700 1.467500
33.724500 1.438500
33.766300 1.454300
33.808000 1.443700
33.849800 1.466400
33.891600 1.486200
33.933400 1.513200
33.975200 1.597000
34.017000 1.659900
34.058700 1.713200
34.100500 1.724700
34.142300 1.686900
34.184100 1.693700
34.225900 1.657300
34.267700 1.662500
34.309500 1.698000
34.351200 1.703600
34.393000 1.699700
34.434800 1.692000
34.476600 1.666100
34.518400 1.653200
34.560200 1.604700
34.601900 1.593700
34.643700 1.596100
34.685500 1.596900
34.727300 1.613800
34.769100 1.641400
34.810900 1.678000
34.852600 1.855700
34.894400 1.753100
34.936200 1.785300
34.978000 1.776100
35.019800 1.771400
35.061600 1.740700
35.103400 1.742800
35.145100 1.797500
35.186900 1.779400
35.228700 1.737300
35.270500 1.716700
35.312300 1.690800
35.354100 1.667300
35.395800 1.684300
35.437600 1.697600
35.479400 1.691400
35.521200 1.708600
35.563000 1.720300
35.604800 1.743100
35.646600 1.778200
35.688300 1.810400
35.730100 1.748500
35.771900 1.690000
35.813700 1.682200
35.855500 1.666800
35.897300 1.655800
35.939000 1.673100
35.980800 1.721300
36.022600 1.730700
36.064400 1.723700
36.106200 1.723800
36.148000 1.686300
36.189800 1.647900
36.231500 1.683700
36.273300 1.680700
36.315100 1.646400
36.356900 1.652900
36.398700 1.647600
36.440500 1.666000
36.482200 1.602800
36.524000 1.583900
36.565800 1.542700
36.607600 1.511700
36.649400 1.487400
36.691200 1.506000
36.733000 1.524800
36.774700 1.539800
36.816500 1.523300
36.858300 1.528000
36.900100 1.521900
36.941900 1.522800
36.983700 1.543100
37.025400 1.565300
37.067200 1.546900
37.109000 1.537300
37.150800 1.538300
37.192600 1.544500
37.234400 1.548000
37.276100 1.562700
37.317900 1.649600
37.359700 1.686700
37.401500 1.722900
37.443300 1.711100
37.485100 1.657800
37.526900 1.589000
37.568600 1.531600
37.610400 1.511000
37.652200 1.512900
37.694000 1.482000
37.735800 1.493000
37.777600 1.491900
37.819300 1.515600
37.861100 1.538300
37.902900 1.617500
37.944700 1.704900
37.986500 1.720700
38.028300 1.770800
38.070100 1.809100
38.111800 1.761900
38.153600 1.742400
38.195400 1.722200
38.237200 1.711600
38.279000 1.727200
38.320800 1.773400
38.362500 1.890800
38.404300 1.822700
38.446100 1.787500
38.487900 1.833800
38.529700 1.855200
38.571500 1.879000
38.613300 1.863000
38.655000 1.868100
38.696800 1.860300
38.738600 1.821200
38.780400 1.895300
38.822200 1.810800
38.864000 1.826800
38.905700 1.825700
38.947500 1.769100
38.989300 1.730200
39.031100 1.734000
39.072900 1.787700
39.114700 1.844300
39.156500 1.914400
39.198200 1.907400
39.240000 1.885900
39.281800 1.890800
39.323600 1.887100
39.365400 1.881700
39.407200 1.917200
39.448900 2.013700
39.490700 2.144800
39.532500 2.152800
39.574300 2.073700
39.616100 2.070600
39.657900 2.063200
39.699600 2.035900
39.741400 1.998500
39.783200 1.950600
39.825000 1.938100
39.866800 1.922600
39.908600 1.930200
39.950400 1.940200
39.992100 1.973200
40.033900 1.994600
40.075700 1.990300
40.117500 1.957900
40.159300 1.911500
40.201100 1.809100
40.242800 1.742200
40.284600 1.718300
40.326400 1.734400
40.368200 1.757800
40.410000 1.764600
40.451800 1.806200
40.493600 1.833800
40.535300 1.806300
40.577100 1.797400
40.618900 1.793500
40.660700 1.829700
40.702500 1.849700
40.744300 1.877800
40.786000 1.897900
40.827800 1.923500
40.869600 1.921100
40.911400 1.881400
40.953200 1.814600
40.995000 1.754000
41.036800 1.689000
41.078500 1.674600
41.120300 1.694500
41.162100 1.756300
41.203900 1.912200
41.245700 1.915400
41.287500 1.915500
41.329200 1.874600
41.371000 1.835800
41.412800 1.821900
41.454600 1.868800
41.496400 1.936200
41.538200 1.906500
41.580000 1.850000
41.621700 1.812400
41.663500 1.738600
41.705300 1.684200
41.747100 1.665400
41.788900 1.692700
41.830700 1.691000
41.872400 1.680000
41.914200 1.654300
41.956000 1.696200
41.997800 1.725100
42.039600 1.763700
42.081400 1.803800
42.123100 1.748900
42.164900 1.668700
42.206700 1.603400
42.248500 1.564600
42.290300 1.538300
42.332100 1.504900
42.373900 1.554000
42.415600 1.617800
42.457400 1.670400
42.499200 1.730000
42.541000 1.774700
42.582800 1.793500
42.624600 1.794700
42.666300 1.804000
42.708100 1.799900
42.749900 1.797100
42.791700 1.813500
42.833500 1.814800
42.875300 1.826700
42.917100 1.895600
42.958800 1.933900
43.000600 1.947900
43.042400 1.964400
43.084200 2.051300
43.126000 2.080600
43.167800 2.052500
43.209500 1.958900
43.251300 1.879900
43.293100 1.893400
43.334900 1.851600
43.376700 1.879600
43.418500 1.889600
43.460300 1.878100
43.502000 1.889200
43.543800 1.834300
43.585600 1.823900
43.627400 1.823900
43.669200 1.863000
43.711000 1.890400
43.752700 1.806000
43.794500 1.777000
43.836300 1.774200
43.878100 1.816500
43.919900 1.869600
43.961700 1.901000
44.003500 1.838700
44.045200 1.823600
44.087000 1.822500
44.128800 1.835700
44.170600 1.845800
44.212400 1.855300
44.254200 1.819000
44.295900 1.845200
44.337700 1.880000
44.379500 1.994000
44.421300 1.968400
44.463100 1.945100
44.504900 1.961000
44.546600 1.965200
44.588400 2.013900
44.630200 1.971400
44.672000 2.002400
44.713800 1.899500
44.755600 1.876600
44.797400 1.866900
44.839100 1.887600
44.880900 1.842700
44.922700 1.826200
44.964500 1.827400
45.006300 1.839400
45.048100 1.838200
45.089800 1.847800
45.131600 1.848100
45.173400 1.829700
45.215200 1.779700
45.257000 1.742400
45.298800 1.734300
45.340600 1.814400
45.382300 1.834300
45.424100 1.823300
45.465900 1.799100
45.507700 1.871900
45.549500 1.929800
45.591300 1.897900
45.633000 1.890200
45.674800 1.907500
45.716600 1.933400
45.758400 1.922600
45.800200 1.868600
45.842000 1.834000
45.883800 1.828800
45.925500 1.815200
45.967300 1.841900
46.009100 1.786400
46.050900 1.790400
46.092700 1.783000
46.134500 1.742300
46.176200 1.756600
46.218000 1.753800
46.259800 1.805500
46.301600 1.925100
46.343400 1.946600
46.385200 1.911100
46.427000 1.924600
46.468700 1.888500
46.510500 1.856400
46.552300 1.845400
46.594100 1.835800
46.635900 1.854100
46.677700 1.869700
46.719400 1.882100
46.761200 1.841000
46.803000 1.838500
46.844800 1.908700
46.886600 1.912200
46.928400 1.901400
46.970100 1.955300
47.011900 1.993500
47.053700 1.991800
47.095500 1.971700
47.137300 2.003500
47.179100 1.997400
47.220900 1.991500
47.262600 1.966400
47.304400 1.945000
47.346200 2.023900
47.388000 2.013000
47.429800 1.923000
47.471600 1.876300
47.513300 1.921300
47.555100 1.907600
47.596900 1.838700
47.638700 1.824100
47.680500 1.817600
47.722300 1.859000
47.764100 1.846800
47.805800 1.833700
47.847600 1.818600
47.889400 1.828500
47.931200 1.821000
47.973000 1.841900
48.014800 1.899700
48.056500 1.877800
48.098300 1.862800
48.140100 1.850800
48.181900 1.869900
48.223700 1.898100
48.265500 1.926700
48.307300 1.979200
48.349000 2.137000
48.390800 2.092100
48.432600 2.012000
48.474400 1.948400
48.516200 1.917800
48.558000 1.926300
48.599700 1.895400
48.641500 1.839500
48.683300 1.859900
48.725100 1.888500
48.766900 1.970700
48.808700 1.996400
48.850500 1.974300
48.892200 1.958100
48.934000 1.905200
48.975800 1.813100
49.017600 1.780300
49.059400 1.716000
49.101200 1.725000
49.142900 1.788100
49.184700 1.805400
49.226500 1.855100
49.268300 1.947900
49.310100 1.978400
49.351900 1.878000
49.393600 1.866900
49.435400 1.881600
49.477200 1.886300
49.519000 1.846200
49.560800 1.801700
49.602600 1.789100
49.644400 1.810100
49.686100 1.812300
49.727900 1.831900
49.769700 1.848900
49.811500 1.808600
49.853300 1.772700
49.895100 1.766700
49.936800 1.704300
49.978600 1.695600
50.020400 1.702700
50.062200 1.745600
50.104000 1.765200
50.145800 1.744700
50.187600 1.714600
50.229300 1.731800
50.271100 1.698700
50.312900 1.633800
50.354700 1.572800
50.396500 1.552600
50.438300 1.550600
50.480000 1.541400
50.521800 1.483400
50.563600 1.402500
50.605400 1.321200
50.647200 1.261500
50.689000 1.197800
50.730800 1.155400
50.772500 1.090900
50.814300 1.051500
50.856100 0.990000
50.897900 0.949100
50.939700 0.920300
50.981500 0.893000
51.023200 0.809600
51.065000 0.765700
51.106800 0.761500
51.148600 0.788400
51.190400 0.704800
51.232200 0.640500
51.274000 0.596500
51.315700 0.568500
51.357500 0.539700
51.399300 0.531300
51.441100 0.488100
51.482900 0.464600
51.524700 0.443400
51.566400 0.443100
51.608200 0.431600
51.650000 0.420100
51.691800 0.403900
51.733600 0.367900
51.775400 0.321300
51.817100 0.273200
51.858900 0.230800
51.900700 0.182400
51.942500 0.159900
51.984300 0.140200
52.026100 0.119600
52.067900 0.105300
52.109600 0.091900
52.151400 0.078800
52.193200 0.067200
52.235000 0.055400
52.276800 0.042700
52.318600 0.029300
52.360300 0.017800
52.402100 0.008700
52.443900 0.002700
52.485700 0.000300
52.527500 0.000000
52.569300 0.000000
52.611100 0.000000
52.652800 0.000000
52.694600 0.000000
52.736400 0.000000
52.778200 0.000000
52.820000 0.000000
52.861800 0.000000
52.903500 0.000000
52.945300 0.000000
52.987100 0.000000
53.028900 0.000000
53.070700 0.000000
53.112500 0.000000
53.154300 0.000000
53.196000 0.000000
53.237800 0.000000
53.279600 0.000000
53.321400 0.000000
53.363200 0.000000
53.405000 0.000000
53.446700 0.000000
53.488500 0.000000
53.530300 0.000000
53.572100 0.000000
53.613900 0.000000
53.655700 0.000000
53.697500 0.000000
53.739200 0.000000
53.781000 0.000000
53.822800 0.000000
53.864600 0.000000
53.906400 0.000000
53.948200 0.000000
53.989900 0.000000
54.031700 0.000000
54.073500 0.000000
54.115300 0.000000
54.157100 0.000000
54.198900 0.000000
54.240600 0.000000
54.282400 0.000000
54.324200 0.000000
54.366000 0.000000
54.407800 0.000000
54.449600 0.000000
54.491400 0.000000
54.533100 0.000000
54.574900 0.000000
54.616700 0.000000
54.658500 0.000000
54.700300 0.000000
54.742100 0.000000
54.783800 0.000000
54.825600 0.000000
54.867400 0.000000
54.909200 0.000000
54.951000 0.000000
54.992800 0.000000
55.034600 0.000000
55.076300 0.000000
55.118100 0.000000
55.159900 0.000000
55.201700 0.000000
55.243500 0.000000
55.285300 0.000000
55.327000 0.000000
55.368800 0.000000
55.410600 0.000000
55.452400 0.000000
55.494200 0.000000
55.536000 0.000000
55.577800 0.000000
55.619500 0.000000
55.661300 0.000000
55.703100 0.000000
55.744900 0.000000
55.786700 0.000000
55.828500 0.000000
55.870200 0.000000
55.912000 0.000000
55.953800 0.000000
55.995600 0.000000
56.037400 0.000000
56.079200 0.000000
56.121000 0.000000
56.162700 0.000000
56.204500 0.000000
56.246300 0.000000
56.288100 0.000000
56.329900 0.000000
56.371700 0.000000
56.413400 0.000000
56.455200 0.000000
56.497000 0.000000
56.538800 0.000000
56.580600 0.000000
56.622400 0.000000
56.664100 0.000000
e
