set title 'mp-569581 - Density of States'
set xlabel 'Energy (eV)'
set ylabel 'DOS (states/eV)'
set grid
set xrange [-10:10]
set yrange [0:13.394]
set xzeroaxis lt -1
set terminal png size 800,600
set output 'mp-569581_dos_gnuplot.png'
plot '-' using 1:2 with lines title 'DOS'
-8.917100 0.000000
-8.895000 0.000000
-8.872800 0.000000
-8.850600 0.000000
-8.828500 0.000000
-8.806300 0.000000
-8.784100 0.000000
-8.762000 0.000000
-8.739800 0.000000
-8.717600 0.000000
-8.695400 0.000000
-8.673300 0.000000
-8.651100 0.000000
-8.628900 0.000000
-8.606800 0.000000
-8.584600 0.000000
-8.562400 0.000000
-8.540300 0.000000
-8.518100 0.000000
-8.495900 0.000000
-8.473800 0.000000
-8.451600 0.000000
-8.429400 0.000000
-8.407300 0.000000
-8.385100 0.000000
-8.362900 0.000000
-8.340800 0.000000
-8.318600 0.000000
-8.296400 0.000000
-8.274200 0.000000
-8.252100 0.000000
-8.229900 0.000000
-8.207700 0.000000
-8.185600 0.000000
-8.163400 0.000000
-8.141200 0.000000
-8.119100 0.000000
-8.096900 0.000000
-8.074700 0.000000
-8.052600 0.000000
-8.030400 0.000000
-8.008200 0.000000
-7.986100 0.000000
-7.963900 0.000000
-7.941700 0.000000
-7.919600 0.000000
-7.897400 0.000000
-7.875200 0.000000
-7.853100 0.000000
-7.830900 0.000000
-7.808700 0.000000
-7.786500 0.000000
-7.764400 0.000000
-7.742200 0.000000
-7.720000 0.000000
-7.697900 0.000000
-7.675700 0.000000
-7.653500 0.000000
-7.631400 0.000000
-7.609200 0.000000
-7.587000 0.000000
-7.564900 0.000000
-7.542700 0.000000
-7.520500 0.000000
-7.498400 0.000000
-7.476200 0.000000
-7.454000 0.000000
-7.431900 0.000000
-7.409700 0.000000
-7.387500 0.000000
-7.365300 0.000000
-7.343200 0.000000
-7.321000 0.000000
-7.298800 0.000000
-7.276700 0.000000
-7.254500 0.000000
-7.232300 0.000000
-7.210200 0.000000
-7.188000 0.000000
-7.165800 0.000000
-7.143700 0.000000
-7.121500 0.000000
-7.099300 0.000000
-7.077200 0.000000
-7.055000 0.000000
-7.032800 0.000000
-7.010700 0.000000
-6.988500 0.000000
-6.966300 0.000000
-6.944200 0.000000
-6.922000 0.000000
-6.899800 0.000100
-6.877600 0.020800
-6.855500 0.076300
-6.833300 0.160200
-6.811100 0.196400
-6.789000 0.204800
-6.766800 0.218200
-6.744600 0.246600
-6.722500 0.276100
-6.700300 0.306700
-6.678100 0.335100
-6.656000 0.354300
-6.633800 0.363900
-6.611600 0.375600
-6.589500 0.390100
-6.567300 0.407600
-6.545100 0.426000
-6.523000 0.444500
-6.500800 0.463000
-6.478600 0.481900
-6.456400 0.502000
-6.434300 0.522700
-6.412100 0.541800
-6.389900 0.556700
-6.367800 0.571900
-6.345600 0.588900
-6.323400 0.605800
-6.301300 0.622500
-6.279100 0.639100
-6.256900 0.656300
-6.234800 0.675300
-6.212600 0.695100
-6.190400 0.744200
-6.168300 0.800300
-6.146100 0.848600
-6.123900 0.807300
-6.101800 0.819700
-6.079600 0.830900
-6.057400 0.840400
-6.035300 0.848800
-6.013100 0.857400
-5.990900 0.862300
-5.968700 0.866300
-5.946600 0.871300
-5.924400 0.880800
-5.902200 0.891000
-5.880100 0.901100
-5.857900 0.911100
-5.835700 0.921200
-5.813600 0.931200
-5.791400 0.941200
-5.769200 0.950700
-5.747100 0.960800
-5.724900 0.972900
-5.702700 0.986200
-5.680600 1.001500
-5.658400 1.017100
-5.636200 1.033300
-5.614100 1.050100
-5.591900 1.067400
-5.569700 1.085400
-5.547600 1.103600
-5.525400 1.122100
-5.503200 1.141200
-5.481000 1.165900
-5.458900 1.192300
-5.436700 1.219400
-5.414500 1.252000
-5.392400 1.500200
-5.370200 1.507800
-5.348000 1.584000
-5.325900 1.672900
-5.303700 1.736700
-5.281500 1.825800
-5.259400 1.936900
-5.237200 2.062300
-5.215000 2.296900
-5.192900 2.592900
-5.170700 2.784400
-5.148500 2.863800
-5.126400 2.863600
-5.104200 2.918600
-5.082000 3.201000
-5.059800 3.361100
-5.037700 3.174200
-5.015500 3.005500
-4.993300 2.710100
-4.971200 2.510200
-4.949000 2.379900
-4.926800 2.289800
-4.904700 2.209600
-4.882500 2.219500
-4.860300 2.248600
-4.838200 2.340300
-4.816000 2.453400
-4.793800 2.903900
-4.771700 4.571100
-4.749500 5.709400
-4.727300 6.943700
-4.705200 5.627400
-4.683000 3.953800
-4.660800 3.454700
-4.638700 3.215000
-4.616500 2.779100
-4.594300 2.514300
-4.572100 2.340000
-4.550000 2.180400
-4.527800 2.043100
-4.505600 1.951100
-4.483500 1.879300
-4.461300 1.699700
-4.439100 1.550600
-4.417000 1.445200
-4.394800 1.343000
-4.372600 1.230800
-4.350500 1.136700
-4.328300 1.060000
-4.306100 1.012500
-4.284000 0.951400
-4.261800 0.839200
-4.239600 0.810100
-4.217500 0.769000
-4.195300 0.714900
-4.173100 0.630100
-4.150900 0.513300
-4.128800 0.405600
-4.106600 0.305500
-4.084400 0.208700
-4.062300 0.120700
-4.040100 0.037000
-4.017900 0.000000
-3.995800 0.000000
-3.973600 0.000000
-3.951400 0.000000
-3.929300 0.000000
-3.907100 0.000000
-3.884900 0.000000
-3.862800 0.000000
-3.840600 0.000000
-3.818400 0.000000
-3.796300 0.000000
-3.774100 0.000000
-3.751900 0.000000
-3.729800 0.000000
-3.707600 0.000000
-3.685400 0.000000
-3.663200 0.000000
-3.641100 0.000000
-3.618900 0.000000
-3.596700 0.000000
-3.574600 0.000000
-3.552400 0.000000
-3.530200 0.000000
-3.508100 0.000000
-3.485900 0.000000
-3.463700 0.000000
-3.441600 0.000000
-3.419400 0.000000
-3.397200 0.000000
-3.375100 0.000000
-3.352900 0.000000
-3.330700 0.000000
-3.308600 0.000000
-3.286400 0.000000
-3.264200 0.000000
-3.242000 0.000000
-3.219900 0.000000
-3.197700 0.000000
-3.175500 0.000000
-3.153400 0.000000
-3.131200 0.000000
-3.109000 0.000000
-3.086900 0.000000
-3.064700 0.000000
-3.042500 0.000000
-3.020400 0.000000
-2.998200 0.000000
-2.976000 0.000000
-2.953900 0.000000
-2.931700 0.000000
-2.909500 0.000000
-2.887400 0.000000
-2.865200 0.000000
-2.843000 0.000000
-2.820900 0.000000
-2.798700 0.000000
-2.776500 0.000000
-2.754300 0.000000
-2.732200 0.000000
-2.710000 0.000000
-2.687800 0.000000
-2.665700 0.000000
-2.643500 0.000000
-2.621300 0.000000
-2.599200 0.000000
-2.577000 0.000000
-2.554800 0.000000
-2.532700 0.000000
-2.510500 0.000000
-2.488300 0.000000
-2.466200 0.000000
-2.444000 0.000000
-2.421800 0.000000
-2.399700 0.000000
-2.377500 0.000000
-2.355300 0.000000
-2.333100 0.000000
-2.311000 0.000000
-2.288800 0.000000
-2.266600 0.000000
-2.244500 0.000000
-2.222300 0.000000
-2.200100 0.000000
-2.178000 0.000000
-2.155800 0.000000
-2.133600 0.000000
-2.111500 0.000000
-2.089300 0.000000
-2.067100 0.000000
-2.045000 0.000000
-2.022800 0.000000
-2.000600 0.000000
-1.978500 0.000000
-1.956300 0.000000
-1.934100 0.000000
-1.912000 0.000000
-1.889800 0.000000
-1.867600 0.000000
-1.845400 0.000000
-1.823300 0.000000
-1.801100 0.000000
-1.778900 0.000000
-1.756800 0.000000
-1.734600 0.000000
-1.712400 0.000000
-1.690300 0.000000
-1.668100 0.000000
-1.645900 0.000000
-1.623800 0.000000
-1.601600 0.000000
-1.579400 0.000000
-1.557300 0.000000
-1.535100 0.000000
-1.512900 0.000000
-1.490800 0.000000
-1.468600 0.000000
-1.446400 0.000000
-1.424200 0.000000
-1.402100 0.000000
-1.379900 0.000000
-1.357700 0.000000
-1.335600 0.000000
-1.313400 0.000000
-1.291200 0.000000
-1.269100 0.000000
-1.246900 0.000000
-1.224700 0.000000
-1.202600 0.000000
-1.180400 0.000000
-1.158200 0.000000
-1.136100 0.000000
-1.113900 0.000000
-1.091700 0.000000
-1.069600 0.000000
-1.047400 0.000000
-1.025200 0.000000
-1.003100 0.000000
-0.980900 0.000000
-0.958700 0.000000
-0.936500 0.000000
-0.914400 0.000000
-0.892200 0.000000
-0.870000 0.000000
-0.847900 0.000000
-0.825700 0.000000
-0.803500 0.000000
-0.781400 0.000000
-0.759200 0.000000
-0.737000 0.000000
-0.714900 0.000000
-0.692700 0.000000
-0.670500 0.000000
-0.648400 0.000000
-0.626200 0.000000
-0.604000 0.000000
-0.581900 0.000000
-0.559700 0.000000
-0.537500 0.000000
-0.515300 0.000000
-0.493200 0.000000
-0.471000 0.000000
-0.448800 0.000000
-0.426700 0.000000
-0.404500 0.000000
-0.382300 0.000000
-0.360200 0.000000
-0.338000 0.000000
-0.315800 0.000000
-0.293700 0.000000
-0.271500 0.000000
-0.249300 0.000000
-0.227200 0.000000
-0.205000 0.000000
-0.182800 0.000000
-0.160700 0.000000
-0.138500 0.000000
-0.116300 0.000000
-0.094200 0.000000
-0.072000 0.000000
-0.049800 0.000000
-0.027600 0.000000
-0.005500 0.000000
0.016700 0.000000
0.038900 0.000000
0.061000 0.000000
0.083200 0.000000
0.105400 0.000000
0.127500 0.000000
0.149700 0.000000
0.171900 0.000000
0.194000 0.000000
0.216200 0.019600
0.238400 0.071800
0.260500 0.142700
0.282700 0.232400
0.304900 0.379300
0.327000 0.493100
0.349200 0.487700
0.371400 0.524300
0.393600 0.579400
0.415700 0.636500
0.437900 0.687900
0.460100 0.743500
0.482200 0.806200
0.504400 0.873000
0.526600 0.943700
0.548700 1.051100
0.570900 1.205400
0.593100 1.369100
0.615200 1.491500
0.637400 1.584300
0.659600 1.599600
0.681700 1.661400
0.703900 1.826400
0.726100 2.129000
0.748200 2.442400
0.770400 2.171300
0.792600 2.117600
0.814700 2.149300
0.836900 2.231700
0.859100 2.395800
0.881300 2.549600
0.903400 2.269800
0.925600 2.047900
0.947800 1.962800
0.969900 1.932600
0.992100 1.995200
1.014300 2.126200
1.036400 2.214400
1.058600 2.284300
1.080800 2.275600
1.102900 2.267900
1.125100 2.278800
1.147300 2.306400
1.169400 2.422900
1.191600 2.639400
1.213800 2.711300
1.235900 2.835800
1.258100 2.667800
1.280300 2.416700
1.302500 2.348800
1.324600 2.369600
1.346800 2.408200
1.369000 3.135600
1.391100 2.786000
1.413300 2.833600
1.435500 2.937300
1.457600 2.932100
1.479800 2.883700
1.502000 2.808900
1.524100 2.700200
1.546300 2.624600
1.568500 2.589100
1.590600 2.577300
1.612800 2.615100
1.635000 2.625300
1.657100 3.207000
1.679300 3.880600
1.701500 4.604900
1.723600 5.442000
1.745800 5.691300
1.768000 5.981600
1.790200 6.919200
1.812300 7.673800
1.834500 7.871300
1.856700 5.834900
1.878800 4.105400
1.901000 3.508600
1.923200 4.285200
1.945300 4.838000
1.967500 5.495200
1.989700 6.024200
2.011800 6.646100
2.034000 7.106000
2.056200 7.129900
2.078300 6.613900
2.100500 6.348400
2.122700 5.703300
2.144800 5.205400
2.167000 5.183500
2.189200 4.832400
2.211400 4.389100
2.233500 2.339200
2.255700 1.063600
2.277900 0.584000
2.300000 0.899300
2.322200 0.935900
2.344400 1.127500
2.366500 1.452700
2.388700 1.816200
2.410900 2.246400
2.433000 2.540900
2.455200 2.964700
2.477400 3.421900
2.499500 4.036600
2.521700 4.488200
2.543900 5.285500
2.566000 5.665300
2.588200 5.818900
2.610400 5.387800
2.632500 5.541900
2.654700 6.131100
2.676900 5.813100
2.699100 4.775900
2.721200 4.310400
2.743400 8.647000
2.765600 9.958500
2.787700 11.493000
2.809900 11.555000
2.832100 12.176100
2.854200 9.670200
2.876400 7.615800
2.898600 7.075800
2.920700 4.834400
2.942900 2.890200
2.965100 2.542200
2.987200 2.270200
3.009400 2.053500
3.031600 1.923000
3.053700 2.064800
3.075900 2.775500
3.098100 3.972600
3.120200 4.906100
3.142400 4.445300
3.164600 4.859900
3.186800 8.863000
3.208900 6.852200
3.231100 8.249200
3.253300 5.817300
3.275400 4.593100
3.297600 4.012500
3.319800 3.724800
3.341900 3.489200
3.364100 3.522200
3.386300 3.455000
3.408400 3.220400
3.430600 3.045000
3.452800 2.929900
3.474900 2.717000
3.497100 2.499200
3.519300 2.324200
3.541400 2.170000
3.563600 2.051700
3.585800 1.974100
3.608000 1.904800
3.630100 1.853400
3.652300 1.812300
3.674500 1.786000
3.696600 1.773400
3.718800 1.768600
3.741000 1.767000
3.763100 1.769700
3.785300 1.789600
3.807500 1.860500
3.829600 1.816000
3.851800 1.708800
3.874000 1.665700
3.896100 1.632600
3.918300 1.595200
3.940500 1.548800
3.962600 1.491500
3.984800 1.462600
4.007000 1.494700
4.029100 1.522800
4.051300 1.475600
4.073500 1.455600
4.095700 1.574600
4.117800 1.655200
4.140000 1.731200
4.162200 1.811700
4.184300 1.896900
4.206500 1.990600
4.228700 2.080700
4.250800 2.164300
4.273000 2.231700
4.295200 2.245300
4.317300 2.226200
4.339500 2.307300
4.361700 2.269900
4.383800 2.237600
4.406000 2.212300
4.428200 2.191800
4.450300 2.176800
4.472500 2.159800
4.494700 2.144600
4.516900 2.130000
4.539000 2.117100
4.561200 2.112600
4.583400 2.113000
4.605500 2.114000
4.627700 2.115600
4.649900 2.105300
4.672000 2.095100
4.694200 2.086900
4.716400 2.107800
4.738500 2.077600
4.760700 2.096100
4.782900 2.105400
4.805000 2.081600
4.827200 2.087500
4.849400 2.096400
4.871500 2.067400
4.893700 2.022200
4.915900 1.984100
4.938000 1.943800
4.960200 1.903100
4.982400 1.867400
5.004600 1.840100
5.026700 1.822900
5.048900 1.809100
5.071100 1.803900
5.093200 1.804500
5.115400 1.806100
5.137600 1.802200
5.159700 1.792500
5.181900 1.769200
5.204100 1.753900
5.226200 1.752000
5.248400 1.752600
5.270600 1.756100
5.292700 1.764300
5.314900 1.776200
5.337100 1.791400
5.359200 1.805500
5.381400 1.823800
5.403600 1.847200
5.425800 1.879400
5.447900 1.951700
5.470100 2.021200
5.492300 2.080600
5.514400 2.140600
5.536600 2.203600
5.558800 2.287900
5.580900 2.328000
5.603100 2.205500
5.625300 2.152900
5.647400 2.110300
5.669600 2.071900
5.691800 2.039200
5.713900 2.016100
5.736100 1.992600
5.758300 1.965200
5.780400 1.934100
5.802600 1.886900
5.824800 1.823200
5.846900 1.753000
5.869100 1.686200
5.891300 1.621000
5.913500 1.557300
5.935600 1.494900
5.957800 1.439600
5.980000 1.406000
6.002100 1.390600
6.024300 1.377000
6.046500 1.360600
6.068600 1.342300
6.090800 1.328400
6.113000 1.317500
6.135100 1.308300
6.157300 1.298600
6.179500 1.289300
6.201600 1.281300
6.223800 1.275000
6.246000 1.270400
6.268100 1.267800
6.290300 1.260500
6.312500 1.242000
6.334700 1.227000
6.356800 1.213600
6.379000 1.201600
6.401200 1.191300
6.423300 1.181100
6.445500 1.169400
6.467700 1.157300
6.489800 1.145400
6.512000 1.134100
6.534200 1.121600
6.556300 1.113700
6.578500 1.117800
6.600700 1.122600
6.622800 1.129700
6.645000 1.139100
6.667200 1.150000
6.689300 1.161600
6.711500 1.177700
6.733700 1.250100
6.755800 1.271200
6.778000 1.216800
6.800200 1.208300
6.822400 1.238200
6.844500 1.239300
6.866700 1.224900
6.888900 1.203100
6.911000 1.177600
6.933200 1.157200
6.955400 1.124700
6.977500 1.091400
6.999700 1.096600
7.021900 1.125400
7.044000 1.212800
7.066200 1.420800
7.088400 1.516800
7.110500 1.423100
7.132700 1.387600
7.154900 1.375500
7.177000 1.409800
7.199200 1.444100
7.221400 1.478100
7.243600 1.513000
7.265700 1.547400
7.287900 1.582300
7.310100 1.615000
7.332200 1.629100
7.354400 1.628900
7.376600 1.608600
7.398700 1.563900
7.420900 1.532300
7.443100 1.527700
7.465200 1.530000
7.487400 1.529300
7.509600 1.527600
7.531700 1.524800
7.553900 1.537300
7.576100 1.572700
7.598200 1.604900
7.620400 1.596700
7.642600 1.575100
7.664700 1.563700
7.686900 1.556200
7.709100 1.560900
7.731300 1.564900
7.753400 1.571600
7.775600 1.573500
7.797800 1.573500
7.819900 1.584700
7.842100 1.592900
7.864300 1.604300
7.886400 1.628900
7.908600 1.638500
7.930800 1.626800
7.952900 1.595900
7.975100 1.564700
7.997300 1.536800
8.019400 1.508800
8.041600 1.484600
8.063800 1.460000
8.085900 1.438200
8.108100 1.418100
8.130300 1.399000
8.152500 1.380500
8.174600 1.362700
8.196800 1.346000
8.219000 1.330600
8.241100 1.322300
8.263300 1.322300
8.285500 1.325600
8.307600 1.335900
8.329800 1.349300
8.352000 1.358600
8.374100 1.366900
8.396300 1.377100
8.418500 1.404400
8.440600 1.444400
8.462800 1.485500
8.485000 1.520000
8.507100 1.552400
8.529300 1.594800
8.551500 1.635100
8.573600 1.670600
8.595800 1.707000
8.618000 1.748300
8.640200 1.794400
8.662300 1.828700
8.684500 1.857100
8.706700 1.887800
8.728800 1.889900
8.751000 1.861900
8.773200 1.844600
8.795300 1.827800
8.817500 1.810700
8.839700 1.792700
8.861800 1.766600
8.884000 1.736800
8.906200 1.723900
8.928300 1.708300
8.950500 1.697500
8.972700 1.691100
8.994800 1.691700
9.017000 1.690800
9.039200 1.689400
9.061400 1.687000
9.083500 1.684600
9.105700 1.684900
9.127900 1.687000
9.150000 1.679400
9.172200 1.672000
9.194400 1.671300
9.216500 1.664900
9.238700 1.660500
9.260900 1.656900
9.283000 1.650700
9.305200 1.645400
9.327400 1.643700
9.349500 1.648300
9.371700 1.655800
9.393900 1.662900
9.416000 1.670800
9.438200 1.677000
9.460400 1.676700
9.482500 1.662700
9.504700 1.631600
9.526900 1.582400
9.549100 1.542400
9.571200 1.464000
9.593400 1.380200
9.615600 1.320500
9.637700 1.261700
9.659900 1.213100
9.682100 1.163400
9.704200 1.124200
9.726400 1.092400
9.748600 1.016700
9.770700 0.898200
9.792900 0.873900
9.815100 0.797000
9.837200 0.723800
9.859400 0.667900
9.881600 0.626700
9.903700 0.599600
9.925900 0.580600
9.948100 0.563600
9.970300 0.559500
9.992400 0.580900
10.014600 0.604400
10.036800 0.628500
10.058900 0.652600
10.081100 0.676600
10.103300 0.700500
10.125400 0.724400
10.147600 0.749400
10.169800 0.775400
10.191900 0.803600
10.214100 0.833600
10.236300 0.865600
10.258400 0.899100
10.280600 0.934000
10.302800 0.970400
10.324900 1.010000
10.347100 1.054300
10.369300 1.102500
10.391400 1.160900
10.413600 1.230900
10.435800 1.335500
10.458000 1.466300
10.480100 1.634800
10.502300 1.868800
10.524500 2.351400
10.546600 2.654100
10.568800 2.632900
10.591000 2.492100
10.613100 2.216400
10.635300 1.948000
10.657500 1.878900
10.679600 1.847500
10.701800 1.814500
10.724000 1.780400
10.746100 1.757000
10.768300 1.734200
10.790500 1.708600
10.812600 1.679900
10.834800 1.649700
10.857000 1.665300
10.879200 1.677100
10.901300 1.652200
10.923500 1.561400
10.945700 1.545300
10.967800 1.525100
10.990000 1.502600
11.012200 1.487900
11.034300 1.499500
11.056500 1.532900
11.078700 1.566800
11.100800 1.616300
11.123000 1.651500
11.145200 1.643100
11.167300 1.630300
11.189500 1.606800
11.211700 1.575800
11.233800 1.552000
11.256000 1.527700
11.278200 1.510000
11.300300 1.498200
11.322500 1.488100
11.344700 1.481400
11.366900 1.454500
11.389000 1.466100
11.411200 1.498900
11.433400 1.532900
11.455500 1.571600
11.477700 1.612600
11.499900 1.654700
11.522000 1.724000
11.544200 1.804100
11.566400 1.889800
11.588500 1.969600
11.610700 1.975000
11.632900 1.955100
11.655000 1.953200
11.677200 1.950700
11.699400 1.958000
11.721500 1.972100
11.743700 1.999700
11.765900 2.022700
11.788100 2.031200
11.810200 1.998700
11.832400 1.963600
11.854600 1.928200
11.876700 1.884100
11.898900 1.881500
11.921100 1.813100
11.943200 1.758900
11.965400 1.680800
11.987600 1.604900
12.009700 1.529300
12.031900 1.454100
12.054100 1.384800
12.076200 1.336400
12.098400 1.290100
12.120600 1.248200
12.142700 1.207700
12.164900 1.166500
12.187100 1.120600
12.209200 1.085200
12.231400 1.067600
12.253600 1.068800
12.275800 1.099000
12.297900 1.132400
12.320100 1.165400
12.342300 1.208700
12.364400 1.279000
12.386600 1.306800
12.408800 1.378100
12.430900 1.450900
12.453100 1.486500
12.475300 1.521800
12.497400 1.554100
12.519600 1.582900
12.541800 1.605900
12.563900 1.633400
12.586100 1.756000
12.608300 1.857600
12.630400 1.788900
12.652600 1.748900
12.674800 1.737100
12.696900 1.734500
12.719100 1.756000
12.741300 1.774200
12.763500 1.784100
12.785600 1.774800
12.807800 1.787700
12.830000 1.820200
12.852100 1.854000
12.874300 2.108500
12.896500 2.040300
12.918600 1.972800
12.940800 1.967400
12.963000 1.963900
12.985100 1.946500
13.007300 1.962500
13.029500 1.959500
13.051600 1.961600
13.073800 1.970200
13.096000 1.982800
13.118100 1.992500
13.140300 2.012900
13.162500 2.059700
13.184700 2.133500
13.206800 2.236300
13.229000 2.383600
13.251200 2.740300
13.273300 2.876400
13.295500 2.878600
13.317700 2.895200
13.339800 2.790300
13.362000 2.693300
13.384200 2.601600
13.406300 2.517100
13.428500 2.451000
13.450700 2.404700
13.472800 2.371900
13.495000 2.397200
13.517200 2.425900
13.539300 2.325700
13.561500 2.282900
13.583700 2.258900
13.605800 2.250100
13.628000 2.252700
13.650200 2.280500
13.672400 2.376300
13.694500 2.402200
13.716700 2.389600
13.738900 2.364600
13.761000 2.345400
13.783200 2.435400
13.805400 2.332800
13.827500 2.202400
13.849700 2.157300
13.871900 2.113700
13.894000 2.064500
13.916200 2.009600
13.938400 1.957700
13.960500 1.923900
13.982700 1.895600
14.004900 1.877900
14.027000 1.865200
14.049200 1.856800
14.071400 1.852100
14.093600 1.847600
14.115700 1.823900
14.137900 1.823700
14.160100 1.846300
14.182200 1.881200
14.204400 1.915000
14.226600 1.950500
14.248700 1.998900
14.270900 2.052300
14.293100 2.098400
14.315200 2.158600
14.337400 2.310500
14.359600 2.452700
14.381700 2.526200
14.403900 2.644500
14.426100 2.676000
14.448200 2.727800
14.470400 2.855900
14.492600 2.891500
14.514700 2.918000
14.536900 2.918600
14.559100 2.890800
14.581300 2.853100
14.603400 2.804500
14.625600 2.739700
14.647800 2.647800
14.669900 2.593500
14.692100 2.543900
14.714300 2.560100
14.736400 2.606000
14.758600 2.643100
14.780800 2.648000
14.802900 2.620600
14.825100 2.571100
14.847300 2.531000
14.869400 2.494800
14.891600 2.469600
14.913800 2.456800
14.935900 2.453600
14.958100 2.458800
14.980300 2.475400
15.002500 2.506300
15.024600 2.555000
15.046800 2.565600
15.069000 2.669800
15.091100 2.686900
15.113300 2.686100
15.135500 2.724300
15.157600 2.810100
15.179800 2.852100
15.202000 2.844900
15.224100 2.862800
15.246300 2.874500
15.268500 2.878100
15.290600 2.917200
15.312800 2.672900
15.335000 2.526900
15.357100 2.391600
15.379300 2.281600
15.401500 2.203600
15.423600 2.144100
15.445800 2.088300
15.468000 2.039000
15.490200 1.998700
15.512300 1.968900
15.534500 1.943900
15.556700 1.939400
15.578800 1.986500
15.601000 1.983900
15.623200 1.984700
15.645300 1.992500
15.667500 2.006000
15.689700 2.024500
15.711800 2.051500
15.734000 2.043700
15.756200 2.011200
15.778300 2.049500
15.800500 2.082700
15.822700 2.105900
15.844800 2.124700
15.867000 2.140800
15.889200 2.156000
15.911400 2.168800
15.933500 2.177600
15.955700 2.177100
15.977900 2.180600
16.000000 2.192700
16.022200 2.223000
16.044400 2.292100
16.066500 2.244400
16.088700 2.228300
16.110900 2.342800
16.133000 2.395100
16.155200 2.458300
16.177400 2.483300
16.199500 2.481800
16.221700 2.477100
16.243900 2.470500
16.266000 2.460500
16.288200 2.432500
16.310400 2.404000
16.332500 2.388800
16.354700 2.383300
16.376900 2.388000
16.399100 2.401700
16.421200 2.717500
16.443400 2.578900
16.465600 2.580100
16.487700 2.575900
16.509900 2.578200
16.532100 2.584200
16.554200 2.560200
16.576400 2.572500
16.598600 2.572900
16.620700 2.573600
16.642900 2.581000
16.665100 2.531900
16.687200 2.449700
16.709400 2.383500
16.731600 2.379600
16.753700 2.407400
16.775900 2.456300
16.798100 2.501100
16.820300 2.526200
16.842400 2.546200
16.864600 2.574100
16.886800 2.606000
16.908900 2.624500
16.931100 2.633900
16.953300 2.675600
16.975400 2.704600
16.997600 2.708100
17.019800 2.678900
17.041900 2.659800
17.064100 2.756700
17.086300 2.603900
17.108400 2.608000
17.130600 2.633200
17.152800 2.677200
17.174900 2.713300
17.197100 2.726400
17.219300 2.746300
17.241400 2.788400
17.263600 2.837700
17.285800 2.879300
17.308000 2.914600
17.330100 2.958900
17.352300 3.003900
17.374500 3.028700
17.396600 3.049600
17.418800 3.068400
17.441000 3.098000
17.463100 3.163000
17.485300 3.240400
17.507500 3.284000
17.529600 3.323300
17.551800 3.341400
17.574000 3.353200
17.596100 3.386900
17.618300 3.454800
17.640500 3.501700
17.662600 3.530100
17.684800 3.533900
17.707000 3.532500
17.729200 3.529200
17.751300 3.524400
17.773500 3.523900
17.795700 3.515200
17.817800 3.503100
17.840000 3.479800
17.862200 3.431800
17.884300 3.389100
17.906500 3.358800
17.928700 3.319000
17.950800 3.289100
17.973000 3.269400
17.995200 3.293300
18.017300 3.435200
18.039500 3.481900
18.061700 3.422900
18.083800 3.401900
18.106000 3.387600
18.128200 3.382500
18.150300 3.379300
18.172500 3.369200
18.194700 3.393000
18.216900 3.366700
18.239000 3.311500
18.261200 3.206400
18.283400 3.098800
18.305500 3.020600
18.327700 2.953400
18.349900 2.881300
18.372000 2.805200
18.394200 2.781500
18.416400 2.582500
18.438500 2.583200
18.460700 2.578300
18.482900 2.571700
18.505000 2.653700
18.527200 2.644900
18.549400 2.629900
18.571500 2.629900
18.593700 2.633600
18.615900 2.668000
18.638100 2.717000
18.660200 2.754000
18.682400 2.794300
18.704600 2.900700
18.726700 2.966300
18.748900 2.995600
18.771100 3.011400
18.793200 3.022800
18.815400 3.036500
18.837600 3.053200
18.859700 3.113300
18.881900 3.193300
18.904100 3.254600
18.926200 3.188400
18.948400 3.171700
18.970600 3.149200
18.992700 3.115200
19.014900 3.069800
19.037100 3.022800
19.059200 2.937400
19.081400 2.863700
19.103600 2.810100
19.125800 2.768500
19.147900 2.718800
19.170100 2.661000
19.192300 2.686700
19.214400 2.718900
19.236600 2.687500
19.258800 2.697200
19.280900 2.706300
19.303100 2.735800
19.325300 2.784900
19.347400 2.836200
19.369600 2.899200
19.391800 2.966800
19.413900 3.015800
19.436100 3.113400
19.458300 3.184500
19.480400 3.226700
19.502600 3.217500
19.524800 3.277900
19.547000 3.235200
19.569100 3.183300
19.591300 3.134500
19.613500 3.098700
19.635600 3.030900
19.657800 2.979700
19.680000 2.998400
19.702100 3.010600
19.724300 3.040900
19.746500 3.003500
19.768600 2.934900
19.790800 2.912400
19.813000 2.937000
19.835100 2.988400
19.857300 3.057100
19.879500 3.063200
19.901600 3.054500
19.923800 3.025800
19.946000 2.952600
19.968100 2.942000
19.990300 2.938800
20.012500 2.944200
20.034700 2.978500
20.056800 3.027100
20.079000 3.069500
20.101200 3.118000
20.123300 3.216600
20.145500 3.386800
20.167700 3.471800
20.189800 3.527800
20.212000 3.532500
20.234200 3.546200
20.256300 3.465600
20.278500 3.390700
20.300700 3.328900
20.322800 3.274200
20.345000 3.207300
20.367200 3.132000
20.389300 3.068400
20.411500 3.029700
20.433700 2.953500
20.455900 2.849700
20.478000 2.804400
20.500200 2.770000
20.522400 2.747400
20.544500 2.759000
20.566700 2.794100
20.588900 2.849000
20.611000 2.924800
20.633200 3.019200
20.655400 3.093400
20.677500 3.192200
20.699700 3.096400
20.721900 3.011500
20.744000 2.916700
20.766200 2.809000
20.788400 2.753600
20.810500 2.731600
20.832700 2.744100
20.854900 2.771000
20.877000 2.742500
20.899200 2.720000
20.921400 2.706200
20.943600 2.704700
20.965700 2.722300
20.987900 2.767900
21.010100 2.838900
21.032200 2.911800
21.054400 2.990400
21.076600 3.085800
21.098700 3.171000
21.120900 3.174800
21.143100 3.180200
21.165200 3.232500
21.187400 3.207300
21.209600 3.124900
21.231700 3.105400
21.253900 3.203900
21.276100 3.334400
21.298200 3.389200
21.320400 3.424300
21.342600 3.511800
21.364800 3.613800
21.386900 3.512400
21.409100 3.405800
21.431300 3.263900
21.453400 3.113200
21.475600 2.964500
21.497800 2.864800
21.519900 2.846000
21.542100 2.851500
21.564300 3.451600
21.586400 3.280100
21.608600 3.204000
21.630800 3.262200
21.652900 3.245200
21.675100 3.226200
21.697300 3.284300
21.719400 3.357700
21.741600 3.402200
21.763800 3.434300
21.785900 3.441400
21.808100 3.443500
21.830300 3.320600
21.852500 3.240700
21.874600 3.268000
21.896800 3.172000
21.919000 2.988500
21.941100 3.040100
21.963300 3.026000
21.985500 2.966700
22.007600 3.026000
22.029800 3.164300
22.052000 3.306700
22.074100 3.448500
22.096300 3.587000
22.118500 3.730700
22.140600 3.856600
22.162800 3.956900
22.185000 4.050200
22.207100 4.145300
22.229300 4.372600
22.251500 4.260300
22.273600 4.068800
22.295800 3.830300
22.318000 3.581100
22.340200 3.267400
22.362300 3.116800
22.384500 3.016700
22.406700 2.948600
22.428800 2.963500
22.451000 3.048400
22.473200 3.233000
22.495300 3.550600
22.517500 3.948600
22.539700 4.259800
22.561800 4.409500
22.584000 4.406400
22.606200 4.304800
22.628300 4.136200
22.650500 3.917600
22.672700 3.757000
22.694800 3.661800
22.717000 3.561900
22.739200 3.584100
22.761400 3.613600
22.783500 3.697600
22.805700 3.901500
22.827900 3.872000
22.850000 3.898200
22.872200 3.974700
22.894400 3.960100
22.916500 4.017000
22.938700 4.039200
22.960900 3.940800
22.983000 3.728700
23.005200 3.559600
23.027400 3.446800
23.049500 3.353400
23.071700 3.285400
23.093900 3.238400
23.116000 3.212000
23.138200 3.240800
23.160400 3.371700
23.182500 3.481800
23.204700 3.448100
23.226900 3.469800
23.249100 3.491500
23.271200 3.517300
23.293400 3.603000
23.315600 3.574500
23.337700 3.600500
23.359900 3.833900
23.382100 3.884300
23.404200 3.870800
23.426400 3.828800
23.448600 3.760200
23.470700 3.792900
23.492900 3.879900
23.515100 3.901200
23.537200 3.803300
23.559400 3.666300
23.581600 3.604900
23.603700 3.588600
23.625900 3.566800
23.648100 3.663800
23.670300 3.688300
23.692400 3.719200
23.714600 3.754200
23.736800 3.637300
23.758900 3.504100
23.781100 3.477800
23.803300 3.413000
23.825400 3.336100
23.847600 3.304000
23.869800 3.238700
23.891900 3.152300
23.914100 3.119900
23.936300 3.131400
23.958400 3.173600
23.980600 3.218800
24.002800 3.308800
24.024900 3.335900
24.047100 3.435800
24.069300 3.581900
24.091400 3.788000
24.113600 4.165800
24.135800 4.435500
24.158000 4.582700
24.180100 4.599100
24.202300 4.589200
24.224500 4.541800
24.246600 4.424100
24.268800 4.448500
24.291000 4.356900
24.313100 4.286400
24.335300 4.239800
24.357500 4.143900
24.379600 4.124500
24.401800 4.268300
24.424000 4.262400
24.446100 4.187200
24.468300 4.031800
24.490500 3.952500
24.512600 3.884700
24.534800 3.851100
24.557000 3.873300
24.579200 3.916300
24.601300 3.978100
24.623500 4.043600
24.645700 4.106400
24.667800 4.158700
24.690000 4.187800
24.712200 4.131800
24.734300 4.026500
24.756500 3.941000
24.778700 3.927600
24.800800 3.968200
24.823000 4.057000
24.845200 4.026000
24.867300 3.974900
24.889500 3.895700
24.911700 3.898400
24.933800 3.914100
24.956000 3.819800
24.978200 3.775800
25.000300 3.813300
25.022500 3.784100
25.044700 3.786000
25.066900 3.828000
25.089000 3.846900
25.111200 3.864800
25.133400 3.878800
25.155500 3.903700
25.177700 3.907800
25.199900 3.835500
25.222000 3.822100
25.244200 3.812600
25.266400 3.740200
25.288500 3.670000
25.310700 3.670700
25.332900 3.680800
25.355000 3.753600
25.377200 3.770200
25.399400 3.769200
25.421500 3.712200
25.443700 3.812600
25.465900 3.903000
25.488100 4.049000
25.510200 4.936300
25.532400 4.121700
25.554600 4.072400
25.576700 3.956000
25.598900 3.783100
25.621100 3.608900
25.643200 3.480100
25.665400 3.404800
25.687600 3.361000
25.709700 3.358400
25.731900 3.379600
25.754100 3.409900
25.776200 3.442200
25.798400 3.459800
25.820600 3.503600
25.842700 3.473900
25.864900 3.420900
25.887100 3.397500
25.909200 3.391600
25.931400 3.371600
25.953600 3.379700
25.975800 3.152900
25.997900 3.134500
26.020100 3.151700
26.042300 3.225200
26.064400 3.317000
26.086600 3.362700
26.108800 3.434500
26.130900 3.482300
26.153100 3.628600
26.175300 3.599800
26.197400 3.593600
26.219600 3.511000
26.241800 3.496600
26.263900 3.472000
26.286100 3.450500
26.308300 3.476800
26.330400 3.525600
26.352600 3.572400
26.374800 3.579400
26.397000 3.524100
26.419100 3.405500
26.441300 3.306800
26.463500 3.237500
26.485600 3.187600
26.507800 3.272100
26.530000 3.415300
26.552100 3.620700
26.574300 3.686200
26.596500 3.859200
26.618600 4.332100
26.640800 4.688800
26.663000 4.969200
26.685100 4.735800
26.707300 4.529700
26.729500 4.355200
26.751600 4.207000
26.773800 4.154800
26.796000 4.145200
26.818100 4.254900
26.840300 4.239700
26.862500 4.177600
26.884700 4.083500
26.906800 4.160400
26.929000 4.206600
26.951200 4.276300
26.973300 4.366200
26.995500 4.378200
27.017700 4.388100
27.039800 4.724700
27.062000 4.238900
27.084200 4.218900
27.106300 4.172500
27.128500 4.131400
27.150700 4.232600
27.172800 4.235100
27.195000 4.221500
27.217200 4.254400
27.239300 4.317500
27.261500 4.399100
27.283700 4.572700
27.305900 4.676600
27.328000 4.525000
27.350200 4.322900
27.372400 4.140700
27.394500 3.986400
27.416700 3.858900
27.438900 3.743400
27.461000 3.678400
27.483200 3.636300
27.505400 3.622900
27.527500 3.667900
27.549700 3.732900
27.571900 3.737000
27.594000 3.777300
27.616200 3.896000
27.638400 4.115700
27.660500 3.977100
27.682700 3.948300
27.704900 4.043200
27.727000 4.022600
27.749200 3.972400
27.771400 3.903000
27.793600 3.789700
27.815700 3.571500
27.837900 3.365700
27.860100 3.200600
27.882200 3.204400
27.904400 3.227000
27.926600 3.268700
27.948700 3.295800
27.970900 3.260600
27.993100 3.229300
28.015200 3.246000
28.037400 3.265700
28.059600 3.296800
28.081700 3.366300
28.103900 3.208800
28.126100 3.099800
28.148200 3.101100
28.170400 3.123600
28.192600 3.160300
28.214800 3.228700
28.236900 3.326000
28.259100 3.430400
28.281300 3.518500
28.303400 3.368600
28.325600 3.266200
28.347800 3.334400
28.369900 3.354700
28.392100 3.382600
28.414300 3.400200
28.436400 3.419600
28.458600 3.459000
28.480800 3.500300
28.502900 3.565000
28.525100 3.649500
28.547300 3.722100
28.569400 3.736800
28.591600 3.723500
28.613800 3.924500
28.635900 4.004100
28.658100 4.240300
28.680300 4.534300
28.702500 4.693900
28.724600 4.574900
28.746800 4.412900
28.769000 4.421700
28.791100 4.658500
28.813300 4.931200
28.835500 4.568500
28.857600 4.294100
28.879800 4.006700
28.902000 3.798800
28.924100 3.759000
28.946300 3.758700
28.968500 3.784300
28.990600 3.735600
29.012800 3.604900
29.035000 3.495000
29.057100 3.413400
29.079300 3.355300
29.101500 3.310700
29.123700 3.545800
29.145800 3.614500
29.168000 3.623600
29.190200 3.650000
29.212300 3.689700
29.234500 3.724600
29.256700 3.717300
29.278800 3.685100
29.301000 3.675200
29.323200 3.671900
29.345300 3.623300
29.367500 3.477700
29.389700 3.347200
29.411800 3.296600
29.434000 3.235800
29.456200 3.142900
29.478300 3.090600
29.500500 3.066100
29.522700 3.050600
29.544800 3.036100
29.567000 3.017400
29.589200 3.011100
29.611400 3.055500
29.633500 3.269400
29.655700 3.680100
29.677900 4.230900
29.700000 4.402500
29.722200 4.370900
29.744400 4.243400
29.766500 4.105200
29.788700 3.952600
29.810900 3.811500
29.833000 3.684500
29.855200 3.567800
29.877400 3.461000
29.899500 3.366500
29.921700 3.286500
29.943900 3.188900
29.966000 3.042600
29.988200 3.028100
30.010400 3.081700
30.032600 3.170600
30.054700 3.609000
30.076900 3.637600
30.099100 3.690500
30.121200 3.719900
30.143400 3.745500
30.165600 3.793300
30.187700 3.878600
30.209900 3.966400
30.232100 4.027700
30.254200 3.857900
30.276400 3.820500
30.298600 3.789900
30.320700 3.783900
30.342900 3.759500
30.365100 3.698100
30.387200 3.606900
30.409400 3.629800
30.431600 3.718500
30.453700 3.853900
30.475900 4.063300
30.498100 4.309800
30.520300 4.536800
30.542400 4.700700
30.564600 4.727100
30.586800 4.835800
30.608900 4.908300
30.631100 4.949800
30.653300 4.853000
30.675400 4.702200
30.697600 4.385100
30.719800 4.030700
30.741900 3.807600
30.764100 3.845600
30.786300 4.037800
30.808400 4.167500
30.830600 4.184800
30.852800 4.163600
30.874900 4.143100
30.897100 4.215700
30.919300 4.154900
30.941500 4.131100
30.963600 4.115300
30.985800 4.107100
31.008000 4.096000
31.030100 4.215300
31.052300 4.373200
31.074500 4.360600
31.096600 4.326000
31.118800 4.206300
31.141000 4.106400
31.163100 4.019700
31.185300 3.941400
31.207500 3.920500
31.229600 3.997000
31.251800 4.041200
31.274000 4.071400
31.296100 4.083100
31.318300 4.078100
31.340500 4.020500
31.362600 4.006400
31.384800 4.111800
31.407000 4.189900
31.429200 4.266600
31.451300 4.430400
31.473500 4.444100
31.495700 4.756600
31.517800 4.597700
31.540000 4.505000
31.562200 4.423000
31.584300 4.342600
31.606500 4.250800
31.628700 4.179100
31.650800 4.178500
31.673000 4.169800
31.695200 4.133100
31.717300 4.048000
31.739500 4.027400
31.761700 4.020400
31.783800 4.009400
31.806000 4.021200
31.828200 4.066100
31.850300 4.086000
31.872500 4.092200
31.894700 4.033000
31.916900 4.002700
31.939000 3.958400
31.961200 3.938600
31.983400 3.921100
32.005500 3.870500
32.027700 3.864600
32.049900 3.867300
32.072000 3.882100
32.094200 3.836600
32.116400 3.729600
32.138500 3.586900
32.160700 3.409100
32.182900 3.241100
32.205000 3.071700
32.227200 3.315400
32.249400 2.736900
32.271500 2.534400
32.293700 2.459000
32.315900 2.620500
32.338100 2.419200
32.360200 2.251900
32.382400 2.244200
32.404600 2.225300
32.426700 2.184400
32.448900 2.124800
32.471100 2.068500
32.493200 1.972700
32.515400 1.819900
32.537600 1.651000
32.559700 1.475700
32.581900 1.251500
32.604100 1.097200
32.626200 0.985600
32.648400 0.912800
32.670600 0.872500
32.692700 0.857300
32.714900 0.861500
32.737100 0.837700
32.759200 0.858400
32.781400 0.862900
32.803600 0.861300
32.825800 1.032800
32.847900 0.951000
32.870100 0.878400
32.892300 0.818500
32.914400 0.802200
32.936600 0.835100
32.958800 0.890000
32.980900 0.978700
33.003100 1.096900
33.025300 1.131600
33.047400 1.019000
33.069600 0.901300
33.091800 0.772500
33.113900 0.675800
33.136100 0.605100
33.158300 0.547100
33.180400 0.500200
33.202600 0.446700
33.224800 0.331600
33.247000 0.219200
33.269100 0.125700
33.291300 0.051800
33.313500 0.025200
33.335600 0.016300
33.357800 0.007600
33.380000 0.002100
33.402100 0.000000
33.424300 0.000000
33.446500 0.000000
33.468600 0.000000
33.490800 0.000000
33.513000 0.000000
33.535100 0.000000
33.557300 0.000000
33.579500 0.000000
33.601600 0.000000
33.623800 0.000000
33.646000 0.000000
33.668100 0.000000
33.690300 0.000000
33.712500 0.000000
33.734700 0.000000
33.756800 0.000000
33.779000 0.000000
33.801200 0.000000
33.823300 0.000000
33.845500 0.000000
33.867700 0.000000
33.889800 0.000000
33.912000 0.000000
33.934200 0.000000
33.956300 0.000000
33.978500 0.000000
34.000700 0.000000
34.022800 0.000000
34.045000 0.000000
34.067200 0.000000
34.089300 0.000000
34.111500 0.000000
34.133700 0.000000
34.155900 0.000000
34.178000 0.000000
34.200200 0.000000
34.222400 0.000000
34.244500 0.000000
34.266700 0.000000
34.288900 0.000000
34.311000 0.000000
34.333200 0.000000
34.355400 0.000000
34.377500 0.000000
34.399700 0.000000
34.421900 0.000000
34.444000 0.000000
34.466200 0.000000
34.488400 0.000000
34.510500 0.000000
34.532700 0.000000
34.554900 0.000000
34.577000 0.000000
34.599200 0.000000
34.621400 0.000000
34.643600 0.000000
34.665700 0.000000
34.687900 0.000000
34.710100 0.000000
34.732200 0.000000
34.754400 0.000000
34.776600 0.000000
34.798700 0.000000
34.820900 0.000000
34.843100 0.000000
34.865200 0.000000
34.887400 0.000000
34.909600 0.000000
34.931700 0.000000
34.953900 0.000000
34.976100 0.000000
34.998200 0.000000
35.020400 0.000000
35.042600 0.000000
35.064800 0.000000
35.086900 0.000000
35.109100 0.000000
35.131300 0.000000
35.153400 0.000000
35.175600 0.000000
35.197800 0.000000
35.219900 0.000000
35.242100 0.000000
35.264300 0.000000
35.286400 0.000000
35.308600 0.000000
35.330800 0.000000
35.352900 0.000000
35.375100 0.000000
35.397300 0.000000
35.419400 0.000000
e
