set title 'mp-569304 - Density of States'
set xlabel 'Energy (eV)'
set ylabel 'DOS (states/eV)'
set grid
set xrange [-10:10]
set yrange [0:4.875]
set xzeroaxis lt -1
set terminal png size 800,600
set output 'mp-569304_dos_gnuplot.png'
plot '-' using 1:2 with lines title 'DOS'
-22.735300 0.000000
-22.691200 0.000000
-22.647000 0.000000
-22.602900 0.000000
-22.558700 0.000000
-22.514600 0.000000
-22.470500 0.000000
-22.426300 0.000000
-22.382200 0.000000
-22.338000 0.000000
-22.293900 0.000000
-22.249800 0.000000
-22.205600 0.000000
-22.161500 0.000000
-22.117300 0.000000
-22.073200 0.000000
-22.029000 0.000000
-21.984900 0.000000
-21.940800 0.000000
-21.896600 0.000000
-21.852500 0.000000
-21.808300 0.000000
-21.764200 0.000000
-21.720100 0.000000
-21.675900 0.000000
-21.631800 0.000000
-21.587600 0.000000
-21.543500 0.000000
-21.499400 0.000000
-21.455200 0.000000
-21.411100 0.000000
-21.366900 0.000000
-21.322800 0.000000
-21.278600 0.000000
-21.234500 0.000000
-21.190400 0.000000
-21.146200 0.000000
-21.102100 0.000000
-21.057900 0.000000
-21.013800 0.000000
-20.969700 0.000000
-20.925500 0.000000
-20.881400 0.000000
-20.837200 0.000000
-20.793100 0.000000
-20.749000 0.000000
-20.704800 0.000000
-20.660700 0.000000
-20.616500 0.000000
-20.572400 0.000000
-20.528200 0.000000
-20.484100 0.000000
-20.440000 0.000000
-20.395800 0.000000
-20.351700 0.000000
-20.307500 0.000000
-20.263400 0.000000
-20.219300 0.000000
-20.175100 0.000000
-20.131000 0.000000
-20.086800 0.000000
-20.042700 0.000000
-19.998600 0.000000
-19.954400 0.000000
-19.910300 0.000000
-19.866100 0.000000
-19.822000 0.000000
-19.777800 0.000000
-19.733700 0.000000
-19.689600 0.000000
-19.645400 0.000000
-19.601300 0.000000
-19.557100 0.000000
-19.513000 0.000000
-19.468900 0.000000
-19.424700 0.000000
-19.380600 0.000000
-19.336400 0.000000
-19.292300 0.000000
-19.248200 0.000000
-19.204000 0.000000
-19.159900 0.000000
-19.115700 0.000000
-19.071600 0.000000
-19.027400 0.000000
-18.983300 0.000000
-18.939200 0.000000
-18.895000 0.000000
-18.850900 0.000000
-18.806700 0.000000
-18.762600 0.000000
-18.718500 0.004200
-18.674300 0.050800
-18.630200 0.107200
-18.586000 0.201000
-18.541900 0.294800
-18.497800 0.388600
-18.453600 0.482400
-18.409500 0.576200
-18.365300 0.670000
-18.321200 0.763800
-18.277000 0.857600
-18.232900 0.691500
-18.188800 0.742700
-18.144600 0.524800
-18.100500 0.532800
-18.056300 0.540900
-18.012200 0.548900
-17.968100 0.557000
-17.923900 0.565000
-17.879800 0.573100
-17.835600 0.581100
-17.791500 0.589100
-17.747400 0.597200
-17.703200 0.605200
-17.659100 0.613300
-17.614900 0.621300
-17.570800 0.629400
-17.526600 0.637400
-17.482500 0.645500
-17.438400 0.653500
-17.394200 0.661600
-17.350100 0.669600
-17.305900 0.677700
-17.261800 0.681000
-17.217700 0.680700
-17.173500 0.673000
-17.129400 0.664200
-17.085200 0.655300
-17.041100 0.646400
-16.997000 0.637500
-16.952800 0.628700
-16.908700 0.619800
-16.864500 0.610900
-16.820400 0.602100
-16.776200 0.598200
-16.732100 0.596500
-16.688000 0.599700
-16.643800 0.602900
-16.599700 0.606000
-16.555500 0.609200
-16.511400 0.612300
-16.467300 0.615500
-16.423100 0.618600
-16.379000 0.621800
-16.334800 0.624900
-16.290700 0.628100
-16.246600 0.631300
-16.202400 0.634400
-16.158300 0.637600
-16.114100 0.640700
-16.070000 0.643900
-16.025800 0.647000
-15.981700 0.650200
-15.937600 0.653300
-15.893400 0.656500
-15.849300 0.659700
-15.805100 0.662800
-15.761000 0.666000
-15.716900 0.669100
-15.672700 0.672300
-15.628600 0.675400
-15.584400 0.678600
-15.540300 0.681700
-15.496200 0.684900
-15.452000 0.688000
-15.407900 0.672400
-15.363700 0.676200
-15.319600 0.661700
-15.275400 0.666400
-15.231300 0.671100
-15.187200 0.675800
-15.143000 0.680500
-15.098900 0.685200
-15.054700 0.690000
-15.010600 0.694700
-14.966500 0.699400
-14.922300 0.704100
-14.878200 0.708800
-14.834000 0.713500
-14.789900 0.718200
-14.745800 0.722900
-14.701600 0.727600
-14.657500 0.732300
-14.613300 0.737000
-14.569200 0.741700
-14.525000 0.895100
-14.480900 0.918000
-14.436800 1.084700
-14.392600 1.062800
-14.348500 1.040800
-14.304300 1.018800
-14.260200 0.996900
-14.216100 0.974900
-14.171900 0.952900
-14.127800 0.931000
-14.083600 0.909000
-14.039500 0.887000
-13.995400 0.865100
-13.951200 0.843100
-13.907100 0.821100
-13.862900 0.799200
-13.818800 0.777200
-13.774600 0.755200
-13.730500 0.733300
-13.686400 0.711300
-13.642200 0.689300
-13.598100 0.667400
-13.553900 0.645400
-13.509800 0.623400
-13.465700 0.601500
-13.421500 0.579500
-13.377400 0.557500
-13.333200 0.535600
-13.289100 0.513600
-13.245000 0.491600
-13.200800 1.957900
-13.156700 2.022500
-13.112500 0.000000
-13.068400 0.000000
-13.024200 0.000000
-12.980100 0.000000
-12.936000 0.000000
-12.891800 0.000000
-12.847700 0.000000
-12.803500 0.000000
-12.759400 0.000000
-12.715300 0.000000
-12.671100 0.000000
-12.627000 0.000000
-12.582800 0.000000
-12.538700 0.000000
-12.494600 0.000000
-12.450400 0.000000
-12.406300 0.000000
-12.362100 0.000000
-12.318000 0.000000
-12.273800 0.000000
-12.229700 0.000000
-12.185600 0.000000
-12.141400 0.000000
-12.097300 0.015300
-12.053100 0.078900
-12.009000 0.142600
-11.964900 0.206300
-11.920700 0.270000
-11.876600 0.333700
-11.832400 0.397400
-11.788300 0.461100
-11.744200 0.524800
-11.700000 0.588500
-11.655900 0.652100
-11.611700 0.715800
-11.567600 0.779500
-11.523400 0.843200
-11.479300 0.906900
-11.435200 0.970600
-11.391000 1.034300
-11.346900 1.098000
-11.302700 1.161700
-11.258600 1.225400
-11.214500 1.289100
-11.170300 1.063000
-11.126200 0.821600
-11.082000 0.841500
-11.037900 0.861400
-10.993800 0.881200
-10.949600 0.901100
-10.905500 0.921000
-10.861300 0.940900
-10.817200 0.960800
-10.773000 0.980700
-10.728900 1.000500
-10.684800 0.841900
-10.640600 0.667100
-10.596500 0.665300
-10.552300 0.663600
-10.508200 0.661800
-10.464100 0.660000
-10.419900 0.658200
-10.375800 0.656500
-10.331600 0.654700
-10.287500 0.652900
-10.243400 0.651100
-10.199200 0.649400
-10.155100 0.647600
-10.110900 0.645800
-10.066800 0.644000
-10.022600 0.642300
-9.978500 0.640500
-9.934400 0.638700
-9.890200 0.636900
-9.846100 0.635200
-9.801900 0.633400
-9.757800 0.631600
-9.713700 0.629900
-9.669500 0.628100
-9.625400 0.626300
-9.581200 0.624500
-9.537100 0.622800
-9.493000 0.621000
-9.448800 0.619200
-9.404700 0.617400
-9.360500 0.615700
-9.316400 0.613900
-9.272200 0.517400
-9.228100 0.423200
-9.184000 0.422000
-9.139800 0.420900
-9.095700 0.419700
-9.051500 0.418600
-9.007400 0.661900
-8.963300 0.667100
-8.919100 0.672400
-8.875000 0.677600
-8.830800 0.682900
-8.786700 0.688200
-8.742600 0.693400
-8.698400 0.698700
-8.654300 0.703900
-8.610100 0.709200
-8.566000 0.714400
-8.521800 0.719700
-8.477700 0.724900
-8.433600 0.730200
-8.389400 0.735400
-8.345300 0.740700
-8.301100 0.745900
-8.257000 0.751200
-8.212900 0.756400
-8.168700 0.761700
-8.124600 0.766900
-8.080400 0.772200
-8.036300 0.777400
-7.992200 0.782700
-7.948000 0.787900
-7.903900 0.793200
-7.859700 0.798400
-7.815600 0.803700
-7.771400 0.808900
-7.727300 0.814200
-7.683200 0.819400
-7.639000 0.824700
-7.594900 0.830000
-7.550700 0.840100
-7.506600 0.857500
-7.462500 0.875300
-7.418300 0.893100
-7.374200 0.911000
-7.330000 0.928800
-7.285900 0.946600
-7.241800 0.964500
-7.197600 0.982300
-7.153500 1.000100
-7.109300 1.018000
-7.065200 1.067600
-7.021000 1.117800
-6.976900 1.181400
-6.932800 1.260400
-6.888600 1.339500
-6.844500 1.418500
-6.800300 1.497500
-6.756200 1.576500
-6.712100 1.655600
-6.667900 1.734600
-6.623800 1.813600
-6.579600 1.892600
-6.535500 1.971700
-6.491400 2.058300
-6.447200 2.171200
-6.403100 2.125500
-6.358900 2.080800
-6.314800 2.036200
-6.270600 1.991500
-6.226500 1.946900
-6.182400 1.902200
-6.138200 1.857600
-6.094100 1.812900
-6.049900 1.973400
-6.005800 2.242200
-5.961700 2.511000
-5.917500 2.779700
-5.873400 1.291300
-5.829200 1.302800
-5.785100 1.314200
-5.741000 1.325700
-5.696800 1.337100
-5.652700 1.348600
-5.608500 1.360000
-5.564400 1.371500
-5.520200 1.382900
-5.476100 1.226600
-5.432000 1.037300
-5.387800 1.011300
-5.343700 0.990300
-5.299500 0.969300
-5.255400 0.948300
-5.211300 0.927300
-5.167100 0.906300
-5.123000 0.885300
-5.078800 0.864300
-5.034700 0.843300
-4.990600 0.822300
-4.946400 0.801200
-4.902300 0.780200
-4.858100 0.772800
-4.814000 0.905200
-4.769800 1.050100
-4.725700 1.233100
-4.681600 1.416100
-4.637400 1.599100
-4.593300 1.782100
-4.549100 1.856100
-4.505000 1.864400
-4.460900 1.872600
-4.416700 1.880800
-4.372600 1.889000
-4.328400 1.897200
-4.284300 1.905400
-4.240200 1.898200
-4.196000 1.850000
-4.151900 1.801800
-4.107700 1.753600
-4.063600 1.705400
-4.019400 1.657300
-3.975300 1.445200
-3.931200 1.429200
-3.887000 1.413200
-3.842900 1.397100
-3.798700 1.381100
-3.754600 1.365000
-3.710500 1.349000
-3.666300 1.332900
-3.622200 1.316900
-3.578000 1.300800
-3.533900 1.284800
-3.489800 1.268800
-3.445600 1.252700
-3.401500 1.236700
-3.357300 1.220600
-3.313200 1.204600
-3.269000 1.188500
-3.224900 1.123900
-3.180800 1.109600
-3.136600 1.095300
-3.092500 1.342900
-3.048300 1.313100
-3.004200 1.283300
-2.960100 1.253500
-2.915900 1.223700
-2.871800 1.193900
-2.827600 1.164100
-2.783500 1.134300
-2.739400 1.104500
-2.695200 1.069500
-2.651100 1.045300
-2.606900 1.021000
-2.562800 0.996700
-2.518600 0.972400
-2.474500 0.948200
-2.430400 0.923900
-2.386200 1.096200
-2.342100 1.054400
-2.297900 1.012700
-2.253800 0.970900
-2.209700 0.949600
-2.165500 0.942900
-2.121400 0.936100
-2.077200 0.929400
-2.033100 0.922600
-1.989000 0.915900
-1.944800 1.132300
-1.900700 1.097600
-1.856500 1.062900
-1.812400 1.028200
-1.768200 0.993400
-1.724100 0.958700
-1.680000 0.924000
-1.635800 0.889300
-1.591700 0.854500
-1.547500 0.819800
-1.503400 0.785100
-1.459300 0.750300
-1.415100 0.715600
-1.371000 0.680900
-1.326800 0.646200
-1.282700 0.611400
-1.238600 0.576700
-1.194400 0.609200
-1.150300 0.652400
-1.106100 0.695600
-1.062000 0.738800
-1.017800 0.782000
-0.973700 0.854100
-0.929600 0.939100
-0.885400 0.301500
-0.841300 0.322800
-0.797100 0.344000
-0.753000 0.365200
-0.708900 0.386400
-0.664700 0.407700
-0.620600 0.428900
-0.576400 0.450100
-0.532300 0.471300
-0.488200 0.000000
-0.444000 0.000000
-0.399900 0.000000
-0.355700 0.000000
-0.311600 0.000000
-0.267400 0.000000
-0.223300 0.000000
-0.179200 0.000000
-0.135000 0.000000
-0.090900 0.000000
-0.046700 0.000000
-0.002600 0.000000
0.041500 0.000000
0.085700 0.000000
0.129800 0.000000
0.174000 0.000000
0.218100 0.000000
0.262200 0.000000
0.306400 0.000000
0.350500 0.000000
0.394700 0.000000
0.438800 0.000000
0.483000 0.000000
0.527100 0.000000
0.571200 0.000000
0.615400 0.000000
0.659500 0.000000
0.703700 0.000000
0.747800 0.000000
0.791900 0.000000
0.836100 0.000000
0.880200 0.000000
0.924400 0.000000
0.968500 0.000000
1.012600 0.000000
1.056800 0.000000
1.100900 0.000000
1.145100 0.000000
1.189200 0.000000
1.233400 0.000000
1.277500 0.000000
1.321600 0.000000
1.365800 0.000000
1.409900 0.000000
1.454100 0.000000
1.498200 0.000000
1.542300 0.000000
1.586500 0.000000
1.630600 0.000000
1.674800 0.000000
1.718900 0.000000
1.763000 0.000000
1.807200 0.000000
1.851300 0.000000
1.895500 0.000000
1.939600 0.000000
1.983800 0.000000
2.027900 0.000000
2.072000 0.000000
2.116200 0.000000
2.160300 0.000000
2.204500 2.803700
2.248600 0.718300
2.292700 0.217600
2.336900 0.239100
2.381000 0.260700
2.425200 0.480000
2.469300 0.517500
2.513400 0.555000
2.557600 0.592500
2.601700 0.630000
2.645900 0.667500
2.690000 0.705000
2.734200 0.742500
2.778300 0.780000
2.822400 0.817500
2.866600 0.855000
2.910700 0.892500
2.954900 0.930000
2.999000 0.967500
3.043100 1.005000
3.087300 1.042500
3.131400 1.080000
3.175600 0.835100
3.219700 0.847400
3.263800 0.859600
3.308000 0.871900
3.352100 0.884100
3.396300 0.896400
3.440400 0.908600
3.484600 0.920900
3.528700 0.685300
3.572800 0.678100
3.617000 0.670900
3.661100 0.663700
3.705300 0.656500
3.749400 0.649300
3.793500 0.642100
3.837700 0.634900
3.881800 0.627700
3.926000 0.621900
3.970100 0.622600
4.014200 0.626500
4.058400 0.633300
4.102500 0.642500
4.146700 0.653900
4.190800 0.667400
4.235000 0.685200
4.279100 0.703200
4.323200 0.721100
4.367400 0.739100
4.411500 0.757100
4.455700 0.775100
4.499800 0.793000
4.543900 0.811000
4.588100 0.778300
4.632200 0.760300
4.676400 0.836500
4.720500 0.832700
4.764600 0.828700
4.808800 0.822200
4.852900 0.809100
4.897100 0.825900
4.941200 0.837800
4.985400 0.850600
5.029500 0.864400
5.073600 0.878900
5.117800 0.894300
5.161900 0.910500
5.206100 0.927600
5.250200 0.945500
5.294300 0.947300
5.338500 0.951000
5.382600 0.957300
5.426800 0.965800
5.470900 0.976200
5.515000 0.987600
5.559200 0.998500
5.603300 1.008800
5.647500 1.018600
5.691600 1.027800
5.735800 1.036400
5.779900 1.044200
5.824000 1.051200
5.868200 1.056300
5.912300 1.050700
5.956500 1.038700
6.000600 1.021200
6.044700 0.994300
6.088900 0.947800
6.133000 0.924100
6.177200 0.893800
6.221300 0.860900
6.265400 0.828100
6.309600 0.795300
6.353700 0.762500
6.397900 0.729800
6.442000 0.697700
6.486200 0.667200
6.530300 0.644300
6.574400 0.629000
6.618600 0.612200
6.662700 0.597400
6.706900 0.586100
6.751000 0.578500
6.795100 0.567400
6.839300 0.552400
6.883400 0.491200
6.927600 0.388700
6.971700 0.327200
7.015800 0.289800
7.060000 0.255700
7.104100 0.257200
7.148300 0.336400
7.192400 0.385300
7.236600 0.435500
7.280700 0.488800
7.324800 0.544600
7.369000 0.601900
7.413100 0.659300
7.457300 0.716800
7.501400 0.774700
7.545500 0.833700
7.589700 0.895400
7.633800 0.955200
7.678000 1.013600
7.722100 1.070600
7.766200 1.126500
7.810400 1.182300
7.854500 1.238000
7.898700 1.297200
7.942800 1.368000
7.987000 1.459100
8.031100 1.559800
8.075200 1.618400
8.119400 1.629100
8.163500 1.921600
8.207700 1.651400
8.251800 1.864400
8.295900 1.895800
8.340100 1.923400
8.384200 1.964000
8.428400 2.017700
8.472500 1.860900
8.516600 1.844600
8.560800 1.892600
8.604900 1.923600
8.649100 1.975300
8.693200 2.027800
8.737400 2.077400
8.781500 2.126200
8.825600 2.188600
8.869800 2.238400
8.913900 2.280800
8.958100 2.323100
9.002200 2.359200
9.046300 2.848900
9.090500 4.431400
9.134600 3.693500
9.178800 2.747600
9.222900 1.901200
9.267000 1.673400
9.311200 1.716900
9.355300 1.761600
9.399500 1.807500
9.443600 1.854800
9.487800 1.904600
9.531900 1.957200
9.576000 2.011700
9.620200 2.069000
9.664300 2.127100
9.708500 2.179500
9.752600 2.230000
9.796700 2.292700
9.840900 2.354200
9.885000 2.418500
9.929200 2.488200
9.973300 2.553800
10.017400 2.614300
10.061600 2.663700
10.105700 2.703500
10.149900 2.737800
10.194000 2.767600
10.238200 2.965000
10.282300 3.496600
10.326400 3.908000
10.370600 3.697200
10.414700 2.961500
10.458900 3.078300
10.503000 3.180300
10.547100 3.267500
10.591300 2.305100
10.635400 2.074600
10.679600 1.983600
10.723700 2.263400
10.767800 2.193700
10.812000 2.152500
10.856100 2.116400
10.900300 2.086800
10.944400 2.068900
10.988600 2.049200
11.032700 2.960700
11.076800 2.905000
11.121000 2.846400
11.165100 2.785300
11.209300 2.723900
11.253400 2.662700
11.297500 2.600300
11.341700 2.710000
11.385800 2.898400
11.430000 2.437500
11.474100 2.241300
11.518200 3.761100
11.562400 1.953800
11.606500 1.928000
11.650700 1.925100
11.694800 1.945100
11.739000 2.078900
11.783100 2.160300
11.827200 2.183500
11.871400 2.146900
11.915500 2.076600
11.959700 2.002900
12.003800 1.926300
12.047900 1.799300
12.092100 1.663900
12.136200 1.557300
12.180400 1.489300
12.224500 1.462500
12.268600 1.471100
12.312800 1.488400
12.356900 1.611100
12.401100 1.649500
12.445200 1.482100
12.489400 1.294800
12.533500 1.181300
12.577600 1.111300
12.621800 1.094700
12.665900 1.104700
12.710100 1.114700
12.754200 1.124600
12.798300 1.145000
12.842500 1.192500
12.886600 1.270900
12.930800 1.394100
12.974900 1.562500
13.019000 1.733400
13.063200 1.924200
13.107300 2.102800
13.151500 2.225000
13.195600 2.306800
13.239800 2.370000
13.283900 2.414700
13.328000 2.433000
13.372200 2.442900
13.416300 2.492200
13.460500 2.544700
13.504600 3.630100
13.548700 2.440200
13.592900 2.213900
13.637000 2.732200
13.681200 2.084100
13.725300 1.842100
13.769400 1.892100
13.813600 1.970800
13.857700 2.052200
13.901900 2.134400
13.946000 2.215400
13.990200 2.269700
14.034300 2.365800
14.078400 2.483100
14.122600 2.520500
14.166700 3.059100
14.210900 2.625900
14.255000 2.771800
14.299100 5.361600
14.343300 3.920600
14.387400 2.886900
14.431600 2.436900
14.475700 2.439600
14.519900 2.442100
14.564000 2.477600
14.608100 2.528200
14.652300 2.578800
14.696400 2.628900
14.740600 2.676700
14.784700 2.735200
14.828800 2.691700
14.873000 2.087800
14.917100 2.085300
14.961300 2.086100
15.005400 2.084400
15.049500 2.076900
15.093700 2.059600
15.137800 2.013800
15.182000 1.901100
15.226100 1.802100
15.270300 1.711800
15.314400 1.660300
15.358500 1.665800
15.402700 1.878500
15.446800 2.232000
15.491000 2.769400
15.535100 3.171700
15.579200 3.900300
15.623400 4.129100
15.667500 3.337900
15.711700 3.316500
15.755800 2.686400
15.799900 1.978300
15.844100 1.308800
15.888200 0.916800
15.932400 0.717200
15.976500 0.579600
16.020700 0.477800
16.064800 0.409900
16.108900 0.392000
16.153100 0.540500
16.197200 0.788300
16.241400 1.037700
16.285500 1.289900
16.329600 1.467700
16.373800 1.617600
16.417900 1.772800
16.462100 1.893200
16.506200 1.938000
16.550300 1.972400
16.594500 1.997400
16.638600 2.118200
16.682800 2.143400
16.726900 2.005500
16.771100 1.986700
16.815200 2.012600
16.859300 1.987100
16.903500 1.915200
16.947600 1.815700
16.991800 1.696200
17.035900 1.824700
17.080000 1.478000
17.124200 1.496800
17.168300 1.474700
17.212500 1.429200
17.256600 1.463900
17.300700 1.507000
17.344900 1.595300
17.389000 1.746300
17.433200 1.852200
17.477300 1.905300
17.521500 1.886700
17.565600 1.786300
17.609700 1.752700
17.653900 1.755000
17.698000 1.754700
17.742200 1.752400
17.786300 1.769300
17.830400 1.754100
17.874600 1.816100
17.918700 1.868500
17.962900 1.907600
18.007000 2.039300
18.051100 2.622300
18.095300 2.003500
18.139400 1.612400
18.183600 1.519400
18.227700 1.457100
18.271900 1.426400
18.316000 1.409300
18.360100 1.370700
18.404300 1.403400
18.448400 1.521400
18.492600 1.676200
18.536700 1.838400
18.580800 2.022300
18.625000 2.375400
18.669100 2.937200
18.713300 4.475100
18.757400 3.048200
18.801500 2.637100
18.845700 2.197100
18.889800 2.030700
18.934000 1.889100
18.978100 1.764800
19.022300 1.716100
19.066400 1.698500
19.110500 1.702800
19.154700 1.725200
19.198800 1.760000
19.243000 1.817800
19.287100 1.898800
19.331200 2.001200
19.375400 2.117500
19.419500 2.241500
19.463700 2.510800
19.507800 3.053900
19.551900 3.044400
19.596100 3.148000
19.640200 3.274300
19.684400 3.368700
19.728500 3.556500
19.772700 3.177500
19.816800 2.089700
19.860900 2.031100
19.905100 2.175200
19.949200 2.083200
19.993400 1.862300
20.037500 1.848100
20.081600 1.858900
20.125800 1.868100
20.169900 1.902100
20.214100 1.839600
20.258200 1.772000
20.302300 1.710200
20.346500 1.675800
20.390600 1.693300
20.434800 1.726200
20.478900 1.768900
20.523100 1.818900
20.567200 1.863100
20.611300 1.892000
20.655500 1.931100
20.699600 1.979700
20.743800 2.043000
20.787900 2.094800
20.832000 2.108100
20.876200 2.068400
20.920300 1.985400
20.964500 1.972100
21.008600 2.223600
21.052700 2.268300
21.096900 2.164300
21.141000 1.911700
21.185200 1.759800
21.229300 2.241200
21.273500 1.816400
21.317600 1.529800
21.361700 1.458700
21.405900 1.403800
21.450000 1.368200
21.494200 1.393100
21.538300 1.477200
21.582400 1.523300
21.626600 1.579800
21.670700 1.643600
21.714900 1.732700
21.759000 1.896400
21.803100 2.493400
21.847300 3.366800
21.891400 3.599800
21.935600 2.826500
21.979700 2.521200
22.023900 2.439100
22.068000 2.490100
22.112100 2.607400
22.156300 2.725500
22.200400 2.835800
22.244600 2.899900
22.288700 2.887100
22.332800 2.781900
22.377000 2.803200
22.421100 2.872900
22.465300 2.917000
22.509400 2.509000
22.553500 2.375000
22.597700 2.355000
22.641800 2.339400
22.686000 2.355400
22.730100 2.485000
22.774300 2.729500
22.818400 3.053000
22.862500 3.595800
22.906700 2.988300
22.950800 3.092000
22.995000 3.122000
23.039100 3.026900
23.083200 2.930600
23.127400 3.246100
23.171500 3.623300
23.215700 9.872500
23.259800 3.125200
23.303900 3.118900
23.348100 3.295000
23.392200 2.344100
23.436400 2.359400
23.480500 2.415700
23.524700 2.509800
23.568800 2.581800
23.612900 2.664600
23.657100 2.765300
23.701200 2.995000
23.745400 3.298100
23.789500 3.552600
23.833600 3.724700
23.877800 3.786700
23.921900 3.740500
23.966100 3.646200
24.010200 3.524300
24.054300 3.543900
24.098500 3.205200
24.142600 3.066200
24.186800 3.043200
24.230900 3.025800
24.275100 2.955100
24.319200 2.904400
24.363300 2.906300
24.407500 2.980800
24.451600 3.177100
24.495800 3.085900
24.539900 2.952600
24.584000 3.135300
24.628200 3.327300
24.672300 3.404800
24.716500 3.160600
24.760600 2.637700
24.804700 2.562000
24.848900 2.772500
24.893000 3.308200
24.937200 2.704100
24.981300 2.673900
25.025500 2.609600
25.069600 2.542200
25.113700 2.495700
25.157900 2.456100
25.202000 2.423900
25.246200 2.407500
25.290300 2.400200
25.334400 2.392400
25.378600 2.381900
25.422700 2.367600
25.466900 2.316100
25.511000 2.248600
25.555100 2.197000
25.599300 2.143900
25.643400 2.093900
25.687600 2.053100
25.731700 1.990900
25.775900 1.946800
25.820000 1.920200
25.864100 1.889900
25.908300 1.861600
25.952400 1.836200
25.996600 1.811000
26.040700 2.558700
26.084800 3.185400
26.129000 2.733000
26.173100 2.390000
26.217300 2.184900
26.261400 2.060000
26.305500 1.985700
26.349700 1.954400
26.393800 1.952600
26.438000 1.953200
26.482100 1.953100
26.526300 1.954900
26.570400 1.957200
26.614500 1.959800
26.658700 1.962800
26.702800 1.966300
26.747000 1.970500
26.791100 1.976300
26.835200 1.984400
26.879400 1.993100
26.923500 2.000400
26.967700 2.006800
27.011800 1.989200
27.055900 1.994400
27.100100 2.014300
27.144200 2.083600
27.188400 2.194000
27.232500 2.345500
27.276700 2.428900
27.320800 2.388100
27.364900 2.337100
27.409100 2.332900
27.453200 2.327700
27.497400 2.330900
27.541500 2.336600
27.585600 2.345100
27.629800 2.356600
27.673900 2.381700
27.718100 2.409900
27.762200 2.419100
27.806300 2.402300
27.850500 2.420400
27.894600 2.434700
27.938800 2.452700
27.982900 2.465800
28.027100 2.498500
28.071200 2.564500
28.115300 2.640300
28.159500 2.701700
28.203600 2.752400
28.247800 2.833000
28.291900 2.757100
28.336000 2.778800
28.380200 2.784900
28.424300 2.776400
28.468500 2.763100
28.512600 2.746200
28.556700 2.727300
28.600900 2.696400
28.645000 2.675400
28.689200 2.682100
28.733300 2.695500
28.777500 2.712900
28.821600 2.734000
28.865700 2.656300
28.909900 2.589900
28.954000 2.527000
28.998200 2.425100
29.042300 2.434300
29.086400 2.462600
29.130600 2.483400
29.174700 2.506000
29.218900 2.528400
29.263000 2.554300
29.307100 2.573900
29.351300 2.574600
29.395400 2.540400
29.439600 2.549500
29.483700 2.565300
29.527900 2.583000
29.572000 2.589600
29.616100 2.594600
29.660300 2.608100
29.704400 2.620100
29.748600 2.627100
29.792700 2.628400
29.836800 2.586200
29.881000 2.572800
29.925100 2.547400
29.969300 2.526800
30.013400 2.515400
30.057500 2.515000
30.101700 2.570000
30.145800 2.695800
30.190000 2.591100
30.234100 2.624300
30.278300 2.478600
30.322400 2.357400
30.366500 2.306500
30.410700 2.265400
30.454800 2.233600
30.499000 2.212100
30.543100 2.201900
30.587200 2.249300
30.631400 2.349600
30.675500 2.488900
30.719700 2.680600
30.763800 2.739300
30.807900 2.668700
30.852100 2.654900
30.896200 2.619200
30.940400 2.511100
30.984500 2.376300
31.028700 2.268500
31.072800 2.342600
31.116900 2.027200
31.161100 2.013300
31.205200 2.040100
31.249400 2.182700
31.293500 2.468700
31.337600 2.623900
31.381800 2.676300
31.425900 2.634100
31.470100 2.377100
31.514200 2.383600
31.558300 2.386700
31.602500 2.380800
31.646600 2.349700
31.690800 2.324000
31.734900 2.311000
31.779100 2.298300
31.823200 2.287300
31.867300 2.285300
31.911500 2.292500
31.955600 2.309000
31.999800 2.338000
32.043900 2.344800
32.088000 2.357900
32.132200 2.424600
32.176300 2.422900
32.220500 2.429900
32.264600 2.442400
32.308700 2.461700
32.352900 2.595800
32.397000 2.612200
32.441200 2.634800
32.485300 2.655400
32.529500 2.584300
32.573600 2.531200
32.617700 2.499100
32.661900 2.481500
32.706000 2.462900
32.750200 2.503900
32.794300 2.704700
32.838400 2.613500
32.882600 2.518600
32.926700 2.435700
32.970900 2.361600
33.015000 2.269600
33.059100 2.153500
33.103300 2.024400
33.147400 1.928800
33.191600 1.842900
33.235700 1.760500
33.279900 1.683700
33.324000 1.622700
33.368100 1.543700
33.412300 1.485500
33.456400 1.473300
33.500600 1.447200
33.544700 1.410600
33.588800 1.382700
33.633000 1.367600
33.677100 1.370800
33.721300 1.378100
33.765400 1.391600
33.809500 1.413800
33.853700 1.444800
33.897800 1.490800
33.942000 1.545900
33.986100 1.607200
34.030300 1.654200
34.074400 1.729400
34.118500 1.821500
34.162700 1.929200
34.206800 2.046300
34.251000 2.150300
34.295100 2.241400
34.339200 2.326700
34.383400 2.413400
34.427500 2.493400
34.471700 2.560500
34.515800 2.642800
34.559900 2.724000
34.604100 2.777100
34.648200 2.840000
34.692400 2.946500
34.736500 2.971500
34.780700 2.841000
34.824800 2.753100
34.868900 2.627100
34.913100 2.500300
34.957200 2.473400
35.001400 2.385400
35.045500 2.358000
35.089600 2.353000
35.133800 2.351500
35.177900 2.390100
35.222100 2.448000
35.266200 2.525900
35.310300 2.630600
35.354500 2.753400
35.398600 3.676200
35.442800 3.460700
35.486900 3.348300
35.531100 3.321600
35.575200 3.597600
35.619300 4.140500
35.663500 3.717600
35.707600 2.493700
35.751800 2.256700
35.795900 2.112600
35.840000 2.008500
35.884200 1.937200
35.928300 1.891400
35.972500 1.851400
36.016600 1.901900
36.060700 1.986200
36.104900 2.152700
36.149000 2.371700
36.193200 2.572200
36.237300 2.574300
36.281500 2.488300
36.325600 2.411500
36.369700 2.837400
36.413900 2.152200
36.458000 2.146300
36.502200 2.189500
36.546300 2.214600
36.590400 2.202300
36.634600 2.176300
36.678700 2.252800
36.722900 2.282200
36.767000 2.283300
36.811100 2.285300
36.855300 2.264100
36.899400 2.253700
36.943600 2.390000
36.987700 2.423800
37.031900 2.477300
37.076000 2.562200
37.120100 2.698100
37.164300 2.744200
37.208400 2.710900
37.252600 2.726800
37.296700 2.744300
37.340800 2.663500
37.385000 2.585100
37.429100 2.519000
37.473300 2.472700
37.517400 2.406500
37.561500 2.368800
37.605700 2.373400
37.649800 2.409200
37.694000 2.540300
37.738100 2.643300
37.782300 2.723700
37.826400 2.778200
37.870500 2.807400
37.914700 2.874200
37.958800 2.947200
38.003000 3.029700
38.047100 3.101300
38.091200 2.939100
38.135400 2.986100
38.179500 3.035000
38.223700 3.095900
38.267800 3.114900
38.311900 3.208200
38.356100 3.296500
38.400200 3.387300
38.444400 3.556400
38.488500 3.959600
38.532700 3.519300
38.576800 3.477900
38.620900 3.366700
38.665100 3.215500
38.709200 2.893800
38.753400 2.698000
38.797500 2.822600
38.841600 3.261300
38.885800 3.061900
38.929900 2.884500
38.974100 2.716300
39.018200 2.556600
39.062300 2.391700
39.106500 2.267100
39.150600 2.174800
39.194800 2.111900
39.238900 2.059700
39.283100 2.008800
39.327200 1.960000
39.371300 1.834200
39.415500 1.757400
39.459600 1.853000
39.503800 2.010800
39.547900 2.222900
39.592000 2.409200
39.636200 2.525300
39.680300 2.840500
39.724500 2.938300
39.768600 2.873100
39.812700 2.730500
39.856900 2.520200
39.901000 2.305200
39.945200 2.114300
39.989300 1.926800
40.033500 1.775900
40.077600 1.745900
40.121700 1.836500
40.165900 2.024100
40.210000 2.275100
40.254200 2.585500
40.298300 2.946700
40.342400 3.699700
40.386600 4.328700
40.430700 3.967100
40.474900 3.316400
40.519000 3.078400
40.563100 2.882000
40.607300 2.721800
40.651400 2.723700
40.695600 2.195500
40.739700 2.075300
40.783900 2.112500
40.828000 2.474000
40.872100 2.564100
40.916300 2.335700
40.960400 2.444400
41.004600 2.489000
41.048700 2.527700
41.092800 2.560500
41.137000 2.607700
41.181100 2.679600
41.225300 2.780800
41.269400 2.987100
41.313500 3.232200
41.357700 3.332100
41.401800 3.240900
41.446000 3.162900
41.490100 3.147100
41.534300 3.110600
41.578400 3.067400
41.622500 3.028400
41.666700 3.004600
41.710800 3.030600
41.755000 3.097600
41.799100 3.142200
41.843200 3.218900
41.887400 3.291300
41.931500 3.394800
41.975700 3.499000
42.019800 3.597200
42.063900 3.694900
42.108100 3.537100
42.152200 3.621300
42.196400 3.728500
42.240500 3.626800
42.284700 3.387500
42.328800 3.082400
42.372900 2.860200
42.417100 2.926100
42.461200 3.107300
42.505400 3.528500
42.549500 3.838200
42.593600 3.892700
42.637800 3.837600
42.681900 3.777000
42.726100 4.178700
42.770200 3.500800
42.814300 3.538200
42.858500 3.469100
42.902600 3.330000
42.946800 3.193300
42.990900 3.089300
43.035100 3.095600
43.079200 3.208900
43.123300 3.251100
43.167500 3.173400
43.211600 3.066200
43.255800 3.261100
43.299900 3.208800
43.344000 2.972600
43.388200 2.762400
43.432300 2.866300
43.476500 3.010300
43.520600 3.089400
43.564700 3.195700
43.608900 3.336500
43.653000 3.436600
43.697200 3.514300
43.741300 3.533000
43.785500 3.539500
43.829600 3.546000
43.873700 3.509200
43.917900 3.492200
43.962000 3.491700
44.006200 3.487900
44.050300 3.491500
44.094400 3.515200
44.138600 3.506600
44.182700 3.467400
44.226900 3.410500
44.271000 3.342700
44.315100 3.208500
44.359300 3.102900
44.403400 3.117300
44.447600 3.138700
44.491700 3.126300
44.535900 3.135100
44.580000 3.158600
44.624100 3.274500
44.668300 3.418100
44.712400 3.086900
44.756600 3.125200
44.800700 2.962100
44.844800 2.978700
44.889000 2.998700
44.933100 3.039800
44.977300 3.220300
45.021400 3.284100
45.065500 3.065500
45.109700 2.906400
45.153800 2.833900
45.198000 2.839400
45.242100 2.831300
45.286300 2.983200
45.330400 3.230900
45.374500 2.744800
45.418700 2.589800
45.462800 2.594800
45.507000 2.629200
45.551100 2.732900
45.595200 2.837900
45.639400 2.920500
45.683500 2.981300
45.727700 3.022400
45.771800 3.030600
45.815900 2.979800
45.860100 2.950000
45.904200 2.927700
45.948400 2.929800
45.992500 2.933600
46.036700 2.885500
46.080800 2.837100
46.124900 2.809400
46.169100 2.788700
46.213200 2.812400
46.257400 2.890600
46.301500 3.046300
46.345600 3.158100
46.389800 3.371200
46.433900 4.176800
46.478100 3.813600
46.522200 3.612500
46.566300 3.509800
46.610500 3.429600
46.654600 3.401700
46.698800 3.425500
46.742900 3.529200
46.787100 3.603900
46.831200 3.639200
46.875300 3.641300
46.919500 3.608500
46.963600 3.533300
47.007800 3.421600
47.051900 3.259700
47.096000 3.224800
47.140200 3.317100
47.184300 3.413300
47.228500 3.532600
47.272600 3.628600
47.316700 3.364300
47.360900 3.346800
47.405000 3.375200
47.449200 3.455000
47.493300 3.571800
47.537500 3.582800
47.581600 3.574900
47.625700 3.555900
47.669900 3.548800
47.714000 3.542900
47.758200 3.534700
47.802300 3.558800
47.846400 3.755300
47.890600 3.493900
47.934700 3.315100
47.978900 3.421700
48.023000 3.807900
48.067100 3.486000
48.111300 3.430600
48.155400 3.390800
48.199600 3.376100
48.243700 3.460800
48.287900 3.591700
48.332000 3.769200
48.376100 3.829900
48.420300 3.556600
48.464400 3.394900
48.508600 3.340800
48.552700 3.450100
48.596800 3.591500
48.641000 3.652000
48.685100 3.677800
48.729300 3.685300
48.773400 3.691800
48.817500 3.605100
48.861700 3.615600
48.905800 3.677100
48.950000 3.732700
48.994100 3.806100
49.038300 3.603000
49.082400 3.431300
49.126500 3.261800
49.170700 3.203600
49.214800 3.252700
49.259000 3.539200
49.303100 3.724600
49.347200 3.817300
49.391400 3.871900
49.435500 3.884600
49.479700 3.882900
49.523800 3.827500
49.567900 3.597300
49.612100 3.441500
49.656200 3.329100
49.700400 3.380200
49.744500 3.611900
49.788700 3.490100
49.832800 3.360500
49.876900 3.323200
49.921100 3.273300
49.965200 3.243400
50.009400 3.233300
50.053500 3.232400
50.097600 3.235500
50.141800 3.254400
50.185900 3.290100
50.230100 3.269000
50.274200 3.194000
50.318300 3.113400
50.362500 3.045800
50.406600 2.963300
50.450800 2.863300
50.494900 2.739800
50.539100 2.645900
50.583200 2.612100
50.627300 2.670100
50.671500 2.741200
50.715600 2.627100
50.759800 2.548700
50.803900 2.563600
50.848000 2.576800
50.892200 2.625800
50.936300 2.647500
50.980500 2.624600
51.024600 2.561500
51.068700 3.184400
51.112900 3.110200
51.157000 3.635400
51.201200 3.235100
51.245300 2.969900
51.289500 2.795700
51.333600 2.693300
51.377700 2.673600
51.421900 2.704500
51.466000 2.694400
51.510200 2.653200
51.554300 2.618900
51.598400 2.587900
51.642600 2.905500
51.686700 2.683500
51.730900 2.832500
51.775000 2.471100
51.819100 2.529800
51.863300 2.579200
51.907400 2.619500
51.951600 2.658400
51.995700 2.677700
52.039900 2.935200
52.084000 2.822400
52.128100 2.643000
52.172300 2.570100
52.216400 2.513000
52.260600 2.472400
52.304700 2.448900
52.348800 2.440800
52.393000 2.442400
52.437100 2.461300
52.481300 2.488600
52.525400 2.507100
52.569600 2.514700
52.613700 2.511500
52.657800 2.493600
52.702000 2.458000
52.746100 2.401300
52.790300 2.402300
52.834400 2.496800
52.878500 2.683200
52.922700 2.644800
52.966800 2.717300
53.011000 2.739000
53.055100 2.769800
53.099200 2.777900
53.143400 2.752800
53.187500 2.779700
53.231700 2.809600
53.275800 2.839800
53.320000 2.888700
53.364100 2.919400
53.408200 2.911400
53.452400 2.864900
53.496500 2.782000
53.540700 2.699100
53.584800 2.707000
53.628900 2.754000
53.673100 2.861700
53.717200 2.951200
53.761400 3.025500
53.805500 3.065700
53.849600 3.078500
53.893800 3.054700
53.937900 3.006500
53.982100 2.951500
54.026200 2.914300
54.070400 2.808200
54.114500 2.771200
54.158600 2.766500
54.202800 2.835300
54.246900 3.034100
54.291100 3.247500
54.335200 3.378400
54.379300 3.450800
54.423500 3.460200
54.467600 3.506400
54.511800 3.555300
54.555900 3.594500
54.600000 3.620900
54.644200 3.637900
54.688300 3.704800
54.732500 3.777600
54.776600 3.804400
54.820800 3.743700
54.864900 3.756700
54.909000 3.734600
54.953200 3.618300
54.997300 3.493800
55.041500 3.364200
55.085600 3.291600
55.129700 3.293800
55.173900 3.334700
55.218000 3.312300
55.262200 3.302200
55.306300 3.286900
55.350400 3.255500
55.394600 3.214200
55.438700 3.227400
55.482900 3.258600
55.527000 3.301000
55.571200 3.346200
55.615300 3.377200
55.659400 3.399800
55.703600 3.480500
55.747700 3.585900
55.791900 3.494600
55.836000 3.484900
55.880100 3.490600
55.924300 3.475500
55.968400 3.423100
56.012600 3.160100
56.056700 3.038700
56.100800 2.963600
56.145000 2.923100
56.189100 2.902300
56.233300 2.882000
56.277400 2.866400
56.321600 2.874500
56.365700 2.868400
56.409800 3.365600
56.454000 3.388000
56.498100 3.387900
56.542300 3.370100
56.586400 3.342800
56.630500 3.307200
56.674700 3.223500
56.718800 3.166000
56.763000 3.084200
56.807100 2.979800
56.851200 2.952200
56.895400 2.949900
56.939500 2.890700
56.983700 2.853900
57.027800 2.838800
57.072000 2.849800
57.116100 3.143100
57.160200 3.133300
57.204400 3.157800
57.248500 3.204000
57.292700 3.259000
57.336800 3.308800
57.380900 3.534200
57.425100 3.861700
57.469200 3.694300
57.513400 3.569000
57.557500 3.413000
57.601600 3.323800
57.645800 3.229600
57.689900 3.165900
57.734100 3.285000
57.778200 3.134000
57.822400 2.948900
57.866500 2.831000
57.910600 2.738100
57.954800 2.648400
57.998900 2.570900
58.043100 2.532700
58.087200 2.567900
58.131300 2.660100
58.175500 2.714800
58.219600 2.725000
58.263800 2.696200
58.307900 2.656500
58.352000 2.938400
58.396200 3.058400
58.440300 3.088900
58.484500 3.064500
58.528600 2.963100
58.572800 2.909700
58.616900 2.869400
58.661000 2.818800
58.705200 3.481800
58.749300 3.012100
58.793500 3.071600
58.837600 3.124300
58.881700 3.122100
58.925900 3.067800
58.970000 2.995900
59.014200 2.937200
59.058300 2.825900
59.102400 2.737300
59.146600 2.660600
59.190700 2.505900
59.234900 2.421100
59.279000 2.452400
59.323200 2.903300
59.367300 2.917300
59.411400 3.104600
59.455600 3.359500
59.499700 3.507200
59.543900 3.487100
59.588000 3.469700
59.632100 3.348700
59.676300 3.330800
59.720400 2.594100
59.764600 1.923000
59.808700 1.777900
59.852800 1.812500
59.897000 1.854500
59.941100 1.933900
59.985300 2.147900
60.029400 2.298800
60.073600 2.388700
60.117700 2.423900
60.161800 2.416900
60.206000 2.388400
60.250100 2.230800
60.294300 1.942300
60.338400 1.992200
60.382500 2.075600
60.426700 2.085200
60.470800 2.228000
60.515000 1.929500
60.559100 1.938500
60.603200 1.963300
60.647400 2.032500
60.691500 2.162600
60.735700 2.397300
60.779800 2.442300
60.824000 2.749700
60.868100 2.149700
60.912200 1.858300
60.956400 1.489500
61.000500 0.885700
61.044700 0.649100
61.088800 0.476700
61.132900 0.362000
61.177100 0.274000
61.221200 0.200000
61.265400 0.139400
61.309500 0.089900
61.353600 0.050500
61.397800 0.021900
61.441900 0.006500
61.486100 0.001000
61.530200 0.000000
61.574400 0.000000
61.618500 0.000000
61.662600 0.000000
61.706800 0.000000
61.750900 0.000000
61.795100 0.000000
61.839200 0.000000
61.883300 0.000000
61.927500 0.000000
61.971600 0.000000
62.015800 0.000000
62.059900 0.000000
62.104000 0.000000
62.148200 0.000000
62.192300 0.000000
62.236500 0.000000
62.280600 0.000000
62.324800 0.000000
62.368900 0.000000
62.413000 0.000000
62.457200 0.000000
62.501300 0.000000
62.545500 0.000000
62.589600 0.000000
62.633700 0.000000
62.677900 0.000000
62.722000 0.000000
62.766200 0.000000
62.810300 0.000000
62.854400 0.000000
62.898600 0.000000
62.942700 0.000000
62.986900 0.000000
63.031000 0.000000
63.075200 0.000000
63.119300 0.000000
63.163400 0.000000
63.207600 0.000000
63.251700 0.000000
63.295900 0.000000
63.340000 0.000000
63.384100 0.000000
63.428300 0.000000
63.472400 0.000000
63.516600 0.000000
63.560700 0.000000
63.604800 0.000000
63.649000 0.000000
63.693100 0.000000
63.737300 0.000000
63.781400 0.000000
63.825600 0.000000
63.869700 0.000000
63.913800 0.000000
63.958000 0.000000
64.002100 0.000000
64.046300 0.000000
64.090400 0.000000
64.134500 0.000000
64.178700 0.000000
64.222800 0.000000
64.267000 0.000000
64.311100 0.000000
64.355200 0.000000
64.399400 0.000000
64.443500 0.000000
64.487700 0.000000
64.531800 0.000000
64.576000 0.000000
64.620100 0.000000
64.664200 0.000000
64.708400 0.000000
64.752500 0.000000
64.796700 0.000000
64.840800 0.000000
64.884900 0.000000
64.929100 0.000000
64.973200 0.000000
65.017400 0.000000
65.061500 0.000000
65.105600 0.000000
65.149800 0.000000
65.193900 0.000000
65.238100 0.000000
65.282200 0.000000
65.326400 0.000000
65.370500 0.000000
65.414600 0.000000
65.458800 0.000000
65.502900 0.000000
65.547100 0.000000
e
