set title 'mp-145 - Density of States'
set xlabel 'Energy (eV)'
set ylabel 'DOS (states/eV)'
set grid
set xrange [-10:10]
set yrange [0:4.995]
set xzeroaxis lt -1
set terminal png size 800,600
set output 'mp-145_dos_gnuplot.png'
plot '-' using 1:2 with lines title 'DOS'
-28.408300 0.000000
-28.361600 0.000000
-28.315000 0.000000
-28.268300 0.000000
-28.221700 0.000000
-28.175100 0.000000
-28.128400 0.000000
-28.081800 0.000000
-28.035100 0.000000
-27.988500 0.000000
-27.941800 0.000000
-27.895200 0.000000
-27.848500 0.000000
-27.801900 0.000000
-27.755200 0.000000
-27.708600 0.000000
-27.662000 0.000000
-27.615300 0.000000
-27.568700 0.000000
-27.522000 0.000000
-27.475400 0.000000
-27.428700 0.000000
-27.382100 0.000000
-27.335400 0.000000
-27.288800 0.000000
-27.242200 0.000000
-27.195500 0.000000
-27.148900 0.000000
-27.102200 0.000000
-27.055600 0.000000
-27.008900 0.000000
-26.962300 0.000000
-26.915600 0.000000
-26.869000 0.000000
-26.822300 0.000000
-26.775700 0.000000
-26.729100 0.000000
-26.682400 0.000000
-26.635800 0.000000
-26.589100 0.000000
-26.542500 0.000000
-26.495800 0.000000
-26.449200 0.000000
-26.402500 0.000000
-26.355900 0.000000
-26.309300 0.000000
-26.262600 0.000000
-26.216000 0.000000
-26.169300 0.000000
-26.122700 0.000000
-26.076000 0.000000
-26.029400 0.000000
-25.982700 0.000000
-25.936100 0.000000
-25.889400 0.000000
-25.842800 0.000000
-25.796200 0.000000
-25.749500 0.000000
-25.702900 0.000000
-25.656200 0.000000
-25.609600 0.000000
-25.562900 0.000000
-25.516300 0.000000
-25.469600 0.000000
-25.423000 0.000000
-25.376300 0.000000
-25.329700 0.000000
-25.283100 0.000000
-25.236400 0.000000
-25.189800 0.000000
-25.143100 0.000000
-25.096500 0.000000
-25.049800 0.000000
-25.003200 0.000000
-24.956500 0.000000
-24.909900 0.000000
-24.863300 0.000000
-24.816600 0.000000
-24.770000 0.000000
-24.723300 0.000000
-24.676700 0.000000
-24.630000 0.000000
-24.583400 0.000000
-24.536700 0.000000
-24.490100 0.000000
-24.443400 0.000000
-24.396800 0.000000
-24.350200 0.000000
-24.303500 0.000000
-24.256900 0.000000
-24.210200 0.000000
-24.163600 0.122400
-24.116900 3.715200
-24.070300 26.030700
-24.023600 20.470100
-23.977000 16.509500
-23.930400 16.452600
-23.883700 17.484800
-23.837100 32.093100
-23.790400 32.913000
-23.743800 48.913400
-23.697100 33.240600
-23.650500 4.402100
-23.603800 0.000000
-23.557200 0.000000
-23.510500 0.000000
-23.463900 0.000000
-23.417300 0.000000
-23.370600 0.000000
-23.324000 0.000000
-23.277300 0.000000
-23.230700 0.000000
-23.184000 0.000000
-23.137400 0.000000
-23.090700 0.000000
-23.044100 0.000000
-22.997400 0.000000
-22.950800 0.000000
-22.904200 0.000000
-22.857500 0.000000
-22.810900 0.000000
-22.764200 0.000000
-22.717600 0.000000
-22.670900 0.000000
-22.624300 0.000000
-22.577600 0.000000
-22.531000 0.000000
-22.484400 0.000000
-22.437700 0.000000
-22.391100 0.000000
-22.344400 0.000000
-22.297800 0.000000
-22.251100 0.000000
-22.204500 0.000000
-22.157800 0.000000
-22.111200 0.000000
-22.064500 0.000000
-22.017900 0.000000
-21.971300 0.000000
-21.924600 0.000000
-21.878000 0.000000
-21.831300 0.000000
-21.784700 0.000000
-21.738000 0.000000
-21.691400 0.000000
-21.644700 0.000000
-21.598100 0.000000
-21.551500 0.000000
-21.504800 0.000000
-21.458200 0.000000
-21.411500 0.000000
-21.364900 0.000000
-21.318200 0.000000
-21.271600 0.000000
-21.224900 0.000000
-21.178300 0.000000
-21.131600 0.000000
-21.085000 0.000000
-21.038400 0.000000
-20.991700 0.000000
-20.945100 0.000000
-20.898400 0.000000
-20.851800 0.000000
-20.805100 0.000000
-20.758500 0.000000
-20.711800 0.000000
-20.665200 0.000000
-20.618600 0.000000
-20.571900 0.000000
-20.525300 0.000000
-20.478600 0.000000
-20.432000 0.000000
-20.385300 0.000000
-20.338700 0.000000
-20.292000 0.000000
-20.245400 0.000000
-20.198700 0.000000
-20.152100 0.000000
-20.105500 0.000000
-20.058800 0.000000
-20.012200 0.000000
-19.965500 0.000000
-19.918900 0.000000
-19.872200 0.000000
-19.825600 0.000000
-19.778900 0.000000
-19.732300 0.000000
-19.685600 0.000000
-19.639000 0.000000
-19.592400 0.000000
-19.545700 0.000000
-19.499100 0.000000
-19.452400 0.000000
-19.405800 0.000000
-19.359100 0.000000
-19.312500 0.000000
-19.265800 0.000000
-19.219200 0.000000
-19.172600 0.000000
-19.125900 0.000000
-19.079300 0.000000
-19.032600 0.000000
-18.986000 0.000000
-18.939300 0.000000
-18.892700 0.000000
-18.846000 0.000000
-18.799400 0.000000
-18.752700 0.000000
-18.706100 0.000000
-18.659500 0.000000
-18.612800 0.000000
-18.566200 0.000000
-18.519500 0.000000
-18.472900 0.000000
-18.426200 0.000000
-18.379600 0.000000
-18.332900 0.000000
-18.286300 0.000000
-18.239700 0.000000
-18.193000 0.000000
-18.146400 0.000000
-18.099700 0.000000
-18.053100 0.000000
-18.006400 0.000000
-17.959800 0.000000
-17.913100 0.000000
-17.866500 0.000000
-17.819800 0.000000
-17.773200 0.000000
-17.726600 0.000000
-17.679900 0.000000
-17.633300 0.000000
-17.586600 0.000000
-17.540000 0.000000
-17.493300 0.000000
-17.446700 0.000000
-17.400000 0.000000
-17.353400 0.000000
-17.306700 0.000000
-17.260100 0.000000
-17.213500 0.000000
-17.166800 0.000000
-17.120200 0.000000
-17.073500 0.000000
-17.026900 0.000000
-16.980200 0.000000
-16.933600 0.000000
-16.886900 0.000000
-16.840300 0.000000
-16.793700 0.000000
-16.747000 0.000000
-16.700400 0.000000
-16.653700 0.000000
-16.607100 0.000000
-16.560400 0.000000
-16.513800 0.000000
-16.467100 0.000000
-16.420500 0.000000
-16.373800 0.000000
-16.327200 0.000000
-16.280600 0.000000
-16.233900 0.000000
-16.187300 0.000000
-16.140600 0.000000
-16.094000 0.000000
-16.047300 0.000000
-16.000700 0.000000
-15.954000 0.000000
-15.907400 0.000000
-15.860800 0.000000
-15.814100 0.000000
-15.767500 0.000000
-15.720800 0.000000
-15.674200 0.000000
-15.627500 0.000000
-15.580900 0.000000
-15.534200 0.000000
-15.487600 0.000000
-15.440900 0.000000
-15.394300 0.000000
-15.347700 0.000000
-15.301000 0.000000
-15.254400 0.000000
-15.207700 0.000000
-15.161100 0.000000
-15.114400 0.000000
-15.067800 0.000000
-15.021100 0.000000
-14.974500 0.000000
-14.927800 0.000000
-14.881200 0.000000
-14.834600 0.000000
-14.787900 0.000000
-14.741300 0.000000
-14.694600 0.000000
-14.648000 0.000000
-14.601300 0.000000
-14.554700 0.000000
-14.508000 0.000000
-14.461400 0.000000
-14.414800 0.000000
-14.368100 0.000000
-14.321500 0.000000
-14.274800 0.000000
-14.228200 0.000000
-14.181500 0.000000
-14.134900 0.000000
-14.088200 0.000000
-14.041600 0.000000
-13.994900 0.000000
-13.948300 0.000000
-13.901700 0.000000
-13.855000 0.000000
-13.808400 0.000000
-13.761700 0.000000
-13.715100 0.000000
-13.668400 0.000000
-13.621800 0.000000
-13.575100 0.000000
-13.528500 0.000000
-13.481900 0.000000
-13.435200 0.000000
-13.388600 0.000000
-13.341900 0.000000
-13.295300 0.000000
-13.248600 0.000000
-13.202000 0.000000
-13.155300 0.000000
-13.108700 0.000000
-13.062000 0.000000
-13.015400 0.000000
-12.968800 0.000000
-12.922100 0.000000
-12.875500 0.000000
-12.828800 0.000000
-12.782200 0.000000
-12.735500 0.000000
-12.688900 0.000000
-12.642200 0.000000
-12.595600 0.000000
-12.549000 0.000000
-12.502300 0.000000
-12.455700 0.000000
-12.409000 0.000000
-12.362400 0.000000
-12.315700 0.000000
-12.269100 0.000000
-12.222400 0.000000
-12.175800 0.000000
-12.129100 0.000000
-12.082500 0.000000
-12.035900 0.000000
-11.989200 0.000000
-11.942600 0.000000
-11.895900 0.000000
-11.849300 0.000000
-11.802600 0.000000
-11.756000 0.000000
-11.709300 0.000000
-11.662700 0.000000
-11.616000 0.000000
-11.569400 0.000000
-11.522800 0.000000
-11.476100 0.000000
-11.429500 0.000000
-11.382800 0.000000
-11.336200 0.000000
-11.289500 0.000000
-11.242900 0.000000
-11.196200 0.000000
-11.149600 0.000000
-11.103000 0.000000
-11.056300 0.000000
-11.009700 0.000000
-10.963000 0.000000
-10.916400 0.000000
-10.869700 0.000000
-10.823100 0.000000
-10.776400 0.000000
-10.729800 0.000000
-10.683100 0.000000
-10.636500 0.000000
-10.589900 0.000000
-10.543200 0.000000
-10.496600 0.000000
-10.449900 0.000000
-10.403300 0.000000
-10.356600 0.000000
-10.310000 0.000000
-10.263300 0.000000
-10.216700 0.000000
-10.170100 0.000000
-10.123400 0.000000
-10.076800 0.000000
-10.030100 0.000000
-9.983500 0.000000
-9.936800 0.000000
-9.890200 0.000000
-9.843500 0.000000
-9.796900 0.000000
-9.750200 0.000000
-9.703600 0.000000
-9.657000 0.000000
-9.610300 0.000000
-9.563700 0.000000
-9.517000 0.000000
-9.470400 0.000000
-9.423700 0.000000
-9.377100 0.000000
-9.330400 0.000000
-9.283800 0.000000
-9.237100 0.000000
-9.190500 0.000000
-9.143900 0.000000
-9.097200 0.000000
-9.050600 0.000000
-9.003900 0.000000
-8.957300 0.000000
-8.910600 0.000000
-8.864000 0.000000
-8.817300 0.000000
-8.770700 0.000000
-8.724100 0.000000
-8.677400 0.000000
-8.630800 0.000000
-8.584100 0.000000
-8.537500 0.000000
-8.490800 0.000000
-8.444200 0.000000
-8.397500 0.000000
-8.350900 0.000000
-8.304200 0.000000
-8.257600 0.000000
-8.211000 0.000000
-8.164300 0.000000
-8.117700 0.000000
-8.071000 0.000000
-8.024400 0.000000
-7.977700 0.000000
-7.931100 0.000000
-7.884400 0.000000
-7.837800 0.000000
-7.791200 0.000000
-7.744500 0.000000
-7.697900 0.000000
-7.651200 0.000000
-7.604600 0.000000
-7.557900 0.000000
-7.511300 0.000000
-7.464600 0.000000
-7.418000 0.000000
-7.371300 0.000000
-7.324700 0.000000
-7.278100 0.000000
-7.231400 0.000000
-7.184800 0.000000
-7.138100 0.000000
-7.091500 0.000000
-7.044800 0.000000
-6.998200 0.000000
-6.951500 0.000000
-6.904900 0.000000
-6.858300 0.000000
-6.811600 0.000000
-6.765000 0.000000
-6.718300 0.000000
-6.671700 0.000000
-6.625000 0.000000
-6.578400 0.000000
-6.531700 0.000000
-6.485100 0.000000
-6.438400 0.000000
-6.391800 0.000000
-6.345200 0.000000
-6.298500 0.000000
-6.251900 0.000000
-6.205200 0.000000
-6.158600 0.000000
-6.111900 0.000000
-6.065300 0.000000
-6.018600 0.000000
-5.972000 0.000000
-5.925300 0.000000
-5.878700 0.000000
-5.832100 0.000000
-5.785400 0.000000
-5.738800 0.000000
-5.692100 0.000000
-5.645500 0.000000
-5.598800 0.000000
-5.552200 0.000000
-5.505500 0.000000
-5.458900 0.000000
-5.412300 0.000000
-5.365600 0.000000
-5.319000 0.000000
-5.272300 0.000000
-5.225700 0.000000
-5.179000 0.000000
-5.132400 0.000000
-5.085700 0.000000
-5.039100 0.000000
-4.992400 0.000000
-4.945800 0.000000
-4.899200 0.000000
-4.852500 0.000000
-4.805900 0.000000
-4.759200 0.000000
-4.712600 0.000000
-4.665900 0.000000
-4.619300 0.000000
-4.572600 0.000000
-4.526000 0.000000
-4.479400 0.000000
-4.432700 0.000000
-4.386100 0.000000
-4.339400 0.000000
-4.292800 0.000000
-4.246100 0.000000
-4.199500 0.000000
-4.152800 0.000000
-4.106200 0.000000
-4.059500 0.000000
-4.012900 0.000000
-3.966300 0.000000
-3.919600 0.000000
-3.873000 0.000000
-3.826300 0.000000
-3.779700 0.000000
-3.733000 0.000000
-3.686400 0.000000
-3.639700 0.000000
-3.593100 0.000000
-3.546400 0.000000
-3.499800 0.000000
-3.453200 0.000000
-3.406500 0.000000
-3.359900 0.000000
-3.313200 0.000000
-3.266600 0.000000
-3.219900 0.000000
-3.173300 0.004000
-3.126600 0.028400
-3.080000 0.071900
-3.033400 0.085700
-2.986700 0.087600
-2.940100 0.102100
-2.893400 0.117300
-2.846800 0.133300
-2.800100 0.147100
-2.753500 0.154500
-2.706800 0.158800
-2.660200 0.166600
-2.613500 0.175900
-2.566900 0.185400
-2.520300 0.194900
-2.473600 0.204500
-2.427000 0.214800
-2.380300 0.225100
-2.333700 0.232200
-2.287000 0.238300
-2.240400 0.245900
-2.193700 0.253200
-2.147100 0.260500
-2.100500 0.268000
-2.053800 0.276100
-2.007200 0.284800
-1.960500 0.293800
-1.913900 0.303100
-1.867200 0.312500
-1.820600 0.333100
-1.773900 0.364200
-1.727300 0.357700
-1.680600 0.362800
-1.634000 0.368100
-1.587400 0.373400
-1.540700 0.378500
-1.494100 0.380700
-1.447400 0.381500
-1.400800 0.384200
-1.354100 0.388900
-1.307500 0.393500
-1.260800 0.398000
-1.214200 0.402500
-1.167500 0.427400
-1.120900 0.462800
-1.074300 0.460500
-1.027600 0.472600
-0.981000 0.485100
-0.934300 0.498400
-0.887700 0.512600
-0.841000 0.522300
-0.794400 0.531700
-0.747700 0.544300
-0.701100 0.557300
-0.654500 0.570300
-0.607800 0.584000
-0.561200 0.599500
-0.514500 0.615500
-0.467900 0.629900
-0.421200 0.646600
-0.374600 0.663700
-0.327900 0.681800
-0.281300 0.700900
-0.234600 0.720700
-0.188000 0.741300
-0.141400 0.763400
-0.094700 0.787300
-0.048100 0.813000
-0.001400 0.841800
0.045200 0.874500
0.091900 0.912700
0.138500 0.953900
0.185200 1.000800
0.231800 1.050800
0.278400 1.103800
0.325100 1.161300
0.371700 1.233400
0.418400 2.116400
0.465000 1.440000
0.511700 1.424100
0.558300 1.403200
0.605000 1.390100
0.651600 1.365700
0.698300 1.242900
0.744900 1.223500
0.791500 1.300700
0.838200 1.364200
0.884800 1.372100
0.931500 1.313100
0.978100 1.327000
1.024800 1.312500
1.071400 1.314600
1.118100 1.320300
1.164700 1.313800
1.211300 1.315500
1.258000 1.317900
1.304600 1.332300
1.351300 1.369100
1.397900 1.410600
1.444600 1.510000
1.491200 1.579200
1.537900 1.675800
1.584500 1.525400
1.631200 1.483300
1.677800 1.468600
1.724400 1.463700
1.771100 1.486700
1.817700 1.464000
1.864400 1.326400
1.911000 1.245900
1.957700 1.233400
2.004300 1.737800
2.051000 1.223200
2.097600 1.595800
2.144300 2.016700
2.190900 2.148600
2.237500 2.266900
2.284200 2.439700
2.330800 2.532900
2.377500 2.653700
2.424100 3.104300
2.470800 3.233200
2.517400 3.310100
2.564100 3.320200
2.610700 3.323600
2.657300 3.290700
2.704000 3.361000
2.750600 3.427100
2.797300 3.501000
2.843900 4.541300
2.890600 3.865800
2.937200 3.904600
2.983900 3.875100
3.030500 2.596600
3.077200 2.006700
3.123800 1.906200
3.170400 1.926300
3.217100 1.632500
3.263700 1.614400
3.310400 1.577700
3.357000 1.550800
3.403700 1.557000
3.450300 1.406300
3.497000 1.307700
3.543600 1.313200
3.590200 1.347300
3.636900 1.391400
3.683500 1.461100
3.730200 1.543100
3.776800 1.642500
3.823500 1.714900
3.870100 1.886300
3.916800 2.093500
3.963400 2.343600
4.010100 2.847500
4.056700 3.673000
4.103300 4.462300
4.150000 4.236200
4.196600 4.158800
4.243300 4.034800
4.289900 4.078200
4.336600 4.021800
4.383200 4.029900
4.429900 3.740700
4.476500 3.560100
4.523200 3.270400
4.569800 3.033600
4.616400 3.147800
4.663100 3.170100
4.709700 3.236000
4.756400 2.860600
4.803000 2.733200
4.849700 2.852000
4.896300 2.946400
4.943000 2.954200
4.989600 3.122100
5.036200 3.182100
5.082900 3.361600
5.129500 3.397100
5.176200 3.461500
5.222800 3.537500
5.269500 3.874500
5.316100 3.531700
5.362800 2.979600
5.409400 2.550000
5.456100 2.360900
5.502700 2.088000
5.549300 1.991100
5.596000 2.117900
5.642600 1.681300
5.689300 1.533500
5.735900 1.444800
5.782600 2.030400
5.829200 1.920700
5.875900 0.938900
5.922500 0.845800
5.969100 0.759600
6.015800 0.859000
6.062400 0.981500
6.109100 1.237600
6.155700 1.317800
6.202400 1.421500
6.249000 1.453900
6.295700 1.814400
6.342300 1.687600
6.389000 1.596800
6.435600 1.378600
6.482200 1.400500
6.528900 1.421400
6.575500 1.429500
6.622200 1.424100
6.668800 1.421600
6.715500 1.435500
6.762100 1.431100
6.808800 1.434900
6.855400 1.443800
6.902100 1.452900
6.948700 1.462300
6.995300 1.478900
7.042000 1.499000
7.088600 1.515200
7.135300 1.528300
7.181900 1.546700
7.228600 1.563500
7.275200 1.575800
7.321900 1.602100
7.368500 1.636400
7.415100 1.668400
7.461800 1.701400
7.508400 1.736900
7.555100 1.779100
7.601700 2.235900
7.648400 2.303000
7.695000 2.387800
7.741700 2.324100
7.788300 2.238300
7.835000 2.444000
7.881600 2.046800
7.928200 2.091500
7.974900 2.263800
8.021500 2.068200
8.068200 2.480700
8.114800 3.011600
8.161500 3.277800
8.208100 3.945600
8.254800 3.744400
8.301400 3.449500
8.348000 3.374600
8.394700 3.087900
8.441300 2.980700
8.488000 3.044800
8.534600 3.144800
8.581300 3.396500
8.627900 3.743300
8.674600 3.815500
8.721200 3.655900
8.767900 3.398500
8.814500 3.384200
8.861100 3.347000
8.907800 3.352400
8.954400 3.520100
9.001100 3.307100
9.047700 2.938700
9.094400 3.043700
9.141000 3.373300
9.187700 3.509200
9.234300 3.625600
9.280900 3.792600
9.327600 3.983500
9.374200 4.194700
9.420900 4.243600
9.467500 3.556300
9.514200 2.603400
9.560800 2.448300
9.607500 1.943900
9.654100 1.591100
9.700800 1.490200
9.747400 1.540700
9.794000 1.711100
9.840700 2.043900
9.887300 2.465500
9.934000 1.804300
9.980600 1.812300
10.027300 1.626000
10.073900 1.376200
10.120600 1.429400
10.167200 1.117700
10.213900 1.085200
10.260500 1.090400
10.307100 1.054900
10.353800 1.070700
10.400400 1.106500
10.447100 1.286300
10.493700 1.243200
10.540400 1.249500
10.587000 1.280100
10.633700 1.350300
10.680300 1.375500
10.726900 1.569400
10.773600 1.811400
10.820200 1.949000
10.866900 2.205400
10.913500 2.405900
10.960200 2.479200
11.006800 2.375500
11.053500 2.257700
11.100100 1.970200
11.146800 1.879400
11.193400 1.865100
11.240000 1.815400
11.286700 1.805900
11.333300 1.952900
11.380000 1.695500
11.426600 1.647800
11.473300 1.586200
11.519900 1.330900
11.566600 1.087600
11.613200 1.023100
11.659800 0.981400
11.706500 0.950600
11.753100 0.922600
11.799800 0.895500
11.846400 0.869700
11.893100 0.856500
11.939700 0.838500
11.986400 0.826300
12.033000 0.822300
12.079700 0.841600
12.126300 0.853800
12.172900 0.844000
12.219600 0.852100
12.266200 0.862500
12.312900 0.878300
12.359500 0.889100
12.406200 0.929700
12.452800 0.986400
12.499500 1.055700
12.546100 1.129500
12.592800 1.201900
12.639400 1.343200
12.686000 1.337500
12.732700 1.380900
12.779300 1.405600
12.826000 1.429900
12.872600 1.454800
12.919300 1.475600
12.965900 1.500500
13.012600 1.510600
13.059200 1.641600
13.105800 1.638700
13.152500 1.661800
13.199100 1.606700
13.245800 1.631800
13.292400 1.648600
13.339100 1.659700
13.385700 1.683000
13.432400 1.728700
13.479000 1.794800
13.525700 1.981300
13.572300 1.886400
13.618900 1.900000
13.665600 1.938600
13.712200 1.772600
13.758900 1.773300
13.805500 1.784400
13.852200 1.805900
13.898800 1.840500
13.945500 1.893500
13.992100 2.000200
14.038700 2.141700
14.085400 2.313800
14.132000 2.422600
14.178700 2.420000
14.225300 2.398000
14.272000 2.358200
14.318600 2.402400
14.365300 2.380500
14.411900 2.208100
14.458600 2.129900
14.505200 2.178900
14.551800 2.240700
14.598500 2.348300
14.645100 2.465000
14.691800 2.338100
14.738400 2.247000
14.785100 2.151300
14.831700 2.010800
14.878400 2.001200
14.925000 2.049200
14.971600 2.163000
15.018300 2.201300
15.064900 2.295100
15.111600 2.443600
15.158200 2.413000
15.204900 2.339100
15.251500 2.312500
15.298200 2.819900
15.344800 2.839200
15.391500 3.120600
15.438100 1.987300
15.484700 2.011600
15.531400 2.479600
15.578000 2.375800
15.624700 2.483300
15.671300 2.659600
15.718000 2.811100
15.764600 2.857000
15.811300 2.604200
15.857900 2.509700
15.904600 2.423700
15.951200 2.330000
15.997800 2.282400
16.044500 2.531200
16.091100 2.390300
16.137800 2.265200
16.184400 2.234700
16.231100 2.061000
16.277700 1.994000
16.324400 1.983400
16.371000 2.089900
16.417600 1.929400
16.464300 1.851600
16.510900 1.820100
16.557600 1.826800
16.604200 2.120600
16.650900 1.636000
16.697500 1.640300
16.744200 1.704000
16.790800 1.790400
16.837500 1.919500
16.884100 2.047700
16.930700 2.090800
16.977400 2.115400
17.024000 2.421100
17.070700 2.187400
17.117300 1.910600
17.164000 1.473900
17.210600 1.334100
17.257300 1.365500
17.303900 1.371200
17.350500 1.354800
17.397200 1.394600
17.443800 1.456500
17.490500 1.562100
17.537100 1.603100
17.583800 1.662800
17.630400 1.779300
17.677100 1.836800
17.723700 1.855900
17.770400 1.787800
17.817000 1.709700
17.863600 1.607800
17.910300 1.510800
17.956900 1.485400
18.003600 1.530700
18.050200 1.596100
18.096900 1.570700
18.143500 1.471100
18.190200 1.564300
18.236800 1.804600
18.283500 1.976100
18.330100 2.087500
18.376700 1.984800
18.423400 1.916700
18.470000 1.759500
18.516700 1.560100
18.563300 1.443700
18.610000 1.344000
18.656600 1.267400
18.703300 1.196700
18.749900 1.094500
18.796500 1.046800
18.843200 1.031600
18.889800 1.024100
18.936500 1.030800
18.983100 1.041900
19.029800 1.063000
19.076400 1.085400
19.123100 1.121500
19.169700 1.165500
19.216400 1.206300
19.263000 1.225200
19.309600 1.289000
19.356300 1.272500
19.402900 1.283000
19.449600 1.211500
19.496200 1.145600
19.542900 1.149000
19.589500 1.226900
19.636200 1.319800
19.682800 1.406500
19.729400 1.514500
19.776100 1.635900
19.822700 1.699200
19.869400 1.681800
19.916000 1.663100
19.962700 1.599800
20.009300 1.821400
20.056000 1.846400
20.102600 1.858700
20.149300 1.814500
20.195900 1.805400
20.242500 1.832100
20.289200 1.858900
20.335800 1.889800
20.382500 1.859000
20.429100 1.835800
20.475800 2.032900
20.522400 1.878500
20.569100 1.874900
20.615700 1.867500
20.662400 1.786300
20.709000 1.733600
20.755600 2.043700
20.802300 2.059000
20.848900 1.974700
20.895600 1.915900
20.942200 1.790700
20.988900 1.631300
21.035500 1.557500
21.082200 1.578000
21.128800 1.594200
21.175400 1.604900
21.222100 1.613000
21.268700 1.653700
21.315400 1.699700
21.362000 1.955700
21.408700 1.987600
21.455300 2.165800
21.502000 2.215700
21.548600 2.198000
21.595300 2.073500
21.641900 1.977900
21.688500 1.899300
21.735200 1.818000
21.781800 1.839800
21.828500 1.855600
21.875100 1.920600
21.921800 2.080900
21.968400 2.280900
22.015100 2.515100
22.061700 2.791900
22.108300 2.962900
22.155000 3.156900
22.201600 3.435100
22.248300 3.070700
22.294900 2.907500
22.341600 2.861400
22.388200 2.445200
22.434900 2.226800
22.481500 2.241100
22.528200 2.513100
22.574800 2.331200
22.621400 2.183300
22.668100 2.269200
22.714700 2.531200
22.761400 2.526300
22.808000 2.475700
22.854700 2.555900
22.901300 2.609200
22.948000 2.655600
22.994600 2.559900
23.041200 2.513400
23.087900 2.456600
23.134500 2.419800
23.181200 2.282200
23.227800 2.243300
23.274500 2.478000
23.321100 2.325000
23.367800 2.306000
23.414400 2.306100
23.461100 2.304200
23.507700 2.285600
23.554300 2.317500
23.601000 2.289600
23.647600 3.149500
23.694300 2.377900
23.740900 2.146200
23.787600 2.194200
23.834200 2.327300
23.880900 2.368100
23.927500 2.261300
23.974200 2.215800
24.020800 2.183600
24.067400 2.144500
24.114100 2.181400
24.160700 2.192100
24.207400 2.144100
24.254000 2.041000
24.300700 1.975400
24.347300 1.941600
24.394000 1.971400
24.440600 1.985400
24.487200 1.984400
24.533900 1.795700
24.580500 1.634700
24.627200 1.578900
24.673800 1.554600
24.720500 1.551100
24.767100 1.608800
24.813800 1.562800
24.860400 1.556600
24.907100 1.530600
24.953700 1.580900
25.000300 1.782000
25.047000 1.730600
25.093600 1.909400
25.140300 2.675300
25.186900 2.294100
25.233600 2.094700
25.280200 2.082200
25.326900 2.109600
25.373500 2.198600
25.420100 2.207200
25.466800 2.213900
25.513400 2.223500
25.560100 2.240400
25.606700 2.310400
25.653400 2.278400
25.700000 2.516200
25.746700 2.787000
25.793300 3.062600
25.840000 2.745100
25.886600 2.451000
25.933200 2.266400
25.979900 2.284900
26.026500 2.621900
26.073200 2.587300
26.119800 2.485600
26.166500 2.329400
26.213100 2.522500
26.259800 2.140300
26.306400 1.961600
26.353100 1.844700
26.399700 1.812100
26.446300 1.840700
26.493000 1.878600
26.539600 1.990200
26.586300 2.125300
26.632900 2.186100
26.679600 2.212900
26.726200 2.263800
26.772900 2.272100
26.819500 2.359800
26.866100 2.392800
26.912800 2.524700
26.959400 2.606700
27.006100 2.561600
27.052700 2.533800
27.099400 2.509200
27.146000 2.420700
27.192700 2.312700
27.239300 2.197600
27.286000 2.061700
27.332600 2.102000
27.379200 2.155900
27.425900 2.049700
27.472500 2.261100
27.519200 2.423400
27.565800 2.655200
27.612500 3.162800
27.659100 3.874300
27.705800 3.401700
27.752400 3.214500
27.799000 3.164400
27.845700 3.249700
27.892300 3.234500
27.939000 3.227900
27.985600 3.189800
28.032300 3.113300
28.078900 3.622900
28.125600 3.078700
28.172200 2.920800
28.218900 2.905600
28.265500 2.806100
28.312100 2.712700
28.358800 2.677600
28.405400 2.437600
28.452100 2.347900
28.498700 2.140000
28.545400 2.075700
28.592000 2.052900
28.638700 2.123900
28.685300 2.159000
28.731900 2.281500
28.778600 2.498900
28.825200 2.392600
28.871900 2.428200
28.918500 2.392200
28.965200 2.341300
29.011800 2.275300
29.058500 2.244400
29.105100 2.279600
29.151800 2.363200
29.198400 2.482100
29.245000 2.601100
29.291700 2.641200
29.338300 2.743400
29.385000 2.632900
29.431600 2.583900
29.478300 2.477900
29.524900 2.462200
29.571600 2.377100
29.618200 2.445800
29.664900 2.400900
29.711500 2.286000
29.758100 2.454200
29.804800 2.782400
29.851400 3.036000
29.898100 2.438400
29.944700 2.291800
29.991400 2.140100
30.038000 2.057100
30.084700 2.088600
30.131300 1.873600
30.177900 1.819100
30.224600 1.739100
30.271200 1.396700
30.317900 1.299900
30.364500 1.614500
30.411200 1.917800
30.457800 2.007200
30.504500 2.040900
30.551100 2.103800
30.597800 2.100300
30.644400 2.142700
30.691000 2.197300
30.737700 2.311100
30.784300 2.403400
30.831000 2.423000
30.877600 2.335000
30.924300 2.319200
30.970900 2.287000
31.017600 2.395500
31.064200 2.292200
31.110800 2.417400
31.157500 2.516100
31.204100 2.833700
31.250800 3.120600
31.297400 3.235400
31.344100 3.230200
31.390700 3.284700
31.437400 2.768300
31.484000 2.440700
31.530700 2.194700
31.577300 2.099600
31.623900 2.113500
31.670600 2.192300
31.717200 2.261000
31.763900 2.214600
31.810500 2.240600
31.857200 2.115600
31.903800 2.102200
31.950500 2.168600
31.997100 2.261500
32.043800 2.313400
32.090400 2.526400
32.137000 2.339100
32.183700 2.139800
32.230300 2.081400
32.277000 2.213400
32.323600 2.275600
32.370300 2.330800
32.416900 2.346000
32.463600 2.367600
32.510200 2.307700
32.556800 2.279100
32.603500 2.329100
32.650100 2.684900
32.696800 2.506500
32.743400 2.643000
32.790100 2.804400
32.836700 2.447100
32.883400 2.640700
32.930000 2.458400
32.976700 2.475700
33.023300 2.573600
33.069900 2.585500
33.116600 2.601500
33.163200 2.541500
33.209900 2.502100
33.256500 2.571700
33.303200 2.575900
33.349800 2.551800
33.396500 2.405600
33.443100 2.267800
33.489700 2.147600
33.536400 2.081000
33.583000 2.069200
33.629700 2.074500
33.676300 2.108100
33.723000 2.223500
33.769600 2.392000
33.816300 2.508600
33.862900 2.657900
33.909600 2.848500
33.956200 2.926900
34.002800 2.722800
34.049500 2.692300
34.096100 2.650800
34.142800 2.535400
34.189400 2.412800
34.236100 2.435700
34.282700 2.385100
34.329400 2.395500
34.376000 2.354200
34.422700 2.369400
34.469300 2.383300
34.515900 2.339200
34.562600 2.486500
34.609200 2.501200
34.655900 2.543600
34.702500 2.576200
34.749200 2.597100
34.795800 2.560500
34.842500 2.553100
34.889100 2.516600
34.935700 2.456400
34.982400 2.395300
35.029000 2.329300
35.075700 2.257100
35.122300 2.277800
35.169000 2.365200
35.215600 2.444300
35.262300 2.517800
35.308900 2.524100
35.355600 2.634000
35.402200 2.777000
35.448800 2.795700
35.495500 2.902500
35.542100 3.096200
35.588800 3.116900
35.635400 2.908100
35.682100 2.679100
35.728700 2.638800
35.775400 2.369400
35.822000 2.173000
35.868600 2.109900
35.915300 2.180400
35.961900 2.395800
36.008600 2.500400
36.055200 2.560200
36.101900 2.712200
36.148500 2.637800
36.195200 2.683300
36.241800 2.699300
36.288500 2.693700
36.335100 2.640200
36.381700 2.465500
36.428400 2.461000
36.475000 2.476700
36.521700 2.541900
36.568300 2.590100
36.615000 2.687800
36.661600 2.923500
36.708300 3.005200
36.754900 2.850100
36.801500 2.772100
36.848200 2.630600
36.894800 2.384800
36.941500 2.195800
36.988100 2.328000
37.034800 2.441700
37.081400 2.587000
37.128100 2.737000
37.174700 2.890400
37.221400 2.976500
37.268000 2.951600
37.314600 2.924400
37.361300 2.996600
37.407900 3.010700
37.454600 2.954700
37.501200 2.882700
37.547900 2.885400
37.594500 2.916900
37.641200 2.952000
37.687800 3.055200
37.734500 3.106300
37.781100 3.147400
37.827700 3.227900
37.874400 3.268700
37.921000 3.289300
37.967700 3.264100
38.014300 3.364900
38.061000 3.440900
38.107600 3.204500
38.154300 2.981700
38.200900 2.894300
38.247500 2.889100
38.294200 2.899800
38.340800 2.693100
38.387500 2.709400
38.434100 2.747000
38.480800 2.604200
38.527400 2.514400
38.574100 2.440800
38.620700 2.363800
38.667400 2.278800
38.714000 2.330100
38.760600 2.378300
38.807300 2.348100
38.853900 2.240500
38.900600 2.150500
38.947200 2.266400
38.993900 2.408700
39.040500 2.565000
39.087200 2.523900
39.133800 2.502000
39.180400 2.570700
39.227100 2.597400
39.273700 2.501500
39.320400 2.529400
39.367000 2.562500
39.413700 2.750900
39.460300 2.605600
39.507000 2.511100
39.553600 2.523700
39.600300 2.572700
39.646900 2.707700
39.693500 2.840400
39.740200 3.040800
39.786800 3.010000
39.833500 2.832000
39.880100 2.646400
39.926800 2.557400
39.973400 2.568000
40.020100 2.534400
40.066700 2.526700
40.113400 2.744600
40.160000 2.486500
40.206600 2.482700
40.253300 2.345400
40.299900 2.407900
40.346600 2.353100
40.393200 2.304800
40.439900 2.279600
40.486500 2.254300
40.533200 2.256100
40.579800 2.286500
40.626400 2.255100
40.673100 2.283000
40.719700 2.333800
40.766400 2.390000
40.813000 2.677500
40.859700 2.773900
40.906300 2.777800
40.953000 2.768300
40.999600 2.767900
41.046300 2.766400
41.092900 2.471600
41.139500 2.514400
41.186200 2.485900
41.232800 2.570100
41.279500 2.798700
41.326100 2.943000
41.372800 3.276200
41.419400 3.219500
41.466100 3.197700
41.512700 3.025400
41.559300 2.876300
41.606000 2.640200
41.652600 2.550800
41.699300 2.538100
41.745900 2.905400
41.792600 3.053900
41.839200 3.149100
41.885900 3.100200
41.932500 3.081000
41.979200 2.968800
42.025800 2.754100
42.072400 2.755700
42.119100 2.831500
42.165700 3.049400
42.212400 3.145800
42.259000 3.586500
42.305700 3.311200
42.352300 3.446500
42.399000 3.240400
42.445600 3.091800
42.492300 2.833100
42.538900 2.813700
42.585500 2.787400
42.632200 2.585400
42.678800 2.718800
42.725500 2.784300
42.772100 2.696700
42.818800 2.659900
42.865400 2.679800
42.912100 2.682100
42.958700 2.698900
43.005300 2.697900
43.052000 2.675000
43.098600 2.656100
43.145300 2.678800
43.191900 2.717600
43.238600 2.718300
43.285200 2.714800
43.331900 2.690900
43.378500 2.788100
43.425200 2.854800
43.471800 3.010000
43.518400 3.045800
43.565100 3.015300
43.611700 2.967600
43.658400 2.907300
43.705000 2.855200
43.751700 2.855300
43.798300 2.823400
43.845000 2.738400
43.891600 2.705900
43.938200 2.893000
43.984900 2.949000
44.031500 2.934900
44.078200 3.194100
44.124800 3.313400
44.171500 3.394500
44.218100 3.475600
44.264800 3.736800
44.311400 3.463100
44.358100 3.499600
44.404700 3.286600
44.451300 3.059100
44.498000 2.815300
44.544600 2.741600
44.591300 2.814900
44.637900 2.828200
44.684600 2.858200
44.731200 2.858100
44.777900 3.099200
44.824500 3.102100
44.871100 3.137500
44.917800 3.149500
44.964400 3.183400
45.011100 3.158400
45.057700 3.059300
45.104400 2.964300
45.151000 2.985400
45.197700 2.993100
45.244300 2.959500
45.291000 3.155300
45.337600 3.166800
45.384200 3.187600
45.430900 3.322400
45.477500 3.435700
45.524200 3.505600
45.570800 3.576900
45.617500 3.516500
45.664100 3.394000
45.710800 3.193000
45.757400 3.098500
45.804100 2.993000
45.850700 2.944600
45.897300 2.928700
45.944000 2.960900
45.990600 3.000400
46.037300 3.183700
46.083900 3.784400
46.130600 3.956000
46.177200 4.141700
46.223900 4.526900
46.270500 4.835900
46.317100 4.705500
46.363800 4.347300
46.410400 3.854600
46.457100 3.712100
46.503700 3.926400
46.550400 4.239000
46.597000 4.024700
46.643700 4.492800
46.690300 5.386800
46.737000 6.096900
46.783600 5.592400
46.830200 4.766600
46.876900 4.825000
46.923500 4.727800
46.970200 4.292000
47.016800 4.450900
47.063500 4.993400
47.110100 5.156300
47.156800 5.345300
47.203400 4.882600
47.250000 4.353200
47.296700 4.254000
47.343300 4.030500
47.390000 3.976900
47.436600 4.026100
47.483300 4.027500
47.529900 4.053100
47.576600 4.074300
47.623200 4.021700
47.669900 3.845200
47.716500 3.615300
47.763100 3.752300
47.809800 4.203400
47.856400 3.647600
47.903100 3.473300
47.949700 3.463100
47.996400 3.552700
48.043000 3.459000
48.089700 3.289100
48.136300 3.191200
48.183000 3.026900
48.229600 3.046200
48.276200 3.221300
48.322900 3.839600
48.369500 3.856600
48.416200 4.444900
48.462800 4.450400
48.509500 3.981400
48.556100 3.448000
48.602800 3.549400
48.649400 3.250200
48.696000 3.314000
48.742700 3.202700
48.789300 2.718200
48.836000 2.446400
48.882600 2.757000
48.929300 3.033800
48.975900 3.242900
49.022600 3.334200
49.069200 3.375000
49.115900 3.569700
49.162500 3.510800
49.209100 3.397000
49.255800 3.413200
49.302400 3.034900
49.349100 2.755300
49.395700 2.766500
49.442400 2.891600
49.489000 2.991600
49.535700 3.044900
49.582300 3.189900
49.628900 3.365600
49.675600 3.480000
49.722200 3.467500
49.768900 3.142800
49.815500 3.168200
49.862200 3.335400
49.908800 3.435500
49.955500 3.671800
50.002100 3.707800
50.048800 3.522600
50.095400 3.432900
50.142000 3.306100
50.188700 3.265200
50.235300 3.362800
50.282000 3.554700
50.328600 3.543200
50.375300 3.460000
50.421900 3.293500
50.468600 3.183100
50.515200 3.006000
50.561800 2.854100
50.608500 2.664800
50.655100 2.744800
50.701800 2.682200
50.748400 2.834200
50.795100 2.963200
50.841700 2.966100
50.888400 2.765000
50.935000 2.702300
50.981700 2.596200
51.028300 2.479600
51.074900 2.672400
51.121600 2.955800
51.168200 2.874600
51.214900 2.937800
51.261500 2.959200
51.308200 2.863400
51.354800 2.763000
51.401500 2.730600
51.448100 2.813000
51.494800 2.844900
51.541400 2.863600
51.588000 2.853600
51.634700 2.876700
51.681300 2.943000
51.728000 3.058700
51.774600 3.175500
51.821300 3.144400
51.867900 3.152100
51.914600 3.531200
51.961200 3.132100
52.007800 3.171000
52.054500 3.260500
52.101100 3.192400
52.147800 3.063500
52.194400 3.031500
52.241100 3.002900
52.287700 2.889200
52.334400 2.751200
52.381000 2.628900
52.427700 2.559700
52.474300 2.562200
52.520900 2.644600
52.567600 2.855400
52.614200 3.013900
52.660900 3.000200
52.707500 3.029900
52.754200 2.770500
52.800800 2.696700
52.847500 2.670500
52.894100 2.599900
52.940700 2.663300
52.987400 2.723100
53.034000 2.795400
53.080700 2.670900
53.127300 2.625700
53.174000 2.786400
53.220600 2.747600
53.267300 2.788600
53.313900 2.767900
53.360600 2.855200
53.407200 3.831500
53.453800 2.944400
53.500500 2.996800
53.547100 3.142400
53.593800 3.174600
53.640400 3.286500
53.687100 3.284200
53.733700 3.441200
53.780400 3.428000
53.827000 3.509500
53.873700 3.475600
53.920300 3.589100
53.966900 3.432200
54.013600 3.377500
54.060200 3.620100
54.106900 3.395700
54.153500 3.337000
54.200200 3.465500
54.246800 3.527500
54.293500 3.482800
54.340100 3.480900
54.386700 3.398900
54.433400 3.249600
54.480000 3.143200
54.526700 3.107900
54.573300 3.287700
54.620000 3.549700
54.666600 3.440300
54.713300 3.418000
54.759900 3.140200
54.806600 3.118700
54.853200 3.301200
54.899800 3.327600
54.946500 3.291400
54.993100 3.323300
55.039800 3.404800
55.086400 3.597500
55.133100 3.534600
55.179700 3.386200
55.226400 3.165700
55.273000 3.065300
55.319600 2.882000
55.366300 2.848800
55.412900 2.863700
55.459600 2.854800
55.506200 2.937500
55.552900 2.850000
55.599500 2.929400
55.646200 3.070700
55.692800 3.226000
55.739500 3.327000
55.786100 3.224900
55.832700 3.190000
55.879400 3.137300
55.926000 3.076800
55.972700 3.289700
56.019300 3.430200
56.066000 3.305300
56.112600 3.407800
56.159300 3.333800
56.205900 3.363300
56.252600 3.430300
56.299200 3.415100
56.345800 3.408400
56.392500 3.385900
56.439100 3.311500
56.485800 3.301400
56.532400 3.397900
56.579100 3.513700
56.625700 3.542700
56.672400 3.436400
56.719000 3.284400
56.765600 3.189400
56.812300 3.062300
56.858900 3.021000
56.905600 2.930100
56.952200 2.853700
56.998900 2.834500
57.045500 2.841600
57.092200 2.872800
57.138800 3.072700
57.185500 3.225500
57.232100 3.127400
57.278700 3.112900
57.325400 3.018600
57.372000 3.068100
57.418700 3.052900
57.465300 3.008900
57.512000 2.953900
57.558600 2.915000
57.605300 2.776200
57.651900 2.502900
57.698500 2.334000
57.745200 2.229400
57.791800 2.216100
57.838500 2.188100
57.885100 2.237700
57.931800 2.297800
57.978400 2.351600
58.025100 2.311900
58.071700 2.401600
58.118400 2.373600
58.165000 2.265000
58.211600 2.143600
58.258300 2.003000
58.304900 1.835100
58.351600 1.646900
58.398200 1.442000
58.444900 1.291800
58.491500 1.201300
58.538200 1.148200
58.584800 1.133000
58.631400 1.110400
58.678100 1.028000
58.724700 1.013300
58.771400 0.996000
58.818000 1.002500
58.864700 1.046200
58.911300 1.086200
58.958000 1.132100
59.004600 1.146000
59.051300 0.902200
59.097900 0.817300
59.144500 0.768200
59.191200 0.708000
59.237800 0.673000
59.284500 0.642500
59.331100 0.603500
59.377800 0.583200
59.424400 0.464600
59.471100 0.406800
59.517700 0.306200
59.564400 0.218400
59.611000 0.171300
59.657600 0.135400
59.704300 0.107400
59.750900 0.090800
59.797600 0.080800
59.844200 0.072800
59.890900 0.065700
59.937500 0.059200
59.984200 0.053300
60.030800 0.048000
60.077400 0.043300
60.124100 0.039200
60.170700 0.035500
60.217400 0.032000
60.264000 0.028700
60.310700 0.025500
60.357300 0.022400
60.404000 0.019400
60.450600 0.016300
60.497300 0.013000
60.543900 0.009600
60.590500 0.005400
60.637200 0.000300
60.683800 0.000000
60.730500 0.000000
60.777100 0.000000
60.823800 0.000000
60.870400 0.000000
60.917100 0.000000
60.963700 0.000000
61.010300 0.000000
61.057000 0.000000
61.103600 0.000000
61.150300 0.000000
61.196900 0.000000
61.243600 0.000000
61.290200 0.000000
61.336900 0.000000
61.383500 0.000000
61.430200 0.000000
61.476800 0.000000
61.523400 0.000000
61.570100 0.000000
61.616700 0.000000
61.663400 0.000000
61.710000 0.000000
61.756700 0.000000
61.803300 0.000000
61.850000 0.000000
61.896600 0.000000
61.943300 0.000000
61.989900 0.000000
62.036500 0.000000
62.083200 0.000000
62.129800 0.000000
62.176500 0.000000
62.223100 0.000000
62.269800 0.000000
62.316400 0.000000
62.363100 0.000000
62.409700 0.000000
62.456300 0.000000
62.503000 0.000000
62.549600 0.000000
62.596300 0.000000
62.642900 0.000000
62.689600 0.000000
62.736200 0.000000
62.782900 0.000000
62.829500 0.000000
62.876200 0.000000
62.922800 0.000000
62.969400 0.000000
63.016100 0.000000
63.062700 0.000000
63.109400 0.000000
63.156000 0.000000
63.202700 0.000000
63.249300 0.000000
63.296000 0.000000
63.342600 0.000000
63.389200 0.000000
63.435900 0.000000
63.482500 0.000000
63.529200 0.000000
63.575800 0.000000
63.622500 0.000000
63.669100 0.000000
63.715800 0.000000
63.762400 0.000000
63.809100 0.000000
63.855700 0.000000
63.902300 0.000000
63.949000 0.000000
63.995600 0.000000
64.042300 0.000000
64.088900 0.000000
64.135600 0.000000
64.182200 0.000000
64.228900 0.000000
64.275500 0.000000
64.322100 0.000000
64.368800 0.000000
64.415400 0.000000
64.462100 0.000000
64.508700 0.000000
64.555400 0.000000
64.602000 0.000000
64.648700 0.000000
64.695300 0.000000
64.742000 0.000000
64.788600 0.000000
64.835200 0.000000
64.881900 0.000000
e
