set title 'mp-579909 - Density of States'
set xlabel 'Energy (eV)'
set ylabel 'DOS (states/eV)'
set grid
set xrange [-10:10]
set yrange [0:6.496]
set xzeroaxis lt -1
set terminal png size 800,600
set output 'mp-579909_dos_gnuplot.png'
plot '-' using 1:2 with lines title 'DOS'
-18.997500 0.000000
-18.972800 0.000000
-18.948100 0.000000
-18.923400 0.000000
-18.898700 0.000000
-18.873900 0.000000
-18.849200 0.000000
-18.824500 0.000000
-18.799800 0.000000
-18.775100 0.000000
-18.750400 0.000000
-18.725600 0.000000
-18.700900 0.000000
-18.676200 0.000000
-18.651500 0.000000
-18.626800 0.000000
-18.602100 0.000000
-18.577300 0.000000
-18.552600 0.000000
-18.527900 0.000000
-18.503200 0.000000
-18.478500 0.000000
-18.453700 0.000000
-18.429000 0.000000
-18.404300 0.000000
-18.379600 0.000000
-18.354900 0.000000
-18.330200 0.000000
-18.305400 0.000000
-18.280700 0.000000
-18.256000 0.000000
-18.231300 0.000000
-18.206600 0.000000
-18.181900 0.000000
-18.157100 0.000000
-18.132400 0.000000
-18.107700 0.000000
-18.083000 0.000000
-18.058300 0.000000
-18.033600 0.000000
-18.008800 0.000000
-17.984100 0.000000
-17.959400 0.000000
-17.934700 0.000000
-17.910000 0.000000
-17.885200 0.000000
-17.860500 0.000000
-17.835800 0.000000
-17.811100 0.000000
-17.786400 0.000000
-17.761700 0.000000
-17.736900 0.000000
-17.712200 0.000000
-17.687500 0.000000
-17.662800 0.000000
-17.638100 0.000000
-17.613400 0.000000
-17.588600 0.000000
-17.563900 0.000000
-17.539200 0.000000
-17.514500 0.000000
-17.489800 0.000000
-17.465100 0.000000
-17.440300 0.000000
-17.415600 0.000000
-17.390900 0.000000
-17.366200 0.000000
-17.341500 0.000000
-17.316700 0.000000
-17.292000 0.000000
-17.267300 0.000000
-17.242600 0.000000
-17.217900 0.000000
-17.193200 0.000000
-17.168400 0.000000
-17.143700 0.000000
-17.119000 0.000000
-17.094300 0.000000
-17.069600 0.000000
-17.044900 0.000000
-17.020100 0.000000
-16.995400 0.000000
-16.970700 0.000000
-16.946000 0.000000
-16.921300 0.000000
-16.896600 0.000000
-16.871800 0.000000
-16.847100 0.000000
-16.822400 0.000000
-16.797700 0.000000
-16.773000 0.000000
-16.748200 0.013200
-16.723500 0.688500
-16.698800 1.052600
-16.674100 0.837100
-16.649400 0.857000
-16.624700 0.918400
-16.599900 0.980800
-16.575200 0.975200
-16.550500 0.913100
-16.525800 0.911600
-16.501100 0.905400
-16.476400 0.921300
-16.451600 0.943300
-16.426900 0.968100
-16.402200 0.992900
-16.377500 0.964700
-16.352800 0.958100
-16.328100 0.951800
-16.303300 0.946900
-16.278600 0.957200
-16.253900 0.970400
-16.229200 0.983700
-16.204500 0.997000
-16.179700 1.010300
-16.155000 1.023600
-16.130300 1.025500
-16.105600 1.019500
-16.080900 1.025000
-16.056200 1.030400
-16.031400 1.039500
-16.006700 1.051900
-15.982000 1.064400
-15.957300 1.076900
-15.932600 1.089300
-15.907900 1.101400
-15.883100 1.109400
-15.858400 1.119000
-15.833700 1.167700
-15.809000 1.202100
-15.784300 1.236500
-15.759600 1.269600
-15.734800 1.302400
-15.710100 1.336400
-15.685400 1.370300
-15.660700 1.404400
-15.636000 1.438600
-15.611200 2.306100
-15.586500 2.097600
-15.561800 1.547600
-15.537100 1.339500
-15.512400 1.291200
-15.487700 1.214200
-15.462900 1.124000
-15.438200 1.033800
-15.413500 0.943600
-15.388800 0.904000
-15.364100 0.889400
-15.339400 0.874800
-15.314600 0.852200
-15.289900 0.803700
-15.265200 0.764500
-15.240500 0.725200
-15.215800 0.686000
-15.191100 0.646700
-15.166300 0.619800
-15.141600 0.608700
-15.116900 0.597600
-15.092200 0.586200
-15.067500 0.572700
-15.042700 0.559200
-15.018000 0.545700
-14.993300 0.532200
-14.968600 0.503700
-14.943900 0.479800
-14.919200 0.455900
-14.894400 0.432000
-14.869700 0.412800
-14.845000 0.404300
-14.820300 0.395900
-14.795600 0.390200
-14.770900 0.384700
-14.746100 0.379300
-14.721400 0.373800
-14.696700 0.368300
-14.672000 0.362800
-14.647300 0.357400
-14.622600 0.351900
-14.597800 0.346400
-14.573100 0.412600
-14.548400 0.575000
-14.523700 0.422700
-14.499000 0.364700
-14.474200 0.306700
-14.449500 0.248700
-14.424800 0.190700
-14.400100 0.132700
-14.375400 0.074700
-14.350700 0.016700
-14.325900 0.000000
-14.301200 0.000000
-14.276500 0.000000
-14.251800 0.000000
-14.227100 0.000000
-14.202400 0.000000
-14.177600 0.000000
-14.152900 0.000000
-14.128200 0.039400
-14.103500 0.130100
-14.078800 0.220700
-14.054100 0.311400
-14.029300 0.402000
-14.004600 0.492700
-13.979900 0.583400
-13.955200 0.934800
-13.930500 0.734500
-13.905700 0.944000
-13.881000 0.975800
-13.856300 0.882800
-13.831600 1.893900
-13.806900 2.569300
-13.782200 3.141000
-13.757400 2.051400
-13.732700 1.799700
-13.708000 1.623400
-13.683300 1.540900
-13.658600 1.461300
-13.633900 1.330300
-13.609100 1.255800
-13.584400 1.202200
-13.559700 1.148700
-13.535000 1.098300
-13.510300 1.057000
-13.485600 1.018200
-13.460800 0.958000
-13.436100 0.917200
-13.411400 0.900700
-13.386700 0.886400
-13.362000 0.872100
-13.337200 0.857800
-13.312500 1.142700
-13.287800 1.792900
-13.263100 2.000200
-13.238400 1.877900
-13.213700 1.951600
-13.188900 2.019800
-13.164200 1.985000
-13.139500 1.930600
-13.114800 1.941100
-13.090100 1.979600
-13.065400 2.022500
-13.040600 2.168500
-13.015900 2.302300
-12.991200 2.423700
-12.966500 2.388500
-12.941800 2.182100
-12.917100 1.971100
-12.892300 1.763300
-12.867600 1.466000
-12.842900 1.128900
-12.818200 1.188400
-12.793500 1.762400
-12.768700 2.189900
-12.744000 2.168500
-12.719300 2.172900
-12.694600 2.134000
-12.669900 2.063100
-12.645200 2.298600
-12.620400 2.430700
-12.595700 2.476700
-12.571000 2.525500
-12.546300 2.864100
-12.521600 3.417800
-12.496900 2.928400
-12.472100 2.334600
-12.447400 2.222700
-12.422700 2.052100
-12.398000 1.854700
-12.373300 1.710200
-12.348600 1.674900
-12.323800 1.655400
-12.299100 1.629400
-12.274400 1.599100
-12.249700 1.563400
-12.225000 2.422400
-12.200200 1.571800
-12.175500 1.495200
-12.150800 1.698800
-12.126100 1.711600
-12.101400 1.720800
-12.076700 1.730700
-12.051900 1.742500
-12.027200 1.668500
-12.002500 1.492000
-11.977800 1.348400
-11.953100 1.245900
-11.928400 1.220100
-11.903600 1.184000
-11.878900 1.169300
-11.854200 1.160400
-11.829500 1.157600
-11.804800 1.185800
-11.780100 1.080300
-11.755300 1.017700
-11.730600 1.103700
-11.705900 1.502900
-11.681200 1.311100
-11.656500 1.356700
-11.631700 0.946800
-11.607000 0.738200
-11.582300 0.734600
-11.557600 0.730700
-11.532900 0.725400
-11.508200 0.720200
-11.483400 0.714900
-11.458700 0.709500
-11.434000 0.699100
-11.409300 0.690100
-11.384600 0.681800
-11.359900 0.676500
-11.335100 0.673000
-11.310400 0.669500
-11.285700 0.666000
-11.261000 0.662500
-11.236300 0.660600
-11.211600 0.660400
-11.186800 0.660700
-11.162100 0.660800
-11.137400 0.660800
-11.112700 0.660900
-11.088000 0.661000
-11.063200 0.657700
-11.038500 0.652100
-11.013800 0.646500
-10.989100 0.640900
-10.964400 0.635300
-10.939700 0.649000
-10.914900 0.658400
-10.890200 0.655100
-10.865500 0.651800
-10.840800 0.648500
-10.816100 0.645300
-10.791400 0.642000
-10.766600 0.638600
-10.741900 0.619200
-10.717200 0.589200
-10.692500 0.561800
-10.667800 0.535000
-10.643100 0.508200
-10.618300 0.489600
-10.593600 0.492300
-10.568900 0.494900
-10.544200 0.500200
-10.519500 0.506000
-10.494700 0.511800
-10.470000 0.517600
-10.445300 0.523300
-10.420600 0.529100
-10.395900 0.534900
-10.371200 0.540400
-10.346400 0.543400
-10.321700 0.546300
-10.297000 0.549300
-10.272300 0.552200
-10.247600 0.555100
-10.222900 0.558000
-10.198100 0.560900
-10.173400 0.564000
-10.148700 0.567000
-10.124000 0.577900
-10.099300 0.594300
-10.074600 0.599600
-10.049800 0.605000
-10.025100 0.616600
-10.000400 0.639300
-9.975700 0.735900
-9.951000 1.168200
-9.926200 1.215400
-9.901500 1.138600
-9.876800 1.228200
-9.852100 1.366600
-9.827400 1.413000
-9.802700 1.426800
-9.777900 1.449800
-9.753200 1.485800
-9.728500 1.527300
-9.703800 1.575900
-9.679100 1.668500
-9.654400 1.779300
-9.629600 1.889600
-9.604900 1.934800
-9.580200 1.971600
-9.555500 2.212900
-9.530800 2.471200
-9.506100 2.550800
-9.481300 3.808800
-9.456600 3.011000
-9.431900 2.550900
-9.407200 2.463200
-9.382500 2.428700
-9.357700 2.385500
-9.333000 2.368400
-9.308300 2.391500
-9.283600 2.414500
-9.258900 2.386300
-9.234200 2.362700
-9.209400 2.348900
-9.184700 2.350200
-9.160000 2.304600
-9.135300 2.270400
-9.110600 2.256200
-9.085900 2.299800
-9.061100 2.622500
-9.036400 2.879700
-9.011700 2.321200
-8.987000 1.638500
-8.962300 1.376400
-8.937600 1.290900
-8.912800 1.205500
-8.888100 1.121200
-8.863400 1.099100
-8.838700 1.088500
-8.814000 0.949000
-8.789200 0.811700
-8.764500 0.698400
-8.739800 0.665800
-8.715100 0.645400
-8.690400 0.632700
-8.665700 0.627400
-8.640900 0.631600
-8.616200 0.639700
-8.591500 0.647100
-8.566800 0.665100
-8.542100 0.689700
-8.517400 0.726100
-8.492600 0.836400
-8.467900 0.960100
-8.443200 0.962500
-8.418500 0.947500
-8.393800 0.821100
-8.369100 0.816500
-8.344300 0.811800
-8.319600 0.807200
-8.294900 0.809400
-8.270200 0.842200
-8.245500 0.884800
-8.220700 0.969500
-8.196000 1.128800
-8.171300 1.320700
-8.146600 1.517700
-8.121900 1.424700
-8.097200 1.156900
-8.072400 0.593100
-8.047700 0.540600
-8.023000 0.490000
-7.998300 0.765100
-7.973600 0.678500
-7.948900 0.386800
-7.924100 0.302900
-7.899400 0.313600
-7.874700 0.355400
-7.850000 0.397100
-7.825300 0.438800
-7.800600 0.818300
-7.775800 1.195900
-7.751100 1.163200
-7.726400 1.314800
-7.701700 1.525400
-7.677000 1.512100
-7.652200 1.420600
-7.627500 1.425000
-7.602800 1.468800
-7.578100 1.506600
-7.553400 1.525700
-7.528700 1.547700
-7.503900 1.580500
-7.479200 1.625600
-7.454500 1.989300
-7.429800 2.068500
-7.405100 1.998000
-7.380400 1.854300
-7.355600 1.714800
-7.330900 1.641000
-7.306200 1.672100
-7.281500 1.724200
-7.256800 1.800700
-7.232100 1.856600
-7.207300 1.899400
-7.182600 1.936300
-7.157900 2.111300
-7.133200 2.085000
-7.108500 2.058800
-7.083700 2.033900
-7.059000 2.015800
-7.034300 1.999200
-7.009600 1.798500
-6.984900 1.788600
-6.960200 2.124700
-6.935400 1.764300
-6.910700 1.809900
-6.886000 1.714400
-6.861300 1.668900
-6.836600 1.648900
-6.811900 1.650500
-6.787100 1.605700
-6.762400 1.571500
-6.737700 1.590600
-6.713000 1.590800
-6.688300 1.594800
-6.663600 1.604100
-6.638800 1.616000
-6.614100 1.631600
-6.589400 1.655200
-6.564700 1.688200
-6.540000 1.725100
-6.515200 1.722700
-6.490500 1.573400
-6.465800 1.561200
-6.441100 1.590500
-6.416400 2.041700
-6.391700 1.960800
-6.366900 1.495300
-6.342200 1.229000
-6.317500 1.611100
-6.292800 1.660100
-6.268100 1.656000
-6.243400 1.610900
-6.218600 1.590800
-6.193900 1.626500
-6.169200 1.683700
-6.144500 1.964100
-6.119800 2.026000
-6.095100 1.633100
-6.070300 1.608900
-6.045600 1.841200
-6.020900 1.972600
-5.996200 2.226800
-5.971500 2.027000
-5.946700 2.077100
-5.922000 2.857800
-5.897300 2.975200
-5.872600 3.610400
-5.847900 2.838700
-5.823200 2.172900
-5.798400 1.935200
-5.773700 1.756300
-5.749000 1.711900
-5.724300 1.675100
-5.699600 1.674800
-5.674900 1.507600
-5.650100 1.576100
-5.625400 1.604000
-5.600700 1.621400
-5.576000 1.635800
-5.551300 1.648700
-5.526600 1.654500
-5.501800 1.651300
-5.477100 1.693500
-5.452400 1.699600
-5.427700 1.711800
-5.403000 1.730400
-5.378200 1.755900
-5.353500 1.854200
-5.328800 1.923000
-5.304100 1.954600
-5.279400 1.988200
-5.254700 1.981900
-5.229900 1.881400
-5.205200 1.474500
-5.180500 1.684700
-5.155800 1.261100
-5.131100 0.940900
-5.106400 0.860000
-5.081600 0.849400
-5.056900 0.855300
-5.032200 0.864700
-5.007500 0.871600
-4.982800 0.876500
-4.958100 0.881300
-4.933300 1.464200
-4.908600 1.318300
-4.883900 1.437400
-4.859200 1.459600
-4.834500 1.459500
-4.809700 1.462600
-4.785000 1.469000
-4.760300 1.639600
-4.735600 1.824300
-4.710900 3.942900
-4.686200 4.169400
-4.661400 4.620400
-4.636700 3.906300
-4.612000 2.878200
-4.587300 2.816900
-4.562600 2.868800
-4.537900 2.919200
-4.513100 3.024200
-4.488400 3.187500
-4.463700 3.289900
-4.439000 3.001400
-4.414300 2.672800
-4.389500 2.490900
-4.364800 2.245000
-4.340100 2.409400
-4.315400 2.325700
-4.290700 2.305900
-4.266000 2.548000
-4.241200 3.148400
-4.216500 3.774400
-4.191800 4.613200
-4.167100 5.495400
-4.142400 5.002900
-4.117700 5.217300
-4.092900 4.288400
-4.068200 3.493700
-4.043500 3.385500
-4.018800 3.334400
-3.994100 3.313400
-3.969400 3.407900
-3.944600 3.556300
-3.919900 3.890100
-3.895200 4.540900
-3.870500 4.885400
-3.845800 4.539500
-3.821000 4.444600
-3.796300 4.453500
-3.771600 4.539900
-3.746900 4.484100
-3.722200 4.322900
-3.697500 3.975200
-3.672700 3.169900
-3.648000 2.753600
-3.623300 2.942300
-3.598600 3.525500
-3.573900 3.623600
-3.549200 3.226800
-3.524400 3.457200
-3.499700 3.482400
-3.475000 3.113000
-3.450300 2.625500
-3.425600 2.355900
-3.400900 2.293600
-3.376100 2.274600
-3.351400 2.234000
-3.326700 2.193800
-3.302000 2.176400
-3.277300 2.240700
-3.252500 2.308600
-3.227800 2.234500
-3.203100 2.170700
-3.178400 2.183100
-3.153700 2.488200
-3.129000 2.664300
-3.104200 2.474600
-3.079500 1.980500
-3.054800 1.906500
-3.030100 1.955100
-3.005400 2.114300
-2.980700 2.219000
-2.955900 1.856400
-2.931200 1.711300
-2.906500 1.759300
-2.881800 2.166500
-2.857100 1.812800
-2.832400 2.159100
-2.807600 2.062300
-2.782900 1.994100
-2.758200 1.609300
-2.733500 1.432300
-2.708800 1.365400
-2.684000 1.316000
-2.659300 1.307700
-2.634600 1.305300
-2.609900 1.314800
-2.585200 1.327200
-2.560500 1.345600
-2.535700 1.442900
-2.511000 1.918700
-2.486300 2.568300
-2.461600 2.196600
-2.436900 1.966000
-2.412200 1.895000
-2.387400 1.814700
-2.362700 1.822600
-2.338000 1.858100
-2.313300 1.710100
-2.288600 1.733100
-2.263900 1.779900
-2.239100 1.591000
-2.214400 1.229600
-2.189700 1.370600
-2.165000 2.166600
-2.140300 1.894200
-2.115500 1.696700
-2.090800 1.483400
-2.066100 1.765600
-2.041400 1.874000
-2.016700 1.783400
-1.992000 1.699200
-1.967200 1.844000
-1.942500 1.689200
-1.917800 1.189300
-1.893100 1.025400
-1.868400 1.021100
-1.843700 1.014200
-1.818900 1.024700
-1.794200 1.041200
-1.769500 1.057700
-1.744800 1.073100
-1.720100 1.085300
-1.695400 1.094900
-1.670600 1.104700
-1.645900 1.115800
-1.621200 1.138900
-1.596500 1.242400
-1.571800 1.372800
-1.547000 1.451400
-1.522300 1.520400
-1.497600 1.591700
-1.472900 1.663100
-1.448200 2.021300
-1.423500 2.128100
-1.398700 2.112200
-1.374000 1.722200
-1.349300 1.548400
-1.324600 1.452300
-1.299900 1.426400
-1.275200 1.401400
-1.250400 1.376400
-1.225700 1.351300
-1.201000 1.354200
-1.176300 1.375800
-1.151600 1.547900
-1.126900 1.602800
-1.102100 1.697800
-1.077400 1.683400
-1.052700 1.248900
-1.028000 0.791900
-1.003300 0.555100
-0.978500 0.466400
-0.953800 0.388600
-0.929100 0.317100
-0.904400 0.293000
-0.879700 0.291800
-0.855000 0.299300
-0.830200 0.325100
-0.805500 0.365800
-0.780800 0.414100
-0.756100 0.483900
-0.731400 0.717900
-0.706700 1.116600
-0.681900 1.519500
-0.657200 1.853300
-0.632500 2.072000
-0.607800 2.012600
-0.583100 1.759600
-0.558400 1.509600
-0.533600 1.286300
-0.508900 1.211100
-0.484200 1.204300
-0.459500 1.205800
-0.434800 1.207800
-0.410000 1.217000
-0.385300 1.238100
-0.360600 1.268400
-0.335900 1.303900
-0.311200 1.346700
-0.286500 1.380300
-0.261700 1.414100
-0.237000 1.451000
-0.212300 1.492400
-0.187600 1.560200
-0.162900 1.738800
-0.138200 1.986400
-0.113400 2.240400
-0.088700 2.827100
-0.064000 3.365500
-0.039300 2.696000
-0.014600 2.462600
0.010100 2.329500
0.034900 2.241700
0.059600 2.083300
0.084300 2.087100
0.109000 2.193100
0.133700 2.063600
0.158500 2.013700
0.183200 1.839400
0.207900 1.730700
0.232600 1.677900
0.257300 1.460400
0.282000 1.331700
0.306800 1.529100
0.331500 1.620000
0.356200 1.857800
0.380900 2.139200
0.405600 2.734100
0.430300 3.084900
0.455100 2.963500
0.479800 3.167700
0.504500 2.820600
0.529200 2.893500
0.553900 2.965000
0.578600 3.169700
0.603400 3.840800
0.628100 4.665500
0.652800 4.804900
0.677500 5.101300
0.702200 5.389900
0.727000 5.869500
0.751700 4.618500
0.776400 4.393900
0.801100 3.553000
0.825800 4.111000
0.850500 5.630700
0.875300 5.788300
0.900000 5.905600
0.924700 5.471200
0.949400 5.283800
0.974100 5.303600
0.998800 5.132200
1.023600 4.161000
1.048300 4.132200
1.073000 4.264700
1.097700 4.585800
1.122400 4.812800
1.147100 5.007000
1.171900 5.215000
1.196600 5.483100
1.221300 5.086400
1.246000 3.838600
1.270700 2.992900
1.295500 2.494500
1.320200 2.200600
1.344900 2.175400
1.369600 2.185200
1.394300 2.379100
1.419000 2.631200
1.443800 2.179200
1.468500 2.077000
1.493200 1.980600
1.517900 1.697400
1.542600 1.650100
1.567300 1.648400
1.592100 1.661500
1.616800 1.671600
1.641500 1.673500
1.666200 1.653000
1.690900 1.563400
1.715600 1.519400
1.740400 1.601400
1.765100 1.687900
1.789800 1.473300
1.814500 1.431600
1.839200 1.426900
1.864000 1.578700
1.888700 1.964600
1.913400 1.160400
1.938100 1.116500
1.962800 1.054600
1.987500 0.977200
2.012300 0.897200
2.037000 0.805200
2.061700 0.779200
2.086400 0.767700
2.111100 0.756300
2.135800 0.744800
2.160600 0.733300
2.185300 0.721900
2.210000 0.710200
2.234700 0.692500
2.259400 0.673200
2.284100 0.653800
2.308900 0.634500
2.333600 0.620400
2.358300 0.609700
2.383000 0.599600
2.407700 0.587000
2.432500 0.576400
2.457200 0.567000
2.481900 0.557600
2.506600 0.548200
2.531300 0.538800
2.556000 0.529400
2.580800 0.520000
2.605500 0.510600
2.630200 0.489000
2.654900 0.482300
2.679600 0.475600
2.704300 0.469400
2.729100 0.463600
2.753800 0.457900
2.778500 0.452100
2.803200 0.446400
2.827900 0.440600
2.852600 0.436200
2.877400 0.433800
2.902100 0.439700
2.926800 0.438000
2.951500 0.426500
2.976200 0.415000
3.001000 0.403900
3.025700 0.396600
3.050400 0.389300
3.075100 0.381900
3.099800 0.374600
3.124500 0.367300
3.149300 0.360000
3.174000 0.352700
3.198700 0.345400
3.223400 0.341100
3.248100 0.339900
3.272800 0.345400
3.297600 0.358000
3.322300 0.370700
3.347000 0.371400
3.371700 0.367900
3.396400 0.376800
3.421100 0.391400
3.445900 0.411300
3.470600 0.424700
3.495300 0.428300
3.520000 0.428100
3.544700 0.768600
3.569500 0.232000
3.594200 0.258700
3.618900 0.291400
3.643600 0.319700
3.668300 0.343800
3.693000 0.363600
3.717800 0.379100
3.742500 0.382700
3.767200 0.386500
3.791900 0.391600
3.816600 0.398300
3.841300 0.406500
3.866100 0.417700
3.890800 0.430000
3.915500 0.441800
3.940200 0.452800
3.964900 0.464000
3.989600 0.475300
4.014400 0.486600
4.039100 0.497700
4.063800 0.512400
4.088500 0.530100
4.113200 0.548300
4.138000 0.566500
4.162700 0.585700
4.187400 0.604900
4.212100 0.626000
4.236800 0.648200
4.261500 0.670200
4.286300 0.693000
4.311000 0.728900
4.335700 0.779600
4.360400 0.833600
4.385100 0.893400
4.409800 0.966300
4.434600 1.320100
4.459300 1.758000
4.484000 2.190300
4.508700 2.542300
4.533400 2.930200
4.558100 2.918700
4.582900 3.083200
4.607600 3.111700
4.632300 3.021000
4.657000 2.923400
4.681700 2.930000
4.706500 3.474000
4.731200 2.526900
4.755900 2.790400
4.780600 3.025200
4.805300 3.206200
4.830000 3.064100
4.854800 2.952400
4.879500 2.689500
4.904200 2.349000
4.928900 2.103200
4.953600 2.303000
4.978300 3.077900
5.003100 3.877100
5.027800 4.725400
5.052500 4.820100
5.077200 4.800800
5.101900 5.460100
5.126600 5.339200
5.151400 5.036700
5.176100 4.676400
5.200800 4.385400
5.225500 3.878300
5.250200 3.832200
5.275000 3.772000
5.299700 4.143200
5.324400 3.466700
5.349100 3.285900
5.373800 3.156500
5.398500 3.385400
5.423300 2.980400
5.448000 2.854800
5.472700 2.810200
5.497400 2.847800
5.522100 2.915900
5.546800 2.938500
5.571600 3.271400
5.596300 3.591100
5.621000 3.972600
5.645700 4.064300
5.670400 3.978900
5.695100 4.007500
5.719900 3.932700
5.744600 3.635500
5.769300 3.229600
5.794000 3.006300
5.818700 2.603600
5.843500 2.366800
5.868200 2.225900
5.892900 2.091900
5.917600 2.041800
5.942300 1.867200
5.967000 1.633800
5.991800 1.550400
6.016500 1.471000
6.041200 1.391000
6.065900 1.314600
6.090600 1.252100
6.115300 1.203400
6.140100 1.163600
6.164800 1.137100
6.189500 1.339600
6.214200 1.511900
6.238900 1.607100
6.263600 1.786600
6.288400 2.063100
6.313100 2.208900
6.337800 2.281900
6.362500 2.301700
6.387200 2.304600
6.412000 2.212200
6.436700 1.934500
6.461400 1.704100
6.486100 1.733700
6.510800 1.781800
6.535500 1.739900
6.560300 1.578300
6.585000 1.540700
6.609700 1.479100
6.634400 1.365200
6.659100 1.265500
6.683800 1.156500
6.708600 1.109800
6.733300 1.211200
6.758000 1.225200
6.782700 1.239000
6.807400 1.246900
6.832100 1.235800
6.856900 1.180500
6.881600 1.121400
6.906300 1.057100
6.931000 0.946000
6.955700 0.924500
6.980500 0.910700
7.005200 0.894800
7.029900 0.878400
7.054600 0.862000
7.079300 0.845600
7.104000 0.829300
7.128800 0.811300
7.153500 0.790900
7.178200 0.769900
7.202900 0.752800
7.227600 0.711500
7.252300 0.695100
7.277100 0.678500
7.301800 0.668000
7.326500 0.660800
7.351200 0.653500
7.375900 0.646300
7.400600 0.639000
7.425400 0.631800
7.450100 0.624500
7.474800 0.616600
7.499500 0.605200
7.524200 0.593500
7.549000 0.581800
7.573700 0.570000
7.598400 0.558300
7.623100 0.548200
7.647800 0.542100
7.672500 0.536000
7.697300 0.529600
7.722000 0.523200
7.746700 0.516800
7.771400 0.510800
7.796100 0.506600
7.820800 0.501300
7.845600 0.494400
7.870300 0.487500
7.895000 0.480500
7.919700 0.473600
7.944400 0.470100
7.969100 0.464300
7.993900 0.474000
8.018600 0.505100
8.043300 0.531400
8.068000 0.549300
8.092700 0.569000
8.117500 0.590500
8.142200 0.617800
8.166900 0.639800
8.191600 0.654000
8.216300 0.671800
8.241000 0.690600
8.265800 0.709900
8.290500 0.731400
8.315200 0.754100
8.339900 0.766600
8.364600 0.792200
8.389300 0.814000
8.414100 0.831600
8.438800 0.847800
8.463500 0.860500
8.488200 0.870000
8.512900 0.877900
8.537600 0.889600
8.562400 0.880300
8.587100 0.874100
8.611800 0.872800
8.636500 0.877100
8.661200 0.880700
8.686000 0.883300
8.710700 0.885200
8.735400 0.891000
8.760100 0.908700
8.784800 0.943200
8.809500 1.005200
8.834300 1.123400
8.859000 1.158900
8.883700 1.169600
8.908400 1.157200
8.933100 1.176800
8.957800 1.199800
8.982600 1.218800
9.007300 1.232600
9.032000 1.249500
9.056700 1.282300
9.081400 1.425100
9.106100 1.086400
9.130900 1.108400
9.155600 1.133700
9.180300 1.161000
9.205000 1.194500
9.229700 1.231300
9.254500 1.305900
9.279200 1.350900
9.303900 1.393600
9.328600 1.473800
9.353300 1.648700
9.378000 1.665800
9.402800 1.574800
9.427500 1.578500
9.452200 1.580100
9.476900 1.572800
9.501600 1.575400
9.526300 1.594500
9.551100 1.578000
9.575800 1.564300
9.600500 1.559500
9.625200 1.561500
9.649900 1.566400
9.674600 1.575600
9.699400 1.587600
9.724100 1.603700
9.748800 1.623000
9.773500 1.660200
9.798200 1.696100
9.823000 1.712200
9.847700 1.723600
9.872400 1.740800
9.897100 1.768000
9.921800 1.779400
9.946500 1.815900
9.971300 1.871400
9.996000 1.933100
10.020700 1.989700
10.045400 2.055200
10.070100 2.128100
10.094800 2.209000
10.119600 2.273800
10.144300 2.328100
10.169000 2.365600
10.193700 2.374000
10.218400 2.416700
10.243100 2.495300
10.267900 2.618500
10.292600 2.768600
10.317300 2.916700
10.342000 3.133200
10.366700 3.606700
10.391500 3.685500
10.416200 3.629200
10.440900 3.693100
10.465600 3.740100
10.490300 4.185100
10.515000 3.256500
10.539800 3.004100
10.564500 2.830100
10.589200 2.613700
10.613900 2.510100
10.638600 2.445500
10.663300 2.310300
10.688100 2.168300
10.712800 2.181600
10.737500 2.250700
10.762200 2.283300
10.786900 2.318000
10.811600 2.443500
10.836400 2.307100
10.861100 2.179800
10.885800 2.010600
10.910500 1.570600
10.935200 1.584100
10.960000 1.543400
10.984700 1.668500
11.009400 1.762300
11.034100 1.818000
11.058800 1.801400
11.083500 1.947000
11.108300 2.148200
11.133000 2.214300
11.157700 2.262100
11.182400 2.324500
11.207100 2.545500
11.231800 2.686700
11.256600 2.758300
11.281300 2.765500
11.306000 2.892000
11.330700 2.943500
11.355400 3.021100
11.380100 3.039300
11.404900 2.884400
11.429600 2.771500
11.454300 2.725300
11.479000 2.641300
11.503700 2.539800
11.528500 2.508300
11.553200 2.523900
11.577900 2.692200
11.602600 2.748000
11.627300 2.860200
11.652000 2.906200
11.676800 3.142900
11.701500 3.328700
11.726200 2.873800
11.750900 4.257700
11.775600 4.292300
11.800300 3.670800
11.825100 3.456300
11.849800 3.527900
11.874500 3.698500
11.899200 4.026900
11.923900 3.920800
11.948600 3.943700
11.973400 3.900700
11.998100 3.990400
12.022800 4.202000
12.047500 4.681800
12.072200 5.313300
12.097000 4.882800
12.121700 4.563300
12.146400 4.386700
12.171100 4.282300
12.195800 4.031100
12.220500 3.806900
12.245300 3.756200
12.270000 3.022000
12.294700 2.656900
12.319400 2.406000
12.344100 2.068600
12.368800 2.199000
12.393600 2.610200
12.418300 2.983500
12.443000 2.236400
12.467700 1.633100
12.492400 1.570900
12.517100 1.501700
12.541900 1.419100
12.566600 1.349800
12.591300 1.324500
12.616000 1.301100
12.640700 1.276800
12.665500 1.405200
12.690200 1.503400
12.714900 1.367200
12.739600 1.373500
12.764300 1.384200
12.789000 1.383800
12.813800 1.380700
12.838500 1.338000
12.863200 1.286200
12.887900 1.312500
12.912600 1.347200
12.937300 1.399300
12.962100 1.466100
12.986800 1.556400
13.011500 1.641600
13.036200 1.663800
13.060900 1.702100
13.085600 1.734700
13.110400 1.853000
13.135100 2.073000
13.159800 2.329300
13.184500 2.513500
13.209200 2.742500
13.234000 2.836200
13.258700 2.824000
13.283400 2.853600
13.308100 2.883400
13.332800 2.904100
13.357500 2.900900
13.382300 2.861200
13.407000 2.820200
13.431700 2.782200
13.456400 2.733100
13.481100 2.755700
13.505800 2.676500
13.530600 2.715700
13.555300 2.763800
13.580000 2.825800
13.604700 2.908100
13.629400 3.263400
13.654100 4.066800
13.678900 3.698900
13.703600 3.294900
13.728300 3.326900
13.753000 2.700800
13.777700 2.640600
13.802500 2.564600
13.827200 2.482600
13.851900 2.603300
13.876600 2.698400
13.901300 2.456000
13.926000 2.343900
13.950800 2.250800
13.975500 2.291400
14.000200 2.033400
14.024900 2.005700
14.049600 1.967000
14.074300 1.934300
14.099100 1.902000
14.123800 1.906700
14.148500 1.754600
14.173200 1.697600
14.197900 1.755900
14.222600 1.719700
14.247400 1.708800
14.272100 1.883200
14.296800 2.120400
14.321500 2.385000
14.346200 2.527000
14.371000 2.572500
14.395700 2.537000
14.420400 2.506000
14.445100 2.464800
14.469800 2.258100
14.494500 2.211200
14.519300 2.235000
14.544000 2.237800
14.568700 2.246100
14.593400 2.259400
14.618100 2.314500
14.642800 2.373800
14.667600 2.501000
14.692300 2.657100
14.717000 2.773300
14.741700 2.880200
14.766400 3.014100
14.791100 3.117000
14.815900 3.135200
14.840600 3.116600
14.865300 3.294300
14.890000 3.232100
14.914700 3.205400
14.939500 3.156400
14.964200 3.141100
14.988900 3.166200
15.013600 3.437500
15.038300 3.311100
15.063000 3.352800
15.087800 3.492500
15.112500 3.526000
15.137200 3.747100
15.161900 4.003400
15.186600 4.073500
15.211300 4.130800
15.236100 4.214900
15.260800 4.233700
15.285500 4.101800
15.310200 3.974000
15.334900 3.914900
15.359600 3.982400
15.384400 4.110800
15.409100 4.296100
15.433800 4.244400
15.458500 4.132100
15.483200 3.923800
15.508000 3.819500
15.532700 3.692700
15.557400 3.717700
15.582100 3.896300
15.606800 4.063100
15.631500 4.102400
15.656300 3.881500
15.681000 4.006100
15.705700 3.857000
15.730400 4.023100
15.755100 4.024100
15.779800 3.968900
15.804600 3.996800
15.829300 4.098000
15.854000 4.259600
15.878700 4.288800
15.903400 4.288700
15.928100 4.268000
15.952900 4.312700
15.977600 4.315800
16.002300 4.255300
16.027000 4.336300
16.051700 4.568300
16.076500 5.101700
16.101200 4.733800
16.125900 4.491100
16.150600 4.523400
16.175300 4.658700
16.200000 5.139100
16.224800 5.300600
16.249500 4.971300
16.274200 4.824000
16.298900 4.693600
16.323600 4.601200
16.348300 4.501800
16.373100 4.476600
16.397800 4.386800
16.422500 3.992000
16.447200 3.685100
16.471900 3.403900
16.496600 3.119000
16.521400 3.152600
16.546100 3.261200
16.570800 3.235400
16.595500 3.259300
16.620200 3.394000
16.645000 3.805200
16.669700 3.807700
16.694400 3.776300
16.719100 3.842000
16.743800 3.842700
16.768500 3.692200
16.793300 3.683500
16.818000 3.785400
16.842700 4.102500
16.867400 4.256400
16.892100 4.164400
16.916800 3.932300
16.941600 3.728700
16.966300 3.509200
16.991000 3.506500
17.015700 3.549600
17.040400 3.672100
17.065100 3.945400
17.089900 3.830700
17.114600 3.842200
17.139300 4.084600
17.164000 4.327500
17.188700 4.329500
17.213500 4.437200
17.238200 4.310500
17.262900 4.107000
17.287600 4.187700
17.312300 3.935900
17.337000 3.873500
17.361800 3.661200
17.386500 3.516700
17.411200 3.233600
17.435900 3.035200
17.460600 3.086500
17.485300 3.219000
17.510100 3.417900
17.534800 3.550700
17.559500 3.533100
17.584200 3.636500
17.608900 3.894900
17.633600 4.125200
17.658400 4.474100
17.683100 4.423100
17.707800 4.312000
17.732500 4.098000
17.757200 3.837700
17.782000 3.474800
17.806700 3.276500
17.831400 3.370300
17.856100 3.409400
17.880800 3.392400
17.905500 3.493500
17.930300 3.908900
17.955000 3.716500
17.979700 3.579200
18.004400 3.361400
18.029100 3.176700
18.053800 3.236000
18.078600 3.263900
18.103300 3.459800
18.128000 3.740000
18.152700 4.074400
18.177400 4.438200
18.202100 4.356100
18.226900 4.319700
18.251600 4.239400
18.276300 4.252100
18.301000 4.359000
18.325700 4.074100
18.350500 3.607100
18.375200 3.140000
18.399900 2.871700
18.424600 2.514500
18.449300 2.347700
18.474000 2.495100
18.498800 2.593100
18.523500 2.695600
18.548200 2.797100
18.572900 2.936300
18.597600 2.775300
18.622300 2.668400
18.647100 2.541500
18.671800 2.609000
18.696500 2.694800
18.721200 2.840000
18.745900 2.988200
18.770600 3.109600
18.795400 3.221500
18.820100 3.294500
18.844800 3.533300
18.869500 4.026900
18.894200 4.134500
18.919000 4.590100
18.943700 4.657000
18.968400 4.827600
18.993100 4.682100
19.017800 4.444700
19.042500 4.365000
19.067300 4.447400
19.092000 4.368500
19.116700 4.329200
19.141400 4.296400
19.166100 4.401800
19.190800 4.269600
19.215600 4.229800
19.240300 4.282500
19.265000 4.354900
19.289700 4.195400
19.314400 4.164100
19.339100 4.332200
19.363900 4.262100
19.388600 4.513100
19.413300 4.858900
19.438000 4.619100
19.462700 4.357800
19.487500 4.250200
19.512200 4.481700
19.536900 4.948200
19.561600 5.480600
19.586300 5.450900
19.611000 5.044400
19.635800 4.624100
19.660500 4.384300
19.685200 4.264900
19.709900 4.158500
19.734600 4.200600
19.759300 4.164400
19.784100 3.982400
19.808800 3.842100
19.833500 3.938900
19.858200 4.030100
19.882900 4.088700
19.907600 3.584800
19.932400 3.430000
19.957100 3.347700
19.981800 3.183300
20.006500 2.941500
20.031200 2.704400
20.056000 2.560700
20.080700 2.461100
20.105400 2.410000
20.130100 2.401800
20.154800 2.407500
20.179500 2.447600
20.204300 2.518500
20.229000 2.594000
20.253700 2.618700
20.278400 3.050300
20.303100 3.080700
20.327800 3.109500
20.352600 3.278900
20.377300 3.497100
20.402000 3.658400
20.426700 3.736300
20.451400 3.820200
20.476100 3.827500
20.500900 4.076100
20.525600 3.996300
20.550300 3.921400
20.575000 3.652300
20.599700 3.917600
20.624500 3.977900
20.649200 4.127100
20.673900 3.863500
20.698600 3.922300
20.723300 4.058900
20.748000 4.113800
20.772800 3.985700
20.797500 3.870500
20.822200 3.923900
20.846900 4.019800
20.871600 3.815500
20.896300 3.724000
20.921100 3.576700
20.945800 3.441700
20.970500 3.068300
20.995200 2.775900
21.019900 2.775100
21.044600 2.855900
21.069400 2.948700
21.094100 2.978200
21.118800 2.874600
21.143500 2.714500
21.168200 2.516200
21.193000 2.441400
21.217700 2.533300
21.242400 2.650500
21.267100 2.805000
21.291800 3.055200
21.316500 3.368700
21.341300 3.771600
21.366000 3.946700
21.390700 4.067300
21.415400 4.255600
21.440100 4.193800
21.464800 3.633700
21.489600 3.432700
21.514300 3.267600
21.539000 3.284200
21.563700 3.332100
21.588400 3.000400
21.613100 3.155900
21.637900 3.295300
21.662600 3.734600
21.687300 3.809600
21.712000 4.145900
21.736700 3.999000
21.761500 3.848300
21.786200 3.739900
21.810900 3.584500
21.835600 3.397500
21.860300 3.139200
21.885000 3.027000
21.909800 2.927900
21.934500 2.922800
21.959200 3.114300
21.983900 2.756800
22.008600 2.421500
22.033300 2.251700
22.058100 2.006300
22.082800 1.932400
22.107500 1.927200
22.132200 1.944500
22.156900 1.985000
22.181600 2.050600
22.206400 2.140600
22.231100 2.273000
22.255800 2.415900
22.280500 2.657800
22.305200 2.915500
22.330000 3.464900
22.354700 3.486300
22.379400 3.611500
22.404100 3.499600
22.428800 3.613200
22.453500 3.963000
22.478300 4.524000
22.503000 4.370300
22.527700 4.215600
22.552400 4.059700
22.577100 3.835000
22.601800 3.810000
22.626600 3.934000
22.651300 3.982800
22.676000 4.006900
22.700700 3.802900
22.725400 3.639000
22.750100 3.416500
22.774900 3.192700
22.799600 3.125500
22.824300 3.179400
22.849000 3.345500
22.873700 3.467800
22.898500 3.291000
22.923200 3.277500
22.947900 3.226400
22.972600 3.212900
22.997300 3.240400
23.022000 3.289700
23.046800 3.403800
23.071500 3.395700
23.096200 3.319300
23.120900 3.252700
23.145600 3.253400
23.170300 3.255800
23.195100 3.222100
23.219800 3.227300
23.244500 3.270900
23.269200 3.331100
23.293900 3.397400
23.318600 3.310800
23.343400 3.326900
23.368100 3.907400
23.392800 4.168000
23.417500 4.248300
23.442200 4.141300
23.467000 4.312200
23.491700 4.442100
23.516400 4.274600
23.541100 4.295000
23.565800 3.868600
23.590500 3.436100
23.615300 3.381200
23.640000 3.387500
23.664700 3.407200
23.689400 3.557000
23.714100 3.993700
23.738800 4.271400
23.763600 4.301600
23.788300 4.138100
23.813000 4.153500
23.837700 4.296400
23.862400 4.303400
23.887100 4.235300
23.911900 4.191300
23.936600 3.982000
23.961300 3.832000
23.986000 3.695400
24.010700 3.514300
24.035500 3.459500
24.060200 3.495300
24.084900 3.812000
24.109600 3.542300
24.134300 3.405800
24.159000 3.365100
24.183800 3.301700
24.208500 3.349500
24.233200 3.383600
24.257900 3.381100
24.282600 3.426900
24.307300 3.241500
24.332100 3.271300
24.356800 3.231500
24.381500 3.032100
24.406200 2.947600
24.430900 2.872300
24.455600 2.898200
24.480400 3.011400
24.505100 3.100000
24.529800 3.418500
24.554500 3.618500
24.579200 3.647000
24.604000 3.627400
24.628700 3.388200
24.653400 3.223000
24.678100 3.113800
24.702800 3.040200
24.727500 3.009800
24.752300 2.985000
24.777000 2.965500
24.801700 3.037200
24.826400 3.088900
24.851100 3.189100
24.875800 3.255100
24.900600 2.976200
24.925300 2.799600
24.950000 2.830200
24.974700 2.791700
24.999400 2.698900
25.024100 2.654700
25.048900 2.633400
25.073600 2.648700
25.098300 2.784300
25.123000 2.631900
25.147700 2.610700
25.172500 2.542900
25.197200 2.615200
25.221900 2.423100
25.246600 2.362400
25.271300 2.321300
25.296000 2.280600
25.320800 2.239200
25.345500 2.212900
25.370200 2.223600
25.394900 2.265400
25.419600 2.242200
25.444300 2.254900
25.469100 2.353200
25.493800 2.483600
25.518500 2.652600
25.543200 2.904700
25.567900 3.004500
25.592600 3.048400
25.617400 2.987200
25.642100 2.836600
25.666800 2.725000
25.691500 2.651300
25.716200 2.698600
25.741000 2.813600
25.765700 2.851200
25.790400 2.728800
25.815100 2.606400
25.839800 2.543900
25.864500 2.768100
25.889300 2.597700
25.914000 2.528200
25.938700 2.493600
25.963400 2.474200
25.988100 2.484900
26.012800 2.503900
26.037600 2.486000
26.062300 2.418600
26.087000 2.371400
26.111700 2.262500
26.136400 2.129500
26.161100 2.078400
26.185900 2.064800
26.210600 2.064300
26.235300 2.058600
26.260000 1.998200
26.284700 1.996200
26.309500 2.023800
26.334200 2.098400
26.358900 2.111800
26.383600 2.102300
26.408300 2.120200
26.433000 2.136100
26.457800 2.146400
26.482500 2.150800
26.507200 2.224000
26.531900 2.292000
26.556600 2.286100
26.581300 2.294800
26.606100 2.181700
26.630800 1.985200
26.655500 1.643600
26.680200 1.499900
26.704900 1.405000
26.729600 1.314900
26.754400 1.226300
26.779100 1.147600
26.803800 1.072600
26.828500 0.992700
26.853200 0.861100
26.878000 0.802600
26.902700 0.762500
26.927400 0.728700
26.952100 0.696800
26.976800 0.667700
27.001500 0.647500
27.026300 0.620800
27.051000 0.594700
27.075700 0.571500
27.100400 0.546800
27.125100 0.528000
27.149800 0.509400
27.174600 0.487200
27.199300 0.461300
27.224000 0.450400
27.248700 0.425300
27.273400 0.387700
27.298100 0.358000
27.322900 0.334700
27.347600 0.305300
27.372300 0.288600
27.397000 0.274800
27.421700 0.263600
27.446500 0.287200
27.471200 0.261600
27.495900 0.261000
27.520600 0.226200
27.545300 0.194000
27.570000 0.164300
27.594800 0.140200
27.619500 0.120500
27.644200 0.114800
27.668900 0.111100
27.693600 0.107400
27.718300 0.103800
27.743100 0.100300
27.767800 0.096800
27.792500 0.093400
27.817200 0.089900
27.841900 0.086400
27.866600 0.082900
27.891400 0.079400
27.916100 0.075900
27.940800 0.072400
27.965500 0.068900
27.990200 0.122800
28.015000 0.110800
28.039700 0.079900
28.064400 0.051400
28.089100 0.037300
28.113800 0.027000
28.138500 0.017400
28.163300 0.008600
28.188000 0.000700
28.212700 0.000000
28.237400 0.000000
28.262100 0.000000
28.286800 0.000000
28.311600 0.000000
28.336300 0.000000
28.361000 0.000000
28.385700 0.000000
28.410400 0.000000
28.435100 0.000000
28.459900 0.000000
28.484600 0.000000
28.509300 0.000000
28.534000 0.000000
28.558700 0.000000
28.583500 0.000000
28.608200 0.000000
28.632900 0.000000
28.657600 0.000000
28.682300 0.000000
28.707000 0.000000
28.731800 0.000000
28.756500 0.000000
28.781200 0.000000
28.805900 0.000000
28.830600 0.000000
28.855300 0.000000
28.880100 0.000000
28.904800 0.000000
28.929500 0.000000
28.954200 0.000000
28.978900 0.000000
29.003600 0.000000
29.028400 0.000000
29.053100 0.000000
29.077800 0.000000
29.102500 0.000000
29.127200 0.000000
29.152000 0.000000
29.176700 0.000000
29.201400 0.000000
29.226100 0.000000
29.250800 0.000000
29.275500 0.000000
29.300300 0.000000
29.325000 0.000000
29.349700 0.000000
29.374400 0.000000
29.399100 0.000000
29.423800 0.000000
29.448600 0.000000
29.473300 0.000000
29.498000 0.000000
29.522700 0.000000
29.547400 0.000000
29.572100 0.000000
29.596900 0.000000
29.621600 0.000000
29.646300 0.000000
29.671000 0.000000
29.695700 0.000000
29.720500 0.000000
29.745200 0.000000
29.769900 0.000000
29.794600 0.000000
29.819300 0.000000
29.844000 0.000000
29.868800 0.000000
29.893500 0.000000
29.918200 0.000000
29.942900 0.000000
29.967600 0.000000
29.992300 0.000000
30.017100 0.000000
30.041800 0.000000
30.066500 0.000000
30.091200 0.000000
30.115900 0.000000
30.140600 0.000000
30.165400 0.000000
30.190100 0.000000
30.214800 0.000000
30.239500 0.000000
30.264200 0.000000
30.289000 0.000000
30.313700 0.000000
30.338400 0.000000
30.363100 0.000000
30.387800 0.000000
30.412500 0.000000
30.437300 0.000000
e
