set title 'mp-1062078 - Density of States'
set xlabel 'Energy (eV)'
set ylabel 'DOS (states/eV)'
set grid
set xrange [-10:10]
set yrange [0:11.130]
set xzeroaxis lt -1
set terminal png size 800,600
set output 'mp-1062078_dos_gnuplot.png'
plot '-' using 1:2 with lines title 'DOS'
-25.065900 0.000000
-25.025500 0.000000
-24.985100 0.000000
-24.944800 0.000000
-24.904400 0.000000
-24.864000 0.000000
-24.823600 0.000000
-24.783200 0.000000
-24.742800 0.000000
-24.702400 0.000000
-24.662000 0.000000
-24.621700 0.000000
-24.581300 0.000000
-24.540900 0.000000
-24.500500 0.000000
-24.460100 0.000000
-24.419700 0.000000
-24.379300 0.000000
-24.338900 0.000000
-24.298600 0.000000
-24.258200 0.000000
-24.217800 0.000000
-24.177400 0.000000
-24.137000 0.000000
-24.096600 0.000000
-24.056200 0.000000
-24.015900 0.000000
-23.975500 0.000000
-23.935100 0.000000
-23.894700 0.000000
-23.854300 0.000000
-23.813900 0.000000
-23.773500 0.000000
-23.733100 0.000000
-23.692800 0.000000
-23.652400 0.000000
-23.612000 0.000000
-23.571600 0.000000
-23.531200 0.000000
-23.490800 0.000000
-23.450400 0.000000
-23.410000 0.000000
-23.369700 0.000000
-23.329300 0.000000
-23.288900 0.000000
-23.248500 0.000000
-23.208100 0.000000
-23.167700 0.000000
-23.127300 0.000000
-23.087000 0.000000
-23.046600 0.000000
-23.006200 0.000000
-22.965800 0.000000
-22.925400 0.000000
-22.885000 0.000000
-22.844600 0.000000
-22.804200 0.000000
-22.763900 0.000000
-22.723500 0.000000
-22.683100 0.000000
-22.642700 0.000000
-22.602300 0.000000
-22.561900 0.000000
-22.521500 0.000000
-22.481100 0.000000
-22.440800 0.000000
-22.400400 0.000000
-22.360000 0.000000
-22.319600 0.000000
-22.279200 0.000000
-22.238800 0.000000
-22.198400 0.000000
-22.158100 0.000000
-22.117700 0.000000
-22.077300 0.000000
-22.036900 0.000000
-21.996500 0.000000
-21.956100 0.000000
-21.915700 0.000000
-21.875300 0.000000
-21.835000 0.000000
-21.794600 0.000000
-21.754200 0.000000
-21.713800 0.000000
-21.673400 0.000000
-21.633000 0.000000
-21.592600 0.000000
-21.552200 0.000000
-21.511900 0.005200
-21.471500 0.217100
-21.431100 2.889400
-21.390700 13.402800
-21.350300 26.013000
-21.309900 28.798000
-21.269500 20.493300
-21.229200 10.901700
-21.188800 16.950700
-21.148400 19.977100
-21.108000 7.896100
-21.067600 0.980800
-21.027200 0.037200
-20.986800 0.000400
-20.946400 0.000000
-20.906100 0.000000
-20.865700 0.000000
-20.825300 0.000000
-20.784900 0.000000
-20.744500 0.000000
-20.704100 0.000000
-20.663700 0.000000
-20.623300 0.000000
-20.583000 0.000000
-20.542600 0.000000
-20.502200 0.000000
-20.461800 0.000000
-20.421400 0.000000
-20.381000 0.000000
-20.340600 0.000000
-20.300300 0.000000
-20.259900 0.000000
-20.219500 0.000000
-20.179100 0.000000
-20.138700 0.000000
-20.098300 0.000000
-20.057900 0.000000
-20.017500 0.000000
-19.977200 0.000000
-19.936800 0.000000
-19.896400 0.000000
-19.856000 0.000000
-19.815600 0.000000
-19.775200 0.000000
-19.734800 0.000000
-19.694400 0.000000
-19.654100 0.000000
-19.613700 0.000000
-19.573300 0.000000
-19.532900 0.000000
-19.492500 0.000000
-19.452100 0.000000
-19.411700 0.000000
-19.371400 0.000000
-19.331000 0.000000
-19.290600 0.000000
-19.250200 0.000000
-19.209800 0.000000
-19.169400 0.000000
-19.129000 0.000000
-19.088600 0.000000
-19.048300 0.000000
-19.007900 0.000000
-18.967500 0.000000
-18.927100 0.000000
-18.886700 0.000000
-18.846300 0.000000
-18.805900 0.000000
-18.765500 0.000000
-18.725200 0.000000
-18.684800 0.000000
-18.644400 0.000000
-18.604000 0.000000
-18.563600 0.000000
-18.523200 0.000000
-18.482800 0.000000
-18.442500 0.000000
-18.402100 0.000000
-18.361700 0.000000
-18.321300 0.000000
-18.280900 0.000000
-18.240500 0.000000
-18.200100 0.000000
-18.159700 0.000000
-18.119400 0.000000
-18.079000 0.000000
-18.038600 0.000000
-17.998200 0.000000
-17.957800 0.000000
-17.917400 0.000000
-17.877000 0.000000
-17.836600 0.000000
-17.796300 0.000000
-17.755900 0.000000
-17.715500 0.000000
-17.675100 0.000000
-17.634700 0.000000
-17.594300 0.000000
-17.553900 0.000000
-17.513600 0.000000
-17.473200 0.000000
-17.432800 0.000000
-17.392400 0.000000
-17.352000 0.000000
-17.311600 0.000000
-17.271200 0.000000
-17.230800 0.000000
-17.190500 0.000000
-17.150100 0.000000
-17.109700 0.000000
-17.069300 0.000000
-17.028900 0.000000
-16.988500 0.000000
-16.948100 0.000000
-16.907700 0.000000
-16.867400 0.000000
-16.827000 0.000000
-16.786600 0.000000
-16.746200 0.000000
-16.705800 0.000000
-16.665400 0.000000
-16.625000 0.000000
-16.584700 0.000000
-16.544300 0.000000
-16.503900 0.000000
-16.463500 0.000000
-16.423100 0.000000
-16.382700 0.000000
-16.342300 0.000000
-16.301900 0.000000
-16.261600 0.000000
-16.221200 0.000000
-16.180800 0.000000
-16.140400 0.000000
-16.100000 0.000000
-16.059600 0.000000
-16.019200 0.000000
-15.978800 0.000000
-15.938500 0.000000
-15.898100 0.000000
-15.857700 0.000000
-15.817300 0.000000
-15.776900 0.000000
-15.736500 0.000000
-15.696100 0.000000
-15.655800 0.000000
-15.615400 0.000000
-15.575000 0.000000
-15.534600 0.000000
-15.494200 0.000000
-15.453800 0.000000
-15.413400 0.000000
-15.373000 0.000000
-15.332700 0.000000
-15.292300 0.000000
-15.251900 0.000000
-15.211500 0.000000
-15.171100 0.000000
-15.130700 0.000000
-15.090300 0.000000
-15.049900 0.000000
-15.009600 0.000000
-14.969200 0.000000
-14.928800 0.000000
-14.888400 0.000000
-14.848000 0.000000
-14.807600 0.000000
-14.767200 0.000000
-14.726900 0.000000
-14.686500 0.000000
-14.646100 0.000000
-14.605700 0.000000
-14.565300 0.000000
-14.524900 0.000000
-14.484500 0.000000
-14.444100 0.000000
-14.403800 0.000000
-14.363400 0.000000
-14.323000 0.000000
-14.282600 0.000000
-14.242200 0.000000
-14.201800 0.000000
-14.161400 0.000000
-14.121000 0.000000
-14.080700 0.000000
-14.040300 0.000000
-13.999900 0.000000
-13.959500 0.000000
-13.919100 0.000000
-13.878700 0.000000
-13.838300 0.000000
-13.798000 0.000000
-13.757600 0.000000
-13.717200 0.000000
-13.676800 0.000000
-13.636400 0.000000
-13.596000 0.000000
-13.555600 0.000000
-13.515200 0.000000
-13.474900 0.000000
-13.434500 0.000000
-13.394100 0.000000
-13.353700 0.000000
-13.313300 0.000000
-13.272900 0.000000
-13.232500 0.000000
-13.192200 0.000000
-13.151800 0.000000
-13.111400 0.000000
-13.071000 0.000000
-13.030600 0.000000
-12.990200 0.000000
-12.949800 0.000000
-12.909400 0.000000
-12.869100 0.000000
-12.828700 0.000000
-12.788300 0.000000
-12.747900 0.000000
-12.707500 0.000000
-12.667100 0.000000
-12.626700 0.000000
-12.586300 0.000000
-12.546000 0.000000
-12.505600 0.000000
-12.465200 0.000000
-12.424800 0.000000
-12.384400 0.000000
-12.344000 0.000000
-12.303600 0.000000
-12.263300 0.000000
-12.222900 0.000000
-12.182500 0.000000
-12.142100 0.000000
-12.101700 0.000000
-12.061300 0.000000
-12.020900 0.000000
-11.980500 0.000000
-11.940200 0.000000
-11.899800 0.000000
-11.859400 0.000000
-11.819000 0.000000
-11.778600 0.000000
-11.738200 0.000000
-11.697800 0.000000
-11.657400 0.000000
-11.617100 0.000000
-11.576700 0.000000
-11.536300 0.000000
-11.495900 0.000000
-11.455500 0.000000
-11.415100 0.000000
-11.374700 0.000000
-11.334400 0.000000
-11.294000 0.000000
-11.253600 0.000000
-11.213200 0.000000
-11.172800 0.000000
-11.132400 0.000000
-11.092000 0.000000
-11.051600 0.000000
-11.011300 0.000000
-10.970900 0.000000
-10.930500 0.000000
-10.890100 0.000000
-10.849700 0.000000
-10.809300 0.000000
-10.768900 0.000000
-10.728500 0.000000
-10.688200 0.000000
-10.647800 0.000000
-10.607400 0.000000
-10.567000 0.000000
-10.526600 0.000000
-10.486200 0.000000
-10.445800 0.000000
-10.405500 0.000000
-10.365100 0.000000
-10.324700 0.000000
-10.284300 0.000000
-10.243900 0.000000
-10.203500 0.000000
-10.163100 0.000000
-10.122700 0.000000
-10.082400 0.000000
-10.042000 0.000000
-10.001600 0.000000
-9.961200 0.000000
-9.920800 0.000000
-9.880400 0.000000
-9.840000 0.000000
-9.799600 0.000000
-9.759300 0.000000
-9.718900 0.000000
-9.678500 0.000000
-9.638100 0.000000
-9.597700 0.000000
-9.557300 0.000000
-9.516900 0.000000
-9.476600 0.000000
-9.436200 0.000000
-9.395800 0.000000
-9.355400 0.000000
-9.315000 0.000000
-9.274600 0.000000
-9.234200 0.000000
-9.193800 0.000000
-9.153500 0.000000
-9.113100 0.000000
-9.072700 0.000000
-9.032300 0.000000
-8.991900 0.000000
-8.951500 0.000000
-8.911100 0.000000
-8.870700 0.000000
-8.830400 0.000000
-8.790000 0.000000
-8.749600 0.000000
-8.709200 0.000000
-8.668800 0.000000
-8.628400 0.000000
-8.588000 0.000000
-8.547700 0.000000
-8.507300 0.000000
-8.466900 0.000000
-8.426500 0.000000
-8.386100 0.000000
-8.345700 0.000000
-8.305300 0.000000
-8.264900 0.000000
-8.224600 0.000000
-8.184200 0.000000
-8.143800 0.000000
-8.103400 0.000000
-8.063000 0.000000
-8.022600 0.000000
-7.982200 0.000000
-7.941800 0.000000
-7.901500 0.000000
-7.861100 0.000000
-7.820700 0.000000
-7.780300 0.000000
-7.739900 0.000000
-7.699500 0.000000
-7.659100 0.000000
-7.618800 0.000000
-7.578400 0.000000
-7.538000 0.000000
-7.497600 0.000000
-7.457200 0.000000
-7.416800 0.000000
-7.376400 0.000000
-7.336000 0.000000
-7.295700 0.000000
-7.255300 0.000000
-7.214900 0.000000
-7.174500 0.000000
-7.134100 0.000000
-7.093700 0.000000
-7.053300 0.000000
-7.012900 0.000000
-6.972600 0.000000
-6.932200 0.000000
-6.891800 0.000000
-6.851400 0.000000
-6.811000 0.000000
-6.770600 0.000000
-6.730200 0.000000
-6.689900 0.000000
-6.649500 0.000000
-6.609100 0.000000
-6.568700 0.000000
-6.528300 0.000000
-6.487900 0.000000
-6.447500 0.000000
-6.407100 0.000000
-6.366800 0.000000
-6.326400 0.000000
-6.286000 0.000000
-6.245600 0.000000
-6.205200 0.000000
-6.164800 0.000000
-6.124400 0.000000
-6.084000 0.000000
-6.043700 0.000000
-6.003300 0.000000
-5.962900 0.000000
-5.922500 0.000000
-5.882100 0.000000
-5.841700 0.000000
-5.801300 0.000000
-5.761000 0.000000
-5.720600 0.000000
-5.680200 0.000000
-5.639800 0.000000
-5.599400 0.000000
-5.559000 0.000000
-5.518600 0.000000
-5.478200 0.000000
-5.437900 0.000000
-5.397500 0.000000
-5.357100 0.000000
-5.316700 0.000000
-5.276300 0.000000
-5.235900 0.000000
-5.195500 0.000000
-5.155100 0.000000
-5.114800 0.000000
-5.074400 0.000000
-5.034000 0.000000
-4.993600 0.000000
-4.953200 0.000000
-4.912800 0.000000
-4.872400 0.000000
-4.832100 0.000000
-4.791700 0.000000
-4.751300 0.000000
-4.710900 0.000000
-4.670500 0.000000
-4.630100 0.000000
-4.589700 0.000000
-4.549300 0.000000
-4.509000 0.000000
-4.468600 0.000000
-4.428200 0.000000
-4.387800 0.000000
-4.347400 0.000000
-4.307000 0.000000
-4.266600 0.000000
-4.226200 0.000000
-4.185900 0.000000
-4.145500 0.000000
-4.105100 0.000000
-4.064700 0.000000
-4.024300 0.000000
-3.983900 0.000000
-3.943500 0.000000
-3.903200 0.000000
-3.862800 0.000000
-3.822400 0.000000
-3.782000 0.000000
-3.741600 0.000000
-3.701200 0.000000
-3.660800 0.000000
-3.620400 0.000000
-3.580100 0.000000
-3.539700 0.000000
-3.499300 0.000000
-3.458900 0.000000
-3.418500 0.000000
-3.378100 0.000000
-3.337700 0.000000
-3.297300 0.000000
-3.257000 0.000000
-3.216600 0.000000
-3.176200 0.000000
-3.135800 0.000000
-3.095400 0.000000
-3.055000 0.000000
-3.014600 0.000000
-2.974300 0.000000
-2.933900 0.000000
-2.893500 0.000000
-2.853100 0.000000
-2.812700 0.000000
-2.772300 0.000000
-2.731900 0.000000
-2.691500 0.000000
-2.651200 0.000000
-2.610800 0.000000
-2.570400 0.000100
-2.530000 0.002500
-2.489600 0.014700
-2.449200 0.033900
-2.408800 0.053700
-2.368400 0.084900
-2.328100 0.160300
-2.287700 0.205400
-2.247300 0.110400
-2.206900 0.039400
-2.166500 0.110800
-2.126100 0.259900
-2.085700 0.282100
-2.045400 0.232500
-2.005000 0.284600
-1.964600 0.316100
-1.924200 0.174300
-1.883800 0.119700
-1.843400 0.169000
-1.803000 0.348900
-1.762600 0.422100
-1.722300 0.322200
-1.681900 0.351100
-1.641500 0.400600
-1.601100 0.272500
-1.560700 0.219300
-1.520300 0.452700
-1.479900 0.617500
-1.439500 0.576200
-1.399200 0.502100
-1.358800 0.366300
-1.318400 0.248000
-1.278000 0.307800
-1.237600 0.475000
-1.197200 0.703900
-1.156800 0.752600
-1.116500 0.667400
-1.076100 0.709300
-1.035700 0.799000
-0.995300 0.806000
-0.954900 0.803000
-0.914500 0.978500
-0.874100 0.897300
-0.833700 0.617400
-0.793400 0.728700
-0.753000 1.224600
-0.712600 1.337500
-0.672200 1.309200
-0.631800 1.929700
-0.591400 2.702400
-0.551000 3.030200
-0.510600 3.397700
-0.470300 3.932000
-0.429900 3.869200
-0.389500 3.662200
-0.349100 3.785200
-0.308700 4.024000
-0.268300 3.885700
-0.227900 4.774400
-0.187600 6.659400
-0.147200 7.917100
-0.106800 8.191000
-0.066400 8.312000
-0.026000 8.762500
0.014400 9.771700
0.054800 10.118200
0.095200 9.090700
0.135500 8.535400
0.175900 9.209400
0.216300 9.496000
0.256700 9.128200
0.297100 9.136600
0.337500 8.833500
0.377900 8.240300
0.418300 8.300700
0.458600 8.310200
0.499000 8.267900
0.539400 8.396700
0.579800 8.305600
0.620200 7.880200
0.660600 7.634300
0.701000 8.148800
0.741300 8.004000
0.781700 6.524700
0.822100 4.965200
0.862500 5.030800
0.902900 5.648400
0.943300 6.095200
0.983700 6.586500
1.024100 6.522000
1.064400 6.292800
1.104800 6.279700
1.145200 5.885500
1.185600 5.277300
1.226000 5.214100
1.266400 5.829300
1.306800 6.337200
1.347200 6.390900
1.387500 6.955000
1.427900 7.304700
1.468300 7.412200
1.508700 7.751300
1.549100 7.297800
1.589500 6.771000
1.629900 6.737100
1.670200 7.213400
1.710600 7.483800
1.751000 7.077400
1.791400 6.950000
1.831800 6.981500
1.872200 6.779000
1.912600 7.410800
1.953000 6.677600
1.993300 4.518300
2.033700 3.049800
2.074100 2.320600
2.114500 2.525400
2.154900 2.932700
2.195300 2.548900
2.235700 2.069600
2.276100 2.346100
2.316400 2.516600
2.356800 2.245500
2.397200 2.706400
2.437600 3.535100
2.478000 3.546600
2.518400 3.240000
2.558800 3.548700
2.599100 3.851500
2.639500 3.404800
2.679900 2.586300
2.720300 2.440000
2.760700 2.752600
2.801100 3.320600
2.841500 3.447600
2.881900 3.511700
2.922200 3.328800
2.962600 2.482500
3.003000 2.080900
3.043400 2.118700
3.083800 2.676800
3.124200 2.684100
3.164600 1.964700
3.205000 1.727000
3.245300 2.190400
3.285700 2.892900
3.326100 3.066700
3.366500 2.476300
3.406900 1.726100
3.447300 1.529600
3.487700 1.488400
3.528000 1.195500
3.568400 0.961900
3.608800 1.182500
3.649200 1.397100
3.689600 1.896400
3.730000 2.440900
3.770400 2.326800
3.810800 2.262500
3.851100 2.116800
3.891500 1.988300
3.931900 2.446600
3.972300 2.555500
4.012700 2.061400
4.053100 1.955500
4.093500 2.337100
4.133900 2.901600
4.174200 2.676400
4.214600 2.327500
4.255000 2.348400
4.295400 2.071800
4.335800 1.819600
4.376200 1.968000
4.416600 2.183300
4.456900 2.127100
4.497300 1.617100
4.537700 1.100500
4.578100 1.564600
4.618500 2.407500
4.658900 2.149500
4.699300 1.257200
4.739700 0.908500
4.780000 1.056500
4.820400 1.068500
4.860800 0.915900
4.901200 1.056500
4.941600 1.097400
4.982000 1.058500
5.022400 0.887500
5.062800 0.694400
5.103100 0.835500
5.143500 1.149500
5.183900 1.188100
5.224300 0.896400
5.264700 0.811900
5.305100 0.783900
5.345500 0.669900
5.385800 0.713000
5.426200 0.796600
5.466600 1.065600
5.507000 1.440400
5.547400 1.294400
5.587800 0.877400
5.628200 1.077600
5.668600 1.696200
5.708900 2.012500
5.749300 1.881100
5.789700 2.132000
5.830100 2.368000
5.870500 2.009500
5.910900 2.025700
5.951300 2.938500
5.991700 3.368900
6.032000 2.998800
6.072400 2.775400
6.112800 2.848300
6.153200 3.473700
6.193600 4.134000
6.234000 3.672900
6.274400 3.900500
6.314700 4.965400
6.355100 5.287900
6.395500 4.704900
6.435900 3.971800
6.476300 3.261200
6.516700 3.074500
6.557100 3.421000
6.597500 3.452000
6.637800 3.064100
6.678200 2.264000
6.718600 2.260700
6.759000 2.781700
6.799400 2.475800
6.839800 2.072300
6.880200 2.120900
6.920500 1.714900
6.960900 1.524800
7.001300 1.885800
7.041700 2.607900
7.082100 2.824300
7.122500 2.809600
7.162900 2.686900
7.203300 2.290100
7.243600 2.158800
7.284000 2.284600
7.324400 2.576300
7.364800 3.091000
7.405200 3.370800
7.445600 3.361300
7.486000 3.108400
7.526400 2.885700
7.566700 3.081400
7.607100 3.268600
7.647500 3.494100
7.687900 3.513400
7.728300 3.278200
7.768700 2.822800
7.809100 2.814700
7.849400 2.882700
7.889800 2.426000
7.930200 1.800600
7.970600 1.804300
8.011000 2.731000
8.051400 3.199000
8.091800 2.931200
8.132200 2.997500
8.172500 3.553800
8.212900 3.750900
8.253300 2.794500
8.293700 2.160300
8.334100 2.291600
8.374500 2.213300
8.414900 1.296400
8.455300 0.807800
8.495600 1.189100
8.536000 1.829300
8.576400 2.472200
8.616800 2.884900
8.657200 2.867400
8.697600 2.100900
8.738000 1.196300
8.778300 0.672200
8.818700 0.692800
8.859100 0.763300
8.899500 0.783200
8.939900 0.836900
8.980300 0.730100
9.020700 0.692300
9.061100 0.732400
9.101400 1.189000
9.141800 1.796200
9.182200 1.630800
9.222600 1.089500
9.263000 0.871800
9.303400 0.834900
9.343800 0.855600
9.384200 1.002600
9.424500 1.257700
9.464900 1.586700
9.505300 1.502000
9.545700 0.844600
9.586100 0.404400
9.626500 0.466200
9.666900 0.704900
9.707200 0.849200
9.747600 0.772000
9.788000 0.768400
9.828400 1.050200
9.868800 0.965900
9.909200 0.835300
9.949600 1.182800
9.990000 1.229400
10.030300 0.806100
10.070700 0.556000
10.111100 0.541000
10.151500 0.557900
10.191900 0.453900
10.232300 0.518700
10.272700 0.770200
10.313100 0.737100
10.353400 0.657800
10.393800 0.688900
10.434200 0.825300
10.474600 1.177800
10.515000 1.288400
10.555400 1.303100
10.595800 1.057600
10.636100 0.865200
10.676500 0.783200
10.716900 0.504900
10.757300 0.516300
10.797700 0.875700
10.838100 0.958100
10.878500 0.691400
10.918900 0.365700
10.959200 0.289200
10.999600 0.591300
11.040000 0.771000
11.080400 0.706800
11.120800 0.608100
11.161200 0.443700
11.201600 0.626700
11.242000 0.772100
11.282300 0.687400
11.322700 0.523200
11.363100 0.397400
11.403500 0.548700
11.443900 0.691700
11.484300 0.826400
11.524700 1.004800
11.565000 0.946700
11.605400 0.684100
11.645800 0.586200
11.686200 0.641600
11.726600 0.559600
11.767000 0.739600
11.807400 0.640700
11.847800 0.387400
11.888100 0.666500
11.928500 0.848700
11.968900 0.703300
12.009300 0.483100
12.049700 0.334400
12.090100 0.546800
12.130500 0.745300
12.170900 0.564600
12.211200 0.399700
12.251600 0.411500
12.292000 0.660500
12.332400 0.979200
12.372800 1.076100
12.413200 1.482500
12.453600 1.998800
12.493900 2.149100
12.534300 2.283100
12.574700 2.905600
12.615100 3.036900
12.655500 3.199800
12.695900 3.740500
12.736300 3.446400
12.776700 2.753900
12.817000 2.297300
12.857400 1.878100
12.897800 1.500100
12.938200 1.202600
12.978600 1.143400
13.019000 1.491000
13.059400 2.153100
13.099800 2.215300
13.140100 1.979800
13.180500 2.191700
13.220900 2.528800
13.261300 2.692500
13.301700 2.878100
13.342100 2.363500
13.382500 1.800800
13.422800 1.884400
13.463200 1.830900
13.503600 1.622000
13.544000 2.053200
13.584400 2.199900
13.624800 1.900600
13.665200 1.666400
13.705600 1.437200
13.745900 1.502300
13.786300 2.278400
13.826700 3.337300
13.867100 3.411600
13.907500 2.934800
13.947900 2.263800
13.988300 1.598900
14.028700 1.424700
14.069000 1.442900
14.109400 1.363300
14.149800 1.363700
14.190200 1.500500
14.230600 1.735500
14.271000 1.793300
14.311400 1.721600
14.351700 1.387700
14.392100 1.423300
14.432500 2.026700
14.472900 2.103500
14.513300 2.069400
14.553700 1.945900
14.594100 1.696800
14.634500 1.610800
14.674800 2.011800
14.715200 2.972900
14.755600 3.305800
14.796000 2.739900
14.836400 2.589300
14.876800 2.560800
14.917200 2.212000
14.957600 2.253600
14.997900 2.311600
15.038300 2.250200
15.078700 2.217700
15.119100 2.110600
15.159500 1.868700
15.199900 1.854600
15.240300 1.737400
15.280600 1.765200
15.321000 2.221700
15.361400 2.354400
15.401800 2.274400
15.442200 2.393000
15.482600 2.265300
15.523000 1.705200
15.563400 1.281100
15.603700 1.133700
15.644100 1.247700
15.684500 1.171800
15.724900 0.969200
15.765300 1.047900
15.805700 1.366700
15.846100 1.332000
15.886500 1.218800
15.926800 1.223900
15.967200 1.119200
16.007600 1.004900
16.048000 0.978200
16.088400 1.370500
16.128800 1.842000
16.169200 1.953200
16.209500 2.032100
16.249900 2.044800
16.290300 1.622900
16.330700 1.614000
16.371100 1.781400
16.411500 1.628300
16.451900 1.490600
16.492300 1.401100
16.532600 1.425000
16.573000 1.601000
16.613400 1.718900
16.653800 1.781700
16.694200 2.174100
16.734600 2.187700
16.775000 1.812200
16.815400 1.702500
16.855700 1.534700
16.896100 1.528100
16.936500 2.110800
16.976900 2.483200
17.017300 2.197900
17.057700 1.908400
17.098100 1.565700
17.138400 1.507200
17.178800 1.847000
17.219200 2.221100
17.259600 2.481400
17.300000 2.589200
17.340400 2.306600
17.380800 1.887600
17.421200 1.757800
17.461500 2.213800
17.501900 2.377700
17.542300 1.973800
17.582700 1.925600
17.623100 2.358400
17.663500 2.578300
17.703900 2.465300
17.744300 2.583400
17.784600 2.828900
17.825000 3.062900
17.865400 3.034400
17.905800 2.624900
17.946200 2.431400
17.986600 2.666500
18.027000 2.459800
18.067300 1.944200
18.107700 2.194100
18.148100 2.500200
18.188500 2.510300
18.228900 2.454000
18.269300 2.179600
18.309700 1.787600
18.350100 1.758300
18.390400 2.106300
18.430800 2.432900
18.471200 2.267100
18.511600 1.702900
18.552000 1.418200
18.592400 1.784200
18.632800 2.162000
18.673200 2.473000
18.713500 2.974600
18.753900 3.300100
18.794300 3.110100
18.834700 2.469200
18.875100 1.700500
18.915500 1.183700
18.955900 1.262200
18.996200 1.748700
19.036600 1.865300
19.077000 1.664900
19.117400 1.824800
19.157800 2.191900
19.198200 2.258700
19.238600 2.118000
19.279000 2.114800
19.319300 2.486600
19.359700 2.834900
19.400100 2.613800
19.440500 2.493700
19.480900 3.127200
19.521300 3.226800
19.561700 2.024600
19.602100 1.132900
19.642400 1.144500
19.682800 1.353300
19.723200 1.798100
19.763600 2.304000
19.804000 2.335000
19.844400 2.391300
19.884800 2.487700
19.925100 1.987200
19.965500 1.538700
20.005900 1.709000
20.046300 1.886200
20.086700 1.667500
20.127100 1.393400
20.167500 1.146400
20.207900 0.994600
20.248200 1.329300
20.288600 2.240200
20.329000 2.357600
20.369400 2.154400
20.409800 2.195400
20.450200 2.288400
20.490600 2.340700
20.531000 2.168200
20.571300 2.254400
20.611700 2.359500
20.652100 2.437500
20.692500 2.342500
20.732900 2.066100
20.773300 2.440800
20.813700 2.948200
20.854000 2.630000
20.894400 2.513900
20.934800 2.826400
20.975200 2.987100
21.015600 3.487000
21.056000 3.839000
21.096400 3.576300
21.136800 3.073200
21.177100 2.493000
21.217500 2.634700
21.257900 3.121500
21.298300 3.065800
21.338700 2.945700
21.379100 2.891800
21.419500 2.978500
21.459900 2.896100
21.500200 2.494100
21.540600 2.413900
21.581000 2.785400
21.621400 2.703300
21.661800 2.160400
21.702200 1.713100
21.742600 1.617500
21.782900 1.972500
21.823300 2.445300
21.863700 2.480200
21.904100 1.924000
21.944500 1.857300
21.984900 1.921500
22.025300 1.689000
22.065700 1.978700
22.106000 2.823800
22.146400 2.802000
22.186800 1.990000
22.227200 1.804400
22.267600 2.410300
22.308000 2.761800
22.348400 2.788100
22.388800 2.553700
22.429100 2.114100
22.469500 2.095000
22.509900 2.549400
22.550300 2.616000
22.590700 2.268800
22.631100 1.755500
22.671500 1.697100
22.711800 2.175400
22.752200 2.429000
22.792600 2.462000
22.833000 2.569300
22.873400 2.396100
22.913800 2.131700
22.954200 2.087700
22.994600 2.030600
23.034900 1.962600
23.075300 1.928800
23.115700 1.760500
23.156100 1.753000
23.196500 2.136900
23.236900 2.181900
23.277300 2.035400
23.317700 2.119400
23.358000 2.098000
23.398400 2.157400
23.438800 2.078800
23.479200 1.893000
23.519600 1.825600
23.560000 2.037800
23.600400 2.164000
23.640700 2.260000
23.681100 2.707600
23.721500 2.597400
23.761900 2.039700
23.802300 1.784500
23.842700 1.580600
23.883100 1.485000
23.923500 2.020500
23.963800 2.329000
24.004200 2.512600
24.044600 2.627600
24.085000 2.382500
24.125400 2.265900
24.165800 2.207400
24.206200 2.117000
24.246600 2.390300
24.286900 2.789600
24.327300 3.262100
24.367700 3.357000
24.408100 2.687400
24.448500 2.216200
24.488900 2.150200
24.529300 1.988800
24.569600 1.906700
24.610000 2.008800
24.650400 2.309000
24.690800 2.334600
24.731200 2.143400
24.771600 2.009200
24.812000 2.040700
24.852400 1.800800
24.892700 1.822400
24.933100 2.165900
24.973500 2.703600
25.013900 3.094800
25.054300 2.928500
25.094700 2.560900
25.135100 2.246200
25.175500 2.092500
25.215800 3.863700
25.256200 17.399800
25.296600 42.376600
25.337000 36.019100
25.377400 11.942900
25.417800 3.763700
25.458200 2.752300
25.498500 2.598700
25.538900 2.657800
25.579300 9.590600
25.619700 46.736200
25.660100 85.969700
25.700500 51.810600
25.740900 11.935200
25.781300 3.153800
25.821600 2.012500
25.862000 1.514600
25.902400 1.730900
25.942800 2.279900
25.983200 2.982900
26.023600 3.168200
26.064000 2.913600
26.104300 3.141700
26.144700 3.397700
26.185100 2.554900
26.225500 1.590900
26.265900 1.383000
26.306300 1.899300
26.346700 2.561200
26.387100 3.054400
26.427400 3.713000
26.467800 4.243500
26.508200 3.880100
26.548600 3.381600
26.589000 3.175200
26.629400 2.933500
26.669800 2.797100
26.710200 3.038900
26.750500 3.173400
26.790900 3.474000
26.831300 3.392200
26.871700 2.952000
26.912100 2.629200
26.952500 2.401700
26.992900 2.445000
27.033200 2.498700
27.073600 2.532100
27.114000 2.511900
27.154400 2.423800
27.194800 2.474600
27.235200 2.370900
27.275600 2.340600
27.316000 2.191900
27.356300 2.233800
27.396700 2.273500
27.437100 2.101300
27.477500 2.028900
27.517900 1.830600
27.558300 1.732400
27.598700 1.637200
27.639100 1.564700
27.679400 2.008400
27.719800 2.035400
27.760200 1.507500
27.800600 1.641200
27.841000 2.294000
27.881400 2.521300
27.921800 2.358700
27.962100 2.644100
28.002500 2.642700
28.042900 2.380700
28.083300 2.476200
28.123700 2.455500
28.164100 1.963800
28.204500 1.930300
28.244900 2.471100
28.285200 2.947800
28.325600 2.705800
28.366000 2.167600
28.406400 2.021200
28.446800 1.887900
28.487200 1.727100
28.527600 1.851700
28.568000 2.018600
28.608300 2.010800
28.648700 2.218300
28.689100 2.329000
28.729500 2.154600
28.769900 1.888000
28.810300 2.083500
28.850700 2.332100
28.891000 2.195000
28.931400 2.157600
28.971800 2.459800
29.012200 2.281700
29.052600 1.534600
29.093000 1.407800
29.133400 1.962900
29.173800 2.391300
29.214100 2.262600
29.254500 1.967200
29.294900 2.513700
29.335300 3.310200
29.375700 2.975400
29.416100 2.233900
29.456500 1.929600
29.496900 1.998000
29.537200 2.651900
29.577600 3.332900
29.618000 3.368400
29.658400 3.316800
29.698800 2.995000
29.739200 2.512700
29.779600 2.243000
29.819900 2.190900
29.860300 2.331600
29.900700 2.534200
29.941100 3.014500
29.981500 3.363300
30.021900 3.139900
30.062300 3.000600
30.102700 3.113400
30.143000 3.172900
30.183400 2.647400
30.223800 2.230900
30.264200 2.648000
30.304600 3.527900
30.345000 3.607600
30.385400 2.433000
30.425800 1.875800
30.466100 2.247900
30.506500 3.009100
30.546900 3.102200
30.587300 2.006300
30.627700 1.257100
30.668100 1.360600
30.708500 1.973300
30.748800 2.582100
30.789200 2.817100
30.829600 2.776900
30.870000 2.738400
30.910400 2.944700
30.950800 2.773400
30.991200 2.420700
31.031600 2.264000
31.071900 1.709500
31.112300 1.421400
31.152700 1.810000
31.193100 2.080200
31.233500 2.526800
31.273900 2.616300
31.314300 2.153500
31.354700 1.920300
31.395000 1.983800
31.435400 2.162400
31.475800 2.601300
31.516200 2.799900
31.556600 2.344200
31.597000 2.608100
31.637400 3.530800
31.677700 3.472600
31.718100 2.822000
31.758500 2.412800
31.798900 2.214200
31.839300 2.400600
31.879700 2.611500
31.920100 2.814700
31.960500 2.895300
32.000800 2.807300
32.041200 2.948100
32.081600 3.069100
32.122000 2.617300
32.162400 2.200900
32.202800 2.450100
32.243200 2.720200
32.283600 3.209900
32.323900 3.274200
32.364300 2.870200
32.404700 2.601400
32.445100 2.610200
32.485500 2.617400
32.525900 2.962700
32.566300 3.521300
32.606600 3.761300
32.647000 3.690600
32.687400 3.564900
32.727800 3.546500
32.768200 3.137800
32.808600 2.690800
32.849000 3.238800
32.889400 3.297000
32.929700 2.683300
32.970100 2.366000
33.010500 2.782700
33.050900 3.383600
33.091300 3.463400
33.131700 3.176000
33.172100 2.789500
33.212500 2.578600
33.252800 2.620500
33.293200 2.567800
33.333600 2.874200
33.374000 3.678400
33.414400 3.702100
33.454800 2.914400
33.495200 2.358300
33.535500 2.332700
33.575900 2.359300
33.616300 2.371800
33.656700 2.836700
33.697100 3.907600
33.737500 3.920200
33.777900 2.586400
33.818300 2.043000
33.858600 2.015400
33.899000 1.990500
33.939400 2.418000
33.979800 2.380200
34.020200 2.004000
34.060600 2.496600
34.101000 3.351800
34.141400 3.813400
34.181700 3.697000
34.222100 2.987200
34.262500 2.617600
34.302900 2.780000
34.343300 2.538700
34.383700 2.404900
34.424100 2.348700
34.464400 2.023100
34.504800 2.027700
34.545200 2.317700
34.585600 2.756100
34.626000 3.148600
34.666400 2.910400
34.706800 2.552900
34.747200 2.308200
34.787500 2.677500
34.827900 3.527800
34.868300 3.694200
34.908700 3.174400
34.949100 2.957000
34.989500 2.824100
35.029900 2.425800
35.070300 2.268900
35.110600 2.196200
35.151000 2.169300
35.191400 2.554900
35.231800 3.272000
35.272200 3.673200
35.312600 3.718000
35.353000 4.244500
35.393300 4.485700
35.433700 4.676700
35.474100 5.584800
35.514500 5.722900
35.554900 5.524500
35.595300 5.818400
35.635700 5.871500
35.676100 6.349200
35.716400 6.646900
35.756800 6.107400
35.797200 5.767900
35.837600 5.162300
35.878000 4.283300
35.918400 3.558400
35.958800 3.350200
35.999200 3.750700
36.039500 3.700700
36.079900 3.249300
36.120300 3.483700
36.160700 3.357400
36.201100 3.121900
36.241500 3.346700
36.281900 3.373800
36.322200 2.947800
36.362600 2.702600
36.403000 3.144200
36.443400 3.362000
36.483800 3.245000
36.524200 3.676200
36.564600 4.062100
36.605000 3.969800
36.645300 3.545200
36.685700 2.791800
36.726100 2.533600
36.766500 2.563700
36.806900 2.676300
36.847300 2.875200
36.887700 3.100900
36.928100 3.158200
36.968400 2.997200
37.008800 2.566900
37.049200 2.814800
37.089600 3.588500
37.130000 3.406000
37.170400 2.735200
37.210800 2.318800
37.251100 2.175500
37.291500 2.287600
37.331900 2.612900
37.372300 2.881800
37.412700 2.840000
37.453100 2.661100
37.493500 2.575800
37.533900 2.817100
37.574200 2.878500
37.614600 2.370500
37.655000 1.996600
37.695400 1.988500
37.735800 1.976300
37.776200 2.202200
37.816600 3.016100
37.857000 4.230400
37.897300 4.216000
37.937700 2.977200
37.978100 2.298000
38.018500 2.420900
38.058900 2.932500
38.099300 3.634800
38.139700 3.742200
38.180000 3.125900
38.220400 2.884800
38.260800 3.099600
38.301200 3.465400
38.341600 3.349400
38.382000 3.015500
38.422400 3.028700
38.462800 2.944500
38.503100 2.548200
38.543500 2.372200
38.583900 2.470500
38.624300 2.598800
38.664700 3.105000
38.705100 3.300200
38.745500 2.703200
38.785900 2.119200
38.826200 2.083200
38.866600 2.642200
38.907000 3.235900
38.947400 3.166900
38.987800 3.115400
39.028200 3.222800
39.068600 2.956800
39.108900 2.654300
39.149300 2.295200
39.189700 2.245300
39.230100 2.445100
39.270500 2.752400
39.310900 3.128800
39.351300 2.913100
39.391700 2.336700
39.432000 2.572100
39.472400 3.503600
39.512800 3.869400
39.553200 3.568600
39.593600 3.126700
39.634000 3.298700
39.674400 3.318600
39.714800 3.094100
39.755100 3.424500
39.795500 3.702000
39.835900 3.785300
39.876300 4.018100
39.916700 3.896000
39.957100 3.079700
39.997500 2.386500
40.037800 2.477100
40.078200 3.049000
40.118600 3.061000
40.159000 2.942500
40.199400 2.857700
40.239800 2.574500
40.280200 2.557000
40.320600 3.015200
40.360900 3.474200
40.401300 3.344100
40.441700 3.162000
40.482100 3.075300
40.522500 2.758200
40.562900 2.505400
40.603300 2.682000
40.643700 2.905000
40.684000 2.667500
40.724400 2.695400
40.764800 3.305500
40.805200 4.076100
40.845600 4.285800
40.886000 3.385600
40.926400 2.834300
40.966700 3.347500
41.007100 3.276400
41.047500 3.206600
41.087900 3.641800
41.128300 3.682600
41.168700 3.796800
41.209100 3.793200
41.249500 3.870300
41.289800 4.030900
41.330200 3.426100
41.370600 2.766700
41.411000 2.380100
41.451400 2.542300
41.491800 3.607400
41.532200 3.836700
41.572600 2.794800
41.612900 2.218300
41.653300 2.793200
41.693700 3.621400
41.734100 3.799700
41.774500 3.509200
41.814900 3.015600
41.855300 2.679800
41.895600 2.461800
41.936000 2.079400
41.976400 2.331400
42.016800 3.188300
42.057200 4.008500
42.097600 3.977700
42.138000 3.275900
42.178400 3.137900
42.218700 3.411300
42.259100 3.067900
42.299500 2.527200
42.339900 2.612300
42.380300 3.014400
42.420700 2.890000
42.461100 2.684900
42.501500 3.024100
42.541800 2.822100
42.582200 2.787200
42.622600 2.976200
42.663000 2.771000
42.703400 2.257400
42.743800 2.288700
42.784200 2.768700
42.824500 3.430800
42.864900 3.997900
42.905300 3.919700
42.945700 3.282200
42.986100 2.110500
43.026500 1.673500
43.066900 2.740700
43.107300 3.928100
43.147600 4.275700
43.188000 3.930600
43.228400 3.064400
43.268800 2.241700
43.309200 2.246500
43.349600 2.060200
43.390000 1.782700
43.430400 2.369500
43.470700 3.005500
43.511100 2.883800
43.551500 3.026300
43.591900 3.549100
43.632300 3.659300
43.672700 3.466600
43.713100 3.131500
43.753400 3.006900
43.793800 3.210100
43.834200 3.521000
43.874600 3.527500
43.915000 3.014500
43.955400 2.745500
43.995800 2.764800
44.036200 2.842200
44.076500 3.115000
44.116900 3.355700
44.157300 3.084800
44.197700 2.418300
44.238100 2.259100
44.278500 2.561900
44.318900 3.180100
44.359300 3.242400
44.399600 2.955500
44.440000 2.682900
44.480400 2.762300
44.520800 2.947000
44.561200 2.606900
44.601600 1.978600
44.642000 1.882700
44.682300 2.692600
44.722700 3.145100
44.763100 3.095300
44.803500 2.932900
44.843900 2.587200
44.884300 2.676700
44.924700 3.418400
44.965100 4.024800
45.005400 3.703500
45.045800 3.155900
45.086200 3.449400
45.126600 3.931300
45.167000 3.923900
45.207400 3.383000
45.247800 2.839000
45.288100 3.075000
45.328500 2.946500
45.368900 2.595800
45.409300 2.762100
45.449700 3.208300
45.490100 3.431200
45.530500 3.257100
45.570900 2.978600
45.611200 2.663900
45.651600 2.743400
45.692000 3.594700
45.732400 4.126400
45.772800 3.844900
45.813200 3.360200
45.853600 3.103300
45.894000 2.943000
45.934300 3.014200
45.974700 3.241400
46.015100 3.482200
46.055500 3.426800
46.095900 3.388100
46.136300 3.733500
46.176700 3.609300
46.217000 2.721500
46.257400 2.237300
46.297800 2.312100
46.338200 2.832900
46.378600 3.111300
46.419000 3.264100
46.459400 3.557000
46.499800 3.525300
46.540100 3.471100
46.580500 3.222600
46.620900 2.768600
46.661300 2.426000
46.701700 2.785600
46.742100 3.155100
46.782500 3.093300
46.822900 2.999100
46.863200 3.284900
46.903600 3.965600
46.944000 4.298300
46.984400 4.051800
47.024800 3.935900
47.065200 4.154600
47.105600 4.126200
47.145900 3.848700
47.186300 2.969600
47.226700 2.305800
47.267100 2.880500
47.307500 3.690600
47.347900 3.713300
47.388300 3.576100
47.428700 3.562500
47.469000 3.366100
47.509400 2.995500
47.549800 2.614000
47.590200 2.947000
47.630600 3.406400
47.671000 2.925000
47.711400 2.676400
47.751800 2.612200
47.792100 2.583900
47.832500 3.090200
47.872900 4.067500
47.913300 5.024800
47.953700 4.689800
47.994100 3.301200
48.034500 3.137400
48.074800 3.251600
48.115200 2.609900
48.155600 2.455600
48.196000 3.105400
48.236400 3.425500
48.276800 3.486500
48.317200 3.783200
48.357600 3.471100
48.397900 3.042600
48.438300 3.092300
48.478700 2.939200
48.519100 3.171600
48.559500 4.280400
48.599900 4.419900
48.640300 3.310700
48.680700 2.775100
48.721000 3.211600
48.761400 3.792800
48.801800 4.237900
48.842200 4.231900
48.882600 3.270400
48.923000 2.436400
48.963400 2.783800
49.003700 3.117500
49.044100 2.995700
49.084500 2.930500
49.124900 3.319100
49.165300 3.552100
49.205700 3.627600
49.246100 3.500200
49.286500 3.230300
49.326800 3.391200
49.367200 3.313700
49.407600 3.113300
49.448000 3.236100
49.488400 3.393400
49.528800 3.373300
49.569200 3.274900
49.609600 3.225400
49.649900 2.913800
49.690300 2.861700
49.730700 3.211900
49.771100 2.942900
49.811500 2.498700
49.851900 2.630800
49.892300 2.785700
49.932600 2.462700
49.973000 2.726000
50.013400 3.393900
50.053800 3.489400
50.094200 2.689500
50.134600 2.668900
50.175000 4.087100
50.215400 4.817300
50.255700 4.023100
50.296100 2.956200
50.336500 2.533600
50.376900 2.071900
50.417300 2.086000
50.457700 2.701100
50.498100 3.114600
50.538500 3.091200
50.578800 2.884800
50.619200 2.382600
50.659600 1.752200
50.700000 2.062800
50.740400 3.127100
50.780800 3.236100
50.821200 2.458300
50.861500 1.915600
50.901900 1.996700
50.942300 2.144500
50.982700 2.141200
51.023100 2.146000
51.063500 2.320900
51.103900 2.462100
51.144300 2.111700
51.184600 1.765300
51.225000 1.778600
51.265400 1.798700
51.305800 1.712600
51.346200 1.510400
51.386600 1.385900
51.427000 1.407000
51.467400 1.326600
51.507700 1.262300
51.548100 0.933200
51.588500 0.647000
51.628900 0.496900
51.669300 0.478600
51.709700 0.558700
51.750100 0.626100
51.790400 0.739900
51.830800 0.732200
51.871200 0.684100
51.911600 0.594500
51.952000 0.363100
51.992400 0.194100
52.032800 0.107000
52.073200 0.050200
52.113500 0.012000
52.153900 0.001000
52.194300 0.000000
52.234700 0.000000
52.275100 0.000000
52.315500 0.000000
52.355900 0.000000
52.396300 0.000000
52.436600 0.000000
52.477000 0.000000
52.517400 0.000000
52.557800 0.000000
52.598200 0.000000
52.638600 0.000000
52.679000 0.000000
52.719300 0.000000
52.759700 0.000000
52.800100 0.000000
52.840500 0.000000
52.880900 0.000000
52.921300 0.000000
52.961700 0.000000
53.002100 0.000000
53.042400 0.000000
53.082800 0.000000
53.123200 0.000000
53.163600 0.000000
53.204000 0.000000
53.244400 0.000000
53.284800 0.000000
53.325200 0.000000
53.365500 0.000000
53.405900 0.000000
53.446300 0.000000
53.486700 0.000000
53.527100 0.000000
53.567500 0.000000
53.607900 0.000000
53.648200 0.000000
53.688600 0.000000
53.729000 0.000000
53.769400 0.000000
53.809800 0.000000
53.850200 0.000000
53.890600 0.000000
53.931000 0.000000
53.971300 0.000000
54.011700 0.000000
54.052100 0.000000
54.092500 0.000000
54.132900 0.000000
54.173300 0.000000
54.213700 0.000000
54.254100 0.000000
54.294400 0.000000
54.334800 0.000000
54.375200 0.000000
54.415600 0.000000
54.456000 0.000000
54.496400 0.000000
54.536800 0.000000
54.577100 0.000000
54.617500 0.000000
54.657900 0.000000
54.698300 0.000000
54.738700 0.000000
54.779100 0.000000
54.819500 0.000000
54.859900 0.000000
54.900200 0.000000
54.940600 0.000000
54.981000 0.000000
55.021400 0.000000
55.061800 0.000000
55.102200 0.000000
55.142600 0.000000
55.183000 0.000000
55.223300 0.000000
55.263700 0.000000
55.304100 0.000000
55.344500 0.000000
55.384900 0.000000
55.425300 0.000000
55.465700 0.000000
55.506000 0.000000
55.546400 0.000000
55.586800 0.000000
55.627200 0.000000
55.667600 0.000000
55.708000 0.000000
e
