set title 'mp-1184015 - Density of States'
set xlabel 'Energy (eV)'
set ylabel 'DOS (states/eV)'
set grid
set xrange [-10:10]
set yrange [0:5.991]
set xzeroaxis lt -1
set terminal png size 800,600
set output 'mp-1184015_dos_gnuplot.png'
plot '-' using 1:2 with lines title 'DOS'
-13.606400 0.000000
-13.578000 0.000000
-13.549600 0.000000
-13.521200 0.000000
-13.492900 0.000000
-13.464500 0.000000
-13.436100 0.000000
-13.407800 0.000000
-13.379400 0.000000
-13.351000 0.000000
-13.322600 0.000000
-13.294300 0.000000
-13.265900 0.000000
-13.237500 0.000000
-13.209200 0.000000
-13.180800 0.000000
-13.152400 0.000000
-13.124000 0.000000
-13.095700 0.000000
-13.067300 0.000000
-13.038900 0.000000
-13.010600 0.000000
-12.982200 0.000000
-12.953800 0.000000
-12.925400 0.000000
-12.897100 0.000000
-12.868700 0.000000
-12.840300 0.000000
-12.812000 0.000000
-12.783600 0.000000
-12.755200 0.000000
-12.726800 0.000000
-12.698500 0.000000
-12.670100 0.000000
-12.641700 0.000000
-12.613300 0.000000
-12.585000 0.000000
-12.556600 0.000000
-12.528200 0.000000
-12.499900 0.000000
-12.471500 0.000000
-12.443100 0.000000
-12.414700 0.000000
-12.386400 0.000000
-12.358000 0.000000
-12.329600 0.000000
-12.301300 0.000000
-12.272900 0.000000
-12.244500 0.000000
-12.216100 0.000000
-12.187800 0.000000
-12.159400 0.000000
-12.131000 0.000000
-12.102700 0.000000
-12.074300 0.000000
-12.045900 0.000000
-12.017500 0.000000
-11.989200 0.000000
-11.960800 0.000000
-11.932400 0.000000
-11.904100 0.000000
-11.875700 0.000000
-11.847300 0.000000
-11.818900 0.000000
-11.790600 0.000000
-11.762200 0.000000
-11.733800 0.000000
-11.705500 0.000000
-11.677100 0.000000
-11.648700 0.000000
-11.620300 0.000000
-11.592000 0.000000
-11.563600 0.000000
-11.535200 0.000000
-11.506900 0.000000
-11.478500 0.000000
-11.450100 0.000000
-11.421700 0.000000
-11.393400 0.000000
-11.365000 0.000000
-11.336600 0.000000
-11.308300 0.000000
-11.279900 0.000000
-11.251500 0.000000
-11.223100 0.000000
-11.194800 0.000000
-11.166400 0.000000
-11.138000 0.000000
-11.109700 0.000000
-11.081300 0.000000
-11.052900 0.000000
-11.024500 5.705900
-10.996200 74.611600
-10.967800 28.316900
-10.939400 16.233700
-10.911100 8.929300
-10.882700 4.853100
-10.854300 3.552300
-10.825900 2.029700
-10.797600 1.131800
-10.769200 0.540400
-10.740800 0.000000
-10.712500 23.627300
-10.684100 98.388600
-10.655700 79.212100
-10.627300 52.298500
-10.599000 51.948200
-10.570600 58.001400
-10.542200 133.173800
-10.513900 79.909300
-10.485500 60.345400
-10.457100 0.000000
-10.428700 0.000000
-10.400400 0.000000
-10.372000 0.000000
-10.343600 0.000000
-10.315300 0.000000
-10.286900 0.000000
-10.258500 0.000000
-10.230100 0.000000
-10.201800 0.000000
-10.173400 0.000000
-10.145000 0.000000
-10.116700 0.000000
-10.088300 0.000000
-10.059900 0.012600
-10.031500 0.047800
-10.003200 0.092100
-9.974800 0.105100
-9.946400 0.109900
-9.918100 0.127500
-9.889700 0.146000
-9.861300 0.165400
-9.832900 0.181700
-9.804600 0.190800
-9.776200 0.197300
-9.747800 0.207000
-9.719500 0.218500
-9.691100 0.230100
-9.662700 0.241700
-9.634300 0.253300
-9.606000 0.265800
-9.577600 0.278800
-9.549200 0.287300
-9.520900 0.293900
-9.492500 0.302500
-9.464100 0.310800
-9.435700 0.318800
-9.407400 0.327000
-9.379000 0.335600
-9.350600 0.345100
-9.322300 0.354800
-9.293900 0.364800
-9.265500 0.375000
-9.237100 0.385100
-9.208800 0.414800
-9.180400 0.451300
-9.152000 0.434400
-9.123700 0.439100
-9.095300 0.443900
-9.066900 0.448100
-9.038500 0.452000
-9.010200 0.450600
-8.981800 0.448700
-8.953400 0.450000
-8.925100 0.453100
-8.896700 0.456200
-8.868300 0.459200
-8.839900 0.462000
-8.811600 0.464700
-8.783200 0.466500
-8.754800 0.500600
-8.726500 0.546400
-8.698100 0.524500
-8.669700 0.534100
-8.641300 0.544700
-8.613000 0.556100
-8.584600 0.564800
-8.556200 0.569100
-8.527900 0.574400
-8.499500 0.583300
-8.471100 0.591800
-8.442700 0.599500
-8.414400 0.607900
-8.386000 0.617700
-8.357600 0.627800
-8.329300 0.632500
-8.300900 0.640700
-8.272500 0.648400
-8.244100 0.656100
-8.215800 0.664700
-8.187400 0.673500
-8.159000 0.682400
-8.130700 0.691400
-8.102300 0.700400
-8.073900 0.709600
-8.045500 0.716800
-8.017200 0.724200
-7.988800 0.732600
-7.960400 0.741700
-7.932100 0.751300
-7.903700 0.760900
-7.875300 0.770700
-7.846900 0.780500
-7.818600 0.790600
-7.790200 0.800900
-7.761800 0.811400
-7.733400 0.822200
-7.705100 0.833600
-7.676700 0.845900
-7.648300 0.856800
-7.620000 0.868900
-7.591600 0.881100
-7.563200 0.893800
-7.534800 0.907100
-7.506500 0.920600
-7.478100 0.934300
-7.449700 0.948600
-7.421400 0.963500
-7.393000 0.978900
-7.364600 0.994600
-7.336200 1.010700
-7.307900 1.027100
-7.279500 1.043800
-7.251100 1.063900
-7.222800 1.093100
-7.194400 1.121800
-7.166000 1.154000
-7.137600 1.188500
-7.109300 1.225800
-7.080900 1.264100
-7.052500 1.300800
-7.024200 1.326700
-6.995800 1.360200
-6.967400 1.395600
-6.939000 1.561800
-6.910700 1.550800
-6.882300 1.500400
-6.853900 1.498000
-6.825600 1.484100
-6.797200 1.459300
-6.768800 1.448000
-6.740400 1.441100
-6.712100 1.458800
-6.683700 1.487900
-6.655300 1.472500
-6.627000 1.457400
-6.598600 1.455300
-6.570200 1.447400
-6.541800 1.440900
-6.513500 1.441300
-6.485100 1.439300
-6.456700 1.440900
-6.428400 1.343000
-6.400000 1.320300
-6.371600 1.309300
-6.343200 1.304200
-6.314900 1.322900
-6.286500 1.368800
-6.258100 1.441800
-6.229800 1.439900
-6.201400 1.476500
-6.173000 1.435500
-6.144600 1.398200
-6.116300 1.369700
-6.087900 1.358900
-6.059500 1.365600
-6.031200 1.383900
-6.002800 1.464200
-5.974400 1.491800
-5.946000 1.509700
-5.917700 1.465500
-5.889300 1.587700
-5.860900 1.727600
-5.832600 1.891200
-5.804200 2.158900
-5.775800 3.025900
-5.747400 2.420800
-5.719100 2.281600
-5.690700 1.812900
-5.662300 1.317200
-5.634000 0.932100
-5.605600 0.716500
-5.577200 0.506300
-5.548800 0.200400
-5.520500 0.017600
-5.492100 0.000000
-5.463700 0.000000
-5.435400 0.000000
-5.407000 0.000000
-5.378600 0.000000
-5.350200 0.000000
-5.321900 0.000000
-5.293500 0.000000
-5.265100 0.000000
-5.236800 0.000000
-5.208400 0.000000
-5.180000 0.000000
-5.151600 0.000000
-5.123300 0.000000
-5.094900 0.000000
-5.066500 0.000000
-5.038200 0.000000
-5.009800 0.000000
-4.981400 0.000000
-4.953000 0.000000
-4.924700 0.000000
-4.896300 0.000000
-4.867900 0.000000
-4.839600 0.000000
-4.811200 0.000000
-4.782800 0.000000
-4.754400 0.000000
-4.726100 0.000000
-4.697700 0.000000
-4.669300 0.000000
-4.641000 0.000000
-4.612600 0.000000
-4.584200 0.000000
-4.555800 0.000000
-4.527500 0.000000
-4.499100 0.000000
-4.470700 0.000000
-4.442400 0.000000
-4.414000 0.000000
-4.385600 0.000000
-4.357200 0.000000
-4.328900 0.000000
-4.300500 0.000000
-4.272100 0.000000
-4.243800 0.000000
-4.215400 0.000000
-4.187000 0.000000
-4.158600 0.000000
-4.130300 0.000000
-4.101900 0.000000
-4.073500 0.000000
-4.045200 0.000000
-4.016800 0.000000
-3.988400 0.000000
-3.960000 0.000000
-3.931700 0.000000
-3.903300 0.000000
-3.874900 0.000000
-3.846600 0.000000
-3.818200 0.000000
-3.789800 0.000000
-3.761400 0.000000
-3.733100 0.000000
-3.704700 0.000000
-3.676300 0.000000
-3.648000 0.000000
-3.619600 0.002800
-3.591200 0.015100
-3.562800 0.026600
-3.534500 0.037500
-3.506100 0.049200
-3.477700 0.061900
-3.449400 0.074600
-3.421000 0.086600
-3.392600 0.098500
-3.364200 0.110900
-3.335900 0.122000
-3.307500 0.127300
-3.279100 0.133700
-3.250800 0.140300
-3.222400 0.146400
-3.194000 0.152200
-3.165600 0.158200
-3.137300 0.164800
-3.108900 0.171500
-3.080500 0.178200
-3.052200 0.185000
-3.023800 0.222900
-2.995400 0.324500
-2.967000 0.504900
-2.938700 0.687700
-2.910300 0.782500
-2.881900 0.857200
-2.853500 1.028500
-2.825200 0.967900
-2.796800 1.065200
-2.768400 1.212800
-2.740100 1.382400
-2.711700 1.529800
-2.683300 1.607300
-2.654900 1.657600
-2.626600 1.774700
-2.598200 1.840800
-2.569800 1.930000
-2.541500 2.088800
-2.513100 2.239000
-2.484700 2.439600
-2.456300 2.776000
-2.428000 2.752300
-2.399600 2.608200
-2.371200 2.535400
-2.342900 2.476600
-2.314500 2.401300
-2.286100 2.068300
-2.257700 1.861100
-2.229400 1.737000
-2.201000 1.602500
-2.172600 1.514400
-2.144300 1.437400
-2.115900 1.369300
-2.087500 1.320600
-2.059100 1.279100
-2.030800 1.238600
-2.002400 1.194500
-1.974000 1.155800
-1.945700 1.134200
-1.917300 1.113800
-1.888900 1.094600
-1.860500 1.079800
-1.832200 1.060800
-1.803800 1.047700
-1.775400 1.035200
-1.747100 1.013800
-1.718700 1.013700
-1.690300 1.010400
-1.661900 1.009800
-1.633600 1.009400
-1.605200 1.009700
-1.576800 1.010700
-1.548500 1.013300
-1.520100 1.039000
-1.491700 1.067400
-1.463300 1.111500
-1.435000 1.165100
-1.406600 1.179100
-1.378200 1.220300
-1.349900 1.251100
-1.321500 1.259700
-1.293100 1.209700
-1.264700 1.177100
-1.236400 1.100200
-1.208000 0.998800
-1.179600 0.978200
-1.151300 0.962400
-1.122900 0.951100
-1.094500 1.153000
-1.066100 1.009900
-1.037800 1.019700
-1.009400 1.035800
-0.981000 1.053800
-0.952700 1.054200
-0.924300 1.044800
-0.895900 1.029600
-0.867500 1.012200
-0.839200 0.996300
-0.810800 0.981400
-0.782400 0.967200
-0.754100 0.961200
-0.725700 0.970300
-0.697300 0.965000
-0.668900 0.962000
-0.640600 0.965400
-0.612200 1.149700
-0.583800 1.148800
-0.555500 1.275400
-0.527100 1.572600
-0.498700 2.309300
-0.470300 1.344400
-0.442000 1.377000
-0.413600 1.374500
-0.385200 1.354900
-0.356900 1.329400
-0.328500 1.273100
-0.300100 1.257600
-0.271700 1.274100
-0.243400 1.340300
-0.215000 1.333000
-0.186600 1.254400
-0.158300 1.225300
-0.129900 1.210600
-0.101500 1.202600
-0.073100 1.205200
-0.044800 1.213900
-0.016400 1.229400
0.012000 1.234800
0.040300 1.256700
0.068700 1.265500
0.097100 1.278800
0.125500 1.290200
0.153800 1.310900
0.182200 1.341200
0.210600 1.337300
0.238900 1.348600
0.267300 1.370400
0.295700 1.396600
0.324100 1.413000
0.352400 1.451500
0.380800 1.472500
0.409200 1.482700
0.437500 1.525200
0.465900 1.580800
0.494300 2.163900
0.522700 1.527600
0.551000 1.538100
0.579400 1.553300
0.607800 1.569800
0.636100 1.578400
0.664500 1.590900
0.692900 1.603700
0.721300 1.621600
0.749600 1.652500
0.778000 1.684400
0.806400 1.724600
0.834700 1.777900
0.863100 1.665700
0.891500 1.657100
0.919900 1.641700
0.948200 1.627900
0.976600 1.611100
1.005000 1.593900
1.033300 1.593700
1.061700 1.592500
1.090100 1.593500
1.118500 1.618000
1.146800 1.672200
1.175200 1.812900
1.203600 2.052600
1.231900 2.471800
1.260300 1.990700
1.288700 1.965200
1.317100 1.923900
1.345400 1.930800
1.373800 2.077400
1.402200 1.969200
1.430500 2.027200
1.458900 2.088400
1.487300 2.225400
1.515700 2.235700
1.544000 2.284100
1.572400 2.348100
1.600800 2.390400
1.629100 2.399200
1.657500 2.386300
1.685900 2.452900
1.714300 2.492800
1.742600 2.532000
1.771000 2.574900
1.799400 2.633400
1.827700 2.654800
1.856100 2.771400
1.884500 3.005800
1.912900 3.340800
1.941200 3.463100
1.969600 3.385300
1.998000 3.050400
2.026400 2.808500
2.054700 2.703000
2.083100 2.656700
2.111500 2.661600
2.139800 2.762200
2.168200 2.802500
2.196600 2.770300
2.225000 2.817000
2.253300 2.921700
2.281700 3.284500
2.310100 5.446600
2.338400 3.194700
2.366800 3.072200
2.395200 2.951600
2.423600 2.854500
2.451900 2.767200
2.480300 2.748800
2.508700 2.729200
2.537000 2.663800
2.565400 2.580900
2.593800 2.557100
2.622200 2.464600
2.650500 2.399300
2.678900 2.337400
2.707300 2.294800
2.735600 2.263100
2.764000 2.234700
2.792400 2.205700
2.820800 2.172200
2.849100 2.132500
2.877500 2.092200
2.905900 2.063300
2.934200 2.044200
2.962600 2.023700
2.991000 2.002900
3.019400 1.982400
3.047700 1.962100
3.076100 1.975100
3.104500 1.968300
3.132800 1.946300
3.161200 1.927800
3.189600 1.917400
3.218000 1.900400
3.246300 1.879800
3.274700 1.854500
3.303100 1.824100
3.331400 1.819600
3.359800 1.744000
3.388200 1.629800
3.416600 1.530000
3.444900 1.526600
3.473300 1.430800
3.501700 1.323700
3.530000 1.258200
3.558400 1.215500
3.586800 1.163400
3.615200 1.113300
3.643500 1.065000
3.671900 1.019200
3.700300 0.975500
3.728600 0.934500
3.757000 0.887700
3.785400 0.856600
3.813800 0.793000
3.842100 0.731000
3.870500 0.707600
3.898900 0.689800
3.927200 0.671200
3.955600 0.647600
3.984000 0.653700
4.012400 0.608600
4.040700 0.564200
4.069100 0.538200
4.097500 0.512700
4.125800 0.494600
4.154200 0.486200
4.182600 0.468100
4.211000 0.437900
4.239300 0.415100
4.267700 0.377000
4.296100 0.340600
4.324400 0.312700
4.352800 0.308600
4.381200 0.271300
4.409600 0.217500
4.437900 0.168800
4.466300 0.158500
4.494700 0.069800
4.523000 0.000100
4.551400 0.000000
4.579800 0.000000
4.608200 0.000000
4.636500 0.000000
4.664900 0.000000
4.693300 0.000000
4.721600 0.000000
4.750000 0.000000
4.778400 0.000000
4.806800 0.000000
4.835100 0.000000
4.863500 0.000000
4.891900 0.000000
4.920200 0.000000
4.948600 0.000000
4.977000 0.000000
5.005400 0.000000
5.033700 0.000000
5.062100 0.000000
5.090500 0.000000
5.118800 0.000000
5.147200 0.000000
5.175600 0.000000
5.204000 0.000000
5.232300 0.000000
5.260700 0.000000
5.289100 0.000000
5.317400 0.000000
5.345800 0.000000
5.374200 0.000000
5.402600 0.000000
5.430900 0.000000
5.459300 0.000000
5.487700 0.000000
5.516000 0.000000
5.544400 0.000000
5.572800 0.000000
5.601200 0.000000
5.629500 0.000000
5.657900 0.000000
5.686300 0.000000
5.714600 0.000000
5.743000 0.000000
5.771400 0.000000
5.799800 0.000000
5.828100 0.000000
5.856500 0.000000
5.884900 0.000000
5.913200 0.000000
5.941600 0.000000
5.970000 0.000000
5.998400 0.000000
6.026700 0.000000
6.055100 0.000000
6.083500 0.000000
6.111800 0.000000
6.140200 0.000000
6.168600 0.000000
6.197000 0.000000
6.225300 0.000000
6.253700 0.000000
6.282100 0.000000
6.310400 0.000000
6.338800 0.000000
6.367200 0.000000
6.395600 0.000000
6.423900 0.000000
6.452300 0.000000
6.480700 0.000000
6.509000 0.000000
6.537400 0.000000
6.565800 0.000000
6.594200 0.000000
6.622500 0.000000
6.650900 0.000000
6.679300 0.000000
6.707600 0.000000
6.736000 0.000000
6.764400 0.000000
6.792800 0.000000
6.821100 0.000000
6.849500 0.000000
6.877900 0.000000
6.906200 0.000000
6.934600 0.000000
6.963000 0.000000
6.991400 0.000000
7.019700 0.000000
7.048100 0.000000
7.076500 0.000000
7.104900 0.000000
7.133200 0.000000
7.161600 0.000000
7.190000 0.000000
7.218300 0.000000
7.246700 0.000000
7.275100 0.000000
7.303500 0.009500
7.331800 0.022000
7.360200 0.059700
7.388600 0.126500
7.416900 0.205100
7.445300 0.295900
7.473700 0.380600
7.502100 0.438800
7.530400 0.473500
7.558800 0.507500
7.587200 0.527800
7.615500 0.568400
7.643900 0.609100
7.672300 0.646200
7.700700 0.677800
7.729000 0.706800
7.757400 0.727700
7.785800 0.760100
7.814100 0.801600
7.842500 0.863300
7.870900 0.933600
7.899300 1.004400
7.927600 1.071900
7.956000 1.142100
7.984400 1.237800
8.012700 1.325700
8.041100 1.388600
8.069500 1.455400
8.097900 1.521300
8.126200 1.582400
8.154600 1.623600
8.183000 1.695700
8.211300 1.798100
8.239700 1.871600
8.268100 1.888100
8.296500 1.920500
8.324800 1.936400
8.353200 1.954300
8.381600 1.976800
8.409900 1.997100
8.438300 2.023900
8.466700 2.071000
8.495100 2.116600
8.523400 2.176700
8.551800 2.214900
8.580200 2.223500
8.608500 2.208400
8.636900 2.225700
8.665300 2.304500
8.693700 2.320300
8.722000 2.288300
8.750400 2.418900
8.778800 2.202600
8.807100 1.861000
8.835500 1.724800
8.863900 1.641400
8.892300 1.623700
8.920600 1.659300
8.949000 1.703600
8.977400 1.701600
9.005700 1.648900
9.034100 1.596700
9.062500 1.605600
9.090900 1.592900
9.119200 1.485900
9.147600 1.473700
9.176000 1.465500
9.204300 1.450200
9.232700 1.465700
9.261100 1.496000
9.289500 1.529500
9.317800 1.565700
9.346200 1.607100
9.374600 1.606700
9.402900 1.592900
9.431300 1.571400
9.459700 1.569800
9.488100 1.586500
9.516400 1.622200
9.544800 1.504000
9.573200 1.544000
9.601500 1.592200
9.629900 1.638200
9.658300 1.676200
9.686700 1.705800
9.715000 1.723800
9.743400 1.681700
9.771800 1.690800
9.800100 1.741100
9.828500 1.675100
9.856900 1.635100
9.885300 1.597800
9.913600 1.566700
9.942000 1.513100
9.970400 1.438000
9.998700 1.401300
10.027100 1.414300
10.055500 1.292000
10.083900 1.268500
10.112200 1.298200
10.140600 1.348200
10.169000 1.418400
10.197300 1.556600
10.225700 1.696700
10.254100 1.771300
10.282500 1.972800
10.310800 2.206200
10.339200 2.484900
10.367600 2.805200
10.395900 3.004100
10.424300 3.013000
10.452700 2.844500
10.481100 2.547500
10.509400 2.370300
10.537800 2.199500
10.566200 2.038100
10.594500 1.998500
10.622900 2.016600
10.651300 2.033600
10.679700 2.055200
10.708000 2.158300
10.736400 2.272500
10.764800 2.440900
10.793100 2.655200
10.821500 2.755600
10.849900 3.088600
10.878300 3.038100
10.906600 3.006800
10.935000 3.008300
10.963400 2.930200
10.991700 2.834000
11.020100 2.729000
11.048500 2.725000
11.076900 2.754400
11.105200 2.829500
11.133600 2.913800
11.162000 3.106600
11.190300 3.319600
11.218700 3.242600
11.247100 3.425800
11.275500 3.985400
11.303800 4.253200
11.332200 3.919200
11.360600 2.880800
11.388900 2.157400
11.417300 1.724400
11.445700 1.458700
11.474100 1.324800
11.502400 1.257100
11.530800 1.185500
11.559200 1.102400
11.587500 1.031600
11.615900 1.019100
11.644300 0.965900
11.672700 0.907800
11.701000 0.856000
11.729400 0.819000
11.757800 0.759200
11.786100 0.700200
11.814500 0.643400
11.842900 0.590300
11.871300 0.543900
11.899600 0.507000
11.928000 0.476500
11.956400 0.437700
11.984800 0.494200
12.013100 0.902100
12.041500 1.816200
12.069900 1.907000
12.098200 1.777000
12.126600 1.816100
12.155000 1.851000
12.183400 1.940600
12.211700 2.115700
12.240100 2.368500
12.268500 2.912400
12.296800 2.998100
12.325200 2.982500
12.353600 3.271100
12.382000 3.964000
12.410300 4.168000
12.438700 4.284400
12.467100 4.235700
12.495400 3.303800
12.523800 2.657600
12.552200 2.430500
12.580600 2.527100
12.608900 2.315800
12.637300 2.241600
12.665700 2.342100
12.694000 2.335000
12.722400 2.285900
12.750800 2.255700
12.779200 2.282300
12.807500 2.345100
12.835900 2.342700
12.864300 2.408100
12.892600 2.612400
12.921000 2.710600
12.949400 2.597600
12.977800 2.483800
13.006100 2.470100
13.034500 2.641500
13.062900 2.329100
13.091200 2.211100
13.119600 2.142100
13.148000 2.070800
13.176400 1.987400
13.204700 1.942100
13.233100 1.921300
13.261500 1.909500
13.289800 1.918100
13.318200 1.951100
13.346600 2.011500
13.375000 2.075500
13.403300 2.136700
13.431700 2.218100
13.460100 2.242500
13.488400 2.321100
13.516800 2.521100
13.545200 2.895000
13.573600 3.561500
13.601900 3.419200
13.630300 3.051500
13.658700 2.650100
13.687000 2.772100
13.715400 3.236800
13.743800 2.491200
13.772200 2.149100
13.800500 1.862500
13.828900 1.776200
13.857300 1.771900
13.885600 1.826200
13.914000 2.006900
13.942400 2.309100
13.970800 2.364900
13.999100 2.580500
14.027500 2.706100
14.055900 2.860900
14.084200 2.764800
14.112600 2.470000
14.141000 2.335400
14.169400 2.344700
14.197700 2.261400
14.226100 2.086300
14.254500 2.021400
14.282800 1.975800
14.311200 1.942800
14.339600 1.868300
14.368000 1.803000
14.396300 1.754500
14.424700 1.705700
14.453100 1.657000
14.481400 1.604200
14.509800 1.547300
14.538200 1.509600
14.566600 1.493300
14.594900 1.482300
14.623300 1.464300
14.651700 1.450000
14.680000 1.430300
14.708400 1.427000
14.736800 1.424000
14.765200 1.449200
14.793500 1.418700
14.821900 1.398200
14.850300 1.375200
14.878600 1.343900
14.907000 1.335600
14.935400 1.331300
14.963800 1.328100
14.992100 1.323100
15.020500 1.330500
15.048900 1.323800
15.077200 1.315200
15.105600 1.307400
15.134000 1.300600
15.162400 1.302300
15.190700 1.302600
15.219100 1.306700
15.247500 1.307000
15.275800 1.312500
15.304200 1.318000
15.332600 1.341100
15.361000 1.406000
15.389300 1.433900
15.417700 1.434900
15.446100 1.426100
15.474400 1.439000
15.502800 1.445500
15.531200 1.453000
15.559600 1.472400
15.587900 1.499100
15.616300 1.532900
15.644700 1.579100
15.673000 1.648100
15.701400 1.693200
15.729800 1.693500
15.758200 1.621100
15.786500 1.483800
15.814900 1.431700
15.843300 1.379900
15.871600 1.369400
15.900000 1.310600
15.928400 1.159900
15.956800 1.088900
15.985100 0.955700
16.013500 0.928400
16.041900 0.905900
16.070200 0.895300
16.098600 0.873400
16.127000 0.857000
16.155400 0.844100
16.183700 0.828800
16.212100 0.813200
16.240500 0.860500
16.268800 0.984500
16.297200 1.146200
16.325600 1.132800
16.354000 1.134200
16.382300 1.099100
16.410700 1.101000
16.439100 1.131100
16.467400 1.173200
16.495800 1.228800
16.524200 1.299800
16.552600 1.379300
16.580900 1.465400
16.609300 1.562600
16.637700 1.732500
16.666000 1.961100
16.694400 2.317200
16.722800 2.378700
16.751200 2.482500
16.779500 2.618500
16.807900 2.641000
16.836300 2.600400
16.864700 2.808900
16.893000 2.807000
16.921400 2.409100
16.949800 2.313400
16.978100 2.270600
17.006500 2.115700
17.034900 2.084700
17.063300 1.964100
17.091600 2.039000
17.120000 2.175200
17.148400 2.340500
17.176700 2.422500
17.205100 2.913000
17.233500 2.159900
17.261900 2.191000
17.290200 2.149300
17.318600 1.996800
17.347000 1.950900
17.375300 1.919000
17.403700 1.933100
17.432100 1.956100
17.460500 1.804700
17.488800 1.723600
17.517200 1.643300
17.545600 1.605900
17.573900 1.572600
17.602300 1.540800
17.630700 1.507800
17.659100 1.479600
17.687400 1.454700
17.715800 1.450400
17.744200 1.447000
17.772500 1.398700
17.800900 1.392900
17.829300 1.335600
17.857700 1.301600
17.886000 1.273500
17.914400 1.244900
17.942800 1.214900
17.971100 1.187400
17.999500 1.189800
18.027900 1.104400
18.056300 1.090500
18.084600 1.073800
18.113000 1.054600
18.141400 1.042200
18.169700 1.031500
18.198100 1.022300
18.226500 0.978100
18.254900 0.924700
18.283200 0.872200
18.311600 0.848900
18.340000 0.838600
18.368300 0.825800
18.396700 0.810100
18.425100 0.796100
18.453500 0.784400
18.481800 0.776100
18.510200 0.774000
18.538600 0.795200
18.566900 0.837300
18.595300 0.744400
18.623700 0.728300
18.652100 0.716300
18.680400 0.711600
18.708800 0.709300
18.737200 0.707700
18.765500 0.703400
18.793900 0.695600
18.822300 0.675900
18.850700 0.656200
18.879000 0.640300
18.907400 0.638200
18.935800 0.638400
18.964100 0.643500
18.992500 0.667900
19.020900 0.699500
19.049300 0.741100
19.077600 0.957700
19.106000 1.087900
19.134400 1.212400
19.162700 1.256800
19.191100 1.425400
19.219500 1.615300
19.247900 1.559800
19.276200 1.475500
19.304600 1.361200
19.333000 1.261200
19.361300 1.190200
19.389700 1.130400
19.418100 1.097600
19.446500 1.077000
19.474800 1.066300
19.503200 1.060400
19.531600 1.040700
19.559900 1.061200
19.588300 1.178100
19.616700 1.153700
19.645100 1.128700
19.673400 1.158000
19.701800 1.178600
19.730200 1.181500
19.758500 1.179500
19.786900 1.175900
19.815300 1.181100
19.843700 1.255300
19.872000 1.371000
19.900400 1.352300
19.928800 1.406400
19.957100 1.430600
19.985500 1.454800
20.013900 1.470800
20.042300 1.508800
20.070600 1.544200
20.099000 1.582400
20.127400 1.644200
20.155700 1.688400
20.184100 1.737100
20.212500 1.790600
20.240900 1.831900
20.269200 1.901000
20.297600 1.983400
20.326000 2.114400
20.354300 2.163200
20.382700 2.469200
20.411100 2.621100
20.439500 2.711100
20.467800 2.688400
20.496200 2.626000
20.524600 2.519600
20.552900 2.437900
20.581300 2.304600
20.609700 2.208800
20.638100 2.286700
20.666400 2.237100
20.694800 2.109100
20.723200 2.034400
20.751500 1.941000
20.779900 1.944600
20.808300 1.963000
20.836700 1.975800
20.865000 1.980200
20.893400 2.003100
20.921800 2.091700
20.950100 2.863300
20.978500 2.449500
21.006900 1.965900
21.035300 1.857400
21.063600 1.776500
21.092000 1.708300
21.120400 1.631900
21.148700 1.549200
21.177100 1.471100
21.205500 1.403800
21.233900 1.371100
21.262200 1.365500
21.290600 1.373600
21.319000 1.387500
21.347300 1.387100
21.375700 1.380700
21.404100 1.373000
21.432500 1.365200
21.460800 1.356100
21.489200 1.344300
21.517600 1.329300
21.545900 1.332500
21.574300 1.360000
21.602700 1.427800
21.631100 1.566100
21.659400 1.658400
21.687800 1.700600
21.716200 1.651800
21.744500 1.713200
21.772900 1.833600
21.801300 1.924200
21.829700 2.084700
21.858000 2.053400
21.886400 2.043300
21.914800 2.095600
21.943200 2.143900
21.971500 2.195500
21.999900 2.210600
22.028300 2.185300
22.056600 2.174000
22.085000 2.186700
22.113400 2.227600
22.141800 2.277200
22.170100 2.260800
22.198500 2.198300
22.226900 2.197300
22.255200 2.132300
22.283600 2.052000
22.312000 1.989900
22.340400 1.780200
22.368700 1.702400
22.397100 1.634700
22.425500 1.589000
22.453800 1.554700
22.482200 1.469900
22.510600 1.414800
22.539000 1.366900
22.567300 1.362200
22.595700 1.366000
22.624100 1.373200
22.652400 1.384600
22.680800 1.407200
22.709200 1.437000
22.737600 1.459500
22.765900 1.464600
22.794300 1.448700
22.822700 1.445300
22.851000 1.415900
22.879400 1.398000
22.907800 1.385100
22.936200 1.382400
22.964500 1.570300
22.992900 1.425100
23.021300 1.370000
23.049600 1.371900
23.078000 1.376300
23.106400 1.379700
23.134800 1.379800
23.163100 1.386400
23.191500 1.397000
23.219900 1.401100
23.248200 1.411300
23.276600 1.404700
23.305000 1.406100
23.333400 1.416700
23.361700 1.430000
23.390100 1.504500
23.418500 1.528800
23.446800 1.573900
23.475200 1.585200
23.503600 1.588000
23.532000 1.607800
23.560300 1.627100
23.588700 1.627300
23.617100 1.617500
23.645400 1.631000
23.673800 1.632500
23.702200 1.636300
23.730600 1.702900
23.758900 1.807100
23.787300 1.898800
23.815700 2.031500
23.844000 1.854500
23.872400 1.656600
23.900800 1.545800
23.929200 1.481900
23.957500 1.421200
23.985900 1.363800
24.014300 1.302900
24.042600 1.271500
24.071000 1.246400
24.099400 1.225400
24.127800 1.206200
24.156100 1.192700
24.184500 1.193100
24.212900 1.189200
24.241200 1.171900
24.269600 1.162800
24.298000 1.156700
24.326400 1.143700
24.354700 1.136900
24.383100 1.129400
24.411500 1.123600
24.439800 1.117800
24.468200 1.091500
24.496600 1.089900
24.525000 1.090000
24.553300 1.088200
24.581700 1.092700
24.610100 1.086100
24.638400 1.103600
24.666800 1.135700
24.695200 1.156600
24.723600 1.171300
24.751900 1.178800
24.780300 1.192300
24.808700 1.215800
24.837000 1.231200
24.865400 1.248700
24.893800 1.264900
24.922200 1.279600
24.950500 1.300000
24.978900 1.315300
25.007300 1.336800
25.035600 1.382900
25.064000 1.466600
25.092400 1.501100
25.120800 1.519000
25.149100 1.529400
25.177500 1.524500
25.205900 1.519300
25.234200 1.497300
25.262600 1.469200
25.291000 1.459600
25.319400 1.464900
25.347700 1.482100
25.376100 1.518200
25.404500 1.557200
25.432800 1.594700
25.461200 1.626500
25.489600 1.652400
25.518000 1.681900
25.546300 1.730800
25.574700 1.829900
25.603100 2.055500
25.631400 2.352600
25.659800 2.778400
25.688200 3.014200
25.716600 3.180700
25.744900 3.350300
25.773300 3.790900
25.801700 3.232900
25.830000 3.099300
25.858400 3.127900
25.886800 2.779300
25.915200 2.871000
25.943500 2.966500
25.971900 3.251900
26.000300 3.825700
26.028600 4.599900
26.057000 4.169500
26.085400 3.884100
26.113800 3.613500
26.142100 3.536400
26.170500 3.518800
26.198900 3.117000
26.227200 2.774200
26.255600 2.542400
26.284000 2.341500
26.312400 2.261000
26.340700 2.247600
26.369100 2.255000
26.397500 2.305200
26.425800 2.370600
26.454200 2.458100
26.482600 2.393200
26.511000 2.408600
26.539300 2.322500
26.567700 2.352700
26.596100 2.464700
26.624400 2.371200
26.652800 2.254700
26.681200 2.174900
26.709600 2.131400
26.737900 2.063900
26.766300 2.051300
26.794700 2.049700
26.823100 2.079300
26.851400 2.238200
26.879800 2.508300
26.908200 2.924200
26.936500 2.879400
26.964900 2.955100
26.993300 2.898000
27.021700 2.835400
27.050000 2.634100
27.078400 2.410900
27.106800 2.450900
27.135100 2.475200
27.163500 2.493700
27.191900 2.536600
27.220300 2.598800
27.248600 2.662900
27.277000 2.681200
27.305400 2.716500
27.333700 2.751200
27.362100 2.775500
27.390500 2.711000
27.418900 2.695500
27.447200 2.689900
27.475600 2.676200
27.504000 2.773600
27.532300 2.784500
27.560700 2.824300
27.589100 2.813400
27.617500 2.854200
27.645800 2.942900
27.674200 3.037100
27.702600 3.148100
27.730900 3.512800
27.759300 3.722900
27.787700 3.651100
27.816100 3.407300
27.844400 3.259500
27.872800 3.190100
27.901200 3.174600
27.929500 3.165400
27.957900 3.128200
27.986300 3.065200
28.014700 2.881200
28.043000 2.755800
28.071400 2.601800
28.099800 2.519000
28.128100 2.478700
28.156500 2.489100
28.184900 2.561100
28.213300 2.544700
28.241600 2.519300
28.270000 2.604400
28.298400 2.435400
28.326700 2.441800
28.355100 2.425300
28.383500 2.465100
28.411900 2.706300
28.440200 2.778200
28.468600 2.758400
28.497000 2.420300
28.525300 2.342400
28.553700 1.837600
28.582100 1.847000
28.610500 1.864400
28.638800 1.870400
28.667200 1.903900
28.695600 1.947200
28.723900 2.266000
28.752300 2.448700
28.780700 2.481500
28.809100 2.401500
28.837400 2.202600
28.865800 2.064900
28.894200 2.262100
28.922500 2.358300
28.950900 2.194000
28.979300 2.186700
29.007700 2.188800
29.036000 2.228200
29.064400 2.314900
29.092800 2.450800
29.121100 2.365500
29.149500 2.310100
29.177900 2.243200
29.206300 2.191600
29.234600 2.389400
29.263000 2.453900
29.291400 2.359400
29.319700 2.407700
29.348100 2.464700
29.376500 2.495300
29.404900 2.529600
29.433200 2.592400
29.461600 2.563800
29.490000 2.467900
29.518300 2.347500
29.546700 2.389400
29.575100 2.417100
29.603500 2.431700
29.631800 2.483200
29.660200 2.530900
29.688600 2.498600
29.716900 2.572700
29.745300 2.749600
29.773700 3.052600
29.802100 3.103200
29.830400 3.165500
29.858800 3.239100
29.887200 3.351700
29.915500 3.124000
29.943900 2.732100
29.972300 2.425400
30.000700 2.153800
30.029000 2.036800
30.057400 1.977000
30.085800 1.894100
30.114100 1.817200
30.142500 1.778300
30.170900 1.747600
30.199300 1.752200
30.227600 1.822300
30.256000 1.932500
30.284400 2.031600
30.312700 1.891000
30.341100 1.845800
30.369500 1.769300
30.397900 1.691200
30.426200 1.587600
30.454600 1.496100
30.483000 1.495300
30.511300 1.498600
30.539700 1.487200
30.568100 1.547600
30.596500 1.652400
30.624800 1.828900
30.653200 2.052900
30.681600 2.222100
30.709900 2.345200
30.738300 2.439400
30.766700 2.525800
30.795100 2.545700
30.823400 2.404800
30.851800 2.259600
30.880200 2.141600
30.908500 2.071100
30.936900 2.023600
30.965300 1.984900
30.993700 2.011600
31.022000 2.069700
31.050400 2.128600
31.078800 2.201900
31.107100 2.092400
31.135500 2.083400
31.163900 2.029400
31.192300 2.305400
31.220600 1.841900
31.249000 1.750800
31.277400 1.662700
31.305700 1.679500
31.334100 1.738300
31.362500 1.822700
31.390900 1.883700
31.419200 1.925000
31.447600 1.971600
31.476000 2.078200
31.504300 2.239600
31.532700 2.339900
31.561100 2.307600
31.589500 2.187300
31.617800 1.993700
31.646200 1.838700
31.674600 1.723600
31.703000 1.646700
31.731300 1.602300
31.759700 1.574300
31.788100 1.541200
31.816400 1.497400
31.844800 1.459100
31.873200 1.418900
31.901600 1.404300
31.929900 1.393700
31.958300 1.390800
31.986700 1.391400
32.015000 1.418500
32.043400 1.456600
32.071800 1.490700
32.100200 1.529700
32.128500 1.574200
32.156900 1.631200
32.185300 1.703600
32.213600 1.729000
32.242000 1.773700
32.270400 1.827200
32.298800 1.892600
32.327100 2.083600
32.355500 2.122100
32.383900 2.084800
32.412200 1.999500
32.440600 2.025100
32.469000 2.007700
32.497400 1.957600
32.525700 1.947000
32.554100 1.834800
32.582500 1.769100
32.610800 1.793900
32.639200 1.919100
32.667600 2.106600
32.696000 2.095700
32.724300 2.118500
32.752700 2.150400
32.781100 2.202500
32.809400 2.270500
32.837800 2.343300
32.866200 2.251100
32.894600 2.212300
32.922900 2.194000
32.951300 2.130700
32.979700 2.131100
33.008000 2.178900
33.036400 2.263400
33.064800 2.339100
33.093200 2.135900
33.121500 2.096800
33.149900 2.060500
33.178300 2.067100
33.206600 1.941400
33.235000 1.842800
33.263400 1.915400
33.291800 2.122100
33.320100 2.208200
33.348500 2.241300
33.376900 2.238400
33.405200 2.221400
33.433600 2.207300
33.462000 2.046400
33.490400 1.978200
33.518700 1.865500
33.547100 1.812700
33.575500 1.772200
33.603800 1.764200
33.632200 1.768500
33.660600 1.817100
33.689000 1.966100
33.717300 2.111200
33.745700 2.223600
33.774100 2.363800
33.802400 2.373800
33.830800 2.347100
33.859200 2.341700
33.887600 2.345900
33.915900 2.144700
33.944300 2.084200
33.972700 2.171800
34.001000 2.565100
34.029400 2.574400
34.057800 2.245800
34.086200 2.010100
34.114500 1.980800
34.142900 2.055300
34.171300 2.010900
34.199600 1.996900
34.228000 2.008300
34.256400 2.088900
34.284800 2.259500
34.313100 2.447900
34.341500 2.647100
34.369900 2.801600
34.398200 3.101700
34.426600 2.857300
34.455000 2.714500
34.483400 2.656300
34.511700 2.640900
34.540100 2.635200
34.568500 2.642700
34.596800 2.549900
34.625200 2.451100
34.653600 2.406400
34.682000 2.383000
34.710300 2.837000
34.738700 2.678500
34.767100 2.716900
34.795400 2.863500
34.823800 3.057500
34.852200 3.336100
34.880600 3.239200
34.908900 3.081600
34.937300 2.940500
34.965700 3.045900
34.994000 3.236600
35.022400 2.827200
35.050800 2.675400
35.079200 2.581800
35.107500 2.493000
35.135900 2.572000
35.164300 2.529400
35.192600 2.493400
35.221000 2.453800
35.249400 2.354200
35.277800 2.364800
35.306100 2.375700
35.334500 2.421100
35.362900 2.337100
35.391200 2.374200
35.419600 2.446100
35.448000 2.551700
35.476400 2.589500
35.504700 2.562700
35.533100 2.547100
35.561500 2.425600
35.589800 2.324300
35.618200 2.243500
35.646600 2.133300
35.675000 2.077300
35.703300 2.027000
35.731700 1.985200
35.760100 1.969200
35.788400 1.982400
35.816800 1.990100
35.845200 1.996000
35.873600 2.022900
35.901900 1.989600
35.930300 1.908400
35.958700 1.817200
35.987000 1.800800
36.015400 1.712900
36.043800 1.640100
36.072200 1.587900
36.100500 1.556800
36.128900 1.541100
36.157300 1.542600
36.185600 1.573300
36.214000 1.594800
36.242400 1.612600
36.270800 1.627800
36.299100 1.621600
36.327500 1.612400
36.355900 1.961200
36.384200 2.070800
36.412600 2.137800
36.441000 2.024300
36.469400 1.944700
36.497700 1.910300
36.526100 1.918500
36.554500 1.924200
36.582800 1.944600
36.611200 1.999600
36.639600 2.048100
36.668000 2.101200
36.696300 2.150000
36.724700 2.152800
36.753100 2.375800
36.781500 2.382700
36.809800 2.421700
36.838200 2.285100
36.866600 2.278400
36.894900 2.356200
36.923300 2.380500
36.951700 2.362400
36.980100 2.320600
37.008400 2.306300
37.036800 2.242500
37.065200 2.199800
37.093500 2.087200
37.121900 2.059100
37.150300 2.115600
37.178700 2.196000
37.207000 2.262500
37.235400 2.282200
37.263800 2.261500
37.292100 2.256400
37.320500 2.207600
37.348900 2.174200
37.377300 2.131000
37.405600 2.088600
37.434000 2.070300
37.462400 2.112900
37.490700 2.067200
37.519100 2.008000
37.547500 1.965600
37.575900 2.041000
37.604200 2.094200
37.632600 2.155500
37.661000 2.138200
37.689300 2.132200
37.717700 2.129300
37.746100 2.151700
37.774500 2.202300
37.802800 2.246000
37.831200 2.288400
37.859600 2.352400
37.887900 2.463100
37.916300 2.325500
37.944700 2.274900
37.973100 2.220300
38.001400 2.088500
38.029800 1.946500
38.058200 1.822800
38.086500 1.790100
38.114900 1.721100
38.143300 1.625900
38.171700 1.452100
38.200000 1.323500
38.228400 1.210100
38.256800 1.115800
38.285100 1.034200
38.313500 0.958700
38.341900 0.937500
38.370300 0.917100
38.398600 0.857700
38.427000 0.757200
38.455400 0.668800
38.483700 0.600000
38.512100 0.525300
38.540500 0.472000
38.568900 0.445300
38.597200 0.416000
38.625600 0.384100
38.654000 0.354400
38.682300 0.324400
38.710700 0.293300
38.739100 0.265600
38.767500 0.241900
38.795800 0.224000
38.824200 0.208600
38.852600 0.195600
38.880900 0.183600
38.909300 0.173500
38.937700 0.165100
38.966100 0.158600
38.994400 0.153000
39.022800 0.147800
39.051200 0.143100
39.079500 0.138500
39.107900 0.134000
39.136300 0.129600
39.164700 0.125200
39.193000 0.121000
39.221400 0.116900
39.249800 0.112800
39.278100 0.109100
39.306500 0.105500
39.334900 0.102200
39.363300 0.096600
39.391600 0.094800
39.420000 0.093100
39.448400 0.091300
39.476700 0.089600
39.505100 0.087400
39.533500 0.084400
39.561900 0.082400
39.590200 0.080400
39.618600 0.078300
39.647000 0.076300
39.675300 0.073900
39.703700 0.071500
39.732100 0.069000
39.760500 0.066800
39.788800 0.064900
39.817200 0.063200
39.845600 0.061600
39.873900 0.060100
39.902300 0.058500
39.930700 0.056500
39.959100 0.054600
39.987400 0.052600
40.015800 0.050800
40.044200 0.048900
40.072500 0.047100
40.100900 0.045300
40.129300 0.043500
40.157700 0.041700
40.186000 0.040000
40.214400 0.038300
40.242800 0.061000
40.271100 0.049700
40.299500 0.038900
40.327900 0.028700
40.356300 0.019100
40.384600 0.019400
40.413000 0.022700
40.441400 0.025900
40.469700 0.028800
40.498100 0.031400
40.526500 0.033800
40.554900 0.036000
40.583200 0.000000
40.611600 0.000000
40.640000 0.000000
40.668300 0.000000
40.696700 0.000000
40.725100 0.000000
40.753500 0.000000
40.781800 0.000000
40.810200 0.000000
40.838600 0.000000
40.866900 0.000000
40.895300 0.000000
40.923700 0.000000
40.952100 0.000000
40.980400 0.000000
41.008800 0.000000
41.037200 0.000000
41.065500 0.000000
41.093900 0.000000
41.122300 0.000000
41.150700 0.000000
41.179000 0.000000
41.207400 0.000000
41.235800 0.000000
41.264100 0.000000
41.292500 0.000000
41.320900 0.000000
41.349300 0.000000
41.377600 0.000000
41.406000 0.000000
41.434400 0.000000
41.462700 0.000000
41.491100 0.000000
41.519500 0.000000
41.547900 0.000000
41.576200 0.000000
41.604600 0.000000
41.633000 0.000000
41.661400 0.000000
41.689700 0.000000
41.718100 0.000000
41.746500 0.000000
41.774800 0.000000
41.803200 0.000000
41.831600 0.000000
41.860000 0.000000
41.888300 0.000000
41.916700 0.000000
41.945100 0.000000
41.973400 0.000000
42.001800 0.000000
42.030200 0.000000
42.058600 0.000000
42.086900 0.000000
42.115300 0.000000
42.143700 0.000000
42.172000 0.000000
42.200400 0.000000
42.228800 0.000000
42.257200 0.000000
42.285500 0.000000
42.313900 0.000000
42.342300 0.000000
42.370600 0.000000
42.399000 0.000000
42.427400 0.000000
42.455800 0.000000
42.484100 0.000000
42.512500 0.000000
42.540900 0.000000
42.569200 0.000000
42.597600 0.000000
42.626000 0.000000
42.654400 0.000000
42.682700 0.000000
42.711100 0.000000
42.739500 0.000000
42.767800 0.000000
42.796200 0.000000
42.824600 0.000000
42.853000 0.000000
42.881300 0.000000
42.909700 0.000000
42.938100 0.000000
42.966400 0.000000
42.994800 0.000000
43.023200 0.000000
43.051600 0.000000
43.079900 0.000000
43.108300 0.000000
43.136700 0.000000
e
