set title 'mp-1184014 - Density of States'
set xlabel 'Energy (eV)'
set ylabel 'DOS (states/eV)'
set grid
set xrange [-10:10]
set yrange [0:115.885]
set xzeroaxis lt -1
set terminal png size 800,600
set output 'mp-1184014_dos_gnuplot.png'
plot '-' using 1:2 with lines title 'DOS'
-13.291500 0.000000
-13.269300 0.000000
-13.247200 0.000000
-13.225100 0.000000
-13.202900 0.000000
-13.180800 0.000000
-13.158600 0.000000
-13.136500 0.000000
-13.114300 0.000000
-13.092200 0.000000
-13.070100 0.000000
-13.047900 0.000000
-13.025800 0.000000
-13.003600 0.000000
-12.981500 0.000000
-12.959300 0.000000
-12.937200 0.000000
-12.915100 0.000000
-12.892900 0.000000
-12.870800 0.000000
-12.848600 0.000000
-12.826500 0.000000
-12.804300 0.000000
-12.782200 0.000000
-12.760100 0.000000
-12.737900 0.000000
-12.715800 0.000000
-12.693600 0.000000
-12.671500 0.000000
-12.649300 0.000000
-12.627200 0.000000
-12.605100 0.000000
-12.582900 0.000000
-12.560800 0.000000
-12.538600 0.000000
-12.516500 0.000000
-12.494300 0.000000
-12.472200 0.000000
-12.450100 0.000000
-12.427900 0.000000
-12.405800 0.000000
-12.383600 0.000000
-12.361500 0.000000
-12.339400 0.000000
-12.317200 0.000000
-12.295100 0.000000
-12.272900 0.000000
-12.250800 0.000000
-12.228600 0.000000
-12.206500 0.000000
-12.184400 0.000000
-12.162200 0.000000
-12.140100 0.000000
-12.117900 0.000000
-12.095800 0.000000
-12.073600 0.000000
-12.051500 0.000000
-12.029400 0.000000
-12.007200 0.000000
-11.985100 0.000000
-11.962900 0.000000
-11.940800 0.000000
-11.918600 0.000000
-11.896500 0.000000
-11.874400 0.000000
-11.852200 0.000000
-11.830100 0.000000
-11.807900 0.000000
-11.785800 0.000000
-11.763600 0.000000
-11.741500 0.000000
-11.719400 0.000000
-11.697200 0.000000
-11.675100 0.000000
-11.652900 0.000000
-11.630800 0.000000
-11.608600 0.000000
-11.586500 0.000000
-11.564400 0.000000
-11.542200 0.000000
-11.520100 0.000000
-11.497900 0.000000
-11.475800 0.000000
-11.453700 0.000000
-11.431500 0.000000
-11.409400 0.000100
-11.387200 0.001700
-11.365100 0.014000
-11.342900 0.081900
-11.320800 0.344900
-11.298700 1.067300
-11.276500 2.529400
-11.254400 4.929700
-11.232200 8.751600
-11.210100 15.317000
-11.187900 26.134000
-11.165800 40.822200
-11.143700 56.114000
-11.121500 68.051600
-11.099400 75.455500
-11.077200 80.219900
-11.055100 83.866600
-11.032900 85.983900
-11.010800 87.089400
-10.988700 89.555200
-10.966500 93.525700
-10.944400 95.338200
-10.922200 92.123200
-10.900100 85.242500
-10.877900 77.288700
-10.855800 67.442300
-10.833700 52.920400
-10.811500 34.794600
-10.789400 18.426800
-10.767200 7.806400
-10.745100 2.675500
-10.722900 0.746600
-10.700800 0.166800
-10.678700 0.028800
-10.656500 0.003700
-10.634400 0.000300
-10.612200 0.000000
-10.590100 0.000000
-10.568000 0.000000
-10.545800 0.000000
-10.523700 0.000000
-10.501500 0.000000
-10.479400 0.000000
-10.457200 0.000000
-10.435100 0.000000
-10.413000 0.000000
-10.390800 0.000000
-10.368700 0.000000
-10.346500 0.000000
-10.324400 0.000000
-10.302200 0.000000
-10.280100 0.000000
-10.258000 0.000000
-10.235800 0.000000
-10.213700 0.000000
-10.191500 0.000000
-10.169400 0.000000
-10.147200 0.000000
-10.125100 0.000000
-10.103000 0.000000
-10.080800 0.000000
-10.058700 0.000000
-10.036500 0.000000
-10.014400 0.000000
-9.992200 0.000000
-9.970100 0.000000
-9.948000 0.000000
-9.925800 0.000000
-9.903700 0.000000
-9.881500 0.000000
-9.859400 0.000000
-9.837200 0.000000
-9.815100 0.000000
-9.793000 0.000000
-9.770800 0.000000
-9.748700 0.000000
-9.726500 0.000000
-9.704400 0.000000
-9.682300 0.000000
-9.660100 0.000000
-9.638000 0.000000
-9.615800 0.000000
-9.593700 0.000000
-9.571500 0.000000
-9.549400 0.000000
-9.527300 0.000000
-9.505100 0.000000
-9.483000 0.000000
-9.460800 0.000000
-9.438700 0.000000
-9.416500 0.000000
-9.394400 0.000000
-9.372300 0.000000
-9.350100 0.000000
-9.328000 0.000000
-9.305800 0.000000
-9.283700 0.000000
-9.261500 0.000000
-9.239400 0.000000
-9.217300 0.000000
-9.195100 0.000000
-9.173000 0.000000
-9.150800 0.000000
-9.128700 0.000000
-9.106500 0.000000
-9.084400 0.000000
-9.062300 0.000000
-9.040100 0.000000
-9.018000 0.000000
-8.995800 0.000100
-8.973700 0.002900
-8.951500 0.039700
-8.929400 0.377500
-8.907300 2.464000
-8.885100 11.049700
-8.863000 34.057900
-8.840800 72.171300
-8.818700 105.158200
-8.796600 105.349800
-8.774400 72.550200
-8.752300 34.330800
-8.730100 11.156500
-8.708000 2.488100
-8.685800 0.380500
-8.663700 0.039900
-8.641600 0.002900
-8.619400 0.000100
-8.597300 0.000000
-8.575100 0.000000
-8.553000 0.000000
-8.530800 0.000000
-8.508700 0.000000
-8.486600 0.000000
-8.464400 0.000000
-8.442300 0.000000
-8.420100 0.000000
-8.398000 0.000000
-8.375800 0.000000
-8.353700 0.000000
-8.331600 0.000000
-8.309400 0.000000
-8.287300 0.000000
-8.265100 0.000000
-8.243000 0.000000
-8.220800 0.000000
-8.198700 0.000000
-8.176600 0.000000
-8.154400 0.000000
-8.132300 0.000000
-8.110100 0.000000
-8.088000 0.000000
-8.065800 0.000000
-8.043700 0.000000
-8.021600 0.000000
-7.999400 0.000000
-7.977300 0.000000
-7.955100 0.000000
-7.933000 0.000000
-7.910900 0.000000
-7.888700 0.000000
-7.866600 0.000000
-7.844400 0.000000
-7.822300 0.000000
-7.800100 0.000000
-7.778000 0.000000
-7.755900 0.000000
-7.733700 0.000000
-7.711600 0.000000
-7.689400 0.000000
-7.667300 0.000000
-7.645100 0.000000
-7.623000 0.000000
-7.600900 0.000000
-7.578700 0.000000
-7.556600 0.000000
-7.534400 0.000000
-7.512300 0.000000
-7.490100 0.000000
-7.468000 0.000000
-7.445900 0.000000
-7.423700 0.000000
-7.401600 0.000000
-7.379400 0.000000
-7.357300 0.000000
-7.335100 0.000000
-7.313000 0.000000
-7.290900 0.000000
-7.268700 0.000000
-7.246600 0.000000
-7.224400 0.000000
-7.202300 0.000000
-7.180100 0.000000
-7.158000 0.000000
-7.135900 0.000000
-7.113700 0.000000
-7.091600 0.000000
-7.069400 0.000000
-7.047300 0.000000
-7.025200 0.000000
-7.003000 0.000000
-6.980900 0.000000
-6.958700 0.000000
-6.936600 0.000000
-6.914400 0.000000
-6.892300 0.000000
-6.870200 0.000000
-6.848000 0.000000
-6.825900 0.000000
-6.803700 0.000000
-6.781600 0.000000
-6.759400 0.000000
-6.737300 0.000000
-6.715200 0.000000
-6.693000 0.000000
-6.670900 0.000000
-6.648700 0.000000
-6.626600 0.000000
-6.604400 0.000000
-6.582300 0.000000
-6.560200 0.000000
-6.538000 0.000000
-6.515900 0.000000
-6.493700 0.000000
-6.471600 0.000000
-6.449400 0.000000
-6.427300 0.000000
-6.405200 0.000000
-6.383000 0.000000
-6.360900 0.000000
-6.338700 0.000000
-6.316600 0.000000
-6.294400 0.000000
-6.272300 0.000000
-6.250200 0.000000
-6.228000 0.000000
-6.205900 0.000000
-6.183700 0.000000
-6.161600 0.000000
-6.139500 0.000000
-6.117300 0.000000
-6.095200 0.000000
-6.073000 0.000000
-6.050900 0.000000
-6.028700 0.000000
-6.006600 0.000000
-5.984500 0.000000
-5.962300 0.000000
-5.940200 0.000000
-5.918000 0.000000
-5.895900 0.000000
-5.873700 0.000000
-5.851600 0.000000
-5.829500 0.000000
-5.807300 0.000000
-5.785200 0.000000
-5.763000 0.000000
-5.740900 0.000000
-5.718700 0.000000
-5.696600 0.000000
-5.674500 0.000000
-5.652300 0.000000
-5.630200 0.000000
-5.608000 0.000000
-5.585900 0.000000
-5.563700 0.000000
-5.541600 0.000000
-5.519500 0.000000
-5.497300 0.000000
-5.475200 0.000000
-5.453000 0.000000
-5.430900 0.000000
-5.408700 0.000000
-5.386600 0.000100
-5.364500 0.000800
-5.342300 0.003800
-5.320200 0.012900
-5.298000 0.031900
-5.275900 0.060000
-5.253800 0.093100
-5.231600 0.131400
-5.209500 0.185900
-5.187300 0.270800
-5.165200 0.365900
-5.143000 0.398900
-5.120900 0.326100
-5.098800 0.207300
-5.076600 0.152200
-5.054500 0.220900
-5.032300 0.382800
-5.010200 0.537900
-4.988000 0.600600
-4.965900 0.584100
-4.943800 0.576100
-4.921600 0.619900
-4.899500 0.636800
-4.877300 0.530800
-4.855200 0.349800
-4.833000 0.234900
-4.810900 0.250300
-4.788800 0.364200
-4.766600 0.535300
-4.744500 0.716300
-4.722300 0.827800
-4.700200 0.842800
-4.678000 0.843400
-4.655900 0.888700
-4.633800 0.891100
-4.611600 0.740000
-4.589500 0.488400
-4.567300 0.313300
-4.545200 0.331900
-4.523000 0.523200
-4.500900 0.783300
-4.478800 1.002400
-4.456600 1.098800
-4.434500 1.058200
-4.412300 0.954400
-4.390200 0.859200
-4.368100 0.774600
-4.345900 0.687700
-4.323800 0.625900
-4.301600 0.627200
-4.279500 0.692700
-4.257300 0.799000
-4.235200 0.907500
-4.213100 0.958100
-4.190900 0.954200
-4.168800 1.006600
-4.146600 1.168200
-4.124500 1.305600
-4.102300 1.237800
-4.080200 0.968100
-4.058100 0.741900
-4.035900 0.831300
-4.013800 1.229200
-3.991600 1.610000
-3.969500 1.661100
-3.947300 1.391100
-3.925200 1.049500
-3.903100 0.830500
-3.880900 0.732000
-3.858800 0.652300
-3.836600 0.545300
-3.814500 0.465600
-3.792300 0.498500
-3.770200 0.675500
-3.748100 0.945600
-3.725900 1.223100
-3.703800 1.472300
-3.681600 1.705100
-3.659500 1.904600
-3.637300 1.991900
-3.615200 1.859800
-3.593100 1.486500
-3.570900 1.043800
-3.548800 0.784000
-3.526600 0.798900
-3.504500 0.967000
-3.482400 1.125000
-3.460200 1.220100
-3.438100 1.265100
-3.415900 1.240100
-3.393800 1.121600
-3.371600 0.936600
-3.349500 0.748400
-3.327400 0.629600
-3.305200 0.624400
-3.283100 0.683500
-3.260900 0.699300
-3.238800 0.671400
-3.216600 0.715700
-3.194500 0.874000
-3.172400 1.083700
-3.150200 1.303700
-3.128100 1.492400
-3.105900 1.545800
-3.083800 1.406600
-3.061600 1.168400
-3.039500 0.998100
-3.017400 0.976700
-2.995200 1.030500
-2.973100 1.019900
-2.950900 0.905600
-2.928800 0.803900
-2.906600 0.857900
-2.884500 1.125100
-2.862400 1.560100
-2.840200 1.980700
-2.818100 2.177500
-2.795900 2.138500
-2.773800 1.987600
-2.751600 1.812300
-2.729500 1.672600
-2.707400 1.593500
-2.685200 1.548400
-2.663100 1.523800
-2.640900 1.519400
-2.618800 1.493700
-2.596700 1.394900
-2.574500 1.225600
-2.552400 1.095000
-2.530200 1.189900
-2.508100 1.529300
-2.485900 1.837900
-2.463800 1.891200
-2.441700 1.776300
-2.419500 1.615700
-2.397400 1.391500
-2.375200 1.213600
-2.353100 1.328700
-2.330900 1.702900
-2.308800 1.956600
-2.286700 1.851300
-2.264500 1.537300
-2.242400 1.250300
-2.220200 1.101500
-2.198100 1.158200
-2.175900 1.420200
-2.153800 1.726500
-2.131700 1.858400
-2.109500 1.750800
-2.087400 1.531100
-2.065200 1.352000
-2.043100 1.311100
-2.020900 1.461700
-1.998800 1.732100
-1.976700 1.948900
-1.954500 2.035900
-1.932400 2.103600
-1.910200 2.289400
-1.888100 2.525100
-1.865900 2.552600
-1.843800 2.207500
-1.821700 1.642400
-1.799500 1.236700
-1.777400 1.259800
-1.755200 1.645600
-1.733100 2.088900
-1.711000 2.351500
-1.688800 2.448700
-1.666700 2.459500
-1.644500 2.381500
-1.622400 2.309800
-1.600200 2.396100
-1.578100 2.566700
-1.556000 2.600600
-1.533800 2.459100
-1.511700 2.286700
-1.489500 2.145800
-1.467400 1.989500
-1.445200 1.834400
-1.423100 1.756900
-1.401000 1.778500
-1.378800 1.873700
-1.356700 2.036800
-1.334500 2.222400
-1.312400 2.284000
-1.290200 2.167500
-1.268100 2.068900
-1.246000 2.168800
-1.223800 2.350200
-1.201700 2.408100
-1.179500 2.369000
-1.157400 2.342000
-1.135200 2.247900
-1.113100 2.010600
-1.091000 1.803600
-1.068800 1.790800
-1.046700 1.820700
-1.024500 1.651700
-1.002400 1.341400
-0.980200 1.188000
-0.958100 1.318400
-0.936000 1.491300
-0.913800 1.425200
-0.891700 1.189000
-0.869500 1.025600
-0.847400 0.972400
-0.825300 0.910100
-0.803100 0.806400
-0.781000 0.731400
-0.758800 0.709700
-0.736700 0.677500
-0.714500 0.605000
-0.692400 0.538900
-0.670300 0.495200
-0.648100 0.437500
-0.626000 0.365600
-0.603800 0.323300
-0.581700 0.340800
-0.559500 0.427400
-0.537400 0.561300
-0.515300 0.664800
-0.493100 0.662500
-0.471000 0.561600
-0.448800 0.440500
-0.426700 0.370900
-0.404500 0.360900
-0.382400 0.365900
-0.360300 0.337100
-0.338100 0.266800
-0.316000 0.194300
-0.293800 0.153700
-0.271700 0.139600
-0.249500 0.134600
-0.227400 0.129100
-0.205300 0.114800
-0.183100 0.085600
-0.161000 0.049400
-0.138800 0.021000
-0.116700 0.006400
-0.094500 0.001900
-0.072400 0.003800
-0.050300 0.016800
-0.028100 0.052900
-0.006000 0.114300
0.016200 0.170000
0.038300 0.178600
0.060400 0.149900
0.082600 0.142500
0.104700 0.188900
0.126900 0.274100
0.149000 0.396700
0.171200 0.570500
0.193300 0.738000
0.215400 0.791500
0.237600 0.724900
0.259700 0.657600
0.281900 0.678000
0.304000 0.742700
0.326200 0.776500
0.348300 0.834300
0.370400 1.052400
0.392600 1.432700
0.414700 1.779600
0.436900 1.908400
0.459000 1.872100
0.481200 1.822500
0.503300 1.722200
0.525400 1.473000
0.547600 1.165000
0.569700 0.953100
0.591900 0.916300
0.614000 1.137800
0.636200 1.649100
0.658300 2.252500
0.680400 2.684900
0.702600 2.932400
0.724700 3.083400
0.746900 3.082500
0.769000 2.917100
0.791200 2.769700
0.813300 2.756500
0.835400 2.705200
0.857600 2.431400
0.879700 2.094000
0.901900 1.974400
0.924000 2.062900
0.946100 2.106700
0.968300 1.925300
0.990400 1.542800
1.012600 1.113600
1.034700 0.832700
1.056900 0.834600
1.079000 1.095300
1.101100 1.428900
1.123300 1.590700
1.145400 1.474000
1.167600 1.209800
1.189700 0.969900
1.211900 0.779000
1.234000 0.616700
1.256100 0.533300
1.278300 0.560900
1.300400 0.633800
1.322600 0.661700
1.344700 0.627500
1.366900 0.596700
1.389000 0.625500
1.411100 0.666400
1.433300 0.621600
1.455400 0.481100
1.477600 0.349700
1.499700 0.338600
1.521900 0.453000
1.544000 0.590100
1.566100 0.635500
1.588300 0.548600
1.610400 0.377500
1.632600 0.210300
1.654700 0.106600
1.676900 0.068800
1.699000 0.071500
1.721100 0.106200
1.743300 0.184800
1.765400 0.290800
1.787600 0.357400
1.809700 0.329200
1.831800 0.226200
1.854000 0.116400
1.876100 0.048300
1.898300 0.028700
1.920400 0.045000
1.942600 0.076600
1.964700 0.099900
1.986800 0.108900
2.009000 0.121500
2.031100 0.139200
2.053300 0.133900
2.075400 0.095600
2.097600 0.056100
2.119700 0.059000
2.141800 0.132800
2.164000 0.268700
2.186100 0.404400
2.208300 0.478500
2.230400 0.490100
2.252600 0.446700
2.274700 0.336300
2.296800 0.198000
2.319000 0.107100
2.341100 0.085700
2.363300 0.092300
2.385400 0.087500
2.407600 0.083200
2.429700 0.135200
2.451800 0.288800
2.474000 0.521500
2.496100 0.745800
2.518300 0.890500
2.540400 0.968600
2.562600 1.051800
2.584700 1.175900
2.606800 1.261200
2.629000 1.174700
2.651100 0.916300
2.673300 0.673100
2.695400 0.607100
2.717500 0.652300
2.739700 0.635500
2.761800 0.534900
2.784000 0.485900
2.806100 0.590900
2.828300 0.816700
2.850400 1.012000
2.872500 1.034300
2.894700 0.921500
2.916800 0.851100
2.939000 0.890900
2.961100 0.928700
2.983300 0.869200
3.005400 0.758600
3.027500 0.717400
3.049700 0.833500
3.071800 1.077100
3.094000 1.325800
3.116100 1.505500
3.138300 1.613200
3.160400 1.642700
3.182500 1.613200
3.204700 1.590400
3.226800 1.622000
3.249000 1.679600
3.271100 1.665900
3.293300 1.573600
3.315400 1.582200
3.337500 1.787000
3.359700 1.960200
3.381800 1.836200
3.404000 1.495400
3.426100 1.267700
3.448300 1.349000
3.470400 1.620000
3.492500 1.815900
3.514700 1.801100
3.536800 1.662900
3.559000 1.569800
3.581100 1.596000
3.603200 1.708200
3.625400 1.836500
3.647500 1.927400
3.669700 1.998000
3.691800 2.110000
3.714000 2.244400
3.736100 2.277300
3.758200 2.138600
3.780400 1.963000
3.802500 1.964100
3.824700 2.142800
3.846800 2.316600
3.869000 2.476900
3.891100 2.839100
3.913200 3.457700
3.935400 4.094700
3.957500 4.564100
3.979700 4.814900
4.001800 4.640500
4.024000 3.886900
4.046100 2.943800
4.068200 2.408200
4.090400 2.358300
4.112500 2.432200
4.134700 2.415000
4.156800 2.410700
4.179000 2.561000
4.201100 2.814200
4.223200 3.042700
4.245400 3.240800
4.267500 3.435700
4.289700 3.533200
4.311800 3.379500
4.334000 2.981500
4.356100 2.647800
4.378200 2.684200
4.400400 2.931400
4.422500 2.940800
4.444700 2.587600
4.466800 2.184100
4.488900 2.037200
4.511100 2.136400
4.533200 2.260400
4.555400 2.257900
4.577500 2.162800
4.599700 2.068600
4.621800 2.001800
4.643900 1.942300
4.666100 1.908000
4.688200 1.989600
4.710400 2.246500
4.732500 2.540300
4.754700 2.598500
4.776800 2.319700
4.798900 1.907000
4.821100 1.652100
4.843200 1.701800
4.865400 2.041000
4.887500 2.523900
4.909700 2.887000
4.931800 2.939300
4.953900 2.779600
4.976100 2.659000
4.998200 2.626700
5.020400 2.450600
5.042500 1.993100
5.064700 1.501300
5.086800 1.300000
5.108900 1.374800
5.131100 1.471200
5.153200 1.480000
5.175400 1.555900
5.197500 1.838700
5.219700 2.176300
5.241800 2.283100
5.263900 2.105000
5.286100 1.811200
5.308200 1.564900
5.330400 1.483300
5.352500 1.565700
5.374600 1.589100
5.396800 1.389700
5.418900 1.182500
5.441100 1.304600
5.463200 1.745100
5.485400 2.138100
5.507500 2.181400
5.529600 1.926000
5.551800 1.622300
5.573900 1.448500
5.596100 1.426900
5.618200 1.437700
5.640400 1.332200
5.662500 1.175200
5.684600 1.291600
5.706800 1.893300
5.728900 2.681100
5.751100 3.077600
5.773200 2.968000
5.795400 2.857800
5.817500 3.118800
5.839600 3.497000
5.861800 3.561500
5.883900 3.290100
5.906100 2.959900
5.928200 2.691300
5.950400 2.403900
5.972500 2.101900
5.994600 1.918600
6.016800 1.937500
6.038900 2.089500
6.061100 2.165200
6.083200 2.010900
6.105400 1.719200
6.127500 1.442300
6.149600 1.175800
6.171800 0.931600
6.193900 0.891700
6.216100 1.224300
6.238200 1.851400
6.260300 2.460800
6.282500 2.742800
6.304600 2.598400
6.326800 2.184500
6.348900 1.840700
6.371100 1.839700
6.393200 2.119600
6.415300 2.353700
6.437500 2.318000
6.459600 2.106300
6.481800 1.917600
6.503900 1.782100
6.526100 1.625600
6.548200 1.439600
6.570300 1.264000
6.592500 1.103100
6.614600 0.963800
6.636800 0.927900
6.658900 1.099400
6.681100 1.469000
6.703200 1.861500
6.725300 2.083700
6.747500 2.134100
6.769600 2.215100
6.791800 2.525400
6.813900 3.018200
6.836100 3.400900
6.858200 3.445500
6.880300 3.218700
6.902500 2.969100
6.924600 2.908200
6.946800 3.075900
6.968900 3.303500
6.991100 3.281100
7.013200 2.788300
7.035300 1.982700
7.057500 1.289100
7.079600 0.975600
7.101800 1.040200
7.123900 1.363000
7.146000 1.740200
7.168200 1.981900
7.190300 2.152200
7.212500 2.437200
7.234600 2.756200
7.256800 2.870100
7.278900 2.818600
7.301000 2.871200
7.323200 3.052200
7.345300 3.095900
7.367500 2.938300
7.389600 2.836300
7.411800 2.971300
7.433900 3.227300
7.456000 3.245200
7.478200 2.703100
7.500300 1.754300
7.522500 0.952700
7.544600 0.661200
7.566800 0.794900
7.588900 1.074100
7.611000 1.323100
7.633200 1.531200
7.655300 1.738100
7.677500 1.973000
7.699600 2.281400
7.721800 2.648900
7.743900 2.919700
7.766000 2.920400
7.788200 2.650000
7.810300 2.344400
7.832500 2.327800
7.854600 2.701300
7.876800 3.187100
7.898900 3.410500
7.921000 3.317800
7.943200 3.123800
7.965300 2.935000
7.987500 2.674500
8.009600 2.324200
8.031700 2.074000
8.053900 2.183200
8.076000 2.660300
8.098200 3.089400
8.120300 3.017600
8.142500 2.579600
8.164600 2.371100
8.186700 2.685600
8.208900 3.219900
8.231000 3.572600
8.253200 3.780100
8.275300 4.072300
8.297500 4.325900
8.319600 4.264700
8.341700 3.961900
8.363900 3.677500
8.386000 3.473000
8.408200 3.285500
8.430300 3.080300
8.452500 2.821600
8.474600 2.552100
8.496700 2.432500
8.518900 2.534000
8.541000 2.725100
8.563200 2.859600
8.585300 2.957200
8.607500 3.051400
8.629600 2.969800
8.651700 2.542500
8.673900 1.956200
8.696000 1.614400
8.718200 1.682700
8.740300 1.982500
8.762500 2.286000
8.784600 2.519600
8.806700 2.687900
8.828900 2.760000
8.851000 2.720200
8.873200 2.666500
8.895300 2.715000
8.917400 2.826500
8.939600 2.868000
8.961700 2.788100
8.983900 2.632100
9.006000 2.474600
9.028200 2.431700
9.050300 2.663100
9.072400 3.213300
9.094600 3.845100
9.116700 4.165600
9.138900 3.994800
9.161000 3.559100
9.183200 3.236600
9.205300 3.184800
9.227400 3.321900
9.249600 3.557300
9.271700 3.829000
9.293900 3.958900
9.316000 3.774700
9.338200 3.395900
9.360300 3.122000
9.382400 3.078100
9.404600 3.159100
9.426700 3.231300
9.448900 3.252600
9.471000 3.229700
9.493200 3.160900
9.515300 3.032900
9.537400 2.834700
9.559600 2.609500
9.581700 2.462300
9.603900 2.429400
9.626000 2.449400
9.648200 2.508300
9.670300 2.602400
9.692400 2.601900
9.714600 2.441400
9.736700 2.333900
9.758900 2.476200
9.781000 2.728900
9.803100 2.875800
9.825300 2.949500
9.847400 3.041500
9.869600 3.046000
9.891700 2.838500
9.913900 2.503300
9.936000 2.203900
9.958100 2.034700
9.980300 2.070900
10.002400 2.332800
10.024600 2.684200
10.046700 2.957000
10.068900 3.166700
10.091000 3.383000
10.113100 3.482900
10.135300 3.307300
10.157400 2.913400
10.179600 2.516100
10.201700 2.302700
10.223900 2.335900
10.246000 2.562000
10.268100 2.852300
10.290300 3.029100
10.312400 2.944200
10.334600 2.623000
10.356700 2.263600
10.378900 2.030700
10.401000 1.928500
10.423100 1.891600
10.445300 1.907500
10.467400 2.025000
10.489600 2.249800
10.511700 2.469600
10.533900 2.582000
10.556000 2.634900
10.578100 2.680900
10.600300 2.642500
10.622400 2.534000
10.644600 2.508100
10.666700 2.514100
10.688800 2.360100
10.711000 2.194800
10.733100 2.456600
10.755300 3.216100
10.777400 3.914200
10.799600 3.980200
10.821700 3.447400
10.843800 2.754200
10.866000 2.261800
10.888100 2.089100
10.910300 2.139500
10.932400 2.225200
10.954600 2.254000
10.976700 2.312600
10.998800 2.533400
11.021000 2.794200
11.043100 2.720400
11.065300 2.199900
11.087400 1.630000
11.109600 1.477800
11.131700 1.772500
11.153800 2.102300
11.176000 2.097300
11.198100 1.853900
11.220300 1.726500
11.242400 1.826100
11.264600 1.965100
11.286700 1.953800
11.308800 1.808700
11.331000 1.748800
11.353100 1.974200
11.375300 2.436100
11.397400 2.880900
11.419600 3.094900
11.441700 3.052200
11.463800 2.848000
11.486000 2.591300
11.508100 2.372000
11.530300 2.227300
11.552400 2.142300
11.574500 2.090200
11.596700 2.038200
11.618800 1.985200
11.641000 1.986100
11.663100 2.041200
11.685300 2.018700
11.707400 1.803000
11.729500 1.477400
11.751700 1.239000
11.773800 1.192400
11.796000 1.377300
11.818100 1.858800
11.840300 2.561300
11.862400 3.129100
11.884500 3.202300
11.906700 2.796300
11.928800 2.257100
11.951000 1.900500
11.973100 1.783000
11.995300 1.780200
12.017400 1.816200
12.039500 1.927500
12.061700 2.082200
12.083800 2.111800
12.106000 1.939300
12.128100 1.691400
12.150300 1.523600
12.172400 1.506100
12.194500 1.637000
12.216700 1.835400
12.238800 1.998500
12.261000 2.131700
12.283100 2.357000
12.305300 2.734600
12.327400 3.071000
12.349500 3.025400
12.371700 2.528800
12.393800 1.891400
12.416000 1.438500
12.438100 1.319600
12.460200 1.529700
12.482400 1.844600
12.504500 1.947900
12.526700 1.773100
12.548800 1.549700
12.571000 1.509400
12.593100 1.646300
12.615200 1.727300
12.637400 1.584300
12.659500 1.378300
12.681700 1.408700
12.703800 1.733300
12.726000 2.168900
12.748100 2.543200
12.770200 2.771800
12.792400 2.838000
12.814500 2.829900
12.836700 2.820500
12.858800 2.714600
12.881000 2.460000
12.903100 2.265400
12.925200 2.309800
12.947400 2.409300
12.969500 2.255100
12.991700 1.866600
13.013800 1.593200
13.036000 1.677400
13.058100 1.957400
13.080200 2.121300
13.102400 2.114400
13.124500 2.068400
13.146700 2.019100
13.168800 1.952300
13.191000 1.961000
13.213100 2.101600
13.235200 2.232100
13.257400 2.217100
13.279500 2.163700
13.301700 2.237000
13.323800 2.367800
13.345900 2.369700
13.368100 2.253300
13.390200 2.207400
13.412400 2.300200
13.434500 2.395200
13.456700 2.375500
13.478800 2.257700
13.500900 2.123100
13.523100 2.093200
13.545200 2.255300
13.567400 2.554400
13.589500 2.891500
13.611700 3.261400
13.633800 3.640700
13.655900 3.881600
13.678100 3.869800
13.700200 3.662000
13.722400 3.380300
13.744500 3.076300
13.766700 2.752100
13.788800 2.439800
13.810900 2.199300
13.833100 2.059800
13.855200 1.964500
13.877400 1.826000
13.899500 1.694100
13.921700 1.706900
13.943800 1.804900
13.965900 1.760800
13.988100 1.551000
14.010200 1.404500
14.032400 1.460400
14.054500 1.679100
14.076700 2.026300
14.098800 2.412900
14.120900 2.610800
14.143100 2.541500
14.165200 2.486000
14.187400 2.730900
14.209500 3.088300
14.231600 3.107300
14.253800 2.711400
14.275900 2.195400
14.298100 1.742300
14.320200 1.418900
14.342400 1.402000
14.364500 1.848600
14.386600 2.675100
14.408800 3.519900
14.430900 3.942000
14.453100 3.807100
14.475200 3.409300
14.497400 3.138100
14.519500 3.124100
14.541600 3.169600
14.563800 3.014700
14.585900 2.749100
14.608100 2.776300
14.630200 3.218900
14.652400 3.634900
14.674500 3.554400
14.696600 3.060300
14.718800 2.603300
14.740900 2.469700
14.763100 2.625900
14.785200 2.841800
14.807400 2.847800
14.829500 2.591700
14.851600 2.347700
14.873800 2.430400
14.895900 2.869800
14.918100 3.459900
14.940200 4.017100
14.962400 4.469400
14.984500 4.803700
15.006600 4.909100
15.028800 4.481300
15.050900 3.483900
15.073100 2.538600
15.095200 2.288600
15.117300 2.632600
15.139500 2.974700
15.161600 2.951400
15.183800 2.702100
15.205900 2.613200
15.228100 2.852000
15.250200 3.156500
15.272300 3.214100
15.294500 3.089300
15.316600 3.051100
15.338800 3.140900
15.360900 3.168400
15.383100 3.100300
15.405200 3.123800
15.427300 3.282500
15.449500 3.389000
15.471600 3.338900
15.493800 3.285300
15.515900 3.411000
15.538100 3.617200
15.560200 3.653000
15.582300 3.555600
15.604500 3.649900
15.626600 4.028300
15.648800 4.344500
15.670900 4.263900
15.693100 3.906100
15.715200 3.610000
15.737300 3.430700
15.759500 3.227900
15.781600 3.090500
15.803800 3.266200
15.825900 3.718300
15.848100 4.065200
15.870200 4.007300
15.892300 3.648300
15.914500 3.370800
15.936600 3.388300
15.958800 3.491900
15.980900 3.393700
16.003000 3.114100
16.025200 2.840800
16.047300 2.683300
16.069500 2.649400
16.091600 2.637800
16.113800 2.538900
16.135900 2.432600
16.158000 2.500700
16.180200 2.743400
16.202300 2.947600
16.224500 2.962300
16.246600 2.946800
16.268800 3.183200
16.290900 3.634100
16.313000 3.957500
16.335200 3.946400
16.357300 3.658400
16.379500 3.226000
16.401600 2.787500
16.423800 2.436800
16.445900 2.126400
16.468000 1.794200
16.490200 1.571500
16.512300 1.642500
16.534500 1.870000
16.556600 1.858300
16.578800 1.503200
16.600900 1.130500
16.623000 1.041200
16.645200 1.247900
16.667300 1.621900
16.689500 2.100900
16.711600 2.702700
16.733800 3.319000
16.755900 3.665000
16.778000 3.561400
16.800200 3.136000
16.822300 2.708900
16.844500 2.523400
16.866600 2.560500
16.888700 2.639200
16.910900 2.702000
16.933000 2.869900
16.955200 3.164900
16.977300 3.338900
16.999500 3.154000
17.021600 2.720800
17.043700 2.327300
17.065900 2.090900
17.088000 1.982600
17.110200 1.989300
17.132300 2.095200
17.154500 2.249700
17.176600 2.400500
17.198700 2.487300
17.220900 2.496300
17.243000 2.509000
17.265200 2.559600
17.287300 2.565400
17.309500 2.487400
17.331600 2.394600
17.353700 2.348700
17.375900 2.384300
17.398000 2.588200
17.420200 3.038500
17.442300 3.634800
17.464500 4.086100
17.486600 4.113800
17.508700 3.652200
17.530900 2.897600
17.553000 2.217500
17.575200 1.951400
17.597300 2.191100
17.619500 2.748300
17.641600 3.291700
17.663700 3.501700
17.685900 3.275500
17.708000 2.883500
17.730200 2.759900
17.752300 3.061800
17.774400 3.509700
17.796600 3.706900
17.818700 3.563000
17.840900 3.281400
17.863000 3.052200
17.885200 2.937600
17.907300 2.950100
17.929400 3.150800
17.951600 3.593700
17.973700 4.094800
17.995900 4.320400
18.018000 4.242000
18.040200 4.163200
18.062300 4.238100
18.084400 4.293200
18.106600 4.107900
18.128700 3.657400
18.150900 3.107200
18.173000 2.651100
18.195200 2.364000
18.217300 2.214900
18.239400 2.181700
18.261600 2.315900
18.283700 2.638100
18.305900 2.965600
18.328000 3.023700
18.350200 2.798300
18.372300 2.604900
18.394400 2.708100
18.416600 3.018400
18.438700 3.258600
18.460900 3.329900
18.483000 3.421800
18.505200 3.768600
18.527300 4.345900
18.549400 4.810900
18.571600 4.766100
18.593700 4.155600
18.615900 3.342100
18.638000 2.764500
18.660100 2.628200
18.682300 2.870000
18.704400 3.244900
18.726600 3.440400
18.748700 3.268800
18.770900 2.860000
18.793000 2.558800
18.815100 2.575700
18.837300 2.883300
18.859400 3.367700
18.881600 3.906800
18.903700 4.378300
18.925900 4.629900
18.948000 4.554300
18.970100 4.323600
18.992300 4.272800
19.014400 4.464700
19.036600 4.712200
19.058700 4.938100
19.080900 5.093300
19.103000 4.963600
19.125100 4.504200
19.147300 4.097600
19.169400 4.133400
19.191600 4.553100
19.213700 5.005400
19.235900 5.192600
19.258000 4.987100
19.280100 4.567600
19.302300 4.369400
19.324400 4.531900
19.346600 4.621200
19.368700 4.232200
19.390900 3.596700
19.413000 3.231500
19.435100 3.243800
19.457300 3.382900
19.479400 3.502000
19.501600 3.608500
19.523700 3.755500
19.545800 4.071100
19.568000 4.568200
19.590100 4.988100
19.612300 5.105900
19.634400 4.995000
19.656600 4.884900
19.678700 4.955500
19.700800 5.207500
19.723000 5.415000
19.745100 5.361900
19.767300 5.138500
19.789400 5.011900
19.811600 5.030900
19.833700 4.959400
19.855800 4.635000
19.878000 4.222500
19.900100 4.002600
19.922300 4.029200
19.944400 4.116500
19.966600 4.094900
19.988700 4.026700
20.010800 4.131700
20.033000 4.435300
20.055100 4.644400
20.077300 4.508300
20.099400 4.125100
20.121600 3.799800
20.143700 3.766200
20.165800 4.117700
20.188000 4.860000
20.210100 5.756100
20.232300 6.210200
20.254400 5.795500
20.276600 4.840700
20.298700 4.013100
20.320800 3.532400
20.343000 3.216900
20.365100 2.980900
20.387300 2.951200
20.409400 3.240600
20.431500 3.748400
20.453700 4.240600
20.475800 4.587500
20.498000 4.804300
20.520100 4.913800
20.542300 4.893200
20.564400 4.770500
20.586500 4.668200
20.608700 4.689500
20.630800 4.843200
20.653000 5.038100
20.675100 5.104100
20.697300 4.958700
20.719400 4.738100
20.741500 4.617700
20.763700 4.574900
20.785800 4.429900
20.808000 4.057100
20.830100 3.532700
20.852300 3.151100
20.874400 3.228000
20.896500 3.748100
20.918700 4.328000
20.940800 4.592900
20.963000 4.439500
20.985100 4.022500
21.007300 3.667800
21.029400 3.682900
21.051500 4.066900
21.073700 4.459200
21.095800 4.528900
21.118000 4.307100
21.140100 4.046300
21.162300 3.939200
21.184400 4.042600
21.206500 4.319900
21.228700 4.652600
21.250800 4.934500
21.273000 5.222800
21.295100 5.602700
21.317200 5.955600
21.339400 6.113500
21.361500 6.076100
21.383700 5.882100
21.405800 5.563500
21.428000 5.296000
21.450100 5.188800
21.472200 5.014500
21.494400 4.530500
21.516500 3.913200
21.538700 3.604700
21.560800 3.795500
21.583000 4.215900
21.605100 4.488100
21.627200 4.572100
21.649400 4.646900
21.671500 4.682500
21.693700 4.548100
21.715800 4.343100
21.738000 4.210000
21.760100 4.110500
21.782200 3.981700
21.804400 3.853800
21.826500 3.757600
21.848700 3.665600
21.870800 3.648300
21.893000 3.931000
21.915100 4.526800
21.937200 5.058200
21.959400 5.212400
21.981500 4.988100
22.003700 4.483100
22.025800 3.966700
22.048000 3.887400
22.070100 4.360100
22.092200 4.961400
22.114400 5.206000
22.136500 4.988000
22.158700 4.568900
22.180800 4.309300
22.202900 4.328800
22.225100 4.442800
22.247200 4.516000
22.269400 4.636500
22.291500 4.895200
22.313700 5.218700
22.335800 5.401300
22.357900 5.254500
22.380100 4.797200
22.402200 4.260600
22.424400 3.860900
22.446500 3.668000
22.468700 3.794600
22.490800 4.475500
22.512900 5.597100
22.535100 6.447900
22.557200 6.377800
22.579400 5.431200
22.601500 4.221200
22.623700 3.465100
22.645800 3.422400
22.667900 3.679800
22.690100 3.759500
22.712200 3.704500
22.734400 3.776100
22.756500 3.956300
22.778700 4.105800
22.800800 4.366900
22.822900 5.004300
22.845100 5.874000
22.867200 6.398400
22.889400 6.171800
22.911500 5.418500
22.933700 4.722000
22.955800 4.411900
22.977900 4.439300
23.000100 4.648600
23.022200 4.835600
23.044400 4.767800
23.066500 4.425100
23.088600 4.046900
23.110800 3.872500
23.132900 3.953000
23.155100 4.132100
23.177200 4.171500
23.199400 4.003600
23.221500 3.824700
23.243600 3.875300
23.265800 4.194900
23.287900 4.649400
23.310100 5.091000
23.332200 5.367900
23.354400 5.359400
23.376500 5.136100
23.398600 4.901300
23.420800 4.807700
23.442900 5.007200
23.465100 5.567400
23.487200 6.206600
23.509400 6.529600
23.531500 6.414400
23.553600 5.906100
23.575800 5.160500
23.597900 4.574700
23.620100 4.446700
23.642200 4.572800
23.664400 4.544500
23.686500 4.216800
23.708600 3.739500
23.730800 3.410300
23.752900 3.489700
23.775100 3.947600
23.797200 4.455800
23.819400 4.665300
23.841500 4.478800
23.863600 4.171600
23.885800 4.089000
23.907900 4.167400
23.930100 4.122100
23.952200 4.026800
23.974300 4.203300
23.996500 4.663000
24.018600 5.088900
24.040800 5.230700
24.062900 5.072800
24.085100 4.733900
24.107200 4.440300
24.129300 4.546300
24.151500 5.227100
24.173600 6.099600
24.195800 6.479500
24.217900 6.088400
24.240100 5.312400
24.262200 4.789900
24.284300 4.895000
24.306500 5.450900
24.328600 5.836300
24.350800 5.610000
24.372900 4.987200
24.395100 4.467500
24.417200 4.174900
24.439300 3.895000
24.461500 3.627500
24.483600 3.638900
24.505800 4.070800
24.527900 4.798600
24.550100 5.486100
24.572200 5.773600
24.594300 5.604400
24.616500 5.211200
24.638600 4.794800
24.660800 4.499800
24.682900 4.514200
24.705100 4.819000
24.727200 5.071600
24.749300 4.992100
24.771500 4.656900
24.793600 4.364400
24.815800 4.374400
24.837900 4.677700
24.860000 4.943100
24.882200 4.911000
24.904300 4.757900
24.926500 4.836000
24.948600 5.213000
24.970800 5.535500
24.992900 5.368900
25.015000 4.782800
25.037200 4.335200
25.059300 4.427800
25.081500 5.014700
25.103600 5.793000
25.125800 6.362100
25.147900 6.427200
25.170000 6.048200
25.192200 5.472500
25.214300 4.818500
25.236500 4.203700
25.258600 3.853500
25.280800 3.836700
25.302900 4.003700
25.325000 4.275700
25.347200 4.735700
25.369300 5.345300
25.391500 5.846100
25.413600 6.057300
25.435800 5.997500
25.457900 5.725100
25.480000 5.316200
25.502200 4.889800
25.524300 4.483800
25.546500 4.034200
25.568600 3.597800
25.590800 3.445000
25.612900 3.782800
25.635000 4.521800
25.657200 5.399400
25.679300 6.136900
25.701500 6.491900
25.723600 6.439400
25.745700 6.204000
25.767900 5.937900
25.790000 5.683700
25.812200 5.617400
25.834300 5.828000
25.856500 6.044000
25.878600 5.936600
25.900700 5.438000
25.922900 4.739400
25.945000 4.211100
25.967200 4.132600
25.989300 4.401700
26.011500 4.708600
26.033600 4.841600
26.055700 4.674600
26.077900 4.188600
26.100000 3.606300
26.122200 3.267300
26.144300 3.375500
26.166500 3.874800
26.188600 4.510500
26.210700 5.082300
26.232900 5.540800
26.255000 5.775200
26.277200 5.614500
26.299300 5.136200
26.321500 4.700700
26.343600 4.625200
26.365700 4.902600
26.387900 5.225600
26.410000 5.315700
26.432200 5.140300
26.454300 4.793100
26.476500 4.374400
26.498600 3.988500
26.520700 3.713700
26.542900 3.615400
26.565000 3.784400
26.587200 4.218300
26.609300 4.723700
26.631400 5.079500
26.653600 5.167500
26.675700 4.912000
26.697900 4.325200
26.720000 3.617000
26.742200 3.069800
26.764300 2.800200
26.786400 2.729900
26.808600 2.772000
26.830700 2.909800
26.852900 3.065400
26.875000 3.130800
26.897200 3.180700
26.919300 3.319800
26.941400 3.373000
26.963600 3.154500
26.985700 2.840200
27.007900 2.651900
27.030000 2.516400
27.052200 2.336400
27.074300 2.240000
27.096400 2.386900
27.118600 2.748400
27.140700 3.112100
27.162900 3.215200
27.185000 3.003700
27.207200 2.737400
27.229300 2.646000
27.251400 2.639100
27.273600 2.562400
27.295700 2.475900
27.317900 2.446800
27.340000 2.345400
27.362200 2.077800
27.384300 1.792700
27.406400 1.699500
27.428600 1.831300
27.450700 2.073000
27.472900 2.281700
27.495000 2.335100
27.517100 2.177300
27.539300 1.851100
27.561400 1.461700
27.583600 1.130500
27.605700 0.959200
27.627900 0.955800
27.650000 0.997700
27.672100 0.949500
27.694300 0.813500
27.716400 0.688200
27.738600 0.605700
27.760700 0.506600
27.782900 0.366000
27.805000 0.250200
27.827100 0.218300
27.849300 0.246000
27.871400 0.287700
27.893600 0.330100
27.915700 0.352300
27.937900 0.314100
27.960000 0.215600
27.982100 0.109000
28.004300 0.039600
28.026400 0.010200
28.048600 0.002400
28.070700 0.003200
28.092900 0.011500
28.115000 0.033300
28.137100 0.074800
28.159300 0.133700
28.181400 0.186600
28.203600 0.195600
28.225700 0.147900
28.247900 0.078600
28.270000 0.029000
28.292100 0.007300
28.314300 0.001300
28.336400 0.000200
28.358600 0.000000
28.380700 0.000100
28.402800 0.000600
28.425000 0.003400
28.447100 0.013500
28.469300 0.037000
28.491400 0.069200
28.513600 0.088400
28.535700 0.077400
28.557800 0.046300
28.580000 0.019000
28.602100 0.005300
28.624300 0.001000
28.646400 0.000100
28.668600 0.000000
28.690700 0.000000
28.712800 0.000000
28.735000 0.000000
28.757100 0.000000
28.779300 0.000000
28.801400 0.000000
28.823600 0.000000
28.845700 0.000000
28.867800 0.000100
28.890000 0.000800
28.912100 0.003800
28.934300 0.012400
28.956400 0.027500
28.978600 0.041600
29.000700 0.043000
29.022800 0.030500
29.045000 0.014800
29.067100 0.004900
29.089300 0.001100
29.111400 0.000200
29.133600 0.000000
29.155700 0.000000
29.177800 0.000000
29.200000 0.000000
29.222100 0.000000
29.244300 0.000000
29.266400 0.000000
29.288500 0.000000
29.310700 0.000000
29.332800 0.000000
29.355000 0.000000
29.377100 0.000000
29.399300 0.000000
29.421400 0.000000
29.443500 0.000000
29.465700 0.000000
29.487800 0.000000
29.510000 0.000000
29.532100 0.000000
29.554300 0.000000
29.576400 0.000000
29.598500 0.000000
29.620700 0.000000
29.642800 0.000000
29.665000 0.000000
29.687100 0.000000
29.709300 0.000000
29.731400 0.000000
29.753500 0.000000
29.775700 0.000000
29.797800 0.000000
29.820000 0.000000
29.842100 0.000000
29.864300 0.000000
29.886400 0.000000
29.908500 0.000000
29.930700 0.000000
29.952800 0.000000
29.975000 0.000000
29.997100 0.000000
30.019300 0.000000
30.041400 0.000000
30.063500 0.000000
30.085700 0.000000
30.107800 0.000000
30.130000 0.000000
30.152100 0.000000
30.174200 0.000000
30.196400 0.000000
30.218500 0.000000
30.240700 0.000000
30.262800 0.000000
30.285000 0.000000
30.307100 0.000000
30.329200 0.000000
30.351400 0.000000
30.373500 0.000000
30.395700 0.000000
30.417800 0.000000
30.440000 0.000000
30.462100 0.000000
30.484200 0.000000
30.506400 0.000000
30.528500 0.000000
30.550700 0.000000
30.572800 0.000000
30.595000 0.000000
30.617100 0.000000
30.639200 0.000000
30.661400 0.000000
30.683500 0.000000
30.705700 0.000000
30.727800 0.000000
30.750000 0.000000
30.772100 0.000000
30.794200 0.000000
30.816400 0.000000
30.838500 0.000000
30.860700 0.000000
30.882800 0.000000
30.905000 0.000000
30.927100 0.000000
30.949200 0.000000
30.971400 0.000000
30.993500 0.000000
e
