set title 'mp-1652 - Density of States'
set xlabel 'Energy (eV)'
set ylabel 'DOS (states/eV)'
set grid
set xrange [-10:10]
set yrange [0:19.150]
set xzeroaxis lt -1
set terminal png size 800,600
set output 'mp-1652_dos_gnuplot.png'
plot '-' using 1:2 with lines title 'DOS'
-6.411300 0.000000
-6.394300 0.000000
-6.377300 0.000000
-6.360300 0.000000
-6.343300 0.000000
-6.326200 0.000000
-6.309200 0.000000
-6.292200 0.000000
-6.275200 0.000000
-6.258200 0.000000
-6.241100 0.000000
-6.224100 0.000000
-6.207100 0.000000
-6.190100 0.000000
-6.173100 0.000000
-6.156100 0.000000
-6.139000 0.000000
-6.122000 0.000000
-6.105000 0.000000
-6.088000 0.000000
-6.071000 0.000000
-6.053900 0.000000
-6.036900 0.000000
-6.019900 0.000000
-6.002900 0.000000
-5.985900 0.000000
-5.968800 0.000000
-5.951800 0.000000
-5.934800 0.000000
-5.917800 0.000000
-5.900800 0.000000
-5.883700 0.000000
-5.866700 0.000000
-5.849700 0.000000
-5.832700 0.000000
-5.815700 0.000000
-5.798700 0.000000
-5.781600 0.000000
-5.764600 0.000000
-5.747600 0.000000
-5.730600 0.000000
-5.713600 0.000000
-5.696500 0.000000
-5.679500 0.000000
-5.662500 0.000000
-5.645500 0.000000
-5.628500 0.000000
-5.611400 0.000000
-5.594400 0.000000
-5.577400 0.000000
-5.560400 0.000000
-5.543400 0.000000
-5.526400 0.000000
-5.509300 0.000000
-5.492300 0.000000
-5.475300 0.000000
-5.458300 0.000000
-5.441300 0.000000
-5.424200 0.000000
-5.407200 0.000000
-5.390200 0.000000
-5.373200 0.000000
-5.356200 0.000000
-5.339100 0.000000
-5.322100 0.000000
-5.305100 0.000000
-5.288100 0.000000
-5.271100 0.000000
-5.254000 0.000000
-5.237000 0.000000
-5.220000 0.000000
-5.203000 0.000000
-5.186000 0.000000
-5.169000 0.000000
-5.151900 0.000000
-5.134900 0.000000
-5.117900 0.000000
-5.100900 0.000000
-5.083900 0.000000
-5.066800 0.000000
-5.049800 0.000000
-5.032800 0.000000
-5.015800 0.000000
-4.998800 0.000000
-4.981700 0.000000
-4.964700 0.000000
-4.947700 0.000000
-4.930700 0.000000
-4.913700 0.000000
-4.896600 0.000000
-4.879600 0.000000
-4.862600 0.000000
-4.845600 0.004000
-4.828600 0.014600
-4.811600 0.030400
-4.794500 0.041500
-4.777500 0.045800
-4.760500 0.046800
-4.743500 0.050100
-4.726500 0.055600
-4.709400 0.061800
-4.692400 0.068400
-4.675400 0.074400
-4.658400 0.078100
-4.641400 0.079400
-4.624300 0.080700
-4.607300 0.083300
-4.590300 0.086600
-4.573300 0.090000
-4.556300 0.093400
-4.539200 0.096700
-4.522200 0.099900
-4.505200 0.103200
-4.488200 0.106900
-4.471200 0.111000
-4.454200 0.114600
-4.437100 0.117200
-4.420100 0.119000
-4.403100 0.120900
-4.386100 0.123300
-4.369100 0.125900
-4.352000 0.128400
-4.335000 0.130800
-4.318000 0.133200
-4.301000 0.135600
-4.284000 0.138400
-4.266900 0.141500
-4.249900 0.144600
-4.232900 0.147800
-4.215900 0.151100
-4.198900 0.154400
-4.181900 0.157700
-4.164800 0.160800
-4.147800 0.163500
-4.130800 0.165700
-4.113800 0.167900
-4.096800 0.170300
-4.079700 0.173100
-4.062700 0.176000
-4.045700 0.179000
-4.028700 0.182100
-4.011700 0.185200
-3.994600 0.188400
-3.977600 0.191700
-3.960600 0.195000
-3.943600 0.198400
-3.926600 0.201900
-3.909500 0.205300
-3.892500 0.208800
-3.875500 0.212300
-3.858500 0.215800
-3.841500 0.220200
-3.824500 0.224800
-3.807400 0.229600
-3.790400 0.234400
-3.773400 0.239300
-3.756400 0.244300
-3.739400 0.249500
-3.722300 0.254900
-3.705300 0.260400
-3.688300 0.265900
-3.671300 0.271600
-3.654300 0.277400
-3.637200 0.283500
-3.620200 0.290400
-3.603200 0.298200
-3.586200 0.306800
-3.569200 0.315700
-3.552100 0.324900
-3.535100 0.334600
-3.518100 0.345100
-3.501100 0.357200
-3.484100 0.370100
-3.467100 0.383100
-3.450000 0.396600
-3.433000 0.412600
-3.416000 0.436700
-3.399000 0.463800
-3.382000 0.491000
-3.364900 0.520500
-3.347900 0.723300
-3.330900 0.862900
-3.313900 0.983700
-3.296900 1.139600
-3.279800 1.340800
-3.262800 1.968600
-3.245800 3.210500
-3.228800 4.600700
-3.211800 5.270100
-3.194700 5.743900
-3.177700 6.383200
-3.160700 6.948800
-3.143700 7.549800
-3.126700 8.042700
-3.109700 8.654700
-3.092600 9.912700
-3.075600 11.635100
-3.058600 12.844000
-3.041600 13.601700
-3.024600 14.027000
-3.007500 14.358200
-2.990500 13.697300
-2.973500 13.713600
-2.956500 14.200200
-2.939500 17.409000
-2.922400 15.900700
-2.905400 14.642500
-2.888400 14.584000
-2.871400 13.483800
-2.854400 12.335800
-2.837400 12.855300
-2.820300 12.292900
-2.803300 12.704600
-2.786300 15.099200
-2.769300 15.971000
-2.752300 16.197200
-2.735200 14.494900
-2.718200 13.505200
-2.701200 14.157300
-2.684200 13.465100
-2.667200 16.224000
-2.650100 16.561000
-2.633100 15.013400
-2.616100 13.600400
-2.599100 15.781200
-2.582100 12.585200
-2.565000 9.317400
-2.548000 7.765200
-2.531000 8.559100
-2.514000 9.252200
-2.497000 9.263100
-2.480000 8.093300
-2.462900 6.558800
-2.445900 5.539500
-2.428900 4.803500
-2.411900 4.706600
-2.394900 3.455200
-2.377800 2.619600
-2.360800 1.908900
-2.343800 1.701100
-2.326800 1.596600
-2.309800 1.572500
-2.292700 1.464100
-2.275700 1.414600
-2.258700 1.470000
-2.241700 1.330400
-2.224700 0.503500
-2.207600 0.497800
-2.190600 0.493900
-2.173600 0.490900
-2.156600 0.488600
-2.139600 0.487000
-2.122600 0.485800
-2.105500 0.485000
-2.088500 0.484500
-2.071500 0.484300
-2.054500 0.484600
-2.037500 0.485100
-2.020400 0.486200
-2.003400 0.487800
-1.986400 0.489300
-1.969400 0.491500
-1.952400 0.494100
-1.935300 0.496900
-1.918300 0.500000
-1.901300 0.503100
-1.884300 0.506600
-1.867300 0.510200
-1.850200 0.514000
-1.833200 0.518000
-1.816200 0.522200
-1.799200 0.526500
-1.782200 0.530900
-1.765200 0.535500
-1.748100 0.541800
-1.731100 0.549100
-1.714100 0.557000
-1.697100 0.564900
-1.680100 0.572900
-1.663000 0.581200
-1.646000 0.590000
-1.629000 0.599400
-1.612000 0.609300
-1.595000 0.619800
-1.577900 0.630900
-1.560900 0.642500
-1.543900 0.654600
-1.526900 0.667700
-1.509900 0.684400
-1.492900 0.706600
-1.475800 0.731700
-1.458800 0.757800
-1.441800 0.783900
-1.424800 0.811900
-1.407800 0.842200
-1.390700 0.873700
-1.373700 0.906200
-1.356700 0.939800
-1.339700 0.974000
-1.322700 1.032000
-1.305600 0.934300
-1.288600 0.899200
-1.271600 0.869700
-1.254600 0.862700
-1.237600 0.873400
-1.220500 0.883600
-1.203500 0.888600
-1.186500 0.890000
-1.169500 0.895900
-1.152500 0.905100
-1.135500 0.916000
-1.118400 0.928800
-1.101400 0.952100
-1.084400 0.980000
-1.067400 1.003700
-1.050400 1.019500
-1.033300 1.027800
-1.016300 1.036500
-0.999300 1.047300
-0.982300 1.113900
-0.965300 1.187800
-0.948200 1.260700
-0.931200 1.420200
-0.914200 1.363600
-0.897200 1.319700
-0.880200 1.275100
-0.863100 1.237500
-0.846100 1.206000
-0.829100 1.180800
-0.812100 1.150800
-0.795100 1.129400
-0.778100 1.117400
-0.761000 1.107300
-0.744000 1.104200
-0.727000 1.096700
-0.710000 1.090000
-0.693000 1.087100
-0.675900 1.100900
-0.658900 1.132100
-0.641900 1.163600
-0.624900 1.123600
-0.607900 1.155800
-0.590800 1.346500
-0.573800 1.396100
-0.556800 1.698400
-0.539800 2.477300
-0.522800 2.656300
-0.505700 3.082900
-0.488700 1.990800
-0.471700 1.029100
-0.454700 0.660000
-0.437700 0.506600
-0.420700 0.424500
-0.403600 0.366700
-0.386600 0.423800
-0.369600 0.204100
-0.352600 0.260400
-0.335600 0.305400
-0.318500 0.323100
-0.301500 0.320800
-0.284500 0.314200
-0.267500 0.334600
-0.250500 0.360100
-0.233400 0.407000
-0.216400 0.460900
-0.199400 0.494200
-0.182400 0.523100
-0.165400 0.547700
-0.148400 0.579300
-0.131300 0.613500
-0.114300 0.650600
-0.097300 0.682200
-0.080300 0.707000
-0.063300 0.740500
-0.046200 0.788500
-0.029200 0.838700
-0.012200 0.868600
0.004800 0.907600
0.021800 0.946400
0.038900 1.057300
0.055900 1.106100
0.072900 1.090700
0.089900 1.125800
0.106900 1.168100
0.124000 1.237300
0.141000 1.323500
0.158000 1.452500
0.175000 1.569300
0.192000 1.664300
0.209000 1.756700
0.226100 1.837900
0.243100 1.963500
0.260100 2.114700
0.277100 2.278900
0.294100 2.483800
0.311200 2.752900
0.328200 2.984900
0.345200 3.222100
0.362200 3.289900
0.379200 3.385700
0.396300 3.520100
0.413300 3.671400
0.430300 3.831700
0.447300 4.034800
0.464300 4.145500
0.481400 4.523700
0.498400 4.378000
0.515400 3.891900
0.532400 3.943900
0.549400 3.956400
0.566400 3.757700
0.583500 3.654700
0.600500 3.516000
0.617500 3.422400
0.634500 3.441300
0.651500 3.483700
0.668600 3.571800
0.685600 3.817500
0.702600 3.818800
0.719600 3.791100
0.736600 3.801300
0.753700 3.789400
0.770700 3.695000
0.787700 3.703000
0.804700 3.782100
0.821700 3.875100
0.838800 4.062300
0.855800 3.970000
0.872800 3.874300
0.889800 3.829700
0.906800 3.836200
0.923800 3.604200
0.940900 3.375700
0.957900 3.288800
0.974900 3.493900
0.991900 3.773500
1.008900 4.177600
1.026000 4.223300
1.043000 3.512200
1.060000 3.196900
1.077000 3.011500
1.094000 2.849300
1.111100 2.717800
1.128100 2.550700
1.145100 2.467700
1.162100 2.443900
1.179100 2.443100
1.196100 2.529400
1.213200 2.547900
1.230200 2.825200
1.247200 3.016400
1.264200 3.144900
1.281200 3.160900
1.298300 3.191200
1.315300 3.284900
1.332300 3.442500
1.349300 3.409000
1.366300 3.396300
1.383400 3.385400
1.400400 3.298800
1.417400 3.193800
1.434400 3.040000
1.451400 2.917200
1.468500 2.852800
1.485500 2.787200
1.502500 2.706800
1.519500 2.658500
1.536500 2.605200
1.553500 2.538900
1.570600 2.491700
1.587600 2.460400
1.604600 2.420700
1.621600 2.302700
1.638600 2.288800
1.655700 2.314000
1.672700 2.362100
1.689700 2.416100
1.706700 2.570500
1.723700 2.712200
1.740800 2.906300
1.757800 2.642800
1.774800 2.506600
1.791800 2.422100
1.808800 2.466700
1.825900 2.480300
1.842900 2.561800
1.859900 2.725300
1.876900 2.953900
1.893900 3.165900
1.910900 3.361200
1.928000 3.523700
1.945000 3.681300
1.962000 3.909800
1.979000 4.300100
1.996000 4.475500
2.013100 4.698400
2.030100 4.939800
2.047100 5.214800
2.064100 5.398400
2.081100 5.035200
2.098200 4.925700
2.115200 4.861100
2.132200 4.781300
2.149200 4.593500
2.166200 4.437900
2.183300 4.382200
2.200300 4.367900
2.217300 4.509800
2.234300 4.821800
2.251300 4.853800
2.268300 4.769600
2.285400 5.063200
2.302400 5.488400
2.319400 5.764000
2.336400 7.241100
2.353400 6.734100
2.370500 4.668100
2.387500 3.947700
2.404500 3.511100
2.421500 3.207600
2.438500 2.859300
2.455600 2.767000
2.472600 2.635200
2.489600 2.529100
2.506600 2.439800
2.523600 2.353200
2.540600 2.270500
2.557700 2.223800
2.574700 2.181700
2.591700 2.133700
2.608700 2.083000
2.625700 2.047900
2.642800 2.046000
2.659800 2.012500
2.676800 1.936900
2.693800 1.935700
2.710800 1.719300
2.727900 1.521200
2.744900 1.291100
2.761900 1.101200
2.778900 1.058600
2.795900 1.042000
2.813000 1.023900
2.830000 0.993000
2.847000 0.969400
2.864000 0.943800
2.881000 0.921500
2.898000 0.906600
2.915100 0.890800
2.932100 0.870700
2.949100 0.854200
2.966100 0.843000
2.983100 0.832200
3.000200 0.820000
3.017200 0.806600
3.034200 0.799400
3.051200 0.794200
3.068200 0.789100
3.085300 0.783300
3.102300 0.777100
3.119300 0.771300
3.136300 0.765700
3.153300 0.759900
3.170400 0.753400
3.187400 0.745600
3.204400 0.738700
3.221400 0.730300
3.238400 0.722000
3.255400 0.714400
3.272500 0.708100
3.289500 0.702400
3.306500 0.696300
3.323500 0.690400
3.340500 0.684800
3.357600 0.679900
3.374600 0.676700
3.391600 0.697400
3.408600 0.680600
3.425600 0.658600
3.442700 0.643600
3.459700 0.637600
3.476700 0.621500
3.493700 0.634800
3.510700 0.501100
3.527700 0.501600
3.544800 0.501900
3.561800 0.501800
3.578800 0.501300
3.595800 0.500600
3.612800 0.499800
3.629900 0.498800
3.646900 0.497500
3.663900 0.496000
3.680900 0.492800
3.697900 0.488800
3.715000 0.484500
3.732000 0.480900
3.749000 0.477900
3.766000 0.474700
3.783000 0.471700
3.800100 0.469300
3.817100 0.467300
3.834100 0.465300
3.851100 0.463400
3.868100 0.461500
3.885100 0.459700
3.902200 0.458200
3.919200 0.456600
3.936200 0.455200
3.953200 0.453600
3.970200 0.451900
3.987300 0.450200
4.004300 0.450900
4.021300 0.448500
4.038300 0.446400
4.055300 0.444500
4.072400 0.442600
4.089400 0.440800
4.106400 0.439100
4.123400 0.437500
4.140400 0.436000
4.157500 0.434500
4.174500 0.430700
4.191500 0.429400
4.208500 0.428200
4.225500 0.427000
4.242500 0.425800
4.259600 0.428900
4.276600 0.429400
4.293600 0.430200
4.310600 0.431100
4.327600 0.433800
4.344700 0.434900
4.361700 0.436300
4.378700 0.437800
4.395700 0.439500
4.412700 0.438900
4.429800 0.440400
4.446800 0.442000
4.463800 0.443700
4.480800 0.447000
4.497800 0.451200
4.514900 0.458500
4.531900 0.462600
4.548900 0.466800
4.565900 0.471200
4.582900 0.475700
4.599900 0.480100
4.617000 0.487300
4.634000 0.499700
4.651000 0.516000
4.668000 0.528200
4.685000 0.542000
4.702100 0.561800
4.719100 0.606100
4.736100 0.637300
4.753100 0.704900
4.770100 0.834300
4.787200 1.099500
4.804200 1.208800
4.821200 0.988400
4.838200 0.878500
4.855200 0.854700
4.872200 0.850600
4.889300 0.845100
4.906300 0.830400
4.923300 0.827100
4.940300 0.823700
4.957300 0.818100
4.974400 0.808300
4.991400 0.770300
5.008400 0.751900
5.025400 0.741300
5.042400 0.732700
5.059500 0.724900
5.076500 0.717600
5.093500 0.711300
5.110500 0.705500
5.127500 0.699900
5.144600 0.693800
5.161600 0.688200
5.178600 0.684300
5.195600 0.680300
5.212600 0.676400
5.229600 0.672500
5.246700 0.668800
5.263700 0.665000
5.280700 0.660900
5.297700 0.657000
5.314700 0.653200
5.331800 0.649600
5.348800 0.646300
5.365800 0.641800
5.382800 0.638600
5.399800 0.634600
5.416900 0.629200
5.433900 0.624400
5.450900 0.620200
5.467900 0.616000
5.484900 0.611900
5.502000 0.608000
5.519000 0.604300
5.536000 0.600400
5.553000 0.596600
5.570000 0.593000
5.587000 0.589600
5.604100 0.586300
5.621100 0.582900
5.638100 0.579600
5.655100 0.576300
5.672100 0.572900
5.689200 0.570300
5.706200 0.567700
5.723200 0.565200
5.740200 0.562800
5.757200 0.560500
5.774300 0.558200
5.791300 0.555900
5.808300 0.553600
5.825300 0.551300
5.842300 0.549000
5.859400 0.546800
5.876400 0.544600
5.893400 0.542400
5.910400 0.540300
5.927400 0.538300
5.944400 0.536500
5.961500 0.534500
5.978500 0.532500
5.995500 0.530500
6.012500 0.528500
6.029500 0.525600
6.046600 0.523200
6.063600 0.520700
6.080600 0.518000
6.097600 0.515400
6.114600 0.512900
6.131700 0.510400
6.148700 0.507800
6.165700 0.505200
6.182700 0.502700
6.199700 0.500100
6.216700 0.497700
6.233800 0.495200
6.250800 0.492600
6.267800 0.490200
6.284800 0.487900
6.301800 0.485700
6.318900 0.483500
6.335900 0.481300
6.352900 0.479000
6.369900 0.476600
6.386900 0.474300
6.404000 0.471900
6.421000 0.469500
6.438000 0.467100
6.455000 0.464800
6.472000 0.462400
6.489100 0.460200
6.506100 0.458000
6.523100 0.455900
6.540100 0.453800
6.557100 0.451800
6.574100 0.449800
6.591200 0.448000
6.608200 0.446200
6.625200 0.444500
6.642200 0.442800
6.659200 0.441700
6.676300 0.440100
6.693300 0.438700
6.710300 0.437300
6.727300 0.435900
6.744300 0.434600
6.761400 0.433300
6.778400 0.431900
6.795400 0.430100
6.812400 0.428400
6.829400 0.426500
6.846500 0.424600
6.863500 0.422800
6.880500 0.421000
6.897500 0.419100
6.914500 0.417200
6.931500 0.414900
6.948600 0.412900
6.965600 0.410800
6.982600 0.408800
6.999600 0.407100
7.016600 0.405400
7.033700 0.403900
7.050700 0.402500
7.067700 0.403600
7.084700 0.404700
7.101700 0.404800
7.118800 0.405100
7.135800 0.405200
7.152800 0.406500
7.169800 0.405300
7.186800 0.403800
7.203900 0.402100
7.220900 0.400000
7.237900 0.530700
7.254900 0.418400
7.271900 0.377700
7.288900 0.355800
7.306000 0.350000
7.323000 0.344300
7.340000 0.339100
7.357000 0.334100
7.374000 0.323900
7.391100 0.322600
7.408100 0.321300
7.425100 0.320000
7.442100 0.318700
7.459100 0.317500
7.476200 0.316300
7.493200 0.323200
7.510200 0.332000
7.527200 0.341600
7.544200 0.353100
7.561200 0.368800
7.578300 0.391700
7.595300 0.421600
7.612300 0.431300
7.629300 0.441100
7.646300 0.450900
7.663400 0.460200
7.680400 0.469600
7.697400 0.456000
7.714400 0.443300
7.731400 0.455000
7.748500 0.466900
7.765500 0.479700
7.782500 0.493000
7.799500 0.506400
7.816500 0.519900
7.833600 0.533300
7.850600 0.545600
7.867600 0.556100
7.884600 0.563000
7.901600 0.580700
7.918600 0.595100
7.935700 0.609000
7.952700 0.622700
7.969700 0.637400
7.986700 0.652200
8.003700 0.667200
8.020800 0.680100
8.037800 0.687200
8.054800 0.689900
8.071800 0.688100
8.088800 0.687000
8.105900 0.685300
8.122900 0.685300
8.139900 0.685300
8.156900 0.685500
8.173900 0.686100
8.191000 0.686600
8.208000 0.681000
8.225000 0.672300
8.242000 0.663500
8.259000 0.658400
8.276000 0.655500
8.293100 0.655500
8.310100 0.657500
8.327100 0.660500
8.344100 0.662200
8.361100 0.664800
8.378200 0.667600
8.395200 0.668100
8.412200 0.668200
8.429200 0.668300
8.446200 0.666900
8.463300 0.670700
8.480300 0.693900
8.497300 0.711400
8.514300 0.729800
8.531300 0.746300
8.548400 0.755100
8.565400 0.758300
8.582400 0.760900
8.599400 0.763500
8.616400 0.767200
8.633400 0.762500
8.650500 0.758500
8.667500 0.753100
8.684500 0.751000
8.701500 0.748500
8.718500 0.746200
8.735600 0.743800
8.752600 0.741100
8.769600 0.738800
8.786600 0.746600
8.803600 0.749200
8.820700 0.743600
8.837700 0.737000
8.854700 0.724700
8.871700 0.721800
8.888700 0.720300
8.905700 0.718900
8.922800 0.717700
8.939800 0.716500
8.956800 0.715300
8.973800 0.714200
8.990800 0.713800
9.007900 0.711800
9.024900 0.712900
9.041900 0.703000
9.058900 0.694200
9.075900 0.690700
9.093000 0.692700
9.110000 0.682600
9.127000 0.675900
9.144000 0.674800
9.161000 0.673800
9.178100 0.673500
9.195100 0.673800
9.212100 0.674500
9.229100 0.674600
9.246100 0.675800
9.263100 0.677500
9.280200 0.680400
9.297200 0.685300
9.314200 0.690000
9.331200 0.692300
9.348200 0.694700
9.365300 0.698100
9.382300 0.692400
9.399300 0.691100
9.416300 0.692400
9.433300 0.692300
9.450400 0.696500
9.467400 0.705300
9.484400 0.711100
9.501400 0.711000
9.518400 0.692000
9.535500 0.680200
9.552500 0.674800
9.569500 0.660000
9.586500 0.662000
9.603500 0.664000
9.620500 0.667900
9.637600 0.671800
9.654600 0.676900
9.671600 0.686400
9.688600 0.699300
9.705600 0.713700
9.722700 0.716900
9.739700 0.724000
9.756700 0.729900
9.773700 0.735900
9.790700 0.729900
9.807800 0.725500
9.824800 0.716800
9.841800 0.723100
9.858800 0.727800
9.875800 0.729900
9.892900 0.726600
9.909900 0.722900
9.926900 0.724800
9.943900 0.722700
9.960900 0.721300
9.977900 0.720900
9.995000 0.721800
10.012000 0.723600
10.029000 0.788900
10.046000 0.775400
10.063000 0.772400
10.080100 0.774700
10.097100 0.779300
10.114100 0.772600
10.131100 0.766100
10.148100 0.745900
10.165200 0.740800
10.182200 0.737900
10.199200 0.735200
10.216200 0.732800
10.233200 0.730600
10.250200 0.728600
10.267300 0.726600
10.284300 0.725300
10.301300 0.725100
10.318300 0.726100
10.335300 0.724900
10.352400 0.723000
10.369400 0.721300
10.386400 0.715900
10.403400 0.711200
10.420400 0.709300
10.437500 0.710200
10.454500 0.709300
10.471500 0.708100
10.488500 0.705300
10.505500 0.702100
10.522600 0.700100
10.539600 0.698200
10.556600 0.696900
10.573600 0.695800
10.590600 0.697600
10.607600 0.699300
10.624700 0.700300
10.641700 0.701000
10.658700 0.701500
10.675700 0.701900
10.692700 0.702200
10.709800 0.702700
10.726800 0.703400
10.743800 0.700900
10.760800 0.699100
10.777800 0.698200
10.794900 0.697000
10.811900 0.695400
10.828900 0.693600
10.845900 0.692200
10.862900 0.691800
10.880000 0.692700
10.897000 0.691800
10.914000 0.690700
10.931000 0.689800
10.948000 0.691200
10.965000 0.690200
10.982100 0.688900
10.999100 0.687000
11.016100 0.685300
11.033100 0.685100
11.050100 0.688300
11.067200 0.686700
11.084200 0.685400
11.101200 0.684400
11.118200 0.684000
11.135200 0.683700
11.152300 0.683600
11.169300 0.682200
11.186300 0.683400
11.203300 0.683500
11.220300 0.683400
11.237400 0.687000
11.254400 0.692000
11.271400 0.688600
11.288400 0.686000
11.305400 0.684400
11.322400 0.683500
11.339500 0.682800
11.356500 0.682100
11.373500 0.681200
11.390500 0.682200
11.407500 0.682600
11.424600 0.682800
11.441600 0.683200
11.458600 0.681800
11.475600 0.680000
11.492600 0.679100
11.509700 0.679300
11.526700 0.679800
11.543700 0.681500
11.560700 0.684000
11.577700 0.686300
11.594700 0.688200
11.611800 0.690100
11.628800 0.692600
11.645800 0.692800
11.662800 0.692600
11.679800 0.692100
11.696900 0.688300
11.713900 0.688500
11.730900 0.689600
11.747900 0.690600
11.764900 0.691400
11.782000 0.692200
11.799000 0.692700
11.816000 0.694000
11.833000 0.696200
11.850000 0.698500
11.867100 0.701700
11.884100 0.706500
11.901100 0.712200
11.918100 0.717000
11.935100 0.719400
11.952100 0.720000
11.969200 0.721300
11.986200 0.722100
12.003200 0.722100
12.020200 0.722400
12.037200 0.723200
12.054300 0.721800
12.071300 0.720500
12.088300 0.719800
12.105300 0.720100
12.122300 0.721100
12.139400 0.723300
12.156400 0.726300
12.173400 0.729300
12.190400 0.731400
12.207400 0.733700
12.224500 0.736200
12.241500 0.743200
12.258500 0.754600
12.275500 0.769300
12.292500 0.768300
12.309500 0.766300
12.326600 0.763800
12.343600 0.765600
12.360600 0.770100
12.377600 0.774700
12.394600 0.779100
12.411700 0.763600
12.428700 0.775000
12.445700 0.778700
12.462700 0.781100
12.479700 0.779500
12.496800 0.783500
12.513800 0.784900
12.530800 0.783900
12.547800 0.784900
12.564800 0.786400
12.581900 0.788300
12.598900 0.790000
12.615900 0.792500
12.632900 0.796100
12.649900 0.801300
12.666900 0.807500
12.684000 0.813100
12.701000 0.817500
12.718000 0.817100
12.735000 0.815500
12.752000 0.814200
12.769100 0.812400
12.786100 0.811800
12.803100 0.811300
12.820100 0.810700
12.837100 0.811400
12.854200 0.818800
12.871200 0.828500
12.888200 0.828300
12.905200 0.826100
12.922200 0.819100
12.939200 0.813000
12.956300 0.808800
12.973300 0.805200
12.990300 0.802600
13.007300 0.801000
13.024300 0.800900
13.041400 0.800900
13.058400 0.801800
13.075400 0.803300
13.092400 0.806000
13.109400 0.810300
13.126500 0.814900
13.143500 0.821100
13.160500 0.823900
13.177500 0.824200
13.194500 0.824000
13.211600 0.822500
13.228600 0.820900
13.245600 0.819400
13.262600 0.819100
13.279600 0.819400
13.296600 0.820000
13.313700 0.820900
13.330700 0.819800
13.347700 0.820000
13.364700 0.820700
13.381700 0.820000
13.398800 0.818600
13.415800 0.816700
13.432800 0.814900
13.449800 0.813300
13.466800 0.812800
13.483900 0.818400
13.500900 0.817000
13.517900 0.814900
13.534900 0.812000
13.551900 0.807900
13.569000 0.803600
13.586000 0.799800
13.603000 0.797100
13.620000 0.794800
13.637000 0.792500
13.654000 0.790700
13.671100 0.788400
13.688100 0.786000
13.705100 0.784400
13.722100 0.783400
13.739100 0.782900
13.756200 0.782900
13.773200 0.783200
13.790200 0.784300
13.807200 0.788100
13.824200 0.792100
13.841300 0.800100
13.858300 0.788800
13.875300 0.791400
13.892300 0.794000
13.909300 0.796000
13.926400 0.798500
13.943400 0.802200
13.960400 0.813400
13.977400 0.813100
13.994400 0.810400
14.011400 0.809300
14.028500 0.808400
14.045500 0.807600
14.062500 0.806900
14.079500 0.807000
14.096500 0.806700
14.113600 0.806600
14.130600 0.806700
14.147600 0.807400
14.164600 0.808500
14.181600 0.809700
14.198700 0.810300
14.215700 0.811600
14.232700 0.816400
14.249700 0.833500
14.266700 0.841900
14.283700 0.857200
14.300800 0.877700
14.317800 0.892600
14.334800 0.904800
14.351800 0.917500
14.368800 0.929700
14.385900 0.922300
14.402900 0.928000
14.419900 0.933100
14.436900 0.937900
14.453900 0.935700
14.471000 0.921500
14.488000 0.915300
14.505000 0.916300
14.522000 0.919300
14.539000 0.927500
14.556100 0.941400
14.573100 0.968100
14.590100 0.991900
14.607100 0.996000
14.624100 0.990500
14.641100 0.998500
14.658200 1.018100
14.675200 0.993000
14.692200 0.968600
14.709200 0.962200
14.726200 0.957400
14.743300 0.953000
14.760300 0.950500
14.777300 0.947800
14.794300 0.945600
14.811300 0.942900
14.828400 0.939300
14.845400 0.934400
14.862400 0.929300
14.879400 0.924500
14.896400 0.920300
14.913500 0.915700
14.930500 0.911500
14.947500 0.907700
14.964500 0.903900
14.981500 0.899500
14.998500 0.895700
15.015600 0.892500
15.032600 0.888400
15.049600 0.882200
15.066600 0.875300
15.083600 0.868500
15.100700 0.862000
15.117700 0.854300
15.134700 0.847000
15.151700 0.840900
15.168700 0.836200
15.185800 0.833000
15.202800 0.829000
15.219800 0.824500
15.236800 0.821300
15.253800 0.818400
15.270900 0.814400
15.287900 0.809400
15.304900 0.803800
15.321900 0.799300
15.338900 0.795200
15.355900 0.791300
15.373000 0.787400
15.390000 0.784300
15.407000 0.781600
15.424000 0.778900
15.441000 0.775800
15.458100 0.773100
15.475100 0.772800
15.492100 0.772400
15.509100 0.771900
15.526100 0.771800
15.543200 0.773800
15.560200 0.775900
15.577200 0.777700
15.594200 0.780300
15.611200 0.783800
15.628200 0.787100
15.645300 0.790800
15.662300 0.795500
15.679300 0.799800
15.696300 0.803200
15.713300 0.807700
15.730400 0.812600
15.747400 0.816800
15.764400 0.820000
15.781400 0.823600
15.798400 0.827400
15.815500 0.831300
15.832500 0.836000
15.849500 0.841900
15.866500 0.848700
15.883500 0.858600
15.900600 0.865400
15.917600 0.866300
15.934600 0.865000
15.951600 0.867700
15.968600 0.870300
15.985600 0.872600
16.002700 0.874700
16.019700 0.876300
16.036700 0.877100
16.053700 0.878400
16.070700 0.876400
16.087800 0.876400
16.104800 0.876200
16.121800 0.876000
16.138800 0.875700
16.155800 0.875300
16.172900 0.874900
16.189900 0.874100
16.206900 0.873300
16.223900 0.872500
16.240900 0.872300
16.258000 0.873600
16.275000 0.880300
16.292000 0.887100
16.309000 0.892800
16.326000 0.898400
16.343000 0.905500
16.360100 0.908200
16.377100 0.909300
16.394100 0.910900
16.411100 0.909900
16.428100 0.910000
16.445200 0.911600
16.462200 0.911000
16.479200 0.910200
16.496200 0.911300
16.513200 0.903100
16.530300 0.893300
16.547300 0.882900
16.564300 0.872100
16.581300 0.860900
16.598300 0.852000
16.615400 0.847300
16.632400 0.844300
16.649400 0.840200
16.666400 0.835700
16.683400 0.833500
16.700400 0.831400
16.717500 0.830200
16.734500 0.828800
16.751500 0.827900
16.768500 0.827400
16.785500 0.827300
16.802600 0.827300
16.819600 0.827600
16.836600 0.828500
16.853600 0.837400
16.870600 0.841600
16.887700 0.844500
16.904700 0.848500
16.921700 0.852700
16.938700 0.857800
16.955700 0.863300
16.972700 0.869300
16.989800 0.879600
17.006800 0.895000
17.023800 0.904300
17.040800 0.912700
17.057800 0.918200
17.074900 0.917000
17.091900 0.900500
17.108900 0.890700
17.125900 0.885000
17.142900 0.883300
17.160000 0.880800
17.177000 0.879500
17.194000 0.879200
17.211000 0.877300
17.228000 0.874300
17.245100 0.869700
17.262100 0.868900
17.279100 0.866500
17.296100 0.862000
17.313100 0.860300
17.330100 0.859800
17.347200 0.857400
17.364200 0.857400
17.381200 0.857700
17.398200 0.859000
17.415200 0.860400
17.432300 0.859700
17.449300 0.860100
17.466300 0.860000
17.483300 0.860500
17.500300 0.862000
17.517400 0.865300
17.534400 0.863800
17.551400 0.864100
17.568400 0.861500
17.585400 0.858400
17.602500 0.855700
17.619500 0.853500
17.636500 0.853000
17.653500 0.853400
17.670500 0.863200
17.687500 0.867300
17.704600 0.866000
17.721600 0.863800
17.738600 0.860700
17.755600 0.856800
17.772600 0.850400
17.789700 0.842300
17.806700 0.833300
17.823700 0.823600
17.840700 0.813500
17.857700 0.801700
17.874800 0.789300
17.891800 0.777400
17.908800 0.763300
17.925800 0.753900
17.942800 0.746300
17.959900 0.740100
17.976900 0.735300
17.993900 0.730700
18.010900 0.726300
18.027900 0.722200
18.044900 0.718600
18.062000 0.715900
18.079000 0.715500
18.096000 0.717800
18.113000 0.721600
18.130000 0.725100
18.147100 0.726100
18.164100 0.727800
18.181100 0.730100
18.198100 0.734900
18.215100 0.739100
18.232200 0.744000
18.249200 0.749700
18.266200 0.755800
18.283200 0.762200
18.300200 0.768600
18.317200 0.777200
18.334300 0.787200
18.351300 0.797800
18.368300 0.810100
18.385300 0.822700
18.402300 0.831700
18.419400 0.841400
18.436400 0.851100
18.453400 0.843500
18.470400 0.849000
18.487400 0.854100
18.504500 0.858500
18.521500 0.866500
18.538500 0.874400
18.555500 0.881700
18.572500 0.889000
18.589600 0.895400
18.606600 0.906100
18.623600 0.917600
18.640600 0.925900
18.657600 0.936400
18.674600 0.950100
18.691700 0.961300
18.708700 0.967700
18.725700 0.973000
18.742700 0.976200
18.759700 0.978000
18.776800 0.981300
18.793800 0.984200
18.810800 0.987400
18.827800 0.996700
18.844800 0.988400
18.861900 0.992600
18.878900 0.996400
18.895900 0.999700
18.912900 1.002700
18.929900 1.005800
18.947000 1.010300
18.964000 1.015200
18.981000 1.021100
18.998000 1.025700
19.015000 1.028800
19.032000 1.031500
19.049100 1.035500
19.066100 1.042500
19.083100 1.049900
19.100100 1.053500
19.117100 1.055300
19.134200 1.058400
19.151200 1.063200
19.168200 1.066800
19.185200 1.071600
19.202200 1.072200
19.219300 1.073400
19.236300 1.072500
19.253300 1.066200
19.270300 1.059800
19.287300 1.049400
19.304400 1.039200
19.321400 1.029200
19.338400 1.021500
19.355400 1.015400
19.372400 1.011600
19.389400 1.010000
19.406500 1.009400
19.423500 1.018700
19.440500 1.037300
19.457500 1.041100
19.474500 1.043600
19.491600 1.045400
19.508600 1.044500
19.525600 1.039700
19.542600 1.039700
19.559600 1.038900
19.576700 1.039100
19.593700 1.045200
19.610700 1.045400
19.627700 1.045700
19.644700 1.046300
19.661700 1.047400
19.678800 1.048400
19.695800 1.049500
19.712800 1.049900
19.729800 1.050400
19.746800 1.052600
19.763900 1.057100
19.780900 1.061200
19.797900 1.067600
19.814900 1.073800
19.831900 1.078800
19.849000 1.082000
19.866000 1.084200
19.883000 1.085000
19.900000 1.086600
19.917000 1.102900
19.934100 1.126100
19.951100 1.142500
19.968100 1.145800
19.985100 1.151400
20.002100 1.107100
20.019100 1.082500
20.036200 1.059200
20.053200 1.043300
20.070200 1.030200
20.087200 1.008400
20.104200 1.001400
20.121300 0.998700
20.138300 0.998500
20.155300 0.999200
20.172300 1.000500
20.189300 1.014200
20.206400 1.039000
20.223400 1.040600
20.240400 1.050800
20.257400 1.053600
20.274400 1.065500
20.291500 1.076900
20.308500 1.088200
20.325500 1.104600
20.342500 1.101700
20.359500 1.099200
20.376500 1.095400
20.393600 1.089800
20.410600 1.083400
20.427600 1.072800
20.444600 1.057700
20.461600 1.039400
20.478700 1.019600
20.495700 1.002300
20.512700 0.990000
20.529700 0.979500
20.546700 0.976700
20.563800 0.973400
20.580800 0.969200
20.597800 0.964300
20.614800 0.959000
20.631800 0.957700
20.648900 0.951900
20.665900 0.945500
20.682900 0.944200
20.699900 0.935000
20.716900 0.927100
20.733900 0.920600
20.751000 0.916100
20.768000 0.904500
20.785000 0.894400
20.802000 0.888400
20.819000 0.879700
20.836100 0.867900
20.853100 0.853700
20.870100 0.839700
20.887100 0.825300
20.904100 0.812300
20.921200 0.801500
20.938200 0.795200
20.955200 0.790500
20.972200 0.784200
20.989200 0.776800
21.006200 0.769600
21.023300 0.765900
21.040300 0.763400
21.057300 0.763000
21.074300 0.774100
21.091300 0.796200
21.108400 0.807100
21.125400 0.815100
21.142400 0.818200
21.159400 0.815000
21.176400 0.814000
21.193500 0.810600
21.210500 0.804200
21.227500 0.796700
21.244500 0.789600
21.261500 0.783300
21.278600 0.780200
21.295600 0.781000
21.312600 0.784600
21.329600 0.788200
21.346600 0.787800
21.363600 0.783900
21.380700 0.780100
21.397700 0.777100
21.414700 0.773000
21.431700 0.769600
21.448700 0.767200
21.465800 0.765100
21.482800 0.766100
21.499800 0.757000
21.516800 0.751300
21.533800 0.747800
21.550900 0.744500
21.567900 0.742700
21.584900 0.742500
21.601900 0.740100
21.618900 0.736500
21.636000 0.734900
21.653000 0.735400
21.670000 0.734400
21.687000 0.732600
21.704000 0.726900
21.721000 0.722400
21.738100 0.720100
21.755100 0.720800
21.772100 0.723600
21.789100 0.726600
21.806100 0.724200
21.823200 0.720400
21.840200 0.719200
21.857200 0.719500
21.874200 0.723400
21.891200 0.726000
21.908300 0.729800
21.925300 0.735100
21.942300 0.741600
21.959300 0.748400
21.976300 0.755300
21.993400 0.762300
22.010400 0.770500
22.027400 0.782300
22.044400 0.794500
22.061400 0.806800
22.078400 0.814500
22.095500 0.804900
22.112500 0.800500
22.129500 0.799100
22.146500 0.798000
22.163500 0.798500
22.180600 0.799000
22.197600 0.798800
22.214600 0.799500
22.231600 0.786000
22.248600 0.785700
22.265700 0.788900
22.282700 0.792400
22.299700 0.796500
22.316700 0.803700
22.333700 0.812200
22.350700 0.818900
22.367800 0.829400
22.384800 0.832500
22.401800 0.839600
22.418800 0.888700
22.435800 0.889600
22.452900 0.910100
22.469900 0.940200
22.486900 0.966300
22.503900 0.983500
22.520900 1.001500
22.538000 1.019700
22.555000 1.037200
22.572000 1.054900
22.589000 1.073000
22.606000 1.099800
22.623100 1.113700
22.640100 1.127100
22.657100 1.140700
22.674100 1.151400
22.691100 1.156900
22.708100 1.161700
22.725200 1.168300
22.742200 1.174800
22.759200 1.180800
22.776200 1.180800
22.793200 1.184600
22.810300 1.192500
22.827300 1.198600
22.844300 1.188900
22.861300 1.178500
22.878300 1.178800
22.895400 1.185800
22.912400 1.191800
22.929400 1.195200
22.946400 1.199800
22.963400 1.198000
22.980500 1.212800
22.997500 1.219600
23.014500 1.208600
23.031500 1.217900
23.048500 1.224400
23.065500 1.233200
23.082600 1.239100
23.099600 1.240300
23.116600 1.244700
23.133600 1.246900
23.150600 1.250700
23.167700 1.254300
23.184700 1.259800
23.201700 1.261300
23.218700 1.268900
23.235700 1.282600
23.252800 1.305000
23.269800 1.308600
23.286800 1.311700
23.303800 1.309400
23.320800 1.305600
23.337900 1.301000
23.354900 1.277600
23.371900 1.237000
23.388900 1.197200
23.405900 1.163900
23.422900 1.140600
23.440000 1.121600
23.457000 1.114700
23.474000 1.104500
23.491000 1.087500
23.508000 1.059500
23.525100 1.038500
23.542100 1.020600
23.559100 1.006800
23.576100 0.999400
23.593100 0.998300
23.610200 0.967600
23.627200 0.939400
23.644200 0.917700
23.661200 0.915700
23.678200 0.914300
23.695200 0.911400
23.712300 0.905200
23.729300 0.901200
23.746300 0.900000
23.763300 0.901200
23.780300 0.905400
23.797400 0.912100
23.814400 0.925200
23.831400 0.939700
23.848400 0.954600
23.865400 0.963500
23.882500 0.964400
23.899500 0.963400
23.916500 0.962900
23.933500 0.962600
23.950500 0.962800
23.967600 0.964800
23.984600 0.966300
24.001600 0.968600
24.018600 0.971700
24.035600 0.975700
24.052600 0.977200
24.069700 0.976000
24.086700 0.975200
24.103700 0.974200
24.120700 0.975200
24.137700 0.977500
24.154800 0.978900
24.171800 0.979000
24.188800 0.977800
24.205800 0.979000
24.222800 0.981600
24.239900 0.988000
24.256900 0.995800
24.273900 0.994500
24.290900 0.986000
24.307900 0.964700
24.325000 0.976100
24.342000 0.976700
24.359000 0.978300
24.376000 0.980800
24.393000 0.984800
24.410000 0.990900
24.427100 0.996100
24.444100 1.001900
24.461100 1.001100
24.478100 1.001700
24.495100 1.005600
24.512200 1.007400
24.529200 1.009500
24.546200 1.012700
24.563200 1.015400
24.580200 1.016900
24.597300 1.018700
24.614300 1.021400
24.631300 1.023200
24.648300 1.023700
24.665300 1.023700
24.682400 1.023200
24.699400 1.023800
24.716400 1.028700
24.733400 1.031100
24.750400 1.020600
24.767400 1.007100
24.784500 0.986600
24.801500 0.968900
24.818500 0.955400
24.835500 0.947000
24.852500 0.936800
24.869600 0.928900
24.886600 0.921100
24.903600 0.913300
24.920600 0.906100
24.937600 0.898900
24.954700 0.891700
24.971700 0.884000
24.988700 0.878100
25.005700 0.872900
25.022700 0.868500
25.039700 0.864900
25.056800 0.863300
25.073800 0.862500
25.090800 0.862200
25.107800 0.861000
25.124800 0.857100
25.141900 0.852500
25.158900 0.853200
25.175900 0.852700
25.192900 0.852800
25.209900 0.853500
25.227000 0.854600
25.244000 0.856400
25.261000 0.856700
25.278000 0.855600
25.295000 0.871800
25.312100 0.853500
25.329100 0.847000
25.346100 0.838500
25.363100 0.831400
25.380100 0.827600
25.397100 0.830100
25.414200 0.836400
25.431200 0.840500
25.448200 0.846200
25.465200 0.852900
25.482200 0.861600
25.499300 0.872500
25.516300 0.886500
25.533300 0.909800
25.550300 0.930700
25.567300 0.954600
25.584400 0.981600
25.601400 1.006500
25.618400 1.036000
25.635400 1.061900
25.652400 1.088500
25.669500 1.117500
25.686500 1.150100
25.703500 1.188900
25.720500 1.235000
25.737500 1.292000
25.754500 1.363000
25.771600 1.444800
25.788600 1.545900
25.805600 1.683800
25.822600 1.908900
25.839600 2.504300
25.856700 20.704000
25.873700 8.361000
25.890700 1.132600
25.907700 0.377200
25.924700 0.126200
25.941800 0.040900
25.958800 0.019400
25.975800 0.012400
25.992800 0.008300
26.009800 0.005500
26.026900 0.003300
26.043900 0.001600
26.060900 0.000500
26.077900 0.000000
26.094900 0.000000
26.111900 0.000000
26.129000 0.000000
26.146000 0.000000
26.163000 0.000000
26.180000 0.000000
26.197000 0.000000
26.214100 0.000000
26.231100 0.000000
26.248100 0.000000
26.265100 0.000000
26.282100 0.000000
26.299200 0.000000
26.316200 0.000000
26.333200 0.000000
26.350200 0.000000
26.367200 0.000000
26.384200 0.000000
26.401300 0.000000
26.418300 0.000000
26.435300 0.000000
26.452300 0.000000
26.469300 0.000000
26.486400 0.000000
26.503400 0.000000
26.520400 0.000000
26.537400 0.000000
26.554400 0.000000
26.571500 0.000000
26.588500 0.000000
26.605500 0.000000
26.622500 0.000000
26.639500 0.000000
26.656600 0.000000
26.673600 0.000000
26.690600 0.000000
26.707600 0.000000
26.724600 0.000000
26.741600 0.000000
26.758700 0.000000
26.775700 0.000000
26.792700 0.000000
26.809700 0.000000
26.826700 0.000000
26.843800 0.000000
26.860800 0.000000
26.877800 0.000000
26.894800 0.000000
26.911800 0.000000
26.928900 0.000000
26.945900 0.000000
26.962900 0.000000
26.979900 0.000000
26.996900 0.000000
27.014000 0.000000
27.031000 0.000000
27.048000 0.000000
27.065000 0.000000
27.082000 0.000000
27.099000 0.000000
27.116100 0.000000
27.133100 0.000000
27.150100 0.000000
27.167100 0.000000
27.184100 0.000000
27.201200 0.000000
27.218200 0.000000
27.235200 0.000000
27.252200 0.000000
27.269200 0.000000
27.286300 0.000000
27.303300 0.000000
27.320300 0.000000
27.337300 0.000000
27.354300 0.000000
27.371400 0.000000
27.388400 0.000000
27.405400 0.000000
27.422400 0.000000
27.439400 0.000000
27.456400 0.000000
27.473500 0.000000
27.490500 0.000000
27.507500 0.000000
27.524500 0.000000
27.541500 0.000000
27.558600 0.000000
27.575600 0.000000
27.592600 0.000000
27.609600 0.000000
27.626600 0.000000
e
