set title 'mp-567409 - Density of States'
set xlabel 'Energy (eV)'
set ylabel 'DOS (states/eV)'
set grid
set xrange [-10:10]
set yrange [0:4.433]
set xzeroaxis lt -1
set terminal png size 800,600
set output 'mp-567409_dos_gnuplot.png'
plot '-' using 1:2 with lines title 'DOS'
-7.363400 0.000000
-7.345600 0.000000
-7.327800 0.000000
-7.310100 0.000000
-7.292300 0.000000
-7.274500 0.000000
-7.256700 0.000000
-7.239000 0.000000
-7.221200 0.000000
-7.203400 0.000000
-7.185600 0.000000
-7.167900 0.000000
-7.150100 0.000000
-7.132300 0.000000
-7.114500 0.000000
-7.096800 0.000000
-7.079000 0.000000
-7.061200 0.000000
-7.043400 0.000000
-7.025700 0.000000
-7.007900 0.000000
-6.990100 0.000000
-6.972300 0.000000
-6.954600 0.000000
-6.936800 0.000000
-6.919000 0.000000
-6.901200 0.000000
-6.883500 0.000000
-6.865700 0.000000
-6.847900 0.000000
-6.830100 0.000000
-6.812400 0.000000
-6.794600 0.000000
-6.776800 0.000000
-6.759000 0.000000
-6.741300 0.000000
-6.723500 0.000000
-6.705700 0.000000
-6.687900 0.000000
-6.670200 0.000000
-6.652400 0.000000
-6.634600 0.000000
-6.616800 0.000000
-6.599100 0.000000
-6.581300 0.000000
-6.563500 0.000000
-6.545700 0.000000
-6.528000 0.000000
-6.510200 0.000000
-6.492400 0.000000
-6.474600 0.000000
-6.456900 0.000000
-6.439100 0.000000
-6.421300 0.000000
-6.403500 0.000000
-6.385800 0.000000
-6.368000 0.000000
-6.350200 0.000000
-6.332400 0.000000
-6.314700 0.000000
-6.296900 0.000000
-6.279100 0.000000
-6.261300 0.000000
-6.243600 0.000000
-6.225800 0.000000
-6.208000 0.000000
-6.190200 0.000000
-6.172500 0.000000
-6.154700 0.000000
-6.136900 0.000000
-6.119100 0.000000
-6.101400 0.000000
-6.083600 0.000000
-6.065800 0.000000
-6.048000 0.000000
-6.030300 0.000000
-6.012500 0.000000
-5.994700 0.000000
-5.976900 0.000000
-5.959200 0.000000
-5.941400 0.000000
-5.923600 0.000000
-5.905800 0.000000
-5.888100 0.000000
-5.870300 0.000000
-5.852500 0.000000
-5.834700 0.000000
-5.817000 0.000000
-5.799200 0.000000
-5.781400 0.000000
-5.763600 0.000000
-5.745900 0.000200
-5.728100 0.025600
-5.710300 0.093900
-5.692500 0.200000
-5.674800 0.292600
-5.657000 0.345300
-5.639200 0.367400
-5.621400 0.386200
-5.603700 0.418200
-5.585900 0.458500
-5.568100 0.501900
-5.550400 0.546500
-5.532600 0.591400
-5.514800 0.632400
-5.497000 0.670500
-5.479300 0.703300
-5.461500 0.733400
-5.443700 0.765900
-5.425900 0.826400
-5.408200 0.902700
-5.390400 0.966400
-5.372600 0.986600
-5.354800 0.966700
-5.337100 0.949100
-5.319300 0.949500
-5.301500 0.965200
-5.283700 0.980100
-5.266000 0.991000
-5.248200 0.997900
-5.230400 1.000900
-5.212600 1.001500
-5.194900 0.997700
-5.177100 0.991200
-5.159300 0.986900
-5.141500 0.989300
-5.123800 0.994600
-5.106000 0.999800
-5.088200 1.004800
-5.070400 1.009600
-5.052700 1.014500
-5.034900 1.019500
-5.017100 1.024000
-4.999300 1.028400
-4.981600 1.032700
-4.963800 1.037200
-4.946000 1.042900
-4.928200 1.049700
-4.910500 1.056400
-4.892700 1.061400
-4.874900 1.067000
-4.857100 1.074800
-4.839400 1.084200
-4.821600 1.094000
-4.803800 1.104300
-4.786000 1.114000
-4.768300 1.123600
-4.750500 1.133300
-4.732700 1.144200
-4.714900 1.156300
-4.697200 1.169500
-4.679400 1.209300
-4.661600 1.291500
-4.643800 1.348300
-4.626100 1.358100
-4.608300 1.324100
-4.590500 1.303000
-4.572700 1.295400
-4.555000 1.294700
-4.537200 1.292600
-4.519400 1.289000
-4.501600 1.282300
-4.483900 1.273500
-4.466100 1.289000
-4.448300 1.295400
-4.430500 1.259300
-4.412800 1.177500
-4.395000 1.116200
-4.377200 1.088200
-4.359400 1.070800
-4.341700 1.054000
-4.323900 1.037800
-4.306100 1.022100
-4.288300 1.053800
-4.270600 1.130300
-4.252800 1.167400
-4.235000 1.113200
-4.217200 1.078300
-4.199500 1.062600
-4.181700 1.051700
-4.163900 1.042000
-4.146100 1.031800
-4.128400 1.016200
-4.110600 1.023700
-4.092800 1.086400
-4.075000 1.121000
-4.057300 1.157100
-4.039500 1.136200
-4.021700 1.230000
-4.003900 1.219500
-3.986200 1.140200
-3.968400 1.082600
-3.950600 1.083600
-3.932800 1.078200
-3.915100 1.073700
-3.897300 1.065900
-3.879500 1.058400
-3.861700 1.042800
-3.844000 1.042000
-3.826200 1.041900
-3.808400 1.040600
-3.790600 1.039400
-3.772900 1.038200
-3.755100 1.037300
-3.737300 1.039100
-3.719500 1.041800
-3.701800 1.044200
-3.684000 1.104400
-3.666200 1.256800
-3.648400 1.322900
-3.630700 1.300200
-3.612900 1.326400
-3.595100 1.356100
-3.577300 1.389800
-3.559600 1.549700
-3.541800 1.476700
-3.524000 1.445000
-3.506200 1.457300
-3.488500 1.481000
-3.470700 1.512100
-3.452900 1.543200
-3.435100 1.787700
-3.417400 1.521500
-3.399600 1.594100
-3.381800 1.666600
-3.364000 1.733800
-3.346300 1.801000
-3.328500 1.884900
-3.310700 2.032600
-3.292900 2.316400
-3.275200 2.608400
-3.257400 3.056500
-3.239600 2.946400
-3.221800 3.092600
-3.204100 3.374000
-3.186300 3.468300
-3.168500 3.106100
-3.150700 3.102700
-3.133000 3.067600
-3.115200 3.110800
-3.097400 3.241200
-3.079600 3.540000
-3.061900 3.572700
-3.044100 4.030200
-3.026300 3.505600
-3.008500 3.064100
-2.990800 3.116300
-2.973000 3.135800
-2.955200 2.826500
-2.937400 2.577900
-2.919700 2.339400
-2.901900 2.065400
-2.884100 1.816100
-2.866300 1.653100
-2.848600 1.510200
-2.830800 1.386600
-2.813000 1.303700
-2.795300 1.240200
-2.777500 1.136600
-2.759700 1.051100
-2.741900 1.065700
-2.724200 1.243100
-2.706400 1.394400
-2.688600 1.465100
-2.670800 1.500300
-2.653100 1.537800
-2.635300 1.563500
-2.617500 1.594500
-2.599700 1.777100
-2.582000 1.717400
-2.564200 1.753200
-2.546400 1.798200
-2.528600 1.878500
-2.510900 2.016400
-2.493100 2.268300
-2.475300 2.308600
-2.457500 2.361000
-2.439800 2.319200
-2.422000 2.279900
-2.404200 2.277700
-2.386400 2.294500
-2.368700 2.293600
-2.350900 2.324500
-2.333100 2.340700
-2.315300 2.233800
-2.297600 2.094200
-2.279800 1.935700
-2.262000 1.776100
-2.244200 1.668000
-2.226500 1.607500
-2.208700 1.560000
-2.190900 1.522000
-2.173100 1.492900
-2.155400 1.470000
-2.137600 1.446700
-2.119800 1.422900
-2.102000 1.398800
-2.084300 1.378000
-2.066500 1.367100
-2.048700 1.348800
-2.030900 1.326200
-2.013200 1.303800
-1.995400 1.506700
-1.977600 1.396600
-1.959800 1.400100
-1.942100 1.401800
-1.924300 1.367900
-1.906500 1.337100
-1.888700 1.371300
-1.871000 1.247800
-1.853200 1.206900
-1.835400 1.186300
-1.817600 1.175500
-1.799900 1.159200
-1.782100 1.137600
-1.764300 1.126000
-1.746500 1.119300
-1.728800 1.111300
-1.711000 1.103200
-1.693200 1.339200
-1.675400 0.809100
-1.657700 0.824100
-1.639900 0.836900
-1.622100 0.852000
-1.604300 0.874600
-1.586600 0.897600
-1.568800 0.926900
-1.551000 0.959400
-1.533200 1.007700
-1.515500 1.090800
-1.497700 1.198100
-1.479900 1.331500
-1.462100 1.268200
-1.444400 1.325000
-1.426600 1.392800
-1.408800 1.480100
-1.391000 1.589900
-1.373300 1.716300
-1.355500 1.561600
-1.337700 1.554500
-1.319900 1.375300
-1.302200 1.168100
-1.284400 1.160600
-1.266600 1.153100
-1.248800 1.145600
-1.231100 1.138200
-1.213300 1.135300
-1.195500 1.136800
-1.177700 1.144100
-1.160000 1.160400
-1.142200 1.228800
-1.124400 1.350000
-1.106600 1.413200
-1.088900 1.452200
-1.071100 1.481900
-1.053300 1.654900
-1.035500 1.777700
-1.017800 2.051800
-1.000000 2.290600
-0.982200 2.686200
-0.964400 2.736400
-0.946700 2.397900
-0.928900 2.101800
-0.911100 1.890700
-0.893300 1.741200
-0.875600 1.601300
-0.857800 1.473300
-0.840000 1.381600
-0.822200 1.307000
-0.804500 1.243900
-0.786700 1.197900
-0.768900 1.169100
-0.751100 1.142500
-0.733400 1.115900
-0.715600 1.089500
-0.697800 1.065600
-0.680000 1.040600
-0.662300 1.016000
-0.644500 0.989100
-0.626700 0.965800
-0.608900 0.948000
-0.591200 0.933300
-0.573400 0.920400
-0.555600 0.908400
-0.537800 0.895600
-0.520100 0.879400
-0.502300 0.865600
-0.484500 0.853000
-0.466700 0.840200
-0.449000 0.826400
-0.431200 0.818300
-0.413400 0.812100
-0.395600 0.805000
-0.377900 0.797100
-0.360100 0.790900
-0.342300 0.784600
-0.324500 0.771200
-0.306800 0.757700
-0.289000 0.744700
-0.271200 0.732400
-0.253400 0.721600
-0.235700 0.712000
-0.217900 0.703400
-0.200100 0.695900
-0.182300 0.688700
-0.164600 0.681600
-0.146800 0.674500
-0.129000 0.667600
-0.111300 0.660800
-0.093500 0.657800
-0.075700 0.661800
-0.057900 0.670900
-0.040200 0.674200
-0.022400 0.672300
-0.004600 0.677000
0.013200 0.678300
0.030900 0.674100
0.048700 0.664100
0.066500 0.658500
0.084300 0.675300
0.102000 0.712400
0.119800 0.694400
0.137600 0.654600
0.155400 0.611000
0.173100 0.568400
0.190900 0.529900
0.208700 0.498700
0.226500 0.471200
0.244200 0.445700
0.262000 0.423000
0.279800 0.402300
0.297600 0.383400
0.315300 0.366500
0.333100 0.352000
0.350900 0.339400
0.368700 0.327600
0.386400 0.316300
0.404200 0.304900
0.422000 0.293500
0.439800 0.282100
0.457500 0.271100
0.475300 0.260200
0.493100 0.249600
0.510900 0.239900
0.528600 0.231700
0.546400 0.223900
0.564200 0.216000
0.582000 0.207700
0.599700 0.200500
0.617500 0.195700
0.635300 0.189400
0.653100 0.181500
0.670800 0.166800
0.688600 0.151300
0.706400 0.136000
0.724200 0.120900
0.741900 0.106300
0.759700 0.091900
0.777500 0.077700
0.795300 0.063200
0.813000 0.048600
0.830800 0.034500
0.848600 0.021100
0.866400 0.008500
0.884100 0.000000
0.901900 0.000000
0.919700 0.000000
0.937500 0.000000
0.955200 0.000000
0.973000 0.000000
0.990800 0.000000
1.008600 0.000000
1.026300 0.000000
1.044100 0.000000
1.061900 0.000000
1.079700 0.000000
1.097400 0.000000
1.115200 0.000000
1.133000 0.000000
1.150800 0.000000
1.168500 0.000000
1.186300 0.000000
1.204100 0.000000
1.221900 0.000000
1.239600 0.000000
1.257400 0.000000
1.275200 0.000000
1.293000 0.000000
1.310700 0.379000
1.328500 0.392700
1.346300 0.296500
1.364100 0.352100
1.381800 0.414200
1.399600 0.482700
1.417400 0.548800
1.435200 0.575900
1.452900 0.620800
1.470700 0.690900
1.488500 0.765300
1.506300 0.835800
1.524000 0.879700
1.541800 1.001700
1.559600 0.817800
1.577400 0.794300
1.595100 0.774900
1.612900 0.788600
1.630700 0.803600
1.648500 0.818600
1.666200 0.826900
1.684000 0.843100
1.701800 0.865700
1.719600 0.890800
1.737300 0.913800
1.755100 0.943100
1.772900 0.973200
1.790700 1.003200
1.808400 0.992000
1.826200 1.044600
1.844000 1.080100
1.861800 1.072700
1.879500 1.050100
1.897300 1.020900
1.915100 0.988300
1.932900 0.978600
1.950600 1.033500
1.968400 1.130400
1.986200 1.228300
2.004000 1.312800
2.021700 1.440500
2.039500 1.614600
2.057300 1.807700
2.075100 1.851300
2.092800 1.830600
2.110600 1.862200
2.128400 1.894600
2.146200 1.927900
2.163900 1.943600
2.181700 1.934300
2.199500 1.920200
2.217300 1.903300
2.235000 1.897500
2.252800 1.892800
2.270600 1.887600
2.288400 1.883800
2.306100 1.888500
2.323900 1.905000
2.341700 1.912000
2.359500 1.885900
2.377200 1.915600
2.395000 1.911600
2.412800 1.963700
2.430600 2.056300
2.448300 2.188800
2.466100 2.244100
2.483900 2.326100
2.501700 2.438100
2.519400 2.581200
2.537200 2.643500
2.555000 2.676500
2.572800 2.677100
2.590500 2.645800
2.608300 2.579700
2.626100 2.555100
2.643800 2.625800
2.661600 2.586000
2.679400 2.574000
2.697200 2.565000
2.714900 2.561400
2.732700 2.536300
2.750500 2.512200
2.768300 2.491600
2.786000 2.478300
2.803800 2.471100
2.821600 2.395400
2.839400 2.371300
2.857100 2.363800
2.874900 2.370300
2.892700 2.406600
2.910500 2.509300
2.928200 2.683100
2.946000 2.741900
2.963800 2.797100
2.981600 2.848600
2.999300 2.865100
3.017100 2.998700
3.034900 2.981800
3.052700 2.955600
3.070400 3.003500
3.088200 3.056700
3.106000 3.082200
3.123800 3.106900
3.141500 3.063300
3.159300 3.024500
3.177100 2.976600
3.194900 2.904400
3.212600 2.842600
3.230400 2.797700
3.248200 2.760200
3.266000 2.705500
3.283700 2.647000
3.301500 2.587400
3.319300 2.540600
3.337100 2.502200
3.354800 2.470200
3.372600 2.448100
3.390400 2.475600
3.408200 2.536900
3.425900 2.508500
3.443700 2.489800
3.461500 2.491200
3.479300 2.504400
3.497000 2.532200
3.514800 2.579400
3.532600 2.595600
3.550400 2.603600
3.568100 2.617700
3.585900 2.638900
3.603700 2.672500
3.621500 2.738900
3.639200 2.768100
3.657000 2.771800
3.674800 2.753700
3.692600 2.699900
3.710300 2.645500
3.728100 2.606600
3.745900 2.619600
3.763700 2.665700
3.781400 2.708600
3.799200 2.747600
3.817000 2.775500
3.834800 2.812800
3.852500 2.853800
3.870300 2.881200
3.888100 2.928800
3.905900 2.928400
3.923600 2.933300
3.941400 2.945500
3.959200 3.007000
3.977000 3.006300
3.994700 3.013700
4.012500 3.013400
4.030300 3.012000
4.048100 2.987500
4.065800 2.954800
4.083600 2.931300
4.101400 2.907100
4.119200 2.890200
4.136900 2.868100
4.154700 2.842700
4.172500 2.821900
4.190300 2.800200
4.208000 2.781600
4.225800 2.768900
4.243600 2.720300
4.261400 2.732300
4.279100 2.755700
4.296900 2.762200
4.314700 2.754000
4.332500 2.843800
4.350200 2.805100
4.368000 2.890100
4.385800 2.933300
4.403600 2.959100
4.421300 2.993200
4.439100 3.013600
4.456900 3.093300
4.474700 3.208700
4.492400 3.280400
4.510200 3.366800
4.528000 3.470400
4.545800 3.658800
4.563500 3.555200
4.581300 3.480800
4.599100 3.419400
4.616900 3.387900
4.634600 3.379000
4.652400 3.359000
4.670200 3.355600
4.688000 3.362900
4.705700 3.384100
4.723500 3.369800
4.741300 3.546300
4.759100 3.561700
4.776800 3.698200
4.794600 3.801200
4.812400 3.662300
4.830200 3.610800
4.847900 3.619500
4.865700 3.633200
4.883500 3.584000
4.901300 3.539400
4.919000 3.425100
4.936800 3.281300
4.954600 3.151200
4.972400 3.004200
4.990100 2.897900
5.007900 2.833300
5.025700 2.768500
5.043500 2.735000
5.061200 2.745700
5.079000 2.759800
5.096800 2.780300
5.114600 2.799800
5.132300 2.831900
5.150100 2.899700
5.167900 3.121100
5.185700 3.338200
5.203400 3.482500
5.221200 3.474900
5.239000 3.535800
5.256800 3.570700
5.274500 3.556700
5.292300 3.562200
5.310100 3.567900
5.327900 3.523500
5.345600 3.415200
5.363400 3.343600
5.381200 3.190400
5.398900 3.042200
5.416700 2.938500
5.434500 2.858700
5.452300 2.761800
5.470000 2.715800
5.487800 2.699300
5.505600 2.694500
5.523400 2.744800
5.541100 2.823000
5.558900 2.866200
5.576700 2.827500
5.594500 2.907300
5.612200 2.717600
5.630000 2.489800
5.647800 2.159300
5.665600 2.066800
5.683300 2.011000
5.701100 2.205600
5.718900 2.153700
5.736700 2.151500
5.754400 2.144400
5.772200 2.167200
5.790000 2.170100
5.807800 2.142100
5.825500 2.147500
5.843300 2.184200
5.861100 2.186900
5.878900 2.147800
5.896600 2.135300
5.914400 2.155000
5.932200 2.219500
5.950000 2.327400
5.967700 2.426000
5.985500 2.554600
6.003300 2.561400
6.021100 2.537900
6.038800 2.358000
6.056600 2.234800
6.074400 2.097200
6.092200 1.916400
6.109900 1.813900
6.127700 1.696700
6.145500 1.591100
6.163300 1.441300
6.181000 1.309800
6.198800 1.186700
6.216600 1.047700
6.234400 0.924800
6.252100 0.829700
6.269900 0.742500
6.287700 0.668600
6.305500 0.601600
6.323200 0.527800
6.341000 0.468900
6.358800 0.427800
6.376600 0.406600
6.394300 0.387200
6.412100 0.368100
6.429900 0.372300
6.447700 0.401900
6.465400 0.440400
6.483200 0.488300
6.501000 0.547700
6.518800 0.540100
6.536500 0.592800
6.554300 0.659200
6.572100 0.740900
6.589900 0.858700
6.607600 1.028600
6.625400 1.376800
6.643200 1.797100
6.661000 1.906900
6.678700 1.926000
6.696500 1.911600
6.714300 2.003800
6.732100 2.069000
6.749800 2.032300
6.767600 2.019300
6.785400 2.022700
6.803200 2.044800
6.820900 2.078200
6.838700 2.196200
6.856500 2.290200
6.874300 2.287600
6.892000 2.311000
6.909800 2.348800
6.927600 2.408300
6.945400 2.421800
6.963100 2.380700
6.980900 2.355100
6.998700 2.261800
7.016500 2.253500
7.034200 2.249000
7.052000 2.245700
7.069800 2.240400
7.087600 2.238300
7.105300 2.231300
7.123100 2.217100
7.140900 2.226900
7.158700 2.229000
7.176400 2.216200
7.194200 2.242200
7.212000 2.297100
7.229800 2.305300
7.247500 2.323100
7.265300 2.355200
7.283100 2.392000
7.300900 2.442900
7.318600 2.456700
7.336400 2.460200
7.354200 2.453700
7.372000 2.409500
7.389700 2.380600
7.407500 2.310300
7.425300 2.256700
7.443100 2.218600
7.460800 2.180000
7.478600 2.149400
7.496400 2.121100
7.514200 2.104600
7.531900 2.069700
7.549700 2.042300
7.567500 2.056900
7.585300 2.049500
7.603000 2.041600
7.620800 2.052000
7.638600 2.071200
7.656400 2.099800
7.674100 2.131200
7.691900 2.159600
7.709700 2.194100
7.727500 2.205400
7.745200 2.235300
7.763000 2.238700
7.780800 2.199900
7.798600 2.211700
7.816300 2.229000
7.834100 2.248800
7.851900 2.268700
7.869700 2.283200
7.887400 2.298600
7.905200 2.336000
7.923000 2.321500
7.940800 2.335600
7.958500 2.362700
7.976300 2.401400
7.994100 2.459500
8.011900 2.519100
8.029600 2.587400
8.047400 2.666500
8.065200 2.725600
8.082900 2.799000
8.100700 2.885000
8.118500 2.970100
8.136300 3.038200
8.154000 3.053700
8.171800 3.071800
8.189600 3.096000
8.207400 3.130800
8.225100 3.180700
8.242900 3.243000
8.260700 3.316600
8.278500 3.367900
8.296200 3.405600
8.314000 3.432100
8.331800 3.469900
8.349600 3.507900
8.367300 3.545600
8.385100 3.571300
8.402900 3.574100
8.420700 3.512400
8.438400 3.494600
8.456200 3.446100
8.474000 3.434600
8.491800 3.413500
8.509500 3.391000
8.527300 3.366800
8.545100 3.377500
8.562900 3.433400
8.580600 3.518000
8.598400 3.578300
8.616200 3.584500
8.634000 3.614500
8.651700 3.660700
8.669500 3.627200
8.687300 3.581200
8.705100 3.532100
8.722800 3.456300
8.740600 3.398000
8.758400 3.350300
8.776200 3.340100
8.793900 3.337500
8.811700 3.337900
8.829500 3.224600
8.847300 3.141500
8.865000 3.087800
8.882800 3.001700
8.900600 2.981900
8.918400 2.991600
8.936100 2.998700
8.953900 2.999500
8.971700 2.937200
8.989500 2.811300
9.007200 2.792700
9.025000 2.799100
9.042800 2.870200
9.060600 2.928100
9.078300 2.972900
9.096100 2.981000
9.113900 2.970400
9.131700 2.960200
9.149400 2.899500
9.167200 2.847600
9.185000 2.794400
9.202800 2.699400
9.220500 2.631100
9.238300 2.582300
9.256100 2.551900
9.273900 2.535900
9.291600 2.529300
9.309400 2.528200
9.327200 2.528900
9.345000 2.530500
9.362700 2.538400
9.380500 2.548200
9.398300 2.565600
9.416100 2.587600
9.433800 2.608200
9.451600 2.628300
9.469400 2.647900
9.487200 2.664700
9.504900 2.674500
9.522700 2.560700
9.540500 2.511300
9.558300 2.583300
9.576000 2.679500
9.593800 2.794200
9.611600 2.899100
9.629400 2.968900
9.647100 3.016500
9.664900 3.042400
9.682700 3.076400
9.700500 3.129600
9.718200 3.238500
9.736000 3.251700
9.753800 3.248300
9.771600 3.260700
9.789300 3.325800
9.807100 3.399300
9.824900 3.498400
9.842700 3.568900
9.860400 3.574700
9.878200 3.643500
9.896000 3.600300
9.913800 3.510300
9.931500 3.476900
9.949300 3.442000
9.967100 3.461700
9.984900 3.521400
10.002600 3.589900
10.020400 3.570400
10.038200 3.579400
10.056000 3.596800
10.073700 3.573200
10.091500 3.512900
10.109300 3.423700
10.127100 3.342200
10.144800 3.216600
10.162600 3.085000
10.180400 2.944700
10.198200 2.850900
10.215900 2.818300
10.233700 2.839900
10.251500 2.894000
10.269300 2.882100
10.287000 2.874500
10.304800 2.876900
10.322600 2.912800
10.340400 2.944600
10.358100 2.971000
10.375900 2.993000
10.393700 3.029700
10.411500 3.061500
10.429200 2.952600
10.447000 2.794400
10.464800 2.639300
10.482600 2.577500
10.500300 2.520900
10.518100 2.435100
10.535900 2.343500
10.553700 2.286000
10.571400 2.221400
10.589200 2.186400
10.607000 2.161600
10.624800 2.135600
10.642500 2.114700
10.660300 2.100600
10.678100 2.101800
10.695900 2.094800
10.713600 2.094200
10.731400 2.076800
10.749200 2.066200
10.767000 2.061000
10.784700 2.075200
10.802500 2.101600
10.820300 2.097300
10.838000 2.095300
10.855800 2.110400
10.873600 2.125800
10.891400 2.132400
10.909100 2.133300
10.926900 2.102800
10.944700 2.091100
10.962500 1.981400
10.980200 1.877000
10.998000 1.772700
11.015800 1.614300
11.033600 1.514500
11.051300 1.470900
11.069100 1.433500
11.086900 1.401200
11.104700 1.371900
11.122400 1.343500
11.140200 1.314500
11.158000 1.369700
11.175800 1.302900
11.193500 1.249900
11.211300 1.222400
11.229100 1.197100
11.246900 1.171700
11.264600 1.144700
11.282400 1.103400
11.300200 1.084400
11.318000 1.073600
11.335700 1.066800
11.353500 1.064200
11.371300 1.074500
11.389100 1.085100
11.406800 1.074700
11.424600 1.064400
11.442400 1.038900
11.460200 1.039700
11.477900 1.064600
11.495700 1.077300
11.513500 1.096400
11.531300 1.120200
11.549000 1.145700
11.566800 1.168800
11.584600 1.195400
11.602400 1.227600
11.620100 1.263700
11.637900 1.296200
11.655700 1.327300
11.673500 1.303200
11.691200 1.339100
11.709000 1.398800
11.726800 1.568300
11.744600 1.623000
11.762300 1.728100
11.780100 1.834000
11.797900 2.019600
11.815700 2.245100
11.833400 2.397800
11.851200 2.470200
11.869000 2.538400
11.886800 2.587300
11.904500 2.604900
11.922300 2.595600
11.940100 2.609100
11.957900 2.672600
11.975600 2.801700
11.993400 2.729800
12.011200 2.604900
12.029000 2.513500
12.046700 2.498500
12.064500 2.502600
12.082300 2.521500
12.100100 2.577400
12.117800 2.608600
12.135600 2.635900
12.153400 2.754300
12.171200 2.846300
12.188900 2.883200
12.206700 2.944800
12.224500 2.966200
12.242300 2.941000
12.260000 2.952600
12.277800 2.916100
12.295600 2.874400
12.313400 2.880300
12.331100 2.889000
12.348900 2.921700
12.366700 2.962200
12.384500 3.038400
12.402200 3.128700
12.420000 3.227800
12.437800 3.339700
12.455600 3.451300
12.473300 3.547300
12.491100 3.665400
12.508900 3.817800
12.526700 3.859600
12.544400 3.898100
12.562200 3.911400
12.580000 3.931000
12.597800 3.958000
12.615500 3.880300
12.633300 3.791100
12.651100 3.693900
12.668900 3.624200
12.686600 3.601600
12.704400 3.568500
12.722200 3.526600
12.740000 3.505900
12.757700 3.499400
12.775500 3.481900
12.793300 3.461700
12.811100 3.420200
12.828800 3.285200
12.846600 3.182700
12.864400 3.084800
12.882200 3.050700
12.899900 3.002800
12.917700 2.978200
12.935500 2.990600
12.953300 3.038900
12.971000 3.166000
12.988800 3.172600
13.006600 3.077400
13.024400 3.033800
13.042100 3.013800
13.059900 2.974500
13.077700 2.882000
13.095500 2.871400
13.113200 2.727800
13.131000 2.697500
13.148800 2.677500
13.166600 2.656200
13.184300 2.725700
13.202100 2.673300
13.219900 2.613800
13.237700 2.553300
13.255400 2.505900
13.273200 2.475300
13.291000 2.466900
13.308800 2.476300
13.326500 2.484700
13.344300 2.508000
13.362100 2.535500
13.379900 2.589800
13.397600 2.617400
13.415400 2.602600
13.433200 2.531400
13.451000 2.519400
13.468700 2.537600
13.486500 2.585500
13.504300 2.636600
13.522100 2.677000
13.539800 2.723300
13.557600 2.740500
13.575400 2.740900
13.593100 2.736400
13.610900 2.750400
13.628700 2.730200
13.646500 2.678400
13.664200 2.634900
13.682000 2.616200
13.699800 2.608800
13.717600 2.597200
13.735300 2.589800
13.753100 2.574000
13.770900 2.545800
13.788700 2.516000
13.806400 2.532000
13.824200 2.605500
13.842000 2.640400
13.859800 2.658500
13.877500 2.669500
13.895300 2.680200
13.913100 2.655800
13.930900 2.623400
13.948600 2.566500
13.966400 2.553000
13.984200 2.578700
14.002000 2.608800
14.019700 2.591200
14.037500 2.548500
14.055300 2.519300
14.073100 2.489300
14.090800 2.475900
14.108600 2.487200
14.126400 2.526500
14.144200 2.598500
14.161900 2.691700
14.179700 2.843200
14.197500 2.988800
14.215300 3.086900
14.233000 3.167100
14.250800 3.235800
14.268600 3.301400
14.286400 3.259600
14.304100 3.262900
14.321900 3.324000
14.339700 3.390100
14.357500 3.413600
14.375200 3.405000
14.393000 3.226700
14.410800 3.165600
14.428600 3.103300
14.446300 3.147600
14.464100 3.173400
14.481900 3.200800
14.499700 3.246200
14.517400 3.288400
14.535200 3.349000
14.553000 3.360700
14.570800 3.377300
14.588500 3.384900
14.606300 3.414300
14.624100 3.505700
14.641900 3.556600
14.659600 3.582900
14.677400 3.610100
14.695200 3.649100
14.713000 3.749100
14.730700 3.860800
14.748500 4.042300
14.766300 4.131500
14.784100 3.943500
14.801800 3.820900
14.819600 3.817700
14.837400 3.809700
14.855200 3.780900
14.872900 3.762400
14.890700 3.658700
14.908500 3.591300
14.926300 3.591500
14.944000 3.615100
14.961800 3.625100
14.979600 3.638600
14.997400 3.664200
15.015100 3.685900
15.032900 3.681400
15.050700 3.671200
15.068500 3.657300
15.086200 3.619400
15.104000 3.553000
15.121800 3.496900
15.139600 3.471600
15.157300 3.453600
15.175100 3.452700
15.192900 3.451500
15.210700 3.450100
15.228400 3.452900
15.246200 3.466800
15.264000 3.472900
15.281800 3.522300
15.299500 3.781100
15.317300 3.883500
15.335100 3.825600
15.352900 3.945700
15.370600 4.100500
15.388400 3.992100
15.406200 4.020100
15.424000 4.078100
15.441700 4.082700
15.459500 4.083700
15.477300 4.111100
15.495100 4.088800
15.512800 4.094600
15.530600 4.091500
15.548400 4.102200
15.566200 4.082400
15.583900 4.109100
15.601700 4.158000
15.619500 4.202000
15.637300 4.200300
15.655000 4.233800
15.672800 4.270900
15.690600 4.344200
15.708400 4.440200
15.726100 4.570600
15.743900 4.613800
15.761700 4.611400
15.779500 4.605300
15.797200 4.569000
15.815000 4.569500
15.832800 4.576300
15.850600 4.580300
15.868300 4.568200
15.886100 4.496500
15.903900 4.467900
15.921700 4.515300
15.939400 4.528300
15.957200 4.544200
15.975000 4.532400
15.992800 4.477800
16.010500 4.373200
16.028300 4.302300
16.046100 4.268600
16.063900 4.293600
16.081600 4.206600
16.099400 4.116900
16.117200 4.009300
16.135000 3.961300
16.152700 3.930900
16.170500 3.928400
16.188300 3.900700
16.206100 3.862100
16.223800 3.824200
16.241600 3.811600
16.259400 3.822600
16.277100 3.878900
16.294900 3.949500
16.312700 3.994400
16.330500 3.967200
16.348200 4.000800
16.366000 4.025900
16.383800 4.032000
16.401600 4.064500
16.419300 4.064500
16.437100 4.068500
16.454900 4.082700
16.472700 4.135300
16.490400 3.988500
16.508200 3.983300
16.526000 3.945300
16.543800 3.995200
16.561500 4.033500
16.579300 4.067500
16.597100 4.102200
16.614900 4.130500
16.632600 4.158500
16.650400 4.210800
16.668200 4.328400
16.686000 4.305400
16.703700 4.182600
16.721500 4.084600
16.739300 4.118300
16.757100 4.141800
16.774800 4.072400
16.792600 4.189200
16.810400 4.154200
16.828200 4.180200
16.845900 4.150200
16.863700 4.096300
16.881500 4.108500
16.899300 4.141300
16.917000 4.136000
16.934800 4.110100
16.952600 4.054800
16.970400 4.144600
16.988100 4.147900
17.005900 4.076300
17.023700 4.139000
17.041500 4.251000
17.059200 4.352200
17.077000 4.380800
17.094800 4.394200
17.112600 4.370800
17.130300 4.477900
17.148100 4.446800
17.165900 4.360100
17.183700 4.280700
17.201400 4.104000
17.219200 4.068000
17.237000 3.959600
17.254800 3.848100
17.272500 3.771400
17.290300 3.715400
17.308100 3.684900
17.325900 3.663400
17.343600 3.646100
17.361400 3.626900
17.379200 3.629000
17.397000 3.690500
17.414700 3.747200
17.432500 3.804800
17.450300 3.777600
17.468100 3.884000
17.485800 4.054000
17.503600 4.035500
17.521400 4.056100
17.539200 4.157300
17.556900 4.240300
17.574700 4.252300
17.592500 4.227500
17.610300 4.171000
17.628000 4.170300
17.645800 4.207600
17.663600 4.307900
17.681400 4.379000
17.699100 4.519800
17.716900 4.639300
17.734700 4.693400
17.752500 4.614400
17.770200 4.551300
17.788000 4.550300
17.805800 4.351000
17.823600 4.175000
17.841300 4.060200
17.859100 4.172500
17.876900 4.069500
17.894700 4.007000
17.912400 3.968500
17.930200 3.958600
17.948000 4.065700
17.965800 4.238900
17.983500 4.399200
18.001300 4.198800
18.019100 4.188700
18.036900 4.309900
18.054600 4.273200
18.072400 4.267400
18.090200 4.335900
18.108000 4.411100
18.125700 4.469600
18.143500 4.451200
18.161300 4.397100
18.179100 4.344600
18.196800 4.310900
18.214600 4.271800
18.232400 4.242900
18.250200 4.225300
18.267900 4.204800
18.285700 4.235500
18.303500 4.244300
18.321300 4.217700
18.339000 4.284700
18.356800 4.314900
18.374600 4.344500
18.392400 4.393100
18.410100 4.449600
18.427900 4.514100
18.445700 4.491200
18.463500 4.532600
18.481200 4.475500
18.499000 4.467900
18.516800 4.468400
18.534600 4.580000
18.552300 4.616800
18.570100 4.751900
18.587900 4.777200
18.605700 4.782900
18.623400 4.696300
18.641200 4.582500
18.659000 4.556300
18.676800 4.440100
18.694500 4.386500
18.712300 4.277400
18.730100 4.229700
18.747900 4.182200
18.765600 4.162100
18.783400 4.139000
18.801200 4.110200
18.819000 4.086300
18.836700 4.107300
18.854500 4.139800
18.872300 4.214800
18.890100 4.275200
18.907800 4.558000
18.925600 4.615600
18.943400 4.595300
18.961200 4.627800
18.978900 4.473000
18.996700 4.483600
19.014500 4.588500
19.032200 4.686100
19.050000 4.895000
19.067800 4.980500
19.085600 5.113200
19.103300 5.179400
19.121100 5.231100
19.138900 5.203200
19.156700 5.116800
19.174400 5.142900
19.192200 5.457100
19.210000 5.188900
19.227800 5.070300
19.245500 4.971500
19.263300 4.832900
19.281100 4.725900
19.298900 4.661200
19.316600 4.649800
19.334400 4.659000
19.352200 4.718300
19.370000 4.642300
19.387700 4.604400
19.405500 4.571200
19.423300 4.579500
19.441100 4.636100
19.458800 4.715500
19.476600 4.778500
19.494400 4.867900
19.512200 5.095600
19.529900 5.254900
19.547700 5.286000
19.565500 5.296600
19.583300 5.327300
19.601000 5.170200
19.618800 5.113900
19.636600 5.091300
19.654400 5.052000
19.672100 4.960900
19.689900 4.824400
19.707700 4.722400
19.725500 4.635200
19.743200 4.592200
19.761000 4.517200
19.778800 4.489700
19.796600 4.490100
19.814300 4.500200
19.832100 4.543400
19.849900 4.597500
19.867700 4.677600
19.885400 4.782500
19.903200 4.832700
19.921000 4.864600
19.938800 4.867300
19.956500 4.910500
19.974300 4.937800
19.992100 4.973500
20.009900 5.026400
20.027600 5.218500
20.045400 5.234300
20.063200 5.068100
20.081000 5.082300
20.098700 5.024700
20.116500 4.969400
20.134300 4.806500
20.152100 4.811300
20.169800 4.797300
20.187600 4.758000
20.205400 4.719800
20.223200 4.707400
20.240900 4.674400
20.258700 4.634600
20.276500 4.662500
20.294300 4.645000
20.312000 4.646400
20.329800 4.683700
20.347600 4.657300
20.365400 4.626000
20.383100 4.622800
20.400900 4.618300
20.418700 4.625900
20.436500 4.667400
20.454200 4.784600
20.472000 4.739000
20.489800 4.649200
20.507600 4.679600
20.525300 4.739000
20.543100 4.718000
20.560900 4.748200
20.578700 4.828000
20.596400 4.923500
20.614200 5.027000
20.632000 5.138600
20.649800 5.285100
20.667500 5.435700
20.685300 5.605300
20.703100 5.600300
20.720900 5.436800
20.738600 5.309800
20.756400 5.180000
20.774200 5.126300
20.792000 5.086800
20.809700 5.240100
20.827500 5.184900
20.845300 5.130500
20.863100 5.105500
20.880800 5.107000
20.898600 5.148100
20.916400 5.229700
20.934200 5.461100
20.951900 5.595300
20.969700 5.571800
20.987500 5.576700
21.005300 5.586200
21.023000 5.581200
21.040800 5.492800
21.058600 5.420100
21.076400 5.336600
21.094100 5.351800
21.111900 5.183400
21.129700 5.079200
21.147500 4.888900
21.165200 4.820100
21.183000 4.675100
21.200800 4.607600
21.218600 4.610300
21.236300 4.639100
21.254100 4.693100
21.271900 4.833700
21.289700 6.717100
21.307400 4.967100
21.325200 5.031600
21.343000 5.009900
21.360800 5.051800
21.378500 5.062200
21.396300 5.120700
21.414100 5.237900
21.431900 5.351700
21.449600 5.396600
21.467400 5.421300
21.485200 5.376500
21.503000 5.360300
21.520700 5.304600
21.538500 5.218900
21.556300 5.187400
21.574100 5.261500
21.591800 5.400900
21.609600 5.256000
21.627400 5.244100
21.645200 5.280200
21.662900 5.403700
21.680700 5.406100
21.698500 5.449100
21.716300 5.458400
21.734000 5.402200
21.751800 5.392400
21.769600 5.382500
21.787300 5.349200
21.805100 5.301700
21.822900 5.257300
21.840700 5.227700
21.858400 5.177100
21.876200 5.145100
21.894000 5.080300
21.911800 5.049100
21.929500 5.052800
21.947300 5.079100
21.965100 5.137500
21.982900 5.202600
22.000600 5.237100
22.018400 5.271000
22.036200 5.327600
22.054000 5.316000
22.071700 5.276600
22.089500 5.240500
22.107300 5.326500
22.125100 5.352600
22.142800 5.401800
22.160600 5.413600
22.178400 5.283200
22.196200 5.254600
22.213900 5.176200
22.231700 5.083400
22.249500 5.032100
22.267300 4.989800
22.285000 4.970600
22.302800 4.952200
22.320600 4.937600
22.338400 4.941400
22.356100 4.975900
22.373900 5.085900
22.391700 5.182200
22.409500 5.308300
22.427200 5.389300
22.445000 5.477700
22.462800 5.586400
22.480600 5.756300
22.498300 5.848000
22.516100 5.922400
22.533900 5.839000
22.551700 5.767900
22.569400 5.660300
22.587200 5.687500
22.605000 5.817200
22.622800 5.958600
22.640500 6.041100
22.658300 6.088000
22.676100 6.095600
22.693900 6.132100
22.711600 6.072200
22.729400 5.996400
22.747200 5.891400
22.765000 5.903200
22.782700 5.922100
22.800500 6.063600
22.818300 6.242300
22.836100 6.105200
22.853800 5.907000
22.871600 5.752600
22.889400 5.680600
22.907200 5.656900
22.924900 5.619300
22.942700 5.558400
22.960500 5.531400
22.978300 5.556500
22.996000 5.615300
23.013800 5.583400
23.031600 5.489500
23.049400 5.454500
23.067100 5.343400
23.084900 5.291300
23.102700 5.290100
23.120500 5.312300
23.138200 5.355700
23.156000 5.350400
23.173800 5.382100
23.191600 5.380800
23.209300 5.325400
23.227100 5.355100
23.244900 5.656700
23.262700 5.703600
23.280400 5.767100
23.298200 5.911800
23.316000 5.736300
23.333800 5.683600
23.351500 5.688500
23.369300 5.662000
23.387100 5.593700
23.404900 5.516900
23.422600 5.609200
23.440400 5.581600
23.458200 5.680000
23.476000 5.676000
23.493700 5.713800
23.511500 5.674300
23.529300 5.684500
23.547100 5.695900
23.564800 5.835000
23.582600 5.845800
23.600400 5.815000
23.618200 5.674500
23.635900 5.625900
23.653700 5.558500
23.671500 5.556000
23.689300 5.579100
23.707000 5.611100
23.724800 5.620100
23.742600 5.622800
23.760400 5.616800
23.778100 5.621600
23.795900 5.681300
23.813700 5.681300
23.831500 5.678000
23.849200 5.680300
23.867000 5.736500
23.884800 5.922100
23.902600 6.075400
23.920300 6.242000
23.938100 6.316700
23.955900 6.265400
23.973700 6.295600
23.991400 6.076500
24.009200 5.867000
24.027000 5.810500
24.044800 5.875400
24.062500 6.022700
24.080300 5.843800
24.098100 5.904700
24.115900 5.748000
24.133600 5.679500
24.151400 5.694700
24.169200 5.757900
24.187000 5.904000
24.204700 5.754400
24.222500 5.732200
24.240300 5.674000
24.258100 5.590700
24.275800 5.527800
24.293600 5.546800
24.311400 5.567400
24.329200 5.521600
24.346900 5.498300
24.364700 5.503900
24.382500 5.539900
24.400300 5.668000
24.418000 5.755900
24.435800 5.817300
24.453600 5.950200
24.471300 6.133700
24.489100 6.279700
24.506900 6.211800
24.524700 6.088400
24.542400 6.241700
24.560200 6.071200
24.578000 5.938800
24.595800 5.886700
24.613500 5.936900
24.631300 5.701200
24.649100 5.692400
24.666900 5.776500
24.684600 5.927500
24.702400 6.027000
24.720200 6.104100
24.738000 6.206000
24.755700 6.320800
24.773500 6.326400
24.791300 6.335000
24.809100 6.280600
24.826800 6.259900
24.844600 6.210700
24.862400 6.045500
24.880200 5.851000
24.897900 5.812300
24.915700 5.823300
24.933500 5.882700
24.951300 5.921000
24.969000 5.949200
24.986800 6.056100
25.004600 6.110100
25.022400 6.137900
25.040100 5.989700
25.057900 5.996300
25.075700 6.051600
25.093500 6.093900
25.111200 6.016500
25.129000 6.044900
25.146800 5.880900
25.164600 5.726600
25.182300 5.522700
25.200100 5.404800
25.217900 5.341800
25.235700 5.298500
25.253400 5.262200
25.271200 5.208000
25.289000 5.149400
25.306800 5.093300
25.324500 5.025300
25.342300 4.973400
25.360100 5.066900
25.377900 4.698200
25.395600 4.520200
25.413400 4.414200
25.431200 4.402600
25.449000 4.225500
25.466700 4.147900
25.484500 4.074500
25.502300 3.962500
25.520100 3.837900
25.537800 3.724000
25.555600 3.585300
25.573400 3.479200
25.591200 3.426500
25.608900 3.376300
25.626700 3.318800
25.644500 3.298300
25.662300 3.313700
25.680000 3.236500
25.697800 3.107000
25.715600 3.103500
25.733400 2.870500
25.751100 2.729400
25.768900 2.652900
25.786700 2.596500
25.804500 2.560900
25.822200 2.545100
25.840000 2.662900
25.857800 2.694000
25.875600 2.681600
25.893300 2.594700
25.911100 2.512000
25.928900 2.463500
25.946700 2.270400
25.964400 2.022000
25.982200 1.835700
26.000000 1.732000
26.017800 1.712100
26.035500 1.682000
26.053300 1.672600
26.071100 1.636500
26.088900 1.584700
26.106600 1.492100
26.124400 1.339600
26.142200 1.215600
26.160000 1.107700
26.177700 1.026000
26.195500 0.976100
26.213300 0.935300
26.231100 0.879100
26.248800 0.806200
26.266600 0.710900
26.284400 0.681000
26.302200 0.672400
26.319900 0.653100
26.337700 0.551000
26.355500 0.471100
26.373300 0.393900
26.391000 0.309700
26.408800 0.239200
26.426600 0.205500
26.444400 0.175600
26.462100 0.149400
26.479900 0.123700
26.497700 0.098500
26.515500 0.073700
26.533200 0.047800
26.551000 0.016400
26.568800 0.000100
26.586600 0.000000
26.604300 0.000000
26.622100 0.000000
26.639900 0.000000
26.657700 0.000000
26.675400 0.000000
26.693200 0.000000
26.711000 0.000000
26.728800 0.000000
26.746500 0.000000
26.764300 0.000000
26.782100 0.000000
26.799900 0.000000
26.817600 0.000000
26.835400 0.000000
26.853200 0.000000
26.871000 0.000000
26.888700 0.000000
26.906500 0.000000
26.924300 0.000000
26.942100 0.000000
26.959800 0.000000
26.977600 0.000000
26.995400 0.000000
27.013200 0.000000
27.030900 0.000000
27.048700 0.000000
27.066500 0.000000
27.084300 0.000000
27.102000 0.000000
27.119800 0.000000
27.137600 0.000000
27.155400 0.000000
27.173100 0.000000
27.190900 0.000000
27.208700 0.000000
27.226400 0.000000
27.244200 0.000000
27.262000 0.000000
27.279800 0.000000
27.297500 0.000000
27.315300 0.000000
27.333100 0.000000
27.350900 0.000000
27.368600 0.000000
27.386400 0.000000
27.404200 0.000000
27.422000 0.000000
27.439700 0.000000
27.457500 0.000000
27.475300 0.000000
27.493100 0.000000
27.510800 0.000000
27.528600 0.000000
27.546400 0.000000
27.564200 0.000000
27.581900 0.000000
27.599700 0.000000
27.617500 0.000000
27.635300 0.000000
27.653000 0.000000
27.670800 0.000000
27.688600 0.000000
27.706400 0.000000
27.724100 0.000000
27.741900 0.000000
27.759700 0.000000
27.777500 0.000000
27.795200 0.000000
27.813000 0.000000
27.830800 0.000000
27.848600 0.000000
27.866300 0.000000
27.884100 0.000000
27.901900 0.000000
27.919700 0.000000
27.937400 0.000000
27.955200 0.000000
27.973000 0.000000
27.990800 0.000000
28.008500 0.000000
28.026300 0.000000
28.044100 0.000000
28.061900 0.000000
28.079600 0.000000
28.097400 0.000000
28.115200 0.000000
28.133000 0.000000
28.150700 0.000000
28.168500 0.000000
28.186300 0.000000
e
