set title 'mp-634965 - Density of States'
set xlabel 'Energy (eV)'
set ylabel 'DOS (states/eV)'
set grid
set xrange [-10:10]
set yrange [0:2.617]
set xzeroaxis lt -1
set terminal png size 800,600
set output 'mp-634965_dos_gnuplot.png'
plot '-' using 1:2 with lines title 'DOS'
-35.281300 0.000000
-35.213200 0.000000
-35.145200 0.000000
-35.077200 0.000000
-35.009200 0.000000
-34.941200 0.000000
-34.873200 0.000000
-34.805100 0.000000
-34.737100 0.000000
-34.669100 0.000000
-34.601100 0.000000
-34.533100 0.000000
-34.465100 0.000000
-34.397000 0.000000
-34.329000 0.000000
-34.261000 0.000000
-34.193000 0.000000
-34.125000 0.000000
-34.056900 0.000000
-33.988900 0.000000
-33.920900 0.000000
-33.852900 0.000000
-33.784900 0.000000
-33.716900 0.000000
-33.648800 0.000000
-33.580800 0.000000
-33.512800 0.000000
-33.444800 0.000000
-33.376800 0.000000
-33.308700 0.000000
-33.240700 0.000000
-33.172700 0.000000
-33.104700 0.000000
-33.036700 0.000000
-32.968700 0.000000
-32.900600 0.000000
-32.832600 0.000000
-32.764600 0.000000
-32.696600 0.000000
-32.628600 0.000000
-32.560500 0.000000
-32.492500 0.000000
-32.424500 0.000000
-32.356500 0.000000
-32.288500 0.000000
-32.220500 0.000000
-32.152400 0.000000
-32.084400 0.000000
-32.016400 0.000000
-31.948400 0.000000
-31.880400 0.000000
-31.812400 0.000000
-31.744300 0.000000
-31.676300 0.000000
-31.608300 0.000000
-31.540300 0.000000
-31.472300 0.000000
-31.404200 0.000000
-31.336200 0.000000
-31.268200 0.000000
-31.200200 0.000000
-31.132200 0.000000
-31.064200 0.000000
-30.996100 0.000000
-30.928100 0.000000
-30.860100 0.000000
-30.792100 0.000000
-30.724100 0.000000
-30.656000 0.000000
-30.588000 0.000000
-30.520000 0.000000
-30.452000 0.000000
-30.384000 0.000000
-30.316000 0.000000
-30.247900 0.000000
-30.179900 0.000000
-30.111900 0.000000
-30.043900 0.000000
-29.975900 0.000000
-29.907800 0.000000
-29.839800 0.000000
-29.771800 0.000000
-29.703800 0.000000
-29.635800 0.000000
-29.567800 0.000000
-29.499700 0.000000
-29.431700 0.000000
-29.363700 0.000000
-29.295700 0.000000
-29.227700 0.000000
-29.159700 0.000000
-29.091600 0.424400
-29.023600 4.055700
-28.955600 7.292000
-28.887600 12.014900
-28.819600 17.637800
-28.751500 7.159400
-28.683500 3.960000
-28.615500 3.735900
-28.547500 3.498300
-28.479500 4.251200
-28.411500 3.563400
-28.343400 3.986500
-28.275400 4.855900
-28.207400 8.935200
-28.139400 6.169700
-28.071400 0.000000
-28.003300 0.000000
-27.935300 0.000000
-27.867300 0.000000
-27.799300 0.000000
-27.731300 0.000000
-27.663300 0.000000
-27.595200 0.000000
-27.527200 0.000000
-27.459200 0.000000
-27.391200 0.000000
-27.323200 0.000000
-27.255100 0.000000
-27.187100 0.000000
-27.119100 0.000000
-27.051100 0.000000
-26.983100 0.000000
-26.915100 0.000000
-26.847000 0.000000
-26.779000 0.000000
-26.711000 0.000000
-26.643000 0.000000
-26.575000 0.000000
-26.507000 0.000000
-26.438900 0.000000
-26.370900 0.000000
-26.302900 0.000000
-26.234900 0.000000
-26.166900 0.000000
-26.098800 0.000000
-26.030800 0.000000
-25.962800 0.000000
-25.894800 0.000000
-25.826800 0.000000
-25.758800 0.000000
-25.690700 0.000000
-25.622700 0.000000
-25.554700 0.000000
-25.486700 0.000000
-25.418700 0.000000
-25.350600 0.000000
-25.282600 0.000000
-25.214600 0.000000
-25.146600 0.000000
-25.078600 0.000000
-25.010600 0.000000
-24.942500 0.000000
-24.874500 0.000000
-24.806500 0.000000
-24.738500 0.000000
-24.670500 0.000000
-24.602400 0.000000
-24.534400 0.000000
-24.466400 0.000000
-24.398400 0.000000
-24.330400 0.000000
-24.262400 0.000000
-24.194300 0.000000
-24.126300 0.000000
-24.058300 0.000000
-23.990300 0.000000
-23.922300 0.000000
-23.854300 0.000000
-23.786200 0.000000
-23.718200 0.000000
-23.650200 0.000000
-23.582200 0.000000
-23.514200 0.000000
-23.446100 0.000000
-23.378100 0.000000
-23.310100 0.000000
-23.242100 0.000000
-23.174100 0.000000
-23.106100 0.000000
-23.038000 0.000000
-22.970000 0.000000
-22.902000 0.000000
-22.834000 0.000000
-22.766000 0.000000
-22.697900 0.000000
-22.629900 0.000000
-22.561900 0.000000
-22.493900 0.000000
-22.425900 0.000000
-22.357900 0.000000
-22.289800 0.000000
-22.221800 0.000000
-22.153800 0.000000
-22.085800 0.000000
-22.017800 0.000000
-21.949700 0.000000
-21.881700 0.000000
-21.813700 0.000000
-21.745700 0.000000
-21.677700 0.000000
-21.609700 0.000000
-21.541600 0.000000
-21.473600 0.000000
-21.405600 0.000000
-21.337600 0.000000
-21.269600 0.000000
-21.201600 0.000000
-21.133500 0.000000
-21.065500 0.000000
-20.997500 0.000000
-20.929500 0.000000
-20.861500 0.000000
-20.793400 0.000000
-20.725400 0.000000
-20.657400 0.000000
-20.589400 0.000000
-20.521400 0.000000
-20.453400 0.000000
-20.385300 0.000000
-20.317300 0.000000
-20.249300 0.000000
-20.181300 0.000000
-20.113300 0.000000
-20.045200 0.000000
-19.977200 0.000000
-19.909200 0.000000
-19.841200 0.000000
-19.773200 0.000000
-19.705200 0.000000
-19.637100 0.000000
-19.569100 0.000000
-19.501100 0.000000
-19.433100 0.000000
-19.365100 0.000000
-19.297100 0.000000
-19.229000 0.000000
-19.161000 0.000000
-19.093000 0.000000
-19.025000 0.000000
-18.957000 0.000000
-18.888900 0.000000
-18.820900 0.000000
-18.752900 0.000000
-18.684900 0.000000
-18.616900 0.000000
-18.548900 0.000000
-18.480800 0.000000
-18.412800 0.000000
-18.344800 0.000000
-18.276800 0.000000
-18.208800 0.000000
-18.140700 0.000000
-18.072700 0.000000
-18.004700 0.000000
-17.936700 0.000000
-17.868700 0.000000
-17.800700 0.000000
-17.732600 0.000000
-17.664600 0.000000
-17.596600 0.000000
-17.528600 0.000000
-17.460600 0.000000
-17.392500 0.000000
-17.324500 0.000000
-17.256500 0.000000
-17.188500 0.000000
-17.120500 0.000000
-17.052500 0.000000
-16.984400 0.000000
-16.916400 0.000000
-16.848400 0.000000
-16.780400 0.000000
-16.712400 0.000000
-16.644400 0.000000
-16.576300 0.000000
-16.508300 0.000000
-16.440300 0.000000
-16.372300 0.000000
-16.304300 0.000000
-16.236200 0.000000
-16.168200 0.000000
-16.100200 0.180700
-16.032200 0.412700
-15.964200 0.568800
-15.896200 0.773500
-15.828100 1.099700
-15.760100 1.499900
-15.692100 1.422200
-15.624100 1.429800
-15.556100 1.445200
-15.488000 1.280500
-15.420000 1.072400
-15.352000 1.016700
-15.284000 0.969600
-15.216000 0.926700
-15.148000 0.910300
-15.079900 0.895400
-15.011900 0.897600
-14.943900 0.909500
-14.875900 0.925900
-14.807900 0.952200
-14.739800 1.009400
-14.671800 1.188700
-14.603800 1.305100
-14.535800 1.280600
-14.467800 1.279000
-14.399800 1.317900
-14.331700 1.050100
-14.263700 0.665700
-14.195700 0.468500
-14.127700 0.214900
-14.059700 0.000000
-13.991700 0.000000
-13.923600 0.000000
-13.855600 0.000000
-13.787600 0.000000
-13.719600 0.000000
-13.651600 0.000000
-13.583500 0.000000
-13.515500 0.000000
-13.447500 0.000000
-13.379500 0.000000
-13.311500 0.000000
-13.243500 0.000000
-13.175400 0.000000
-13.107400 0.000000
-13.039400 0.000000
-12.971400 0.000000
-12.903400 0.000000
-12.835300 0.000000
-12.767300 0.000000
-12.699300 0.000000
-12.631300 0.000000
-12.563300 0.000000
-12.495300 0.000000
-12.427200 0.000000
-12.359200 0.000000
-12.291200 0.000000
-12.223200 0.000000
-12.155200 0.000000
-12.087100 0.000000
-12.019100 0.000000
-11.951100 0.000000
-11.883100 0.000000
-11.815100 0.000000
-11.747100 0.000000
-11.679000 0.000000
-11.611000 0.000000
-11.543000 0.000000
-11.475000 0.000000
-11.407000 0.000000
-11.339000 0.000000
-11.270900 0.000000
-11.202900 0.000000
-11.134900 0.000000
-11.066900 0.000000
-10.998900 0.000000
-10.930800 0.000000
-10.862800 0.000000
-10.794800 0.000000
-10.726800 0.000000
-10.658800 0.000000
-10.590800 0.000000
-10.522700 0.000000
-10.454700 0.000000
-10.386700 0.000000
-10.318700 0.000000
-10.250700 0.000000
-10.182600 0.000000
-10.114600 0.000000
-10.046600 0.000000
-9.978600 0.000000
-9.910600 0.000000
-9.842600 0.000000
-9.774500 0.000000
-9.706500 0.000000
-9.638500 0.000000
-9.570500 0.000000
-9.502500 0.000000
-9.434400 0.000000
-9.366400 0.000000
-9.298400 0.000000
-9.230400 0.000000
-9.162400 0.000000
-9.094400 0.000000
-9.026300 0.000000
-8.958300 0.000000
-8.890300 0.000000
-8.822300 0.000000
-8.754300 0.000000
-8.686300 0.000000
-8.618200 0.000000
-8.550200 0.000000
-8.482200 0.000000
-8.414200 0.000000
-8.346200 0.000000
-8.278100 0.000000
-8.210100 0.000000
-8.142100 0.000000
-8.074100 0.000000
-8.006100 0.000000
-7.938100 0.000000
-7.870000 0.000000
-7.802000 0.000000
-7.734000 0.000000
-7.666000 0.000000
-7.598000 0.000000
-7.529900 0.000000
-7.461900 0.000000
-7.393900 0.000000
-7.325900 0.000000
-7.257900 0.000000
-7.189900 0.000000
-7.121800 0.000000
-7.053800 0.000000
-6.985800 0.000000
-6.917800 0.000000
-6.849800 0.000000
-6.781700 0.000000
-6.713700 0.000000
-6.645700 0.000000
-6.577700 0.000000
-6.509700 0.000000
-6.441700 0.000000
-6.373600 0.000000
-6.305600 0.000000
-6.237600 0.000000
-6.169600 0.000000
-6.101600 0.000000
-6.033600 0.000000
-5.965500 0.000000
-5.897500 0.000000
-5.829500 0.000000
-5.761500 0.000000
-5.693500 0.000000
-5.625400 0.000000
-5.557400 0.000000
-5.489400 0.000000
-5.421400 0.000000
-5.353400 0.000000
-5.285400 0.000000
-5.217300 0.000000
-5.149300 0.000000
-5.081300 0.000000
-5.013300 0.000000
-4.945300 0.000000
-4.877200 0.000000
-4.809200 0.000000
-4.741200 0.000000
-4.673200 0.000000
-4.605200 0.000000
-4.537200 0.000000
-4.469100 0.000000
-4.401100 0.000000
-4.333100 0.000000
-4.265100 0.000000
-4.197100 0.000000
-4.129000 0.087600
-4.061000 0.241000
-3.993000 0.436200
-3.925000 0.745600
-3.857000 0.950400
-3.789000 1.034500
-3.720900 1.038800
-3.652900 0.812000
-3.584900 0.668400
-3.516900 0.559900
-3.448900 0.511800
-3.380900 0.511800
-3.312800 0.511800
-3.244800 0.504000
-3.176800 0.487400
-3.108800 0.467100
-3.040800 0.606400
-2.972700 0.689800
-2.904700 0.762500
-2.836700 0.815200
-2.768700 0.849800
-2.700700 0.893200
-2.632700 0.942000
-2.564600 0.994000
-2.496600 1.082000
-2.428600 1.256600
-2.360600 1.335500
-2.292600 1.372100
-2.224500 1.423900
-2.156500 1.461100
-2.088500 1.515200
-2.020500 1.557700
-1.952500 1.547300
-1.884500 1.560300
-1.816400 1.599700
-1.748400 1.710000
-1.680400 1.734600
-1.612400 1.711100
-1.544400 1.718500
-1.476300 1.734600
-1.408300 1.763300
-1.340300 1.837900
-1.272300 1.881100
-1.204300 1.911100
-1.136300 1.873300
-1.068200 1.752300
-1.000200 1.876900
-0.932200 1.914900
-0.864200 1.910600
-0.796200 1.849300
-0.728200 1.608800
-0.660100 1.502800
-0.592100 1.471300
-0.524100 1.505900
-0.456100 1.784500
-0.388100 2.023200
-0.320000 2.243200
-0.252000 2.351500
-0.184000 2.379400
-0.116000 2.122000
-0.048000 2.047500
0.020000 1.941300
0.088100 1.907000
0.156100 1.777700
0.224100 1.707500
0.292100 1.608200
0.360100 1.350600
0.428200 1.264500
0.496200 1.179400
0.564200 1.134700
0.632200 1.283800
0.700200 1.481200
0.768200 1.402800
0.836300 1.373500
0.904300 1.470000
0.972300 1.538600
1.040300 1.586800
1.108300 1.532800
1.176400 1.346300
1.244400 1.269100
1.312400 1.270900
1.380400 1.297200
1.448400 1.297400
1.516400 1.307600
1.584500 1.359700
1.652500 1.574700
1.720500 1.794100
1.788500 1.286300
1.856500 1.122900
1.924500 0.985200
1.992600 0.823100
2.060600 0.683200
2.128600 0.531400
2.196600 0.470700
2.264600 0.510700
2.332700 0.625000
2.400700 0.741800
2.468700 0.861000
2.536700 0.964500
2.604700 1.078300
2.672700 1.273700
2.740800 1.497200
2.808800 1.885000
2.876800 1.523200
2.944800 1.327400
3.012800 1.242000
3.080900 1.200100
3.148900 1.122400
3.216900 1.169500
3.284900 1.152600
3.352900 1.223400
3.420900 1.252400
3.489000 1.181300
3.557000 1.061500
3.625000 0.995900
3.693000 0.973400
3.761000 0.965400
3.829100 0.967400
3.897100 1.029000
3.965100 1.098600
4.033100 1.180500
4.101100 1.230900
4.169100 1.209200
4.237200 1.174400
4.305200 1.211300
4.373200 1.273500
4.441200 1.391500
4.509200 1.581000
4.577200 1.776300
4.645300 1.869500
4.713300 2.051700
4.781300 2.150300
4.849300 1.994700
4.917300 1.940200
4.985400 1.948600
5.053400 2.010000
5.121400 2.044700
5.189400 1.975500
5.257400 1.963700
5.325400 1.984400
5.393500 1.963000
5.461500 1.959300
5.529500 2.014400
5.597500 2.049600
5.665500 2.209100
5.733600 2.172900
5.801600 2.108800
5.869600 1.999500
5.937600 1.917600
6.005600 1.934700
6.073600 1.834300
6.141700 1.800300
6.209700 1.719300
6.277700 1.479600
6.345700 1.322700
6.413700 1.318300
6.481800 1.176300
6.549800 1.129800
6.617800 1.116000
6.685800 1.072700
6.753800 1.029000
6.821800 0.996100
6.889900 0.983900
6.957900 0.939100
7.025900 0.939000
7.093900 0.980200
7.161900 0.899200
7.229900 0.717000
7.298000 0.519000
7.366000 0.327000
7.434000 0.296300
7.502000 0.291200
7.570000 0.397300
7.638100 0.267100
7.706100 0.275000
7.774100 0.283500
7.842100 0.294600
7.910100 0.305800
7.978100 0.328400
8.046200 0.340500
8.114200 0.343300
8.182200 0.344700
8.250200 0.343500
8.318200 0.342500
8.386300 0.349700
8.454300 0.360700
8.522300 0.374900
8.590300 0.391700
8.658300 0.471100
8.726300 0.607700
8.794400 0.685400
8.862400 0.751400
8.930400 0.776400
8.998400 0.791300
9.066400 0.761300
9.134500 0.740300
9.202500 0.733900
9.270500 0.731700
9.338500 0.730200
9.406500 0.733100
9.474500 0.736400
9.542600 0.741800
9.610600 0.761700
9.678600 0.783600
9.746600 0.865400
9.814600 0.867400
9.882600 0.824500
9.950700 0.791000
10.018700 0.761400
10.086700 0.742500
10.154700 0.735200
10.222700 0.728300
10.290800 0.716400
10.358800 0.706300
10.426800 0.704700
10.494800 0.735000
10.562800 0.739300
10.630800 0.754900
10.698900 0.729800
10.766900 0.696900
10.834900 0.637500
10.902900 0.585400
10.970900 0.586500
11.039000 0.478600
11.107000 0.425200
11.175000 0.407800
11.243000 0.407600
11.311000 0.423200
11.379000 0.449100
11.447100 0.495600
11.515100 0.509100
11.583100 0.503700
11.651100 0.515200
11.719100 0.539900
11.787200 0.603500
11.855200 0.625800
11.923200 0.795100
11.991200 0.570800
12.059200 0.612000
12.127200 0.698200
12.195300 0.812000
12.263300 0.861600
12.331300 0.891300
12.399300 0.945400
12.467300 1.070600
12.535300 1.148300
12.603400 1.237100
12.671400 1.352700
12.739400 1.413600
12.807400 1.465300
12.875400 1.461900
12.943500 1.432500
13.011500 1.376300
13.079500 1.301600
13.147500 1.140700
13.215500 1.086900
13.283500 1.004000
13.351600 0.929400
13.419600 0.887000
13.487600 0.824100
13.555600 0.621900
13.623600 0.596200
13.691700 0.569600
13.759700 0.540100
13.827700 0.510500
13.895700 0.481700
13.963700 0.456600
14.031700 0.447600
14.099800 0.468900
14.167800 0.504200
14.235800 0.594300
14.303800 0.586200
14.371800 0.626100
14.439900 0.713400
14.507900 0.804600
14.575900 0.875500
14.643900 0.915700
14.711900 0.946300
14.779900 0.986000
14.848000 0.915400
14.916000 0.881700
14.984000 0.862900
15.052000 0.842700
15.120000 0.795700
15.188000 0.759500
15.256100 0.724300
15.324100 0.705400
15.392100 0.707600
15.460100 0.676100
15.528100 0.645100
15.596200 0.619700
15.664200 0.594400
15.732200 0.577300
15.800200 0.814400
15.868200 0.812800
15.936200 0.865900
16.004300 0.900900
16.072300 0.925200
16.140300 1.023300
16.208300 1.017000
16.276300 1.011300
16.344400 0.988400
16.412400 0.970500
16.480400 0.986300
16.548400 1.045800
16.616400 1.119000
16.684400 1.220700
16.752500 1.296100
16.820500 1.267100
16.888500 1.246100
16.956500 1.269900
17.024500 1.329400
17.092600 1.390600
17.160600 1.481100
17.228600 1.361400
17.296600 1.241900
17.364600 1.176300
17.432600 1.208800
17.500700 1.260100
17.568700 1.250000
17.636700 1.229000
17.704700 1.177400
17.772700 1.110500
17.840700 1.031300
17.908800 0.862100
17.976800 0.798000
18.044800 0.522900
18.112800 0.304800
18.180800 0.269400
18.248900 0.280300
18.316900 0.357400
18.384900 0.562100
18.452900 0.998100
18.520900 1.151600
18.588900 1.329400
18.657000 1.422300
18.725000 1.419700
18.793000 1.476200
18.861000 1.517100
18.929000 1.487000
18.997100 1.517000
19.065100 1.602400
19.133100 1.743800
19.201100 1.759200
19.269100 1.763300
19.337100 1.616500
19.405200 1.405600
19.473200 1.322000
19.541200 1.214000
19.609200 1.115700
19.677200 1.058500
19.745300 1.051300
19.813300 1.113600
19.881300 1.164300
19.949300 1.195900
20.017300 1.239200
20.085300 1.285200
20.153400 1.340000
20.221400 1.450200
20.289400 1.471400
20.357400 1.420600
20.425400 1.366100
20.493400 1.305300
20.561500 1.270100
20.629500 1.215700
20.697500 1.173400
20.765500 1.154900
20.833500 1.172600
20.901600 1.241800
20.969600 1.290000
21.037600 1.279200
21.105600 1.039800
21.173600 0.940900
21.241600 0.861400
21.309700 0.840600
21.377700 0.831800
21.445700 0.896600
21.513700 0.936100
21.581700 0.968800
21.649800 1.035400
21.717800 1.100700
21.785800 1.142200
21.853800 1.212800
21.921800 1.325100
21.989800 1.522900
22.057900 1.600700
22.125900 1.626200
22.193900 1.595400
22.261900 1.586600
22.329900 1.645900
22.398000 1.986300
22.466000 2.141200
22.534000 1.629800
22.602000 1.380100
22.670000 1.163400
22.738000 0.996700
22.806100 0.888400
22.874100 0.868700
22.942100 0.836900
23.010100 0.773700
23.078100 0.734000
23.146100 0.720900
23.214200 0.734300
23.282200 0.769300
23.350200 0.813900
23.418200 0.820500
23.486200 0.854300
23.554300 0.887800
23.622300 0.925600
23.690300 0.968200
23.758300 0.986800
23.826300 0.992000
23.894300 1.032200
23.962400 1.056700
24.030400 1.054400
24.098400 1.075500
24.166400 1.096900
24.234400 1.110600
24.302500 1.105100
24.370500 1.154600
24.438500 1.100500
24.506500 1.143600
24.574500 1.164900
24.642500 1.218100
24.710600 1.184600
24.778600 1.201700
24.846600 1.124500
24.914600 1.043800
24.982600 1.018700
25.050700 1.022000
25.118700 1.030600
25.186700 1.068800
25.254700 1.112800
25.322700 1.186300
25.390700 1.247200
25.458800 1.285200
25.526800 1.283100
25.594800 1.277600
25.662800 1.239000
25.730800 1.172100
25.798800 1.119000
25.866900 1.101300
25.934900 1.099300
26.002900 1.117100
26.070900 1.126700
26.138900 1.156800
26.207000 1.215300
26.275000 1.257000
26.343000 1.290100
26.411000 1.366700
26.479000 1.410600
26.547000 1.412600
26.615100 1.392300
26.683100 1.333900
26.751100 1.334600
26.819100 1.332100
26.887100 1.290500
26.955200 1.187800
27.023200 1.123600
27.091200 1.095800
27.159200 1.053700
27.227200 0.999700
27.295200 0.969900
27.363300 1.007000
27.431300 1.049300
27.499300 1.099000
27.567300 1.102900
27.635300 1.133500
27.703400 1.148000
27.771400 1.159400
27.839400 1.144100
27.907400 1.098400
27.975400 1.062000
28.043400 1.011400
28.111500 0.983400
28.179500 0.981500
28.247500 0.979000
28.315500 0.970900
28.383500 0.956500
28.451500 0.984600
28.519600 0.935400
28.587600 0.907700
28.655600 0.942800
28.723600 1.029200
28.791600 1.178700
28.859700 1.402600
28.927700 1.405100
28.995700 1.386700
29.063700 1.380300
29.131700 1.369000
29.199700 1.295100
29.267800 1.295300
29.335800 1.296600
29.403800 1.274900
29.471800 1.240000
29.539800 1.181800
29.607900 1.092000
29.675900 1.026800
29.743900 0.968000
29.811900 0.926700
29.879900 0.908700
29.947900 0.898100
30.016000 0.928500
30.084000 1.163900
30.152000 1.162000
30.220000 1.257500
30.288000 1.332300
30.356100 1.461000
30.424100 1.606800
30.492100 1.755000
30.560100 1.782000
30.628100 1.686800
30.696100 1.569200
30.764200 1.414900
30.832200 1.359600
30.900200 1.376200
30.968200 1.379600
31.036200 1.243400
31.104200 1.065300
31.172300 0.996200
31.240300 1.015500
31.308300 1.035500
31.376300 1.075600
31.444300 1.113100
31.512400 1.113800
31.580400 1.119300
31.648400 1.369900
31.716400 1.398300
31.784400 1.228900
31.852400 1.253400
31.920500 1.349000
31.988500 1.428200
32.056500 1.455000
32.124500 1.516100
32.192500 1.429300
32.260600 1.347500
32.328600 1.292600
32.396600 1.219500
32.464600 1.231700
32.532600 1.279500
32.600600 1.395600
32.668700 1.399900
32.736700 1.413900
32.804700 1.400200
32.872700 1.413600
32.940700 1.418400
33.008700 1.342100
33.076800 1.314400
33.144800 1.292200
33.212800 1.292500
33.280800 1.327100
33.348800 1.330200
33.416900 1.360100
33.484900 1.352700
33.552900 1.325600
33.620900 1.345600
33.688900 1.383100
33.756900 1.482000
33.825000 1.638000
33.893000 1.759600
33.961000 1.924500
34.029000 1.997700
34.097000 1.916600
34.165100 1.787200
34.233100 1.811800
34.301100 1.822500
34.369100 1.887500
34.437100 1.926400
34.505100 1.971600
34.573200 1.873500
34.641200 1.739200
34.709200 1.604500
34.777200 1.525300
34.845200 1.504000
34.913300 1.483300
34.981300 1.502800
35.049300 1.543800
35.117300 1.594400
35.185300 1.598900
35.253300 1.660000
35.321400 1.704400
35.389400 1.984300
35.457400 2.028300
35.525400 1.934600
35.593400 1.904100
35.661400 2.006700
35.729500 2.049100
35.797500 1.995000
35.865500 1.842400
35.933500 1.847800
36.001500 1.825400
36.069600 1.904400
36.137600 1.975500
36.205600 2.057700
36.273600 2.194600
36.341600 2.047600
36.409600 1.948900
36.477700 1.964000
36.545700 2.122500
36.613700 2.128700
36.681700 2.103900
36.749700 2.262500
36.817800 2.277200
36.885800 2.269900
36.953800 2.393100
37.021800 2.636900
37.089800 2.653100
37.157800 2.907200
37.225900 3.078700
37.293900 3.750800
37.361900 5.429800
37.429900 3.275600
37.497900 3.069700
37.566000 2.492200
37.634000 2.279000
37.702000 2.124300
37.770000 2.205000
37.838000 2.231200
37.906000 2.120600
37.974100 2.076200
38.042100 1.961700
38.110100 1.789700
38.178100 1.701400
38.246100 1.623300
38.314100 1.556400
38.382200 1.523800
38.450200 1.527100
38.518200 1.508700
38.586200 1.562600
38.654200 1.636800
38.722300 1.655000
38.790300 1.742900
38.858300 1.685000
38.926300 1.673300
38.994300 1.688900
39.062300 1.602900
39.130400 1.437600
39.198400 1.418200
39.266400 1.441600
39.334400 1.496700
39.402400 1.595800
39.470500 1.787300
39.538500 1.906600
39.606500 1.988000
39.674500 2.226700
39.742500 1.907000
39.810500 1.640900
39.878600 1.467200
39.946600 1.399200
40.014600 1.368400
40.082600 1.339500
40.150600 1.307000
40.218700 1.280600
40.286700 1.284200
40.354700 1.278400
40.422700 1.266800
40.490700 1.269200
40.558700 1.289300
40.626800 1.287800
40.694800 1.289600
40.762800 1.337000
40.830800 1.452200
40.898800 1.678900
40.966800 1.794900
41.034900 1.729400
41.102900 1.530800
41.170900 1.398900
41.238900 1.412800
41.306900 1.486700
41.375000 1.534900
41.443000 1.527700
41.511000 1.550800
41.579000 1.552300
41.647000 1.611000
41.715000 1.651600
41.783100 1.648800
41.851100 1.662500
41.919100 1.652000
41.987100 1.656700
42.055100 1.615100
42.123200 1.562400
42.191200 1.508800
42.259200 1.458300
42.327200 1.419500
42.395200 1.358700
42.463200 1.345500
42.531300 1.347100
42.599300 1.388200
42.667300 1.446500
42.735300 1.507000
42.803300 1.554900
42.871400 1.619200
42.939400 1.636400
43.007400 1.657000
43.075400 1.699200
43.143400 1.779600
43.211400 1.833400
43.279500 1.860800
43.347500 1.751000
43.415500 1.713800
43.483500 1.674000
43.551500 1.579700
43.619500 1.503800
43.687600 1.455200
43.755600 1.450800
43.823600 1.411000
43.891600 1.392300
43.959600 1.421400
44.027700 1.436500
44.095700 1.479200
44.163700 1.511600
44.231700 1.572000
44.299700 1.513800
44.367700 1.493500
44.435800 1.471800
44.503800 1.389300
44.571800 1.378700
44.639800 1.342700
44.707800 1.331900
44.775900 1.469600
44.843900 1.513100
44.911900 1.543100
44.979900 1.564400
45.047900 1.591000
45.115900 1.620600
45.184000 1.672100
45.252000 1.710200
45.320000 1.669200
45.388000 1.631400
45.456000 1.615300
45.524100 1.529600
45.592100 1.467500
45.660100 1.473400
45.728100 1.491800
45.796100 1.484100
45.864100 1.516200
45.932200 1.575700
46.000200 1.581900
46.068200 1.639900
46.136200 1.723000
46.204200 1.784500
46.272200 1.742900
46.340300 1.748400
46.408300 1.723300
46.476300 1.652600
46.544300 1.590300
46.612300 1.548300
46.680400 1.451700
46.748400 1.363700
46.816400 1.277000
46.884400 1.246600
46.952400 1.246400
47.020400 1.267800
47.088500 1.294400
47.156500 1.295700
47.224500 1.307300
47.292500 1.343600
47.360500 1.352100
47.428600 1.342500
47.496600 1.319600
47.564600 1.334600
47.632600 1.286500
47.700600 1.292700
47.768600 1.347600
47.836700 1.460500
47.904700 1.505400
47.972700 1.537200
48.040700 1.559900
48.108700 1.673900
48.176800 1.700500
48.244800 1.722200
48.312800 1.685300
48.380800 1.696300
48.448800 1.607000
48.516800 1.491600
48.584900 1.428600
48.652900 1.380600
48.720900 1.420300
48.788900 1.464800
48.856900 1.508300
48.924900 1.552500
48.993000 1.623500
49.061000 1.655300
49.129000 1.663000
49.197000 1.643500
49.265000 1.675000
49.333100 1.604300
49.401100 1.603100
49.469100 1.609900
49.537100 1.643000
49.605100 1.726800
49.673100 1.645300
49.741200 1.620500
49.809200 1.606500
49.877200 1.644400
49.945200 1.602300
50.013200 1.514300
50.081300 1.547200
50.149300 1.617900
50.217300 1.701000
50.285300 1.800100
50.353300 1.831400
50.421300 1.870200
50.489400 1.957700
50.557400 1.987900
50.625400 1.971300
50.693400 1.928600
50.761400 1.935200
50.829500 1.899700
50.897500 1.874700
50.965500 1.811600
51.033500 1.740000
51.101500 1.695000
51.169500 1.647100
51.237600 1.643400
51.305600 1.624400
51.373600 1.672500
51.441600 1.717700
51.509600 1.809500
51.577600 1.849100
51.645700 1.855500
51.713700 1.842400
51.781700 1.916100
51.849700 1.934900
51.917700 1.962200
51.985800 1.880900
52.053800 1.906300
52.121800 1.956500
52.189800 1.898200
52.257800 1.821700
52.325800 1.763900
52.393900 1.711000
52.461900 1.645100
52.529900 1.626000
52.597900 1.576600
52.665900 1.582500
52.734000 1.626800
52.802000 1.789400
52.870000 1.932700
52.938000 2.063100
53.006000 2.177500
53.074000 2.291300
53.142100 2.374700
53.210100 2.356000
53.278100 2.208200
53.346100 2.039100
53.414100 1.938400
53.482200 1.849200
53.550200 1.784000
53.618200 1.684900
53.686200 1.669600
53.754200 1.810600
53.822200 1.915400
53.890300 1.989700
53.958300 2.232700
54.026300 2.061400
54.094300 1.912400
54.162300 1.702400
54.230300 1.627300
54.298400 1.627900
54.366400 1.657700
54.434400 1.775100
54.502400 1.856500
54.570400 2.075600
54.638500 2.369200
54.706500 2.504900
54.774500 2.487400
54.842500 2.129500
54.910500 1.869200
54.978500 1.682400
55.046600 1.544800
55.114600 1.500200
55.182600 1.496400
55.250600 1.447700
55.318600 1.464500
55.386700 1.494900
55.454700 1.585600
55.522700 1.667400
55.590700 1.717100
55.658700 1.735800
55.726700 1.788600
55.794800 1.816400
55.862800 1.836700
55.930800 1.821400
55.998800 1.734600
56.066800 1.663200
56.134900 1.625400
56.202900 1.598500
56.270900 1.681300
56.338900 1.621600
56.406900 1.604000
56.474900 1.610100
56.543000 1.633700
56.611000 1.604700
56.679000 1.656100
56.747000 1.721300
56.815000 1.752400
56.883000 1.790900
56.951100 1.836300
57.019100 1.865300
57.087100 1.854100
57.155100 1.775000
57.223100 1.769400
57.291200 1.722800
57.359200 1.685700
57.427200 1.680500
57.495200 1.678200
57.563200 1.651300
57.631200 1.612700
57.699300 1.576600
57.767300 1.586900
57.835300 1.575100
57.903300 1.616700
57.971300 1.696700
58.039400 1.690600
58.107400 1.696900
58.175400 1.700500
58.243400 1.692000
58.311400 1.712600
58.379400 1.781900
58.447500 1.844200
58.515500 1.934800
58.583500 1.889100
58.651500 1.845100
58.719500 1.840100
58.787600 1.870400
58.855600 1.922100
58.923600 1.959500
58.991600 1.951900
59.059600 1.994500
59.127600 1.978100
59.195700 1.962500
59.263700 1.926100
59.331700 1.853200
59.399700 1.837000
59.467700 1.860900
59.535700 1.862200
59.603800 1.855400
59.671800 1.888600
59.739800 1.818700
59.807800 1.736600
59.875800 1.709600
59.943900 1.594200
60.011900 1.584000
60.079900 1.581000
60.147900 1.616800
60.215900 1.687100
60.283900 1.646300
60.352000 1.641300
60.420000 1.681600
60.488000 1.647400
60.556000 1.637600
60.624000 1.689800
60.692100 1.752400
60.760100 1.870700
60.828100 1.846400
60.896100 1.831600
60.964100 1.835000
61.032100 1.817900
61.100200 1.803200
61.168200 1.791900
61.236200 1.757300
61.304200 1.743100
61.372200 1.744700
61.440300 1.793200
61.508300 1.825700
61.576300 1.861000
61.644300 1.862700
61.712300 1.856000
61.780300 1.925800
61.848400 1.939400
61.916400 1.956800
61.984400 1.986600
62.052400 2.047400
62.120400 1.947600
62.188400 1.964700
62.256500 1.941500
62.324500 1.937600
62.392500 1.954100
62.460500 1.965500
62.528500 1.990300
62.596600 2.072500
62.664600 2.164100
62.732600 2.199600
62.800600 2.170100
62.868600 2.067900
62.936600 1.913500
63.004700 1.843500
63.072700 1.762400
63.140700 1.711500
63.208700 1.696300
63.276700 1.702900
63.344800 1.721600
63.412800 1.762800
63.480800 1.795300
63.548800 1.877200
63.616800 1.872800
63.684800 1.978200
63.752900 1.940000
63.820900 1.913900
63.888900 1.898600
63.956900 1.928100
64.024900 1.990000
64.093000 2.054100
64.161000 2.041000
64.229000 1.890100
64.297000 1.809400
64.365000 1.782800
64.433000 1.809200
64.501100 1.844000
64.569100 1.872300
64.637100 1.897500
64.705100 1.819200
64.773100 1.735400
64.841100 1.658300
64.909200 1.621600
64.977200 1.614900
65.045200 1.578200
65.113200 1.581300
65.181200 1.633700
65.249300 1.702200
65.317300 1.779400
65.385300 1.840300
65.453300 1.873900
65.521300 1.949100
65.589300 1.986300
65.657400 2.016100
65.725400 2.056100
65.793400 2.037700
65.861400 2.025300
65.929400 2.034800
65.997500 2.063900
66.065500 2.004700
66.133500 1.922600
66.201500 1.885800
66.269500 1.879800
66.337500 1.846500
66.405600 1.844400
66.473600 1.881900
66.541600 1.926800
66.609600 1.977900
66.677600 2.048400
66.745700 2.095500
66.813700 2.012000
66.881700 1.971300
66.949700 1.993200
67.017700 1.953400
67.085700 1.946600
67.153800 1.938100
67.221800 1.925900
67.289800 1.936500
67.357800 1.969800
67.425800 2.000000
67.493800 2.004200
67.561900 2.028100
67.629900 2.040000
67.697900 2.058400
67.765900 2.036100
67.833900 1.982100
67.902000 1.930800
67.970000 1.889800
68.038000 1.821400
68.106000 1.826900
68.174000 1.753000
68.242000 1.732900
68.310100 1.723300
68.378100 1.681200
68.446100 1.639300
68.514100 1.706800
68.582100 1.801800
68.650200 1.912400
68.718200 1.933100
68.786200 1.948100
68.854200 1.933700
68.922200 1.876700
68.990200 1.830200
69.058300 1.810000
69.126300 1.789900
69.194300 1.808400
69.262300 1.900800
69.330300 1.961400
69.398400 2.072100
69.466400 2.107800
69.534400 2.124500
69.602400 2.177600
69.670400 2.246600
69.738400 2.249500
69.806500 2.102700
69.874500 1.975700
69.942500 1.823200
70.010500 1.746900
70.078500 1.749100
70.146500 1.794500
70.214600 1.856200
70.282600 1.947400
70.350600 2.049300
70.418600 2.134600
70.486600 2.233900
70.554700 2.238200
70.622700 2.288500
70.690700 2.262000
70.758700 2.194600
70.826700 2.100700
70.894700 2.013300
70.962800 1.955600
71.030800 1.939000
71.098800 1.915200
71.166800 2.010800
71.234800 2.091200
71.302900 2.125700
71.370900 2.121100
71.438900 2.047500
71.506900 1.972600
71.574900 1.905100
71.642900 1.879300
71.711000 1.867800
71.779000 1.881100
71.847000 1.896800
71.915000 1.951700
71.983000 1.999600
72.051100 2.050400
72.119100 2.013600
72.187100 2.039500
72.255100 2.067000
72.323100 2.109600
72.391100 2.131000
72.459200 2.139400
72.527200 2.231000
72.595200 2.141700
72.663200 2.022400
72.731200 2.103000
72.799200 2.129900
72.867300 2.057900
72.935300 1.957700
73.003300 1.887600
73.071300 1.850800
73.139300 1.853400
73.207400 1.867500
73.275400 1.894100
73.343400 1.886400
73.411400 1.847700
73.479400 1.782100
73.547400 1.735800
73.615500 1.703200
73.683500 1.740900
73.751500 1.758300
73.819500 1.789900
73.887500 1.825100
73.955600 1.871400
74.023600 1.903100
74.091600 1.973700
74.159600 1.950600
74.227600 2.010200
74.295600 2.159700
74.363700 2.038400
74.431700 2.001300
74.499700 1.996600
74.567700 2.055700
74.635700 2.095900
74.703800 2.061300
74.771800 2.049800
74.839800 2.065300
74.907800 2.092600
74.975800 2.095100
75.043800 2.095900
75.111900 2.117800
75.179900 2.079500
75.247900 2.139700
75.315900 2.219400
75.383900 2.304000
75.451900 2.213000
75.520000 2.144900
75.588000 2.114600
75.656000 2.086700
75.724000 2.002100
75.792000 1.926300
75.860100 1.838000
75.928100 1.741800
75.996100 1.695500
76.064100 1.685100
76.132100 1.688300
76.200100 1.733900
76.268200 1.751800
76.336200 1.777300
76.404200 1.852200
76.472200 1.905200
76.540200 1.961400
76.608300 2.019000
76.676300 2.086000
76.744300 2.136700
76.812300 2.134600
76.880300 2.191300
76.948300 2.238000
77.016400 2.245000
77.084400 2.195600
77.152400 2.026700
77.220400 1.949200
77.288400 1.886400
77.356500 1.882300
77.424500 1.839500
77.492500 1.835600
77.560500 1.872200
77.628500 1.916300
77.696500 2.003400
77.764600 2.082900
77.832600 2.044300
77.900600 1.971400
77.968600 1.852000
78.036600 1.826200
78.104600 1.849500
78.172700 1.801000
78.240700 1.828100
78.308700 1.896900
78.376700 1.963700
78.444700 2.053000
78.512800 2.163800
78.580800 2.223900
78.648800 2.220300
78.716800 2.147200
78.784800 2.049700
78.852800 1.908400
78.920900 1.810800
78.988900 1.798500
79.056900 1.796200
79.124900 1.802800
79.192900 1.853700
79.261000 1.892600
79.329000 1.917600
79.397000 1.988700
79.465000 1.947700
79.533000 1.947100
79.601000 1.949100
79.669100 1.964700
79.737100 1.978700
79.805100 1.911100
79.873100 1.875700
79.941100 1.858100
80.009200 1.908500
80.077200 2.004100
80.145200 2.068600
80.213200 2.115100
80.281200 2.134100
80.349200 2.193500
80.417300 2.273200
80.485300 2.344200
80.553300 2.318100
80.621300 2.176700
80.689300 2.148500
80.757300 2.112000
80.825400 2.062900
80.893400 2.011300
80.961400 1.940400
81.029400 1.921400
81.097400 1.970300
81.165500 2.047000
81.233500 2.108800
81.301500 2.109800
81.369500 2.108900
81.437500 2.082900
81.505500 2.069700
81.573600 2.035800
81.641600 2.043500
81.709600 2.052600
81.777600 2.072100
81.845600 2.099000
81.913700 2.146600
81.981700 2.225700
82.049700 2.272600
82.117700 2.305300
82.185700 2.307000
82.253700 2.285400
82.321800 2.232400
82.389800 2.197500
82.457800 2.157100
82.525800 2.123600
82.593800 2.085100
82.661900 2.105600
82.729900 2.103100
82.797900 2.108100
82.865900 2.120400
82.933900 2.196200
83.001900 2.264900
83.070000 2.303200
83.138000 2.307500
83.206000 2.312100
83.274000 2.275100
83.342000 2.266500
83.410000 2.255700
83.478100 2.206200
83.546100 2.145100
83.614100 2.105800
83.682100 2.088500
83.750100 2.092500
83.818200 2.136600
83.886200 2.146800
83.954200 2.175400
84.022200 2.175600
84.090200 2.207000
84.158200 2.211800
84.226300 2.210700
84.294300 2.192000
84.362300 2.138900
84.430300 2.187300
84.498300 2.143900
84.566400 2.064300
84.634400 2.112300
84.702400 2.135500
84.770400 2.141800
84.838400 2.125300
84.906400 2.127900
84.974500 2.129400
85.042500 2.178400
85.110500 2.315300
85.178500 2.371600
85.246500 2.331700
85.314500 2.280100
85.382600 2.294600
85.450600 2.273700
85.518600 2.228800
85.586600 2.129700
85.654600 2.094000
85.722700 2.105100
85.790700 2.090700
85.858700 2.085400
85.926700 2.064600
85.994700 2.078900
86.062700 2.080200
86.130800 2.090500
86.198800 2.123800
86.266800 2.152300
86.334800 2.165600
86.402800 2.160500
86.470900 2.138200
86.538900 2.113900
86.606900 2.070800
86.674900 2.085800
86.742900 2.081300
86.810900 2.119600
86.879000 2.115900
86.947000 2.135200
87.015000 2.132300
87.083000 2.117200
87.151000 2.116500
87.219100 2.127500
87.287100 2.125000
87.355100 2.134200
87.423100 2.172500
87.491100 2.199100
87.559100 2.209900
87.627200 2.242500
87.695200 2.141900
87.763200 2.135800
87.831200 2.124600
87.899200 2.125900
87.967200 2.124000
88.035300 2.121800
88.103300 2.071500
88.171300 2.051700
88.239300 2.014300
88.307300 2.009200
88.375400 2.048700
88.443400 2.115100
88.511400 2.162100
88.579400 2.153600
88.647400 2.067000
88.715400 2.030200
88.783500 2.004400
88.851500 1.965100
88.919500 1.946600
88.987500 1.945500
89.055500 1.943000
89.123600 1.975200
89.191600 2.015800
89.259600 2.000000
89.327600 2.001000
89.395600 2.010300
89.463600 2.016300
89.531700 1.992700
89.599700 1.951600
89.667700 1.925200
89.735700 1.898100
89.803700 1.892200
89.871800 1.907200
89.939800 1.939600
90.007800 1.952200
90.075800 1.918500
90.143800 1.896000
90.211800 1.842400
90.279900 1.745800
90.347900 1.706800
90.415900 1.719200
90.483900 1.789800
90.551900 1.736200
90.619900 1.717000
90.688000 1.681000
90.756000 1.674900
90.824000 1.698700
90.892000 1.693300
90.960000 1.679900
91.028100 1.665900
91.096100 1.617100
91.164100 1.571800
91.232100 1.528400
91.300100 1.463500
91.368100 1.402100
91.436200 1.339200
91.504200 1.297100
91.572200 1.284600
91.640200 1.228500
91.708200 1.181000
91.776300 1.135200
91.844300 1.116100
91.912300 1.060200
91.980300 0.996600
92.048300 0.950600
92.116300 0.918800
92.184400 0.865100
92.252400 0.823500
92.320400 0.778600
92.388400 0.728400
92.456400 0.686300
92.524500 0.640800
92.592500 0.574500
92.660500 0.535300
92.728500 0.499100
92.796500 0.467200
92.864500 0.431000
92.932600 0.393100
93.000600 0.346400
93.068600 0.300200
93.136600 0.263300
93.204600 0.238100
93.272600 0.209300
93.340700 0.187900
93.408700 0.148600
93.476700 0.135600
93.544700 0.124200
93.612700 0.109800
93.680800 0.094700
93.748800 0.083700
93.816800 0.074900
93.884800 0.064400
93.952800 0.055200
94.020800 0.051800
94.088900 0.036700
94.156900 0.017800
94.224900 0.010800
94.292900 0.006400
94.360900 0.003700
94.429000 0.001700
94.497000 0.000500
94.565000 0.000000
94.633000 0.000000
94.701000 0.000000
94.769000 0.000000
94.837100 0.000000
94.905100 0.000000
94.973100 0.000000
95.041100 0.000000
95.109100 0.000000
95.177200 0.000000
95.245200 0.000000
95.313200 0.000000
95.381200 0.000000
95.449200 0.000000
95.517200 0.000000
95.585300 0.000000
95.653300 0.000000
95.721300 0.000000
95.789300 0.000000
95.857300 0.000000
95.925300 0.000000
95.993400 0.000000
96.061400 0.000000
96.129400 0.000000
96.197400 0.000000
96.265400 0.000000
96.333500 0.000000
96.401500 0.000000
96.469500 0.000000
96.537500 0.000000
96.605500 0.000000
96.673500 0.000000
96.741600 0.000000
96.809600 0.000000
96.877600 0.000000
96.945600 0.000000
97.013600 0.000000
97.081700 0.000000
97.149700 0.000000
97.217700 0.000000
97.285700 0.000000
97.353700 0.000000
97.421700 0.000000
97.489800 0.000000
97.557800 0.000000
97.625800 0.000000
97.693800 0.000000
97.761800 0.000000
97.829900 0.000000
97.897900 0.000000
97.965900 0.000000
98.033900 0.000000
98.101900 0.000000
98.169900 0.000000
98.238000 0.000000
98.306000 0.000000
98.374000 0.000000
98.442000 0.000000
98.510000 0.000000
98.578000 0.000000
98.646100 0.000000
98.714100 0.000000
98.782100 0.000000
98.850100 0.000000
98.918100 0.000000
98.986200 0.000000
99.054200 0.000000
99.122200 0.000000
99.190200 0.000000
99.258200 0.000000
99.326200 0.000000
99.394300 0.000000
99.462300 0.000000
99.530300 0.000000
99.598300 0.000000
99.666300 0.000000
99.734400 0.000000
99.802400 0.000000
99.870400 0.000000
99.938400 0.000000
100.006400 0.000000
100.074400 0.000000
100.142500 0.000000
100.210500 0.000000
100.278500 0.000000
100.346500 0.000000
100.414500 0.000000
100.482600 0.000000
100.550600 0.000000
100.618600 0.000000
100.686600 0.000000
100.754600 0.000000
e
