set title 'mp-1186925 - Density of States'
set xlabel 'Energy (eV)'
set ylabel 'DOS (states/eV)'
set grid
set xrange [-10:10]
set yrange [0:17.419]
set xzeroaxis lt -1
set terminal png size 800,600
set output 'mp-1186925_dos_gnuplot.png'
plot '-' using 1:2 with lines title 'DOS'
-6.941800 0.000000
-6.921600 0.000000
-6.901400 0.000000
-6.881300 0.000000
-6.861100 0.000000
-6.840900 0.000000
-6.820800 0.000000
-6.800600 0.000000
-6.780400 0.000000
-6.760200 0.000000
-6.740100 0.000000
-6.719900 0.000000
-6.699700 0.000000
-6.679600 0.000000
-6.659400 0.000000
-6.639200 0.000000
-6.619000 0.000000
-6.598900 0.000000
-6.578700 0.000000
-6.558500 0.000000
-6.538400 0.000000
-6.518200 0.000000
-6.498000 0.000000
-6.477800 0.000000
-6.457700 0.000000
-6.437500 0.000000
-6.417300 0.000000
-6.397200 0.000000
-6.377000 0.000000
-6.356800 0.000000
-6.336700 0.000000
-6.316500 0.000000
-6.296300 0.000000
-6.276100 0.000000
-6.256000 0.000000
-6.235800 0.000000
-6.215600 0.000000
-6.195500 0.000000
-6.175300 0.000000
-6.155100 0.000000
-6.134900 0.000000
-6.114800 0.000000
-6.094600 0.000000
-6.074400 0.000000
-6.054300 0.000000
-6.034100 0.000000
-6.013900 0.000000
-5.993700 0.000000
-5.973600 0.000000
-5.953400 0.000000
-5.933200 0.000000
-5.913100 0.000000
-5.892900 0.000000
-5.872700 0.000000
-5.852600 0.000000
-5.832400 0.000000
-5.812200 0.000000
-5.792000 0.000000
-5.771900 0.000000
-5.751700 0.000000
-5.731500 0.000000
-5.711400 0.000000
-5.691200 0.000000
-5.671000 0.000000
-5.650800 0.000000
-5.630700 0.000000
-5.610500 0.000000
-5.590300 0.000000
-5.570200 0.000000
-5.550000 0.000000
-5.529800 0.000000
-5.509700 0.000000
-5.489500 0.000000
-5.469300 0.000000
-5.449100 0.000000
-5.429000 0.000000
-5.408800 0.000000
-5.388600 0.000000
-5.368500 0.000000
-5.348300 0.000000
-5.328100 0.000000
-5.307900 0.000000
-5.287800 0.000000
-5.267600 0.000000
-5.247400 0.000000
-5.227300 0.000000
-5.207100 0.000000
-5.186900 0.000000
-5.166700 0.000000
-5.146600 0.000000
-5.126400 0.000000
-5.106200 0.000100
-5.086100 0.014300
-5.065900 0.052400
-5.045700 0.111600
-5.025600 0.170100
-5.005400 0.181400
-4.985200 0.195700
-4.965000 0.213200
-4.944900 0.233700
-4.924700 0.256600
-4.904500 0.270100
-4.884400 0.292500
-4.864200 0.315900
-4.844000 0.339100
-4.823800 0.356600
-4.803700 0.367600
-4.783500 0.376700
-4.763300 0.396900
-4.743200 0.413200
-4.723000 0.428600
-4.702800 0.444700
-4.682600 0.461000
-4.662500 0.477200
-4.642300 0.494300
-4.622100 0.512000
-4.602000 0.530700
-4.581800 0.551000
-4.561600 0.572700
-4.541500 0.593900
-4.521300 0.613100
-4.501100 0.633100
-4.480900 0.653200
-4.460800 0.674000
-4.440600 0.696400
-4.420400 0.718900
-4.400300 0.741600
-4.380100 0.764600
-4.359900 0.788300
-4.339700 0.817100
-4.319600 0.845300
-4.299400 0.874900
-4.279200 0.909100
-4.259100 0.951600
-4.238900 0.995600
-4.218700 1.057400
-4.198600 1.128600
-4.178400 1.195400
-4.158200 1.237600
-4.138000 1.253800
-4.117900 1.272600
-4.097700 1.310800
-4.077500 1.355100
-4.057400 1.403800
-4.037200 1.440900
-4.017000 1.470800
-3.996800 1.507800
-3.976700 1.553000
-3.956500 1.604800
-3.936300 1.660200
-3.916200 1.719300
-3.896000 1.782600
-3.875800 1.862400
-3.855600 1.949300
-3.835500 2.089900
-3.815300 2.260800
-3.795100 2.484900
-3.775000 2.756400
-3.754800 3.276100
-3.734600 3.644100
-3.714500 3.710400
-3.694300 4.133100
-3.674100 4.124500
-3.653900 3.472700
-3.633800 3.292400
-3.613600 3.056300
-3.593400 3.018600
-3.573300 3.208600
-3.553100 3.109300
-3.532900 2.400300
-3.512700 0.000000
-3.492600 0.000000
-3.472400 0.000000
-3.452200 0.000000
-3.432100 0.000000
-3.411900 0.000000
-3.391700 0.000000
-3.371500 0.000000
-3.351400 0.000000
-3.331200 0.000000
-3.311000 0.000000
-3.290900 0.000000
-3.270700 0.000000
-3.250500 0.000000
-3.230400 0.000000
-3.210200 0.000000
-3.190000 0.000000
-3.169800 0.000000
-3.149700 0.000000
-3.129500 0.000000
-3.109300 0.000000
-3.089200 0.000000
-3.069000 0.000000
-3.048800 0.000000
-3.028600 0.000000
-3.008500 0.000000
-2.988300 0.000000
-2.968100 0.000000
-2.948000 0.000000
-2.927800 0.000000
-2.907600 0.000000
-2.887500 0.000000
-2.867300 0.000000
-2.847100 0.000000
-2.826900 0.000000
-2.806800 0.000000
-2.786600 0.000000
-2.766400 0.000000
-2.746300 0.000000
-2.726100 0.000000
-2.705900 0.000000
-2.685700 0.000000
-2.665600 0.000000
-2.645400 0.000000
-2.625200 0.000000
-2.605100 0.000000
-2.584900 0.000000
-2.564700 0.000000
-2.544500 0.000000
-2.524400 0.000000
-2.504200 0.000000
-2.484000 0.000000
-2.463900 0.000000
-2.443700 0.000000
-2.423500 0.000000
-2.403400 0.000000
-2.383200 0.000000
-2.363000 0.000000
-2.342800 0.000000
-2.322700 0.000000
-2.302500 0.000000
-2.282300 0.000000
-2.262200 0.000000
-2.242000 0.000000
-2.221800 0.000000
-2.201600 0.000000
-2.181500 0.000000
-2.161300 0.000000
-2.141100 0.000000
-2.121000 0.000000
-2.100800 0.000000
-2.080600 0.000000
-2.060400 0.000000
-2.040300 0.000000
-2.020100 0.000000
-1.999900 0.000000
-1.979800 0.000000
-1.959600 0.000000
-1.939400 0.000000
-1.919300 0.000000
-1.899100 0.000000
-1.878900 0.000000
-1.858700 0.000000
-1.838600 0.000000
-1.818400 0.000000
-1.798200 0.000000
-1.778100 0.000000
-1.757900 0.000000
-1.737700 0.000000
-1.717500 0.000000
-1.697400 0.000000
-1.677200 0.000000
-1.657000 0.000000
-1.636900 0.000000
-1.616700 0.000000
-1.596500 0.000000
-1.576400 0.000000
-1.556200 0.000000
-1.536000 0.000000
-1.515800 0.000000
-1.495700 0.000000
-1.475500 0.000000
-1.455300 0.000000
-1.435200 0.000000
-1.415000 0.000000
-1.394800 0.000000
-1.374600 0.000000
-1.354500 0.000000
-1.334300 0.000000
-1.314100 0.000000
-1.294000 0.000000
-1.273800 0.000000
-1.253600 0.000000
-1.233400 0.000000
-1.213300 0.000000
-1.193100 0.000000
-1.172900 0.000000
-1.152800 0.000000
-1.132600 0.000000
-1.112400 0.000000
-1.092300 0.024400
-1.072100 0.063000
-1.051900 0.087600
-1.031700 0.118400
-1.011600 0.143200
-0.991400 0.162000
-0.971200 0.176300
-0.951100 0.183400
-0.930900 0.202000
-0.910700 0.221400
-0.890500 0.241600
-0.870400 0.262700
-0.850200 0.281500
-0.830000 0.555600
-0.809900 0.700400
-0.789700 0.864700
-0.769500 0.912800
-0.749300 1.018600
-0.729200 1.137700
-0.709000 1.269200
-0.688800 1.429900
-0.668700 1.643800
-0.648500 2.166900
-0.628300 2.114800
-0.608200 2.247000
-0.588000 2.670600
-0.567800 2.975900
-0.547600 3.400000
-0.527500 3.509000
-0.507300 3.443800
-0.487100 3.411500
-0.467000 3.381000
-0.446800 3.270700
-0.426600 3.143500
-0.406400 3.095800
-0.386300 3.033000
-0.366100 2.961700
-0.345900 2.886100
-0.325800 2.805200
-0.305600 2.715600
-0.285400 2.791300
-0.265300 2.695100
-0.245100 2.427300
-0.224900 2.196300
-0.204700 2.031600
-0.184600 1.871700
-0.164400 1.770300
-0.144200 1.715200
-0.124100 1.687100
-0.103900 1.703100
-0.083700 1.684400
-0.063500 1.732600
-0.043400 1.717300
-0.023200 1.676600
-0.003000 1.539300
0.017100 1.335000
0.037300 1.167100
0.057500 1.113300
0.077700 1.114200
0.097800 1.124500
0.118000 1.181800
0.138200 1.359200
0.158300 1.507000
0.178500 1.756500
0.198700 2.012500
0.218800 2.232000
0.239000 2.627800
0.259200 2.896800
0.279400 2.586100
0.299500 2.613600
0.319700 2.737300
0.339900 2.810500
0.360000 2.852000
0.380200 2.921800
0.400400 3.037000
0.420600 3.189500
0.440700 3.346100
0.460900 3.680200
0.481100 3.976300
0.501200 4.256900
0.521400 4.716600
0.541600 5.606400
0.561800 5.851200
0.581900 5.114100
0.602100 4.766700
0.622300 4.660400
0.642400 4.702100
0.662600 5.096100
0.682800 4.445600
0.702900 4.616700
0.723100 5.385300
0.743300 6.941800
0.763500 9.461200
0.783600 9.008300
0.803800 8.790500
0.824000 8.219200
0.844100 7.663600
0.864300 8.463300
0.884500 7.775300
0.904700 6.975500
0.924800 7.221000
0.945000 7.289700
0.965200 7.734300
0.985300 8.008900
1.005500 9.283300
1.025700 9.523300
1.045800 10.308200
1.066000 10.101100
1.086200 12.268300
1.106400 8.421700
1.126500 7.660600
1.146700 8.248700
1.166900 7.910200
1.187000 7.957900
1.207200 8.944900
1.227400 7.857200
1.247600 8.393400
1.267700 8.978200
1.287900 9.210600
1.308100 8.221500
1.328200 7.782500
1.348400 7.435600
1.368600 7.460500
1.388800 8.260300
1.408900 8.596600
1.429100 8.460200
1.449300 8.296000
1.469400 8.175400
1.489600 7.325600
1.509800 6.410800
1.529900 6.175000
1.550100 5.621200
1.570300 5.500700
1.590500 5.212900
1.610600 5.299700
1.630800 5.842100
1.651000 5.849900
1.671100 5.641800
1.691300 6.692400
1.711500 6.032200
1.731700 5.989400
1.751800 6.124900
1.772000 6.221300
1.792200 7.178400
1.812300 8.844000
1.832500 10.304200
1.852700 10.719300
1.872900 11.752200
1.893000 13.917200
1.913200 14.264900
1.933400 12.944100
1.953500 10.301800
1.973700 8.754200
1.993900 9.209000
2.014000 10.566200
2.034200 11.422500
2.054400 11.814900
2.074600 12.601300
2.094700 11.102600
2.114900 10.786600
2.135100 9.514900
2.155200 9.985700
2.175400 9.275600
2.195600 9.201000
2.215800 9.446500
2.235900 9.073900
2.256100 7.502100
2.276300 8.090900
2.296400 10.468700
2.316600 9.296500
2.336800 7.838600
2.356900 7.150800
2.377100 6.356100
2.397300 6.000800
2.417500 5.783400
2.437600 5.725900
2.457800 5.597700
2.478000 5.930200
2.498100 6.190500
2.518300 6.150600
2.538500 6.595900
2.558700 6.898500
2.578800 8.167500
2.599000 10.724000
2.619200 12.622400
2.639300 10.259400
2.659500 9.182100
2.679700 10.069900
2.699900 10.402300
2.720000 8.529200
2.740200 6.301300
2.760400 7.219100
2.780500 8.754000
2.800700 8.402400
2.820900 12.112800
2.841000 13.951000
2.861200 14.561700
2.881400 14.298300
2.901600 15.835100
2.921700 14.628200
2.941900 12.632500
2.962100 11.643300
2.982200 9.844700
3.002400 8.975900
3.022600 12.596600
3.042800 11.343300
3.062900 11.411800
3.083100 11.300800
3.103300 12.151900
3.123400 9.322500
3.143600 8.645500
3.163800 8.723500
3.184000 8.787900
3.204100 7.727700
3.224300 6.931600
3.244500 6.654000
3.264600 5.992400
3.284800 5.457200
3.305000 5.079800
3.325100 4.914100
3.345300 4.703500
3.365500 4.504100
3.385700 4.258000
3.405800 3.983800
3.426000 3.813200
3.446200 4.093400
3.466300 4.578400
3.486500 4.402000
3.506700 4.142300
3.526900 4.999300
3.547000 3.071900
3.567200 3.232100
3.587400 4.305100
3.607500 4.755800
3.627700 7.136700
3.647900 9.517500
3.668000 14.081600
3.688200 11.233000
3.708400 9.019700
3.728600 8.206900
3.748700 8.400800
3.768900 8.131700
3.789100 8.362000
3.809200 8.724500
3.829400 8.811200
3.849600 8.497100
3.869800 8.139400
3.889900 7.436100
3.910100 6.049100
3.930300 5.469300
3.950400 5.129600
3.970600 4.866200
3.990800 4.685800
4.011000 4.485800
4.031100 4.249700
4.051300 4.059700
4.071500 4.019700
4.091600 3.997000
4.111800 3.954900
4.132000 3.892300
4.152100 3.947700
4.172300 3.953500
4.192500 3.851700
4.212700 3.713200
4.232800 4.056200
4.253000 3.725300
4.273200 3.409600
4.293300 3.024000
4.313500 3.016100
4.333700 1.978200
4.353900 1.643800
4.374000 1.526900
4.394200 1.482700
4.414400 1.454200
4.434500 1.415400
4.454700 1.414900
4.474900 1.420400
4.495100 1.524100
4.515200 1.427200
4.535400 1.407400
4.555600 1.395800
4.575700 1.379500
4.595900 1.368400
4.616100 1.362300
4.636200 1.359500
4.656400 1.354700
4.676600 1.352300
4.696800 1.358400
4.716900 1.378700
4.737100 1.374900
4.757300 1.445100
4.777400 1.488400
4.797600 1.532400
4.817800 1.543600
4.838000 1.548100
4.858100 1.676900
4.878300 1.750800
4.898500 1.934800
4.918600 2.143600
4.938800 2.380600
4.959000 2.554200
4.979100 2.734100
4.999300 2.267100
5.019500 2.348600
5.039700 2.400300
5.059800 2.491600
5.080000 2.618400
5.100200 2.476700
5.120300 2.307500
5.140500 2.123700
5.160700 1.910700
5.180900 1.757400
5.201000 1.682400
5.221200 1.595900
5.241400 1.534700
5.261500 1.488900
5.281700 1.453200
5.301900 1.421200
5.322100 1.386000
5.342200 1.350800
5.362400 1.320700
5.382600 1.300600
5.402700 1.283700
5.422900 1.269900
5.443100 1.256300
5.463200 1.243200
5.483400 1.230400
5.503600 1.218400
5.523800 1.205100
5.543900 1.205500
5.564100 1.208000
5.584300 1.211300
5.604400 1.214900
5.624600 1.218500
5.644800 1.186800
5.665000 1.182100
5.685100 1.183600
5.705300 1.192300
5.725500 1.216400
5.745600 1.200900
5.765800 1.179400
5.786000 1.165500
5.806200 1.161000
5.826300 1.163000
5.846500 1.164700
5.866700 1.165000
5.886800 1.162600
5.907000 1.168100
5.927200 1.169400
5.947300 1.172300
5.967500 1.178000
5.987700 1.187100
6.007900 1.204100
6.028000 1.233500
6.048200 1.284500
6.068400 1.372900
6.088500 1.546700
6.108700 1.582700
6.128900 1.711300
6.149100 1.970100
6.169200 2.279300
6.189400 2.774500
6.209600 2.738300
6.229700 2.768400
6.249900 2.262900
6.270100 2.179200
6.290200 2.107200
6.310400 2.050500
6.330600 2.000000
6.350800 1.936200
6.370900 1.870800
6.391100 1.811700
6.411300 1.760500
6.431400 1.683300
6.451600 1.655400
6.471800 1.615800
6.492000 1.564400
6.512100 1.505400
6.532300 1.455700
6.552500 1.407900
6.572600 1.361900
6.592800 1.320600
6.613000 1.297700
6.633200 1.274200
6.653300 1.250100
6.673500 1.225800
6.693700 1.201100
6.713800 1.176400
6.734000 1.161400
6.754200 1.145300
6.774300 1.130700
6.794500 1.118000
6.814700 1.109200
6.834900 1.129400
6.855000 1.208500
6.875200 1.097600
6.895400 1.126400
6.915500 1.141100
6.935700 1.150600
6.955900 1.162900
6.976100 1.176700
6.996200 1.190200
7.016400 1.203800
7.036600 1.218300
7.056700 1.258700
7.076900 1.298100
7.097100 1.333700
7.117300 1.363400
7.137400 1.387500
7.157600 1.416900
7.177800 1.432200
7.197900 1.438600
7.218100 1.443000
7.238300 1.448600
7.258400 1.472700
7.278600 1.544700
7.298800 1.481800
7.319000 1.550600
7.339100 1.647200
7.359300 1.766500
7.379500 1.882700
7.399600 1.998700
7.419800 2.003700
7.440000 1.988600
7.460200 1.992700
7.480300 1.996500
7.500500 1.936400
7.520700 1.867600
7.540800 1.814300
7.561000 1.757700
7.581200 1.702200
7.601300 1.656300
7.621500 1.615200
7.641700 1.581900
7.661900 1.552500
7.682000 1.524700
7.702200 1.498500
7.722400 1.475400
7.742500 1.454900
7.762700 1.439500
7.782900 1.429300
7.803100 1.421400
7.823200 1.414700
7.843400 1.409800
7.863600 1.405700
7.883700 1.408500
7.903900 1.423900
7.924100 1.449600
7.944300 1.466000
7.964400 1.457900
7.984600 1.456500
8.004800 1.457700
8.024900 1.429600
8.045100 1.384900
8.065300 1.394000
8.085400 1.385700
8.105600 1.385700
8.125800 1.383700
8.146000 1.387300
8.166100 1.395200
8.186300 1.353000
8.206500 1.350900
8.226600 1.351300
8.246800 1.341000
8.267000 1.335200
8.287200 1.318800
8.307300 1.301900
8.327500 1.293400
8.347700 1.298100
8.367800 1.314700
8.388000 1.314000
8.408200 1.315900
8.428400 1.317300
8.448500 1.323900
8.468700 1.312600
8.488900 1.312800
8.509000 1.312700
8.529200 1.312500
8.549400 1.312200
8.569500 1.311700
8.589700 1.312000
8.609900 1.315200
8.630100 1.328100
8.650200 1.310300
8.670400 1.310800
8.690600 1.323500
8.710700 1.338600
8.730900 1.356100
8.751100 1.362800
8.771300 1.363200
8.791400 1.350600
8.811600 1.351800
8.831800 1.354300
8.851900 1.357900
8.872100 1.362500
8.892300 1.367400
8.912400 1.374400
8.932600 1.385400
8.952800 1.409300
8.973000 1.452700
8.993100 1.512700
9.013300 1.543700
9.033500 1.581000
9.053600 1.627200
9.073800 1.680200
9.094000 1.730400
9.114200 1.757300
9.134300 1.787000
9.154500 1.810600
9.174700 1.841600
9.194800 1.782900
9.215000 1.807800
9.235200 1.836900
9.255400 1.868500
9.275500 1.947000
9.295700 1.994400
9.315900 2.046500
9.336000 1.993300
9.356200 2.053200
9.376400 2.088400
9.396500 2.070600
9.416700 2.033400
9.436900 2.047500
9.457100 2.051000
9.477200 2.074600
9.497400 2.100100
9.517600 2.118100
9.537700 2.093900
9.557900 2.118300
9.578100 2.354200
9.598300 2.419700
9.618400 2.337000
9.638600 2.293200
9.658800 2.140800
9.678900 2.111800
9.699100 2.105400
9.719300 2.085100
9.739500 2.032000
9.759600 2.001900
9.779800 1.978300
9.800000 1.962600
9.820100 1.961400
9.840300 1.970100
9.860500 2.048400
9.880600 2.266500
9.900800 1.941500
9.921000 1.805000
9.941200 1.716000
9.961300 1.643900
9.981500 1.563200
10.001700 1.516300
10.021800 1.545700
10.042000 1.580300
10.062200 1.610900
10.082400 1.646300
10.102500 1.692600
10.122700 1.753000
10.142900 1.848700
10.163000 2.155500
10.183200 2.210600
10.203400 2.144300
10.223500 2.068000
10.243700 1.992200
10.263900 1.906400
10.284100 1.764600
10.304200 1.666800
10.324400 1.558100
10.344600 1.291100
10.364700 1.128700
10.384900 1.066100
10.405100 1.029300
10.425300 1.014700
10.445400 1.012600
10.465600 0.987500
10.485800 0.983200
10.505900 0.978300
10.526100 0.968800
10.546300 0.953600
10.566500 0.916700
10.586600 0.858000
10.606800 0.826300
10.627000 0.819800
10.647100 0.815100
10.667300 0.901100
10.687500 0.981700
10.707600 0.998400
10.727800 1.006900
10.748000 1.007100
10.768200 1.002400
10.788300 1.056200
10.808500 1.118800
10.828700 1.161100
10.848800 1.214100
10.869000 1.268000
10.889200 1.319600
10.909400 1.371700
10.929500 1.421300
10.949700 1.479800
10.969900 1.546900
10.990000 1.575600
11.010200 1.552300
11.030400 1.544400
11.050600 1.541300
11.070700 1.562900
11.090900 1.599800
11.111100 1.637300
11.131200 1.674600
11.151400 1.694100
11.171600 1.690800
11.191700 1.705000
11.211900 1.737400
11.232100 1.786600
11.252300 1.844800
11.272400 1.897400
11.292600 1.947100
11.312800 2.025900
11.332900 2.181000
11.353100 2.312900
11.373300 2.341500
11.393500 2.302300
11.413600 2.238600
11.433800 2.177900
11.454000 2.110900
11.474100 2.037000
11.494300 1.970600
11.514500 1.902100
11.534600 1.816200
11.554800 1.729000
11.575000 1.612900
11.595200 1.533600
11.615300 1.501400
11.635500 1.476900
11.655700 1.467800
11.675800 1.464300
11.696000 1.463600
11.716200 1.442700
11.736400 1.398700
11.756500 1.358600
11.776700 1.326900
11.796900 1.301900
11.817000 1.282200
11.837200 1.255500
11.857400 1.186100
11.877600 1.154500
11.897700 1.125400
11.917900 1.098900
11.938100 1.076200
11.958200 1.066800
11.978400 1.082600
11.998600 1.101200
12.018700 1.115400
12.038900 1.126400
12.059100 1.140100
12.079300 1.145500
12.099400 1.156700
12.119600 1.169500
12.139800 1.198600
12.159900 1.237200
12.180100 1.293000
12.200300 1.369300
12.220500 1.465800
12.240600 1.567300
12.260800 1.636600
12.281000 1.700200
12.301100 1.752400
12.321300 1.787900
12.341500 1.831600
12.361700 1.892100
12.381800 1.961100
12.402000 2.075300
12.422200 2.198100
12.442300 2.285500
12.462500 2.445400
12.482700 2.332700
12.502800 2.315700
12.523000 2.419900
12.543200 2.475000
12.563400 2.472900
12.583500 2.419700
12.603700 2.276900
12.623900 2.207400
12.644000 2.174300
12.664200 2.137600
12.684400 2.096300
12.704600 2.056400
12.724700 2.017600
12.744900 1.976400
12.765100 1.898000
12.785200 1.870900
12.805400 1.876700
12.825600 1.888000
12.845700 1.903900
12.865900 1.921800
12.886100 1.942400
12.906300 1.969800
12.926400 2.009800
12.946600 2.036600
12.966800 2.083400
12.986900 1.961000
13.007100 1.902100
13.027300 1.842800
13.047500 1.791100
13.067600 1.779500
13.087800 1.750000
13.108000 1.729600
13.128100 1.722000
13.148300 1.720700
13.168500 1.723800
13.188700 1.732200
13.208800 1.748500
13.229000 1.749100
13.249200 1.766900
13.269300 1.764000
13.289500 1.755300
13.309700 1.740400
13.329800 1.728500
13.350000 1.752700
13.370200 1.817500
13.390400 1.985200
13.410500 2.290800
13.430700 2.359800
13.450900 2.404400
13.471000 2.425500
13.491200 2.476000
13.511400 2.511600
13.531600 2.482400
13.551700 2.407800
13.571900 2.292600
13.592100 2.194800
13.612200 2.097700
13.632400 2.039900
13.652600 2.027800
13.672800 2.026700
13.692900 2.014100
13.713100 1.988500
13.733300 1.919400
13.753400 1.856900
13.773600 1.814800
13.793800 1.780400
13.813900 1.754400
13.834100 1.739000
13.854300 1.725500
13.874500 1.721200
13.894600 1.726800
13.914800 1.741000
13.935000 1.765100
13.955100 1.807900
13.975300 1.857500
13.995500 1.925200
14.015700 2.007600
14.035800 2.096500
14.056000 2.195700
14.076200 2.267400
14.096300 2.306400
14.116500 2.361000
14.136700 2.455100
14.156800 2.456000
14.177000 2.484700
14.197200 2.520700
14.217400 2.564500
14.237500 2.619100
14.257700 2.679000
14.277900 2.710100
14.298000 2.699000
14.318200 2.618100
14.338400 2.507800
14.358600 2.403500
14.378700 2.311400
14.398900 2.231900
14.419100 2.167300
14.439200 2.106200
14.459400 2.046400
14.479600 1.977200
14.499800 1.944200
14.519900 1.917500
14.540100 1.872600
14.560300 1.839700
14.580400 1.867600
14.600600 1.868800
14.620800 1.811000
14.640900 1.740300
14.661100 1.672000
14.681300 1.541500
14.701500 1.525200
14.721600 1.525800
14.741800 1.543800
14.762000 1.609300
14.782100 1.711500
14.802300 1.752000
14.822500 1.871600
14.842700 1.907000
14.862800 1.925600
14.883000 1.883300
14.903200 1.903700
14.923300 1.951200
14.943500 1.951500
14.963700 1.935100
14.983900 1.924100
15.004000 1.902100
15.024200 1.899800
15.044400 1.900300
15.064500 1.907900
15.084700 1.916000
15.104900 1.924100
15.125000 1.917900
15.145200 1.913300
15.165400 1.906600
15.185600 1.902100
15.205700 1.902500
15.225900 1.912100
15.246100 1.920900
15.266200 1.924800
15.286400 1.920000
15.306600 1.894200
15.326800 1.884800
15.346900 1.878300
15.367100 1.911400
15.387300 1.942800
15.407400 1.972300
15.427600 2.002800
15.447800 2.032000
15.467900 2.054800
15.488100 2.076000
15.508300 2.095600
15.528500 2.106000
15.548600 2.107200
15.568800 2.100000
15.589000 2.085500
15.609100 2.054500
15.629300 2.011800
15.649500 1.973600
15.669700 2.017700
15.689800 2.008100
15.710000 1.998000
15.730200 1.992300
15.750300 1.983400
15.770500 1.970000
15.790700 1.963300
15.810900 2.020900
15.831000 1.976200
15.851200 1.959700
15.871400 1.944600
15.891500 1.928800
15.911700 1.912600
15.931900 1.899600
15.952000 1.899200
15.972200 1.867000
15.992400 1.850300
16.012600 1.845300
16.032700 1.864000
16.052900 1.875900
16.073100 1.881400
16.093200 1.911400
16.113400 1.958700
16.133600 2.062200
16.153800 2.215000
16.173900 2.149100
16.194100 2.121500
16.214300 2.107400
16.234400 2.096900
16.254600 2.091600
16.274800 2.082200
16.295000 2.067200
16.315100 2.060300
16.335300 2.055000
16.355500 2.011300
16.375600 2.007700
16.395800 2.026700
16.416000 2.032300
16.436100 1.998100
16.456300 1.961200
16.476500 1.948100
16.496700 1.957200
16.516800 1.948900
16.537000 1.939100
16.557200 1.936800
16.577300 1.927000
16.597500 1.910100
16.617700 1.894500
16.637900 1.920300
16.658000 1.922900
16.678200 1.919500
16.698400 1.923900
16.718500 1.930100
16.738700 1.936700
16.758900 1.944700
16.779000 1.950900
16.799200 1.944400
16.819400 1.924900
16.839600 1.906300
16.859700 1.877100
16.879900 1.842300
16.900100 1.823800
16.920200 1.843100
16.940400 1.888400
16.960600 1.904100
16.980800 1.888600
17.000900 1.877400
17.021100 1.891500
17.041300 1.986900
17.061400 1.965700
17.081600 1.927600
17.101800 1.913800
17.122000 1.903800
17.142100 1.895500
17.162300 1.909800
17.182500 1.934000
17.202600 1.951700
17.222800 1.961800
17.243000 2.003400
17.263100 2.025400
17.283300 2.043200
17.303500 2.049000
17.323700 2.041300
17.343800 2.017500
17.364000 1.983700
17.384200 1.962300
17.404300 1.945500
17.424500 2.151300
17.444700 1.916900
17.464900 1.831200
17.485000 1.816300
17.505200 1.799300
17.525400 1.782300
17.545500 1.761400
17.565700 1.726500
17.585900 1.700000
17.606100 1.689100
17.626200 1.657100
17.646400 1.628100
17.666600 1.606100
17.686700 1.590400
17.706900 1.578400
17.727100 1.569900
17.747200 1.564400
17.767400 1.560400
17.787600 1.555500
17.807800 1.555500
17.827900 1.546600
17.848100 1.537500
17.868300 1.539800
17.888400 1.544300
17.908600 1.551300
17.928800 1.557900
17.949000 1.565900
17.969100 1.575300
17.989300 1.581400
18.009500 1.589800
18.029600 1.596100
18.049800 1.599500
18.070000 1.596600
18.090100 1.597400
18.110300 1.602300
18.130500 1.607200
18.150700 1.610800
18.170800 1.575000
18.191000 1.567200
18.211200 1.564300
18.231300 1.573800
18.251500 1.613600
18.271700 1.658500
18.291900 1.694600
18.312000 1.731400
18.332200 1.770200
18.352400 1.789100
18.372500 1.838000
18.392700 1.880500
18.412900 1.941200
18.433100 2.173200
18.453200 2.301600
18.473400 2.423400
18.493600 2.557700
18.513700 2.694900
18.533900 2.750500
18.554100 2.765000
18.574200 2.760300
18.594400 2.729400
18.614600 2.681800
18.634800 2.683300
18.654900 2.557200
18.675100 2.574500
18.695300 2.606300
18.715400 2.715000
18.735600 2.713500
18.755800 2.621200
18.776000 2.570400
18.796100 2.535800
18.816300 2.523400
18.836500 2.542300
18.856600 2.771100
18.876800 2.751700
18.897000 2.769600
18.917200 2.702700
18.937300 2.664100
18.957500 2.636200
18.977700 2.601500
18.997800 2.608600
19.018000 2.635700
19.038200 2.742600
19.058300 2.796600
19.078500 2.759600
19.098700 2.629300
19.118900 2.517100
19.139000 2.474100
19.159200 2.452100
19.179400 2.443600
19.199500 2.507000
19.219700 2.579900
19.239900 2.653400
19.260100 2.777800
19.280200 2.897200
19.300400 3.073500
19.320600 3.285900
19.340700 3.428700
19.360900 3.451600
19.381100 3.443300
19.401200 3.663400
19.421400 3.071700
19.441600 2.992800
19.461800 2.917000
19.481900 2.775200
19.502100 2.475300
19.522300 2.425300
19.542400 2.419200
19.562600 2.404300
19.582800 2.432800
19.603000 2.535800
19.623100 2.764000
19.643300 2.897600
19.663500 2.816900
19.683600 2.883700
19.703800 2.950500
19.724000 2.959600
19.744200 3.034500
19.764300 3.178200
19.784500 3.265400
19.804700 3.365100
19.824800 3.435700
19.845000 3.430600
19.865200 3.483500
19.885300 3.628700
19.905500 3.754700
19.925700 3.846500
19.945900 3.846100
19.966000 3.790600
19.986200 3.675300
20.006400 3.577100
20.026500 3.449600
20.046700 3.296800
20.066900 3.178900
20.087100 3.053400
20.107200 2.942400
20.127400 2.824900
20.147600 2.714600
20.167700 2.661500
20.187900 2.638600
20.208100 2.717000
20.228300 2.892800
20.248400 3.015200
20.268600 2.803400
20.288800 2.794100
20.308900 2.907400
20.329100 2.936100
20.349300 2.974800
20.369400 3.053400
20.389600 3.098100
20.409800 3.172400
20.430000 3.308400
20.450100 3.469600
20.470300 3.744000
20.490500 4.159400
20.510600 4.234500
20.530800 4.114600
20.551000 3.694200
20.571200 3.577300
20.591300 3.457900
20.611500 3.349500
20.631700 3.272000
20.651800 3.195700
20.672000 3.142600
20.692200 3.115000
20.712300 3.098400
20.732500 3.083600
20.752700 3.073300
20.772900 3.094400
20.793000 3.059900
20.813200 2.933100
20.833400 2.749900
20.853500 2.766600
20.873700 2.818900
20.893900 2.884600
20.914100 2.972100
20.934200 4.371400
20.954400 3.185200
20.974600 3.164800
20.994700 3.219200
21.014900 3.215300
21.035100 3.198900
21.055300 3.181800
21.075400 3.102200
21.095600 3.008900
21.115800 2.994500
21.135900 3.004100
21.156100 3.047100
21.176300 3.120500
21.196400 3.204300
21.216600 3.275500
21.236800 3.335900
21.257000 3.252000
21.277100 3.216500
21.297300 3.287700
21.317500 3.190800
21.337600 3.152400
21.357800 3.132700
21.378000 3.121800
21.398200 3.132900
21.418300 3.152700
21.438500 3.179200
21.458700 3.220400
21.478800 3.183100
21.499000 3.226800
21.519200 3.265800
21.539400 3.281000
21.559500 3.293800
21.579700 3.291800
21.599900 3.277300
21.620000 3.265200
21.640200 3.265800
21.660400 3.216900
21.680500 3.134600
21.700700 3.062600
21.720900 2.832300
21.741100 2.737500
21.761200 2.730300
21.781400 2.734800
21.801600 2.744600
21.821700 2.771500
21.841900 2.791000
21.862100 2.858500
21.882300 2.904500
21.902400 2.968200
21.922600 3.012400
21.942800 3.060500
21.962900 3.116800
21.983100 3.161700
22.003300 3.167800
22.023400 3.099800
22.043600 3.057800
22.063800 3.105400
22.084000 3.011600
22.104100 2.732300
22.124300 2.583400
22.144500 2.487300
22.164600 2.334800
22.184800 2.271500
22.205000 2.259100
22.225200 2.263900
22.245300 2.280300
22.265500 2.269600
22.285700 2.324200
22.305800 2.343300
22.326000 2.332100
22.346200 2.325700
22.366400 2.345400
22.386500 2.362400
22.406700 2.384000
22.426900 2.402600
22.447000 2.357300
22.467200 2.383300
22.487400 2.443300
22.507500 2.463700
22.527700 2.513400
22.547900 2.563400
22.568100 2.619900
22.588200 2.657700
22.608400 2.735900
22.628600 2.825800
22.648700 2.947200
22.668900 3.065400
22.689100 3.116800
22.709300 3.176300
22.729400 3.275600
22.749600 3.415700
22.769800 3.604200
22.789900 3.619000
22.810100 3.678400
22.830300 3.734100
22.850500 3.680500
22.870600 3.359900
22.890800 3.141900
22.911000 3.049100
22.931100 2.985300
22.951300 2.930500
22.971500 2.860000
22.991600 2.847000
23.011800 2.846300
23.032000 2.887900
23.052200 2.865700
23.072300 2.881000
23.092500 2.909000
23.112700 2.910900
23.132800 2.911200
23.153000 2.909900
23.173200 2.915300
23.193400 2.917800
23.213500 2.995300
23.233700 2.970800
23.253900 2.863100
23.274000 2.731200
23.294200 2.668500
23.314400 2.629500
23.334500 2.612900
23.354700 2.613400
23.374900 2.633900
23.395100 2.682100
23.415200 2.768100
23.435400 2.877600
23.455600 2.959900
23.475700 2.961200
23.495900 2.930700
23.516100 2.954300
23.536300 2.982100
23.556400 3.024900
23.576600 3.076900
23.596800 3.131000
23.616900 3.181900
23.637100 3.290200
23.657300 3.260800
23.677500 3.308400
23.697600 3.385600
23.717800 3.443800
23.738000 3.453900
23.758100 3.487800
23.778300 3.636500
23.798500 3.683300
23.818600 3.679800
23.838800 3.591400
23.859000 3.496500
23.879200 3.379100
23.899300 3.260200
23.919500 3.184900
23.939700 3.163600
23.959800 3.098400
23.980000 3.032800
24.000200 2.998700
24.020400 2.931300
24.040500 2.869000
24.060700 2.855700
24.080900 2.838000
24.101000 2.842400
24.121200 2.843800
24.141400 2.815000
24.161600 2.774200
24.181700 2.794400
24.201900 2.780100
24.222100 2.783400
24.242200 2.818900
24.262400 2.832900
24.282600 2.833200
24.302700 2.826900
24.322900 2.777700
24.343100 2.718000
24.363300 2.633900
24.383400 2.587200
24.403600 2.590400
24.423800 2.607500
24.443900 2.696100
24.464100 2.739700
24.484300 2.844400
24.504500 2.905500
24.524600 2.824100
24.544800 2.895000
24.565000 2.971600
24.585100 3.033300
24.605300 3.062000
24.625500 3.138300
24.645600 3.180500
24.665800 3.207800
24.686000 3.242100
24.706200 3.285200
24.726300 3.285400
24.746500 3.211500
24.766700 3.056800
24.786800 2.939300
24.807000 2.811000
24.827200 2.665500
24.847400 2.519400
24.867500 2.401400
24.887700 2.169200
24.907900 2.016100
24.928000 1.942600
24.948200 1.893600
24.968400 1.859500
24.988600 1.850300
25.008700 1.893700
25.028900 1.927000
25.049100 1.796300
25.069200 1.842800
25.089400 1.963200
25.109600 2.152200
25.129700 2.268300
25.149900 2.416700
25.170100 2.533800
25.190300 2.668300
25.210400 2.674300
25.230600 2.691300
25.250800 2.745800
25.270900 2.856800
25.291100 3.000800
25.311300 3.124700
25.331500 3.127400
25.351600 3.118100
25.371800 3.084400
25.392000 3.079500
25.412100 2.832900
25.432300 2.579400
25.452500 2.295100
25.472700 1.999300
25.492800 1.807400
25.513000 1.668200
25.533200 1.547400
25.553300 1.567200
25.573500 1.584100
25.593700 1.606200
25.613800 1.622700
25.634000 1.618200
25.654200 1.838800
25.674400 1.611400
25.694500 1.773100
25.714700 2.190000
25.734900 2.487200
25.755000 2.426100
25.775200 2.400800
25.795400 2.393400
25.815600 2.387900
25.835700 2.365200
25.855900 2.342100
25.876100 2.325800
25.896200 2.315100
25.916400 2.306500
25.936600 2.312700
25.956700 2.326100
25.976900 2.333000
25.997100 2.300500
26.017300 2.290800
26.037400 2.286600
26.057600 2.302200
26.077800 2.334600
26.097900 2.403100
26.118100 2.570200
26.138300 2.815900
26.158500 2.726000
26.178600 2.667600
26.198800 2.509800
26.219000 2.410300
26.239100 2.389500
26.259300 2.372400
26.279500 2.363000
26.299700 2.403600
26.319800 2.443900
26.340000 2.432200
26.360200 2.381700
26.380300 2.174400
26.400500 1.893800
26.420700 1.685500
26.440800 1.558000
26.461000 1.481500
26.481200 1.435000
26.501400 1.371100
26.521500 1.315100
26.541700 1.258300
26.561900 1.212800
26.582000 1.179300
26.602200 1.140300
26.622400 1.169500
26.642600 1.202200
26.662700 1.338600
26.682900 1.207000
26.703100 1.144800
26.723200 1.071800
26.743400 1.034300
26.763600 1.104400
26.783800 1.154000
26.803900 1.215500
26.824100 1.261500
26.844300 1.307300
26.864400 1.395700
26.884600 1.506200
26.904800 1.620700
26.924900 1.767900
26.945100 1.941300
26.965300 2.098900
26.985500 2.265600
27.005600 2.453600
27.025800 2.895900
27.046000 3.244300
27.066100 3.448400
27.086300 3.622500
27.106500 3.686200
27.126700 3.673600
27.146800 3.679300
27.167000 3.756100
27.187200 3.614500
27.207300 3.541300
27.227500 3.452000
27.247700 3.139800
27.267800 3.068700
27.288000 3.050600
27.308200 3.088800
27.328400 3.088800
27.348500 3.053800
27.368700 2.994100
27.388900 3.048600
27.409000 3.198200
27.429200 3.248100
27.449400 3.432000
27.469600 3.714400
27.489700 4.021500
27.509900 4.225200
27.530100 4.426200
27.550200 4.822700
27.570400 5.520500
27.590600 5.709000
27.610800 5.455500
27.630900 5.427900
27.651100 5.104000
27.671300 4.897000
27.691400 4.839200
27.711600 4.765500
27.731800 4.714800
27.751900 4.825200
27.772100 4.828200
27.792300 4.790000
27.812500 4.438600
27.832600 4.134800
27.852800 3.876100
27.873000 3.692200
27.893100 3.608200
27.913300 3.551800
27.933500 3.505400
27.953700 3.491200
27.973800 3.330000
27.994000 3.385900
28.014200 3.516900
28.034300 3.651700
28.054500 3.854200
28.074700 3.982600
28.094900 4.099500
28.115000 4.129100
28.135200 4.179300
28.155400 4.310900
28.175500 4.351600
28.195700 4.124400
28.215900 3.812200
28.236000 3.554600
28.256200 3.286300
28.276400 3.091400
28.296600 2.988400
28.316700 2.953000
28.336900 2.987900
28.357100 3.156300
28.377200 3.283000
28.397400 3.492000
28.417600 3.708100
28.437800 3.752900
28.457900 3.689000
28.478100 3.827000
28.498300 4.012100
28.518400 4.225300
28.538600 4.354000
28.558800 4.521300
28.578900 4.619400
28.599100 4.688000
28.619300 4.681500
28.639500 4.325900
28.659600 4.237900
28.679800 4.277500
28.700000 4.232200
28.720100 4.182000
28.740300 4.095700
28.760500 3.960300
28.780700 5.049900
28.800800 4.224300
28.821000 3.779200
28.841200 3.637000
28.861300 3.410900
28.881500 3.200800
28.901700 3.071100
28.921900 3.037100
28.942000 3.086600
28.962200 3.141500
28.982400 3.219700
29.002500 3.336500
29.022700 3.477700
29.042900 3.711200
29.063000 4.073100
29.083200 4.556800
29.103400 4.858400
29.123600 4.977300
29.143700 5.086600
29.163900 5.001200
29.184100 4.733700
29.204200 4.672900
29.224400 4.544000
29.244600 4.433000
29.264800 4.286800
29.284900 4.338200
29.305100 4.103300
29.325300 3.957700
29.345400 3.598300
29.365600 3.425700
29.385800 3.351300
29.406000 3.494800
29.426100 3.612500
29.446300 3.577900
29.466500 3.645600
29.486600 3.651800
29.506800 3.574000
29.527000 3.486200
29.547100 3.474700
29.567300 3.464300
29.587500 3.468000
29.607700 3.438500
29.627800 3.424100
29.648000 3.431000
29.668200 3.594200
29.688300 3.491000
29.708500 3.431500
29.728700 3.555900
29.748900 3.785100
29.769000 4.030800
29.789200 4.299300
29.809400 4.622500
29.829500 4.701400
29.849700 4.885100
29.869900 4.870400
29.890000 4.681400
29.910200 3.786500
29.930400 3.592800
29.950600 3.526700
29.970700 3.498200
29.990900 3.573100
30.011100 3.797600
30.031200 3.909400
30.051400 4.106300
30.071600 4.129200
30.091800 4.209100
30.111900 4.271300
30.132100 4.299300
30.152300 4.351300
30.172400 4.234400
30.192600 4.042500
30.212800 4.004500
30.233000 3.674700
30.253100 3.270200
30.273300 3.095500
30.293500 2.815600
30.313600 2.427200
30.333800 2.143800
30.354000 1.921200
30.374100 1.765900
30.394300 1.714200
30.414500 1.652000
30.434700 1.560100
30.454800 1.480100
30.475000 1.417100
30.495200 1.327700
30.515300 1.246200
30.535500 1.171600
30.555700 1.084500
30.575900 1.000700
30.596000 0.961400
30.616200 0.908900
30.636400 0.874000
30.656500 0.834500
30.676700 0.790500
30.696900 0.741500
30.717100 0.712000
30.737200 0.687300
30.757400 0.663900
30.777600 0.641600
30.797700 0.622400
30.817900 0.610300
30.838100 0.597600
30.858200 0.583400
30.878400 0.568400
30.898600 0.574800
30.918800 0.580900
30.938900 0.587300
30.959100 0.594500
30.979300 0.603300
30.999400 0.612500
31.019600 0.617100
31.039800 0.619600
31.060000 0.615900
31.080100 0.595100
31.100300 0.562300
31.120500 0.508800
31.140600 0.455300
31.160800 0.422500
31.181000 0.404900
31.201100 0.376300
31.221300 0.347800
31.241500 0.319700
31.261700 0.291800
31.281800 0.264200
31.302000 0.236700
31.322200 0.211700
31.342300 0.213100
31.362500 0.203400
31.382700 0.166700
31.402900 0.130800
31.423000 0.104600
31.443200 0.079800
31.463400 0.057300
31.483500 0.039900
31.503700 0.034200
31.523900 0.032800
31.544100 0.022200
31.564200 0.002300
31.584400 0.000000
31.604600 0.000000
31.624700 0.000000
31.644900 0.000000
31.665100 0.000000
31.685200 0.000000
31.705400 0.000000
31.725600 0.000000
31.745800 0.000000
31.765900 0.000000
31.786100 0.000000
31.806300 0.000000
31.826400 0.000000
31.846600 0.000000
31.866800 0.000000
31.887000 0.000000
31.907100 0.000000
31.927300 0.000000
31.947500 0.000000
31.967600 0.000000
31.987800 0.000000
32.008000 0.000000
32.028200 0.000000
32.048300 0.000000
32.068500 0.000000
32.088700 0.000000
32.108800 0.000000
32.129000 0.000000
32.149200 0.000000
32.169300 0.000000
32.189500 0.000000
32.209700 0.000000
32.229900 0.000000
32.250000 0.000000
32.270200 0.000000
32.290400 0.000000
32.310500 0.000000
32.330700 0.000000
32.350900 0.000000
32.371100 0.000000
32.391200 0.000000
32.411400 0.000000
32.431600 0.000000
32.451700 0.000000
32.471900 0.000000
32.492100 0.000000
32.512200 0.000000
32.532400 0.000000
32.552600 0.000000
32.572800 0.000000
32.592900 0.000000
32.613100 0.000000
32.633300 0.000000
32.653400 0.000000
32.673600 0.000000
32.693800 0.000000
32.714000 0.000000
32.734100 0.000000
32.754300 0.000000
32.774500 0.000000
32.794600 0.000000
32.814800 0.000000
32.835000 0.000000
32.855200 0.000000
32.875300 0.000000
32.895500 0.000000
32.915700 0.000000
32.935800 0.000000
32.956000 0.000000
32.976200 0.000000
32.996300 0.000000
33.016500 0.000000
33.036700 0.000000
33.056900 0.000000
33.077000 0.000000
33.097200 0.000000
33.117400 0.000000
33.137500 0.000000
33.157700 0.000000
33.177900 0.000000
33.198100 0.000000
33.218200 0.000000
33.238400 0.000000
33.258600 0.000000
33.278700 0.000000
33.298900 0.000000
33.319100 0.000000
33.339300 0.000000
33.359400 0.000000
33.379600 0.000000
33.399800 0.000000
e
