set title 'mp-1228956 - Density of States'
set xlabel 'Energy (eV)'
set ylabel 'DOS (states/eV)'
set grid
set xrange [-10:10]
set yrange [0:16.221]
set xzeroaxis lt -1
set terminal png size 800,600
set output 'mp-1228956_dos_gnuplot.png'
plot '-' using 1:2 with lines title 'DOS'
-6.308600 0.000000
-6.290600 0.000000
-6.272600 0.000000
-6.254600 0.000000
-6.236600 0.000000
-6.218600 0.000000
-6.200600 0.000000
-6.182600 0.000000
-6.164600 0.000000
-6.146600 0.000000
-6.128600 0.000000
-6.110600 0.000000
-6.092600 0.000000
-6.074600 0.000000
-6.056600 0.000000
-6.038600 0.000000
-6.020600 0.000000
-6.002600 0.000000
-5.984600 0.000000
-5.966600 0.000000
-5.948600 0.000000
-5.930600 0.000000
-5.912600 0.000000
-5.894600 0.000000
-5.876600 0.000000
-5.858600 0.000000
-5.840600 0.000000
-5.822600 0.000000
-5.804600 0.000000
-5.786600 0.000000
-5.768600 0.000000
-5.750600 0.000000
-5.732700 0.000000
-5.714700 0.000000
-5.696700 0.000000
-5.678700 0.000000
-5.660700 0.000000
-5.642700 0.000000
-5.624700 0.000000
-5.606700 0.000000
-5.588700 0.000000
-5.570700 0.000000
-5.552700 0.000000
-5.534700 0.000000
-5.516700 0.000000
-5.498700 0.000000
-5.480700 0.000000
-5.462700 0.000000
-5.444700 0.000000
-5.426700 0.000000
-5.408700 0.000000
-5.390700 0.000000
-5.372700 0.000000
-5.354700 0.000000
-5.336700 0.000000
-5.318700 0.000000
-5.300700 0.000000
-5.282700 0.000000
-5.264700 0.000000
-5.246700 0.000000
-5.228700 0.000000
-5.210700 0.000000
-5.192700 0.000000
-5.174700 0.000000
-5.156700 0.000000
-5.138700 0.000000
-5.120700 0.000000
-5.102700 0.000000
-5.084700 0.000000
-5.066700 0.000000
-5.048700 0.000000
-5.030700 0.000000
-5.012700 0.000000
-4.994700 0.000000
-4.976700 0.000000
-4.958700 0.000000
-4.940700 0.000000
-4.922700 0.000000
-4.904700 0.000000
-4.886700 0.000000
-4.868700 0.000000
-4.850700 0.000000
-4.832700 0.000000
-4.814700 0.000000
-4.796700 0.000000
-4.778700 0.000000
-4.760700 0.000000
-4.742700 0.000000
-4.724700 0.000000
-4.706700 0.000000
-4.688700 0.000000
-4.670700 0.000200
-4.652700 0.026700
-4.634700 0.096900
-4.616700 0.205800
-4.598700 0.326400
-4.580700 0.373600
-4.562800 0.366100
-4.544800 0.323300
-4.526800 0.311600
-4.508800 0.321700
-4.490800 0.331900
-4.472800 0.341500
-4.454800 0.350200
-4.436800 0.358100
-4.418800 0.365800
-4.400800 0.365200
-4.382800 0.355300
-4.364800 0.342200
-4.346800 0.339500
-4.328800 0.340800
-4.310800 0.342200
-4.292800 0.343700
-4.274800 0.346100
-4.256800 0.349600
-4.238800 0.352500
-4.220800 0.353500
-4.202800 0.354300
-4.184800 0.358200
-4.166800 0.362200
-4.148800 0.366300
-4.130800 0.370300
-4.112800 0.372000
-4.094800 0.369900
-4.076800 0.364900
-4.058800 0.360400
-4.040800 0.358600
-4.022800 0.359800
-4.004800 0.361900
-3.986800 0.363900
-3.968800 0.366000
-3.950800 0.367800
-3.932800 0.369000
-3.914800 0.369700
-3.896800 0.370400
-3.878800 0.371200
-3.860800 0.372400
-3.842800 0.374700
-3.824800 0.377300
-3.806800 0.380000
-3.788800 0.382700
-3.770800 0.385300
-3.752800 0.388000
-3.734800 0.390700
-3.716800 0.391300
-3.698800 0.388600
-3.680800 0.387500
-3.662800 0.387900
-3.644800 0.388400
-3.626800 0.389200
-3.608800 0.390500
-3.590800 0.392000
-3.572800 0.393400
-3.554800 0.393600
-3.536800 0.394800
-3.518800 0.396600
-3.500800 0.398400
-3.482800 0.400100
-3.464800 0.401900
-3.446800 0.403700
-3.428800 0.405400
-3.410800 0.407400
-3.392800 0.409500
-3.374900 0.411700
-3.356900 0.413900
-3.338900 0.416000
-3.320900 0.418200
-3.302900 0.420300
-3.284900 0.422600
-3.266900 0.424800
-3.248900 0.425100
-3.230900 0.425900
-3.212900 0.427400
-3.194900 0.429000
-3.176900 0.430800
-3.158900 0.436500
-3.140900 0.447000
-3.122900 0.462500
-3.104900 0.482900
-3.086900 0.503100
-3.068900 0.519300
-3.050900 0.533500
-3.032900 0.548000
-3.014900 0.562700
-2.996900 0.577700
-2.978900 0.591400
-2.960900 0.603100
-2.942900 0.612900
-2.924900 0.622700
-2.906900 0.634100
-2.888900 0.645600
-2.870900 0.656400
-2.852900 0.666400
-2.834900 0.676600
-2.816900 0.686800
-2.798900 0.697000
-2.780900 0.707300
-2.762900 0.717600
-2.744900 0.729900
-2.726900 0.741900
-2.708900 0.753900
-2.690900 0.767200
-2.672900 0.779900
-2.654900 0.792600
-2.636900 0.804300
-2.618900 0.814300
-2.600900 0.821500
-2.582900 0.826000
-2.564900 0.829700
-2.546900 0.835600
-2.528900 0.841800
-2.510900 0.847600
-2.492900 0.853100
-2.474900 0.858200
-2.456900 0.862700
-2.438900 0.866900
-2.420900 0.871000
-2.402900 0.875000
-2.384900 0.879100
-2.366900 0.884100
-2.348900 0.890600
-2.330900 0.898500
-2.312900 0.909400
-2.294900 0.923000
-2.276900 0.939400
-2.258900 0.961600
-2.240900 0.983600
-2.222900 1.004300
-2.204900 1.024200
-2.187000 1.042000
-2.169000 1.059800
-2.151000 1.077900
-2.133000 1.096100
-2.115000 1.114500
-2.097000 1.133300
-2.079000 1.152600
-2.061000 1.172400
-2.043000 1.193200
-2.025000 1.214500
-2.007000 1.236000
-1.989000 1.258300
-1.971000 1.282100
-1.953000 1.306900
-1.935000 1.332400
-1.917000 1.358100
-1.899000 1.384500
-1.881000 1.431400
-1.863000 1.519400
-1.845000 1.701200
-1.827000 1.775400
-1.809000 1.867000
-1.791000 1.785200
-1.773000 1.708100
-1.755000 1.686100
-1.737000 1.664400
-1.719000 1.670300
-1.701000 1.654100
-1.683000 1.637100
-1.665000 1.620100
-1.647000 1.603200
-1.629000 1.593400
-1.611000 1.600100
-1.593000 1.619000
-1.575000 1.643500
-1.557000 1.667000
-1.539000 1.691600
-1.521000 1.719600
-1.503000 1.749900
-1.485000 1.741400
-1.467000 1.731100
-1.449000 1.773600
-1.431000 1.823200
-1.413000 1.886500
-1.395000 1.969200
-1.377000 2.252900
-1.359000 2.551300
-1.341000 2.777300
-1.323000 2.955000
-1.305000 3.040900
-1.287000 3.052800
-1.269000 2.982000
-1.251000 2.875100
-1.233000 2.866900
-1.215000 2.877400
-1.197000 2.879900
-1.179000 2.839600
-1.161000 2.756300
-1.143000 2.652100
-1.125000 2.545900
-1.107000 2.444600
-1.089000 2.399900
-1.071000 2.379900
-1.053000 2.492600
-1.035000 2.745700
-1.017000 2.802500
-0.999100 2.731000
-0.981100 2.642900
-0.963100 2.602900
-0.945100 2.981100
-0.927100 3.733100
-0.909100 4.954600
-0.891100 5.416700
-0.873100 5.485300
-0.855100 5.646100
-0.837100 5.964000
-0.819100 6.383300
-0.801100 6.700200
-0.783100 6.783800
-0.765100 6.773600
-0.747100 6.842000
-0.729100 6.976400
-0.711100 7.040200
-0.693100 7.021200
-0.675100 7.001600
-0.657100 7.214200
-0.639100 7.611800
-0.621100 7.972400
-0.603100 7.955500
-0.585100 7.973800
-0.567100 8.223600
-0.549100 8.139800
-0.531100 7.868800
-0.513100 7.758800
-0.495100 7.610000
-0.477100 7.807700
-0.459100 7.866000
-0.441100 7.226600
-0.423100 6.817900
-0.405100 7.029600
-0.387100 7.265500
-0.369100 8.051100
-0.351100 9.196700
-0.333100 9.297400
-0.315100 8.845800
-0.297100 8.778200
-0.279100 8.712700
-0.261100 8.734700
-0.243100 8.999100
-0.225100 8.731300
-0.207100 8.719400
-0.189100 9.005000
-0.171100 8.693500
-0.153100 8.313300
-0.135100 8.474200
-0.117100 9.449600
-0.099100 12.777600
-0.081100 12.041500
-0.063100 12.684700
-0.045100 12.093300
-0.027100 12.385300
-0.009100 11.188500
0.008900 10.424900
0.026900 10.595800
0.044900 10.153900
0.062900 9.724700
0.080900 9.968900
0.098900 9.346900
0.116900 9.407000
0.134900 8.927300
0.152900 8.880100
0.170800 9.634100
0.188800 10.224000
0.206800 10.548100
0.224800 8.697300
0.242800 7.967300
0.260800 8.062600
0.278800 8.312500
0.296800 8.290500
0.314800 7.828800
0.332800 8.113600
0.350800 9.813400
0.368800 8.937700
0.386800 8.070200
0.404800 8.532500
0.422800 9.266400
0.440800 10.392400
0.458800 12.308200
0.476800 14.746200
0.494800 13.380000
0.512800 12.777800
0.530800 12.995100
0.548800 11.563600
0.566800 12.401000
0.584800 12.896300
0.602800 11.693400
0.620800 10.949200
0.638800 10.457900
0.656800 10.013100
0.674800 9.915700
0.692800 9.622400
0.710800 8.638400
0.728800 8.403000
0.746800 9.257200
0.764800 9.936800
0.782800 9.287400
0.800800 8.859400
0.818800 8.800300
0.836800 8.518000
0.854800 8.838600
0.872800 9.863700
0.890800 9.845700
0.908800 9.370000
0.926800 10.063700
0.944800 9.503100
0.962800 10.124500
0.980800 10.186700
0.998800 9.782300
1.016800 10.253200
1.034800 10.981900
1.052800 11.174600
1.070800 10.963600
1.088800 11.123300
1.106800 11.832300
1.124800 12.680600
1.142800 13.008100
1.160800 13.777000
1.178800 14.645700
1.196800 14.260900
1.214800 12.624000
1.232800 12.419600
1.250800 11.488800
1.268800 10.740100
1.286800 10.492700
1.304800 10.117900
1.322800 9.724400
1.340800 9.589900
1.358700 9.703000
1.376700 9.377700
1.394700 9.107500
1.412700 8.541400
1.430700 8.413800
1.448700 8.489600
1.466700 7.717600
1.484700 6.696300
1.502700 6.728500
1.520700 6.848200
1.538700 7.599100
1.556700 8.227500
1.574700 8.327800
1.592700 8.110200
1.610700 8.064600
1.628700 8.292000
1.646700 8.839400
1.664700 9.066900
1.682700 8.637800
1.700700 9.389900
1.718700 10.829600
1.736700 11.907800
1.754700 11.911900
1.772700 10.596000
1.790700 10.561200
1.808700 10.196500
1.826700 9.679000
1.844700 9.505200
1.862700 9.702800
1.880700 9.664600
1.898700 9.394500
1.916700 10.037000
1.934700 9.812600
1.952700 9.227200
1.970700 9.253700
1.988700 9.474800
2.006700 9.738400
2.024700 10.583500
2.042700 11.225900
2.060700 11.253500
2.078700 10.932100
2.096700 10.475600
2.114700 9.387800
2.132700 8.982500
2.150700 9.837400
2.168700 10.182700
2.186700 11.405600
2.204700 11.715100
2.222700 11.114500
2.240700 10.958500
2.258700 11.084300
2.276700 9.387100
2.294700 9.121000
2.312700 9.344100
2.330700 9.092100
2.348700 8.634700
2.366700 7.917100
2.384700 7.553200
2.402700 6.981900
2.420700 6.753400
2.438700 6.806300
2.456700 7.028400
2.474700 7.237500
2.492700 7.434300
2.510700 7.505700
2.528700 7.490000
2.546600 7.492100
2.564600 7.611000
2.582600 8.433400
2.600600 9.862600
2.618600 8.942400
2.636600 8.925300
2.654600 9.024400
2.672600 8.923900
2.690600 8.616900
2.708600 8.761800
2.726600 9.264900
2.744600 9.339700
2.762600 9.556500
2.780600 9.924100
2.798600 10.189800
2.816600 10.354700
2.834600 10.442500
2.852600 11.292500
2.870600 10.056700
2.888600 9.211000
2.906600 8.585700
2.924600 8.427200
2.942600 7.736500
2.960600 7.380500
2.978600 7.365400
2.996600 7.244300
3.014600 5.604400
3.032600 5.401100
3.050600 5.450600
3.068600 5.503700
3.086600 5.686600
3.104600 5.803000
3.122600 6.352000
3.140600 7.840400
3.158600 9.845500
3.176600 7.222800
3.194600 7.152200
3.212600 7.155600
3.230600 7.100700
3.248600 7.274100
3.266600 7.966800
3.284600 6.831800
3.302600 5.996500
3.320600 5.315500
3.338600 5.059400
3.356600 5.120400
3.374600 5.072300
3.392600 4.978800
3.410600 4.785200
3.428600 4.473600
3.446600 3.870400
3.464600 3.270300
3.482600 3.128900
3.500600 3.009900
3.518600 2.916200
3.536600 2.866600
3.554600 2.816900
3.572600 2.766000
3.590600 2.722400
3.608600 2.687200
3.626600 2.509600
3.644600 2.473200
3.662600 2.424100
3.680600 2.435700
3.698600 2.526600
3.716500 2.062800
3.734500 2.041300
3.752500 2.030000
3.770500 2.016700
3.788500 2.002800
3.806500 1.988900
3.824500 1.975300
3.842500 1.965900
3.860500 1.959500
3.878500 1.955900
3.896500 1.952400
3.914500 1.951700
3.932500 1.953800
3.950500 1.956600
3.968500 1.964500
3.986500 1.979200
4.004500 1.999600
4.022500 2.025800
4.040500 2.062400
4.058500 2.235500
4.076500 2.147500
4.094500 2.075500
4.112500 2.001700
4.130500 2.027000
4.148500 2.103000
4.166500 2.073000
4.184500 1.953800
4.202500 1.888500
4.220500 1.864100
4.238500 1.842400
4.256500 1.827200
4.274500 1.826000
4.292500 1.830700
4.310500 1.833900
4.328500 1.839200
4.346500 1.842700
4.364500 1.838800
4.382500 1.826300
4.400500 1.814600
4.418500 1.827600
4.436500 1.842900
4.454500 1.851700
4.472500 1.858700
4.490500 1.890000
4.508500 1.915400
4.526500 1.869500
4.544500 1.786800
4.562500 1.696800
4.580500 1.690800
4.598500 1.698700
4.616500 1.711700
4.634500 1.748900
4.652500 1.772000
4.670500 1.886100
4.688500 1.869700
4.706500 1.812200
4.724500 1.765400
4.742500 1.738200
4.760500 1.726100
4.778500 1.718900
4.796500 1.711900
4.814500 1.700800
4.832500 1.690900
4.850500 1.673800
4.868500 1.668000
4.886500 1.689000
4.904400 1.729800
4.922400 1.706000
4.940400 1.685000
4.958400 1.703500
4.976400 1.737900
4.994400 1.770900
5.012400 1.799900
5.030400 1.825900
5.048400 1.848800
5.066400 1.846100
5.084400 1.828800
5.102400 1.825100
5.120400 1.832900
5.138400 1.838400
5.156400 1.843500
5.174400 1.858400
5.192400 1.875600
5.210400 1.849600
5.228400 1.830900
5.246400 1.800900
5.264400 1.772900
5.282400 1.746400
5.300400 1.715600
5.318400 1.663500
5.336400 1.596900
5.354400 1.547000
5.372400 1.520100
5.390400 1.523600
5.408400 1.494500
5.426400 1.471700
5.444400 1.416600
5.462400 1.357300
5.480400 1.313600
5.498400 1.270700
5.516400 1.234100
5.534400 1.209000
5.552400 1.185500
5.570400 1.162000
5.588400 1.143600
5.606400 1.127800
5.624400 1.115300
5.642400 1.109100
5.660400 1.108600
5.678400 1.105200
5.696400 1.106900
5.714400 1.122000
5.732400 1.151300
5.750400 1.192200
5.768400 1.240300
5.786400 1.291300
5.804400 1.356300
5.822400 1.651000
5.840400 1.668000
5.858400 1.614400
5.876400 1.453700
5.894400 1.419900
5.912400 1.441900
5.930400 1.464500
5.948400 1.492400
5.966400 1.588900
5.984400 1.687400
6.002400 1.759600
6.020400 1.857800
6.038400 1.803000
6.056400 1.627500
6.074400 1.557200
6.092300 1.491900
6.110300 1.427700
6.128300 1.396200
6.146300 1.380100
6.164300 1.374700
6.182300 1.385200
6.200300 1.407100
6.218300 1.436000
6.236300 1.472600
6.254300 1.514000
6.272300 1.558800
6.290300 1.589300
6.308300 1.585200
6.326300 1.600200
6.344300 1.602800
6.362300 1.605100
6.380300 1.628300
6.398300 1.661300
6.416300 1.688400
6.434300 1.712600
6.452300 1.732000
6.470300 1.743700
6.488300 1.752200
6.506300 1.756600
6.524300 1.756000
6.542300 1.753800
6.560300 1.757900
6.578300 1.768000
6.596300 1.773400
6.614300 1.768900
6.632300 1.752700
6.650300 1.734100
6.668300 1.722400
6.686300 1.711500
6.704300 1.665000
6.722300 1.651600
6.740300 1.648500
6.758300 1.635100
6.776300 1.617300
6.794300 1.599000
6.812300 1.545600
6.830300 1.514800
6.848300 1.477700
6.866300 1.449700
6.884300 1.435500
6.902300 1.427500
6.920300 1.421200
6.938300 1.415400
6.956300 1.427400
6.974300 1.494100
6.992300 1.474300
7.010300 1.460000
7.028300 1.459200
7.046300 1.469200
7.064300 1.493900
7.082300 1.522500
7.100300 1.538500
7.118300 1.543100
7.136300 1.543700
7.154300 1.543600
7.172300 1.543000
7.190300 1.544100
7.208300 1.549100
7.226300 1.552000
7.244300 1.555200
7.262200 1.559100
7.280200 1.566000
7.298200 1.576000
7.316200 1.551800
7.334200 1.527400
7.352200 1.509800
7.370200 1.501900
7.388200 1.486400
7.406200 1.452400
7.424200 1.377200
7.442200 1.304000
7.460200 1.241800
7.478200 1.190200
7.496200 1.145900
7.514200 1.114000
7.532200 1.093700
7.550200 1.078700
7.568200 1.060800
7.586200 1.042400
7.604200 1.027000
7.622200 1.013000
7.640200 1.002300
7.658200 0.999600
7.676200 1.005400
7.694200 1.025800
7.712200 1.065500
7.730200 1.118300
7.748200 1.172900
7.766200 1.241500
7.784200 1.327500
7.802200 1.386900
7.820200 1.459800
7.838200 1.534500
7.856200 1.603300
7.874200 1.661500
7.892200 1.740400
7.910200 1.870500
7.928200 1.863100
7.946200 1.842100
7.964200 1.822400
7.982200 1.813100
8.000200 1.795800
8.018200 1.775700
8.036200 1.782300
8.054200 1.789200
8.072200 1.813800
8.090200 1.849700
8.108200 1.868600
8.126200 1.859300
8.144200 1.830700
8.162200 1.797100
8.180200 1.786800
8.198200 1.779400
8.216200 1.778100
8.234200 1.783900
8.252200 1.798500
8.270200 1.812100
8.288200 1.830100
8.306200 1.855600
8.324200 1.871400
8.342200 1.881100
8.360200 1.882400
8.378200 1.885400
8.396200 1.884600
8.414200 1.881700
8.432200 1.881600
8.450100 1.882100
8.468100 1.879900
8.486100 1.877200
8.504100 1.876700
8.522100 1.868000
8.540100 1.851300
8.558100 1.836400
8.576100 1.823900
8.594100 1.798600
8.612100 1.724100
8.630100 1.621900
8.648100 1.559700
8.666100 1.505000
8.684100 1.459900
8.702100 1.412700
8.720100 1.363600
8.738100 1.308100
8.756100 1.264400
8.774100 1.236900
8.792100 1.209900
8.810100 1.206300
8.828100 1.232700
8.846100 1.278700
8.864100 1.320500
8.882100 1.368200
8.900100 1.405700
8.918100 1.377900
8.936100 1.384700
8.954100 1.416300
8.972100 1.457300
8.990100 1.503800
9.008100 1.555900
9.026100 1.616900
9.044100 1.661300
9.062100 1.671100
9.080100 1.692400
9.098100 1.722400
9.116100 1.751600
9.134100 1.779800
9.152100 1.808100
9.170100 1.833100
9.188100 1.849500
9.206100 1.900200
9.224100 1.963200
9.242100 1.993300
9.260100 2.022100
9.278100 2.046300
9.296100 2.072400
9.314100 2.089200
9.332100 2.101800
9.350100 2.110300
9.368100 2.117100
9.386100 2.119900
9.404100 2.122400
9.422100 2.120500
9.440100 2.120100
9.458100 2.134200
9.476100 2.190100
9.494100 2.259400
9.512100 2.300600
9.530100 2.227800
9.548100 2.164600
9.566100 2.141200
9.584100 2.134000
9.602100 2.132200
9.620100 2.134000
9.638000 2.135300
9.656000 2.132900
9.674000 2.100400
9.692000 2.083600
9.710000 2.085800
9.728000 2.083700
9.746000 2.090700
9.764000 2.092700
9.782000 2.089700
9.800000 2.094500
9.818000 2.112900
9.836000 2.138200
9.854000 2.160100
9.872000 2.175300
9.890000 2.181300
9.908000 2.177300
9.926000 2.158500
9.944000 2.126600
9.962000 2.092300
9.980000 2.057200
9.998000 2.022800
10.016000 1.996800
10.034000 1.978800
10.052000 1.958200
10.070000 1.934200
10.088000 1.915300
10.106000 1.900600
10.124000 1.889900
10.142000 1.881500
10.160000 1.873900
10.178000 1.870100
10.196000 1.867500
10.214000 1.864900
10.232000 1.854100
10.250000 1.830600
10.268000 1.800100
10.286000 1.774500
10.304000 1.756600
10.322000 1.742000
10.340000 1.728200
10.358000 1.719300
10.376000 1.717600
10.394000 1.722100
10.412000 1.728100
10.430000 1.737700
10.448000 1.749600
10.466000 1.763400
10.484000 1.778200
10.502000 1.788900
10.520000 1.802900
10.538000 1.818800
10.556000 1.830900
10.574000 1.839400
10.592000 1.881300
10.610000 1.945700
10.628000 1.955200
10.646000 1.897300
10.664000 1.899600
10.682000 1.904200
10.700000 1.911700
10.718000 1.923900
10.736000 1.934700
10.754000 1.944200
10.772000 1.974800
10.790000 2.028300
10.807900 2.033800
10.825900 1.989600
10.843900 1.932000
10.861900 1.907200
10.879900 1.898400
10.897900 1.897600
10.915900 1.903700
10.933900 1.917600
10.951900 1.939900
10.969900 1.968300
10.987900 1.958400
11.005900 1.950500
11.023900 1.950400
11.041900 1.948600
11.059900 1.944500
11.077900 1.948500
11.095900 1.960800
11.113900 1.972500
11.131900 1.986000
11.149900 1.999300
11.167900 2.007200
11.185900 2.007000
11.203900 1.991800
11.221900 1.974200
11.239900 1.955400
11.257900 1.941600
11.275900 1.931600
11.293900 1.922400
11.311900 1.917000
11.329900 1.912600
11.347900 1.909300
11.365900 1.905700
11.383900 1.902100
11.401900 1.905000
11.419900 1.890300
11.437900 1.844500
11.455900 1.824500
11.473900 1.825400
11.491900 1.823800
11.509900 1.820700
11.527900 1.828900
11.545900 1.850300
11.563900 1.917900
11.581900 1.917600
11.599900 1.923400
11.617900 1.946900
11.635900 1.983800
11.653900 2.015100
11.671900 2.011900
11.689900 1.985400
11.707900 1.968300
11.725900 1.969000
11.743900 1.978100
11.761900 1.987700
11.779900 1.998400
11.797900 2.010400
11.815900 2.024500
11.833900 2.055800
11.851900 2.079500
11.869900 2.088300
11.887900 2.078200
11.905900 2.073100
11.923900 2.074700
11.941900 2.076400
11.959900 2.078300
11.977900 2.046500
11.995800 2.049900
12.013800 2.046700
12.031800 2.047300
12.049800 2.056900
12.067800 2.067600
12.085800 2.088600
12.103800 2.127600
12.121800 2.142300
12.139800 2.086300
12.157800 2.073300
12.175800 2.073800
12.193800 2.083800
12.211800 2.079500
12.229800 2.070000
12.247800 2.062400
12.265800 2.056800
12.283800 2.053500
12.301800 2.045500
12.319800 2.037800
12.337800 2.032600
12.355800 2.030500
12.373800 2.031500
12.391800 2.037900
12.409800 2.056900
12.427800 2.067100
12.445800 2.061400
12.463800 2.063400
12.481800 2.073300
12.499800 2.083600
12.517800 2.097100
12.535800 2.108300
12.553800 2.113700
12.571800 2.124000
12.589800 2.116000
12.607800 2.099600
12.625800 2.082100
12.643800 2.065400
12.661800 2.054900
12.679800 2.045100
12.697800 2.038400
12.715800 2.032200
12.733800 2.029300
12.751800 2.027400
12.769800 2.007100
12.787800 2.000400
12.805800 1.989000
12.823800 1.982500
12.841800 1.972200
12.859800 1.966500
12.877800 1.968500
12.895800 1.978800
12.913800 2.035600
12.931800 2.056600
12.949800 2.075000
12.967800 2.100900
12.985800 2.109400
13.003800 2.085400
13.021800 2.061600
13.039800 2.071700
13.057800 2.094100
13.075800 2.123900
13.093800 2.148100
13.111800 2.159300
13.129800 2.164700
13.147800 2.212500
13.165800 2.174400
13.183700 2.186700
13.201700 2.204400
13.219700 2.233100
13.237700 2.242600
13.255700 2.253900
13.273700 2.272000
13.291700 2.327500
13.309700 2.348700
13.327700 2.370700
13.345700 2.353100
13.363700 2.336400
13.381700 2.323600
13.399700 2.312900
13.417700 2.303200
13.435700 2.286500
13.453700 2.268200
13.471700 2.250300
13.489700 2.240900
13.507700 2.256500
13.525700 2.264400
13.543700 2.220000
13.561700 2.211400
13.579700 2.209400
13.597700 2.220300
13.615700 2.228500
13.633700 2.227400
13.651700 2.236600
13.669700 2.248700
13.687700 2.261700
13.705700 2.272700
13.723700 2.279700
13.741700 2.286500
13.759700 2.296500
13.777700 2.287500
13.795700 2.262200
13.813700 2.233500
13.831700 2.205300
13.849700 2.181900
13.867700 2.170800
13.885700 2.175400
13.903700 2.182700
13.921700 2.164400
13.939700 2.139700
13.957700 2.117900
13.975700 2.089800
13.993700 2.063800
14.011700 2.045600
14.029700 2.036900
14.047700 2.009400
14.065700 1.974400
14.083700 1.953200
14.101700 1.947400
14.119700 1.951800
14.137700 1.959600
14.155700 1.970400
14.173700 1.983300
14.191700 1.998900
14.209700 2.035700
14.227700 2.069200
14.245700 2.098400
14.263700 2.119100
14.281700 2.140600
14.299700 2.162600
14.317700 2.181100
14.335700 2.197100
14.353700 2.210000
14.371600 2.221100
14.389600 2.232200
14.407600 2.244000
14.425600 2.267500
14.443600 2.303200
14.461600 2.332200
14.479600 2.359100
14.497600 2.386000
14.515600 2.390900
14.533600 2.394400
14.551600 2.391500
14.569600 2.379200
14.587600 2.372900
14.605600 2.364300
14.623600 2.360500
14.641600 2.358600
14.659600 2.358500
14.677600 2.357300
14.695600 2.354700
14.713600 2.354700
14.731600 2.363200
14.749600 2.373500
14.767600 2.387000
14.785600 2.407300
14.803600 2.431400
14.821600 2.474500
14.839600 2.517900
14.857600 2.548600
14.875600 2.574200
14.893600 2.592500
14.911600 2.605400
14.929600 2.596400
14.947600 2.589200
14.965600 2.571700
14.983600 2.550100
15.001600 2.522600
15.019600 2.486600
15.037600 2.434200
15.055600 2.414000
15.073600 2.394400
15.091600 2.373000
15.109600 2.369800
15.127600 2.383700
15.145600 2.359800
15.163600 2.283700
15.181600 2.261800
15.199600 2.259200
15.217600 2.261800
15.235600 2.266100
15.253600 2.271900
15.271600 2.278100
15.289600 2.288400
15.307600 2.312800
15.325600 2.348200
15.343600 2.387000
15.361600 2.428400
15.379600 2.470900
15.397600 2.513800
15.415600 2.557100
15.433600 2.605000
15.451600 2.646400
15.469600 2.700400
15.487600 2.766200
15.505600 2.851700
15.523600 2.891300
15.541500 2.833100
15.559500 2.789100
15.577500 2.739200
15.595500 2.686900
15.613500 2.650200
15.631500 2.630200
15.649500 2.626700
15.667500 2.625100
15.685500 2.615400
15.703500 2.603400
15.721500 2.588300
15.739500 2.560900
15.757500 2.526000
15.775500 2.520400
15.793500 2.529900
15.811500 2.548500
15.829500 2.542000
15.847500 2.572200
15.865500 2.529600
15.883500 2.512000
15.901500 2.521200
15.919500 2.532300
15.937500 2.539800
15.955500 2.548700
15.973500 2.580900
15.991500 2.648300
16.009500 2.703400
16.027500 2.722400
16.045500 2.732000
16.063500 2.753000
16.081500 2.754100
16.099500 2.718800
16.117500 2.720600
16.135500 2.716200
16.153500 2.715900
16.171500 2.720200
16.189500 2.729500
16.207500 2.728000
16.225500 2.739700
16.243500 2.745100
16.261500 2.746300
16.279500 2.745400
16.297500 2.743200
16.315500 2.747000
16.333500 2.752600
16.351500 2.765300
16.369500 2.781600
16.387500 2.796200
16.405500 2.814200
16.423500 2.832000
16.441500 2.842100
16.459500 2.845800
16.477500 2.901500
16.495500 2.902800
16.513500 3.073500
16.531500 3.024000
16.549500 2.930400
16.567500 2.878200
16.585500 2.928400
16.603500 2.901500
16.621500 2.869500
16.639500 2.836700
16.657500 2.813900
16.675500 2.802700
16.693500 2.820100
16.711500 2.835700
16.729400 2.830500
16.747400 2.851800
16.765400 2.877800
16.783400 2.847700
16.801400 2.800800
16.819400 2.776500
16.837400 2.774200
16.855400 2.802400
16.873400 2.862400
16.891400 2.923600
16.909400 2.954500
16.927400 2.952100
16.945400 2.957100
16.963400 2.946000
16.981400 2.935500
16.999400 2.899500
17.017400 2.858800
17.035400 2.827500
17.053400 2.811400
17.071400 2.785700
17.089400 2.738600
17.107400 2.692600
17.125400 2.652600
17.143400 2.620200
17.161400 2.591900
17.179400 2.589100
17.197400 2.512200
17.215400 2.461300
17.233400 2.439500
17.251400 2.430300
17.269400 2.433900
17.287400 2.446100
17.305400 2.469300
17.323400 2.507600
17.341400 2.548600
17.359400 2.595400
17.377400 2.662300
17.395400 2.729900
17.413400 2.792000
17.431400 2.840100
17.449400 2.865600
17.467400 2.884400
17.485400 2.898800
17.503400 2.898400
17.521400 2.890100
17.539400 2.881200
17.557400 2.872100
17.575400 2.859600
17.593400 2.844300
17.611400 2.826600
17.629400 2.807200
17.647400 2.792300
17.665400 2.783600
17.683400 2.796500
17.701400 2.797900
17.719400 2.777900
17.737400 2.741100
17.755400 2.693100
17.773400 2.693900
17.791400 2.683600
17.809400 2.665800
17.827400 2.648900
17.845400 2.631700
17.863400 2.613000
17.881400 2.596300
17.899400 2.569700
17.917300 2.552300
17.935300 2.546100
17.953300 2.550400
17.971300 2.562000
17.989300 2.569600
18.007300 2.581100
18.025300 2.580800
18.043300 2.520800
18.061300 2.517200
18.079300 2.532000
18.097300 2.538000
18.115300 2.536900
18.133300 2.527700
18.151300 2.480400
18.169300 2.472500
18.187300 2.481500
18.205300 2.528900
18.223300 2.586000
18.241300 2.578800
18.259300 2.566800
18.277300 2.556500
18.295300 2.553100
18.313300 2.546800
18.331300 2.566700
18.349300 2.594100
18.367300 2.618100
18.385300 2.648600
18.403300 2.672400
18.421300 2.699000
18.439300 2.714900
18.457300 2.742000
18.475300 2.782200
18.493300 2.820800
18.511300 2.876500
18.529300 2.952100
18.547300 3.011200
18.565300 3.085700
18.583300 3.058000
18.601300 3.001300
18.619300 2.900900
18.637300 2.837600
18.655300 2.816600
18.673300 2.811800
18.691300 2.809000
18.709300 2.805000
18.727300 2.803700
18.745300 2.813400
18.763300 2.841700
18.781300 2.849800
18.799300 2.879900
18.817300 2.925800
18.835300 2.979600
18.853300 3.018300
18.871300 3.017700
18.889300 3.005900
18.907300 2.995000
18.925300 2.986400
18.943300 2.996300
18.961300 2.945700
18.979300 2.921200
18.997300 2.904000
19.015300 2.899200
19.033300 2.905600
19.051300 2.934100
19.069300 2.979700
19.087200 3.026100
19.105200 3.086300
19.123200 3.138100
19.141200 3.156400
19.159200 3.168700
19.177200 3.186900
19.195200 3.193600
19.213200 3.205000
19.231200 3.240700
19.249200 3.270700
19.267200 3.280700
19.285200 3.270800
19.303200 3.262700
19.321200 3.248400
19.339200 3.207300
19.357200 3.181700
19.375200 3.164400
19.393200 3.149400
19.411200 3.153300
19.429200 3.171300
19.447200 3.192500
19.465200 3.217300
19.483200 3.231600
19.501200 3.222700
19.519200 3.177100
19.537200 3.112800
19.555200 3.067100
19.573200 2.999300
19.591200 2.942600
19.609200 2.898600
19.627200 2.872600
19.645200 2.837800
19.663200 2.818000
19.681200 2.813100
19.699200 2.813500
19.717200 2.824800
19.735200 2.817000
19.753200 2.765400
19.771200 2.731400
19.789200 2.687500
19.807200 2.645300
19.825200 2.592100
19.843200 2.541600
19.861200 2.491400
19.879200 2.498100
19.897200 2.350500
19.915200 2.293000
19.933200 2.268700
19.951200 2.249000
19.969200 2.227100
19.987200 2.213900
20.005200 2.224300
20.023200 2.236800
20.041200 2.284400
20.059200 2.397400
20.077200 2.413100
20.095200 2.411200
20.113200 2.390000
20.131200 2.360000
20.149200 2.337600
20.167200 2.322800
20.185200 2.319700
20.203200 2.338600
20.221200 2.373400
20.239200 2.412400
20.257200 2.456600
20.275100 2.508800
20.293100 2.563400
20.311100 2.648100
20.329100 2.675700
20.347100 2.645100
20.365100 2.649200
20.383100 2.644100
20.401100 2.652600
20.419100 2.664000
20.437100 2.680100
20.455100 2.695300
20.473100 2.682900
20.491100 2.676100
20.509100 2.696600
20.527100 2.698400
20.545100 2.703800
20.563100 2.707600
20.581100 2.683700
20.599100 2.613400
20.617100 2.549000
20.635100 2.496400
20.653100 2.466800
20.671100 2.455100
20.689100 2.452800
20.707100 2.417400
20.725100 2.366900
20.743100 2.331400
20.761100 2.302600
20.779100 2.284200
20.797100 2.282700
20.815100 2.295700
20.833100 2.329100
20.851100 2.373300
20.869100 2.416400
20.887100 2.440000
20.905100 2.454100
20.923100 2.481800
20.941100 2.503400
20.959100 2.534200
20.977100 2.547300
20.995100 2.573100
21.013100 2.640400
21.031100 2.497200
21.049100 2.428900
21.067100 2.385300
21.085100 2.369100
21.103100 2.371300
21.121100 2.367800
21.139100 2.362600
21.157100 2.388400
21.175100 2.452700
21.193100 2.310700
21.211100 2.261800
21.229100 2.211500
21.247100 2.336400
21.265100 2.269600
21.283100 2.139300
21.301100 2.026100
21.319100 1.923900
21.337100 1.850600
21.355100 1.790600
21.373100 1.760800
21.391100 1.745000
21.409100 1.751300
21.427100 1.768800
21.445100 1.796000
21.463000 1.850100
21.481000 1.948600
21.499000 2.026100
21.517000 2.080500
21.535000 2.128600
21.553000 2.171200
21.571000 2.227200
21.589000 2.284300
21.607000 2.329600
21.625000 2.467200
21.643000 2.363000
21.661000 2.371100
21.679000 2.450200
21.697000 2.537000
21.715000 2.611500
21.733000 2.715200
21.751000 2.803100
21.769000 2.856300
21.787000 2.939900
21.805000 2.970000
21.823000 3.006000
21.841000 3.046800
21.859000 3.048900
21.877000 3.033000
21.895000 2.992000
21.913000 2.955500
21.931000 2.914700
21.949000 2.873500
21.967000 2.815900
21.985000 2.731700
22.003000 2.660200
22.021000 2.650200
22.039000 2.571300
22.057000 2.575700
22.075000 2.625600
22.093000 2.674700
22.111000 2.727600
22.129000 2.769600
22.147000 2.779000
22.165000 2.774100
22.183000 2.786600
22.201000 2.810800
22.219000 2.845200
22.237000 2.901100
22.255000 2.965100
22.273000 2.993300
22.291000 2.950200
22.309000 2.948300
22.327000 2.969000
22.345000 2.990600
22.363000 3.062000
22.381000 3.111400
22.399000 3.086300
22.417000 3.013700
22.435000 2.942000
22.453000 2.893500
22.471000 2.866800
22.489000 2.894200
22.507000 2.912000
22.525000 2.916000
22.543000 2.989900
22.561000 3.068800
22.579000 2.997600
22.597000 2.969000
22.615000 2.915000
22.632900 2.835000
22.650900 2.742100
22.668900 2.657700
22.686900 2.655200
22.704900 2.648900
22.722900 2.672500
22.740900 2.733600
22.758900 2.786400
22.776900 2.811800
22.794900 2.935700
22.812900 2.809200
22.830900 2.721600
22.848900 2.747700
22.866900 2.800300
22.884900 2.885700
22.902900 3.094500
22.920900 3.187800
22.938900 3.180300
22.956900 3.196800
22.974900 3.224100
22.992900 3.257200
23.010900 3.304600
23.028900 3.345400
23.046900 3.478100
23.064900 3.648000
23.082900 3.743800
23.100900 3.872700
23.118900 3.960900
23.136900 4.052400
23.154900 4.004600
23.172900 3.925900
23.190900 3.863000
23.208900 3.811100
23.226900 3.798600
23.244900 3.781300
23.262900 3.728300
23.280900 3.705900
23.298900 3.728200
23.316900 3.658000
23.334900 3.643800
23.352900 3.672800
23.370900 3.673700
23.388900 3.692700
23.406900 3.691000
23.424900 3.680300
23.442900 3.665600
23.460900 3.669900
23.478900 3.676200
23.496900 3.664100
23.514900 3.682500
23.532900 3.704400
23.550900 3.732500
23.568900 3.745600
23.586900 3.685900
23.604900 3.653500
23.622900 3.651000
23.640900 3.631000
23.658900 3.617500
23.676900 3.697300
23.694900 3.583300
23.712900 3.371500
23.730900 3.249500
23.748900 3.241300
23.766900 3.251000
23.784900 3.246900
23.802900 3.220600
23.820800 3.183800
23.838800 3.146700
23.856800 3.248100
23.874800 3.390100
23.892800 3.515500
23.910800 3.386300
23.928800 3.376700
23.946800 3.374000
23.964800 3.358500
23.982800 3.345600
24.000800 3.336800
24.018800 3.301800
24.036800 3.317100
24.054800 3.381400
24.072800 3.461900
24.090800 3.593500
24.108800 3.653500
24.126800 3.717700
24.144800 3.766900
24.162800 3.805700
24.180800 3.769800
24.198800 3.734900
24.216800 3.679600
24.234800 3.603600
24.252800 3.565500
24.270800 3.503100
24.288800 3.353200
24.306800 3.280700
24.324800 3.150100
24.342800 3.059500
24.360800 3.014200
24.378800 2.986700
24.396800 2.992300
24.414800 3.006900
24.432800 3.028100
24.450800 3.053600
24.468800 3.071900
24.486800 3.078800
24.504800 3.014000
24.522800 2.974400
24.540800 2.983100
24.558800 2.997000
24.576800 3.022200
24.594800 3.037600
24.612800 3.048400
24.630800 3.079900
24.648800 3.103000
24.666800 3.123800
24.684800 3.143700
24.702800 3.146900
24.720800 3.134300
24.738800 3.106900
24.756800 3.113200
24.774800 3.080100
24.792800 3.013500
24.810800 2.944300
24.828800 2.997900
24.846800 3.083700
24.864800 3.161700
24.882800 3.243400
24.900800 3.283200
24.918800 3.323700
24.936800 3.368000
24.954800 3.480200
24.972800 3.510400
24.990800 3.459900
25.008700 3.393600
25.026700 3.275700
25.044700 3.179200
25.062700 3.047400
25.080700 2.916100
25.098700 2.860800
25.116700 2.823000
25.134700 2.782300
25.152700 2.734900
25.170700 2.678800
25.188700 2.618400
25.206700 2.562200
25.224700 2.503700
25.242700 2.487600
25.260700 2.385500
25.278700 2.270400
25.296700 2.172400
25.314700 2.101200
25.332700 2.052200
25.350700 2.022200
25.368700 1.998700
25.386700 1.983300
25.404700 1.977500
25.422700 2.025700
25.440700 2.123400
25.458700 2.067000
25.476700 2.005500
25.494700 1.955400
25.512700 1.910500
25.530700 1.868000
25.548700 1.839600
25.566700 1.809100
25.584700 1.773600
25.602700 1.743700
25.620700 1.720000
25.638700 1.700400
25.656700 1.684400
25.674700 1.670900
25.692700 1.661100
25.710700 1.656700
25.728700 1.655800
25.746700 1.663000
25.764700 1.686400
25.782700 1.713500
25.800700 1.817600
25.818700 1.749300
25.836700 1.713600
25.854700 1.696600
25.872700 1.764500
25.890700 1.677200
25.908700 1.617300
25.926700 1.575300
25.944700 1.528800
25.962700 1.467700
25.980700 1.413800
25.998700 1.372300
26.016700 1.331600
26.034700 1.307600
26.052700 1.284900
26.070700 1.268300
26.088700 1.256300
26.106700 1.253100
26.124700 1.260100
26.142700 1.268900
26.160700 1.299000
26.178700 1.196400
26.196600 1.088400
26.214600 0.977300
26.232600 0.886300
26.250600 0.854500
26.268600 0.819000
26.286600 0.779800
26.304600 0.747400
26.322600 0.731600
26.340600 0.720100
26.358600 0.694300
26.376600 0.675800
26.394600 0.665900
26.412600 0.661600
26.430600 0.660600
26.448600 0.660500
26.466600 0.648400
26.484600 0.645700
26.502600 0.727000
26.520600 0.649600
26.538600 0.558900
26.556600 0.522400
26.574600 0.511300
26.592600 0.506000
26.610600 0.510200
26.628600 0.512800
26.646600 0.502100
26.664600 0.485000
26.682600 0.466400
26.700600 0.448200
26.718600 0.430100
26.736600 0.412500
26.754600 0.395700
26.772600 0.379200
26.790600 0.363900
26.808600 0.351700
26.826600 0.342400
26.844600 0.333600
26.862600 0.324200
26.880600 0.313200
26.898600 0.301100
26.916600 0.288800
26.934600 0.276200
26.952600 0.263500
26.970600 0.251600
26.988600 0.242700
27.006600 0.235500
27.024600 0.250300
27.042600 0.238700
27.060600 0.194700
27.078600 0.187000
27.096600 0.182600
27.114600 0.181300
27.132600 0.180400
27.150600 0.179300
27.168600 0.177500
27.186600 0.175000
27.204600 0.171800
27.222600 0.168000
27.240600 0.163400
27.258600 0.158300
27.276600 0.152400
27.294600 0.146000
27.312600 0.139900
27.330600 0.134600
27.348600 0.129800
27.366500 0.125300
27.384500 0.121200
27.402500 0.117500
27.420500 0.113900
27.438500 0.110300
27.456500 0.106600
27.474500 0.102800
27.492500 0.099000
27.510500 0.095200
27.528500 0.091400
27.546500 0.087500
27.564500 0.083600
27.582500 0.079700
27.600500 0.075800
27.618500 0.072300
27.636500 0.069300
27.654500 0.066700
27.672500 0.064500
27.690500 0.061900
27.708500 0.058800
27.726500 0.055300
27.744500 0.051800
27.762500 0.048200
27.780500 0.044500
27.798500 0.040800
27.816500 0.037000
27.834500 0.033200
27.852500 0.029600
27.870500 0.026100
27.888500 0.022700
27.906500 0.019400
27.924500 0.016300
27.942500 0.013300
27.960500 0.010500
27.978500 0.007800
27.996500 0.005300
28.014500 0.003200
28.032500 0.001500
28.050500 0.000100
28.068500 0.000000
28.086500 0.000000
28.104500 0.000000
28.122500 0.000000
28.140500 0.000000
28.158500 0.000000
28.176500 0.000000
28.194500 0.000000
28.212500 0.000000
28.230500 0.000000
28.248500 0.000000
28.266500 0.000000
28.284500 0.000000
28.302500 0.000000
28.320500 0.000000
28.338500 0.000000
28.356500 0.000000
28.374500 0.000000
28.392500 0.000000
28.410500 0.000000
28.428500 0.000000
28.446500 0.000000
28.464500 0.000000
28.482500 0.000000
28.500500 0.000000
28.518500 0.000000
28.536500 0.000000
28.554400 0.000000
28.572400 0.000000
28.590400 0.000000
28.608400 0.000000
28.626400 0.000000
28.644400 0.000000
28.662400 0.000000
28.680400 0.000000
28.698400 0.000000
28.716400 0.000000
28.734400 0.000000
28.752400 0.000000
28.770400 0.000000
28.788400 0.000000
28.806400 0.000000
28.824400 0.000000
28.842400 0.000000
28.860400 0.000000
28.878400 0.000000
28.896400 0.000000
28.914400 0.000000
28.932400 0.000000
28.950400 0.000000
28.968400 0.000000
28.986400 0.000000
29.004400 0.000000
29.022400 0.000000
29.040400 0.000000
29.058400 0.000000
29.076400 0.000000
29.094400 0.000000
29.112400 0.000000
29.130400 0.000000
29.148400 0.000000
29.166400 0.000000
29.184400 0.000000
29.202400 0.000000
29.220400 0.000000
29.238400 0.000000
29.256400 0.000000
29.274400 0.000000
29.292400 0.000000
29.310400 0.000000
29.328400 0.000000
29.346400 0.000000
29.364400 0.000000
29.382400 0.000000
29.400400 0.000000
29.418400 0.000000
29.436400 0.000000
29.454400 0.000000
29.472400 0.000000
29.490400 0.000000
29.508400 0.000000
29.526400 0.000000
29.544400 0.000000
29.562400 0.000000
29.580400 0.000000
29.598400 0.000000
29.616400 0.000000
29.634400 0.000000
29.652400 0.000000
29.670400 0.000000
29.688400 0.000000
e
