set title 'mp-556716 - Density of States'
set xlabel 'Energy (eV)'
set ylabel 'DOS (states/eV)'
set grid
set xrange [-10:10]
set yrange [0:198.714]
set xzeroaxis lt -1
set terminal png size 800,600
set output 'mp-556716_dos_gnuplot.png'
plot '-' using 1:2 with lines title 'DOS'
-12.957500 0.000000
-12.943500 0.000000
-12.929500 0.000000
-12.915500 0.000000
-12.901500 0.000000
-12.887500 0.000000
-12.873500 0.000000
-12.859500 0.000000
-12.845500 0.000000
-12.831500 0.000000
-12.817500 0.000000
-12.803600 0.000000
-12.789600 0.000000
-12.775600 0.000000
-12.761600 0.000000
-12.747600 0.000000
-12.733600 0.000000
-12.719600 0.000000
-12.705600 0.000000
-12.691600 0.000000
-12.677600 0.000000
-12.663600 0.000000
-12.649600 0.000000
-12.635600 0.000000
-12.621600 0.000000
-12.607600 0.000000
-12.593600 0.000000
-12.579600 0.000000
-12.565600 0.000000
-12.551600 0.000000
-12.537600 0.000000
-12.523700 0.000000
-12.509700 0.000000
-12.495700 0.000000
-12.481700 0.000000
-12.467700 0.000000
-12.453700 0.000000
-12.439700 0.000000
-12.425700 0.000000
-12.411700 0.000000
-12.397700 0.000000
-12.383700 0.000000
-12.369700 0.000000
-12.355700 0.000000
-12.341700 0.000000
-12.327700 0.000000
-12.313700 0.000000
-12.299700 0.000000
-12.285700 0.000000
-12.271700 0.000000
-12.257800 0.000000
-12.243800 0.000000
-12.229800 0.000000
-12.215800 0.000000
-12.201800 0.000000
-12.187800 0.000000
-12.173800 0.000000
-12.159800 0.000000
-12.145800 0.000000
-12.131800 0.000000
-12.117800 0.000000
-12.103800 0.000000
-12.089800 0.000000
-12.075800 0.000000
-12.061800 0.000000
-12.047800 0.000000
-12.033800 0.000000
-12.019800 0.000000
-12.005800 0.000000
-11.991900 0.000000
-11.977900 0.000000
-11.963900 0.000000
-11.949900 0.000000
-11.935900 0.000000
-11.921900 0.000000
-11.907900 0.000000
-11.893900 0.000000
-11.879900 0.000000
-11.865900 0.000000
-11.851900 0.000000
-11.837900 0.000000
-11.823900 0.000000
-11.809900 0.000000
-11.795900 0.000000
-11.781900 0.000000
-11.767900 0.000000
-11.753900 0.000000
-11.739900 0.000000
-11.726000 0.000000
-11.712000 0.000000
-11.698000 0.000000
-11.684000 0.019700
-11.670000 0.236900
-11.656000 0.454100
-11.642000 0.671300
-11.628000 0.888400
-11.614000 1.105600
-11.600000 1.322800
-11.586000 1.540000
-11.572000 1.757100
-11.558000 1.097700
-11.544000 1.125200
-11.530000 1.152600
-11.516000 1.180100
-11.502000 1.207600
-11.488000 1.235100
-11.474000 1.262500
-11.460100 1.356400
-11.446100 1.623800
-11.432100 1.891100
-11.418100 2.158500
-11.404100 2.425900
-11.390100 2.693200
-11.376100 2.960600
-11.362100 3.227900
-11.348100 3.495300
-11.334100 2.727200
-11.320100 2.780700
-11.306100 2.834200
-11.292100 2.887700
-11.278100 2.941200
-11.264100 3.148800
-11.250100 3.471400
-11.236100 3.797400
-11.222100 4.131800
-11.208100 4.466300
-11.194100 4.800700
-11.180200 5.135100
-11.166200 5.469500
-11.152200 4.780300
-11.138200 4.884300
-11.124200 4.992700
-11.110200 5.102600
-11.096200 5.327700
-11.082200 5.734100
-11.068200 6.140500
-11.054200 6.546900
-11.040200 6.956800
-11.026200 7.370500
-11.012200 7.784200
-10.998200 8.549700
-10.984200 8.067600
-10.970200 8.722900
-10.956200 9.507300
-10.942200 10.306000
-10.928200 11.104700
-10.914300 14.048300
-10.900300 14.050000
-10.886300 14.051500
-10.872300 12.770400
-10.858300 12.455500
-10.844300 12.140500
-10.830300 12.487700
-10.816300 12.575500
-10.802300 13.760500
-10.788300 15.611000
-10.774300 17.461500
-10.760300 16.666200
-10.746300 16.602300
-10.732300 16.587300
-10.718300 15.577700
-10.704300 17.696800
-10.690300 18.793000
-10.676300 21.371700
-10.662300 29.582900
-10.648400 19.801300
-10.634400 16.713500
-10.620400 20.983300
-10.606400 9.923200
-10.592400 10.215000
-10.578400 10.506700
-10.564400 12.298200
-10.550400 13.499000
-10.536400 14.905400
-10.522400 21.579600
-10.508400 21.519500
-10.494400 21.459500
-10.480400 24.414600
-10.466400 22.176700
-10.452400 24.324800
-10.438400 13.446300
-10.424400 15.697700
-10.410400 8.089000
-10.396400 8.332400
-10.382500 8.577600
-10.368500 8.822900
-10.354500 9.092300
-10.340500 9.619300
-10.326500 11.311700
-10.312500 12.716300
-10.298500 14.120900
-10.284500 15.525500
-10.270500 18.471600
-10.256500 16.973000
-10.242500 14.481400
-10.228500 13.865600
-10.214500 18.565100
-10.200500 12.102100
-10.186500 13.358900
-10.172500 17.882400
-10.158500 16.910900
-10.144500 15.942700
-10.130500 13.667000
-10.116600 12.399800
-10.102600 13.856100
-10.088600 16.831100
-10.074600 9.135600
-10.060600 9.762200
-10.046600 10.393700
-10.032600 11.037100
-10.018600 12.795600
-10.004600 14.192400
-9.990600 14.460800
-9.976600 15.512000
-9.962600 19.429700
-9.948600 18.518200
-9.934600 17.606600
-9.920600 16.695100
-9.906600 21.508500
-9.892600 23.644800
-9.878600 14.507100
-9.864600 13.894700
-9.850600 13.282300
-9.836700 12.933900
-9.822700 16.312800
-9.808700 9.560000
-9.794700 9.842100
-9.780700 10.124100
-9.766700 11.854000
-9.752700 12.823100
-9.738700 13.792200
-9.724700 14.761300
-9.710700 18.316900
-9.696700 17.428800
-9.682700 16.540700
-9.668700 15.713200
-9.654700 20.252800
-9.640700 23.193900
-9.626700 14.897100
-9.612700 15.463200
-9.598700 15.829400
-9.584700 14.626400
-9.570800 17.134400
-9.556800 22.123100
-9.542800 14.044600
-9.528800 13.000700
-9.514800 11.956700
-9.500800 10.912800
-9.486800 14.291200
-9.472800 18.064700
-9.458800 13.288900
-9.444800 16.169600
-9.430800 13.401700
-9.416800 10.565500
-9.402800 12.612100
-9.388800 5.329300
-9.374800 5.677800
-9.360800 6.026200
-9.346800 6.374700
-9.332800 20.374600
-9.318800 32.802300
-9.304900 0.000000
-9.290900 0.000000
-9.276900 0.000000
-9.262900 0.000000
-9.248900 0.000000
-9.234900 0.000000
-9.220900 0.000000
-9.206900 0.000000
-9.192900 0.000000
-9.178900 0.000000
-9.164900 0.000000
-9.150900 0.000000
-9.136900 0.000000
-9.122900 0.000000
-9.108900 0.000000
-9.094900 0.000000
-9.080900 0.000000
-9.066900 0.000000
-9.052900 0.000000
-9.039000 0.000000
-9.025000 0.000000
-9.011000 0.000000
-8.997000 0.000000
-8.983000 0.000000
-8.969000 0.000000
-8.955000 0.000000
-8.941000 0.000000
-8.927000 0.000000
-8.913000 0.000000
-8.899000 0.000000
-8.885000 0.000000
-8.871000 0.000000
-8.857000 0.000000
-8.843000 0.000000
-8.829000 0.000000
-8.815000 0.000000
-8.801000 0.000000
-8.787000 0.000000
-8.773000 0.000000
-8.759100 0.000000
-8.745100 0.000000
-8.731100 0.000000
-8.717100 0.000000
-8.703100 0.000000
-8.689100 0.000000
-8.675100 0.000000
-8.661100 0.000000
-8.647100 0.000000
-8.633100 0.000000
-8.619100 0.000000
-8.605100 0.000000
-8.591100 0.000000
-8.577100 0.000000
-8.563100 0.000000
-8.549100 0.000000
-8.535100 0.000000
-8.521100 0.000000
-8.507100 0.000000
-8.493200 0.000000
-8.479200 0.000000
-8.465200 0.000000
-8.451200 0.000000
-8.437200 0.000000
-8.423200 0.000000
-8.409200 0.000000
-8.395200 0.000000
-8.381200 0.000000
-8.367200 0.000000
-8.353200 0.000000
-8.339200 0.000000
-8.325200 0.000000
-8.311200 0.000000
-8.297200 0.000000
-8.283200 0.000000
-8.269200 0.000000
-8.255200 0.000000
-8.241200 0.000000
-8.227300 0.000000
-8.213300 0.000000
-8.199300 0.000000
-8.185300 0.000000
-8.171300 0.000000
-8.157300 0.000000
-8.143300 0.000000
-8.129300 0.000000
-8.115300 0.000000
-8.101300 0.000000
-8.087300 0.000000
-8.073300 0.000000
-8.059300 0.000000
-8.045300 0.000000
-8.031300 0.000000
-8.017300 0.000000
-8.003300 0.000000
-7.989300 0.000000
-7.975300 0.000000
-7.961400 0.000000
-7.947400 0.000000
-7.933400 0.000000
-7.919400 0.000000
-7.905400 0.000000
-7.891400 0.000000
-7.877400 0.000000
-7.863400 0.000000
-7.849400 0.000000
-7.835400 0.000000
-7.821400 0.000000
-7.807400 0.000000
-7.793400 0.000000
-7.779400 0.000000
-7.765400 0.000000
-7.751400 0.000000
-7.737400 0.000000
-7.723400 0.000000
-7.709400 0.000000
-7.695500 0.000000
-7.681500 0.000000
-7.667500 0.000000
-7.653500 0.000000
-7.639500 0.000000
-7.625500 0.000000
-7.611500 0.000000
-7.597500 0.000000
-7.583500 0.000000
-7.569500 0.000000
-7.555500 0.000000
-7.541500 0.000000
-7.527500 0.000000
-7.513500 0.000000
-7.499500 0.000000
-7.485500 0.000000
-7.471500 0.000000
-7.457500 0.000000
-7.443500 0.000000
-7.429500 0.000000
-7.415600 0.000000
-7.401600 0.000000
-7.387600 0.000000
-7.373600 0.000000
-7.359600 0.000000
-7.345600 0.000000
-7.331600 0.000000
-7.317600 0.000000
-7.303600 0.000000
-7.289600 0.000000
-7.275600 0.000000
-7.261600 0.000000
-7.247600 0.000000
-7.233600 0.000000
-7.219600 0.000000
-7.205600 0.000000
-7.191600 0.000000
-7.177600 0.000000
-7.163600 0.000000
-7.149700 0.000000
-7.135700 0.000000
-7.121700 0.000000
-7.107700 0.000000
-7.093700 0.000000
-7.079700 0.000000
-7.065700 0.000000
-7.051700 0.000000
-7.037700 0.000000
-7.023700 0.000000
-7.009700 0.000000
-6.995700 0.000000
-6.981700 0.000000
-6.967700 0.000000
-6.953700 0.000000
-6.939700 0.000000
-6.925700 0.000000
-6.911700 0.000000
-6.897700 0.000000
-6.883800 0.000000
-6.869800 0.000000
-6.855800 0.000000
-6.841800 0.000000
-6.827800 0.000000
-6.813800 0.000000
-6.799800 0.000000
-6.785800 0.000000
-6.771800 0.000000
-6.757800 0.000000
-6.743800 0.000000
-6.729800 0.000000
-6.715800 0.000000
-6.701800 0.000000
-6.687800 0.000000
-6.673800 0.000000
-6.659800 0.000000
-6.645800 0.000000
-6.631800 0.000000
-6.617900 0.000000
-6.603900 0.000000
-6.589900 0.000000
-6.575900 0.000000
-6.561900 0.000000
-6.547900 0.000000
-6.533900 0.000000
-6.519900 0.000000
-6.505900 0.000000
-6.491900 0.000000
-6.477900 0.000000
-6.463900 0.000000
-6.449900 0.000000
-6.435900 0.000000
-6.421900 0.000000
-6.407900 0.000000
-6.393900 0.000000
-6.379900 0.000000
-6.365900 0.000000
-6.352000 0.000000
-6.338000 0.000000
-6.324000 0.000000
-6.310000 0.000000
-6.296000 0.000000
-6.282000 0.000000
-6.268000 0.000000
-6.254000 0.000000
-6.240000 0.000000
-6.226000 0.000000
-6.212000 0.000000
-6.198000 0.000000
-6.184000 0.000000
-6.170000 0.000000
-6.156000 0.000000
-6.142000 0.000000
-6.128000 0.000000
-6.114000 0.000000
-6.100000 0.000000
-6.086000 0.000000
-6.072100 0.000000
-6.058100 0.000000
-6.044100 0.000000
-6.030100 0.000000
-6.016100 0.000000
-6.002100 0.000000
-5.988100 0.000000
-5.974100 0.000000
-5.960100 0.000000
-5.946100 0.000000
-5.932100 0.000000
-5.918100 0.000000
-5.904100 0.000000
-5.890100 0.000000
-5.876100 0.000000
-5.862100 0.000000
-5.848100 0.000000
-5.834100 0.000000
-5.820100 0.000000
-5.806200 0.000000
-5.792200 0.000000
-5.778200 0.000000
-5.764200 0.000000
-5.750200 0.000000
-5.736200 0.000000
-5.722200 0.000000
-5.708200 0.000000
-5.694200 0.000000
-5.680200 0.000000
-5.666200 0.000000
-5.652200 0.000000
-5.638200 0.000000
-5.624200 0.000000
-5.610200 0.000000
-5.596200 0.000000
-5.582200 0.000000
-5.568200 0.000000
-5.554200 0.000000
-5.540300 0.000000
-5.526300 0.000000
-5.512300 0.000000
-5.498300 0.000000
-5.484300 0.000000
-5.470300 0.000000
-5.456300 0.000000
-5.442300 0.000000
-5.428300 0.000000
-5.414300 0.000000
-5.400300 0.000000
-5.386300 0.000000
-5.372300 0.000000
-5.358300 0.000000
-5.344300 0.000000
-5.330300 0.000000
-5.316300 0.000000
-5.302300 0.000000
-5.288300 0.000000
-5.274400 0.000000
-5.260400 0.000000
-5.246400 0.000000
-5.232400 0.000000
-5.218400 0.000000
-5.204400 0.000000
-5.190400 0.000000
-5.176400 0.000000
-5.162400 0.000000
-5.148400 0.000000
-5.134400 0.000000
-5.120400 0.000000
-5.106400 0.000000
-5.092400 0.000000
-5.078400 0.000000
-5.064400 0.000000
-5.050400 0.000000
-5.036400 34.793800
-5.022400 51.698800
-5.008400 48.916000
-4.994500 47.835900
-4.980500 29.910700
-4.966500 45.186500
-4.952500 59.349900
-4.938500 64.611700
-4.924500 88.657500
-4.910500 57.338400
-4.896500 48.914300
-4.882500 45.991000
-4.868500 45.696500
-4.854500 45.870000
-4.840500 46.896200
-4.826500 36.506200
-4.812500 52.092500
-4.798500 64.476900
-4.784500 78.880400
-4.770500 78.153400
-4.756500 64.501700
-4.742500 63.169000
-4.728600 66.993400
-4.714600 75.596100
-4.700600 28.622700
-4.686600 60.512900
-4.672600 42.481700
-4.658600 107.983300
-4.644600 85.651500
-4.630600 32.001200
-4.616600 82.461500
-4.602600 77.010500
-4.588600 89.905300
-4.574600 155.472900
-4.560600 94.377100
-4.546600 92.267200
-4.532600 64.927300
-4.518600 65.583500
-4.504600 62.893900
-4.490600 73.704400
-4.476600 82.431500
-4.462700 111.817100
-4.448700 105.247700
-4.434700 110.731300
-4.420700 84.948700
-4.406700 63.195000
-4.392700 114.602800
-4.378700 68.752100
-4.364700 152.491300
-4.350700 48.840500
-4.336700 48.183700
-4.322700 56.363500
-4.308700 69.045200
-4.294700 36.107400
-4.280700 38.194000
-4.266700 44.343200
-4.252700 56.931600
-4.238700 58.486700
-4.224700 42.889100
-4.210700 49.460100
-4.196800 102.311900
-4.182800 180.648700
-4.168800 150.201900
-4.154800 108.680200
-4.140800 81.604900
-4.126800 80.862700
-4.112800 60.000900
-4.098800 54.719900
-4.084800 53.631700
-4.070800 42.923600
-4.056800 36.937100
-4.042800 75.054500
-4.028800 44.882200
-4.014800 28.140800
-4.000800 43.901500
-3.986800 55.435300
-3.972800 44.792000
-3.958800 40.326800
-3.944800 51.665200
-3.930900 44.876300
-3.916900 115.140200
-3.902900 89.006900
-3.888900 139.917100
-3.874900 126.584900
-3.860900 111.181300
-3.846900 113.063300
-3.832900 87.291000
-3.818900 61.625300
-3.804900 76.731400
-3.790900 63.950100
-3.776900 92.406500
-3.762900 83.220500
-3.748900 69.036900
-3.734900 64.296900
-3.720900 66.777600
-3.706900 87.195200
-3.692900 90.136300
-3.678900 92.197400
-3.664900 98.432100
-3.651000 126.543300
-3.637000 138.672500
-3.623000 105.855500
-3.609000 83.882200
-3.595000 84.529200
-3.581000 69.062300
-3.567000 81.596000
-3.553000 59.000100
-3.539000 64.806600
-3.525000 82.494800
-3.511000 89.448200
-3.497000 71.416100
-3.483000 90.422700
-3.469000 75.221800
-3.455000 99.671800
-3.441000 49.872100
-3.427000 42.649600
-3.413000 33.975000
-3.399000 38.896300
-3.385100 28.663400
-3.371100 88.658300
-3.357100 66.973200
-3.343100 23.909200
-3.329100 42.916300
-3.315100 105.470100
-3.301100 125.625300
-3.287100 121.146600
-3.273100 63.194400
-3.259100 47.546700
-3.245100 82.722300
-3.231100 44.479100
-3.217100 58.176800
-3.203100 22.107600
-3.189100 32.848100
-3.175100 38.879600
-3.161100 28.117000
-3.147100 20.555100
-3.133100 15.756900
-3.119200 17.483700
-3.105200 16.986900
-3.091200 17.771400
-3.077200 19.235500
-3.063200 23.847400
-3.049200 24.552300
-3.035200 12.707500
-3.021200 17.196300
-3.007200 10.491200
-2.993200 12.034000
-2.979200 10.428800
-2.965200 8.523600
-2.951200 8.788700
-2.937200 9.331600
-2.923200 7.744800
-2.909200 7.944400
-2.895200 8.144000
-2.881200 9.943400
-2.867200 10.586700
-2.853300 11.229900
-2.839300 11.497700
-2.825300 12.219200
-2.811300 12.940800
-2.797300 12.945800
-2.783300 11.218800
-2.769300 11.530300
-2.755300 10.667200
-2.741300 8.301600
-2.727300 6.004700
-2.713300 6.545300
-2.699300 14.165700
-2.685300 9.976800
-2.671300 11.460000
-2.657300 8.398500
-2.643300 8.437800
-2.629300 12.515600
-2.615300 16.594100
-2.601300 12.965400
-2.587400 14.078500
-2.573400 10.868600
-2.559400 11.046500
-2.545400 12.106400
-2.531400 13.473400
-2.517400 15.050700
-2.503400 16.628000
-2.489400 17.606200
-2.475400 17.623000
-2.461400 14.552900
-2.447400 11.554000
-2.433400 10.635800
-2.419400 10.843400
-2.405400 11.051000
-2.391400 9.546400
-2.377400 9.487900
-2.363400 9.429400
-2.349400 9.635000
-2.335400 9.757500
-2.321400 10.259900
-2.307500 10.762300
-2.293500 11.264700
-2.279500 11.767000
-2.265500 12.290500
-2.251500 12.976400
-2.237500 12.511600
-2.223500 11.055900
-2.209500 11.358200
-2.195500 11.660500
-2.181500 11.962800
-2.167500 37.441000
-2.153500 14.418000
-2.139500 15.988400
-2.125500 18.566800
-2.111500 31.929200
-2.097500 16.863900
-2.083500 15.042400
-2.069500 16.240700
-2.055500 18.505500
-2.041600 13.471600
-2.027600 11.066900
-2.013600 11.925500
-1.999600 12.069600
-1.985600 14.956500
-1.971600 11.345300
-1.957600 13.288600
-1.943600 12.889200
-1.929600 12.489700
-1.915600 12.097200
-1.901600 11.706300
-1.887600 11.315400
-1.873600 10.628700
-1.859600 11.212200
-1.845600 12.059700
-1.831600 12.915300
-1.817600 13.770800
-1.803600 14.626400
-1.789600 11.832800
-1.775700 13.351300
-1.761700 13.182800
-1.747700 13.014300
-1.733700 12.845800
-1.719700 12.675600
-1.705700 12.505500
-1.691700 12.335400
-1.677700 12.753900
-1.663700 12.601800
-1.649700 12.475200
-1.635700 11.151200
-1.621700 11.235100
-1.607700 11.311000
-1.593700 11.125800
-1.579700 11.310700
-1.565700 11.492800
-1.551700 11.671700
-1.537700 11.850600
-1.523700 12.029500
-1.509800 12.208400
-1.495800 10.621500
-1.481800 10.537200
-1.467800 10.452800
-1.453800 10.368400
-1.439800 10.284100
-1.425800 10.199700
-1.411800 10.099200
-1.397800 9.997900
-1.383800 9.786800
-1.369800 19.391800
-1.355800 19.966500
-1.341800 8.639500
-1.327800 8.671600
-1.313800 8.703700
-1.299800 8.735800
-1.285800 8.767900
-1.271800 9.540500
-1.257800 9.692800
-1.243800 10.038900
-1.229900 10.385900
-1.215900 10.740000
-1.201900 11.094000
-1.187900 11.461600
-1.173900 11.833200
-1.159900 12.206400
-1.145900 12.586500
-1.131900 12.966600
-1.117900 13.345200
-1.103900 13.723500
-1.089900 12.482200
-1.075900 10.726900
-1.061900 11.399500
-1.047900 11.464500
-1.033900 11.529400
-1.019900 11.594400
-1.005900 11.659400
-0.991900 11.724300
-0.977900 11.789300
-0.964000 11.854300
-0.950000 11.918900
-0.936000 12.130400
-0.922000 13.260700
-0.908000 13.704900
-0.894000 14.149200
-0.880000 14.593500
-0.866000 15.049300
-0.852000 15.230200
-0.838000 15.186700
-0.824000 15.143300
-0.810000 15.089700
-0.796000 15.029000
-0.782000 14.736200
-0.768000 14.812600
-0.754000 13.416100
-0.740000 13.431400
-0.726000 13.446600
-0.712000 13.461900
-0.698100 13.477200
-0.684100 14.498700
-0.670100 14.684800
-0.656100 15.236400
-0.642100 15.788100
-0.628100 17.101900
-0.614100 19.442000
-0.600100 19.494800
-0.586100 19.415200
-0.572100 19.509900
-0.558100 19.661100
-0.544100 20.769000
-0.530100 20.968900
-0.516100 21.168700
-0.502100 20.513300
-0.488100 18.971800
-0.474100 19.704400
-0.460100 19.566100
-0.446100 19.376000
-0.432200 19.339700
-0.418200 19.563500
-0.404200 20.845500
-0.390200 20.911800
-0.376200 21.047500
-0.362200 21.211600
-0.348200 19.986900
-0.334200 19.922500
-0.320200 20.995700
-0.306200 21.031400
-0.292200 21.082600
-0.278200 21.236500
-0.264200 22.504900
-0.250200 21.636700
-0.236200 22.754400
-0.222200 21.712100
-0.208200 21.835300
-0.194200 22.125800
-0.180200 22.388600
-0.166300 22.696600
-0.152300 23.147900
-0.138300 23.493400
-0.124300 23.842300
-0.110300 25.348800
-0.096300 25.600000
-0.082300 25.915100
-0.068300 26.235600
-0.054300 25.529500
-0.040300 24.421800
-0.026300 25.902100
-0.012300 25.904000
0.001700 26.095800
0.015700 25.985100
0.029700 26.282900
0.043700 26.242100
0.057700 26.429600
0.071700 26.303700
0.085700 26.138800
0.099700 26.928700
0.113600 25.957300
0.127600 25.765200
0.141600 24.644300
0.155600 25.593300
0.169600 25.697600
0.183600 25.586500
0.197600 25.553100
0.211600 25.587000
0.225600 25.620800
0.239600 25.654700
0.253600 25.688600
0.267600 25.492600
0.281600 24.649700
0.295600 24.199000
0.309600 23.887800
0.323600 23.863200
0.337600 23.779000
0.351600 22.923800
0.365600 22.936600
0.379500 24.457200
0.393500 24.394100
0.407500 24.548400
0.421500 26.059200
0.435500 25.958100
0.449500 25.867400
0.463500 25.652600
0.477500 25.580700
0.491500 25.605200
0.505500 24.736600
0.519500 24.395800
0.533500 23.360400
0.547500 23.096300
0.561500 22.733300
0.575500 22.854600
0.589500 22.710500
0.603500 22.672600
0.617500 22.515700
0.631500 22.422800
0.645400 22.285300
0.659400 22.166000
0.673400 22.062800
0.687400 21.649600
0.701400 21.482600
0.715400 21.315600
0.729400 20.449200
0.743400 24.470800
0.757400 23.469700
0.771400 22.734000
0.785400 21.304700
0.799400 20.876800
0.813400 20.757300
0.827400 20.637800
0.841400 20.518200
0.855400 20.532100
0.869400 20.450100
0.883400 25.022500
0.897400 23.432700
0.911300 23.184800
0.925300 22.359100
0.939300 21.638600
0.953300 21.381900
0.967300 21.125200
0.981300 19.871900
0.995300 19.693700
1.009300 19.536600
1.023300 18.936300
1.037300 18.692700
1.051300 18.449100
1.065300 18.217900
1.079300 18.034000
1.093300 17.803100
1.107300 16.737700
1.121300 16.473900
1.135300 16.270300
1.149300 16.063500
1.163300 15.564800
1.177200 15.391500
1.191200 15.273900
1.205200 16.764100
1.219200 16.644200
1.233200 16.562500
1.247200 16.457500
1.261200 16.312300
1.275200 16.137300
1.289200 15.832000
1.303200 15.549300
1.317200 15.271100
1.331200 14.408500
1.345200 14.071300
1.359200 13.848900
1.373200 13.600100
1.387200 13.435500
1.401200 13.270900
1.415200 13.142400
1.429200 13.023200
1.443200 11.957800
1.457100 11.819000
1.471100 11.680100
1.485100 11.541200
1.499100 11.402400
1.513100 11.245100
1.527100 11.304800
1.541100 11.138600
1.555100 10.972300
1.569100 10.816100
1.583100 10.689500
1.597100 10.444800
1.611100 9.195000
1.625100 8.924200
1.639100 8.760500
1.653100 8.584500
1.667100 8.330700
1.681100 8.076900
1.695100 7.823100
1.709100 7.569300
1.723000 7.315500
1.737000 7.061700
1.751000 6.807900
1.765000 6.552900
1.779000 6.328900
1.793000 6.270400
1.807000 6.042800
1.821000 5.678700
1.835000 5.445800
1.849000 5.212900
1.863000 4.980100
1.877000 4.771600
1.891000 4.594600
1.905000 4.427400
1.919000 4.260300
1.933000 4.093100
1.947000 3.926000
1.961000 3.758800
1.975000 3.591600
1.988900 3.424500
2.002900 3.257800
2.016900 3.095100
2.030900 3.683600
2.044900 3.485900
2.058900 3.288100
2.072900 3.090400
2.086900 2.892600
2.100900 2.694900
2.114900 2.733700
2.128900 2.529300
2.142900 2.338200
2.156900 2.162800
2.170900 1.987300
2.184900 1.811800
2.198900 1.636400
2.212900 1.523200
2.226900 1.470600
2.240900 1.417900
2.254800 1.365200
2.268800 1.707700
2.282800 1.552300
2.296800 1.396900
2.310800 1.241500
2.324800 1.086100
2.338800 0.930700
2.352800 0.775300
2.366800 0.619900
2.380800 0.464500
2.394800 0.309100
2.408800 0.153700
2.422800 0.000000
2.436800 0.000000
2.450800 0.000000
2.464800 0.000000
2.478800 0.000000
2.492800 0.000000
2.506800 0.000000
2.520800 0.000000
2.534700 0.000000
2.548700 0.000000
2.562700 0.000000
2.576700 0.000000
2.590700 0.000000
2.604700 0.000000
2.618700 0.000000
2.632700 0.000000
2.646700 0.000000
2.660700 0.000000
2.674700 0.000000
2.688700 0.000000
2.702700 0.000000
2.716700 0.000000
2.730700 0.000000
2.744700 0.000000
2.758700 0.000000
2.772700 0.000000
2.786700 0.000000
2.800600 0.000000
2.814600 0.000000
2.828600 0.000000
2.842600 0.000000
2.856600 0.000000
2.870600 0.000000
2.884600 0.000000
2.898600 0.000000
2.912600 0.000000
2.926600 0.000000
2.940600 0.000000
2.954600 0.000000
2.968600 0.000000
2.982600 0.000000
2.996600 0.000000
3.010600 0.000000
3.024600 0.000000
3.038600 0.000000
3.052600 0.000000
3.066500 0.000000
3.080500 0.000000
3.094500 0.000000
3.108500 0.000000
3.122500 0.000000
3.136500 0.000000
3.150500 0.000000
3.164500 0.000000
3.178500 0.000000
3.192500 0.000000
3.206500 0.000000
3.220500 0.000000
3.234500 0.000000
3.248500 0.000000
3.262500 0.000000
3.276500 0.000000
3.290500 0.000000
3.304500 0.000000
3.318500 0.000000
3.332400 0.000000
3.346400 0.000000
3.360400 0.000000
3.374400 0.000000
3.388400 0.000000
3.402400 0.000000
3.416400 0.000000
3.430400 0.000000
3.444400 0.000000
3.458400 0.000000
3.472400 0.000000
3.486400 0.000000
3.500400 0.000000
3.514400 0.000000
3.528400 0.000000
3.542400 0.000000
3.556400 0.000000
3.570400 0.000000
3.584400 0.000000
3.598300 0.000000
3.612300 0.000000
3.626300 0.000000
3.640300 0.001500
3.654300 0.006300
3.668300 0.011100
3.682300 0.015900
3.696300 0.020700
3.710300 0.025500
3.724300 0.030200
3.738300 0.035000
3.752300 0.039800
3.766300 0.044600
3.780300 0.049400
3.794300 0.054200
3.808300 0.058900
3.822300 0.063700
3.836300 0.068500
3.850300 0.073300
3.864300 0.078100
3.878200 0.082900
3.892200 0.087700
3.906200 0.092400
3.920200 0.097200
3.934200 0.102000
3.948200 0.106800
3.962200 0.111600
3.976200 0.116400
3.990200 0.121200
4.004200 0.125900
4.018200 0.130700
4.032200 0.135500
4.046200 0.140300
4.060200 0.145100
4.074200 0.149900
4.088200 0.154700
4.102200 0.159400
4.116200 0.164200
4.130200 0.169000
4.144100 0.173800
4.158100 0.178600
4.172100 0.189500
4.186100 0.200800
4.200100 0.212100
4.214100 0.223400
4.228100 0.234700
4.242100 0.246100
4.256100 0.257400
4.270100 0.268700
4.284100 0.280000
4.298100 0.291300
4.312100 0.302600
4.326100 0.313900
4.340100 0.325300
4.354100 0.336600
4.368100 0.347900
4.382100 0.364800
4.396100 0.381700
4.410000 0.398700
4.424000 0.415700
4.438000 0.436300
4.452000 0.459000
4.466000 0.481700
4.480000 0.504400
4.494000 0.548500
4.508000 0.576100
4.522000 0.603700
4.536000 0.631300
4.550000 0.658900
4.564000 0.686500
4.578000 0.714000
4.592000 0.741600
4.606000 0.769200
4.620000 0.796800
4.634000 0.824400
4.648000 0.856000
4.662000 0.889200
4.675900 0.922500
4.689900 0.955700
4.703900 0.988900
4.717900 1.022100
4.731900 1.055300
4.745900 1.088500
4.759900 1.121700
4.773900 1.154900
4.787900 1.188200
4.801900 1.227100
4.815900 1.267100
4.829900 1.843400
4.843900 2.464600
4.857900 2.612500
4.871900 2.760400
4.885900 2.969300
4.899900 3.152400
4.913900 3.335400
4.927900 3.518400
4.941800 3.701400
4.955800 3.884400
4.969800 4.067500
4.983800 4.250500
4.997800 4.433500
5.011800 4.616500
5.025800 4.801600
5.039800 4.990800
5.053800 5.174900
5.067800 5.692400
5.081800 5.864200
5.095800 6.035900
5.109800 6.147100
5.123800 6.216400
5.137800 6.285800
5.151800 6.459700
5.165800 6.571000
5.179800 6.682200
5.193800 6.793400
5.207800 7.346900
5.221700 7.526300
5.235700 7.705700
5.249700 7.885000
5.263700 8.064400
5.277700 8.243700
5.291700 8.409300
5.305700 8.570700
5.319700 8.740500
5.333700 8.927800
5.347700 9.120000
5.361700 9.313800
5.375700 9.936000
5.389700 10.075600
5.403700 10.215200
5.417700 10.354800
5.431700 10.583500
5.445700 10.750700
5.459700 10.917900
5.473700 10.619000
5.487600 16.397900
5.501600 11.644200
5.515600 10.083900
5.529600 10.141500
5.543600 10.204600
5.557600 10.268300
5.571600 10.332000
5.585600 10.395600
5.599600 10.477100
5.613600 10.555900
5.627600 10.635700
5.641600 10.720300
5.655600 10.804900
5.669600 10.889400
5.683600 11.527200
5.697600 11.578400
5.711600 11.629500
5.725600 11.680700
5.739600 11.960200
5.753500 12.285700
5.767500 12.822100
5.781500 13.279500
5.795500 13.750900
5.809500 14.270200
5.823500 14.789500
5.837500 15.822500
5.851500 16.397500
5.865500 15.784600
5.879500 15.209400
5.893500 14.262200
5.907500 13.748700
5.921500 13.241500
5.935500 18.049000
5.949500 11.611600
5.963500 11.760200
5.977500 11.908800
5.991500 12.057400
6.005500 12.206000
6.019400 12.354600
6.033400 12.503200
6.047400 12.651800
6.061400 13.310000
6.075400 14.050200
6.089400 15.045800
6.103400 16.648300
6.117400 17.775900
6.131400 14.873600
6.145400 14.981700
6.159400 15.089900
6.173400 15.504500
6.187400 16.009200
6.201400 16.997200
6.215400 17.455100
6.229400 17.913000
6.243400 15.415800
6.257400 15.379300
6.271400 15.342800
6.285300 15.829000
6.299300 15.988300
6.313300 16.042500
6.327300 37.083800
6.341300 15.231000
6.355300 15.294700
6.369300 15.358300
6.383300 15.422000
6.397300 15.642600
6.411300 15.772300
6.425300 16.187400
6.439300 17.400100
6.453300 18.020600
6.467300 18.571600
6.481300 19.122500
6.495300 16.786100
6.509300 16.396900
6.523300 16.643000
6.537300 24.836700
6.551300 17.174800
6.565200 19.564800
6.579200 18.680500
6.593200 17.796300
6.607200 16.420100
6.621200 15.616100
6.635200 14.812100
6.649200 14.671000
6.663200 14.485600
6.677200 14.848000
6.691200 14.897800
6.705200 17.042700
6.719200 16.170300
6.733200 15.967700
6.747200 16.487900
6.761200 16.369900
6.775200 16.286800
6.789200 16.168300
6.803200 16.609400
6.817200 16.416700
6.831100 16.780300
6.845100 16.641900
6.859100 16.137600
6.873100 22.062300
6.887100 20.430900
6.901100 19.358900
6.915100 17.773200
6.929100 17.384800
6.943100 17.056300
6.957100 17.325100
6.971100 20.903400
6.985100 23.003600
6.999100 21.867600
7.013100 20.281800
7.027100 19.214500
7.041100 20.753100
7.055100 19.714400
7.069100 22.751900
7.083100 21.187300
7.097000 19.050200
7.111000 18.044900
7.125000 20.107900
7.139000 18.121800
7.153000 17.118800
7.167000 16.834600
7.181000 16.530600
7.195000 31.404500
7.209000 13.660500
7.223000 14.107100
7.237000 16.066400
7.251000 16.622900
7.265000 17.179400
7.279000 41.828500
7.293000 22.962100
7.307000 13.984600
7.321000 14.161600
7.335000 14.338700
7.349000 20.071000
7.362900 17.762600
7.376900 15.454200
7.390900 13.851600
7.404900 14.109100
7.418900 14.324400
7.432900 14.539600
7.446900 14.754900
7.460900 15.630500
7.474900 20.270000
7.488900 23.314000
7.502900 19.066800
7.516900 18.301200
7.530900 17.441500
7.544900 11.429000
7.558900 11.100600
7.572900 12.235800
7.586900 14.067100
7.600900 16.419000
7.614900 18.770900
7.628900 14.726700
7.642800 11.580700
7.656800 9.668600
7.670800 10.306100
7.684800 10.958600
7.698800 11.620200
7.712800 12.281900
7.726800 12.971200
7.740800 30.630600
7.754800 21.509700
7.768800 17.114800
7.782800 14.897600
7.796800 10.709000
7.810800 9.268500
7.824800 8.499100
7.838800 8.203900
7.852800 10.112600
7.866800 12.021400
7.880800 15.759100
7.894800 22.039600
7.908700 19.715400
7.922700 13.734600
7.936700 12.895700
7.950700 14.375600
7.964700 14.207500
7.978700 14.177000
7.992700 14.211800
8.006700 14.966000
8.020700 12.195200
8.034700 12.337200
8.048700 12.464300
8.062700 12.153200
8.076700 11.834300
8.090700 13.043000
8.104700 12.699600
8.118700 12.356100
8.132700 11.685600
8.146700 11.760800
8.160700 12.315400
8.174600 13.445100
8.188600 14.827800
8.202600 16.210500
8.216600 17.231400
8.230600 17.864400
8.244600 18.914600
8.258600 18.500700
8.272600 19.388900
8.286600 22.913300
8.300600 22.532700
8.314600 22.589900
8.328600 23.120100
8.342600 21.961200
8.356600 22.061200
8.370600 21.808000
8.384600 22.062600
8.398600 20.438300
8.412600 20.230100
8.426600 19.603500
8.440500 20.358500
8.454500 18.958900
8.468500 17.559400
8.482500 16.112000
8.496500 15.999000
8.510500 17.162400
8.524500 18.557300
8.538500 21.064500
8.552500 23.241500
8.566500 24.793000
8.580500 22.052800
8.594500 17.179000
8.608500 18.327900
8.622500 23.334000
8.636500 17.549600
8.650500 19.029400
8.664500 25.188900
8.678500 32.430400
8.692500 15.156500
8.706400 15.710200
8.720400 16.462700
8.734400 17.215200
8.748400 17.967600
8.762400 17.765000
8.776400 16.948800
8.790400 15.321100
8.804400 12.740300
8.818400 26.814500
8.832400 21.362600
8.846400 19.374000
8.860400 13.422000
8.874400 12.505900
8.888400 11.405400
8.902400 10.515000
8.916400 9.873700
8.930400 9.232500
8.944400 10.330800
8.958400 17.262000
8.972400 21.219900
8.986300 25.177800
9.000300 17.344900
9.014300 15.735500
9.028300 17.242500
9.042300 18.749600
9.056300 19.764800
9.070300 17.701500
9.084300 18.279800
9.098300 27.011000
9.112300 28.061900
9.126300 48.745400
9.140300 17.923500
9.154300 17.262500
9.168300 15.988000
9.182300 14.576100
9.196300 14.064100
9.210300 16.909900
9.224300 17.749700
9.238300 18.736300
9.252200 19.722900
9.266200 20.709400
9.280200 15.218600
9.294200 15.591400
9.308200 16.383300
9.322200 16.742700
9.336200 17.105000
9.350200 17.330700
9.364200 17.778200
9.378200 18.539500
9.392200 19.487800
9.406200 19.617400
9.420200 19.675600
9.434200 19.578600
9.448200 19.481500
9.462200 19.471800
9.476200 19.422500
9.490200 18.717500
9.504200 18.950500
9.518100 19.209700
9.532100 18.522100
9.546100 18.872700
9.560100 30.185500
9.574100 18.153900
9.588100 19.883200
9.602100 20.462300
9.616100 21.017600
9.630100 17.363600
9.644100 17.499500
9.658100 18.976700
9.672100 19.416800
9.686100 19.892000
9.700100 19.992000
9.714100 20.081800
9.728100 19.728900
9.742100 21.035100
9.756100 20.890200
9.770100 20.745200
9.784000 20.606500
9.798000 20.498800
9.812000 20.732600
9.826000 20.936200
9.840000 21.172700
9.854000 20.540700
9.868000 20.687300
9.882000 21.044600
9.896000 24.968900
9.910000 149.079800
9.924000 20.588800
9.938000 19.360200
9.952000 18.707200
9.966000 19.065100
9.980000 19.352900
9.994000 19.640700
10.008000 19.901900
10.022000 20.122900
10.036000 22.726800
10.049900 22.601900
10.063900 21.599300
10.077900 21.246700
10.091900 20.915700
10.105900 20.754500
10.119900 20.128400
10.133900 19.780100
10.147900 18.549900
10.161900 18.597600
10.175900 19.713700
10.189900 19.665100
10.203900 19.616600
10.217900 19.568000
10.231900 19.531000
10.245900 27.316800
10.259900 19.067500
10.273900 15.597700
10.287900 15.593600
10.301900 15.592300
10.315900 18.479300
10.329800 20.355500
10.343800 22.751800
10.357800 20.529300
10.371800 18.306900
10.385800 18.320000
10.399800 16.745300
10.413800 16.037900
10.427800 19.954900
10.441800 24.520100
10.455800 15.157300
10.469800 15.005100
10.483800 14.852900
10.497800 16.333000
10.511800 16.023700
10.525800 15.714500
10.539800 15.405200
10.553800 15.096000
10.567800 14.786800
10.581800 14.589100
10.595700 14.335200
10.609700 14.356300
10.623700 14.712300
10.637700 14.431300
10.651700 14.653900
10.665700 14.386300
10.679700 14.088300
10.693700 13.795200
10.707700 20.272600
10.721700 16.140600
10.735700 12.923900
10.749700 13.880400
10.763700 13.700400
10.777700 13.520400
10.791700 13.340300
10.805700 13.160300
10.819700 12.966800
10.833700 13.957200
10.847700 16.702200
10.861600 19.447100
10.875600 12.127000
10.889600 12.091700
10.903600 12.026500
10.917600 12.897800
10.931600 12.836000
10.945600 12.774100
10.959600 12.712200
10.973600 13.123600
10.987600 12.949000
11.001600 12.794400
11.015600 12.676300
11.029600 13.438700
11.043600 14.188100
11.057600 14.912200
11.071600 17.192500
11.085600 12.764600
11.099600 12.517600
11.113600 21.502400
11.127500 14.609700
11.141500 13.109300
11.155500 12.434800
11.169500 11.760200
11.183500 11.085600
11.197500 10.411000
11.211500 9.854500
11.225500 10.234800
11.239500 13.057600
11.253500 12.128600
11.267500 13.452500
11.281500 12.632500
11.295500 12.295500
11.309500 12.193800
11.323500 12.092000
11.337500 11.990300
11.351500 11.875800
11.365500 13.543900
11.379500 30.984500
11.393500 14.497100
11.407400 13.454900
11.421400 13.052200
11.435400 12.649600
11.449400 11.876000
11.463400 11.506200
11.477400 10.965900
11.491400 10.425500
11.505400 10.060400
11.519400 9.895200
11.533400 9.729900
11.547400 9.751300
11.561400 10.776300
11.575400 16.563100
11.589400 10.587900
11.603400 11.015900
11.617400 11.259600
11.631400 11.503300
11.645400 9.745300
11.659400 10.893200
11.673300 12.041100
11.687300 13.189000
11.701300 14.336900
11.715300 15.484800
11.729300 12.695100
11.743300 12.418800
11.757300 12.142500
11.771300 11.964200
11.785300 15.021800
11.799300 16.422500
11.813300 19.558400
11.827300 14.998100
11.841300 11.012700
11.855300 10.402900
11.869300 11.171000
11.883300 11.841800
11.897300 12.512600
11.911300 13.183400
11.925300 11.561600
11.939200 12.474500
11.953200 10.083500
11.967200 10.548900
11.981200 11.014300
11.995200 11.479800
12.009200 14.201500
12.023200 13.318000
12.037200 13.132100
12.051200 23.180400
12.065200 12.183200
12.079200 12.438400
12.093200 12.436000
12.107200 12.598700
12.121200 13.993300
12.135200 15.387900
12.149200 15.588600
12.163200 15.724100
12.177200 17.184700
12.191200 14.689900
12.205100 13.087900
12.219100 13.047800
12.233100 16.988100
12.247100 20.852400
12.261100 14.500300
12.275100 14.784500
12.289100 12.351200
12.303100 12.564700
12.317100 12.873900
12.331100 13.238900
12.345100 13.603900
12.359100 13.969000
12.373100 11.869400
12.387100 11.933000
12.401100 11.996500
12.415100 12.060000
12.429100 12.123500
12.443100 13.111800
12.457100 13.981600
12.471000 15.017900
12.485000 16.073700
12.499000 17.167600
12.513000 13.371900
12.527000 13.780200
12.541000 14.207200
12.555000 14.576900
12.569000 14.443900
12.583000 14.342900
12.597000 15.712200
12.611000 15.574200
12.625000 17.833300
12.639000 13.988300
12.653000 15.193100
12.667000 16.115600
12.681000 17.051000
12.695000 18.000100
12.709000 18.263100
12.723000 17.113500
12.737000 13.787400
12.750900 13.555500
12.764900 13.323700
12.778900 13.291700
12.792900 13.335100
12.806900 11.191100
12.820900 10.990100
12.834900 10.789000
12.848900 10.588000
12.862900 10.402200
12.876900 10.354400
12.890900 9.610400
12.904900 9.718000
12.918900 9.896100
12.932900 10.101400
12.946900 10.306700
12.960900 10.526400
12.974900 10.758800
12.988900 23.598400
13.002900 8.243100
13.016800 8.185000
13.030800 8.144000
13.044800 8.102900
13.058800 7.168400
13.072800 7.652300
13.086800 8.160100
13.100800 8.667800
13.114800 9.175600
13.128800 9.683300
13.142800 7.004800
13.156800 7.496700
13.170800 7.786100
13.184800 8.075500
13.198800 8.370800
13.212800 8.693900
13.226800 9.017000
13.240800 9.345800
13.254800 9.689500
13.268800 7.412900
13.282700 6.218200
13.296700 6.142400
13.310700 6.066500
13.324700 5.990700
13.338700 5.914900
13.352700 5.839100
13.366700 5.763300
13.380700 5.687400
13.394700 5.611600
13.408700 5.535800
13.422700 5.460000
13.436700 5.384200
13.450700 4.376900
13.464700 4.363200
13.478700 4.349600
13.492700 4.336000
13.506700 4.322400
13.520700 4.308800
13.534700 4.295200
13.548600 4.281500
13.562600 4.296400
13.576600 3.740400
13.590600 3.926100
13.604600 4.111700
13.618600 2.903100
13.632600 3.050700
13.646600 3.198300
13.660600 3.345800
13.674600 1.080600
13.688600 1.174100
13.702600 1.584600
13.716600 1.995200
13.730600 2.405700
13.744600 2.816300
13.758600 3.226900
13.772600 0.000000
13.786600 0.000000
13.800600 0.000000
13.814500 0.000000
13.828500 0.000000
13.842500 0.000000
13.856500 0.000000
13.870500 0.000000
13.884500 0.000000
13.898500 0.000000
13.912500 0.000000
13.926500 0.000000
13.940500 0.000000
13.954500 0.000000
13.968500 0.000000
13.982500 0.000000
13.996500 0.000000
14.010500 0.000000
14.024500 0.000000
14.038500 0.000000
14.052500 0.000000
14.066500 0.000000
14.080500 0.000000
14.094400 0.000000
14.108400 0.000000
14.122400 0.000000
14.136400 0.000000
14.150400 0.000000
14.164400 0.000000
14.178400 0.000000
14.192400 0.000000
14.206400 0.000000
14.220400 0.000000
14.234400 0.000000
14.248400 0.000000
14.262400 0.000000
14.276400 0.000000
14.290400 0.000000
14.304400 0.000000
14.318400 0.000000
14.332400 0.000000
14.346400 0.000000
14.360300 0.000000
14.374300 0.000000
14.388300 0.000000
14.402300 0.000000
14.416300 0.000000
14.430300 0.000000
14.444300 0.000000
14.458300 0.000000
14.472300 0.000000
14.486300 0.000000
14.500300 0.000000
14.514300 0.000000
14.528300 0.000000
14.542300 0.000000
14.556300 0.000000
14.570300 0.000000
14.584300 0.000000
14.598300 0.000000
14.612300 0.000000
14.626200 0.000000
14.640200 0.000000
14.654200 0.000000
14.668200 0.000000
14.682200 0.000000
14.696200 0.000000
14.710200 0.000000
14.724200 0.000000
14.738200 0.000000
14.752200 0.000000
14.766200 0.000000
14.780200 0.000000
14.794200 0.000000
14.808200 0.000000
14.822200 0.000000
14.836200 0.000000
14.850200 0.000000
14.864200 0.000000
14.878200 0.000000
14.892100 0.000000
14.906100 0.000000
14.920100 0.000000
14.934100 0.000000
14.948100 0.000000
14.962100 0.000000
14.976100 0.000000
14.990100 0.000000
15.004100 0.000000
15.018100 0.000000
15.032100 0.000000
e
