set title 'mp-1080448 - Density of States'
set xlabel 'Energy (eV)'
set ylabel 'DOS (states/eV)'
set grid
set xrange [-10:10]
set yrange [0:18.433]
set xzeroaxis lt -1
set terminal png size 800,600
set output 'mp-1080448_dos_gnuplot.png'
plot '-' using 1:2 with lines title 'DOS'
-3.539000 0.000000
-3.527500 0.000000
-3.515900 0.000000
-3.504300 0.000000
-3.492700 0.000000
-3.481100 0.000000
-3.469600 0.000000
-3.458000 0.000000
-3.446400 0.000000
-3.434800 0.000000
-3.423200 0.000000
-3.411700 0.000000
-3.400100 0.000000
-3.388500 0.000000
-3.376900 0.000000
-3.365300 0.000000
-3.353800 0.000000
-3.342200 0.000000
-3.330600 0.000000
-3.319000 0.000000
-3.307400 0.000000
-3.295900 0.000000
-3.284300 0.000000
-3.272700 0.000000
-3.261100 0.000000
-3.249600 0.000000
-3.238000 0.000000
-3.226400 0.000000
-3.214800 0.000000
-3.203200 0.000000
-3.191700 0.000000
-3.180100 0.000000
-3.168500 0.000000
-3.156900 0.000000
-3.145300 0.000000
-3.133800 0.000000
-3.122200 0.000000
-3.110600 0.000000
-3.099000 0.000000
-3.087400 0.000000
-3.075900 0.000000
-3.064300 0.000000
-3.052700 0.000000
-3.041100 0.000000
-3.029500 0.000000
-3.018000 0.000000
-3.006400 0.000000
-2.994800 0.000000
-2.983200 0.000000
-2.971600 0.000000
-2.960100 0.000000
-2.948500 0.000000
-2.936900 0.000000
-2.925300 0.000000
-2.913700 0.000000
-2.902200 0.000000
-2.890600 0.000000
-2.879000 0.000000
-2.867400 0.000000
-2.855800 0.000000
-2.844300 0.000000
-2.832700 0.000000
-2.821100 0.000000
-2.809500 0.000000
-2.797900 0.000000
-2.786400 0.000000
-2.774800 0.000000
-2.763200 0.000000
-2.751600 0.000000
-2.740000 0.000000
-2.728500 0.000000
-2.716900 0.000000
-2.705300 0.000000
-2.693700 0.000000
-2.682100 0.000000
-2.670600 0.000000
-2.659000 0.000000
-2.647400 0.000000
-2.635800 0.000000
-2.624200 0.000000
-2.612700 0.000000
-2.601100 0.000000
-2.589500 0.000000
-2.577900 0.000000
-2.566300 0.000000
-2.554800 0.000000
-2.543200 0.000000
-2.531600 0.000000
-2.520000 0.000000
-2.508400 0.000000
-2.496900 0.000000
-2.485300 0.000000
-2.473700 0.005200
-2.462100 0.019100
-2.450500 0.041800
-2.439000 0.073200
-2.427400 0.113300
-2.415800 0.165600
-2.404200 0.139400
-2.392600 0.146600
-2.381100 0.156600
-2.369500 0.167800
-2.357900 0.180200
-2.346300 0.193900
-2.334700 0.208700
-2.323200 0.224700
-2.311600 0.241400
-2.300000 0.254700
-2.288400 0.264000
-2.276800 0.269100
-2.265300 0.270100
-2.253700 0.267400
-2.242100 0.276500
-2.230500 0.282900
-2.218900 0.290300
-2.207400 0.297800
-2.195800 0.305500
-2.184200 0.313300
-2.172600 0.321200
-2.161000 0.329300
-2.149500 0.337400
-2.137900 0.345900
-2.126300 0.354800
-2.114700 0.364100
-2.103100 0.373900
-2.091600 0.384100
-2.080000 0.386100
-2.068400 0.389000
-2.056800 0.394600
-2.045200 0.400100
-2.033700 0.405300
-2.022100 0.410300
-2.010500 0.415000
-1.998900 0.419500
-1.987300 0.423800
-1.975800 0.428000
-1.964200 0.432500
-1.952600 0.437200
-1.941000 0.442200
-1.929400 0.447400
-1.917900 0.455600
-1.906300 0.462200
-1.894700 0.468900
-1.883100 0.475700
-1.871500 0.482500
-1.860000 0.489500
-1.848400 0.496500
-1.836800 0.503700
-1.825200 0.510900
-1.813600 0.517700
-1.802100 0.523500
-1.790500 0.528200
-1.778900 0.531700
-1.767300 0.534300
-1.755700 0.536900
-1.744200 0.540600
-1.732600 0.544900
-1.721000 0.549200
-1.709400 0.553700
-1.697800 0.558400
-1.686300 0.563200
-1.674700 0.568100
-1.663100 0.573200
-1.651500 0.578400
-1.639900 0.583600
-1.628400 0.588700
-1.616800 0.593800
-1.605200 0.598800
-1.593600 0.604000
-1.582000 0.609300
-1.570500 0.614700
-1.558900 0.620200
-1.547300 0.625700
-1.535700 0.631300
-1.524100 0.636900
-1.512600 0.642500
-1.501000 0.648300
-1.489400 0.654000
-1.477800 0.659800
-1.466200 0.665600
-1.454700 0.671500
-1.443100 0.675300
-1.431500 0.680300
-1.419900 0.684700
-1.408300 0.689200
-1.396800 0.693600
-1.385200 0.697900
-1.373600 0.702200
-1.362000 0.706400
-1.350400 0.710600
-1.338900 0.714900
-1.327300 0.719400
-1.315700 0.724000
-1.304100 0.728800
-1.292500 0.733700
-1.281000 0.738600
-1.269400 0.743500
-1.257800 0.748400
-1.246200 0.753300
-1.234600 0.758200
-1.223100 0.763100
-1.211500 0.768000
-1.199900 0.772900
-1.188300 0.777900
-1.176700 0.782800
-1.165200 0.787900
-1.153600 0.793100
-1.142000 0.798400
-1.130400 0.804100
-1.118800 0.809800
-1.107300 0.815800
-1.095700 0.821700
-1.084100 0.827700
-1.072500 0.833700
-1.060900 0.839600
-1.049400 0.845500
-1.037800 0.851200
-1.026200 0.856300
-1.014600 0.861100
-1.003000 0.865400
-0.991500 0.870000
-0.979900 0.874700
-0.968300 0.879700
-0.956700 0.884700
-0.945100 0.889700
-0.933600 0.894800
-0.922000 0.899800
-0.910400 0.904900
-0.898800 0.910100
-0.887200 0.915200
-0.875700 0.920400
-0.864100 0.925600
-0.852500 0.931000
-0.840900 0.937000
-0.829300 0.944500
-0.817800 0.951800
-0.806200 0.959500
-0.794600 0.967600
-0.783000 0.978300
-0.771400 0.990200
-0.759900 1.002100
-0.748300 1.014000
-0.736700 1.026100
-0.725100 1.038100
-0.713500 1.050200
-0.702000 1.062400
-0.690400 1.074600
-0.678800 1.086700
-0.667200 1.098800
-0.655600 1.110900
-0.644100 1.123100
-0.632500 1.135700
-0.620900 1.148500
-0.609300 1.163400
-0.597700 1.157200
-0.586200 1.151900
-0.574600 1.147100
-0.563000 1.143400
-0.551400 1.140300
-0.539800 1.138100
-0.528300 1.136700
-0.516700 1.136300
-0.505100 1.136800
-0.493500 1.140000
-0.481900 1.146600
-0.470400 1.153000
-0.458800 1.158400
-0.447200 1.162200
-0.435600 1.165100
-0.424000 1.166900
-0.412500 1.167000
-0.400900 1.164900
-0.389300 1.160400
-0.377700 1.153700
-0.366100 1.144800
-0.354600 1.133600
-0.343000 1.120100
-0.331400 1.100100
-0.319800 1.036000
-0.308200 1.032800
-0.296700 1.054800
-0.285100 1.081900
-0.273500 1.114200
-0.261900 1.151700
-0.250300 1.194200
-0.238800 1.214300
-0.227200 1.228800
-0.215600 1.242000
-0.204000 1.254100
-0.192400 1.265900
-0.180900 1.277500
-0.169300 1.303600
-0.157700 1.316200
-0.146100 1.328700
-0.134500 1.358700
-0.123000 1.372900
-0.111400 1.386700
-0.099800 1.401200
-0.088200 1.419800
-0.076600 1.443400
-0.065100 1.476400
-0.053500 1.522800
-0.041900 1.555900
-0.030300 1.568400
-0.018700 1.575400
-0.007200 1.597900
0.004400 1.602100
0.016000 1.604500
0.027600 1.605100
0.039200 1.624200
0.050700 1.658100
0.062300 1.685900
0.073900 1.697800
0.085500 1.699200
0.097100 1.696100
0.108600 1.690000
0.120200 1.682300
0.131800 1.673000
0.143400 1.662100
0.155000 1.649700
0.166500 1.635300
0.178100 1.618200
0.189700 1.599300
0.201300 1.595500
0.212900 1.554300
0.224400 1.562000
0.236000 1.551100
0.247600 1.544100
0.259200 1.550200
0.270800 1.613700
0.282300 1.740400
0.293900 1.847600
0.305500 1.905300
0.317100 1.993100
0.328700 2.093000
0.340200 2.204800
0.351800 2.317600
0.363400 2.415900
0.375000 2.529000
0.386600 2.685100
0.398100 2.872200
0.409700 3.059200
0.421300 3.191700
0.432900 3.282400
0.444500 3.376600
0.456000 3.508700
0.467600 3.660900
0.479200 3.889400
0.490800 4.131100
0.502400 4.268100
0.513900 4.405400
0.525500 4.659900
0.537100 4.727900
0.548700 4.618900
0.560300 4.479400
0.571800 4.243100
0.583400 3.983500
0.595000 3.886000
0.606600 3.690300
0.618200 3.511900
0.629700 3.376000
0.641300 3.085800
0.652900 2.771100
0.664500 2.531000
0.676100 2.365400
0.687600 2.233600
0.699200 2.117100
0.710800 2.049000
0.722400 1.981900
0.734000 1.917500
0.745500 1.866500
0.757100 1.832300
0.768700 1.808800
0.780300 1.794700
0.791900 1.797200
0.803400 1.817900
0.815000 1.860500
0.826600 1.889400
0.838200 1.980900
0.849800 2.102900
0.861300 2.195200
0.872900 2.387600
0.884500 2.381100
0.896100 2.137800
0.907700 1.871100
0.919200 1.817000
0.930800 1.701900
0.942400 1.668400
0.954000 1.639900
0.965600 1.613200
0.977100 1.588700
0.988700 1.571300
1.000300 1.569100
1.011900 1.573000
1.023500 1.578900
1.035000 1.591700
1.046600 1.662800
1.058200 1.804800
1.069800 1.868100
1.081400 1.953200
1.092900 2.058000
1.104500 2.189000
1.116100 2.335200
1.127700 2.457200
1.139300 2.599200
1.150800 2.717900
1.162400 2.892900
1.174000 2.997600
1.185600 3.119300
1.197200 3.215700
1.208700 3.422200
1.220300 3.619100
1.231900 3.759900
1.243500 4.088800
1.255100 4.612300
1.266600 5.417200
1.278200 6.549300
1.289800 8.072700
1.301400 9.454100
1.313000 8.449300
1.324500 8.232500
1.336100 7.199200
1.347700 5.977900
1.359300 5.351800
1.370900 4.781000
1.382400 4.602500
1.394000 4.497800
1.405600 4.444500
1.417200 4.432300
1.428800 4.636300
1.440300 4.352500
1.451900 5.011100
1.463500 5.563700
1.475100 5.804300
1.486700 6.010600
1.498200 6.251200
1.509800 6.544700
1.521400 6.918600
1.533000 7.661400
1.544600 7.326500
1.556100 7.264300
1.567700 7.436500
1.579300 7.649100
1.590900 7.549200
1.602500 8.010000
1.614000 8.210800
1.625600 8.376500
1.637200 8.417600
1.648800 7.705000
1.660400 6.620100
1.671900 5.547400
1.683500 5.327200
1.695100 4.880800
1.706700 4.770400
1.718300 4.578600
1.729800 4.609000
1.741400 4.768100
1.753000 4.899100
1.764600 5.311200
1.776200 5.720600
1.787700 5.497100
1.799300 5.312100
1.810900 5.025000
1.822500 4.928100
1.834100 4.677400
1.845600 4.555100
1.857200 4.416400
1.868800 4.330300
1.880400 4.196600
1.892000 4.177500
1.903500 4.173600
1.915100 4.181400
1.926700 4.217100
1.938300 4.280700
1.949900 4.381500
1.961400 4.526400
1.973000 4.690900
1.984600 4.866800
1.996200 5.050500
2.007800 5.256300
2.019300 5.675300
2.030900 6.026000
2.042500 6.050000
2.054100 6.327700
2.065700 6.389800
2.077200 6.472600
2.088800 6.136100
2.100400 5.807200
2.112000 5.674100
2.123600 5.569800
2.135100 5.489300
2.146700 5.478900
2.158300 5.506900
2.169900 5.641200
2.181500 5.787900
2.193000 5.733200
2.204600 5.714600
2.216200 5.808600
2.227800 6.249600
2.239400 6.993600
2.250900 7.462200
2.262500 7.914000
2.274100 8.349600
2.285700 8.387400
2.297300 8.650100
2.308800 9.154300
2.320400 8.785200
2.332000 8.965000
2.343600 8.984700
2.355200 9.629800
2.366700 10.319500
2.378300 10.586000
2.389900 10.831700
2.401500 11.159000
2.413100 10.395000
2.424600 9.594500
2.436200 8.966400
2.447800 8.348900
2.459400 7.506800
2.471000 7.049500
2.482500 6.969100
2.494100 6.976100
2.505700 7.097500
2.517300 7.233900
2.528900 7.489300
2.540400 8.025800
2.552000 8.883600
2.563600 10.619300
2.575200 12.126600
2.586800 12.727600
2.598300 13.155000
2.609900 13.884900
2.621500 13.344400
2.633100 13.129500
2.644700 12.669000
2.656200 11.948100
2.667800 11.876700
2.679400 12.230900
2.691000 13.023900
2.702600 13.177000
2.714100 13.356100
2.725700 13.908400
2.737300 15.049100
2.748900 15.810000
2.760500 16.734100
2.772000 16.536600
2.783600 15.889500
2.795200 16.547100
2.806800 14.995500
2.818400 14.363500
2.829900 14.589700
2.841500 14.158700
2.853100 12.861600
2.864700 11.502900
2.876300 11.185600
2.887800 11.608800
2.899400 12.334100
2.911000 12.626000
2.922600 13.163100
2.934200 14.232700
2.945700 13.836700
2.957300 12.781500
2.968900 11.426100
2.980500 10.658200
2.992100 9.827100
3.003600 10.748400
3.015200 9.823000
3.026800 8.910000
3.038400 8.864900
3.050000 9.142000
3.061500 9.949400
3.073100 10.703500
3.084700 10.037300
3.096300 9.444600
3.107900 9.087900
3.119400 8.637200
3.131000 8.002900
3.142600 7.364300
3.154200 6.912900
3.165800 6.857300
3.177300 7.082700
3.188900 6.916800
3.200500 7.017500
3.212100 8.590100
3.223700 9.800600
3.235200 9.766300
3.246800 9.606400
3.258400 9.327700
3.270000 8.891900
3.281600 8.141200
3.293100 6.322400
3.304700 6.280600
3.316300 8.135400
3.327900 10.689300
3.339500 12.651200
3.351000 13.536000
3.362600 15.259900
3.374200 14.726500
3.385800 13.476300
3.397400 10.011800
3.408900 7.358400
3.420500 5.999200
3.432100 5.127300
3.443700 4.751500
3.455300 5.300300
3.466800 5.925500
3.478400 7.086100
3.490000 8.318600
3.501600 9.230400
3.513200 9.761100
3.524700 9.595800
3.536300 9.601900
3.547900 9.623500
3.559500 9.621200
3.571100 9.214300
3.582600 9.750800
3.594200 8.488600
3.605800 7.864100
3.617400 8.021600
3.629000 8.277900
3.640500 8.823400
3.652100 9.123800
3.663700 9.011200
3.675300 9.095000
3.686900 9.590800
3.698400 9.986300
3.710000 10.797800
3.721600 11.548700
3.733200 12.547200
3.744800 10.265200
3.756300 9.764500
3.767900 9.769800
3.779500 10.102300
3.791100 10.458200
3.802700 9.764600
3.814200 9.354200
3.825800 9.234700
3.837400 9.073100
3.849000 9.676800
3.860600 10.557500
3.872100 11.833900
3.883700 12.485800
3.895300 12.886600
3.906900 12.127500
3.918500 11.844300
3.930000 11.754500
3.941600 11.511000
3.953200 10.743100
3.964800 9.917600
3.976400 9.226900
3.987900 9.481600
3.999500 10.197700
4.011100 10.825600
4.022700 11.673400
4.034300 12.361800
4.045800 13.624500
4.057400 11.641400
4.069000 11.117700
4.080600 11.051400
4.092200 10.881400
4.103700 10.664600
4.115300 10.807000
4.126900 10.915300
4.138500 10.929800
4.150100 11.212900
4.161600 11.558600
4.173200 11.662700
4.184800 12.247300
4.196400 13.143900
4.208000 13.309000
4.219500 13.351400
4.231100 13.330000
4.242700 13.168100
4.254300 11.745600
4.265900 11.108300
4.277400 11.133200
4.289000 12.146500
4.300600 13.169900
4.312200 13.349700
4.323800 12.986000
4.335300 13.326100
4.346900 13.106000
4.358500 13.300500
4.370100 13.476800
4.381700 13.256000
4.393200 13.218400
4.404800 12.899200
4.416400 12.634800
4.428000 12.284500
4.439600 11.963500
4.451100 11.733500
4.462700 11.449700
4.474300 11.249900
4.485900 11.120600
4.497500 11.112900
4.509000 11.112900
4.520600 11.031400
4.532200 10.813300
4.543800 10.763400
4.555400 10.780100
4.566900 10.340500
4.578500 9.715600
4.590100 9.789300
4.601700 9.887300
4.613300 10.169200
4.624800 11.600500
4.636400 10.850700
4.648000 10.999700
4.659600 8.967300
4.671200 7.995100
4.682700 7.075500
4.694300 6.457100
4.705900 5.955500
4.717500 5.620200
4.729100 5.175500
4.740600 5.117800
4.752200 5.311400
4.763800 5.556200
4.775400 5.970500
4.787000 6.379700
4.798500 6.644000
4.810100 6.785000
4.821700 7.055400
4.833300 7.153300
4.844900 7.450200
4.856400 7.912800
4.868000 8.284300
4.879600 8.607400
4.891200 8.567000
4.902800 8.953600
4.914300 8.701600
4.925900 8.370100
4.937500 7.876600
4.949100 7.216000
4.960600 6.814500
4.972200 6.677900
4.983800 6.530600
4.995400 6.422800
5.007000 6.438800
5.018500 6.501800
5.030100 6.910900
5.041700 6.809100
5.053300 6.702400
5.064900 6.663400
5.076400 6.371300
5.088000 6.235700
5.099600 6.369600
5.111200 6.203700
5.122800 6.332300
5.134300 6.429400
5.145900 6.854500
5.157500 6.461200
5.169100 6.584500
5.180700 6.758700
5.192200 6.935800
5.203800 7.127300
5.215400 7.455900
5.227000 7.939200
5.238600 8.482500
5.250100 9.088300
5.261700 9.253400
5.273300 9.722100
5.284900 9.657100
5.296500 10.120200
5.308000 10.829700
5.319600 10.963100
5.331200 11.082900
5.342800 11.367700
5.354400 11.516400
5.365900 11.483700
5.377500 11.603800
5.389100 11.249400
5.400700 11.042500
5.412300 10.851700
5.423800 10.766700
5.435400 10.945700
5.447000 11.247700
5.458600 11.684300
5.470200 12.248600
5.481700 12.747600
5.493300 13.000100
5.504900 13.161300
5.516500 12.693100
5.528100 12.671500
5.539600 12.371600
5.551200 12.648300
5.562800 12.418800
5.574400 12.575200
5.586000 13.221000
5.597500 14.181600
5.609100 14.142800
5.620700 13.418700
5.632300 11.985900
5.643900 12.382100
5.655400 12.923800
5.667000 14.923200
5.678600 16.164000
5.690200 16.757100
5.701800 15.380500
5.713300 14.177300
5.724900 14.040300
5.736500 14.319900
5.748100 14.343600
5.759700 13.574900
5.771200 13.112000
5.782800 12.512800
5.794400 12.191300
5.806000 11.793900
5.817600 10.962000
5.829100 11.313800
5.840700 11.347700
5.852300 11.315000
5.863900 11.244700
5.875500 10.657600
5.887000 10.663900
5.898600 11.123600
5.910200 13.582300
5.921800 15.437000
5.933400 14.324600
5.944900 12.363900
5.956500 11.553200
5.968100 11.136700
5.979700 11.789400
5.991300 10.808000
6.002800 11.943200
6.014400 13.462500
6.026000 15.357300
6.037600 15.487600
6.049200 15.656500
6.060700 14.265200
6.072300 12.895500
6.083900 11.779900
6.095500 10.733300
6.107100 10.734300
6.118600 11.843100
6.130200 13.563300
6.141800 15.529300
6.153400 15.276100
6.165000 14.075300
6.176500 13.023400
6.188100 12.440100
6.199700 12.580400
6.211300 13.621300
6.222900 13.907000
6.234400 13.478600
6.246000 12.562900
6.257600 11.186500
6.269200 10.465600
6.280800 10.143200
6.292300 9.653400
6.303900 9.214700
6.315500 8.989600
6.327100 8.913200
6.338700 8.962800
6.350200 9.109800
6.361800 9.509100
6.373400 9.620900
6.385000 9.480400
6.396600 9.487200
6.408100 9.651100
6.419700 10.104800
6.431300 10.472500
6.442900 10.817800
6.454500 11.463900
6.466000 12.645200
6.477600 13.446800
6.489200 13.230400
6.500800 12.669200
6.512400 11.947700
6.523900 11.197600
6.535500 10.643400
6.547100 10.599700
6.558700 10.478800
6.570300 10.186600
6.581800 11.528100
6.593400 12.284700
6.605000 11.237500
6.616600 10.792400
6.628200 10.747900
6.639700 10.803200
6.651300 11.037800
6.662900 10.898200
6.674500 10.432500
6.686100 10.231000
6.697600 10.195500
6.709200 10.380200
6.720800 9.372100
6.732400 9.064200
6.744000 8.850700
6.755500 8.450400
6.767100 8.518200
6.778700 8.552200
6.790300 8.663400
6.801900 9.161500
6.813400 9.630400
6.825000 9.259800
6.836600 8.811200
6.848200 8.426100
6.859800 8.180500
6.871300 8.023600
6.882900 8.155900
6.894500 8.845900
6.906100 8.422600
6.917700 8.113900
6.929200 7.968800
6.940800 7.841900
6.952400 7.518800
6.964000 7.741000
6.975600 9.312300
6.987100 9.329700
6.998700 9.009700
7.010300 7.851100
7.021900 8.246600
7.033500 8.834100
7.045000 8.873000
7.056600 7.784900
7.068200 8.888400
7.079800 7.766000
7.091400 6.768300
7.102900 6.515600
7.114500 6.354600
7.126100 6.262700
7.137700 6.217100
7.149300 6.200100
7.160800 6.224100
7.172400 6.229700
7.184000 6.309100
7.195600 6.369600
7.207200 6.499000
7.218700 6.607500
7.230300 6.618700
7.241900 6.636200
7.253500 6.629500
7.265100 6.583400
7.276600 6.568300
7.288200 6.601100
7.299800 6.673000
7.311400 6.727900
7.323000 6.714200
7.334500 6.687500
7.346100 6.647200
7.357700 6.614000
7.369300 6.569300
7.380900 6.523100
7.392400 6.487500
7.404000 6.449700
7.415600 6.444300
7.427200 6.487900
7.438800 6.536500
7.450300 6.605700
7.461900 6.737100
7.473500 6.865900
7.485100 7.050700
7.496700 7.125600
7.508200 6.603900
7.519800 6.436900
7.531400 6.280200
7.543000 6.196000
7.554600 6.000700
7.566100 5.922000
7.577700 5.972400
7.589300 5.995000
7.600900 5.898000
7.612500 5.896200
7.624000 5.792000
7.635600 5.836600
7.647200 5.870800
7.658800 5.983400
7.670400 6.106700
7.681900 6.035200
7.693500 5.842700
7.705100 5.449400
7.716700 4.825300
7.728300 4.272800
7.739800 4.062600
7.751400 4.062000
7.763000 4.077600
7.774600 4.127400
7.786200 4.233000
7.797700 4.427800
7.809300 4.539200
7.820900 4.543800
7.832500 4.490400
7.844100 4.271600
7.855600 4.148800
7.867200 3.994900
7.878800 3.999700
7.890400 4.058600
7.902000 4.087600
7.913500 4.094800
7.925100 4.086200
7.936700 4.102600
7.948300 4.151100
7.959900 4.232200
7.971400 4.277700
7.983000 4.244700
7.994600 4.234800
8.006200 4.244400
8.017800 4.269900
8.029300 4.266400
8.040900 4.261400
8.052500 4.368300
8.064100 4.095800
8.075700 4.099400
8.087200 4.070200
8.098800 4.016000
8.110400 4.014600
8.122000 4.025800
8.133600 4.019600
8.145100 3.992300
8.156700 3.973800
8.168300 3.959500
8.179900 3.962600
8.191500 4.021200
8.203000 4.111100
8.214600 4.508700
8.226200 4.481900
8.237800 4.426000
8.249400 4.419700
8.260900 4.354000
8.272500 4.298200
8.284100 4.207600
8.295700 4.062200
8.307300 3.709300
8.318800 3.371300
8.330400 3.048500
8.342000 2.887600
8.353600 2.667300
8.365200 2.442800
8.376700 2.230400
8.388300 1.885200
8.399900 1.581100
8.411500 1.327200
8.423100 1.128900
8.434600 0.968400
8.446200 0.845500
8.457800 0.764800
8.469400 0.704800
8.481000 0.656100
8.492500 0.617300
8.504100 0.584200
8.515700 0.556000
8.527300 0.535600
8.538900 0.522300
8.550400 0.562100
8.562000 0.562000
8.573600 0.565300
8.585200 0.566000
8.596800 0.565100
8.608300 0.567100
8.619900 0.570700
8.631500 0.573600
8.643100 0.568300
8.654700 0.561000
8.666200 0.554000
8.677800 0.547600
8.689400 0.541700
8.701000 0.521800
8.712600 0.703700
8.724100 0.852800
8.735700 0.969600
8.747300 1.091100
8.758900 1.213300
8.770500 1.294500
8.782000 1.326100
8.793600 1.298500
8.805200 1.412600
8.816800 1.151600
8.828400 1.008300
8.839900 0.969800
8.851500 0.961100
8.863100 0.952200
8.874700 0.944600
8.886300 0.938900
8.897800 0.936500
8.909400 0.937300
8.921000 0.941100
8.932600 0.946700
8.944200 0.952900
8.955700 0.958700
8.967300 0.964700
8.978900 0.971300
8.990500 1.013300
9.002100 1.022800
9.013600 1.038500
9.025200 1.060200
9.036800 1.093200
9.048400 1.141000
9.060000 1.176700
9.071500 1.202200
9.083100 1.232500
9.094700 1.272100
9.106300 1.321300
9.117900 1.370400
9.129400 1.364900
9.141000 1.381500
9.152600 1.397700
9.164200 1.436700
9.175800 1.467100
9.187300 1.498500
9.198900 1.530800
9.210500 1.563900
9.222100 1.598200
9.233700 1.634900
9.245200 1.692700
9.256800 1.739100
9.268400 1.792400
9.280000 1.887900
9.291600 1.974400
9.303100 2.071900
9.314700 2.177400
9.326300 2.289400
9.337900 2.405300
9.349500 2.579100
9.361000 2.690700
9.372600 2.803100
9.384200 2.955400
9.395800 3.150700
9.407400 3.425500
9.418900 4.043800
9.430500 4.125800
9.442100 4.476200
9.453700 4.815900
9.465300 5.121700
9.476800 5.368700
9.488400 5.679400
9.500000 5.909900
9.511600 6.114300
9.523200 6.322600
9.534700 6.279500
9.546300 6.009500
9.557900 5.813400
9.569500 5.592600
9.581100 5.376100
9.592600 5.153900
9.604200 4.919600
9.615800 4.695100
9.627400 4.523500
9.639000 4.319500
9.650500 4.089000
9.662100 3.853600
9.673700 3.663200
9.685300 3.513700
9.696900 3.445200
9.708400 3.395000
9.720000 3.354400
9.731600 3.317100
9.743200 3.286100
9.754800 3.289400
9.766300 3.285300
9.777900 3.289300
9.789500 3.306000
9.801100 3.318700
9.812700 3.333100
9.824200 3.350900
9.835800 3.383400
9.847400 3.395400
9.859000 3.411200
9.870600 3.426000
9.882100 3.432500
9.893700 3.427900
9.905300 3.455000
9.916900 3.459300
9.928500 3.381300
9.940000 3.273700
9.951600 3.282400
9.963200 3.236800
9.974800 3.175300
9.986400 3.147200
9.997900 3.199800
10.009500 3.148700
10.021100 3.042400
10.032700 2.921500
10.044300 2.831800
10.055800 2.764800
10.067400 2.714000
10.079000 2.682500
10.090600 2.669900
10.102200 2.672100
10.113700 2.680200
10.125300 2.693700
10.136900 2.712200
10.148500 2.734800
10.160100 2.761200
10.171600 2.788800
10.183200 2.816100
10.194800 2.837500
10.206400 2.852100
10.218000 2.859700
10.229500 2.936600
10.241100 3.071900
10.252700 3.081200
10.264300 3.063800
10.275900 3.057200
10.287400 3.204300
10.299000 3.026000
10.310600 2.999500
10.322200 2.972500
10.333800 2.930900
10.345300 2.879400
10.356900 2.852900
10.368500 2.817300
10.380100 2.819000
10.391700 2.766400
10.403200 2.720800
10.414800 2.681100
10.426400 2.649800
10.438000 2.643700
10.449600 2.615400
10.461100 2.584000
10.472700 2.551200
10.484300 2.514900
10.495900 2.490100
10.507500 2.482300
10.519000 2.476300
10.530600 2.467600
10.542200 2.468100
10.553800 2.706100
10.565400 2.329400
10.576900 2.261700
10.588500 2.251700
10.600100 2.243100
10.611700 2.243200
10.623300 2.254500
10.634800 2.273500
10.646400 2.297100
10.658000 2.325000
10.669600 2.277200
10.681200 2.300800
10.692700 2.328800
10.704300 2.361100
10.715900 2.397700
10.727500 2.438700
10.739100 2.484600
10.750600 2.316000
10.762200 2.310900
10.773800 2.306200
10.785400 2.302400
10.797000 2.301000
10.808500 2.301200
10.820100 2.302900
10.831700 2.314400
10.843300 2.278400
10.854900 2.208200
10.866400 2.129700
10.878000 2.076600
10.889600 2.066400
10.901200 2.066300
10.912800 2.085500
10.924300 2.132000
10.935900 2.193600
10.947500 2.216500
10.959100 2.185600
10.970700 2.150100
10.982200 2.112300
10.993800 2.075800
11.005400 2.051100
11.017000 2.038800
11.028600 2.037800
11.040100 2.041200
11.051700 2.047800
11.063300 2.052900
11.074900 2.014000
11.086500 1.954300
11.098000 1.907500
11.109600 1.874800
11.121200 1.830400
11.132800 1.813600
11.144400 1.721000
11.155900 1.618200
11.167500 1.551700
11.179100 1.489100
11.190700 1.487700
11.202300 1.491700
11.213800 1.496800
11.225400 1.503500
11.237000 1.511900
11.248600 1.522000
11.260200 1.534000
11.271700 1.547600
11.283300 1.563100
11.294900 1.580200
11.306500 1.598700
11.318100 1.618700
11.329600 1.643400
11.341200 1.702400
11.352800 1.714700
11.364400 1.741500
11.376000 1.776200
11.387500 1.808900
11.399100 1.841200
11.410700 1.874800
11.422300 1.909900
11.433900 1.946600
11.445400 1.985600
11.457000 2.041800
11.468600 2.077700
11.480200 2.113600
11.491800 2.150300
11.503300 2.187000
11.514900 2.233700
11.526500 2.283800
11.538100 2.332300
11.549700 2.386700
11.561200 2.439500
11.572800 2.448600
11.584400 2.440800
11.596000 2.445100
11.607600 2.478900
11.619100 2.530000
11.630700 2.601800
11.642300 2.680400
11.653900 2.779400
11.665500 2.897900
11.677000 2.954800
11.688600 2.998700
11.700200 3.016900
11.711800 3.021400
11.723400 2.998900
11.734900 2.917300
11.746500 2.866100
11.758100 2.855600
11.769700 2.891000
11.781300 2.939700
11.792800 3.017600
11.804400 3.121300
11.816000 3.236400
11.827600 3.310800
11.839200 3.376400
11.850700 3.442600
11.862300 3.519000
11.873900 3.569900
11.885500 3.629100
11.897100 3.703600
11.908600 3.742300
11.920200 3.670300
11.931800 3.608700
11.943400 3.540300
11.955000 3.469400
11.966500 3.389300
11.978100 3.302800
11.989700 3.224900
12.001300 3.191700
12.012900 3.079900
12.024400 2.922900
12.036000 2.764600
12.047600 2.654200
12.059200 2.569800
12.070800 2.492600
12.082300 2.424200
12.093900 2.370100
12.105500 2.324300
12.117100 2.270000
12.128700 2.203100
12.140200 2.144800
12.151800 2.133300
12.163400 2.129000
12.175000 2.156800
12.186600 2.244200
12.198100 2.388300
12.209700 2.497500
12.221300 2.575500
12.232900 2.649500
12.244500 2.720200
12.256000 2.780300
12.267600 2.827500
12.279200 2.948700
12.290800 2.981000
12.302400 3.008400
12.313900 3.033400
12.325500 3.056500
12.337100 3.079300
12.348700 3.097200
12.360300 3.121300
12.371800 3.138100
12.383400 3.154800
12.395000 3.173900
12.406600 3.191100
12.418200 3.212400
12.429700 3.220700
12.441300 3.176400
12.452900 3.164300
12.464500 3.146700
12.476100 3.122200
12.487600 3.099000
12.499200 3.100700
12.510800 3.115000
12.522400 3.137400
12.534000 3.160600
12.545500 3.183800
12.557100 3.208000
12.568700 3.234400
12.580300 3.262600
12.591900 3.372300
12.603400 3.319300
12.615000 3.305800
12.626600 3.322700
12.638200 3.191200
12.649800 3.145200
12.661300 3.118300
12.672900 3.082400
12.684500 3.015000
12.696100 2.978300
12.707700 2.967200
12.719200 2.961600
12.730800 2.967900
12.742400 2.976400
12.754000 2.978600
12.765600 3.004000
12.777100 3.014700
12.788700 3.010900
12.800300 3.002300
12.811900 3.013700
12.823500 3.042200
12.835000 3.264900
12.846600 3.428900
12.858200 3.436600
12.869800 3.506900
12.881400 3.560900
12.892900 3.586000
12.904500 3.694100
12.916100 3.583600
12.927700 3.515400
12.939300 3.448400
12.950800 3.391400
12.962400 3.350600
12.974000 3.298600
12.985600 3.254900
12.997200 3.214600
13.008700 3.167700
13.020300 3.113800
13.031900 3.077100
13.043500 3.031300
13.055100 2.990600
13.066600 2.957500
13.078200 2.930100
13.089800 2.916000
13.101400 2.891400
13.112900 2.878300
13.124500 2.853800
13.136100 2.831500
13.147700 2.811200
13.159300 2.781700
13.170800 2.744300
13.182400 2.700100
13.194000 2.665300
13.205600 2.639000
13.217200 2.616100
13.228700 2.595700
13.240300 2.580200
13.251900 2.581200
13.263500 2.597100
13.275100 2.640500
13.286600 2.696300
13.298200 2.681500
13.309800 2.687500
13.321400 2.714800
13.333000 2.758700
13.344500 2.801600
13.356100 2.836900
13.367700 2.860600
13.379300 2.881200
13.390900 2.850400
13.402400 2.833900
13.414000 2.806300
13.425600 2.769100
13.437200 2.727500
13.448800 2.697400
13.460300 2.670700
13.471900 2.677700
13.483500 2.678200
13.495100 2.685300
13.506700 2.723700
13.518200 2.697700
13.529800 2.658800
13.541400 2.642900
13.553000 2.604800
13.564600 2.572000
13.576100 3.535100
13.587700 2.484200
13.599300 2.410200
13.610900 2.342200
13.622500 2.278500
13.634000 2.292000
13.645600 2.213900
13.657200 2.165900
13.668800 2.124900
13.680400 2.090900
13.691900 2.084600
13.703500 2.077100
13.715100 2.073100
13.726700 2.078200
13.738300 2.084100
13.749800 2.098100
13.761400 2.121700
13.773000 2.050900
13.784600 2.008800
13.796200 1.984500
13.807700 1.982300
13.819300 1.996800
13.830900 2.015300
13.842500 2.038900
13.854100 2.046000
13.865600 2.040500
13.877200 2.060300
13.888800 2.105300
13.900400 2.140300
13.912000 2.180300
13.923500 2.304400
13.935100 2.430800
13.946700 2.355700
13.958300 2.330800
13.969900 2.315200
13.981400 2.308900
13.993000 2.317600
14.004600 2.377600
14.016200 2.427000
14.027800 2.515600
14.039300 2.446200
14.050900 2.415900
14.062500 2.268100
14.074100 2.204500
14.085700 2.217400
14.097200 2.293600
14.108800 2.291100
14.120400 2.273100
14.132000 2.234500
14.143600 2.228900
14.155100 2.238900
14.166700 2.262600
14.178300 2.229300
14.189900 2.274900
14.201500 2.376300
14.213000 2.502200
14.224600 2.598700
14.236200 2.649300
14.247800 2.649000
14.259400 2.635400
14.270900 2.682300
14.282500 2.703200
14.294100 2.738300
14.305700 2.802200
14.317300 2.895800
14.328800 3.031300
14.340400 3.095000
14.352000 3.162600
14.363600 3.226800
14.375200 3.274100
14.386700 3.325100
14.398300 3.395600
14.409900 3.413000
14.421500 3.446000
14.433100 3.544400
14.444600 3.593500
14.456200 3.596600
14.467800 3.540900
14.479400 3.385000
14.491000 3.321100
14.502500 3.262100
14.514100 3.198600
14.525700 3.130800
14.537300 3.059900
14.548900 2.991000
14.560400 2.909000
14.572000 2.823100
14.583600 2.746200
14.595200 2.685300
14.606800 2.631600
14.618300 2.585900
14.629900 2.534100
14.641500 2.636900
14.653100 2.610400
14.664700 2.626000
14.676200 2.647800
14.687800 2.675600
14.699400 2.721800
14.711000 2.757200
14.722600 2.791100
14.734100 2.824000
14.745700 2.844300
14.757300 2.902600
14.768900 3.075000
14.780500 3.090500
14.792000 3.105100
14.803600 3.112400
14.815200 3.112800
14.826800 3.126200
14.838400 3.153300
14.849900 3.190600
14.861500 3.720400
14.873100 3.939200
14.884700 3.584300
14.896300 3.583200
14.907800 3.883900
14.919400 3.793200
14.931000 3.885400
14.942600 3.985600
14.954200 3.860100
14.965700 3.564300
14.977300 3.420200
14.988900 3.277200
15.000500 3.095300
15.012100 3.014500
15.023600 2.962000
15.035200 2.939200
15.046800 2.924000
15.058400 2.901100
15.070000 2.876800
15.081500 2.864600
15.093100 2.862300
15.104700 2.862900
15.116300 2.910700
15.127900 2.937500
15.139400 2.980700
15.151000 3.049200
15.162600 3.126800
15.174200 3.225700
15.185800 3.331700
15.197300 3.451800
15.208900 3.460300
15.220500 3.459800
15.232100 3.471800
15.243700 3.386400
15.255200 3.380900
15.266800 3.389100
15.278400 3.385700
15.290000 3.355400
15.301600 3.326200
15.313100 3.287400
15.324700 3.259800
15.336300 3.245000
15.347900 3.236700
15.359500 3.233700
15.371000 3.237500
15.382600 3.243000
15.394200 3.263300
15.405800 3.326200
15.417400 3.377900
15.428900 3.420700
15.440500 3.458500
15.452100 3.530900
15.463700 3.611800
15.475300 3.701400
15.486800 3.795600
15.498400 3.890000
15.510000 3.972200
15.521600 4.083700
15.533200 4.116400
15.544700 4.158500
15.556300 4.126400
15.567900 4.147600
15.579500 4.127400
15.591100 4.128300
15.602600 4.134300
15.614200 4.118900
15.625800 4.108700
15.637400 4.064800
15.649000 3.995600
15.660500 3.917100
15.672100 3.842900
15.683700 3.770200
15.695300 3.704400
15.706900 3.599300
15.718400 3.401400
15.730000 3.336900
15.741600 3.284100
15.753200 3.253500
15.764800 3.251800
15.776300 3.257900
15.787900 3.256700
15.799500 3.258800
15.811100 3.255900
15.822700 3.252700
15.834200 3.320500
15.845800 3.389800
15.857400 3.418300
15.869000 3.404500
15.880600 3.399000
15.892100 3.385200
15.903700 3.363100
15.915300 3.320100
15.926900 3.286000
15.938500 3.290500
15.950000 3.337300
15.961600 3.279200
15.973200 3.253300
15.984800 3.212100
15.996400 3.162300
16.007900 3.115900
16.019500 3.056800
16.031100 2.993500
16.042700 2.932100
16.054300 2.866600
16.065800 2.801400
16.077400 2.760200
16.089000 2.722500
16.100600 2.680100
16.112200 2.650900
16.123700 2.637700
16.135300 2.737700
16.146900 2.668200
16.158500 2.681600
16.170100 2.702300
16.181600 2.733800
16.193200 2.774400
16.204800 2.824900
16.216400 2.892300
16.228000 3.267200
16.239500 3.103300
16.251100 3.201300
16.262700 3.228700
16.274300 3.295600
16.285900 3.409600
16.297400 3.459100
16.309000 3.495500
16.320600 3.509600
16.332200 3.529500
16.343800 3.539400
16.355300 3.559300
16.366900 3.560500
16.378500 3.558500
16.390100 3.557500
16.401700 3.551700
16.413200 3.543100
16.424800 3.522800
16.436400 3.492700
16.448000 3.462100
16.459600 3.434900
16.471100 3.408900
16.482700 3.384100
16.494300 3.363200
16.505900 3.342000
16.517500 3.315900
16.529000 3.316200
16.540600 3.324600
16.552200 3.396600
16.563800 3.428200
16.575400 3.467500
16.586900 3.512800
16.598500 3.558900
16.610100 3.618300
16.621700 3.708700
16.633300 3.929200
16.644800 3.978600
16.656400 4.117100
16.668000 4.297100
16.679600 4.424600
16.691200 4.520800
16.702700 4.613100
16.714300 4.682800
16.725900 4.799500
16.737500 4.892900
16.749100 5.043300
16.760600 5.137100
16.772200 5.230400
16.783800 5.177300
16.795400 5.077900
16.807000 4.939700
16.818500 4.539700
16.830100 4.388900
16.841700 4.242900
16.853300 4.157600
16.864900 4.103500
16.876400 4.045900
16.888000 3.988900
16.899600 3.941200
16.911200 3.899200
16.922800 3.831300
16.934300 3.774600
16.945900 3.718000
16.957500 3.686100
16.969100 3.660900
16.980700 3.532300
16.992200 3.491900
17.003800 3.472000
17.015400 3.439200
17.027000 3.390500
17.038600 3.359600
17.050100 3.331100
17.061700 3.309300
17.073300 3.289700
17.084900 3.268400
17.096500 3.248300
17.108000 3.264400
17.119600 3.211200
17.131200 3.173700
17.142800 3.166800
17.154400 3.175500
17.165900 3.205400
17.177500 3.248600
17.189100 3.341500
17.200700 3.443200
17.212300 3.547500
17.223800 3.536200
17.235400 3.594100
17.247000 3.657200
17.258600 3.726100
17.270200 3.806500
17.281700 3.885200
17.293300 4.000800
17.304900 4.076400
17.316500 4.140800
17.328100 4.137800
17.339600 4.061500
17.351200 3.990900
17.362800 3.972400
17.374400 4.010900
17.386000 4.089500
17.397500 4.043300
17.409100 4.033300
17.420700 4.110000
17.432300 4.299400
17.443900 4.582000
17.455400 5.012600
17.467000 4.955500
17.478600 4.551600
17.490200 4.492700
17.501800 4.423900
17.513300 4.372100
17.524900 4.250600
17.536500 4.088700
17.548100 3.937800
17.559700 3.775400
17.571200 3.531600
17.582800 3.373800
17.594400 3.206400
17.606000 3.039400
17.617600 2.899100
17.629100 2.784800
17.640700 2.692000
17.652300 2.619800
17.663900 2.572900
17.675500 2.564000
17.687000 2.576700
17.698600 2.607800
17.710200 2.739600
17.721800 2.869700
17.733400 2.948100
17.744900 3.052900
17.756500 3.177500
17.768100 3.280200
17.779700 3.383300
17.791300 3.534900
17.802800 3.827200
17.814400 4.081800
17.826000 4.277200
17.837600 4.393800
17.849200 4.642000
17.860700 4.733600
17.872300 4.808900
17.883900 5.015900
17.895500 4.640100
17.907100 4.349400
17.918600 4.026500
17.930200 3.676500
17.941800 3.333700
17.953400 2.939800
17.965000 2.579800
17.976500 2.314000
17.988100 2.093400
17.999700 1.908800
18.011300 1.753700
18.022900 1.621300
18.034400 1.498900
18.046000 1.386100
18.057600 1.290100
18.069200 1.214000
18.080800 1.147200
18.092300 1.099300
18.103900 1.152100
18.115500 1.157100
18.127100 1.157700
18.138700 1.097900
18.150200 1.020000
18.161800 0.987000
18.173400 0.954800
18.185000 0.922700
18.196600 0.890700
18.208100 0.858700
18.219700 0.826600
18.231300 0.793900
18.242900 0.760600
18.254500 0.727100
18.266000 0.693500
18.277600 0.660300
18.289200 0.636000
18.300800 0.612800
18.312400 0.590700
18.323900 0.564700
18.335500 0.525400
18.347100 0.480400
18.358700 0.432500
18.370300 0.376000
18.381800 0.317900
18.393400 0.263900
18.405000 0.213500
18.416600 0.166300
18.428200 0.132200
18.439700 0.113400
18.451300 0.097300
18.462900 0.082200
18.474500 0.067900
18.486100 0.054600
18.497600 0.042100
18.509200 0.030400
18.520800 0.019700
18.532400 0.009800
18.544000 0.003700
18.555500 0.001000
18.567100 0.000000
18.578700 0.000000
18.590300 0.000000
18.601900 0.000000
18.613400 0.000000
18.625000 0.000000
18.636600 0.000000
18.648200 0.000000
18.659800 0.000000
18.671300 0.000000
18.682900 0.000000
18.694500 0.000000
18.706100 0.000000
18.717700 0.000000
18.729200 0.000000
18.740800 0.000000
18.752400 0.000000
18.764000 0.000000
18.775600 0.000000
18.787100 0.000000
18.798700 0.000000
18.810300 0.000000
18.821900 0.000000
18.833500 0.000000
18.845000 0.000000
18.856600 0.000000
18.868200 0.000000
18.879800 0.000000
18.891400 0.000000
18.902900 0.000000
18.914500 0.000000
18.926100 0.000000
18.937700 0.000000
18.949300 0.000000
18.960800 0.000000
18.972400 0.000000
18.984000 0.000000
18.995600 0.000000
19.007200 0.000000
19.018700 0.000000
19.030300 0.000000
19.041900 0.000000
19.053500 0.000000
19.065100 0.000000
19.076600 0.000000
19.088200 0.000000
19.099800 0.000000
19.111400 0.000000
19.123000 0.000000
19.134500 0.000000
19.146100 0.000000
19.157700 0.000000
19.169300 0.000000
19.180900 0.000000
19.192400 0.000000
19.204000 0.000000
19.215600 0.000000
19.227200 0.000000
19.238800 0.000000
19.250300 0.000000
19.261900 0.000000
19.273500 0.000000
19.285100 0.000000
19.296700 0.000000
19.308200 0.000000
19.319800 0.000000
19.331400 0.000000
19.343000 0.000000
19.354600 0.000000
19.366100 0.000000
19.377700 0.000000
19.389300 0.000000
19.400900 0.000000
19.412500 0.000000
19.424000 0.000000
19.435600 0.000000
19.447200 0.000000
19.458800 0.000000
19.470400 0.000000
19.481900 0.000000
19.493500 0.000000
19.505100 0.000000
19.516700 0.000000
19.528300 0.000000
19.539800 0.000000
19.551400 0.000000
19.563000 0.000000
19.574600 0.000000
19.586200 0.000000
19.597700 0.000000
19.609300 0.000000
19.620900 0.000000
e
