set title 'mp-984614 - Density of States'
set xlabel 'Energy (eV)'
set ylabel 'DOS (states/eV)'
set grid
set xrange [-10:10]
set yrange [0:23.405]
set xzeroaxis lt -1
set terminal png size 800,600
set output 'mp-984614_dos_gnuplot.png'
plot '-' using 1:2 with lines title 'DOS'
-13.809100 0.000000
-13.785500 0.000000
-13.761900 0.000000
-13.738300 0.000000
-13.714700 0.000000
-13.691100 0.000000
-13.667600 0.000000
-13.644000 0.000000
-13.620400 0.000000
-13.596800 0.000000
-13.573200 0.000000
-13.549600 0.000000
-13.526000 0.000000
-13.502500 0.000000
-13.478900 0.000000
-13.455300 0.000000
-13.431700 0.000000
-13.408100 0.000000
-13.384500 0.000000
-13.360900 0.000000
-13.337400 0.000000
-13.313800 0.000000
-13.290200 0.000000
-13.266600 0.000000
-13.243000 0.000000
-13.219400 0.000000
-13.195800 0.000000
-13.172300 0.000000
-13.148700 0.000000
-13.125100 0.000000
-13.101500 0.000000
-13.077900 0.000000
-13.054300 0.000000
-13.030700 0.000000
-13.007200 0.000000
-12.983600 0.000000
-12.960000 0.000000
-12.936400 0.000000
-12.912800 0.000000
-12.889200 0.000000
-12.865600 0.000000
-12.842100 0.000000
-12.818500 0.000000
-12.794900 0.000000
-12.771300 0.000000
-12.747700 0.000000
-12.724100 0.000000
-12.700500 0.000000
-12.677000 0.000000
-12.653400 0.000000
-12.629800 0.000000
-12.606200 0.000000
-12.582600 0.000000
-12.559000 0.000000
-12.535400 0.000000
-12.511900 0.000000
-12.488300 0.000000
-12.464700 0.000000
-12.441100 0.000000
-12.417500 0.000000
-12.393900 0.000000
-12.370300 0.000000
-12.346800 0.000000
-12.323200 0.000000
-12.299600 0.000000
-12.276000 0.000000
-12.252400 0.000000
-12.228800 0.000000
-12.205200 0.000000
-12.181700 0.000000
-12.158100 0.000000
-12.134500 0.000000
-12.110900 0.000000
-12.087300 0.000000
-12.063700 0.000000
-12.040100 0.000000
-12.016600 0.000000
-11.993000 0.000000
-11.969400 0.000000
-11.945800 0.000000
-11.922200 0.000000
-11.898600 0.000000
-11.875000 0.000000
-11.851500 0.000000
-11.827900 0.000000
-11.804300 0.000000
-11.780700 0.000000
-11.757100 0.000000
-11.733500 0.000000
-11.709900 0.000000
-11.686400 0.000000
-11.662800 0.012800
-11.639200 0.964000
-11.615600 1.496100
-11.592000 2.204700
-11.568400 3.019000
-11.544800 4.620500
-11.521300 5.273000
-11.497700 6.067700
-11.474100 7.290600
-11.450500 9.751500
-11.426900 17.055900
-11.403300 13.637200
-11.379700 11.210000
-11.356200 0.000000
-11.332600 0.000000
-11.309000 0.000000
-11.285400 0.000000
-11.261800 0.000000
-11.238200 0.000000
-11.214600 0.000000
-11.191100 0.000000
-11.167500 0.000000
-11.143900 0.000000
-11.120300 0.000000
-11.096700 0.000000
-11.073100 0.000000
-11.049500 0.000000
-11.026000 0.000000
-11.002400 0.000000
-10.978800 0.000000
-10.955200 0.000000
-10.931600 0.000000
-10.908000 0.000000
-10.884400 0.000000
-10.860900 0.000000
-10.837300 0.000000
-10.813700 0.000000
-10.790100 0.000000
-10.766500 0.000000
-10.742900 0.000000
-10.719300 0.000000
-10.695700 0.000000
-10.672200 0.000000
-10.648600 0.000000
-10.625000 0.000000
-10.601400 0.000000
-10.577800 0.000000
-10.554200 0.000000
-10.530600 0.000000
-10.507100 0.000000
-10.483500 0.000000
-10.459900 0.000000
-10.436300 0.000000
-10.412700 0.000000
-10.389100 0.000000
-10.365500 0.000000
-10.342000 0.000000
-10.318400 0.000000
-10.294800 0.000000
-10.271200 0.000000
-10.247600 0.000000
-10.224000 0.000000
-10.200400 0.000000
-10.176900 0.000000
-10.153300 0.000000
-10.129700 0.000000
-10.106100 0.000000
-10.082500 0.000000
-10.058900 0.000000
-10.035300 0.000000
-10.011800 0.000000
-9.988200 0.000000
-9.964600 0.000000
-9.941000 0.000000
-9.917400 0.000000
-9.893800 0.000000
-9.870200 0.000000
-9.846700 0.000000
-9.823100 0.000000
-9.799500 0.000000
-9.775900 0.000000
-9.752300 0.000000
-9.728700 0.000000
-9.705100 0.000000
-9.681600 0.000000
-9.658000 0.000000
-9.634400 0.000000
-9.610800 0.000000
-9.587200 0.000000
-9.563600 0.000000
-9.540000 0.000000
-9.516500 0.000000
-9.492900 0.000000
-9.469300 0.000000
-9.445700 0.000000
-9.422100 0.000000
-9.398500 0.000000
-9.374900 0.000000
-9.351400 0.000000
-9.327800 0.000000
-9.304200 0.000000
-9.280600 0.000000
-9.257000 0.000000
-9.233400 0.000000
-9.209800 0.000000
-9.186300 0.000000
-9.162700 0.000000
-9.139100 0.000000
-9.115500 0.000000
-9.091900 0.000000
-9.068300 0.000000
-9.044700 0.000000
-9.021200 0.000000
-8.997600 0.000000
-8.974000 0.000000
-8.950400 0.000000
-8.926800 0.000000
-8.903200 0.000000
-8.879600 0.000000
-8.856100 0.000000
-8.832500 0.000000
-8.808900 0.000000
-8.785300 0.000000
-8.761700 0.000000
-8.738100 0.000000
-8.714500 0.000000
-8.691000 0.000000
-8.667400 0.000000
-8.643800 0.000000
-8.620200 0.000000
-8.596600 0.000000
-8.573000 0.000000
-8.549400 0.000000
-8.525900 0.000000
-8.502300 0.000000
-8.478700 0.000000
-8.455100 0.000000
-8.431500 0.000000
-8.407900 0.000000
-8.384300 0.000000
-8.360800 0.000000
-8.337200 0.000000
-8.313600 0.000000
-8.290000 0.000000
-8.266400 0.000000
-8.242800 0.000000
-8.219200 0.000000
-8.195700 0.000000
-8.172100 0.000000
-8.148500 0.000000
-8.124900 0.000000
-8.101300 0.000000
-8.077700 0.000000
-8.054100 0.000000
-8.030600 0.000000
-8.007000 0.000000
-7.983400 0.000000
-7.959800 0.000000
-7.936200 0.000000
-7.912600 0.000000
-7.889000 0.000000
-7.865500 0.000000
-7.841900 0.000000
-7.818300 0.000000
-7.794700 0.000000
-7.771100 0.000000
-7.747500 0.000000
-7.723900 0.000000
-7.700400 0.000000
-7.676800 0.000000
-7.653200 0.000000
-7.629600 0.000000
-7.606000 0.000000
-7.582400 0.000000
-7.558800 0.000000
-7.535300 0.000000
-7.511700 0.000000
-7.488100 0.000000
-7.464500 0.000000
-7.440900 0.000000
-7.417300 0.000000
-7.393700 0.000000
-7.370200 0.000000
-7.346600 0.000000
-7.323000 0.000000
-7.299400 0.000000
-7.275800 0.000000
-7.252200 0.000000
-7.228600 0.000000
-7.205100 0.000000
-7.181500 0.000000
-7.157900 0.000000
-7.134300 0.000000
-7.110700 0.000000
-7.087100 0.000000
-7.063500 0.000000
-7.040000 0.000000
-7.016400 0.000000
-6.992800 0.000000
-6.969200 0.000000
-6.945600 0.000000
-6.922000 0.000000
-6.898400 0.000000
-6.874900 0.000000
-6.851300 0.000000
-6.827700 0.000000
-6.804100 0.000000
-6.780500 0.000000
-6.756900 0.000000
-6.733300 0.000000
-6.709800 0.000000
-6.686200 0.000000
-6.662600 0.000000
-6.639000 0.000000
-6.615400 0.000000
-6.591800 0.000000
-6.568200 0.000000
-6.544700 0.000000
-6.521100 0.000000
-6.497500 0.000000
-6.473900 0.000000
-6.450300 0.000000
-6.426700 0.000000
-6.403100 0.000000
-6.379600 0.000000
-6.356000 0.000000
-6.332400 0.000000
-6.308800 0.000000
-6.285200 0.000000
-6.261600 0.000000
-6.238000 0.000000
-6.214500 0.000000
-6.190900 0.000000
-6.167300 0.000000
-6.143700 0.000000
-6.120100 0.000000
-6.096500 0.000000
-6.072900 0.000000
-6.049400 0.000000
-6.025800 0.000000
-6.002200 0.000000
-5.978600 0.000000
-5.955000 0.000000
-5.931400 0.000000
-5.907800 0.000000
-5.884200 0.000000
-5.860700 0.000000
-5.837100 0.000000
-5.813500 0.000000
-5.789900 0.000000
-5.766300 0.000000
-5.742700 0.000000
-5.719100 0.000000
-5.695600 0.000000
-5.672000 0.000000
-5.648400 0.000000
-5.624800 0.000000
-5.601200 0.000000
-5.577600 0.000000
-5.554000 0.000000
-5.530500 0.000000
-5.506900 0.000000
-5.483300 0.000000
-5.459700 0.000000
-5.436100 0.000000
-5.412500 0.000000
-5.388900 0.000000
-5.365400 0.000000
-5.341800 0.000000
-5.318200 0.000000
-5.294600 0.000000
-5.271000 0.000000
-5.247400 0.000000
-5.223800 0.000000
-5.200300 0.000000
-5.176700 0.000000
-5.153100 0.000000
-5.129500 0.000000
-5.105900 0.000000
-5.082300 0.000000
-5.058700 0.000000
-5.035200 0.000000
-5.011600 0.000000
-4.988000 0.000000
-4.964400 0.000000
-4.940800 0.000000
-4.917200 0.000000
-4.893600 0.000000
-4.870100 0.000000
-4.846500 0.000000
-4.822900 0.000000
-4.799300 0.000000
-4.775700 0.000000
-4.752100 0.000000
-4.728500 0.000000
-4.705000 0.000000
-4.681400 0.000000
-4.657800 0.000000
-4.634200 0.000000
-4.610600 0.000000
-4.587000 0.000000
-4.563400 0.000000
-4.539900 0.000000
-4.516300 0.000000
-4.492700 0.000000
-4.469100 0.000000
-4.445500 0.000000
-4.421900 0.000000
-4.398300 0.000000
-4.374800 0.000000
-4.351200 0.000000
-4.327600 0.000000
-4.304000 0.000000
-4.280400 0.000000
-4.256800 0.000000
-4.233200 0.000000
-4.209700 0.000000
-4.186100 0.000000
-4.162500 0.000000
-4.138900 0.000000
-4.115300 0.000000
-4.091700 0.000000
-4.068100 0.000000
-4.044600 0.000000
-4.021000 0.000000
-3.997400 0.000000
-3.973800 0.000000
-3.950200 0.000000
-3.926600 0.000000
-3.903000 0.000000
-3.879500 0.000000
-3.855900 0.000000
-3.832300 0.000000
-3.808700 0.000000
-3.785100 0.000000
-3.761500 0.000000
-3.737900 0.000000
-3.714400 0.000000
-3.690800 0.000000
-3.667200 0.000000
-3.643600 0.000000
-3.620000 0.000000
-3.596400 0.000000
-3.572800 0.000000
-3.549300 0.000000
-3.525700 0.000000
-3.502100 0.000000
-3.478500 0.000000
-3.454900 0.000000
-3.431300 0.000000
-3.407700 0.000000
-3.384200 0.000000
-3.360600 0.000000
-3.337000 0.000000
-3.313400 0.000000
-3.289800 0.000000
-3.266200 0.000000
-3.242600 0.000000
-3.219100 0.000000
-3.195500 0.000000
-3.171900 0.000000
-3.148300 0.000000
-3.124700 0.000000
-3.101100 0.000000
-3.077500 0.000000
-3.054000 0.000000
-3.030400 0.000000
-3.006800 0.000000
-2.983200 0.000000
-2.959600 0.000000
-2.936000 0.000000
-2.912400 0.020300
-2.888900 0.089300
-2.865300 0.183200
-2.841700 0.263100
-2.818100 0.271100
-2.794500 0.296400
-2.770900 0.335400
-2.747300 0.378600
-2.723800 0.416400
-2.700200 0.462400
-2.676600 0.872300
-2.653000 1.452500
-2.629400 2.151600
-2.605800 2.492200
-2.582200 2.867900
-2.558700 2.910500
-2.535100 3.456300
-2.511500 3.955500
-2.487900 4.137700
-2.464300 4.285200
-2.440700 4.674700
-2.417100 4.656400
-2.393600 4.584200
-2.370000 4.121300
-2.346400 3.333800
-2.322800 2.919300
-2.299200 2.584100
-2.275600 2.304700
-2.252000 2.116700
-2.228500 1.958200
-2.204900 1.811400
-2.181300 1.682800
-2.157700 1.559800
-2.134100 1.451400
-2.110500 1.366400
-2.086900 1.312100
-2.063400 1.291700
-2.039800 1.269500
-2.016200 1.279500
-1.992600 1.293000
-1.969000 1.305200
-1.945400 1.347600
-1.921800 1.242200
-1.898300 1.253400
-1.874700 1.259100
-1.851100 1.186600
-1.827500 1.132400
-1.803900 1.125100
-1.780300 1.177100
-1.756700 1.261000
-1.733200 1.397100
-1.709600 1.582200
-1.686000 1.775500
-1.662400 1.955100
-1.638800 2.227100
-1.615200 2.476000
-1.591600 2.954700
-1.568100 3.464800
-1.544500 3.966600
-1.520900 4.286900
-1.497300 4.271400
-1.473700 4.067800
-1.450100 4.017200
-1.426500 3.792100
-1.403000 3.473900
-1.379400 3.766100
-1.355800 4.308200
-1.332200 4.777600
-1.308600 5.900300
-1.285000 5.517100
-1.261400 6.130300
-1.237900 6.012300
-1.214300 8.782700
-1.190700 8.174800
-1.167100 6.923700
-1.143500 6.196000
-1.119900 4.873000
-1.096300 4.395600
-1.072800 4.000500
-1.049200 3.746100
-1.025600 3.617200
-1.002000 3.752500
-0.978400 3.808700
-0.954800 3.518600
-0.931200 3.532800
-0.907600 3.537100
-0.884100 3.417000
-0.860500 2.872700
-0.836900 2.288500
-0.813300 1.930700
-0.789700 1.772200
-0.766100 1.703300
-0.742500 1.416100
-0.719000 1.297600
-0.695400 1.281700
-0.671800 1.599100
-0.648200 2.711900
-0.624600 3.356400
-0.601000 3.720300
-0.577400 3.736500
-0.553900 3.955600
-0.530300 4.588500
-0.506700 4.817300
-0.483100 6.008800
-0.459500 7.215600
-0.435900 8.666600
-0.412300 9.719000
-0.388800 10.780600
-0.365200 10.663200
-0.341600 17.012600
-0.318000 8.547800
-0.294400 7.470900
-0.270800 6.954400
-0.247200 6.581500
-0.223700 6.927500
-0.200100 8.434300
-0.176500 10.244100
-0.152900 8.905800
-0.129300 8.108400
-0.105700 7.585000
-0.082100 7.067600
-0.058600 6.986500
-0.035000 7.089500
-0.011400 7.640400
0.012200 7.317100
0.035800 6.620000
0.059400 6.569400
0.083000 6.355800
0.106500 5.612400
0.130100 5.336200
0.153700 5.277400
0.177300 4.687600
0.200900 4.125700
0.224500 3.843400
0.248100 4.004700
0.271600 4.671400
0.295200 5.422200
0.318800 5.639600
0.342400 6.861800
0.366000 8.333800
0.389600 9.402400
0.413200 10.087600
0.436700 9.175200
0.460300 8.901300
0.483900 9.669400
0.507500 10.852100
0.531100 14.957700
0.554700 15.650200
0.578300 14.217900
0.601800 9.240100
0.625400 7.147800
0.649000 9.280300
0.672600 12.664400
0.696200 13.821500
0.719800 11.227100
0.743400 11.578700
0.766900 12.357200
0.790500 9.896900
0.814100 5.131800
0.837700 5.064300
0.861300 4.635100
0.884900 4.650100
0.908500 4.294200
0.932000 4.808400
0.955600 6.546600
0.979200 12.330700
1.002800 8.062600
1.026400 6.752200
1.050000 6.771900
1.073600 6.276600
1.097100 5.783700
1.120700 6.253300
1.144300 7.162500
1.167900 7.717600
1.191500 9.204400
1.215100 12.823100
1.238700 12.172400
1.262200 8.663000
1.285800 8.088800
1.309400 10.696600
1.333000 9.037900
1.356600 10.207500
1.380200 13.032400
1.403800 15.842100
1.427300 13.712000
1.450900 12.344500
1.474500 12.809800
1.498100 11.906200
1.521700 12.798000
1.545300 12.584500
1.568900 13.065000
1.592400 11.858600
1.616000 10.511100
1.639600 7.843900
1.663200 7.229100
1.686800 8.791600
1.710400 9.727900
1.734000 8.941900
1.757500 8.274100
1.781100 8.010600
1.804700 7.742000
1.828300 6.855000
1.851900 7.331400
1.875500 7.113500
1.899100 6.875200
1.922600 8.071500
1.946200 8.575200
1.969800 9.222200
1.993400 10.407300
2.017000 8.131100
2.040600 7.194600
2.064200 7.495800
2.087700 8.043400
2.111300 7.869900
2.134900 6.884000
2.158500 5.861200
2.182100 6.141300
2.205700 6.059600
2.229300 6.675000
2.252800 9.212800
2.276400 10.990800
2.300000 10.492500
2.323600 21.277300
2.347200 10.626800
2.370800 9.097700
2.394400 8.571900
2.417900 7.749600
2.441500 6.925200
2.465100 6.431800
2.488700 6.151500
2.512300 5.935200
2.535900 6.253400
2.559500 6.155400
2.583000 6.075200
2.606600 7.109100
2.630200 5.882000
2.653800 5.096100
2.677400 5.328900
2.701000 5.869900
2.724600 4.922300
2.748100 4.918400
2.771700 6.547400
2.795300 9.633000
2.818900 10.036300
2.842500 8.005300
2.866100 6.394900
2.889700 4.596200
2.913200 3.882700
2.936800 3.617900
2.960400 3.506000
2.984000 4.394400
3.007600 4.280800
3.031200 3.861800
3.054800 3.517200
3.078300 3.020200
3.101900 2.787700
3.125500 2.351200
3.149100 1.853500
3.172700 1.682200
3.196300 1.532100
3.219900 1.396000
3.243400 1.206700
3.267000 1.173600
3.290600 1.158600
3.314200 1.134000
3.337800 1.148100
3.361400 1.210300
3.385000 1.352000
3.408500 1.786600
3.432100 2.000300
3.455700 2.102900
3.479300 2.186900
3.502900 2.217500
3.526500 2.253700
3.550100 2.200600
3.573600 2.245300
3.597200 2.284600
3.620800 2.287200
3.644400 2.285200
3.668000 2.277400
3.691600 2.039200
3.715200 1.892200
3.738700 1.872000
3.762300 1.835600
3.785900 1.805300
3.809500 1.798400
3.833100 1.838700
3.856700 1.884800
3.880300 1.917300
3.903800 1.925000
3.927400 1.928100
3.951000 1.916300
3.974600 1.955100
3.998200 1.710600
4.021800 1.695600
4.045400 1.525600
4.069000 1.440800
4.092500 1.371000
4.116100 1.321000
4.139700 1.299600
4.163300 1.118800
4.186900 1.001100
4.210500 0.880500
4.234100 0.746300
4.257600 0.644800
4.281200 0.593200
4.304800 0.599500
4.328400 0.579700
4.352000 0.571000
4.375600 0.587200
4.399200 0.582700
4.422700 0.572000
4.446300 0.557600
4.469900 0.539900
4.493500 0.537100
4.517100 0.553300
4.540700 0.522000
4.564300 0.515900
4.587800 0.508000
4.611400 0.542100
4.635000 0.570700
4.658600 0.585300
4.682200 0.585600
4.705800 0.643700
4.729400 0.621200
4.752900 0.629900
4.776500 0.608200
4.800100 0.605200
4.823700 0.610400
4.847300 0.615200
4.870900 0.674500
4.894500 0.768800
4.918000 0.868600
4.941600 0.970700
4.965200 1.075900
4.988800 1.175700
5.012400 1.247400
5.036000 1.359700
5.059600 1.516400
5.083100 1.778600
5.106700 2.086200
5.130300 2.223700
5.153900 2.197500
5.177500 2.196600
5.201100 2.191000
5.224700 2.160500
5.248200 2.087500
5.271800 2.021700
5.295400 1.964500
5.319000 1.937000
5.342600 1.935400
5.366200 1.958000
5.389800 1.990900
5.413300 2.118700
5.436900 2.117600
5.460500 2.137100
5.484100 2.158600
5.507700 2.209100
5.531300 2.254600
5.554900 2.294900
5.578400 2.316600
5.602000 2.276100
5.625600 2.274100
5.649200 1.925700
5.672800 1.426000
5.696400 1.179000
5.720000 1.021600
5.743500 0.825500
5.767100 0.719300
5.790700 0.643900
5.814300 0.554700
5.837900 0.452500
5.861500 0.421100
5.885100 0.397700
5.908600 0.374700
5.932200 0.351800
5.955800 0.329000
5.979400 0.419200
6.003000 0.842600
6.026600 0.761000
6.050200 0.599600
6.073700 0.542100
6.097300 0.540100
6.120900 0.553700
6.144500 0.567900
6.168100 0.620900
6.191700 0.762400
6.215300 1.010500
6.238800 1.253100
6.262400 1.538800
6.286000 1.885300
6.309600 2.721400
6.333200 3.483300
6.356800 3.138900
6.380400 3.196100
6.403900 2.947300
6.427500 2.900700
6.451100 2.828200
6.474700 2.722500
6.498300 2.660800
6.521900 2.600800
6.545500 2.386600
6.569000 2.184900
6.592600 1.991300
6.616200 1.802200
6.639800 1.452000
6.663400 1.352300
6.687000 1.361200
6.710600 1.366500
6.734100 1.282700
6.757700 1.265200
6.781300 1.240600
6.804900 1.223500
6.828500 1.210800
6.852100 1.202500
6.875700 1.194200
6.899200 1.186000
6.922800 1.268300
6.946400 1.220500
6.970000 1.159300
6.993600 1.111300
7.017200 1.100800
7.040800 1.098500
7.064300 1.096900
7.087900 1.097500
7.111500 1.144700
7.135100 1.148800
7.158700 1.129600
7.182300 1.094500
7.205900 1.064100
7.229400 1.040200
7.253000 1.018300
7.276600 1.031200
7.300200 1.056300
7.323800 1.356300
7.347400 1.265700
7.371000 1.210700
7.394500 1.150300
7.418100 1.049700
7.441700 0.901100
7.465300 0.752200
7.488900 0.652500
7.512500 0.613300
7.536100 0.595000
7.559600 0.593800
7.583200 0.593200
7.606800 0.590400
7.630400 0.549700
7.654000 0.550200
7.677600 0.551600
7.701200 0.554900
7.724700 0.580700
7.748300 0.636300
7.771900 0.707500
7.795500 0.706200
7.819100 0.706500
7.842700 0.720000
7.866300 0.734800
7.889800 0.702700
7.913400 0.694200
7.937000 0.709900
7.960600 0.729700
7.984200 0.752900
8.007800 0.777600
8.031400 0.803900
8.054900 0.832200
8.078500 0.862800
8.102100 0.895700
8.125700 0.930900
8.149300 0.955800
8.172900 0.993000
8.196500 1.037500
8.220000 1.104300
8.243600 1.171300
8.267200 1.232900
8.290800 1.287000
8.314400 1.334500
8.338000 1.375600
8.361600 1.404500
8.385100 1.419400
8.408700 1.400200
8.432300 1.399200
8.455900 1.433500
8.479500 1.465100
8.503100 1.497600
8.526700 1.482300
8.550200 1.457600
8.573800 1.435000
8.597400 1.402500
8.621000 1.362800
8.644600 1.335700
8.668200 1.311800
8.691800 1.287700
8.715300 1.262600
8.738900 1.236800
8.762500 1.210000
8.786100 1.181700
8.809700 1.156300
8.833300 1.163800
8.856900 1.156700
8.880400 1.123800
8.904000 1.094900
8.927600 1.084300
8.951200 1.074000
8.974800 1.074500
8.998400 1.100100
9.022000 1.125000
9.045600 1.159100
9.069100 1.178300
9.092700 1.179700
9.116300 1.151000
9.139900 1.123800
9.163500 1.035400
9.187100 1.094200
9.210700 1.015400
9.234200 1.019700
9.257800 0.892200
9.281400 0.850300
9.305000 0.826000
9.328600 0.820400
9.352200 0.835400
9.375800 0.856200
9.399300 0.872800
9.422900 0.887900
9.446500 0.909500
9.470100 0.935200
9.493700 0.952300
9.517300 0.982100
9.540900 1.017000
9.564400 1.067700
9.588000 1.149900
9.611600 1.279600
9.635200 1.503600
9.658800 1.710800
9.682400 1.892000
9.706000 2.004300
9.729500 2.108700
9.753100 2.195700
9.776700 2.292200
9.800300 2.382800
9.823900 2.452400
9.847500 2.503800
9.871100 2.563000
9.894600 2.551000
9.918200 2.466100
9.941800 2.439300
9.965400 2.430100
9.989000 2.416000
10.012600 2.445100
10.036200 2.353400
10.059700 2.287300
10.083300 2.235800
10.106900 2.229200
10.130500 2.115300
10.154100 2.077100
10.177700 1.936200
10.201300 1.698100
10.224800 1.479300
10.248400 1.262500
10.272000 1.162200
10.295600 1.149700
10.319200 1.179200
10.342800 1.270100
10.366400 1.320400
10.389900 1.325000
10.413500 1.372200
10.437100 1.543600
10.460700 1.862600
10.484300 2.200100
10.507900 2.465700
10.531500 2.644400
10.555000 2.811800
10.578600 2.541000
10.602200 2.502800
10.625800 2.479300
10.649400 2.475600
10.673000 2.716100
10.696600 2.928500
10.720100 3.046800
10.743700 2.772000
10.767300 2.512600
10.790900 2.435800
10.814500 2.560200
10.838100 2.519800
10.861700 2.602500
10.885200 2.608900
10.908800 2.513500
10.932400 2.405900
10.956000 2.325100
10.979600 2.231300
11.003200 2.062300
11.026800 1.888800
11.050300 1.784000
11.073900 1.723400
11.097500 1.713000
11.121100 1.707000
11.144700 1.698200
11.168300 1.687100
11.191900 1.674300
11.215400 1.661600
11.239000 1.646700
11.262600 1.640000
11.286200 1.644800
11.309800 1.656100
11.333400 1.672300
11.357000 1.693300
11.380500 1.701100
11.404100 1.707000
11.427700 1.718700
11.451300 1.728100
11.474900 1.740000
11.498500 1.755000
11.522100 1.774900
11.545600 1.798500
11.569200 1.826800
11.592800 1.865300
11.616400 1.907600
11.640000 1.989600
11.663600 2.087400
11.687200 2.172700
11.710700 2.256800
11.734300 2.367000
11.757900 2.374500
11.781500 2.362000
11.805100 2.331800
11.828700 2.278300
11.852300 2.273300
11.875800 2.095300
11.899400 1.982000
11.923000 1.895000
11.946600 1.827900
11.970200 1.764100
11.993800 1.690600
12.017400 1.615800
12.040900 1.541000
12.064500 1.467800
12.088100 1.400100
12.111700 1.321700
12.135300 1.242300
12.158900 1.132800
12.182500 1.043900
12.206000 0.974400
12.229600 0.926300
12.253200 0.902300
12.276800 0.892500
12.300400 0.897000
12.324000 0.919300
12.347600 0.937800
12.371100 0.958300
12.394700 0.990500
12.418300 1.015100
12.441900 1.062900
12.465500 1.167100
12.489100 1.163200
12.512700 1.148700
12.536200 1.128500
12.559800 1.110000
12.583400 1.062300
12.607000 1.017900
12.630600 1.006000
12.654200 0.994100
12.677800 0.982100
12.701300 0.969500
12.724900 0.956400
12.748500 0.943000
12.772100 0.930300
12.795700 0.919000
12.819300 0.946600
12.842900 0.946500
12.866400 0.874900
12.890000 0.840000
12.913600 0.842900
12.937200 0.829700
12.960800 0.798900
12.984400 0.770100
13.008000 0.756000
13.031500 0.763800
13.055100 0.787900
13.078700 0.832900
13.102300 0.892600
13.125900 0.967300
13.149500 1.050200
13.173100 1.135100
13.196600 1.224200
13.220200 1.322300
13.243800 1.456900
13.267400 1.686000
13.291000 1.817900
13.314600 1.890900
13.338200 1.952700
13.361700 1.986800
13.385300 1.988900
13.408900 1.979400
13.432500 1.972900
13.456100 1.964200
13.479700 1.961300
13.503300 1.953600
13.526800 1.942100
13.550400 1.935900
13.574000 1.932600
13.597600 1.940700
13.621200 1.976700
13.644800 2.040500
13.668400 2.075400
13.691900 2.128700
13.715500 2.172100
13.739100 2.155600
13.762700 2.174400
13.786300 2.205100
13.809900 2.261500
13.833500 2.336800
13.857100 2.379200
13.880600 2.441300
13.904200 2.532000
13.927800 2.393600
13.951400 2.318100
13.975000 2.302800
13.998600 2.309300
14.022200 2.323700
14.045700 2.331200
14.069300 2.337000
14.092900 2.385400
14.116500 2.334900
14.140100 2.185600
14.163700 2.082400
14.187300 2.003100
14.210800 1.932500
14.234400 1.906500
14.258000 1.882200
14.281600 1.856400
14.305200 1.831500
14.328800 1.807800
14.352400 1.787000
14.375900 1.770100
14.399500 1.757700
14.423100 1.753300
14.446700 1.742700
14.470300 1.768300
14.493900 1.802800
14.517500 1.849100
14.541000 1.822800
14.564600 1.810000
14.588200 1.811400
14.611800 1.821600
14.635400 1.711700
14.659000 1.702400
14.682600 1.694300
14.706100 1.689000
14.729700 1.681200
14.753300 1.680600
14.776900 1.713300
14.800500 1.660700
14.824100 1.627000
14.847700 1.597300
14.871200 1.571600
14.894800 1.531300
14.918400 1.518200
14.942000 1.477600
14.965600 1.454300
14.989200 1.431100
15.012800 1.406200
15.036300 1.387800
15.059900 1.380000
15.083500 1.376800
15.107100 1.371500
15.130700 1.361000
15.154300 1.354200
15.177900 1.340700
15.201400 1.331700
15.225000 1.335200
15.248600 1.368700
15.272200 1.390500
15.295800 1.395800
15.319400 1.403400
15.343000 1.416800
15.366500 1.443000
15.390100 1.473000
15.413700 1.502000
15.437300 1.524100
15.460900 1.557800
15.484500 1.587400
15.508100 1.620800
15.531600 1.660200
15.555200 1.707300
15.578800 1.764300
15.602400 1.832200
15.626000 1.943700
15.649600 1.970600
15.673200 1.987300
15.696700 2.039800
15.720300 2.103300
15.743900 2.188300
15.767500 2.301900
15.791100 2.331900
15.814700 2.358800
15.838300 2.411600
15.861800 2.476300
15.885400 2.669500
15.909000 2.701500
15.932600 2.644700
15.956200 2.569300
15.979800 2.458500
16.003400 2.341400
16.026900 2.257200
16.050500 2.220400
16.074100 2.393100
16.097700 2.159300
16.121300 2.123600
16.144900 2.104100
16.168500 2.062300
16.192000 2.067800
16.215600 2.056900
16.239200 2.028500
16.262800 2.025400
16.286400 2.021100
16.310000 1.960300
16.333600 1.901500
16.357100 1.859500
16.380700 1.833400
16.404300 1.819300
16.427900 1.812000
16.451500 1.811400
16.475100 1.819400
16.498700 1.836900
16.522200 1.925100
16.545800 1.925700
16.569400 1.988100
16.593000 2.086900
16.616600 2.161700
16.640200 2.257600
16.663800 2.378700
16.687300 2.474900
16.710900 2.445300
16.734500 2.454600
16.758100 2.449800
16.781700 2.427400
16.805300 2.339500
16.828900 2.247400
16.852400 2.199300
16.876000 2.167800
16.899600 2.339300
16.923200 2.219000
16.946800 1.854400
16.970400 1.824300
16.994000 1.831900
17.017500 1.889300
17.041100 1.908700
17.064700 2.023400
17.088300 2.177300
17.111900 2.394800
17.135500 2.108300
17.159100 2.029800
17.182600 2.055000
17.206200 2.093300
17.229800 2.155200
17.253400 2.180900
17.277000 2.210000
17.300600 2.247600
17.324200 2.247600
17.347700 2.253300
17.371300 2.272200
17.394900 2.264500
17.418500 2.226300
17.442100 2.178300
17.465700 2.123200
17.489300 2.067800
17.512800 2.008000
17.536400 1.950700
17.560000 1.918600
17.583600 1.794000
17.607200 1.712900
17.630800 1.677700
17.654400 1.670600
17.677900 1.691600
17.701500 1.713600
17.725100 1.703400
17.748700 1.680100
17.772300 1.651600
17.795900 1.639700
17.819500 1.640800
17.843000 1.651500
17.866600 1.672800
17.890200 1.708900
17.913800 1.696000
17.937400 1.681100
17.961000 1.667500
17.984600 1.655000
18.008100 1.644000
18.031700 1.634300
18.055300 1.626000
18.078900 1.648300
18.102500 1.665500
18.126100 1.677000
18.149700 1.676200
18.173200 1.678100
18.196800 1.695200
18.220400 1.841400
18.244000 2.069100
18.267600 1.858200
18.291200 1.873500
18.314800 1.992100
18.338300 2.144900
18.361900 2.232800
18.385500 2.310600
18.409100 2.442300
18.432700 2.549900
18.456300 2.518700
18.479900 2.596700
18.503400 2.688000
18.527000 2.780200
18.550600 2.873100
18.574200 2.975700
18.597800 3.108300
18.621400 3.866500
18.645000 4.457800
18.668500 5.119200
18.692100 4.725200
18.715700 4.322500
18.739300 4.199200
18.762900 4.111400
18.786500 4.181800
18.810100 4.071000
18.833700 3.832500
18.857200 3.597100
18.880800 3.236900
18.904400 2.920800
18.928000 2.671100
18.951600 2.434100
18.975200 2.452500
18.998800 2.409400
19.022300 2.419700
19.045900 2.445200
19.069500 2.557100
19.093100 2.503800
19.116700 2.641400
19.140300 2.931000
19.163900 2.853800
19.187400 2.866500
19.211000 2.881500
19.234600 2.947000
19.258200 3.009000
19.281800 3.053800
19.305400 3.263700
19.329000 3.305300
19.352500 3.181800
19.376100 2.997900
19.399700 2.898300
19.423300 2.849200
19.446900 2.842500
19.470500 2.877400
19.494100 3.022300
19.517600 2.954300
19.541200 2.775500
19.564800 2.699100
19.588400 2.639600
19.612000 2.523400
19.635600 2.406200
19.659200 2.327300
19.682700 2.280700
19.706300 2.347700
19.729900 2.398000
19.753500 2.468100
19.777100 2.562600
19.800700 2.636100
19.824300 2.682000
19.847800 2.831100
19.871400 3.034400
19.895000 3.299100
19.918600 3.472400
19.942200 3.912800
19.965800 3.661900
19.989400 3.667400
20.012900 3.627200
20.036500 3.571500
20.060100 3.538300
20.083700 3.475600
20.107300 3.393800
20.130900 3.359100
20.154500 3.096600
20.178000 3.014100
20.201600 2.960400
20.225200 2.909400
20.248800 2.812000
20.272400 3.045900
20.296000 2.642500
20.319600 2.571600
20.343100 2.539300
20.366700 2.527600
20.390300 2.606500
20.413900 2.689200
20.437500 2.735400
20.461100 2.794700
20.484700 2.899900
20.508200 2.958400
20.531800 2.975600
20.555400 3.008000
20.579000 3.023200
20.602600 3.044600
20.626200 2.961100
20.649800 2.957900
20.673300 2.984100
20.696900 2.972300
20.720500 3.002300
20.744100 3.032700
20.767700 3.090800
20.791300 3.150700
20.814900 3.209200
20.838400 3.284600
20.862000 3.587600
20.885600 3.290100
20.909200 3.106500
20.932800 3.045100
20.956400 3.044700
20.980000 3.090400
21.003500 3.140500
21.027100 3.203800
21.050700 3.334300
21.074300 3.267700
21.097900 3.206300
21.121500 3.207700
21.145100 3.212200
21.168600 3.223000
21.192200 3.205400
21.215800 3.156900
21.239400 3.055900
21.263000 3.185700
21.286600 3.360400
21.310200 3.375700
21.333700 3.308800
21.357300 3.292300
21.380900 3.239900
21.404500 3.147600
21.428100 3.013600
21.451700 2.817100
21.475300 2.640600
21.498800 2.442400
21.522400 2.424300
21.546000 2.310400
21.569600 2.370500
21.593200 2.393000
21.616800 2.390900
21.640400 2.413100
21.663900 2.426300
21.687500 2.435200
21.711100 2.504100
21.734700 2.408900
21.758300 2.356200
21.781900 2.397600
21.805500 2.435500
21.829000 2.482400
21.852600 2.520900
21.876200 2.556600
21.899800 2.568000
21.923400 2.567900
21.947000 2.601200
21.970600 2.590700
21.994100 2.613500
22.017700 2.708300
22.041300 2.945700
22.064900 3.015600
22.088500 3.097600
22.112100 3.130700
22.135700 3.149200
22.159200 3.145900
22.182800 3.024100
22.206400 2.844600
22.230000 2.832900
22.253600 2.847000
22.277200 2.893700
22.300800 3.137500
22.324300 2.988700
22.347900 2.977000
22.371500 2.979700
22.395100 2.994700
22.418700 3.065600
22.442300 3.161000
22.465900 3.274700
22.489400 3.263900
22.513000 3.130900
22.536600 3.055200
22.560200 3.030300
22.583800 2.954800
22.607400 2.873600
22.631000 2.817500
22.654500 2.741300
22.678100 2.665400
22.701700 2.686200
22.725300 2.678400
22.748900 2.686400
22.772500 2.648100
22.796100 2.705400
22.819600 2.760100
22.843200 2.796600
22.866800 2.856700
22.890400 3.172700
22.914000 3.515600
22.937600 3.568500
22.961200 3.488900
22.984700 3.383400
23.008300 3.221500
23.031900 3.104200
23.055500 3.080100
23.079100 3.040000
23.102700 2.765600
23.126300 2.717500
23.149800 2.704100
23.173400 2.688300
23.197000 2.733200
23.220600 2.602200
23.244200 2.469800
23.267800 2.357700
23.291400 2.338000
23.314900 2.419200
23.338500 2.454900
23.362100 2.407800
23.385700 2.398400
23.409300 2.544000
23.432900 2.645700
23.456500 2.546500
23.480000 2.532500
23.503600 2.339600
23.527200 2.251600
23.550800 2.216300
23.574400 2.196700
23.598000 2.179500
23.621600 2.153900
23.645100 2.116100
23.668700 2.096300
23.692300 2.088600
23.715900 2.083000
23.739500 2.083000
23.763100 2.096400
23.786700 2.080100
23.810300 2.062300
23.833800 2.071100
23.857400 2.066700
23.881000 2.061200
23.904600 2.050000
23.928200 2.035700
23.951800 2.005700
23.975400 2.035800
23.998900 2.033900
24.022500 2.082100
24.046100 2.047000
24.069700 1.935200
24.093300 1.848400
24.116900 1.774100
24.140500 1.721000
24.164000 1.686400
24.187600 1.662900
24.211200 1.660700
24.234800 1.674100
24.258400 1.694100
24.282000 1.727000
24.305600 1.775900
24.329100 1.824900
24.352700 1.891300
24.376300 1.989000
24.399900 2.079000
24.423500 2.114900
24.447100 2.165500
24.470700 2.239300
24.494200 2.323000
24.517800 2.439100
24.541400 2.774200
24.565000 3.003800
24.588600 3.050000
24.612200 3.116900
24.635800 3.028000
24.659300 2.943300
24.682900 2.765600
24.706500 2.773200
24.730100 2.663500
24.753700 2.646800
24.777300 2.522800
24.800900 2.420200
24.824400 2.399300
24.848000 2.354300
24.871600 2.258400
24.895200 2.210000
24.918800 2.245600
24.942400 1.979500
24.966000 1.809700
24.989500 1.705700
25.013100 1.620900
25.036700 1.613500
25.060300 1.660100
25.083900 1.702900
25.107500 1.727400
25.131100 1.629600
25.154600 1.595900
25.178200 1.698400
25.201800 1.654700
25.225400 1.679500
25.249000 1.731800
25.272600 1.815800
25.296200 1.911100
25.319700 2.046000
25.343300 2.186600
25.366900 2.386700
25.390500 2.632900
25.414100 2.791600
25.437700 2.903800
25.461300 2.967600
25.484800 2.968200
25.508400 2.946100
25.532000 2.914400
25.555600 2.889100
25.579200 2.846900
25.602800 2.769400
25.626400 2.715000
25.649900 2.704300
25.673500 2.731700
25.697100 2.739700
25.720700 2.757900
25.744300 2.722000
25.767900 2.649700
25.791500 2.617100
25.815000 2.586300
25.838600 2.680400
25.862200 2.846500
25.885800 3.052000
25.909400 3.066600
25.933000 3.068900
25.956600 3.207500
25.980100 3.188500
26.003700 3.148000
26.027300 3.021000
26.050900 2.996100
26.074500 2.968800
26.098100 2.986700
26.121700 3.043100
26.145200 3.116900
26.168800 3.219300
26.192400 3.399800
26.216000 3.306600
26.239600 3.264900
26.263200 3.145100
26.286800 3.314200
26.310300 3.013700
26.333900 3.025400
26.357500 3.155800
26.381100 2.837900
26.404700 2.893500
26.428300 3.272300
26.451900 3.254400
26.475400 3.292800
26.499000 3.271200
26.522600 3.317800
26.546200 3.404300
26.569800 3.472300
26.593400 3.549300
26.617000 3.716900
26.640500 3.030000
26.664100 2.484500
26.687700 2.343000
26.711300 2.235100
26.734900 2.172200
26.758500 2.159800
26.782100 2.211400
26.805600 2.371100
26.829200 2.518100
26.852800 2.585100
26.876400 2.640400
26.900000 2.725100
26.923600 2.857500
26.947200 3.042800
26.970700 3.113500
26.994300 3.127600
27.017900 3.231900
27.041500 3.422900
27.065100 3.472800
27.088700 3.523300
27.112300 3.530900
27.135800 3.486400
27.159400 3.476900
27.183000 3.536400
27.206600 3.418300
27.230200 3.355600
27.253800 3.301400
27.277400 3.273800
27.300900 3.344300
27.324500 3.338200
27.348100 3.280900
27.371700 3.270500
27.395300 3.275900
27.418900 3.144100
27.442500 2.863100
27.466000 2.701500
27.489600 2.567400
27.513200 2.465800
27.536800 2.436600
27.560400 2.484400
27.584000 2.695700
27.607600 3.023000
27.631100 3.526900
27.654700 3.368400
27.678300 3.410100
27.701900 3.411400
27.725500 3.502400
27.749100 3.560900
27.772700 3.587800
27.796200 3.573700
27.819800 3.543500
27.843400 3.548300
27.867000 3.539800
27.890600 3.541300
27.914200 3.603800
27.937800 3.526500
27.961300 3.443200
27.984900 3.365300
28.008500 3.347800
28.032100 3.335100
28.055700 3.263900
28.079300 3.131500
28.102900 2.805300
28.126400 2.612200
28.150000 2.481100
28.173600 2.366900
28.197200 2.312600
28.220800 2.311500
28.244400 2.373400
28.268000 2.478700
28.291500 2.581600
28.315100 2.649700
28.338700 3.000800
28.362300 3.176200
28.385900 3.391100
28.409500 3.724600
28.433100 4.046600
28.456600 4.393700
28.480200 4.496500
28.503800 4.269300
28.527400 4.048400
28.551000 4.119700
28.574600 3.988600
28.598200 3.893800
28.621700 3.887800
28.645300 3.774500
28.668900 3.409400
28.692500 3.118900
28.716100 2.938900
28.739700 2.883000
28.763300 2.610800
28.786900 2.552000
28.810400 2.532500
28.834000 2.469300
28.857600 2.537500
28.881200 2.718700
28.904800 2.827100
28.928400 2.986700
28.952000 3.066900
28.975500 3.230800
28.999100 3.334000
29.022700 3.341700
29.046300 3.297100
29.069900 3.315300
29.093500 3.388300
29.117100 3.459500
29.140600 3.569200
29.164200 3.591200
29.187800 3.424900
29.211400 3.406400
29.235000 3.271300
29.258600 3.143700
29.282200 3.044400
29.305700 2.922200
29.329300 2.834800
29.352900 2.780600
29.376500 2.779000
29.400100 2.781000
29.423700 2.809300
29.447300 2.866600
29.470800 2.902100
29.494400 2.886500
29.518000 2.911900
29.541600 2.994900
29.565200 2.929100
29.588800 2.961100
29.612400 3.211200
29.635900 3.112900
29.659500 2.940700
29.683100 2.956700
29.706700 2.986600
29.730300 3.025100
29.753900 3.045400
29.777500 2.966400
29.801000 2.929200
29.824600 2.870400
29.848200 2.800900
29.871800 2.740200
29.895400 2.647600
29.919000 2.497000
29.942600 2.432500
29.966100 2.045900
29.989700 1.697900
30.013300 1.497300
30.036900 1.356600
30.060500 1.263100
30.084100 1.177900
30.107700 1.096600
30.131200 1.018900
30.154800 0.942800
30.178400 0.860100
30.202000 0.816800
30.225600 0.794500
30.249200 0.761400
30.272800 0.713200
30.296300 0.649900
30.319900 0.560600
30.343500 0.498900
30.367100 0.473200
30.390700 0.469200
30.414300 0.468800
30.437900 0.479300
30.461400 0.485300
30.485000 0.478000
30.508600 0.461200
30.532200 0.435700
30.555800 0.400600
30.579400 0.371100
30.603000 0.329300
30.626500 0.285900
30.650100 0.255900
30.673700 0.227700
30.697300 0.202200
30.720900 0.179400
30.744500 0.159200
30.768100 0.141500
30.791600 0.124200
30.815200 0.117100
30.838800 0.111600
30.862400 0.107600
30.886000 0.104200
30.909600 0.100800
30.933200 0.097400
30.956700 0.093900
30.980300 0.090400
31.003900 0.086800
31.027500 0.083200
31.051100 0.080400
31.074700 0.082900
31.098300 0.091300
31.121800 0.102500
31.145400 0.119100
31.169000 0.153400
31.192600 0.137200
31.216200 0.020600
31.239800 0.000000
31.263400 0.000000
31.286900 0.000000
31.310500 0.000000
31.334100 0.000000
31.357700 0.000000
31.381300 0.000000
31.404900 0.000000
31.428500 0.000000
31.452000 0.000000
31.475600 0.000000
31.499200 0.000000
31.522800 0.000000
31.546400 0.000000
31.570000 0.000000
31.593600 0.000000
31.617100 0.000000
31.640700 0.000000
31.664300 0.000000
31.687900 0.000000
31.711500 0.000000
31.735100 0.000000
31.758700 0.000000
31.782200 0.000000
31.805800 0.000000
31.829400 0.000000
31.853000 0.000000
31.876600 0.000000
31.900200 0.000000
31.923800 0.000000
31.947300 0.000000
31.970900 0.000000
31.994500 0.000000
32.018100 0.000000
32.041700 0.000000
32.065300 0.000000
32.088900 0.000000
32.112400 0.000000
32.136000 0.000000
32.159600 0.000000
32.183200 0.000000
32.206800 0.000000
32.230400 0.000000
32.254000 0.000000
32.277500 0.000000
32.301100 0.000000
32.324700 0.000000
32.348300 0.000000
32.371900 0.000000
32.395500 0.000000
32.419100 0.000000
32.442600 0.000000
32.466200 0.000000
32.489800 0.000000
32.513400 0.000000
32.537000 0.000000
32.560600 0.000000
32.584200 0.000000
32.607700 0.000000
32.631300 0.000000
32.654900 0.000000
32.678500 0.000000
32.702100 0.000000
32.725700 0.000000
32.749300 0.000000
32.772800 0.000000
32.796400 0.000000
32.820000 0.000000
32.843600 0.000000
32.867200 0.000000
32.890800 0.000000
32.914400 0.000000
32.937900 0.000000
32.961500 0.000000
32.985100 0.000000
33.008700 0.000000
33.032300 0.000000
33.055900 0.000000
33.079500 0.000000
33.103000 0.000000
33.126600 0.000000
33.150200 0.000000
33.173800 0.000000
33.197400 0.000000
33.221000 0.000000
33.244600 0.000000
33.268100 0.000000
33.291700 0.000000
33.315300 0.000000
33.338900 0.000000
33.362500 0.000000
e
