set title 'mp-995193 - Density of States'
set xlabel 'Energy (eV)'
set ylabel 'DOS (states/eV)'
set grid
set xrange [-10:10]
set yrange [0:33.836]
set xzeroaxis lt -1
set terminal png size 800,600
set output 'mp-995193_dos_gnuplot.png'
plot '-' using 1:2 with lines title 'DOS'
-8.859900 0.000000
-8.844000 0.000000
-8.828000 0.000000
-8.812100 0.000000
-8.796200 0.000000
-8.780200 0.000000
-8.764300 0.000000
-8.748300 0.000000
-8.732400 0.000000
-8.716500 0.000000
-8.700500 0.000000
-8.684600 0.000000
-8.668600 0.000000
-8.652700 0.000000
-8.636800 0.000000
-8.620800 0.000000
-8.604900 0.000000
-8.588900 0.000000
-8.573000 0.000000
-8.557100 0.000000
-8.541100 0.000000
-8.525200 0.000000
-8.509200 0.000000
-8.493300 0.000000
-8.477400 0.000000
-8.461400 0.000000
-8.445500 0.000000
-8.429600 0.000000
-8.413600 0.000000
-8.397700 0.000000
-8.381700 0.000000
-8.365800 0.000000
-8.349900 0.000000
-8.333900 0.000000
-8.318000 0.000000
-8.302000 0.000000
-8.286100 0.000000
-8.270200 0.000000
-8.254200 0.000000
-8.238300 0.000000
-8.222300 0.000000
-8.206400 0.000000
-8.190500 0.000000
-8.174500 0.000000
-8.158600 0.000000
-8.142600 0.000000
-8.126700 0.000000
-8.110800 0.000000
-8.094800 0.000000
-8.078900 0.000000
-8.062900 0.000000
-8.047000 0.000000
-8.031100 0.000000
-8.015100 0.000000
-7.999200 0.000000
-7.983200 0.000000
-7.967300 0.000000
-7.951400 0.000000
-7.935400 0.000000
-7.919500 0.000000
-7.903500 0.000000
-7.887600 0.000000
-7.871700 0.000000
-7.855700 0.000000
-7.839800 0.000000
-7.823800 0.000000
-7.807900 0.000000
-7.792000 0.000000
-7.776000 0.000000
-7.760100 0.000000
-7.744100 0.000000
-7.728200 0.000000
-7.712300 0.000000
-7.696300 0.000000
-7.680400 0.000000
-7.664400 0.000000
-7.648500 0.000000
-7.632600 0.000000
-7.616600 0.000000
-7.600700 0.000000
-7.584700 0.000000
-7.568800 0.000000
-7.552900 0.000000
-7.536900 0.000000
-7.521000 0.000000
-7.505000 0.000000
-7.489100 0.000000
-7.473200 0.000000
-7.457200 0.000000
-7.441300 0.000000
-7.425300 0.000000
-7.409400 0.000100
-7.393500 0.017300
-7.377500 0.063700
-7.361600 0.134200
-7.345600 0.207300
-7.329700 0.280400
-7.313800 0.353500
-7.297800 0.426600
-7.281900 0.499700
-7.265900 0.572800
-7.250000 0.645900
-7.234100 0.718900
-7.218100 0.792000
-7.202200 0.865100
-7.186200 0.938200
-7.170300 0.883900
-7.154400 0.721900
-7.138400 0.550100
-7.122500 0.556800
-7.106500 0.563500
-7.090600 0.570200
-7.074700 0.576800
-7.058700 0.583500
-7.042800 0.590200
-7.026800 0.596800
-7.010900 0.603500
-6.995000 0.610200
-6.979000 0.616900
-6.963100 0.623500
-6.947100 0.630200
-6.931200 0.636900
-6.915300 0.643500
-6.899300 0.650200
-6.883400 0.656900
-6.867400 0.663600
-6.851500 0.670200
-6.835600 0.677500
-6.819600 0.691900
-6.803700 0.715400
-6.787700 0.747900
-6.771800 0.789400
-6.755900 0.839900
-6.739900 0.899500
-6.724000 0.967900
-6.708000 1.042100
-6.692100 1.115400
-6.676200 1.184900
-6.660200 1.254100
-6.644300 1.323400
-6.628300 1.392600
-6.612400 1.458300
-6.596500 1.460200
-6.580500 1.453900
-6.564600 1.439500
-6.548600 1.416900
-6.532700 1.386100
-6.516800 1.347200
-6.500800 1.300700
-6.484900 1.249400
-6.468900 1.241300
-6.453000 1.252000
-6.437100 1.262800
-6.421100 1.273500
-6.405200 1.284300
-6.389200 1.295100
-6.373300 1.305800
-6.357400 1.316600
-6.341400 1.327300
-6.325500 1.338100
-6.309500 1.348900
-6.293600 1.359600
-6.277700 1.370400
-6.261700 1.381100
-6.245800 1.391900
-6.229800 1.402600
-6.213900 1.413400
-6.198000 1.424200
-6.182000 1.434900
-6.166100 1.445700
-6.150100 1.455500
-6.134200 1.463900
-6.118300 1.470800
-6.102300 1.476200
-6.086400 1.480100
-6.070400 1.482600
-6.054500 1.483600
-6.038600 1.483100
-6.022600 1.481500
-6.006700 1.480000
-5.990700 1.478400
-5.974800 1.481600
-5.958900 1.492800
-5.942900 1.512200
-5.927000 1.540600
-5.911000 1.578100
-5.895100 1.624700
-5.879200 1.679700
-5.863200 1.736800
-5.847300 1.806700
-5.831300 1.892500
-5.815400 1.984200
-5.799500 2.075900
-5.783500 2.167500
-5.767600 2.258800
-5.751600 2.303800
-5.735700 2.331600
-5.719800 2.352400
-5.703800 2.366100
-5.687900 2.372700
-5.671900 2.372300
-5.656000 2.364800
-5.640100 2.350300
-5.624100 2.328700
-5.608200 2.314800
-5.592200 2.338900
-5.576300 2.363000
-5.560400 2.387100
-5.544400 2.597500
-5.528500 2.819800
-5.512500 2.937500
-5.496600 2.911300
-5.480700 2.885200
-5.464700 2.859100
-5.448800 2.833000
-5.432800 2.806800
-5.416900 2.780700
-5.401000 2.754600
-5.385000 2.728400
-5.369100 2.702300
-5.353100 2.676200
-5.337200 2.649700
-5.321300 2.623600
-5.305300 2.598300
-5.289400 2.573400
-5.273400 2.548700
-5.257500 2.524400
-5.241600 2.500400
-5.225600 2.476600
-5.209700 2.453300
-5.193700 2.430100
-5.177800 2.405800
-5.161900 2.380300
-5.145900 2.354600
-5.130000 2.328800
-5.114000 2.306200
-5.098100 2.325200
-5.082200 2.397800
-5.066200 2.499200
-5.050300 2.601800
-5.034300 2.713400
-5.018400 2.890200
-5.002500 3.060600
-4.986500 3.224500
-4.970600 3.381900
-4.954600 3.532900
-4.938700 4.168000
-4.922800 3.587700
-4.906800 2.283400
-4.890900 2.243600
-4.874900 2.203800
-4.859000 2.163900
-4.843100 2.124000
-4.827100 2.084000
-4.811200 2.043900
-4.795200 2.003800
-4.779300 1.963600
-4.763400 1.923400
-4.747400 1.883100
-4.731500 1.842700
-4.715500 1.802300
-4.699600 1.761800
-4.683700 1.721300
-4.667700 1.680700
-4.651800 1.640000
-4.635800 1.599300
-4.619900 1.564800
-4.604000 1.551200
-4.588000 1.559100
-4.572100 1.588600
-4.556100 1.639600
-4.540200 1.712200
-4.524300 1.806300
-4.508300 1.920600
-4.492400 2.051100
-4.476400 2.524100
-4.460500 2.387500
-4.444600 2.234100
-4.428600 2.063800
-4.412700 1.876600
-4.396700 1.672600
-4.380800 1.451800
-4.364900 1.020000
-4.348900 1.051100
-4.333000 1.077900
-4.317000 1.104800
-4.301100 1.131800
-4.285200 1.159000
-4.269200 1.186300
-4.253300 1.213700
-4.237300 1.241300
-4.221400 1.312000
-4.205500 1.408300
-4.189500 1.494900
-4.173600 1.571700
-4.157600 1.638800
-4.141700 1.696200
-4.125800 1.743900
-4.109800 1.781900
-4.093900 1.810100
-4.077900 1.828600
-4.062000 1.783600
-4.046100 1.713200
-4.030100 1.641900
-4.014200 1.569900
-3.998200 1.497000
-3.982300 1.423500
-3.966400 1.349100
-3.950400 1.274000
-3.934500 1.198100
-3.918500 1.121500
-3.902600 1.046300
-3.886700 1.002300
-3.870700 0.998300
-3.854800 1.034300
-3.838800 1.110400
-3.822900 1.226500
-3.807000 1.382700
-3.791000 1.939900
-3.775100 1.833100
-3.759100 1.651900
-3.743200 1.410500
-3.727300 1.109000
-3.711300 0.747400
-3.695400 13.199600
-3.679400 0.694700
-3.663500 0.752100
-3.647600 0.809600
-3.631600 0.867100
-3.615700 0.924500
-3.599700 0.981900
-3.583800 1.039300
-3.567900 1.096600
-3.551900 1.154000
-3.536000 1.211300
-3.520000 1.268700
-3.504100 1.325900
-3.488200 1.383200
-3.472200 1.440500
-3.456300 1.497700
-3.440300 1.555000
-3.424400 1.612200
-3.408500 1.669400
-3.392500 1.726500
-3.376600 1.619900
-3.360600 1.163400
-3.344700 1.064900
-3.328800 1.056800
-3.312800 1.048800
-3.296900 1.040800
-3.280900 1.032700
-3.265000 1.024600
-3.249100 1.016500
-3.233100 1.008400
-3.217200 1.000300
-3.201200 0.992200
-3.185300 0.984000
-3.169400 0.975900
-3.153400 0.967700
-3.137500 0.959500
-3.121500 0.951300
-3.105600 0.943100
-3.089700 0.934900
-3.073700 0.926700
-3.057800 0.918400
-3.041800 0.910100
-3.025900 0.901900
-3.010000 0.893600
-2.994000 0.885300
-2.978100 0.876900
-2.962100 0.868600
-2.946200 0.860300
-2.930300 0.851900
-2.914300 0.883100
-2.898400 0.916100
-2.882400 0.947600
-2.866500 0.977400
-2.850600 1.005700
-2.834600 1.023800
-2.818700 1.019300
-2.802700 1.014700
-2.786800 1.010000
-2.770900 1.009500
-2.754900 1.036700
-2.739000 1.212500
-2.723000 1.556600
-2.707100 2.068900
-2.691200 2.749500
-2.675200 3.605200
-2.659300 4.478900
-2.643300 4.499200
-2.627400 4.369500
-2.611500 4.089600
-2.595500 3.476500
-2.579600 3.745900
-2.563600 3.939900
-2.547700 3.913500
-2.531800 3.748900
-2.515800 3.557500
-2.499900 3.339200
-2.484000 3.094200
-2.468000 2.891300
-2.452100 2.833900
-2.436100 2.777300
-2.420200 2.721400
-2.404300 2.666300
-2.388300 2.612000
-2.372400 2.558400
-2.356400 2.505500
-2.340500 2.453400
-2.324600 2.402100
-2.308600 2.351500
-2.292700 2.301700
-2.276700 2.252600
-2.260800 2.204200
-2.244900 2.152900
-2.228900 2.097400
-2.213000 2.037800
-2.197000 1.974000
-2.181100 1.906000
-2.165200 1.833800
-2.149200 1.757400
-2.133300 1.676800
-2.117300 1.592100
-2.101400 1.500800
-2.085500 1.378000
-2.069500 1.267800
-2.053600 1.446000
-2.037600 2.103300
-2.021700 2.835500
-2.005800 2.946900
-1.989800 3.071400
-1.973900 3.131900
-1.957900 2.946200
-1.942000 2.506700
-1.926100 1.777300
-1.910100 1.824100
-1.894200 1.871200
-1.878200 1.918600
-1.862300 1.966900
-1.846400 2.019500
-1.830400 2.076900
-1.814500 2.139000
-1.798500 2.205900
-1.782600 2.277500
-1.766700 2.353800
-1.750700 2.438600
-1.734800 2.540200
-1.718800 2.624800
-1.702900 2.564300
-1.687000 2.502100
-1.671000 2.436500
-1.655100 2.365500
-1.639100 2.365500
-1.623200 2.319700
-1.607300 2.272500
-1.591300 2.226200
-1.575400 2.180700
-1.559400 2.136200
-1.543500 2.092600
-1.527600 2.049900
-1.511600 2.008200
-1.495700 1.967300
-1.479700 1.927300
-1.463800 1.888300
-1.447900 1.850100
-1.431900 1.812900
-1.416000 1.776600
-1.400000 1.741200
-1.384100 1.706700
-1.368200 1.673100
-1.352200 1.640400
-1.336300 1.608600
-1.320300 1.577700
-1.304400 1.547300
-1.288500 1.517000
-1.272500 1.486900
-1.256600 1.457000
-1.240600 1.427200
-1.224700 1.397600
-1.208800 1.368300
-1.192800 1.339000
-1.176900 1.310000
-1.160900 1.281200
-1.145000 1.252500
-1.129100 1.218900
-1.113100 1.162100
-1.097200 1.106800
-1.081200 1.082500
-1.065300 1.061000
-1.049400 1.039700
-1.033400 1.018500
-1.017500 0.997600
-1.001500 0.976900
-0.985600 0.956400
-0.969700 0.936100
-0.953700 0.916100
-0.937800 0.896300
-0.921800 0.876800
-0.905900 0.857400
-0.890000 0.838300
-0.874000 0.819500
-0.858100 0.800800
-0.842100 0.782400
-0.826200 0.764200
-0.810300 0.746300
-0.794300 0.728600
-0.778400 0.711100
-0.762400 0.693800
-0.746500 0.676800
-0.730600 0.660000
-0.714600 0.619000
-0.698700 0.561400
-0.682700 0.533700
-0.666800 0.529600
-0.650900 0.527400
-0.634900 0.525100
-0.619000 0.522900
-0.603000 0.520700
-0.587100 0.518500
-0.571200 0.516300
-0.555200 0.514100
-0.539300 0.512000
-0.523300 0.510000
-0.507400 0.508100
-0.491500 0.506300
-0.475500 0.504600
-0.459600 0.503000
-0.443600 0.525300
-0.427700 0.603500
-0.411800 0.685900
-0.395800 0.772600
-0.379900 0.863600
-0.363900 0.958800
-0.348000 1.058300
-0.332100 1.162100
-0.316100 1.272200
-0.300200 1.489400
-0.284200 1.869500
-0.268300 2.412600
-0.252400 3.118500
-0.236400 3.987200
-0.220500 6.902900
-0.204500 4.562300
-0.188600 4.259500
-0.172700 4.219600
-0.156700 4.171200
-0.140800 4.114500
-0.124800 4.049500
-0.108900 3.976200
-0.093000 3.894800
-0.077000 3.805300
-0.061100 3.707500
-0.045100 3.523700
-0.029200 3.261200
-0.013300 2.929300
0.002700 2.528000
0.018600 2.334400
0.034600 2.161400
0.050500 2.058500
0.066400 2.025700
0.082400 2.062900
0.098300 2.160600
0.114300 2.629500
0.130200 2.892100
0.146100 3.129700
0.162100 3.342200
0.178000 3.529600
0.194000 3.691900
0.209900 3.829100
0.225800 3.938600
0.241800 4.022900
0.257700 4.086800
0.273700 4.130200
0.289600 4.143000
0.305500 4.265900
0.321500 4.238700
0.337400 4.191200
0.353400 3.967600
0.369300 3.860300
0.385200 4.451300
0.401200 4.378100
0.417100 4.313900
0.433100 4.258900
0.449000 4.213000
0.464900 4.169200
0.480900 4.110200
0.496800 4.035300
0.512800 3.944500
0.528700 3.837900
0.544600 3.715300
0.560600 3.576700
0.576500 30.760400
0.592500 3.684000
0.608400 3.604700
0.624300 3.533400
0.640300 3.470200
0.656200 3.415100
0.672200 3.367900
0.688100 3.328900
0.704000 3.298600
0.720000 3.267700
0.735900 3.236500
0.751900 3.205100
0.767800 3.173400
0.783700 3.141400
0.799700 3.109100
0.815600 3.076800
0.831600 3.045500
0.847500 3.015400
0.863400 2.986400
0.879400 2.958500
0.895300 2.931900
0.911300 2.906300
0.927200 2.881900
0.943100 2.837900
0.959100 2.771500
0.975000 2.746500
0.991000 2.748300
1.006900 2.750800
1.022800 2.754000
1.038800 2.757900
1.054700 2.762300
1.070700 3.523900
1.086600 3.665200
1.102500 3.810900
1.118500 3.960900
1.134400 3.250600
1.150400 3.270900
1.166300 3.293800
1.182200 3.319200
1.198200 3.347200
1.214100 3.380600
1.230100 3.432000
1.246000 3.503200
1.261900 3.593800
1.277900 3.693900
1.293800 3.795200
1.309800 3.897800
1.325700 4.001700
1.341600 4.106500
1.357600 4.211800
1.373500 4.317500
1.389500 4.423700
1.405400 4.653200
1.421300 4.790200
1.437300 4.813400
1.453200 4.827600
1.469200 4.832700
1.485100 4.828800
1.501000 4.815900
1.517000 4.793900
1.532900 4.762900
1.548900 4.680400
1.564800 4.552700
1.580700 4.437800
1.596700 4.368600
1.612600 4.365000
1.628600 4.364700
1.644500 4.362300
1.660400 4.540400
1.676400 4.234300
1.692300 4.070400
1.708300 4.143800
1.724200 4.248000
1.740100 4.361000
1.756100 4.448000
1.772000 4.507800
1.788000 4.544500
1.803900 4.582200
1.819800 4.624100
1.835800 4.670000
1.851700 4.720100
1.867700 4.774300
1.883600 4.832700
1.899500 4.895200
1.915500 4.966300
1.931400 5.192000
1.947400 5.106800
1.963300 5.068400
1.979200 5.076800
1.995200 5.131900
2.011100 5.226800
2.027100 5.272600
2.043000 6.948000
2.058900 7.938600
2.074900 8.381300
2.090800 8.923700
2.106800 8.895200
2.122700 7.775100
2.138600 7.363400
2.154600 7.318600
2.170500 6.857400
2.186500 6.613500
2.202400 6.206700
2.218300 5.629700
2.234300 5.193800
2.250200 5.134900
2.266200 5.079700
2.282100 5.027700
2.298000 4.959400
2.314000 4.871700
2.329900 4.788500
2.345900 4.710000
2.361800 4.636300
2.377700 4.567200
2.393700 4.502900
2.409600 4.442900
2.425600 4.385700
2.441500 4.331000
2.457400 4.278800
2.473400 4.229100
2.489300 4.185100
2.505300 4.157300
2.521200 4.127800
2.537100 4.095700
2.553100 4.061100
2.569000 4.024000
2.585000 3.984900
2.600900 3.945200
2.616800 3.905200
2.632800 3.867300
2.648700 3.831600
2.664700 3.798100
2.680600 3.766800
2.696500 3.829800
2.712500 3.990300
2.728400 3.949500
2.744400 3.909800
2.760300 3.869400
2.776200 3.828200
2.792200 3.767900
2.808100 3.549900
2.824100 3.339700
2.840000 3.265500
2.855900 3.191100
2.871900 3.116600
2.887800 3.042100
2.903800 2.967500
2.919700 2.892900
2.935600 2.814300
2.951600 2.734800
2.967500 2.653400
2.983500 2.571100
2.999400 2.494000
3.015300 2.426400
3.031300 2.358600
3.047200 2.284400
3.063200 2.210500
3.079100 2.136700
3.095000 2.063100
3.111000 1.990200
3.126900 1.923300
3.142900 1.859200
3.158800 1.797800
3.174700 1.742000
3.190700 1.696900
3.206600 1.619000
3.222600 1.430900
3.238500 1.280000
3.254400 1.249100
3.270400 1.218200
3.286300 1.187300
3.302300 1.156400
3.318200 1.125500
3.334100 1.094500
3.350100 1.063600
3.366000 1.032700
3.382000 1.001700
3.397900 0.970800
3.413800 0.939900
3.429800 0.908900
3.445700 0.877900
3.461600 0.847000
3.477600 0.816000
3.493500 0.785000
3.509500 0.754000
3.525400 0.723000
3.541300 0.692000
3.557300 0.661000
3.573200 0.630000
3.589200 0.599000
3.605100 0.568200
3.621000 0.544000
3.637000 0.528500
3.652900 0.514600
3.668900 0.500800
3.684800 0.486900
3.700700 0.473000
3.716700 0.459200
3.732600 0.445300
3.748600 0.431400
3.764500 0.417600
3.780400 0.447300
3.796400 0.629700
3.812300 0.697900
3.828300 0.667200
3.844200 0.636600
3.860100 0.605900
3.876100 0.575300
3.892000 0.544600
3.908000 0.513900
3.923900 0.483300
3.939800 0.452600
3.955800 0.421900
3.971700 0.391200
3.987700 0.360600
4.003600 0.329900
4.019500 0.299200
4.035500 0.268500
4.051400 0.237800
4.067400 0.207200
4.083300 0.176500
4.099200 0.145800
4.115200 0.115100
4.131100 0.084400
4.147100 0.053700
4.163000 0.023000
4.178900 0.002600
4.194900 0.000000
4.210800 0.000000
4.226800 0.000000
4.242700 0.000000
4.258600 0.000000
4.274600 0.000000
4.290500 0.000000
4.306500 0.000000
4.322400 0.000000
4.338300 0.000000
4.354300 0.000000
4.370200 0.000000
4.386200 0.000000
4.402100 0.000000
4.418000 0.000000
4.434000 0.000000
4.449900 0.000000
4.465900 0.000000
4.481800 0.000000
4.497700 0.000000
4.513700 0.000000
4.529600 0.000000
4.545600 0.000000
4.561500 0.000000
4.577400 0.000000
4.593400 0.000000
4.609300 0.000000
4.625300 0.000000
4.641200 0.000000
4.657100 0.000000
4.673100 0.000000
4.689000 0.000000
4.705000 0.000000
4.720900 0.000000
4.736800 0.000000
4.752800 0.000000
4.768700 0.000000
4.784700 0.000000
4.800600 0.000000
4.816500 0.000000
4.832500 0.000000
4.848400 0.000000
4.864400 0.000000
4.880300 0.000000
4.896200 0.000000
4.912200 0.000000
4.928100 0.000000
4.944100 0.000000
4.960000 0.000000
4.975900 0.000000
4.991900 0.000000
5.007800 0.000000
5.023800 0.000000
5.039700 0.000000
5.055600 0.000000
5.071600 0.000000
5.087500 0.000000
5.103500 0.000000
5.119400 0.008800
5.135300 0.229300
5.151300 0.254900
5.167200 0.280500
5.183200 0.306000
5.199100 0.331500
5.215000 0.356900
5.231000 0.382300
5.246900 0.407700
5.262900 0.433000
5.278800 0.458300
5.294700 0.483600
5.310700 0.508800
5.326600 0.534000
5.342600 0.559100
5.358500 0.584200
5.374400 0.609100
5.390400 0.631800
5.406300 0.651600
5.422300 0.668500
5.438200 0.682500
5.454100 0.694700
5.470100 0.707000
5.486000 0.719200
5.502000 0.731400
5.517900 0.743600
5.533800 0.758100
5.549800 0.777800
5.565700 0.802800
5.581700 0.833000
5.597600 0.865900
5.613500 0.898800
5.629500 0.931700
5.645400 1.320700
5.661400 1.382600
5.677300 1.444400
5.693200 1.506200
5.709200 1.568000
5.725100 1.629700
5.741100 1.691300
5.757000 1.752900
5.772900 1.814500
5.788900 1.876000
5.804800 1.937500
5.820800 1.998900
5.836700 2.060300
5.852600 2.121600
5.868600 2.182900
5.884500 2.244100
5.900500 2.305300
5.916400 2.365100
5.932300 2.422600
5.948300 2.473600
5.964200 2.474700
5.980200 2.464200
5.996100 2.443900
6.012000 2.414000
6.028000 2.382400
6.043900 2.387200
6.059900 2.392100
6.075800 2.403200
6.091700 2.456500
6.107700 2.694000
6.123600 2.902300
6.139600 3.131600
6.155500 3.382100
6.171400 3.653800
6.187400 3.946600
6.203300 4.260500
6.219300 4.595600
6.235200 4.932100
6.251100 5.227300
6.267100 5.467200
6.283000 5.684100
6.299000 5.883500
6.314900 6.066300
6.330800 6.232500
6.346800 8.566200
6.362700 7.401200
6.378700 5.606200
6.394600 4.039400
6.410500 3.938200
6.426500 3.999200
6.442400 4.068100
6.458400 4.144800
6.474300 4.229500
6.490200 4.319200
6.506200 4.389800
6.522100 4.435800
6.538100 4.556100
6.554000 4.693200
6.569900 4.913900
6.585900 5.168100
6.601800 5.392700
6.617800 6.668600
6.633700 6.190800
6.649600 6.268800
6.665600 6.298000
6.681500 5.972300
6.697500 5.663100
6.713400 5.374600
6.729300 5.107600
6.745300 4.862300
6.761200 4.651300
6.777200 4.490700
6.793100 4.374700
6.809000 4.365500
6.825000 4.472500
6.840900 4.676400
6.856900 4.900400
6.872800 5.134100
6.888700 5.377500
6.904700 5.630800
6.920600 5.893100
6.936600 6.148700
6.952500 6.391300
6.968400 6.767800
6.984400 7.447300
7.000300 7.946900
7.016300 8.190700
7.032200 7.763900
7.048100 6.800900
7.064100 5.925900
7.080000 5.157000
7.096000 4.654100
7.111900 4.328600
7.127800 4.173500
7.143800 4.079400
7.159700 4.009300
7.175700 3.964100
7.191600 3.944000
7.207500 3.948600
7.223500 4.109000
7.239400 4.265500
7.255400 4.418000
7.271300 4.562400
7.287200 4.696900
7.303200 4.886100
7.319100 5.114600
7.335100 5.334700
7.351000 5.546400
7.366900 5.749600
7.382900 5.874500
7.398800 5.797200
7.414800 7.743400
7.430700 8.374800
7.446600 7.298700
7.462600 5.710800
7.478500 4.605700
7.494500 3.887600
7.510400 3.378200
7.526300 3.164800
7.542300 3.203900
7.558200 3.674100
7.574200 4.263500
7.590100 4.236400
7.606000 4.138100
7.622000 4.042000
7.637900 3.956900
7.653900 3.917500
7.669800 3.829800
7.685700 3.742200
7.701700 3.654700
7.717600 3.567300
7.733600 3.480000
7.749500 3.392900
7.765400 3.305800
7.781400 2.737400
7.797300 2.598500
7.813300 2.459700
7.829200 2.323300
7.845100 2.202900
7.861100 2.222400
7.877000 2.412900
7.893000 2.745500
7.908900 3.105700
7.924800 3.476600
7.940800 3.848000
7.956700 4.197300
7.972700 4.516100
7.988600 4.795200
8.004500 5.034400
8.020500 5.233900
8.036400 5.393700
8.052400 5.513700
8.068300 5.593900
8.084200 5.682000
8.100200 5.748100
8.116100 5.805700
8.132100 5.855200
8.148000 5.896800
8.163900 5.928400
8.179900 5.898300
8.195800 5.783500
8.211800 5.584200
8.227700 5.300300
8.243600 4.963800
8.259600 4.766900
8.275500 4.869500
8.291500 5.272500
8.307400 3.584100
8.323300 3.275600
8.339300 3.051000
8.355200 2.910500
8.371200 2.846300
8.387100 2.834800
8.403000 2.874400
8.419000 2.975600
8.434900 3.093000
8.450900 3.221200
8.466800 3.354600
8.482700 3.444200
8.498700 3.377900
8.514600 3.423800
8.530600 3.459800
8.546500 3.544200
8.562400 3.629400
8.578400 3.715100
8.594300 3.801500
8.610300 4.016700
8.626200 4.097000
8.642100 4.167800
8.658100 4.202100
8.674000 4.209300
8.690000 4.219600
8.705900 4.235700
8.721800 4.257500
8.737800 4.285000
8.753700 4.343500
8.769700 4.466100
8.785600 4.593800
8.801500 4.724700
8.817500 4.841000
8.833400 4.967100
8.849400 5.102900
8.865300 5.248500
8.881200 5.403900
8.897200 5.564800
8.913100 5.718600
8.929100 5.864600
8.945000 6.002700
8.960900 6.132900
8.976900 6.255400
8.992800 6.369900
9.008800 6.476600
9.024700 6.575500
9.040600 6.592300
9.056600 6.367500
9.072500 6.137300
9.088500 5.957400
9.104400 5.906200
9.120300 6.175700
9.136300 6.327700
9.152200 6.440100
9.168200 6.513000
9.184100 6.483300
9.200000 6.375100
9.216000 5.760800
9.231900 5.492900
9.247900 5.247600
9.263800 4.956400
9.279700 4.619500
9.295700 4.249800
9.311600 3.905200
9.327600 3.774700
9.343500 3.663600
9.359400 3.648900
9.375400 3.535500
9.391300 3.430600
9.407200 3.220900
9.423200 3.214600
9.439100 3.249600
9.455100 3.297100
9.471000 3.343800
9.486900 3.502400
9.502900 3.649700
9.518800 3.785500
9.534800 3.910000
9.550700 4.023100
9.566600 4.124700
9.582600 4.212100
9.598500 4.282300
9.614500 4.333400
9.630400 4.365300
9.646300 4.204900
9.662300 3.989600
9.678200 3.864200
9.694200 3.738100
9.710100 3.611500
9.726000 3.484200
9.742000 3.356700
9.757900 3.255000
9.773900 3.088600
9.789800 3.110300
9.805700 3.192700
9.821700 3.321500
9.837600 3.434400
9.853600 3.546200
9.869500 4.050800
9.885400 3.966800
9.901400 3.858400
9.917300 3.725700
9.933300 3.037200
9.949200 3.056400
9.965100 3.065200
9.981100 3.063500
9.997000 3.788500
10.013000 3.061800
10.028900 2.531400
10.044800 2.506000
10.060800 2.482200
10.076700 2.459900
10.092700 2.439100
10.108600 2.419900
10.124500 2.402300
10.140500 2.386200
10.156400 2.371600
10.172400 2.358600
10.188300 2.347100
10.204200 2.511000
10.220200 2.676600
10.236100 2.945100
10.252100 3.058700
10.268000 3.160200
10.283900 3.291900
10.299900 3.481000
10.315800 3.733200
10.331800 4.031900
10.347700 4.359800
10.363600 4.706900
10.379600 4.769100
10.395500 4.488600
10.411500 4.298000
10.427400 4.147400
10.443300 4.020300
10.459300 3.916900
10.475200 3.837200
10.491200 3.781400
10.507100 3.759200
10.523000 3.769700
10.539000 3.931700
10.554900 4.604500
10.570900 4.828700
10.586800 5.060800
10.602700 5.300000
10.618700 5.548300
10.634600 5.323400
10.650600 5.536200
10.666500 5.729700
10.682400 5.904100
10.698400 6.060800
10.714300 6.122800
10.730300 6.055100
10.746200 5.959300
10.762100 5.835400
10.778100 5.683400
10.794000 5.464700
10.810000 5.213000
10.825900 4.995400
10.841800 4.690800
10.857800 4.565400
10.873700 4.442200
10.889700 4.327500
10.905600 4.224500
10.921500 4.133100
10.937500 4.053800
10.953400 3.986700
10.969400 3.945200
10.985300 3.916100
11.001200 3.896800
11.017200 3.887400
11.033100 3.886700
11.049100 3.888800
11.065000 3.892600
11.080900 3.898300
11.096900 3.905900
11.112800 3.915300
11.128800 3.926600
11.144700 3.939100
11.160600 4.012700
11.176600 4.056200
11.192500 4.015000
11.208500 3.891000
11.224400 3.769100
11.240300 3.669300
11.256300 3.592100
11.272200 3.537700
11.288200 3.503300
11.304100 3.472200
11.320000 3.442000
11.336000 3.412700
11.351900 3.384900
11.367900 3.358800
11.383800 3.334300
11.399700 3.311400
11.415700 3.290000
11.431600 3.256600
11.447600 3.231400
11.463500 3.217600
11.479400 3.214800
11.495400 3.230500
11.511300 3.240700
11.527300 3.287600
11.543200 3.310900
11.559100 3.339700
11.575100 3.369200
11.591000 3.381400
11.607000 3.278800
11.622900 3.164900
11.638800 3.137400
11.654800 3.098500
11.670700 3.067600
11.686700 3.047800
11.702600 3.039100
11.718500 3.030000
11.734500 3.017800
11.750400 3.006900
11.766400 2.997500
11.782300 3.421600
11.798200 4.115100
11.814200 4.529900
11.830100 4.690500
11.846100 4.806100
11.862000 4.921800
11.877900 5.037600
11.893900 5.153500
11.909800 5.269500
11.925800 5.385600
11.941700 5.500800
11.957600 5.607800
11.973600 5.704600
11.989500 5.780700
12.005500 5.822200
12.021400 5.829100
12.037300 5.801300
12.053300 5.615900
12.069200 5.476900
12.085200 5.345900
12.101100 5.223100
12.117000 5.108500
12.133000 5.001500
12.148900 4.900900
12.164900 4.820900
12.180800 4.841800
12.196700 4.954800
12.212700 5.083600
12.228600 5.162600
12.244600 5.140400
12.260500 4.945100
12.276400 4.585200
12.292400 4.202700
12.308300 3.867000
12.324300 3.577900
12.340200 3.399700
12.356100 3.323200
12.372100 3.271200
12.388000 3.228400
12.404000 3.194900
12.419900 3.170800
12.435800 3.355900
12.451800 3.515400
12.467700 3.641500
12.483700 3.734400
12.499600 3.794000
12.515500 3.822900
12.531500 3.840200
12.547400 3.854700
12.563400 3.868000
12.579300 3.884200
12.595200 3.904900
12.611200 3.921500
12.627100 3.918800
12.643100 3.897700
12.659000 3.881000
12.674900 3.893400
12.690900 3.907900
12.706800 3.923600
12.722800 3.940400
12.738700 3.960600
12.754600 3.986200
12.770600 3.994000
12.786500 3.980400
12.802500 3.961800
12.818400 3.936500
12.834300 3.901600
12.850300 3.856700
12.866200 3.802000
12.882200 3.737500
12.898100 3.644900
12.914000 3.585100
12.930000 3.486100
12.945900 3.386400
12.961900 3.287300
12.977800 3.204300
12.993700 3.143400
13.009700 3.104400
13.025600 4.271100
13.041600 4.383400
13.057500 3.463000
13.073400 3.485200
13.089400 3.514700
13.105300 3.551500
13.121300 3.617700
13.137200 3.648100
13.153100 3.705200
13.169100 3.789000
13.185000 3.895500
13.201000 3.989000
13.216900 4.059200
13.232800 4.099900
13.248800 4.127000
13.264700 4.243400
13.280700 4.238700
13.296600 4.213100
13.312500 4.221000
13.328500 4.257100
13.344400 4.319000
13.360400 4.403600
13.376300 4.504700
13.392200 4.388100
13.408200 4.389000
13.424100 4.403600
13.440100 4.423700
13.456000 4.449300
13.471900 4.480400
13.487900 4.516900
13.503800 4.605000
13.519800 4.806100
13.535700 5.028600
13.551600 4.927500
13.567600 4.819500
13.583500 4.704600
13.599500 4.582600
13.615400 4.802600
13.631300 4.956200
13.647300 5.018100
13.663200 5.000400
13.679200 4.990600
13.695100 4.900900
13.711000 4.920400
13.727000 4.923900
13.742900 4.902300
13.758900 4.919000
13.774800 4.900100
13.790700 4.873800
13.806700 4.840000
13.822600 4.798900
13.838600 4.748600
13.854500 4.687700
13.870400 4.625500
13.886400 4.638200
13.902300 4.696600
13.918300 4.766500
13.934200 4.851700
13.950100 4.941900
13.966100 5.032600
13.982000 5.122900
13.998000 5.204800
14.013900 5.244200
14.029800 5.268900
14.045800 5.276300
14.061700 5.268900
14.077700 5.260500
14.093600 5.246200
14.109500 5.215400
14.125500 5.168000
14.141400 5.105500
14.157400 4.979900
14.173300 4.822700
14.189200 4.654200
14.205200 4.477700
14.221100 4.368800
14.237100 4.328000
14.253000 4.389700
14.268900 4.477900
14.284900 4.567000
14.300800 4.657200
14.316800 4.756400
14.332700 4.889600
14.348600 5.038300
14.364600 5.192200
14.380500 5.351300
14.396500 5.515600
14.412400 5.683900
14.428300 5.688800
14.444300 5.666300
14.460200 5.656700
14.476200 5.658600
14.492100 5.610500
14.508000 5.536100
14.524000 5.453900
14.539900 5.402600
14.555900 5.337700
14.571800 5.280600
14.587700 5.230700
14.603700 5.188500
14.619600 5.165400
14.635600 5.203500
14.651500 5.149600
14.667400 5.202100
14.683400 5.395200
14.699300 5.418900
14.715300 5.443400
14.731200 5.562100
14.747100 5.657100
14.763100 5.728500
14.779000 5.808700
14.795000 5.849400
14.810900 5.815900
14.826800 5.718000
14.842800 5.572400
14.858700 5.378500
14.874700 5.227500
14.890600 5.114400
14.906500 4.981500
14.922500 4.827000
14.938400 4.619100
14.954400 4.408600
14.970300 4.206700
14.986200 4.077900
15.002200 4.057600
15.018100 4.108500
15.034100 4.174500
15.050000 4.276800
15.065900 4.460200
15.081900 4.682800
15.097800 4.944900
15.113800 5.247200
15.129700 5.675100
15.145600 6.577800
15.161600 6.794600
15.177500 5.701800
15.193500 5.428000
15.209400 5.176200
15.225300 4.946300
15.241300 4.738300
15.257200 4.552500
15.273200 4.388900
15.289100 4.243200
15.305000 4.115400
15.321000 3.980500
15.336900 3.819200
15.352800 3.667100
15.368800 3.524100
15.384700 3.390600
15.400700 3.266500
15.416600 3.152000
15.432500 3.046900
15.448500 2.951300
15.464400 2.865300
15.480400 2.788700
15.496300 2.721500
15.512200 2.663900
15.528200 2.615800
15.544100 2.577100
15.560100 2.548000
15.576000 2.528500
15.591900 2.555200
15.607900 2.605600
15.623800 2.664400
15.639800 2.731800
15.655700 2.776300
15.671600 2.868300
15.687600 2.968000
15.703500 3.046100
15.719500 3.114900
15.735400 3.175700
15.751300 3.228500
15.767300 3.273500
15.783200 3.310400
15.799200 3.345300
15.815100 3.390600
15.831000 3.438700
15.847000 3.489600
15.862900 3.553400
15.878900 3.621100
15.894800 3.676600
15.910700 3.715600
15.926700 3.737600
15.942600 3.751200
15.958600 3.761800
15.974500 3.769600
15.990400 3.774500
16.006400 3.776600
16.022300 3.775800
16.038300 3.777200
16.054200 3.784100
16.070100 3.720900
16.086100 3.658900
16.102000 3.598100
16.118000 3.450100
16.133900 3.285400
16.149800 3.197500
16.165800 3.181100
16.181700 3.198900
16.197700 3.229800
16.213600 3.271500
16.229500 3.324000
16.245500 3.413900
16.261400 3.521300
16.277400 3.637600
16.293300 3.764300
16.309200 3.904000
16.325200 4.053500
16.341100 4.212900
16.357100 4.382100
16.373000 4.561200
16.388900 4.750200
16.404900 4.927300
16.420800 5.092400
16.436800 5.222200
16.452700 5.438100
16.468600 5.466200
16.484600 5.426100
16.500500 5.421200
16.516500 5.451400
16.532400 5.539600
16.548300 5.753300
16.564300 5.808900
16.580200 5.837100
16.596200 5.837000
16.612100 5.811600
16.628000 5.760900
16.644000 5.683800
16.659900 5.578000
16.675900 5.441500
16.691800 5.268400
16.707700 5.157900
16.723700 5.082700
16.739600 5.011100
16.755600 4.942900
16.771500 4.880000
16.787400 4.824100
16.803400 4.817300
16.819300 4.771600
16.835300 4.737500
16.851200 4.763000
16.867100 4.849900
16.883100 4.971900
16.899000 5.101200
16.915000 5.237800
16.930900 5.381200
16.946800 5.531200
16.962800 5.577700
16.978700 5.590400
16.994700 5.577600
17.010600 5.589000
17.026500 5.650300
17.042500 5.709100
17.058400 5.696800
17.074400 5.745800
17.090300 5.786100
17.106200 5.817700
17.122200 5.830500
17.138100 5.805400
17.154100 5.749000
17.170000 5.661000
17.185900 5.581700
17.201900 5.597900
17.217800 5.760800
17.233800 5.939200
17.249700 6.128500
17.265600 6.321200
17.281600 7.017500
17.297500 7.331000
17.313500 7.038900
17.329400 7.245600
17.345300 7.339700
17.361300 7.332200
17.377200 7.276300
17.393200 7.209900
17.409100 7.192200
17.425000 7.214600
17.441000 7.306900
17.456900 7.469600
17.472900 7.702800
17.488800 7.277900
17.504700 7.309900
17.520700 7.358900
17.536600 7.411400
17.552600 7.471500
17.568500 7.266100
17.584400 6.709800
17.600400 6.587800
17.616300 6.448600
17.632300 6.294200
17.648200 6.181400
17.664100 6.110500
17.680100 6.036600
17.696000 6.008100
17.712000 5.984100
17.727900 5.964900
17.743800 5.911300
17.759800 5.907200
17.775700 5.833900
17.791700 5.855400
17.807600 5.870900
17.823500 5.877000
17.839500 5.873200
17.855400 5.854200
17.871400 5.797700
17.887300 5.728100
17.903200 5.644800
17.919200 5.644100
17.935100 5.545300
17.951100 5.466700
17.967000 5.396600
17.982900 5.335000
17.998900 5.281800
18.014800 5.309300
18.030800 5.254800
18.046700 5.202800
18.062600 5.155000
18.078600 5.111500
18.094500 5.072200
18.110500 5.037100
18.126400 5.006300
18.142300 4.979600
18.158300 4.957200
18.174200 4.938300
18.190200 4.869400
18.206100 4.880600
18.222000 4.906500
18.238000 4.945300
18.253900 5.019600
18.269900 5.159200
18.285800 5.276900
18.301700 5.366800
18.317700 5.428700
18.333600 5.459400
18.349600 5.433600
18.365500 5.231900
18.381400 5.117700
18.397400 4.993900
18.413300 4.855100
18.429300 4.705900
18.445200 4.547500
18.461100 4.380100
18.477100 4.487500
18.493000 4.409800
18.509000 4.323500
18.524900 4.259100
18.540800 4.212000
18.556800 4.181700
18.572700 4.351600
18.588700 4.851400
18.604600 5.262400
18.620500 5.402900
18.636500 5.567600
18.652400 5.754400
18.668400 5.907200
18.684300 5.855300
18.700200 5.803300
18.716200 5.751000
18.732100 5.698700
18.748100 5.640600
18.764000 5.573800
18.779900 5.498100
18.795900 5.413600
18.811800 5.323500
18.827800 5.229000
18.843700 5.146000
18.859600 5.070100
18.875600 4.990000
18.891500 4.906800
18.907500 4.822000
18.923400 4.735500
18.939300 4.647400
18.955300 4.551200
18.971200 4.446400
18.987200 4.395100
19.003100 4.244200
19.019000 4.192500
19.035000 4.156100
19.050900 4.172700
19.066900 4.227400
19.082800 4.276300
19.098700 4.319500
19.114700 4.355800
19.130600 4.383300
19.146600 4.505500
19.162500 4.500800
19.178400 4.493500
19.194400 4.484000
19.210300 4.472300
19.226300 4.458300
19.242200 4.442100
19.258100 4.423600
19.274100 4.402900
19.290000 4.379900
19.306000 4.354700
19.321900 4.326500
19.337800 4.293900
19.353800 4.253900
19.369700 4.190500
19.385700 4.100900
19.401600 4.030800
19.417500 3.980300
19.433500 3.931100
19.449400 3.884000
19.465400 3.839100
19.481300 3.796700
19.497200 3.756500
19.513200 3.615800
19.529100 3.599800
19.545100 3.630500
19.561000 3.663500
19.576900 3.698700
19.592900 4.006000
19.608800 4.045600
19.624800 4.098100
19.640700 4.152400
19.656600 4.216300
19.672600 4.295300
19.688500 4.389300
19.704500 4.531600
19.720400 4.738300
19.736300 4.731600
19.752300 5.072500
19.768200 5.479200
19.784200 5.781400
19.800100 6.001500
19.816000 6.161100
19.832000 6.259700
19.847900 6.301000
19.863900 6.300100
19.879800 6.332100
19.895700 6.298400
19.911700 6.320800
19.927600 6.394500
19.943600 6.482000
19.959500 6.590700
19.975400 6.702200
19.991400 6.809800
20.007300 6.910700
20.023300 6.981800
20.039200 7.028000
20.055100 7.051500
20.071100 7.051300
20.087000 7.027400
20.103000 6.977500
20.118900 6.894400
20.134800 6.787400
20.150800 6.656600
20.166700 6.535500
20.182700 6.411000
20.198600 6.277400
20.214500 6.154300
20.230500 6.047300
20.246400 5.957100
20.262400 5.907600
20.278300 5.907900
20.294200 5.958000
20.310200 5.965100
20.326100 6.050900
20.342100 6.079400
20.358000 5.894600
20.373900 5.491900
20.389900 5.037400
20.405800 4.540700
20.421800 4.073900
20.437700 3.661700
20.453600 3.288900
20.469600 3.111900
20.485500 3.145700
20.501500 3.153900
20.517400 3.163400
20.533300 3.119000
20.549300 3.137200
20.565200 3.145300
20.581200 3.142300
20.597100 3.128100
20.613000 3.102900
20.629000 3.066500
20.644900 3.033400
20.660900 3.092900
20.676800 3.125600
20.692700 3.131700
20.708700 3.111100
20.724600 3.063400
20.740600 2.988100
20.756500 2.885300
20.772400 2.755000
20.788400 2.595100
20.804300 2.287600
20.820300 2.147900
20.836200 2.098700
20.852100 2.049800
20.868100 2.000900
20.884000 1.952300
20.900000 1.903700
20.915900 1.855400
20.931800 1.807200
20.947800 1.759100
20.963700 1.647400
20.979700 1.607700
20.995600 1.567600
21.011500 1.527100
21.027500 1.486200
21.043400 1.445000
21.059400 1.403500
21.075300 1.361600
21.091200 1.319300
21.107200 1.276700
21.123100 1.233800
21.139100 1.423200
21.155000 1.392000
21.170900 1.358300
21.186900 1.321800
21.202800 1.282700
21.218800 1.240900
21.234700 1.196500
21.250600 1.149400
21.266600 1.093200
21.282500 1.028100
21.298400 0.912900
21.314400 0.624200
21.330300 0.549000
21.346300 0.478700
21.362200 0.413200
21.378100 0.352400
21.394100 0.296600
21.410000 0.245500
21.426000 0.199200
21.441900 0.157800
21.457800 0.121200
21.473800 0.089400
21.489700 0.062500
21.505700 0.040300
21.521600 0.023000
21.537500 0.010500
21.553500 0.002900
21.569400 0.000000
21.585400 0.000000
21.601300 0.000000
21.617200 0.000000
21.633200 0.000000
21.649100 0.000000
21.665100 0.000000
21.681000 0.000000
21.696900 0.000000
21.712900 0.000000
21.728800 0.000000
21.744800 0.000000
21.760700 0.000000
21.776600 0.000000
21.792600 0.000000
21.808500 0.000000
21.824500 0.000000
21.840400 0.000000
21.856300 0.000000
21.872300 0.000000
21.888200 0.000000
21.904200 0.000000
21.920100 0.000000
21.936000 0.000000
21.952000 0.000000
21.967900 0.000000
21.983900 0.000000
21.999800 0.000000
22.015700 0.000000
22.031700 0.000000
22.047600 0.000000
22.063600 0.000000
22.079500 0.000000
22.095400 0.000000
22.111400 0.000000
22.127300 0.000000
22.143300 0.000000
22.159200 0.000000
22.175100 0.000000
22.191100 0.000000
22.207000 0.000000
22.223000 0.000000
22.238900 0.000000
22.254800 0.000000
22.270800 0.000000
22.286700 0.000000
22.302700 0.000000
22.318600 0.000000
22.334500 0.000000
22.350500 0.000000
22.366400 0.000000
22.382400 0.000000
22.398300 0.000000
22.414200 0.000000
22.430200 0.000000
22.446100 0.000000
22.462100 0.000000
22.478000 0.000000
22.493900 0.000000
22.509900 0.000000
22.525800 0.000000
22.541800 0.000000
22.557700 0.000000
22.573600 0.000000
22.589600 0.000000
22.605500 0.000000
22.621500 0.000000
22.637400 0.000000
22.653300 0.000000
22.669300 0.000000
22.685200 0.000000
22.701200 0.000000
22.717100 0.000000
22.733000 0.000000
22.749000 0.000000
22.764900 0.000000
22.780900 0.000000
22.796800 0.000000
22.812700 0.000000
22.828700 0.000000
22.844600 0.000000
22.860600 0.000000
22.876500 0.000000
22.892400 0.000000
22.908400 0.000000
22.924300 0.000000
22.940300 0.000000
22.956200 0.000000
22.972100 0.000000
22.988100 0.000000
23.004000 0.000000
23.020000 0.000000
e
