set title 'mp-973071 - Density of States'
set xlabel 'Energy (eV)'
set ylabel 'DOS (states/eV)'
set grid
set xrange [-10:10]
set yrange [0:25.808]
set xzeroaxis lt -1
set terminal png size 800,600
set output 'mp-973071_dos_gnuplot.png'
plot '-' using 1:2 with lines title 'DOS'
-10.073400 0.000000
-10.054200 0.000000
-10.035100 0.000000
-10.015900 0.000000
-9.996800 0.000000
-9.977600 0.000000
-9.958500 0.000000
-9.939300 0.000000
-9.920100 0.000000
-9.901000 0.000000
-9.881800 0.000000
-9.862700 0.000000
-9.843500 0.000000
-9.824400 0.000000
-9.805200 0.000000
-9.786000 0.000000
-9.766900 0.000000
-9.747700 0.000000
-9.728600 0.000000
-9.709400 0.000000
-9.690300 0.000000
-9.671100 0.000000
-9.652000 0.000000
-9.632800 0.000000
-9.613600 0.000000
-9.594500 0.000000
-9.575300 0.000000
-9.556200 0.000000
-9.537000 0.000000
-9.517900 0.000000
-9.498700 0.000000
-9.479500 0.000000
-9.460400 0.000000
-9.441200 0.000000
-9.422100 0.000000
-9.402900 0.000000
-9.383800 0.000000
-9.364600 0.000000
-9.345400 0.000000
-9.326300 0.000000
-9.307100 0.000000
-9.288000 0.000000
-9.268800 0.000000
-9.249700 0.000000
-9.230500 0.000000
-9.211400 0.000000
-9.192200 0.000000
-9.173000 0.000000
-9.153900 0.000000
-9.134700 0.000000
-9.115600 0.000000
-9.096400 0.000000
-9.077300 0.000000
-9.058100 0.000000
-9.038900 0.000000
-9.019800 0.000000
-9.000600 0.000000
-8.981500 0.000000
-8.962300 0.000000
-8.943200 0.000000
-8.924000 0.000000
-8.904800 0.000000
-8.885700 0.000000
-8.866500 0.000000
-8.847400 0.000000
-8.828200 0.000000
-8.809100 0.000000
-8.789900 0.000000
-8.770700 0.000000
-8.751600 0.000000
-8.732400 0.000000
-8.713300 0.000000
-8.694100 0.000000
-8.675000 0.000000
-8.655800 0.000000
-8.636700 0.000000
-8.617500 0.000000
-8.598300 0.000000
-8.579200 0.000000
-8.560000 0.000000
-8.540900 0.000000
-8.521700 0.000000
-8.502600 0.000000
-8.483400 0.000000
-8.464200 0.000000
-8.445100 0.000100
-8.425900 0.000700
-8.406800 0.002800
-8.387600 0.009000
-8.368500 0.022500
-8.349300 0.046200
-8.330100 0.083100
-8.311000 0.138600
-8.291800 0.215900
-8.272700 0.305200
-8.253500 0.387400
-8.234400 0.453900
-8.215200 0.511100
-8.196100 0.555900
-8.176900 0.565900
-8.157700 0.534600
-8.138600 0.510900
-8.119400 0.568500
-8.100300 0.727000
-8.081100 0.929400
-8.062000 1.106300
-8.042800 1.230000
-8.023600 1.302600
-8.004500 1.328700
-7.985300 1.305400
-7.966200 1.230200
-7.947000 1.133800
-7.927900 1.084900
-7.908700 1.123000
-7.889500 1.218300
-7.870400 1.338700
-7.851200 1.500500
-7.832100 1.698000
-7.812900 1.843200
-7.793800 1.849300
-7.774600 1.751700
-7.755500 1.687200
-7.736300 1.747300
-7.717100 1.883700
-7.698000 1.984300
-7.678800 2.009300
-7.659700 2.007700
-7.640500 2.049200
-7.621400 2.192900
-7.602200 2.481400
-7.583000 2.917500
-7.563900 3.484200
-7.544700 4.224400
-7.525600 5.251200
-7.506400 6.570400
-7.487300 7.829800
-7.468100 8.339700
-7.448900 7.560200
-7.429800 5.651000
-7.410600 3.413600
-7.391500 1.643700
-7.372300 0.624000
-7.353200 0.185100
-7.334000 0.042500
-7.314900 0.007500
-7.295700 0.001000
-7.276500 0.000100
-7.257400 0.000000
-7.238200 0.000000
-7.219100 0.000000
-7.199900 0.000000
-7.180800 0.000000
-7.161600 0.000000
-7.142400 0.000000
-7.123300 0.000000
-7.104100 0.000000
-7.085000 0.000000
-7.065800 0.000000
-7.046700 0.000000
-7.027500 0.000000
-7.008300 0.000000
-6.989200 0.000000
-6.970000 0.000000
-6.950900 0.000000
-6.931700 0.000000
-6.912600 0.000000
-6.893400 0.000000
-6.874200 0.000000
-6.855100 0.000000
-6.835900 0.000000
-6.816800 0.000000
-6.797600 0.000000
-6.778500 0.000000
-6.759300 0.000000
-6.740200 0.000000
-6.721000 0.000000
-6.701800 0.000000
-6.682700 0.000000
-6.663500 0.000000
-6.644400 0.000000
-6.625200 0.000000
-6.606100 0.000000
-6.586900 0.000000
-6.567700 0.000000
-6.548600 0.000000
-6.529400 0.000000
-6.510300 0.000000
-6.491100 0.000000
-6.472000 0.000000
-6.452800 0.000000
-6.433600 0.000000
-6.414500 0.000000
-6.395300 0.000000
-6.376200 0.000000
-6.357000 0.000000
-6.337900 0.000000
-6.318700 0.000000
-6.299600 0.000000
-6.280400 0.000000
-6.261200 0.000000
-6.242100 0.000000
-6.222900 0.000000
-6.203800 0.000000
-6.184600 0.000000
-6.165500 0.000000
-6.146300 0.000000
-6.127100 0.000000
-6.108000 0.000000
-6.088800 0.000000
-6.069700 0.000000
-6.050500 0.000000
-6.031400 0.000000
-6.012200 0.000000
-5.993000 0.000000
-5.973900 0.000000
-5.954700 0.000000
-5.935600 0.000000
-5.916400 0.000000
-5.897300 0.000000
-5.878100 0.000000
-5.859000 0.000000
-5.839800 0.000000
-5.820600 0.000000
-5.801500 0.000000
-5.782300 0.000000
-5.763200 0.000000
-5.744000 0.000000
-5.724900 0.000000
-5.705700 0.000000
-5.686500 0.000000
-5.667400 0.000000
-5.648200 0.000000
-5.629100 0.000000
-5.609900 0.000000
-5.590800 0.000000
-5.571600 0.000000
-5.552400 0.000000
-5.533300 0.000000
-5.514100 0.000000
-5.495000 0.000000
-5.475800 0.000000
-5.456700 0.000000
-5.437500 0.000000
-5.418300 0.000000
-5.399200 0.000000
-5.380000 0.000000
-5.360900 0.000000
-5.341700 0.000000
-5.322600 0.000000
-5.303400 0.000000
-5.284300 0.000000
-5.265100 0.000000
-5.245900 0.000000
-5.226800 0.000000
-5.207600 0.000000
-5.188500 0.000100
-5.169300 0.000700
-5.150200 0.003500
-5.131000 0.012500
-5.111800 0.034400
-5.092700 0.073300
-5.073500 0.126100
-5.054400 0.191100
-5.035200 0.289400
-5.016100 0.463900
-4.996900 0.732800
-4.977700 1.043000
-4.958600 1.291800
-4.939400 1.405100
-4.920300 1.408100
-4.901100 1.448500
-4.882000 1.746100
-4.862800 2.424300
-4.843700 3.303900
-4.824500 3.973900
-4.805300 4.229200
-4.786200 4.321900
-4.767000 4.573000
-4.747900 4.897100
-4.728700 5.019900
-4.709600 5.038100
-4.690400 5.365000
-4.671200 6.089800
-4.652100 6.744100
-4.632900 6.881300
-4.613800 6.644300
-4.594600 6.488200
-4.575500 6.493700
-4.556300 6.300500
-4.537100 5.732000
-4.518000 5.183900
-4.498800 5.219300
-4.479700 5.924000
-4.460500 6.843700
-4.441400 7.521500
-4.422200 7.954800
-4.403100 8.505000
-4.383900 9.478500
-4.364700 10.844100
-4.345600 12.278700
-4.326400 13.427400
-4.307300 14.126800
-4.288100 14.446400
-4.269000 14.651200
-4.249800 15.059200
-4.230600 15.679700
-4.211500 16.072100
-4.192300 15.881700
-4.173200 15.394000
-4.154000 15.177900
-4.134900 15.305600
-4.115700 15.391400
-4.096500 15.316700
-4.077400 15.392400
-4.058200 15.809500
-4.039100 16.379200
-4.019900 16.846200
-4.000800 17.154900
-3.981600 17.379500
-3.962400 17.551700
-3.943300 17.560800
-3.924100 17.248300
-3.905000 16.710000
-3.885800 16.337300
-3.866700 16.348900
-3.847500 16.498900
-3.828400 16.493300
-3.809200 16.459900
-3.790000 16.723900
-3.770900 17.318600
-3.751700 18.045300
-3.732600 18.864400
-3.713400 19.844200
-3.694300 20.753200
-3.675100 21.090100
-3.655900 20.647900
-3.636800 19.779900
-3.617600 19.001500
-3.598500 18.571100
-3.579300 18.490800
-3.560200 18.644600
-3.541000 18.850300
-3.521800 18.902100
-3.502700 18.608800
-3.483500 17.840800
-3.464400 16.697500
-3.445200 15.643300
-3.426100 15.240800
-3.406900 15.651300
-3.387800 16.499300
-3.368600 17.191000
-3.349400 17.325100
-3.330300 16.961100
-3.311100 16.556400
-3.292000 16.508000
-3.272800 16.754300
-3.253700 16.942300
-3.234500 16.897700
-3.215300 16.738600
-3.196200 16.505600
-3.177000 15.894700
-3.157900 14.627700
-3.138700 13.037500
-3.119600 11.961900
-3.100400 12.048500
-3.081200 13.406000
-3.062100 15.814600
-3.042900 18.861800
-3.023800 21.774000
-3.004600 23.461700
-2.985500 23.121600
-2.966300 20.908600
-2.947200 17.892700
-2.928000 15.240400
-2.908800 13.425200
-2.889700 12.175400
-2.870500 11.056300
-2.851400 9.989200
-2.832200 9.200600
-2.813100 8.807600
-2.793900 8.594400
-2.774700 8.201100
-2.755600 7.462100
-2.736400 6.490300
-2.717300 5.459300
-2.698100 4.422300
-2.679000 3.377900
-2.659800 2.410700
-2.640600 1.689700
-2.621500 1.346000
-2.602300 1.394600
-2.583200 1.760200
-2.564000 2.316000
-2.544900 2.880300
-2.525700 3.252300
-2.506600 3.331700
-2.487400 3.186500
-2.468200 2.985500
-2.449100 2.917100
-2.429900 3.121300
-2.410800 3.544500
-2.391600 3.894400
-2.372500 3.916800
-2.353300 3.700900
-2.334100 3.550700
-2.315000 3.573100
-2.295800 3.563400
-2.276700 3.340700
-2.257500 3.050800
-2.238400 2.997900
-2.219200 3.238000
-2.200000 3.500000
-2.180900 3.504800
-2.161700 3.228100
-2.142600 2.841200
-2.123400 2.510100
-2.104300 2.286200
-2.085100 2.116800
-2.065900 1.921100
-2.046800 1.678900
-2.027600 1.449300
-2.008500 1.282800
-1.989300 1.151200
-1.970200 1.008900
-1.951000 0.890000
-1.931900 0.890000
-1.912700 1.048300
-1.893500 1.280500
-1.874400 1.446000
-1.855200 1.475100
-1.836100 1.401900
-1.816900 1.299800
-1.797800 1.240300
-1.778600 1.267900
-1.759400 1.338100
-1.740300 1.322400
-1.721100 1.154300
-1.702000 0.934900
-1.682800 0.826100
-1.663700 0.867900
-1.644500 0.947100
-1.625300 0.918600
-1.606200 0.733900
-1.587000 0.471700
-1.567900 0.258300
-1.548700 0.170200
-1.529600 0.206600
-1.510400 0.316300
-1.491300 0.441200
-1.472100 0.561300
-1.452900 0.698000
-1.433800 0.852200
-1.414600 0.972900
-1.395500 1.018400
-1.376300 1.011000
-1.357200 1.009700
-1.338000 1.076300
-1.318800 1.260200
-1.299700 1.543200
-1.280500 1.801300
-1.261400 1.897000
-1.242200 1.810200
-1.223100 1.619200
-1.203900 1.389500
-1.184700 1.157500
-1.165600 0.981000
-1.146400 0.905900
-1.127300 0.883400
-1.108100 0.801400
-1.089000 0.622600
-1.069800 0.448200
-1.050700 0.430200
-1.031500 0.633600
-1.012300 0.960700
-0.993200 1.195100
-0.974000 1.181600
-0.954900 0.994700
-0.935700 0.885000
-0.916600 1.033700
-0.897400 1.368300
-0.878200 1.623700
-0.859100 1.588000
-0.839900 1.282000
-0.820800 0.890800
-0.801600 0.576200
-0.782500 0.403200
-0.763300 0.383500
-0.744100 0.508400
-0.725000 0.749400
-0.705800 1.050900
-0.686700 1.309300
-0.667500 1.395900
-0.648400 1.270500
-0.629200 1.037900
-0.610000 0.830000
-0.590900 0.673800
-0.571700 0.525900
-0.552600 0.386800
-0.533400 0.324300
-0.514300 0.402800
-0.495100 0.616600
-0.476000 0.884100
-0.456800 1.093600
-0.437600 1.165700
-0.418500 1.098700
-0.399300 0.967100
-0.380200 0.874600
-0.361000 0.900400
-0.341900 1.086700
-0.322700 1.435300
-0.303500 1.871800
-0.284400 2.250500
-0.265200 2.467600
-0.246100 2.535800
-0.226900 2.499600
-0.207800 2.344200
-0.188600 2.040500
-0.169400 1.630700
-0.150300 1.231400
-0.131100 0.962000
-0.112000 0.860400
-0.092800 0.858500
-0.073700 0.855000
-0.054500 0.811200
-0.035400 0.758100
-0.016200 0.740800
0.003000 0.791900
0.022100 0.922100
0.041300 1.095700
0.060400 1.251400
0.079600 1.364800
0.098700 1.451000
0.117900 1.513600
0.137100 1.534300
0.156200 1.502800
0.175400 1.439600
0.194500 1.385200
0.213700 1.345500
0.232800 1.269200
0.252000 1.134800
0.271200 1.029800
0.290300 1.070600
0.309500 1.258600
0.328600 1.479200
0.347800 1.641100
0.366900 1.756700
0.386100 1.866800
0.405200 1.953300
0.424400 1.976400
0.443600 1.967000
0.462700 2.020600
0.481900 2.167900
0.501000 2.306700
0.520200 2.326700
0.539300 2.249900
0.558500 2.184000
0.577700 2.168100
0.596800 2.124200
0.616000 1.963400
0.635100 1.715800
0.654300 1.538700
0.673400 1.609800
0.692600 1.997800
0.711800 2.587600
0.730900 3.106400
0.750100 3.287900
0.769200 3.070900
0.788400 2.631200
0.807500 2.213500
0.826700 1.949200
0.845900 1.811900
0.865000 1.696500
0.884200 1.512900
0.903300 1.237100
0.922500 0.928700
0.941600 0.703800
0.960800 0.656900
0.979900 0.785700
0.999100 0.978200
1.018300 1.091300
1.037400 1.075900
1.056600 1.014100
1.075700 1.009100
1.094900 1.078200
1.114000 1.183400
1.133200 1.303300
1.152400 1.428400
1.171500 1.534800
1.190700 1.600700
1.209800 1.629500
1.229000 1.639800
1.248100 1.633200
1.267300 1.583700
1.286500 1.486600
1.305600 1.410600
1.324800 1.445800
1.343900 1.594400
1.363100 1.758200
1.382200 1.846000
1.401400 1.847000
1.420500 1.780400
1.439700 1.634800
1.458900 1.406900
1.478000 1.158100
1.497200 0.967200
1.516300 0.849200
1.535500 0.777800
1.554600 0.766700
1.573800 0.852100
1.593000 0.996100
1.612100 1.081600
1.631300 1.044600
1.650400 0.971300
1.669600 1.018600
1.688700 1.251800
1.707900 1.587400
1.727100 1.882100
1.746200 2.052300
1.765400 2.089300
1.784500 1.988600
1.803700 1.742100
1.822800 1.419900
1.842000 1.175200
1.861100 1.133200
1.880300 1.303200
1.899500 1.587300
1.918600 1.852600
1.937800 2.016000
1.956900 2.074500
1.976100 2.059600
1.995200 1.980000
2.014400 1.822500
2.033600 1.606600
2.052700 1.415000
2.071900 1.348300
2.091000 1.453700
2.110200 1.701800
2.129300 2.001500
2.148500 2.228400
2.167700 2.281100
2.186800 2.138200
2.206000 1.878600
2.225100 1.657400
2.244300 1.615200
2.263400 1.762600
2.282600 1.970200
2.301800 2.098500
2.320900 2.120400
2.340100 2.116100
2.359200 2.179500
2.378400 2.331400
2.397500 2.485500
2.416700 2.510100
2.435800 2.368500
2.455000 2.158700
2.474200 1.967700
2.493300 1.756800
2.512500 1.457400
2.531600 1.125400
2.550800 0.941700
2.569900 1.049500
2.589100 1.394100
2.608300 1.755300
2.627400 1.956500
2.646600 1.998400
2.665700 1.983800
2.684900 1.999800
2.704000 2.076400
2.723200 2.165400
2.742400 2.157500
2.761500 2.010600
2.780700 1.856900
2.799800 1.890200
2.819000 2.132400
2.838100 2.398000
2.857300 2.515200
2.876400 2.501900
2.895600 2.481400
2.914800 2.494000
2.933900 2.483400
2.953100 2.442900
2.972200 2.467200
2.991400 2.622900
3.010500 2.816500
3.029700 2.845000
3.048900 2.600600
3.068000 2.164400
3.087200 1.676000
3.106300 1.222000
3.125500 0.877400
3.144600 0.737700
3.163800 0.860400
3.183000 1.195700
3.202100 1.578100
3.221300 1.825800
3.240400 1.887100
3.259600 1.852100
3.278700 1.809100
3.297900 1.760100
3.317000 1.689600
3.336200 1.624600
3.355400 1.592200
3.374500 1.575800
3.393700 1.538900
3.412800 1.466100
3.432000 1.384200
3.451100 1.365800
3.470300 1.502800
3.489500 1.840700
3.508600 2.304100
3.527800 2.703300
3.546900 2.867200
3.566100 2.766000
3.585200 2.469200
3.604400 2.050100
3.623600 1.618200
3.642700 1.372700
3.661900 1.484200
3.681000 1.895500
3.700200 2.305900
3.719300 2.416600
3.738500 2.211600
3.757600 1.973900
3.776800 1.994900
3.796000 2.286700
3.815100 2.611900
3.834300 2.755700
3.853400 2.683600
3.872600 2.465200
3.891700 2.173500
3.910900 1.886100
3.930100 1.698600
3.949200 1.694700
3.968400 1.886100
3.987500 2.145900
4.006700 2.250300
4.025800 2.081900
4.045000 1.767200
4.064200 1.533300
4.083300 1.477800
4.102500 1.535500
4.121600 1.606500
4.140800 1.651500
4.159900 1.686800
4.179100 1.729800
4.198300 1.752100
4.217400 1.683500
4.236600 1.491200
4.255700 1.247500
4.274900 1.058600
4.294000 0.928500
4.313200 0.772800
4.332300 0.565700
4.351500 0.383400
4.370700 0.297400
4.389800 0.299800
4.409000 0.347300
4.428100 0.428800
4.447300 0.586800
4.466400 0.893600
4.485600 1.373300
4.504800 1.903300
4.523900 2.243400
4.543100 2.238100
4.562200 1.969700
4.581400 1.673700
4.600500 1.528500
4.619700 1.524800
4.638900 1.508700
4.658000 1.362700
4.677200 1.132100
4.696300 0.954900
4.715500 0.910600
4.734600 0.972900
4.753800 1.075100
4.772900 1.184000
4.792100 1.311100
4.811300 1.469000
4.830400 1.630800
4.849600 1.733600
4.868700 1.735000
4.887900 1.688600
4.907000 1.729600
4.926200 1.913900
4.945400 2.121600
4.964500 2.222800
4.983700 2.274500
5.002800 2.440500
5.022000 2.756500
5.041100 3.070900
5.060300 3.202100
5.079500 3.097700
5.098600 2.839900
5.117800 2.535900
5.136900 2.235200
5.156100 1.942300
5.175200 1.670100
5.194400 1.460700
5.213500 1.356000
5.232700 1.350200
5.251900 1.374400
5.271000 1.345700
5.290200 1.232700
5.309300 1.057700
5.328500 0.858000
5.347600 0.677600
5.366800 0.567200
5.386000 0.547200
5.405100 0.585000
5.424300 0.629800
5.443400 0.666300
5.462600 0.719400
5.481700 0.806900
5.500900 0.900400
5.520100 0.933900
5.539200 0.853300
5.558400 0.678100
5.577500 0.515600
5.596700 0.486100
5.615800 0.614200
5.635000 0.802700
5.654200 0.929300
5.673300 0.971300
5.692500 1.010800
5.711600 1.108600
5.730800 1.215300
5.749900 1.249400
5.769100 1.224200
5.788200 1.235800
5.807400 1.337600
5.826600 1.481900
5.845700 1.579100
5.864900 1.568200
5.884000 1.434600
5.903200 1.199800
5.922300 0.916500
5.941500 0.652400
5.960700 0.457200
5.979800 0.347100
5.999000 0.327400
6.018100 0.409600
6.037300 0.589200
6.056400 0.821000
6.075600 1.044000
6.094800 1.234100
6.113900 1.406600
6.133100 1.568300
6.152200 1.701600
6.171400 1.798000
6.190500 1.882700
6.209700 1.981200
6.228800 2.060800
6.248000 2.062800
6.267200 2.014700
6.286300 2.036100
6.305500 2.188800
6.324600 2.384700
6.343800 2.482600
6.362900 2.408700
6.382100 2.158200
6.401300 1.767700
6.420400 1.333100
6.439600 0.981400
6.458700 0.786800
6.477900 0.755300
6.497000 0.883900
6.516200 1.159700
6.535400 1.488600
6.554500 1.705200
6.573700 1.718300
6.592800 1.614100
6.612000 1.569300
6.631100 1.670600
6.650300 1.842800
6.669400 1.934500
6.688600 1.841500
6.707800 1.567200
6.726900 1.212200
6.746100 0.910400
6.765200 0.746600
6.784400 0.722700
6.803500 0.796500
6.822700 0.933600
6.841900 1.109800
6.861000 1.286800
6.880200 1.438300
6.899300 1.613400
6.918500 1.884600
6.937600 2.180900
6.956800 2.292700
6.976000 2.131000
6.995100 1.860700
7.014300 1.703700
7.033400 1.722200
7.052600 1.835900
7.071700 1.947900
7.090900 2.001900
7.110100 1.969200
7.129200 1.828300
7.148400 1.580000
7.167500 1.288500
7.186700 1.080600
7.205800 1.069600
7.225000 1.272000
7.244100 1.598100
7.263300 1.906000
7.282500 2.082700
7.301600 2.118700
7.320800 2.083300
7.339900 2.010900
7.359100 1.870000
7.378200 1.659100
7.397400 1.462200
7.416600 1.378200
7.435700 1.442100
7.454900 1.633800
7.474000 1.900300
7.493200 2.159000
7.512300 2.343000
7.531500 2.452700
7.550700 2.535800
7.569800 2.656900
7.589000 2.897400
7.608100 3.295100
7.627300 3.745300
7.646400 4.013900
7.665600 3.891600
7.684700 3.373300
7.703900 2.694300
7.723100 2.150300
7.742200 1.870900
7.761400 1.785200
7.780500 1.790200
7.799700 1.869100
7.818800 2.012300
7.838000 2.129000
7.857200 2.127000
7.876300 2.011900
7.895500 1.853300
7.914600 1.713800
7.933800 1.643300
7.952900 1.680700
7.972100 1.813400
7.991300 1.973000
8.010400 2.111700
8.029600 2.253100
8.048700 2.422700
8.067900 2.561900
8.087000 2.596100
8.106200 2.574700
8.125300 2.630900
8.144500 2.796000
8.163700 2.937500
8.182800 2.906900
8.202000 2.734100
8.221100 2.646100
8.240300 2.821800
8.259400 3.152100
8.278600 3.344700
8.297800 3.228100
8.316900 2.864500
8.336100 2.438100
8.355200 2.116400
8.374400 1.967900
8.393500 1.939600
8.412700 1.912000
8.431900 1.811100
8.451000 1.683500
8.470200 1.638800
8.489300 1.717100
8.508500 1.857500
8.527600 1.996500
8.546800 2.145300
8.566000 2.354700
8.585100 2.637400
8.604300 2.937600
8.623400 3.150000
8.642600 3.157500
8.661700 2.899000
8.680900 2.455800
8.700000 2.047800
8.719200 1.867800
8.738400 1.889800
8.757500 1.906100
8.776700 1.766900
8.795800 1.508100
8.815000 1.250000
8.834100 1.081800
8.853300 1.034700
8.872500 1.091100
8.891600 1.235500
8.910800 1.506200
8.929900 1.930200
8.949100 2.416800
8.968200 2.789000
8.987400 2.942300
9.006600 2.946800
9.025700 2.970900
9.044900 3.102600
9.064000 3.254300
9.083200 3.246700
9.102300 2.988100
9.121500 2.567700
9.140600 2.161000
9.159800 1.856200
9.179000 1.610000
9.198100 1.370800
9.217300 1.189200
9.236400 1.181700
9.255600 1.426200
9.274700 1.888500
9.293900 2.402300
9.313100 2.724100
9.332200 2.683400
9.351400 2.313900
9.370500 1.822000
9.389700 1.426100
9.408800 1.224500
9.428000 1.198000
9.447200 1.310500
9.466300 1.567500
9.485500 1.939300
9.504600 2.280100
9.523800 2.417600
9.542900 2.313300
9.562100 2.063800
9.581200 1.777100
9.600400 1.521500
9.619600 1.375200
9.638700 1.431500
9.657900 1.693400
9.677000 1.982500
9.696200 2.044200
9.715300 1.791300
9.734500 1.389900
9.753700 1.082500
9.772800 0.978900
9.792000 1.007600
9.811100 1.028800
9.830300 1.010700
9.849400 1.093000
9.868600 1.441400
9.887800 2.042700
9.906900 2.685100
9.926100 3.146400
9.945200 3.343500
9.964400 3.290100
9.983500 3.011900
10.002700 2.553000
10.021800 2.002800
10.041000 1.494800
10.060200 1.181300
10.079300 1.156800
10.098500 1.363400
10.117600 1.601300
10.136800 1.680000
10.155900 1.562600
10.175100 1.353400
10.194300 1.174600
10.213400 1.080800
10.232600 1.071200
10.251700 1.149700
10.270900 1.343500
10.290000 1.636000
10.309200 1.905800
10.328400 2.019000
10.347500 2.009300
10.366700 2.085600
10.385800 2.387600
10.405000 2.805800
10.424100 3.128400
10.443300 3.281000
10.462500 3.309400
10.481600 3.225200
10.500800 3.002600
10.519900 2.671500
10.539100 2.334000
10.558200 2.095200
10.577400 1.974700
10.596500 1.894700
10.615700 1.799800
10.634900 1.739200
10.654000 1.756200
10.673200 1.782800
10.692300 1.751700
10.711500 1.720300
10.730600 1.781000
10.749800 1.915500
10.769000 2.014100
10.788100 1.987300
10.807300 1.825200
10.826400 1.588800
10.845600 1.372600
10.864700 1.257300
10.883900 1.271100
10.903100 1.377800
10.922200 1.503900
10.941400 1.609300
10.960500 1.734400
10.979700 1.928200
10.998800 2.132300
11.018000 2.218800
11.037100 2.156300
11.056300 2.054100
11.075500 2.015800
11.094600 2.017100
11.113800 1.955900
11.132900 1.787100
11.152100 1.594400
11.171200 1.547100
11.190400 1.769500
11.209600 2.207700
11.228700 2.631800
11.247900 2.816100
11.267000 2.720400
11.286200 2.487600
11.305300 2.297800
11.324500 2.218400
11.343700 2.171500
11.362800 2.062100
11.382000 1.920100
11.401100 1.862600
11.420300 1.940900
11.439400 2.095600
11.458600 2.229400
11.477700 2.265900
11.496900 2.173000
11.516100 1.963800
11.535200 1.669600
11.554400 1.340000
11.573500 1.073200
11.592700 0.992900
11.611800 1.166000
11.631000 1.520100
11.650200 1.829900
11.669300 1.868500
11.688500 1.648900
11.707600 1.448100
11.726800 1.520800
11.745900 1.841900
11.765100 2.178100
11.784300 2.341600
11.803400 2.296900
11.822600 2.090600
11.841700 1.809900
11.860900 1.583100
11.880000 1.509500
11.899200 1.587500
11.918400 1.753100
11.937500 1.947000
11.956700 2.126800
11.975800 2.255100
11.995000 2.288600
12.014100 2.183100
12.033300 1.964900
12.052400 1.806300
12.071600 1.907600
12.090800 2.234400
12.109900 2.481400
12.129100 2.388200
12.148200 2.008700
12.167400 1.597900
12.186500 1.328700
12.205700 1.199600
12.224900 1.141500
12.244000 1.125100
12.263200 1.173500
12.282300 1.304300
12.301500 1.479200
12.320600 1.619900
12.339800 1.668500
12.359000 1.615900
12.378100 1.491300
12.397300 1.359200
12.416400 1.295300
12.435600 1.340100
12.454700 1.521200
12.473900 1.882800
12.493000 2.399200
12.512200 2.912400
12.531400 3.242700
12.550500 3.305300
12.569700 3.086700
12.588800 2.623800
12.608000 2.062400
12.627100 1.629700
12.646300 1.464300
12.665500 1.493700
12.684600 1.524700
12.703800 1.449600
12.722900 1.328400
12.742100 1.268100
12.761200 1.275500
12.780400 1.257600
12.799600 1.145200
12.818700 0.980400
12.837900 0.877600
12.857000 0.921200
12.876200 1.100800
12.895300 1.325300
12.914500 1.499000
12.933600 1.592500
12.952800 1.646600
12.972000 1.731700
12.991100 1.908300
13.010300 2.175200
13.029400 2.425200
13.048600 2.504600
13.067700 2.376300
13.086900 2.178800
13.106100 2.067100
13.125200 2.040200
13.144400 1.985400
13.163500 1.862300
13.182700 1.772900
13.201800 1.822000
13.221000 1.964300
13.240200 2.068300
13.259300 2.104300
13.278500 2.168400
13.297600 2.328900
13.316800 2.538400
13.335900 2.696900
13.355100 2.748600
13.374300 2.716100
13.393400 2.639200
13.412600 2.495700
13.431700 2.233800
13.450900 1.879500
13.470000 1.552400
13.489200 1.360200
13.508300 1.309800
13.527500 1.340500
13.546700 1.407200
13.565800 1.486900
13.585000 1.542300
13.604100 1.537300
13.623300 1.470600
13.642400 1.371900
13.661600 1.289900
13.680800 1.290500
13.699900 1.420800
13.719100 1.634800
13.738200 1.798500
13.757400 1.824000
13.776500 1.765000
13.795700 1.734100
13.814900 1.768000
13.834000 1.830200
13.853200 1.906300
13.872300 1.994900
13.891500 2.026000
13.910600 1.930500
13.929800 1.798600
13.948900 1.807700
13.968100 1.982500
13.987300 2.175300
14.006400 2.275600
14.025600 2.295200
14.044700 2.255900
14.063900 2.116700
14.083000 1.849600
14.102200 1.538000
14.121400 1.352000
14.140500 1.397900
14.159700 1.615300
14.178800 1.857600
14.198000 2.056100
14.217100 2.276600
14.236300 2.609000
14.255500 2.997200
14.274600 3.201400
14.293800 3.006600
14.312900 2.478500
14.332100 1.949200
14.351200 1.745800
14.370400 1.946200
14.389500 2.345100
14.408700 2.632600
14.427900 2.637900
14.447000 2.412900
14.466200 2.111400
14.485300 1.853900
14.504500 1.712200
14.523600 1.726000
14.542800 1.856100
14.562000 1.985600
14.581100 2.038800
14.600300 2.046800
14.619400 2.060900
14.638600 2.090200
14.657700 2.171700
14.676900 2.385900
14.696100 2.725600
14.715200 3.045300
14.734400 3.213700
14.753500 3.219300
14.772700 3.078900
14.791800 2.785400
14.811000 2.434800
14.830200 2.261900
14.849300 2.428800
14.868500 2.846400
14.887600 3.264400
14.906800 3.487200
14.925900 3.492200
14.945100 3.390300
14.964200 3.278800
14.983400 3.150900
15.002600 2.971100
15.021700 2.783300
15.040900 2.703000
15.060000 2.841400
15.079200 3.219100
15.098300 3.690100
15.117500 4.003800
15.136700 4.036500
15.155800 3.926200
15.175000 3.906900
15.194100 4.040200
15.213300 4.167800
15.232400 4.111900
15.251600 3.868800
15.270800 3.583200
15.289900 3.389000
15.309100 3.320000
15.328200 3.336500
15.347400 3.406400
15.366500 3.561000
15.385700 3.849000
15.404800 4.246600
15.424000 4.659300
15.443200 4.977100
15.462300 5.106200
15.481500 5.005100
15.500600 4.698200
15.519800 4.231500
15.538900 3.665400
15.558100 3.129100
15.577300 2.804800
15.596400 2.798000
15.615600 3.017800
15.634700 3.222400
15.653900 3.221600
15.673000 3.032100
15.692200 2.839500
15.711400 2.831500
15.730500 3.049600
15.749700 3.381000
15.768800 3.695300
15.788000 3.925200
15.807100 4.002000
15.826300 3.853400
15.845400 3.528900
15.864600 3.200600
15.883800 2.994300
15.902900 2.912600
15.922100 2.899200
15.941200 2.885300
15.960400 2.809800
15.979500 2.681200
15.998700 2.592900
16.017900 2.627900
16.037000 2.761900
16.056200 2.895900
16.075300 2.997600
16.094500 3.166900
16.113600 3.493800
16.132800 3.871500
16.152000 4.049000
16.171100 3.881100
16.190300 3.451500
16.209400 2.958700
16.228600 2.592700
16.247700 2.520400
16.266900 2.823400
16.286000 3.364500
16.305200 3.810200
16.324400 3.864400
16.343500 3.490200
16.362700 2.919100
16.381800 2.456200
16.401000 2.261900
16.420100 2.296600
16.439300 2.422000
16.458500 2.515400
16.477600 2.537700
16.496800 2.544700
16.515900 2.614300
16.535100 2.754600
16.554200 2.888000
16.573400 2.919300
16.592600 2.840000
16.611700 2.772800
16.630900 2.864300
16.650000 3.103700
16.669200 3.287100
16.688300 3.226200
16.707500 2.995400
16.726700 2.883800
16.745800 3.074500
16.765000 3.451200
16.784100 3.722600
16.803300 3.682200
16.822400 3.370600
16.841600 3.008300
16.860700 2.751000
16.879900 2.551000
16.899100 2.287400
16.918200 1.952200
16.937400 1.657200
16.956500 1.514700
16.975700 1.539600
16.994800 1.636200
17.014000 1.699300
17.033200 1.737800
17.052300 1.851800
17.071500 2.090100
17.090600 2.395700
17.109800 2.688000
17.128900 2.929600
17.148100 3.097900
17.167300 3.147800
17.186400 3.044300
17.205600 2.818700
17.224700 2.557200
17.243900 2.315600
17.263000 2.081500
17.282200 1.853200
17.301300 1.695500
17.320500 1.665700
17.339700 1.749500
17.358800 1.920000
17.378000 2.198000
17.397100 2.610600
17.416300 3.119300
17.435400 3.603900
17.454600 3.909800
17.473800 3.930900
17.492900 3.692400
17.512100 3.358000
17.531200 3.103900
17.550400 2.982400
17.569500 2.963200
17.588700 3.054900
17.607900 3.281000
17.627000 3.582900
17.646200 3.837900
17.665300 3.940700
17.684500 3.843600
17.703600 3.599100
17.722800 3.381700
17.741900 3.373900
17.761100 3.581600
17.780300 3.803500
17.799400 3.827800
17.818600 3.627600
17.837700 3.323600
17.856900 3.004300
17.876000 2.663600
17.895200 2.300700
17.914400 1.997700
17.933500 1.860600
17.952700 1.917700
17.971800 2.094800
17.991000 2.264100
18.010100 2.330300
18.029300 2.333500
18.048500 2.475600
18.067600 2.958700
18.086800 3.722700
18.105900 4.404600
18.125100 4.660800
18.144200 4.468400
18.163400 4.024600
18.182600 3.508400
18.201700 3.077100
18.220900 2.903700
18.240000 3.038100
18.259200 3.329400
18.278300 3.579000
18.297500 3.694800
18.316600 3.665000
18.335800 3.489900
18.355000 3.201600
18.374100 2.893900
18.393300 2.670300
18.412400 2.551600
18.431600 2.468700
18.450700 2.379400
18.469900 2.354900
18.489100 2.487000
18.508200 2.744800
18.527400 3.010700
18.546500 3.236400
18.565700 3.470100
18.584800 3.720800
18.604000 3.875600
18.623200 3.802500
18.642300 3.490800
18.661500 3.048500
18.680600 2.622700
18.699800 2.372300
18.718900 2.448900
18.738100 2.902700
18.757200 3.590400
18.776400 4.230100
18.795600 4.579000
18.814700 4.537500
18.833900 4.131000
18.853000 3.499700
18.872200 2.878800
18.891300 2.473000
18.910500 2.343100
18.929700 2.425000
18.948800 2.595900
18.968000 2.739800
18.987100 2.843200
19.006300 2.994000
19.025400 3.212900
19.044600 3.370000
19.063800 3.338600
19.082900 3.127600
19.102100 2.805100
19.121200 2.415700
19.140400 2.040200
19.159500 1.828000
19.178700 1.886300
19.197800 2.170600
19.217000 2.497500
19.236200 2.662400
19.255300 2.595800
19.274500 2.428700
19.293600 2.360800
19.312800 2.468800
19.331900 2.660600
19.351100 2.775200
19.370300 2.698300
19.389400 2.425700
19.408600 2.071000
19.427700 1.823500
19.446900 1.865300
19.466000 2.255500
19.485200 2.843900
19.504400 3.327800
19.523500 3.467200
19.542700 3.262700
19.561800 2.895000
19.581000 2.528500
19.600100 2.249800
19.619300 2.149200
19.638500 2.329100
19.657600 2.783200
19.676800 3.326600
19.695900 3.717200
19.715100 3.887600
19.734200 3.985500
19.753400 4.094800
19.772500 4.040800
19.791700 3.635700
19.810900 3.007200
19.830000 2.524800
19.849200 2.448500
19.868300 2.712000
19.887500 3.011300
19.906600 3.088200
19.925800 2.910700
19.945000 2.592600
19.964100 2.250200
19.983300 1.993000
20.002400 1.932400
20.021600 2.082000
20.040700 2.307200
20.059900 2.459500
20.079100 2.518200
20.098200 2.553300
20.117400 2.599600
20.136500 2.611300
20.155700 2.529500
20.174800 2.378700
20.194000 2.274900
20.213100 2.331500
20.232300 2.563000
20.251500 2.853600
20.270600 3.019000
20.289800 2.956100
20.308900 2.752000
20.328100 2.612900
20.347200 2.666000
20.366400 2.819500
20.385600 2.838000
20.404700 2.604300
20.423900 2.288800
20.443000 2.188800
20.462200 2.407100
20.481300 2.742900
20.500500 2.904500
20.519700 2.808600
20.538800 2.651400
20.558000 2.686300
20.577100 2.958200
20.596300 3.274900
20.615400 3.415800
20.634600 3.336600
20.653700 3.164900
20.672900 3.031200
20.692100 2.940200
20.711200 2.814700
20.730400 2.629400
20.749500 2.440600
20.768700 2.298500
20.787800 2.211400
20.807000 2.170000
20.826200 2.118700
20.845300 1.974900
20.864500 1.778300
20.883600 1.728800
20.902800 1.960300
20.921900 2.343400
20.941100 2.631400
20.960300 2.764800
20.979400 2.902800
20.998600 3.148700
21.017700 3.383300
21.036900 3.435100
21.056000 3.319200
21.075200 3.206800
21.094300 3.215300
21.113500 3.324600
21.132700 3.469200
21.151800 3.618000
21.171000 3.758600
21.190100 3.856200
21.209300 3.838500
21.228400 3.647500
21.247600 3.333600
21.266800 3.050500
21.285900 2.924600
21.305100 2.974500
21.324200 3.119100
21.343400 3.204600
21.362500 3.101000
21.381700 2.847600
21.400900 2.632400
21.420000 2.581900
21.439200 2.656200
21.458300 2.788200
21.477500 3.014400
21.496600 3.375300
21.515800 3.756700
21.535000 3.950800
21.554100 3.853500
21.573300 3.514600
21.592400 3.032400
21.611600 2.511000
21.630700 2.099700
21.649900 1.947600
21.669000 2.073100
21.688200 2.339100
21.707400 2.583900
21.726500 2.733600
21.745700 2.804600
21.764800 2.852600
21.784000 2.901400
21.803100 2.915700
21.822300 2.878100
21.841500 2.842600
21.860600 2.857300
21.879800 2.913500
21.898900 3.005000
21.918100 3.133900
21.937200 3.245900
21.956400 3.262700
21.975600 3.181100
21.994700 3.075400
22.013900 3.050300
22.033000 3.231100
22.052200 3.683300
22.071300 4.290800
22.090500 4.825600
22.109600 5.150100
22.128800 5.256700
22.148000 5.136600
22.167100 4.721800
22.186300 3.997100
22.205400 3.121800
22.224600 2.367100
22.243700 1.926300
22.262900 1.821500
22.282100 1.964500
22.301200 2.250200
22.320400 2.585300
22.339500 2.854800
22.358700 2.927800
22.377800 2.772900
22.397000 2.538300
22.416200 2.398500
22.435300 2.352700
22.454500 2.296300
22.473600 2.236800
22.492800 2.304100
22.511900 2.564000
22.531100 2.913000
22.550200 3.166100
22.569400 3.209400
22.588600 3.065900
22.607700 2.847100
22.626900 2.676400
22.646000 2.649000
22.665200 2.791200
22.684300 3.007200
22.703500 3.114800
22.722700 3.027700
22.741800 2.903900
22.761000 3.023200
22.780100 3.498800
22.799300 4.181500
22.818400 4.816600
22.837600 5.196400
22.856800 5.236500
22.875900 5.012500
22.895100 4.663700
22.914200 4.254100
22.933400 3.804500
22.952500 3.369600
22.971700 2.992000
22.990900 2.684600
23.010000 2.527800
23.029200 2.691100
23.048300 3.268300
23.067500 4.106900
23.086600 4.875300
23.105800 5.311300
23.124900 5.352800
23.144100 5.085800
23.163300 4.688300
23.182400 4.361100
23.201600 4.195700
23.220700 4.143300
23.239900 4.115300
23.259000 4.064900
23.278200 4.015900
23.297400 4.060000
23.316500 4.273900
23.335700 4.583800
23.354800 4.757200
23.374000 4.610300
23.393100 4.209600
23.412300 3.813700
23.431500 3.634800
23.450600 3.683600
23.469800 3.801500
23.488900 3.812000
23.508100 3.663700
23.527200 3.437900
23.546400 3.215700
23.565500 2.990700
23.584700 2.741000
23.603900 2.531100
23.623000 2.480100
23.642200 2.630300
23.661300 2.873300
23.680500 3.022200
23.699600 2.971900
23.718800 2.796200
23.738000 2.705100
23.757100 2.917900
23.776300 3.488000
23.795400 4.181400
23.814600 4.628500
23.833700 4.660500
23.852900 4.424100
23.872100 4.194500
23.891200 4.163500
23.910400 4.314800
23.929500 4.434100
23.948700 4.338600
23.967800 4.097300
23.987000 3.935800
24.006100 3.973700
24.025300 4.115700
24.044500 4.165700
24.063600 4.013400
24.082800 3.700100
24.101900 3.314700
24.121100 2.906300
24.140200 2.526000
24.159400 2.272700
24.178600 2.241500
24.197700 2.420300
24.216900 2.645200
24.236000 2.718600
24.255200 2.612500
24.274300 2.507900
24.293500 2.605900
24.312700 2.927600
24.331800 3.322000
24.351000 3.655900
24.370100 3.938000
24.389300 4.246100
24.408400 4.607900
24.427600 4.969500
24.446800 5.212200
24.465900 5.200700
24.485100 4.890900
24.504200 4.398900
24.523400 3.896800
24.542500 3.453300
24.561700 3.052800
24.580800 2.735600
24.600000 2.598200
24.619200 2.655300
24.638300 2.795900
24.657500 2.901500
24.676600 2.964200
24.695800 3.061100
24.714900 3.226700
24.734100 3.407900
24.753300 3.564000
24.772400 3.727400
24.791600 3.908400
24.810700 4.014500
24.829900 3.927300
24.849000 3.648300
24.868200 3.345200
24.887400 3.216700
24.906500 3.290700
24.925700 3.403400
24.944800 3.383300
24.964000 3.180200
24.983100 2.837900
25.002300 2.436800
25.021400 2.077600
25.040600 1.878800
25.059800 1.942800
25.078900 2.274400
25.098100 2.722100
25.117200 3.036500
25.136400 3.026400
25.155500 2.693000
25.174700 2.212800
25.193900 1.769000
25.213000 1.437400
25.232200 1.250700
25.251300 1.267300
25.270500 1.504300
25.289600 1.872300
25.308800 2.226500
25.328000 2.435600
25.347100 2.395600
25.366300 2.082100
25.385400 1.637600
25.404600 1.310400
25.423700 1.237000
25.442900 1.329700
25.462000 1.412500
25.481200 1.408300
25.500400 1.340400
25.519500 1.229400
25.538700 1.092100
25.557800 0.989400
25.577000 0.969400
25.596100 1.003600
25.615300 1.050800
25.634500 1.136800
25.653600 1.301200
25.672800 1.492600
25.691900 1.586100
25.711100 1.516400
25.730200 1.342000
25.749400 1.166300
25.768600 1.036000
25.787700 0.919600
25.806900 0.763800
25.826000 0.573300
25.845200 0.422500
25.864300 0.376000
25.883500 0.419900
25.902700 0.493500
25.921800 0.574800
25.941000 0.689000
25.960100 0.821300
25.979300 0.875500
25.998400 0.769100
26.017600 0.535800
26.036700 0.293000
26.055900 0.131900
26.075100 0.070500
26.094200 0.083000
26.113400 0.131400
26.132500 0.172500
26.151700 0.172000
26.170800 0.129400
26.190000 0.074900
26.209200 0.038200
26.228300 0.027800
26.247500 0.035000
26.266600 0.046700
26.285800 0.056600
26.304900 0.072000
26.324100 0.106200
26.343300 0.155900
26.362400 0.194000
26.381600 0.194300
26.400700 0.159200
26.419900 0.115500
26.439000 0.089600
26.458200 0.092500
26.477300 0.115200
26.496500 0.132600
26.515700 0.123100
26.534800 0.088300
26.554000 0.048300
26.573100 0.020100
26.592300 0.006300
26.611400 0.001500
26.630600 0.000300
26.649800 0.000000
26.668900 0.000000
26.688100 0.000000
26.707200 0.000000
26.726400 0.000000
26.745500 0.000000
26.764700 0.000000
26.783900 0.000000
26.803000 0.000000
26.822200 0.000000
26.841300 0.000000
26.860500 0.000000
26.879600 0.000000
26.898800 0.000000
26.917900 0.000000
26.937100 0.000000
26.956300 0.000000
26.975400 0.000000
26.994600 0.000000
27.013700 0.000000
27.032900 0.000000
27.052000 0.000000
27.071200 0.000000
27.090400 0.000000
27.109500 0.000000
27.128700 0.000000
27.147800 0.000000
27.167000 0.000000
27.186100 0.000000
27.205300 0.000000
27.224500 0.000000
27.243600 0.000000
27.262800 0.000000
27.281900 0.000000
27.301100 0.000000
27.320200 0.000000
27.339400 0.000000
27.358500 0.000000
27.377700 0.000000
27.396900 0.000000
27.416000 0.000000
27.435200 0.000000
27.454300 0.000000
27.473500 0.000000
27.492600 0.000000
27.511800 0.000000
27.531000 0.000000
27.550100 0.000000
27.569300 0.000000
27.588400 0.000000
27.607600 0.000000
27.626700 0.000000
27.645900 0.000000
27.665100 0.000000
27.684200 0.000000
27.703400 0.000000
27.722500 0.000000
27.741700 0.000000
27.760800 0.000000
27.780000 0.000000
27.799200 0.000000
27.818300 0.000000
27.837500 0.000000
27.856600 0.000000
27.875800 0.000000
27.894900 0.000000
27.914100 0.000000
27.933200 0.000000
27.952400 0.000000
27.971600 0.000000
27.990700 0.000000
28.009900 0.000000
28.029000 0.000000
28.048200 0.000000
28.067300 0.000000
28.086500 0.000000
28.105700 0.000000
28.124800 0.000000
28.144000 0.000000
28.163100 0.000000
28.182300 0.000000
28.201400 0.000000
28.220600 0.000000
28.239800 0.000000
e
