set title 'mp-1184006 - Density of States'
set xlabel 'Energy (eV)'
set ylabel 'DOS (states/eV)'
set grid
set xrange [-10:10]
set yrange [0:92.962]
set xzeroaxis lt -1
set terminal png size 800,600
set output 'mp-1184006_dos_gnuplot.png'
plot '-' using 1:2 with lines title 'DOS'
-11.597400 0.000000
-11.567900 0.000000
-11.538400 0.000000
-11.509000 0.000000
-11.479500 0.000000
-11.450000 0.000000
-11.420500 0.000000
-11.391000 0.000000
-11.361500 0.000000
-11.332000 0.000000
-11.302500 0.000000
-11.273100 0.000000
-11.243600 0.000000
-11.214100 0.000000
-11.184600 0.000000
-11.155100 0.000000
-11.125600 0.000000
-11.096100 0.000000
-11.066600 0.000000
-11.037200 0.000000
-11.007700 0.000000
-10.978200 0.000000
-10.948700 0.000000
-10.919200 0.000000
-10.889700 0.000000
-10.860200 0.000000
-10.830700 0.000000
-10.801300 0.000000
-10.771800 0.000000
-10.742300 0.000000
-10.712800 0.000000
-10.683300 0.000000
-10.653800 0.000000
-10.624300 0.000000
-10.594800 0.000000
-10.565400 0.000000
-10.535900 0.000000
-10.506400 0.000000
-10.476900 0.000000
-10.447400 0.000000
-10.417900 0.000000
-10.388400 0.000000
-10.358900 0.000000
-10.329400 0.000000
-10.300000 0.000000
-10.270500 0.000000
-10.241000 0.000000
-10.211500 0.000000
-10.182000 0.000000
-10.152500 0.000000
-10.123000 0.000000
-10.093500 0.000000
-10.064100 0.000000
-10.034600 0.000000
-10.005100 0.000000
-9.975600 0.000000
-9.946100 0.000000
-9.916600 0.000000
-9.887100 0.000000
-9.857600 0.000000
-9.828200 0.000000
-9.798700 0.000000
-9.769200 0.000000
-9.739700 0.000000
-9.710200 0.000000
-9.680700 0.000000
-9.651200 0.000000
-9.621700 0.000000
-9.592300 0.000000
-9.562800 0.000000
-9.533300 0.000000
-9.503800 0.000000
-9.474300 0.000000
-9.444800 0.000000
-9.415300 0.000000
-9.385800 0.000000
-9.356400 0.000000
-9.326900 0.000000
-9.297400 0.000000
-9.267900 0.000000
-9.238400 0.000000
-9.208900 0.000000
-9.179400 0.000000
-9.149900 0.000000
-9.120500 0.000000
-9.091000 0.000000
-9.061500 0.000000
-9.032000 0.001600
-9.002500 0.038200
-8.973000 0.526500
-8.943500 4.171800
-8.914000 19.205200
-8.884600 51.990700
-8.855100 84.185700
-8.825600 84.511300
-8.796100 56.356900
-8.766600 26.838300
-8.737100 9.052500
-8.707600 1.973100
-8.678100 0.253800
-8.648700 0.018300
-8.619200 0.000700
-8.589700 0.000000
-8.560200 0.000000
-8.530700 0.000000
-8.501200 0.000000
-8.471700 0.000000
-8.442200 0.000000
-8.412700 0.000000
-8.383300 0.000000
-8.353800 0.000000
-8.324300 0.000000
-8.294800 0.000000
-8.265300 0.000000
-8.235800 0.000000
-8.206300 0.000000
-8.176800 0.000000
-8.147400 0.000000
-8.117900 0.000000
-8.088400 0.000000
-8.058900 0.000000
-8.029400 0.000000
-7.999900 0.000000
-7.970400 0.000000
-7.940900 0.000000
-7.911500 0.000000
-7.882000 0.000000
-7.852500 0.000000
-7.823000 0.000000
-7.793500 0.000000
-7.764000 0.000000
-7.734500 0.000000
-7.705000 0.000000
-7.675600 0.000000
-7.646100 0.000000
-7.616600 0.000000
-7.587100 0.000000
-7.557600 0.000000
-7.528100 0.000000
-7.498600 0.000000
-7.469100 0.000000
-7.439700 0.000000
-7.410200 0.000000
-7.380700 0.000000
-7.351200 0.000000
-7.321700 0.000000
-7.292200 0.000000
-7.262700 0.000000
-7.233200 0.000000
-7.203800 0.000000
-7.174300 0.000000
-7.144800 0.000000
-7.115300 0.000000
-7.085800 0.000000
-7.056300 0.000000
-7.026800 0.000000
-6.997300 0.000000
-6.967900 0.000000
-6.938400 0.000000
-6.908900 0.000000
-6.879400 0.000000
-6.849900 0.000000
-6.820400 0.000000
-6.790900 0.000000
-6.761400 0.000000
-6.732000 0.000000
-6.702500 0.000000
-6.673000 0.000000
-6.643500 0.000000
-6.614000 0.000000
-6.584500 0.000000
-6.555000 0.000000
-6.525500 0.000000
-6.496100 0.000000
-6.466600 0.000000
-6.437100 0.000000
-6.407600 0.000000
-6.378100 0.000000
-6.348600 0.000000
-6.319100 0.000000
-6.289600 0.000000
-6.260100 0.000000
-6.230700 0.000000
-6.201200 0.000000
-6.171700 0.000000
-6.142200 0.000000
-6.112700 0.000000
-6.083200 0.000000
-6.053700 0.000000
-6.024200 0.000000
-5.994800 0.000000
-5.965300 0.000000
-5.935800 0.000000
-5.906300 0.000000
-5.876800 0.000000
-5.847300 0.000000
-5.817800 0.000000
-5.788300 0.000000
-5.758900 0.000000
-5.729400 0.000000
-5.699900 0.000000
-5.670400 0.000000
-5.640900 0.000000
-5.611400 0.000000
-5.581900 0.000000
-5.552400 0.000000
-5.523000 0.000000
-5.493500 0.000000
-5.464000 0.000000
-5.434500 0.000000
-5.405000 0.000000
-5.375500 0.000000
-5.346000 0.000000
-5.316500 0.000000
-5.287100 0.000000
-5.257600 0.000000
-5.228100 0.000000
-5.198600 0.000000
-5.169100 0.000000
-5.139600 0.000000
-5.110100 0.000200
-5.080600 0.001900
-5.051200 0.008400
-5.021700 0.022100
-4.992200 0.039200
-4.962700 0.057800
-4.933200 0.092100
-4.903700 0.137800
-4.874200 0.135500
-4.844700 0.081200
-4.815300 0.060300
-4.785800 0.112900
-4.756300 0.186100
-4.726800 0.220200
-4.697300 0.227800
-4.667800 0.238400
-4.638300 0.215900
-4.608800 0.135300
-4.579400 0.072600
-4.549900 0.092800
-4.520400 0.172400
-4.490900 0.248700
-4.461400 0.297800
-4.431900 0.358500
-4.402400 0.400900
-4.372900 0.312400
-4.343400 0.165300
-4.314000 0.127100
-4.284500 0.192000
-4.255000 0.248300
-4.225500 0.267200
-4.196000 0.308500
-4.166500 0.357700
-4.137000 0.312400
-4.107500 0.203200
-4.078100 0.192100
-4.048600 0.318400
-4.019100 0.444100
-3.989600 0.478100
-3.960100 0.465700
-3.930600 0.389100
-3.901100 0.236600
-3.871600 0.155400
-3.842200 0.221100
-3.812700 0.327600
-3.783200 0.393000
-3.753700 0.452000
-3.724200 0.535400
-3.694700 0.554300
-3.665200 0.409600
-3.635700 0.223100
-3.606300 0.175500
-3.576800 0.260200
-3.547300 0.398100
-3.517800 0.576900
-3.488300 0.671800
-3.458800 0.515100
-3.429300 0.279400
-3.399800 0.253300
-3.370400 0.435600
-3.340900 0.603400
-3.311400 0.618800
-3.281900 0.564000
-3.252400 0.491200
-3.222900 0.377200
-3.193400 0.354800
-3.163900 0.486700
-3.134500 0.604000
-3.105000 0.655400
-3.075500 0.672300
-3.046000 0.542100
-3.016500 0.339000
-2.987000 0.302100
-2.957500 0.375300
-2.928000 0.423200
-2.898600 0.567400
-2.869100 0.782300
-2.839600 0.773800
-2.810100 0.673100
-2.780600 0.806800
-2.751100 0.995200
-2.721600 0.990600
-2.692100 0.855600
-2.662700 0.646700
-2.633200 0.405500
-2.603700 0.312600
-2.574200 0.456700
-2.544700 0.733000
-2.515200 0.956500
-2.485700 0.945300
-2.456200 0.742400
-2.426800 0.615900
-2.397300 0.646300
-2.367800 0.787000
-2.338300 0.914500
-2.308800 0.917100
-2.279300 0.950500
-2.249800 1.060800
-2.220300 1.158300
-2.190800 1.243500
-2.161400 1.171500
-2.131900 0.942600
-2.102400 0.831700
-2.072900 0.972400
-2.043400 1.154700
-2.013900 1.118000
-1.984400 0.982700
-1.954900 0.996000
-1.925500 1.146000
-1.896000 1.207600
-1.866500 1.093000
-1.837000 0.944300
-1.807500 0.847100
-1.778000 0.757200
-1.748500 0.753700
-1.719000 0.866000
-1.689600 0.827300
-1.660100 0.572100
-1.630600 0.404400
-1.601100 0.488700
-1.571600 0.722400
-1.542100 0.900500
-1.512600 0.840000
-1.483100 0.624800
-1.453700 0.465600
-1.424200 0.438100
-1.394700 0.508200
-1.365200 0.623600
-1.335700 0.673400
-1.306200 0.546000
-1.276700 0.336500
-1.247200 0.169000
-1.217800 0.063200
-1.188300 0.014800
-1.158800 0.001900
-1.129300 0.000100
-1.099800 0.000000
-1.070300 0.000000
-1.040800 0.000000
-1.011300 0.000100
-0.981900 0.000800
-0.952400 0.005800
-0.922900 0.021300
-0.893400 0.041800
-0.863900 0.044800
-0.834400 0.030600
-0.804900 0.031300
-0.775400 0.055100
-0.746000 0.068500
-0.716500 0.072400
-0.687000 0.126700
-0.657500 0.229100
-0.628000 0.276100
-0.598500 0.208600
-0.569000 0.105400
-0.539500 0.081700
-0.510100 0.167000
-0.480600 0.305100
-0.451100 0.473500
-0.421600 0.670400
-0.392100 0.743400
-0.362600 0.608100
-0.333100 0.407800
-0.303600 0.290700
-0.274100 0.370300
-0.244700 0.627200
-0.215200 0.827700
-0.185700 0.814000
-0.156200 0.672000
-0.126700 0.561700
-0.097200 0.593200
-0.067700 0.693700
-0.038200 0.750800
-0.008800 0.910400
0.020700 1.273700
0.050200 1.508600
0.079700 1.362300
0.109200 1.096700
0.138700 1.002600
0.168200 1.007700
0.197700 0.978500
0.227100 0.976800
0.256600 1.078000
0.286100 1.236600
0.315600 1.346500
0.345100 1.375200
0.374600 1.459800
0.404100 1.679500
0.433600 1.906200
0.463000 2.024300
0.492500 2.015900
0.522000 1.927600
0.551500 1.712900
0.581000 1.422900
0.610500 1.294000
0.640000 1.467500
0.669500 1.853800
0.698900 2.000800
0.728400 1.651600
0.757900 1.232500
0.787400 1.173200
0.816900 1.367300
0.846400 1.519900
0.875900 1.487800
0.905400 1.336200
0.934800 1.246100
0.964300 1.252700
0.993800 1.186000
1.023300 1.064000
1.052800 1.059800
1.082300 1.094900
1.111800 0.983600
1.141300 0.863600
1.170700 0.989400
1.200200 1.275500
1.229700 1.446000
1.259200 1.402500
1.288700 1.346600
1.318200 1.442300
1.347700 1.550100
1.377200 1.540300
1.406600 1.452900
1.436100 1.351700
1.465600 1.385500
1.495100 1.687100
1.524600 2.077400
1.554100 2.151400
1.583600 1.867300
1.613100 1.571800
1.642600 1.582600
1.672000 2.030000
1.701500 2.591300
1.731000 2.684200
1.760500 2.433400
1.790000 2.567400
1.819500 3.059000
1.849000 3.244300
1.878500 3.070800
1.907900 2.970500
1.937400 2.983800
1.966900 2.933700
1.996400 2.871000
2.025900 2.847600
2.055400 2.778400
2.084900 2.708800
2.114400 2.925700
2.143800 3.403300
2.173300 3.620500
2.202800 3.552900
2.232300 3.765500
2.261800 4.248400
2.291300 4.666700
2.320800 5.151300
2.350300 5.617000
2.379700 5.696800
2.409200 5.573800
2.438700 5.430400
2.468200 5.038200
2.497700 4.574300
2.527200 4.445200
2.556700 4.832100
2.586200 5.861400
2.615600 7.443200
2.645100 8.967700
2.674600 9.532600
2.704100 9.114400
2.733600 8.360700
2.763100 7.576200
2.792600 6.943000
2.822100 6.604000
2.851500 6.462700
2.881000 6.280500
2.910500 6.243100
2.940000 6.461800
2.969500 6.659400
2.999000 6.721400
3.028500 6.725000
3.058000 6.765200
3.087400 6.965900
3.116900 7.115400
3.146400 6.733800
3.175900 6.230800
3.205400 6.325400
3.234900 6.765800
3.264400 6.914200
3.293900 6.737500
3.323300 6.533700
3.352800 6.049300
3.382300 5.048000
3.411800 3.993600
3.441300 3.419400
3.470800 3.673500
3.500300 4.828800
3.529800 6.381700
3.559200 7.630300
3.588700 8.082800
3.618200 7.931800
3.647700 7.838700
3.677200 7.986600
3.706700 8.211200
3.736200 8.112400
3.765700 7.713000
3.795200 7.447600
3.824600 7.173700
3.854100 6.866500
3.883600 6.915800
3.913100 7.232800
3.942600 7.340100
3.972100 6.979100
4.001600 6.487600
4.031100 6.173900
4.060500 5.877900
4.090000 5.562700
4.119500 5.399600
4.149000 5.360900
4.178500 5.280600
4.208000 5.347000
4.237500 5.710800
4.267000 6.103200
4.296400 6.283000
4.325900 6.250100
4.355400 6.144700
4.384900 5.926300
4.414400 5.565800
4.443900 5.302400
4.473400 5.337900
4.502900 5.413600
4.532300 5.168400
4.561800 5.191100
4.591300 6.441300
4.620800 8.289100
4.650300 9.322700
4.679800 9.230200
4.709300 8.481200
4.738800 7.907000
4.768200 8.092500
4.797700 8.606300
4.827200 8.943300
4.856700 9.225700
4.886200 9.537000
4.915700 10.192700
4.945200 11.388200
4.974700 12.495500
5.004100 12.989800
5.033600 12.817200
5.063100 12.613700
5.092600 13.009600
5.122100 13.268100
5.151600 12.640600
5.181100 11.582600
5.210600 10.237000
5.240000 8.528700
5.269500 7.299200
5.299000 6.827300
5.328500 6.357400
5.358000 5.588900
5.387500 4.789300
5.417000 4.226300
5.446500 4.188400
5.475900 4.570600
5.505400 4.768100
5.534900 4.451400
5.564400 3.972200
5.593900 3.779900
5.623400 3.811300
5.652900 3.999600
5.682400 4.855200
5.711900 6.605500
5.741300 8.557800
5.770800 10.054200
5.800300 10.664600
5.829800 10.280700
5.859300 9.396100
5.888800 8.676800
5.918300 8.179100
5.947800 7.383500
5.977200 6.130300
6.006700 4.911500
6.036200 4.168000
6.065700 3.587000
6.095200 3.141500
6.124700 3.023800
6.154200 2.778700
6.183700 2.175100
6.213100 1.665100
6.242600 1.598100
6.272100 1.725200
6.301600 1.793800
6.331100 1.912100
6.360600 1.994800
6.390100 1.817200
6.419600 1.530900
6.449000 1.420400
6.478500 1.434000
6.508000 1.422900
6.537500 1.462600
6.567000 1.574100
6.596500 1.581400
6.626000 1.445100
6.655500 1.286100
6.684900 1.159900
6.714400 1.122500
6.743900 1.177900
6.773400 1.228500
6.802900 1.204600
6.832400 1.168500
6.861900 1.231600
6.891400 1.409200
6.920800 1.688300
6.950300 1.938000
6.979800 1.942500
7.009300 1.869500
7.038800 1.918100
7.068300 1.926800
7.097800 1.905400
7.127300 1.958500
7.156700 2.069700
7.186200 2.160900
7.215700 2.024300
7.245200 1.730700
7.274700 1.467300
7.304200 1.310700
7.333700 1.389400
7.363200 1.507700
7.392600 1.315000
7.422100 0.999700
7.451600 0.978500
7.481100 1.217100
7.510600 1.406200
7.540100 1.519500
7.569600 1.567200
7.599100 1.426500
7.628500 1.216400
7.658000 1.154000
7.687500 1.285900
7.717000 1.463200
7.746500 1.495500
7.776000 1.380600
7.805500 1.284300
7.835000 1.284400
7.864500 1.279300
7.893900 1.224800
7.923400 1.188800
7.952900 1.213000
7.982400 1.239600
8.011900 1.274900
8.041400 1.276000
8.070900 1.109000
8.100400 0.831400
8.129800 0.632400
8.159300 0.690600
8.188800 1.052400
8.218300 1.437800
8.247800 1.598800
8.277300 1.544100
8.306800 1.296700
8.336300 1.040300
8.365700 0.911100
8.395200 0.833600
8.424700 0.825900
8.454200 0.874800
8.483700 0.888100
8.513200 0.861500
8.542700 0.835600
8.572200 0.816700
8.601600 0.776500
8.631100 0.728500
8.660600 0.667400
8.690100 0.545200
8.719600 0.470700
8.749100 0.573200
8.778600 0.751400
8.808100 0.882900
8.837500 0.907700
8.867000 0.780500
8.896500 0.714300
8.926000 0.786700
8.955500 0.787600
8.985000 0.786800
9.014500 0.899500
9.044000 1.002800
9.073400 1.074800
9.102900 1.133900
9.132400 1.116200
9.161900 1.000600
9.191400 0.803500
9.220900 0.598000
9.250400 0.491500
9.279900 0.507500
9.309300 0.551300
9.338800 0.566100
9.368300 0.564800
9.397800 0.532600
9.427300 0.522100
9.456800 0.551100
9.486300 0.576000
9.515800 0.664700
9.545200 0.829300
9.574700 0.955700
9.604200 1.078100
9.633700 1.096900
9.663200 0.898400
9.692700 0.788800
9.722200 0.880900
9.751700 0.959600
9.781200 1.089800
9.810600 1.436500
9.840100 1.691300
9.869600 1.511700
9.899100 1.164900
9.928600 0.947900
9.958100 0.889000
9.987600 1.033700
10.017100 1.386800
10.046500 1.794300
10.076000 1.955100
10.105500 1.803400
10.135000 1.534500
10.164500 1.319700
10.194000 1.206200
10.223500 1.096800
10.253000 0.943300
10.282400 0.780300
10.311900 0.644200
10.341400 0.569800
10.370900 0.568500
10.400400 0.679400
10.429900 0.814000
10.459400 0.802100
10.488900 0.781000
10.518300 0.962300
10.547800 1.153900
10.577300 1.064400
10.606800 0.878600
10.636300 0.901700
10.665800 1.077500
10.695300 1.170200
10.724800 1.066500
10.754200 0.855400
10.783700 0.642800
10.813200 0.411100
10.842700 0.199900
10.872200 0.125100
10.901700 0.256500
10.931200 0.568900
10.960700 0.949000
10.990100 1.235100
11.019600 1.245500
11.049100 0.968600
11.078600 0.650700
11.108100 0.549500
11.137600 0.754900
11.167100 1.097900
11.196600 1.337700
11.226000 1.524900
11.255500 1.650600
11.285000 1.465300
11.314500 1.126700
11.344000 1.078500
11.373500 1.256500
11.403000 1.234100
11.432500 1.021100
11.461900 0.861700
11.491400 0.762700
11.520900 0.734500
11.550400 0.830900
11.579900 0.940300
11.609400 1.004500
11.638900 1.107500
11.668400 1.163800
11.697800 1.118700
11.727300 1.046200
11.756800 0.934200
11.786300 0.782200
11.815800 0.732500
11.845300 0.913200
11.874800 1.260800
11.904300 1.562600
11.933800 1.643700
11.963200 1.502000
11.992700 1.342600
12.022200 1.300800
12.051700 1.322600
12.081200 1.345200
12.110700 1.272000
12.140200 0.958100
12.169700 0.554400
12.199100 0.377700
12.228600 0.421200
12.258100 0.485200
12.287600 0.538100
12.317100 0.649600
12.346600 0.786800
12.376100 0.963600
12.405600 1.146800
12.435000 1.146200
12.464500 1.022400
12.494000 0.973100
12.523500 1.048600
12.553000 1.241000
12.582500 1.375800
12.612000 1.346300
12.641500 1.394100
12.670900 1.553000
12.700400 1.532100
12.729900 1.339400
12.759400 1.104500
12.788900 0.970000
12.818400 1.061200
12.847900 1.282700
12.877400 1.454600
12.906800 1.454200
12.936300 1.377400
12.965800 1.285700
12.995300 1.192400
13.024800 1.184500
13.054300 1.282500
13.083800 1.430400
13.113300 1.569300
13.142700 1.719500
13.172200 1.833300
13.201700 1.830300
13.231200 1.792300
13.260700 1.737500
13.290200 1.473600
13.319700 1.119800
13.349200 1.081700
13.378600 1.400700
13.408100 1.738500
13.437600 1.911500
13.467100 2.017100
13.496600 2.009100
13.526100 1.743600
13.555600 1.362600
13.585100 1.180900
13.614500 1.182500
13.644000 1.163800
13.673500 1.110600
13.703000 1.055900
13.732500 0.978200
13.762000 0.924900
13.791500 1.021300
13.821000 1.251100
13.850500 1.411800
13.879900 1.333200
13.909400 1.094000
13.938900 0.847500
13.968400 0.655900
13.997900 0.614800
14.027400 0.754000
14.056900 0.901700
14.086400 0.967200
14.115800 1.086900
14.145300 1.376400
14.174800 1.654100
14.204300 1.734300
14.233800 1.722800
14.263300 1.649800
14.292800 1.470000
14.322300 1.400200
14.351700 1.508900
14.381200 1.463600
14.410700 1.250300
14.440200 1.201900
14.469700 1.240200
14.499200 1.128200
14.528700 1.057600
14.558200 1.175800
14.587600 1.250400
14.617100 1.179500
14.646600 1.119600
14.676100 1.189100
14.705600 1.272700
14.735100 1.279900
14.764600 1.341500
14.794100 1.433100
14.823500 1.394100
14.853000 1.283800
14.882500 1.218400
14.912000 1.224600
14.941500 1.235500
14.971000 1.159300
15.000500 1.118500
15.030000 1.345900
15.059400 1.722600
15.088900 1.757400
15.118400 1.465800
15.147900 1.405200
15.177400 1.550000
15.206900 1.508500
15.236400 1.322500
15.265900 1.164400
15.295300 1.092000
15.324800 1.128100
15.354300 1.295700
15.383800 1.494000
15.413300 1.546000
15.442800 1.447200
15.472300 1.302300
15.501800 1.256300
15.531200 1.415700
15.560700 1.552700
15.590200 1.327600
15.619700 0.952500
15.649200 0.914300
15.678700 1.311500
15.708200 1.739300
15.737700 1.737100
15.767100 1.402300
15.796600 1.145500
15.826100 1.085500
15.855600 1.196500
15.885100 1.429600
15.914600 1.662800
15.944100 1.785700
15.973600 1.781700
16.003100 1.719300
16.032500 1.679900
16.062000 1.641500
16.091500 1.493900
16.121000 1.352600
16.150500 1.350900
16.180000 1.349400
16.209500 1.374500
16.239000 1.586800
16.268400 1.778800
16.297900 1.670200
16.327400 1.449100
16.356900 1.393900
16.386400 1.331000
16.415900 1.137600
16.445400 1.103100
16.474900 1.268500
16.504300 1.389600
16.533800 1.499100
16.563300 1.677300
16.592800 1.830600
16.622300 1.886400
16.651800 1.776600
16.681300 1.500000
16.710800 1.279300
16.740200 1.222900
16.769700 1.164600
16.799200 1.172500
16.828700 1.406400
16.858200 1.738900
16.887700 1.872400
16.917200 1.665100
16.946700 1.394300
16.976100 1.355600
17.005600 1.468800
17.035100 1.505900
17.064600 1.388800
17.094100 1.192500
17.123600 0.997100
17.153100 0.962100
17.182600 1.227100
17.212000 1.566700
17.241500 1.727000
17.271000 1.729300
17.300500 1.610800
17.330000 1.665000
17.359500 2.157800
17.389000 2.595000
17.418500 2.525400
17.447900 2.178500
17.477400 1.852200
17.506900 1.712100
17.536400 1.656600
17.565900 1.491200
17.595400 1.353500
17.624900 1.306500
17.654400 1.163900
17.683800 1.032500
17.713300 1.138600
17.742800 1.376300
17.772300 1.499700
17.801800 1.431500
17.831300 1.358900
17.860800 1.406600
17.890300 1.453200
17.919800 1.451500
17.949200 1.448800
17.978700 1.490700
18.008200 1.503800
18.037700 1.394800
18.067200 1.374200
18.096700 1.503200
18.126200 1.582500
18.155700 1.579000
18.185100 1.516800
18.214600 1.434800
18.244100 1.374300
18.273600 1.292300
18.303100 1.234300
18.332600 1.390100
18.362100 1.792000
18.391600 2.101500
18.421000 2.120900
18.450500 2.049900
18.480000 2.112400
18.509500 2.291800
18.539000 2.227300
18.568500 1.721600
18.598000 1.221900
18.627500 1.156900
18.656900 1.478300
18.686400 1.805000
18.715900 1.870800
18.745400 1.777100
18.774900 1.649600
18.804400 1.627200
18.833900 1.721300
18.863400 1.761500
18.892800 1.659900
18.922300 1.563000
18.951800 1.566000
18.981300 1.507100
19.010800 1.289600
19.040300 1.110000
19.069800 1.161900
19.099300 1.304700
19.128700 1.353800
19.158200 1.385500
19.187700 1.470900
19.217200 1.573400
19.246700 1.672500
19.276200 1.682400
19.305700 1.520900
19.335200 1.279900
19.364600 1.206100
19.394100 1.499300
19.423600 1.993300
19.453100 2.236800
19.482600 2.101100
19.512100 1.851600
19.541600 1.774400
19.571100 1.753400
19.600500 1.558100
19.630000 1.379700
19.659500 1.471900
19.689000 1.749500
19.718500 2.025000
19.748000 2.129500
19.777500 1.938200
19.807000 1.536900
19.836400 1.232600
19.865900 1.237700
19.895400 1.458900
19.924900 1.669400
19.954400 1.805100
19.983900 2.069300
20.013400 2.395700
20.042900 2.363600
20.072400 2.009500
20.101800 1.795700
20.131300 1.935900
20.160800 2.163500
20.190300 2.097900
20.219800 1.837600
20.249300 1.644600
20.278800 1.523600
20.308300 1.403800
20.337700 1.322600
20.367200 1.335900
20.396700 1.347900
20.426200 1.360600
20.455700 1.471100
20.485200 1.560900
20.514700 1.421000
20.544200 1.193000
20.573600 1.168300
20.603100 1.208800
20.632600 1.135200
20.662100 1.185000
20.691600 1.361000
20.721100 1.349900
20.750600 1.282900
20.780100 1.528100
20.809500 1.879800
20.839000 1.879200
20.868500 1.634900
20.898000 1.513000
20.927500 1.600700
20.957000 1.749300
20.986500 1.708300
21.016000 1.461700
21.045400 1.353000
21.074900 1.529900
21.104400 1.844100
21.133900 2.093800
21.163400 2.164900
21.192900 2.066500
21.222400 1.851700
21.251900 1.600800
21.281300 1.384800
21.310800 1.306300
21.340300 1.484400
21.369800 1.774400
21.399300 1.877400
21.428800 1.851300
21.458300 1.814000
21.487800 1.683900
21.517200 1.444700
21.546700 1.174200
21.576200 0.992700
21.605700 1.092500
21.635200 1.356500
21.664700 1.414100
21.694200 1.299400
21.723700 1.292000
21.753100 1.341000
21.782600 1.305500
21.812100 1.316600
21.841600 1.386200
21.871100 1.413100
21.900600 1.338000
21.930100 1.132800
21.959600 0.986100
21.989100 1.068700
22.018500 1.365600
22.048000 1.704700
22.077500 1.957000
22.107000 1.984700
22.136500 1.672100
22.166000 1.240800
22.195500 0.956500
22.225000 0.909700
22.254400 1.137500
22.283900 1.442500
22.313400 1.560000
22.342900 1.524900
22.372400 1.424600
22.401900 1.253700
22.431400 1.155200
22.460900 1.296500
22.490300 1.539900
22.519800 1.633100
22.549300 1.624700
22.578800 1.702000
22.608300 1.750000
22.637800 1.538000
22.667300 1.118200
22.696800 0.824500
22.726200 0.925200
22.755700 1.278000
22.785200 1.545600
22.814700 1.653300
22.844200 1.753700
22.873700 1.904900
22.903200 1.924300
22.932700 1.690100
22.962100 1.457000
22.991600 1.454100
23.021100 1.495900
23.050600 1.451700
23.080100 1.471000
23.109600 1.593300
23.139100 1.654200
23.168600 1.595500
23.198000 1.387800
23.227500 1.006100
23.257000 0.669400
23.286500 0.573700
23.316000 0.686800
23.345500 0.909400
23.375000 1.183800
23.404500 1.443000
23.433900 1.546900
23.463400 1.388600
23.492900 1.124100
23.522400 1.196700
23.551900 1.762300
23.581400 2.320700
23.610900 2.330800
23.640400 1.871300
23.669800 1.409700
23.699300 1.144100
23.728800 1.005100
23.758300 0.986400
23.787800 0.986700
23.817300 0.921200
23.846800 0.928900
23.876300 1.106600
23.905800 1.328100
23.935200 1.378400
23.964700 1.285400
23.994200 1.198300
24.023700 1.177700
24.053200 1.222100
24.082700 1.279500
24.112200 1.290000
24.141700 1.233900
24.171100 1.172500
24.200600 1.139900
24.230100 1.144900
24.259600 1.246200
24.289100 1.422900
24.318600 1.579100
24.348100 1.660400
24.377600 1.672400
24.407000 1.781200
24.436500 2.006000
24.466000 2.053100
24.495500 1.905100
24.525000 1.847300
24.554500 1.864800
24.584000 1.821700
24.613500 1.740200
24.642900 1.580900
24.672400 1.366200
24.701900 1.243800
24.731400 1.260900
24.760900 1.462000
24.790400 1.789600
24.819900 1.896200
24.849400 1.641300
24.878800 1.363200
24.908300 1.306200
24.937800 1.317700
24.967300 1.333200
24.996800 1.519500
25.026300 1.784600
25.055800 1.888300
25.085300 1.822600
25.114700 1.713500
25.144200 1.639900
25.173700 1.666900
25.203200 1.698100
25.232700 1.669600
25.262200 1.656200
25.291700 1.540500
25.321200 1.317800
25.350600 1.177100
25.380100 1.148900
25.409600 1.195200
25.439100 1.335600
25.468600 1.440700
25.498100 1.482200
25.527600 1.569900
25.557100 1.569500
25.586500 1.400200
25.616000 1.293300
25.645500 1.480700
25.675000 1.762100
25.704500 1.814400
25.734000 1.744900
25.763500 1.706000
25.793000 1.830300
25.822400 2.127100
25.851900 2.125400
25.881400 1.741800
25.910900 1.444900
25.940400 1.395700
25.969900 1.579000
25.999400 1.976800
26.028900 2.314000
26.058400 2.469700
26.087800 2.574300
26.117300 2.656400
26.146800 2.583100
26.176300 2.274600
26.205800 1.961300
26.235300 1.917300
26.264800 2.067900
26.294300 2.189500
26.323700 2.105800
26.353200 1.854000
26.382700 1.721800
26.412200 1.761200
26.441700 1.773600
26.471200 1.757000
26.500700 1.861700
26.530200 1.997100
26.559600 1.888100
26.589100 1.508700
26.618600 1.263400
26.648100 1.341700
26.677600 1.521300
26.707100 1.623100
26.736600 1.618100
26.766100 1.757900
26.795500 2.200900
26.825000 2.652800
26.854500 2.716300
26.884000 2.339800
26.913500 1.889800
26.943000 1.684500
26.972500 1.628900
27.002000 1.586400
27.031400 1.648800
27.060900 1.807300
27.090400 1.827700
27.119900 1.830000
27.149400 2.109500
27.178900 2.370900
27.208400 2.368900
27.237900 2.428300
27.267300 2.518900
27.296800 2.426700
27.326300 2.371400
27.355800 2.502200
27.385300 2.648400
27.414800 2.481400
27.444300 1.913100
27.473800 1.327900
27.503200 1.103700
27.532700 1.327600
27.562200 1.820300
27.591700 2.110000
27.621200 1.855100
27.650700 1.419900
27.680200 1.278700
27.709700 1.373900
27.739100 1.477800
27.768600 1.503400
27.798100 1.444500
27.827600 1.338400
27.857100 1.367900
27.886600 1.781700
27.916100 2.462100
27.945600 2.926800
27.975100 2.951400
28.004500 2.690800
28.034000 2.470500
28.063500 2.399900
28.093000 2.353900
28.122500 2.315300
28.152000 2.267000
28.181500 2.211000
28.211000 2.130600
28.240400 1.922800
28.269900 1.716700
28.299400 1.741900
28.328900 1.838500
28.358400 1.897200
28.387900 2.038900
28.417400 2.169200
28.446900 2.028200
28.476300 1.700500
28.505800 1.474200
28.535300 1.425700
28.564800 1.686100
28.594300 2.211600
28.623800 2.477600
28.653300 2.253900
28.682800 1.963500
28.712200 1.777900
28.741700 1.519700
28.771200 1.281800
28.800700 1.266700
28.830200 1.618600
28.859700 2.213100
28.889200 2.754800
28.918700 2.878100
28.948100 2.465300
28.977600 2.044200
29.007100 2.022200
29.036600 2.208600
29.066100 2.258800
29.095600 2.117200
29.125100 1.898300
29.154600 1.632200
29.184000 1.425000
29.213500 1.317300
29.243000 1.289200
29.272500 1.425100
29.302000 1.765300
29.331500 2.248100
29.361000 2.571000
29.390500 2.385600
29.419900 1.850600
29.449400 1.435600
29.478900 1.429100
29.508400 1.737300
29.537900 2.048600
29.567400 2.233900
29.596900 2.315600
29.626400 2.338700
29.655800 2.349800
29.685300 2.312500
29.714800 2.133700
29.744300 1.841600
29.773800 1.608100
29.803300 1.527000
29.832800 1.486800
29.862300 1.353800
29.891700 1.214500
29.921200 1.172100
29.950700 1.239900
29.980200 1.447200
30.009700 1.768000
30.039200 1.990800
30.068700 1.982800
30.098200 1.997700
30.127700 2.180200
30.157100 2.289400
30.186600 2.166700
30.216100 1.946100
30.245600 1.779000
30.275100 1.609800
30.304600 1.528200
30.334100 1.640600
30.363600 1.746800
30.393000 1.734900
30.422500 1.693700
30.452000 1.530000
30.481500 1.150600
30.511000 0.806000
30.540500 0.800900
30.570000 1.129000
30.599500 1.430200
30.628900 1.483500
30.658400 1.425600
30.687900 1.407900
30.717400 1.400900
30.746900 1.326600
30.776400 1.390000
30.805900 1.625500
30.835400 1.673000
30.864800 1.455900
30.894300 1.251200
30.923800 1.216100
30.953300 1.342200
30.982800 1.538700
31.012300 1.738100
31.041800 1.914400
31.071300 2.002500
31.100700 2.020500
31.130200 1.847400
31.159700 1.377500
31.189200 0.925000
31.218700 0.679600
31.248200 0.637200
31.277700 0.811400
31.307200 1.045100
31.336600 1.176300
31.366100 1.321300
31.395600 1.497300
31.425100 1.529900
31.454600 1.430700
31.484100 1.328400
31.513600 1.287100
31.543100 1.378200
31.572500 1.586300
31.602000 1.751700
31.631500 1.933500
31.661000 2.220300
31.690500 2.464400
31.720000 2.554600
31.749500 2.385400
31.779000 1.939100
31.808400 1.448300
31.837900 1.162500
31.867400 1.084100
31.896900 1.106600
31.926400 1.125800
31.955900 1.152300
31.985400 1.250300
32.014900 1.231100
32.044400 1.148400
32.073800 1.273400
32.103300 1.541700
32.132800 1.800100
32.162300 1.968700
32.191800 2.003700
32.221300 1.998300
32.250800 2.052500
32.280300 1.931500
32.309700 1.493100
32.339200 1.158200
32.368700 1.315400
32.398200 1.596300
32.427700 1.489400
32.457200 1.292500
32.486700 1.426000
32.516200 1.695800
32.545600 1.829900
32.575100 1.908500
32.604600 1.888500
32.634100 1.745200
32.663600 1.787600
32.693100 2.031700
32.722600 2.105100
32.752100 1.894500
32.781500 1.582500
32.811000 1.369400
32.840500 1.347500
32.870000 1.470000
32.899500 1.685800
32.929000 1.861900
32.958500 1.936900
32.988000 2.071800
33.017400 2.326300
33.046900 2.530100
33.076400 2.415900
33.105900 1.863700
33.135400 1.205900
33.164900 1.091700
33.194400 1.563900
33.223900 2.002400
33.253300 2.180600
33.282800 2.358400
33.312300 2.518700
33.341800 2.459000
33.371300 2.170600
33.400800 1.837100
33.430300 1.653200
33.459800 1.542800
33.489200 1.447200
33.518700 1.571700
33.548200 1.917700
33.577700 2.186300
33.607200 2.215900
33.636700 2.238100
33.666200 2.354600
33.695700 2.268000
33.725100 1.899000
33.754600 1.570900
33.784100 1.500400
33.813600 1.790900
33.843100 2.291000
33.872600 2.550900
33.902100 2.454100
33.931600 2.203700
33.961000 1.852200
33.990500 1.480500
34.020000 1.370000
34.049500 1.592100
34.079000 1.820100
34.108500 1.751700
34.138000 1.520700
34.167500 1.491500
34.197000 1.847900
34.226400 2.390900
34.255900 2.660700
34.285400 2.654800
34.314900 2.758800
34.344400 2.952000
34.373900 2.947100
34.403400 2.652300
34.432900 2.194400
34.462300 1.827800
34.491800 1.821100
34.521300 2.067200
34.550800 2.214700
34.580300 2.204800
34.609800 2.058000
34.639300 1.834800
34.668800 1.774100
34.698200 1.857000
34.727700 1.836200
34.757200 1.788800
34.786700 1.851400
34.816200 1.843000
34.845700 1.783500
34.875200 1.827500
34.904700 1.988200
34.934100 2.266600
34.963600 2.302700
34.993100 1.981100
35.022600 1.767700
35.052100 1.777100
35.081600 1.702000
35.111100 1.518000
35.140600 1.391700
35.170000 1.364400
35.199500 1.418100
35.229000 1.545800
35.258500 1.768500
35.288000 1.977800
35.317500 1.983000
35.347000 1.796900
35.376500 1.521700
35.405900 1.315600
35.435400 1.429700
35.464900 1.802000
35.494400 2.016600
35.523900 1.913400
35.553400 1.737400
35.582900 1.735600
35.612400 1.915300
35.641800 2.076500
35.671300 2.147100
35.700800 2.209400
35.730300 2.218100
35.759800 2.105600
35.789300 1.992600
35.818800 1.949100
35.848300 1.859700
35.877700 1.774400
35.907200 1.837100
35.936700 2.013800
35.966200 2.131700
35.995700 1.992500
36.025200 1.656500
36.054700 1.357000
36.084200 1.200900
36.113700 1.137500
36.143100 1.207500
36.172600 1.465300
36.202100 1.701700
36.231600 1.754300
36.261100 1.740300
36.290600 1.776300
36.320100 1.756700
36.349600 1.675000
36.379000 1.756300
36.408500 2.000100
36.438000 2.115200
36.467500 2.061500
36.497000 2.131600
36.526500 2.344000
36.556000 2.513100
36.585500 2.555900
36.614900 2.430800
36.644400 2.244200
36.673900 2.175700
36.703400 2.154400
36.732900 2.069400
36.762400 2.029000
36.791900 1.986500
36.821400 1.780800
36.850800 1.523600
36.880300 1.478400
36.909800 1.545900
36.939300 1.467100
36.968800 1.426500
36.998300 1.668200
37.027800 2.041400
37.057300 2.214500
37.086700 2.095500
37.116200 1.885000
37.145700 1.746200
37.175200 1.708900
37.204700 1.888800
37.234200 2.335200
37.263700 2.807900
37.293200 2.837800
37.322600 2.324400
37.352100 1.913000
37.381600 1.967900
37.411100 2.221300
37.440600 2.346800
37.470100 2.270000
37.499600 2.111000
37.529100 1.954500
37.558500 1.792200
37.588000 1.654000
37.617500 1.767400
37.647000 2.079400
37.676500 2.175700
37.706000 1.945500
37.735500 1.785000
37.765000 1.946800
37.794400 2.229300
37.823900 2.370700
37.853400 2.287500
37.882900 2.033900
37.912400 1.832900
37.941900 1.968500
37.971400 2.266500
38.000900 2.227200
38.030300 1.871400
38.059800 1.656700
38.089300 1.685100
38.118800 1.733200
38.148300 1.838100
38.177800 2.003600
38.207300 1.952400
38.236800 1.734300
38.266300 1.736800
38.295700 2.094700
38.325200 2.523700
38.354700 2.695600
38.384200 2.632100
38.413700 2.475200
38.443200 2.042400
38.472700 1.434100
38.502200 1.265800
38.531600 1.653700
38.561100 2.127800
38.590600 2.329100
38.620100 2.292800
38.649600 2.168000
38.679100 1.954000
38.708600 1.643900
38.738100 1.304400
38.767500 1.153300
38.797000 1.388600
38.826500 1.701900
38.856000 1.670900
38.885500 1.539500
38.915000 1.612300
38.944500 1.672600
38.974000 1.496200
39.003400 1.145900
39.032900 0.886600
39.062400 0.873500
39.091900 1.042200
39.121400 1.209300
39.150900 1.174600
39.180400 1.015500
39.209900 0.911200
39.239300 0.876200
39.268800 0.956300
39.298300 1.059200
39.327800 0.989300
39.357300 0.909000
39.386800 1.074600
39.416300 1.440000
39.445800 1.779500
39.475200 1.830600
39.504700 1.498500
39.534200 1.081600
39.563700 0.913300
39.593200 0.892200
39.622700 0.755200
39.652200 0.550100
39.681700 0.493700
39.711100 0.599700
39.740600 0.718300
39.770100 0.797400
39.799600 0.776700
39.829100 0.560700
39.858600 0.335900
39.888100 0.320500
39.917600 0.432900
39.947000 0.493300
39.976500 0.449000
40.006000 0.388900
40.035500 0.398800
40.065000 0.475600
40.094500 0.547000
40.124000 0.598600
40.153500 0.673000
40.183000 0.650200
40.212400 0.488900
40.241900 0.380500
40.271400 0.423600
40.300900 0.476700
40.330400 0.416000
40.359900 0.316300
40.389400 0.254000
40.418900 0.216600
40.448300 0.200000
40.477800 0.245600
40.507300 0.336900
40.536800 0.403700
40.566300 0.455900
40.595800 0.519700
40.625300 0.529200
40.654800 0.429000
40.684200 0.290900
40.713700 0.206000
40.743200 0.161900
40.772700 0.123900
40.802200 0.117600
40.831700 0.164000
40.861200 0.245500
40.890700 0.305100
40.920100 0.308100
40.949600 0.252700
40.979100 0.167900
41.008600 0.099300
41.038100 0.074500
41.067600 0.113000
41.097100 0.169300
41.126600 0.175700
41.156000 0.141800
41.185500 0.095900
41.215000 0.047100
41.244500 0.017100
41.274000 0.025300
41.303500 0.093300
41.333000 0.221500
41.362500 0.336900
41.391900 0.383900
41.421400 0.366000
41.450900 0.287900
41.480400 0.212500
41.509900 0.164700
41.539400 0.144600
41.568900 0.174000
41.598400 0.185900
41.627800 0.134400
41.657300 0.087800
41.686800 0.073100
41.716300 0.049700
41.745800 0.019400
41.775300 0.005900
41.804800 0.015600
41.834300 0.059200
41.863700 0.122300
41.893200 0.139800
41.922700 0.095800
41.952200 0.043600
41.981700 0.013500
42.011200 0.003800
42.040700 0.009600
42.070200 0.038700
42.099600 0.086900
42.129100 0.114100
42.158600 0.108000
42.188100 0.098100
42.217600 0.079300
42.247100 0.042600
42.276600 0.014500
42.306100 0.012500
42.335600 0.035900
42.365000 0.066800
42.394500 0.079400
42.424000 0.079700
42.453500 0.069000
42.483000 0.040500
42.512500 0.023000
42.542000 0.038400
42.571500 0.063300
42.600900 0.063900
42.630400 0.062500
42.659900 0.094500
42.689400 0.134900
42.718900 0.143500
42.748400 0.113000
42.777900 0.079500
42.807400 0.090600
42.836800 0.121100
42.866300 0.104400
42.895800 0.052300
42.925300 0.025700
42.954800 0.047100
42.984300 0.088000
43.013800 0.090900
43.043300 0.055400
43.072700 0.028200
43.102200 0.015900
43.131700 0.006800
43.161200 0.001700
43.190700 0.000400
43.220200 0.002000
43.249700 0.012300
43.279200 0.038500
43.308600 0.062700
43.338100 0.053000
43.367600 0.023200
43.397100 0.005300
43.426600 0.000600
43.456100 0.000000
43.485600 0.000000
43.515100 0.000200
43.544500 0.001700
43.574000 0.007500
43.603500 0.019000
43.633000 0.028100
43.662500 0.024800
43.692000 0.013000
43.721500 0.003900
43.751000 0.000600
43.780400 0.000100
43.809900 0.000000
43.839400 0.000000
43.868900 0.000000
43.898400 0.000000
43.927900 0.000000
43.957400 0.000000
43.986900 0.000000
44.016300 0.000000
44.045800 0.000000
44.075300 0.000000
44.104800 0.000000
44.134300 0.000000
44.163800 0.000000
44.193300 0.000000
44.222800 0.000000
44.252300 0.000000
44.281700 0.000000
44.311200 0.000000
44.340700 0.000000
44.370200 0.000000
44.399700 0.000000
44.429200 0.000000
44.458700 0.000000
44.488200 0.000000
44.517600 0.000000
44.547100 0.000000
44.576600 0.000000
44.606100 0.000200
44.635600 0.001800
44.665100 0.007000
44.694600 0.014300
44.724100 0.015100
44.753500 0.008300
44.783000 0.002400
44.812500 0.000300
44.842000 0.000000
44.871500 0.000000
44.901000 0.000000
44.930500 0.000000
44.960000 0.000000
44.989400 0.000000
45.018900 0.000000
45.048400 0.000000
45.077900 0.000000
45.107400 0.000000
45.136900 0.000000
45.166400 0.000000
45.195900 0.000000
45.225300 0.000000
45.254800 0.000000
45.284300 0.000000
45.313800 0.000000
45.343300 0.000000
45.372800 0.000000
45.402300 0.000000
45.431800 0.000000
45.461200 0.000000
45.490700 0.000000
45.520200 0.000000
45.549700 0.000000
45.579200 0.000000
45.608700 0.000000
45.638200 0.000000
45.667700 0.000000
45.697100 0.000000
45.726600 0.000000
45.756100 0.000000
45.785600 0.000000
45.815100 0.000000
45.844600 0.000000
45.874100 0.000000
45.903600 0.000000
45.933000 0.000000
45.962500 0.000000
45.992000 0.000000
46.021500 0.000000
46.051000 0.000000
46.080500 0.000000
46.110000 0.000000
46.139500 0.000000
46.168900 0.000000
46.198400 0.000000
46.227900 0.000000
46.257400 0.000000
46.286900 0.000000
46.316400 0.000000
46.345900 0.000000
46.375400 0.000000
46.404900 0.000000
46.434300 0.000000
46.463800 0.000000
46.493300 0.000000
46.522800 0.000000
46.552300 0.000000
46.581800 0.000000
46.611300 0.000000
46.640800 0.000000
46.670200 0.000000
46.699700 0.000000
46.729200 0.000000
46.758700 0.000000
46.788200 0.000000
46.817700 0.000000
46.847200 0.000000
46.876700 0.000000
46.906100 0.000000
46.935600 0.000000
46.965100 0.000000
46.994600 0.000000
47.024100 0.000000
47.053600 0.000000
47.083100 0.000000
47.112600 0.000000
47.142000 0.000000
47.171500 0.000000
47.201000 0.000000
47.230500 0.000000
47.260000 0.000000
47.289500 0.000000
47.319000 0.000000
47.348500 0.000000
47.377900 0.000000
e
