set title 'mp-616440 - Density of States'
set xlabel 'Energy (eV)'
set ylabel 'DOS (states/eV)'
set grid
set xrange [-10:10]
set yrange [0:9.159]
set xzeroaxis lt -1
set terminal png size 800,600
set output 'mp-616440_dos_gnuplot.png'
plot '-' using 1:2 with lines title 'DOS'
-13.670500 0.000000
-13.649200 0.000000
-13.627900 0.000000
-13.606500 0.000000
-13.585200 0.000000
-13.563900 0.000000
-13.542600 0.000000
-13.521300 0.000000
-13.500000 0.000000
-13.478600 0.000000
-13.457300 0.000000
-13.436000 0.000000
-13.414700 0.000000
-13.393400 0.000000
-13.372000 0.000000
-13.350700 0.000000
-13.329400 0.000000
-13.308100 0.000000
-13.286800 0.000000
-13.265500 0.000000
-13.244100 0.000000
-13.222800 0.000000
-13.201500 0.000000
-13.180200 0.000000
-13.158900 0.000000
-13.137600 0.000000
-13.116200 0.000000
-13.094900 0.000000
-13.073600 0.000000
-13.052300 0.000000
-13.031000 0.000000
-13.009700 0.000000
-12.988300 0.000000
-12.967000 0.000000
-12.945700 0.000000
-12.924400 0.000000
-12.903100 0.000000
-12.881700 0.000000
-12.860400 0.000000
-12.839100 0.000000
-12.817800 0.000000
-12.796500 0.000000
-12.775200 0.000000
-12.753800 0.000000
-12.732500 0.000000
-12.711200 0.000000
-12.689900 0.000000
-12.668600 0.000000
-12.647300 0.000000
-12.625900 0.000000
-12.604600 0.000000
-12.583300 0.000000
-12.562000 0.000000
-12.540700 0.000000
-12.519400 0.000000
-12.498000 0.000000
-12.476700 0.000000
-12.455400 0.000000
-12.434100 0.000000
-12.412800 0.000000
-12.391500 0.000000
-12.370100 0.000000
-12.348800 0.000000
-12.327500 0.000000
-12.306200 0.000000
-12.284900 0.000000
-12.263500 0.000000
-12.242200 0.000000
-12.220900 0.000000
-12.199600 0.000000
-12.178300 0.000000
-12.157000 0.000000
-12.135600 0.000000
-12.114300 0.000000
-12.093000 0.000000
-12.071700 0.000000
-12.050400 0.000000
-12.029100 0.000000
-12.007700 0.000000
-11.986400 0.000000
-11.965100 0.000000
-11.943800 0.000000
-11.922500 0.000000
-11.901200 0.000000
-11.879800 0.000000
-11.858500 0.000000
-11.837200 0.000000
-11.815900 0.000000
-11.794600 0.000000
-11.773300 0.000000
-11.751900 0.000000
-11.730600 0.005500
-11.709300 0.066500
-11.688000 0.127400
-11.666700 0.188400
-11.645300 0.249300
-11.624000 0.310300
-11.602700 0.371200
-11.581400 0.432200
-11.560100 0.245200
-11.538800 0.250300
-11.517400 0.255400
-11.496100 0.260600
-11.474800 0.265700
-11.453500 0.270800
-11.432200 0.275900
-11.410900 0.281100
-11.389500 0.286200
-11.368200 0.291300
-11.346900 0.296400
-11.325600 0.301700
-11.304300 0.368100
-11.283000 0.434800
-11.261600 0.562800
-11.240300 0.690800
-11.219000 0.817600
-11.197700 0.934200
-11.176400 1.050800
-11.155100 0.922500
-11.133700 0.982900
-11.112400 0.797000
-11.091100 0.801100
-11.069800 0.805200
-11.048500 0.810500
-11.027100 0.822700
-11.005800 0.834900
-10.984500 0.847000
-10.963200 0.859200
-10.941900 0.871400
-10.920600 0.883600
-10.899200 0.895800
-10.877900 0.907900
-10.856600 0.920100
-10.835300 0.932300
-10.814000 0.943400
-10.792700 0.944100
-10.771300 0.943200
-10.750000 0.932500
-10.728700 0.921800
-10.707400 0.911200
-10.686100 0.900500
-10.664800 0.889800
-10.643400 0.880300
-10.622100 0.877700
-10.600800 0.877000
-10.579500 0.882500
-10.558200 0.888100
-10.536900 0.869200
-10.515500 0.872600
-10.494200 0.876100
-10.472900 0.879500
-10.451600 0.882900
-10.430300 0.886300
-10.408900 0.889700
-10.387600 0.893100
-10.366300 0.896500
-10.345000 0.899900
-10.323700 0.903300
-10.302400 0.906700
-10.281000 0.910100
-10.259700 0.913500
-10.238400 0.916900
-10.217100 0.920300
-10.195800 0.924400
-10.174500 0.929100
-10.153100 0.933800
-10.131800 0.913900
-10.110500 0.916400
-10.089200 0.894100
-10.067900 0.894400
-10.046600 0.934200
-10.025200 0.997600
-10.003900 1.071700
-9.982600 1.198400
-9.961300 1.325200
-9.940000 1.451900
-9.918700 1.578700
-9.897300 1.705400
-9.876000 1.541600
-9.854700 1.610700
-9.833400 1.413600
-9.812100 1.424700
-9.790700 1.436600
-9.769400 1.448900
-9.748100 1.462400
-9.726800 1.476000
-9.705500 1.489400
-9.684200 1.499900
-9.662800 1.510400
-9.641500 1.520900
-9.620200 1.531400
-9.598900 1.541900
-9.577600 1.552400
-9.556300 1.562300
-9.534900 1.561800
-9.513600 1.563000
-9.492300 1.556500
-9.471000 1.545900
-9.449700 1.535300
-9.428400 1.524700
-9.407000 1.514200
-9.385700 1.505500
-9.364400 1.503300
-9.343100 1.501000
-9.321800 1.505900
-9.300500 1.511100
-9.279100 1.514100
-9.257800 1.515400
-9.236500 1.515300
-9.215200 1.515200
-9.193900 1.515100
-9.172500 1.515000
-9.151200 1.514900
-9.129900 1.516100
-9.108600 1.518400
-9.087300 1.522800
-9.066000 1.527500
-9.044600 1.532300
-9.023300 1.537400
-9.002000 1.542500
-8.980700 1.547600
-8.959400 1.552700
-8.938100 1.557800
-8.916700 1.562900
-8.895400 1.568000
-8.874100 1.547400
-8.852800 1.550300
-8.831500 1.528200
-8.810200 1.529000
-8.788800 1.529700
-8.767500 1.530400
-8.746200 1.531100
-8.724900 1.531900
-8.703600 1.532600
-8.682300 1.533300
-8.660900 1.534000
-8.639600 1.534900
-8.618300 1.536000
-8.597000 1.537500
-8.575700 1.539000
-8.554300 1.533900
-8.533000 1.535900
-8.511700 1.538200
-8.490400 1.541500
-8.469100 1.544800
-8.447800 1.548100
-8.426400 1.551500
-8.405100 1.554800
-8.383800 1.558100
-8.362500 1.561400
-8.341200 1.564700
-8.319900 1.568000
-8.298500 1.571300
-8.277200 1.574600
-8.255900 1.578000
-8.234600 1.581300
-8.213300 1.585200
-8.192000 1.589200
-8.170600 1.593200
-8.149300 1.589800
-8.128000 1.586200
-8.106700 1.588700
-8.085400 1.591100
-8.064100 1.592200
-8.042700 1.591500
-8.021400 1.589900
-8.000100 1.597700
-7.978800 1.661200
-7.957500 1.792600
-7.936100 1.923900
-7.914800 2.055300
-7.893500 2.188700
-7.872200 2.322500
-7.850900 2.458200
-7.829600 2.305800
-7.808200 2.099600
-7.786900 2.113600
-7.765600 2.127600
-7.744300 2.141600
-7.723000 2.155500
-7.701700 2.169500
-7.680300 2.183500
-7.659000 2.197500
-7.637700 2.211500
-7.616400 2.225500
-7.595100 2.239700
-7.573800 2.254100
-7.552400 2.268600
-7.531100 2.283000
-7.509800 2.293000
-7.488500 2.291400
-7.467200 2.280800
-7.445900 2.270200
-7.424500 2.259800
-7.403200 2.249600
-7.381900 2.239700
-7.360600 2.230000
-7.339300 2.227300
-7.317900 2.233300
-7.296600 2.241300
-7.275300 2.249100
-7.254000 2.256500
-7.232700 2.263800
-7.211400 2.271400
-7.190000 2.280600
-7.168700 2.289800
-7.147400 2.299100
-7.126100 2.308800
-7.104800 2.319500
-7.083500 2.330200
-7.062100 2.340900
-7.040800 2.351600
-7.019500 2.362300
-6.998200 2.373000
-6.976900 2.383700
-6.955600 2.394400
-6.934200 2.398600
-6.912900 2.403300
-6.891600 2.413000
-6.870300 2.397900
-6.849000 2.380000
-6.827700 2.384500
-6.806300 2.389000
-6.785000 2.393600
-6.763700 2.398100
-6.742400 2.403100
-6.721100 2.413100
-6.699700 2.664400
-6.678400 2.657300
-6.657100 2.650100
-6.635800 2.644200
-6.614500 2.639300
-6.593200 2.635100
-6.571800 2.630900
-6.550500 2.627200
-6.529200 2.625200
-6.507900 2.623800
-6.486600 2.622300
-6.465300 2.620900
-6.443900 2.619400
-6.422600 2.618000
-6.401300 2.616500
-6.380000 2.615100
-6.358700 3.106200
-6.337400 3.021800
-6.316000 3.210100
-6.294700 3.103500
-6.273400 2.996800
-6.252100 2.890200
-6.230800 2.783500
-6.209400 2.676900
-6.188100 2.592700
-6.166800 2.567000
-6.145500 2.541400
-6.124200 2.515700
-6.102900 2.490100
-6.081500 2.463400
-6.060200 2.440900
-6.038900 2.435600
-6.017600 2.495500
-5.996300 2.555400
-5.975000 2.615300
-5.953600 2.675200
-5.932300 2.735500
-5.911000 2.799700
-5.889700 2.591200
-5.868400 2.601200
-5.847100 2.611200
-5.825700 2.621200
-5.804400 2.631100
-5.783100 3.606000
-5.761800 3.006400
-5.740500 2.608400
-5.719200 2.640800
-5.697800 2.683200
-5.676500 2.721500
-5.655200 2.759800
-5.633900 2.798000
-5.612600 2.861000
-5.591200 2.967100
-5.569900 3.061000
-5.548600 3.152900
-5.527300 3.244800
-5.506000 3.336700
-5.484700 3.342700
-5.463300 3.063700
-5.442000 6.219100
-5.420700 3.156000
-5.399400 3.272300
-5.378100 3.388600
-5.356800 2.704700
-5.335400 2.604100
-5.314100 2.503500
-5.292800 2.402900
-5.271500 2.302200
-5.250200 2.243600
-5.228900 2.208900
-5.207500 2.174300
-5.186200 2.139600
-5.164900 2.104900
-5.143600 2.070200
-5.122300 2.035600
-5.101000 2.000900
-5.079600 1.966200
-5.058300 1.931600
-5.037000 1.896900
-5.015700 1.873800
-4.994400 1.871100
-4.973000 1.840600
-4.951700 1.835300
-4.930400 1.830000
-4.909100 1.824700
-4.887800 1.819400
-4.866500 1.814000
-4.845100 1.808700
-4.823800 1.803400
-4.802500 1.816200
-4.781200 1.888100
-4.759900 1.981900
-4.738600 2.081400
-4.717200 2.181000
-4.695900 2.280500
-4.674600 2.381500
-4.653300 2.482600
-4.632000 2.814300
-4.610700 2.893300
-4.589300 2.972300
-4.568000 3.051300
-4.546700 3.130300
-4.525400 3.426900
-4.504100 4.156000
-4.482800 3.049200
-4.461400 2.711100
-4.440100 2.466200
-4.418800 2.313700
-4.397500 2.758200
-4.376200 3.296700
-4.354800 3.245400
-4.333500 2.980500
-4.312200 2.715500
-4.290900 2.450600
-4.269600 2.186600
-4.248300 1.905100
-4.226900 1.861300
-4.205600 1.817500
-4.184300 1.773700
-4.163000 1.779500
-4.141700 1.799100
-4.120400 1.818700
-4.099000 1.840000
-4.077700 1.862900
-4.056400 1.994400
-4.035100 2.201100
-4.013800 2.379700
-3.992500 2.520300
-3.971100 2.483300
-3.949800 2.821300
-3.928500 2.798700
-3.907200 2.776100
-3.885900 2.753400
-3.864600 2.730800
-3.843200 1.428600
-3.821900 1.424500
-3.800600 1.420400
-3.779300 1.416300
-3.758000 1.412200
-3.736600 1.408100
-3.715300 1.404000
-3.694000 1.400100
-3.672700 1.571400
-3.651400 1.908800
-3.630100 1.406100
-3.608700 1.828600
-3.587400 1.470600
-3.566100 1.518200
-3.544800 1.569400
-3.523500 1.629400
-3.502200 1.689300
-3.480800 1.749300
-3.459500 1.482700
-3.438200 1.648400
-3.416900 1.994700
-3.395600 2.341000
-3.374300 2.687300
-3.352900 1.722000
-3.331600 1.760300
-3.310300 1.798500
-3.289000 1.836800
-3.267700 1.875100
-3.246400 1.938300
-3.225000 1.999300
-3.203700 2.060300
-3.182400 2.121300
-3.161100 2.175200
-3.139800 2.223900
-3.118400 2.272600
-3.097100 2.328400
-3.075800 2.444600
-3.054500 2.474300
-3.033200 2.392800
-3.011900 2.316300
-2.990500 2.243700
-2.969200 2.205500
-2.947900 2.259400
-2.926600 2.306900
-2.905300 2.354500
-2.884000 2.576400
-2.862600 2.323900
-2.841300 2.481000
-2.820000 2.638100
-2.798700 2.753800
-2.777400 2.842100
-2.756100 2.052500
-2.734700 2.038700
-2.713400 2.024900
-2.692100 2.011100
-2.670800 1.997300
-2.649500 1.983500
-2.628200 1.969700
-2.606800 2.404200
-2.585500 2.710100
-2.564200 2.728700
-2.542900 2.747300
-2.521600 2.765900
-2.500200 2.803000
-2.478900 2.868300
-2.457600 2.933500
-2.436300 3.001000
-2.415000 3.069500
-2.393700 3.138100
-2.372300 3.206600
-2.351000 3.255000
-2.329700 3.264200
-2.308400 3.296000
-2.287100 3.329700
-2.265800 4.820300
-2.244400 3.140000
-2.223100 3.066600
-2.201800 3.025300
-2.180500 3.027600
-2.159200 3.031000
-2.137900 3.015000
-2.116500 2.988900
-2.095200 2.962900
-2.073900 2.936900
-2.052600 7.897300
-2.031300 5.785900
-2.010000 4.664300
-1.988600 4.585700
-1.967300 4.548300
-1.946000 4.603600
-1.924700 4.679700
-1.903400 8.326500
-1.882000 6.355800
-1.860700 4.762200
-1.839400 4.081200
-1.818100 3.529600
-1.796800 3.127300
-1.775500 2.741200
-1.754100 2.529400
-1.732800 2.360000
-1.711500 2.190700
-1.690200 1.604900
-1.668900 1.565200
-1.647600 1.584600
-1.626200 1.604000
-1.604900 1.629400
-1.583600 1.727200
-1.562300 1.884800
-1.541000 2.036600
-1.519700 2.179100
-1.498300 2.322800
-1.477000 2.466600
-1.455700 2.610300
-1.434400 2.767100
-1.413100 2.991200
-1.391800 3.215200
-1.370400 3.439300
-1.349100 3.532700
-1.327800 3.616700
-1.306500 3.700600
-1.285200 3.784600
-1.263800 3.474300
-1.242500 3.543600
-1.221200 3.612900
-1.199900 2.930200
-1.178600 2.584400
-1.157300 2.566500
-1.135900 2.548700
-1.114600 2.530800
-1.093300 2.512900
-1.072000 2.501200
-1.050700 2.100500
-1.029400 2.058900
-1.008000 2.017300
-0.986700 2.465500
-0.965400 2.522000
-0.944100 2.676500
-0.922800 2.832900
-0.901500 2.989500
-0.880100 3.146100
-0.858800 2.973500
-0.837500 3.042500
-0.816200 2.772100
-0.794900 2.772400
-0.773600 2.772700
-0.752200 2.769700
-0.730900 5.518500
-0.709600 4.184800
-0.688300 3.224000
-0.667000 3.245100
-0.645600 3.264900
-0.624300 3.284800
-0.603000 3.302800
-0.581700 3.309000
-0.560400 3.319900
-0.539100 3.314600
-0.517700 3.309200
-0.496400 3.303800
-0.475100 3.295700
-0.453800 3.292000
-0.432500 3.295700
-0.411200 3.303300
-0.389800 3.311000
-0.368500 3.318700
-0.347200 3.326400
-0.325900 3.337700
-0.304600 3.360800
-0.283300 3.384900
-0.261900 3.408900
-0.240600 3.433000
-0.219300 3.457100
-0.198000 3.484100
-0.176700 3.545400
-0.155400 3.717400
-0.134000 4.048500
-0.112700 4.405000
-0.091400 4.949200
-0.070100 5.470000
-0.048800 5.990900
-0.027400 5.743100
-0.006100 5.336500
0.015200 4.712200
0.036500 4.817200
0.057800 3.352900
0.079100 3.154700
0.100500 2.977300
0.121800 2.799800
0.143100 2.634500
0.164400 2.469200
0.185700 2.303900
0.207000 2.216700
0.228400 2.197000
0.249700 2.200900
0.271000 2.229700
0.292300 2.258400
0.313600 2.220000
0.334900 2.246100
0.356300 2.272200
0.377600 2.298300
0.398900 2.324500
0.420200 2.099900
0.441500 2.132400
0.462900 2.184400
0.484200 2.241000
0.505500 4.064700
0.526800 2.545400
0.548100 2.573700
0.569400 2.601900
0.590800 2.634400
0.612100 2.704100
0.633400 2.773800
0.654700 2.796300
0.676000 2.850200
0.697300 2.904200
0.718700 2.947200
0.740000 2.957300
0.761300 2.967300
0.782600 2.977300
0.803900 2.987300
0.825200 2.997400
0.846600 3.007400
0.867900 3.036100
0.889200 3.071800
0.910500 3.106800
0.931800 2.798700
0.953100 2.802700
0.974500 2.806400
0.995800 2.810200
1.017100 2.802100
1.038400 2.794000
1.059700 2.792700
1.081100 2.793500
1.102400 2.864900
1.123700 2.922300
1.145000 2.979600
1.166300 3.036900
1.187600 3.094200
1.209000 3.151600
1.230300 3.208900
1.251600 3.266200
1.272900 3.307800
1.294200 3.471000
1.315500 6.074700
1.336900 3.672700
1.358200 3.620100
1.379500 3.566700
1.400800 3.512500
1.422100 3.458400
1.443400 3.404000
1.464800 3.349600
1.486100 3.295200
1.507400 3.240900
1.528700 3.186500
1.550000 3.147600
1.571300 3.105400
1.592700 3.063200
1.614000 3.022000
1.635300 2.980800
1.656600 2.984500
1.677900 3.032200
1.699300 3.089400
1.720600 3.152300
1.741900 3.215200
1.763200 3.278000
1.784500 3.340900
1.805800 3.367200
1.827200 3.430600
1.848500 3.494100
1.869800 3.558600
1.891100 3.624300
1.912400 3.691100
1.933700 3.762100
1.955100 3.842100
1.976400 4.899500
1.997700 4.683900
2.019000 4.480000
2.040300 4.354600
2.061600 4.320600
2.083000 4.358900
2.104300 4.379400
2.125600 4.383400
2.146900 4.387400
2.168200 4.391500
2.189500 4.442500
2.210900 4.475400
2.232200 4.657600
2.253500 5.097700
2.274800 5.302100
2.296100 5.493000
2.317500 5.662100
2.338800 5.892000
2.360100 6.044700
2.381400 6.197500
2.402700 6.350200
2.424000 6.503000
2.445400 6.655700
2.466700 6.696800
2.488000 5.642700
2.509300 5.554700
2.530600 5.466700
2.551900 5.385300
2.573300 5.303700
2.594600 5.222100
2.615900 5.108000
2.637200 4.673900
2.658500 4.669600
2.679800 4.665400
2.701200 4.660700
2.722500 4.648500
2.743800 4.636400
2.765100 4.624200
2.786400 4.612100
2.807700 4.599900
2.829100 4.700700
2.850400 4.687800
2.871700 4.905600
2.893000 4.851200
2.914300 4.819700
2.935700 4.791800
2.957000 4.931900
2.978300 4.917100
2.999600 5.091500
3.020900 5.057400
3.042200 5.064400
3.063600 5.207800
3.084900 5.392200
3.106200 5.778300
3.127500 6.337400
3.148800 6.354600
3.170100 6.718200
3.191500 6.572000
3.212800 6.735400
3.234100 6.892300
3.255400 7.049900
3.276700 6.423000
3.298000 5.870800
3.319400 5.613200
3.340700 4.361600
3.362000 4.348100
3.383300 4.344000
3.404600 4.958400
3.425900 5.671800
3.447300 5.439500
3.468600 5.663400
3.489900 5.920700
3.511200 6.183100
3.532500 6.445500
3.553900 5.367200
3.575200 5.300100
3.596500 5.252400
3.617800 5.232900
3.639100 5.212200
3.660400 5.191600
3.681800 5.171000
3.703100 5.150400
3.724400 5.129700
3.745700 5.107700
3.767000 5.084100
3.788300 5.052100
3.809700 4.990400
3.831000 4.938900
3.852300 4.896400
3.873600 4.854800
3.894900 5.089800
3.916200 5.047600
3.937600 4.997200
3.958900 4.967700
3.980200 5.116800
4.001500 5.468600
4.022800 5.803600
4.044100 6.136700
4.065500 7.529000
4.086800 7.136500
4.108100 6.787700
4.129400 6.455600
4.150700 6.171700
4.172100 5.940700
4.193400 5.709800
4.214700 5.609200
4.236000 5.559200
4.257300 6.377300
4.278600 6.391400
4.300000 6.394700
4.321300 6.370000
4.342600 6.346500
4.363900 6.325500
4.385200 6.341000
4.406500 6.465300
4.427900 6.496600
4.449200 6.547800
4.470500 6.616500
4.491800 6.410900
4.513100 6.021800
4.534400 5.862100
4.555800 5.759800
4.577100 5.632700
4.598400 5.477200
4.619700 5.321600
4.641000 5.244200
4.662300 5.249100
4.683700 5.254400
4.705000 5.319700
4.726300 5.885300
4.747600 6.052200
4.768900 6.221400
4.790300 6.349000
4.811600 6.532300
4.832900 7.279000
4.854200 7.349600
4.875500 7.358700
4.896800 7.588200
4.918200 7.174600
4.939500 6.734200
4.960800 6.586300
4.982100 6.478600
5.003400 6.364600
5.024700 6.349400
5.046100 6.341500
5.067400 6.228600
5.088700 6.140900
5.110000 5.934600
5.131300 5.731000
5.152600 5.662400
5.174000 5.675000
5.195300 5.687900
5.216600 5.701500
5.237900 5.708900
5.259200 5.708400
5.280500 5.719300
5.301900 5.720800
5.323200 5.730400
5.344500 5.411000
5.365800 5.367900
5.387100 5.323100
5.408500 5.278400
5.429800 5.240500
5.451100 5.199400
5.472400 5.102900
5.493700 5.011900
5.515000 4.999500
5.536400 4.986500
5.557700 4.896000
5.579000 4.884900
5.600300 4.878900
5.621600 4.934900
5.642900 4.932300
5.664300 4.930300
5.685600 4.929500
5.706900 5.040500
5.728200 5.039700
5.749500 5.038900
5.770800 5.001800
5.792200 5.013500
5.813500 5.025300
5.834800 5.037000
5.856100 5.233600
5.877400 5.278300
5.898700 5.323500
5.920100 5.370900
5.941400 5.417800
5.962700 5.480900
5.984000 5.471400
6.005300 5.445800
6.026700 5.444900
6.048000 5.419400
6.069300 5.386100
6.090600 5.428100
6.111900 5.481300
6.133200 5.528400
6.154600 5.577000
6.175900 5.760700
6.197200 6.254300
6.218500 6.715200
6.239800 7.176200
6.261100 6.634100
6.282500 6.354500
6.303800 6.059300
6.325100 5.966700
6.346400 6.613700
6.367700 6.479800
6.389000 6.301200
6.410400 6.262300
6.431700 6.191000
6.453000 6.064400
6.474300 5.934500
6.495600 5.804700
6.516900 5.726800
6.538300 5.634300
6.559600 5.538100
6.580900 5.431800
6.602200 5.333300
6.623500 5.252800
6.644900 5.171800
6.666200 5.090900
6.687500 5.048000
6.708800 4.964300
6.730100 4.880600
6.751400 4.821200
6.772800 4.775200
6.794100 4.729300
6.815400 4.940000
6.836700 4.918200
6.858000 4.885700
6.879300 4.788000
6.900700 4.685100
6.922000 4.582800
6.943300 4.514700
6.964600 4.457600
6.985900 4.400600
7.007200 4.343600
7.028600 4.254600
7.049900 4.188900
7.071200 4.489500
7.092500 4.348400
7.113800 4.655900
7.135200 4.427200
7.156500 4.202200
7.177800 3.965900
7.199100 3.732900
7.220400 3.530000
7.241700 3.378400
7.263100 3.278800
7.284400 3.220700
7.305700 3.163800
7.327000 3.096200
7.348300 3.015300
7.369600 2.931800
7.391000 2.850500
7.412300 2.790900
7.433600 2.730000
7.454900 2.682900
7.476200 2.639600
7.497500 2.596200
7.518900 2.552800
7.540200 2.509500
7.561500 2.466500
7.582800 2.427200
7.604100 2.387900
7.625400 2.353300
7.646800 2.334800
7.668100 2.376800
7.689400 2.420700
7.710700 2.362300
7.732000 2.301800
7.753400 2.241200
7.774700 2.180700
7.796000 2.120100
7.817300 2.059600
7.838600 1.999100
7.859900 1.941200
7.881300 1.885000
7.902600 1.829600
7.923900 1.776300
7.945200 1.722500
7.966500 1.674200
7.987800 1.604400
8.009200 1.523000
8.030500 1.509000
8.051800 1.494900
8.073100 1.480900
8.094400 1.469200
8.115700 1.459300
8.137100 1.449400
8.158400 1.438400
8.179700 1.425200
8.201000 1.414400
8.222300 1.403500
8.243600 1.392700
8.265000 1.381800
8.286300 1.367800
8.307600 1.354400
8.328900 1.341000
8.350200 1.327600
8.371600 1.314200
8.392900 1.300900
8.414200 1.287500
8.435500 1.309800
8.456800 1.292800
8.478100 1.275700
8.499500 1.258700
8.520800 1.241700
8.542100 1.225200
8.563400 1.208400
8.584700 1.191900
8.606000 1.175300
8.627400 1.158700
8.648700 1.142100
8.670000 1.125500
8.691300 1.108900
8.712600 1.092400
8.733900 1.075800
8.755300 1.065400
8.776600 1.090800
8.797900 1.218100
8.819200 1.185600
8.840500 1.152400
8.861800 1.330100
8.883200 1.272100
8.904500 1.214100
8.925800 1.156200
8.947100 1.098200
8.968400 1.040200
8.989800 0.982200
9.011100 0.924300
9.032400 0.823600
9.053700 0.768900
9.075000 0.714900
9.096300 0.660900
9.117700 0.606900
9.139000 0.558700
9.160300 0.547600
9.181600 0.536400
9.202900 0.525300
9.224200 0.514200
9.245600 0.503100
9.266900 0.492000
9.288200 0.480900
9.309500 0.469700
9.330800 0.458600
9.352100 0.447500
9.373500 0.436400
9.394800 0.525600
9.416100 0.504900
9.437400 0.484200
9.458700 0.463500
9.480000 0.533300
9.501400 0.486600
9.522700 0.440000
9.544000 0.393400
9.565300 0.346800
9.586600 0.300200
9.608000 0.253600
9.629300 0.207000
9.650600 0.164600
9.671900 0.122900
9.693200 0.081100
9.714500 0.039400
9.735900 0.000000
9.757200 0.000000
9.778500 0.000000
9.799800 0.000000
9.821100 0.000000
9.842400 0.000000
9.863800 0.000000
9.885100 0.000000
9.906400 0.000000
9.927700 0.000000
9.949000 0.000000
9.970300 0.000000
9.991700 0.000000
10.013000 0.000000
10.034300 0.000000
10.055600 0.000000
10.076900 0.000000
10.098200 0.000000
10.119600 0.000000
10.140900 0.000000
10.162200 0.000000
10.183500 0.000000
10.204800 0.000000
10.226200 0.000000
10.247500 0.000000
10.268800 0.000000
10.290100 0.000000
10.311400 0.000000
10.332700 0.000000
10.354100 0.000000
10.375400 0.000000
10.396700 0.000000
10.418000 0.000000
10.439300 0.000000
10.460600 0.000000
10.482000 0.000000
10.503300 0.000000
10.524600 0.000000
10.545900 0.000000
10.567200 0.000000
10.588500 0.000000
10.609900 0.000000
10.631200 0.000000
10.652500 0.000000
10.673800 0.000000
10.695100 0.000000
10.716400 0.000000
10.737800 0.000000
10.759100 0.000000
10.780400 0.000000
10.801700 0.000000
10.823000 0.000000
10.844400 0.000000
10.865700 0.000000
10.887000 0.000000
10.908300 0.000000
10.929600 0.000000
10.950900 0.000000
10.972300 0.000000
10.993600 0.000000
11.014900 0.000000
11.036200 0.000000
11.057500 0.000000
11.078800 0.000000
11.100200 0.000000
11.121500 0.000000
11.142800 0.000000
11.164100 0.000000
11.185400 0.000000
11.206700 0.000000
11.228100 0.000000
11.249400 0.000000
11.270700 0.000000
11.292000 0.000000
11.313300 0.000000
11.334600 0.000000
11.356000 0.000000
11.377300 0.000000
11.398600 0.000000
11.419900 0.000000
11.441200 0.000000
11.462600 0.000000
11.483900 0.000000
11.505200 0.000000
11.526500 0.000000
11.547800 0.000000
11.569100 0.000000
11.590500 0.000000
11.611800 0.000000
11.633100 0.000000
11.654400 0.000000
11.675700 0.000000
11.697000 0.000000
11.718400 0.000000
11.739700 0.000000
11.761000 0.000000
11.782300 0.000000
11.803600 0.000000
11.824900 0.000000
11.846300 0.000000
11.867600 0.000000
11.888900 0.000000
11.910200 0.000000
11.931500 0.000000
11.952800 0.000000
11.974200 0.000000
11.995500 0.000000
12.016800 0.000000
12.038100 0.000000
12.059400 0.000000
12.080800 0.000000
12.102100 0.000000
12.123400 0.000000
12.144700 0.000000
12.166000 0.000000
12.187300 0.000000
12.208700 0.000000
12.230000 0.000000
12.251300 0.000000
12.272600 0.000000
12.293900 0.000000
12.315200 0.000000
12.336600 0.000000
12.357900 0.000000
12.379200 0.000000
12.400500 0.000000
12.421800 0.000000
12.443100 0.000000
12.464500 0.000000
12.485800 0.000000
12.507100 0.000000
12.528400 0.000000
12.549700 0.000000
12.571000 0.000000
12.592400 0.000000
12.613700 0.000000
12.635000 0.000000
12.656300 0.000000
12.677600 0.000000
12.699000 0.000000
12.720300 0.000000
12.741600 0.000000
12.762900 0.000000
12.784200 0.000000
12.805500 0.000000
12.826900 0.000000
12.848200 0.000000
12.869500 0.000000
12.890800 0.000000
12.912100 0.000000
12.933400 0.000000
12.954800 0.000000
12.976100 0.000000
12.997400 0.000000
13.018700 0.000000
13.040000 0.000000
13.061300 0.000000
13.082700 0.000000
13.104000 0.000000
13.125300 0.000000
13.146600 0.000000
13.167900 0.000000
13.189300 0.000000
13.210600 0.000000
13.231900 0.000000
13.253200 0.000000
13.274500 0.000000
13.295800 0.000000
13.317200 0.000000
13.338500 0.000000
13.359800 0.000000
13.381100 0.000000
13.402400 0.000000
13.423700 0.000000
13.445100 0.000000
13.466400 0.000000
13.487700 0.000000
13.509000 0.000000
13.530300 0.000000
13.551600 0.000000
13.573000 0.000000
13.594300 0.000000
13.615600 0.000000
13.636900 0.000000
13.658200 0.000000
13.679500 0.000000
13.700900 0.000000
13.722200 0.000000
13.743500 0.000000
13.764800 0.000000
13.786100 0.000000
13.807500 0.000000
13.828800 0.000000
13.850100 0.000000
13.871400 0.000000
13.892700 0.000000
13.914000 0.000000
13.935400 0.000000
13.956700 0.000000
13.978000 0.000000
13.999300 0.000000
14.020600 0.000000
14.041900 0.000000
14.063300 0.000000
14.084600 0.000000
14.105900 0.000000
14.127200 0.067800
14.148500 0.285700
14.169800 0.418700
14.191200 0.475100
14.212500 0.531400
14.233800 0.587700
14.255100 0.644100
14.276400 0.700400
14.297700 0.756800
14.319100 0.813100
14.340400 0.869400
14.361700 0.921400
14.383000 0.942700
14.404300 0.956900
14.425700 0.971000
14.447000 0.985200
14.468300 0.999300
14.489600 1.013500
14.510900 1.027700
14.532200 1.041800
14.553600 1.056000
14.574900 1.254000
14.596200 1.455600
14.617500 1.568700
14.638800 1.680100
14.660100 1.763200
14.681500 1.798100
14.702800 1.854500
14.724100 2.012700
14.745400 2.174000
14.766700 2.261900
14.788000 2.333400
14.809400 2.401600
14.830700 2.476200
14.852000 2.548200
14.873300 2.681200
14.894600 2.734700
14.915900 2.788300
14.937300 2.841900
14.958600 2.895400
14.979900 2.949000
15.001200 3.002500
15.022500 3.123500
15.043900 3.259100
15.065200 3.829800
15.086500 3.894500
15.107800 3.959200
15.129100 4.023800
15.150400 4.070800
15.171800 5.455600
15.193100 4.993600
15.214400 10.325600
15.235700 4.121600
15.257000 3.820600
15.278300 3.535300
15.299700 3.574600
15.321000 3.640900
15.342300 3.707200
15.363600 3.773500
15.384900 3.839800
15.406200 3.932200
15.427600 4.879800
15.448900 4.587500
15.470200 4.295200
15.491500 3.988600
15.512800 3.625600
15.534100 4.031900
15.555500 4.043700
15.576800 4.055600
15.598100 3.978100
15.619400 3.892500
15.640700 3.798800
15.662100 3.757200
15.683400 3.747900
15.704700 3.698300
15.726000 3.606300
15.747300 3.492900
15.768600 3.416000
15.790000 6.005700
15.811300 4.825300
15.832600 4.033900
15.853900 4.054900
15.875200 7.918700
15.896500 8.528400
15.917900 7.139800
15.939200 6.708000
15.960500 6.037900
15.981800 5.150700
16.003100 4.655600
16.024400 4.505500
16.045800 4.363900
16.067100 3.342600
16.088400 3.383500
16.109700 3.424400
16.131000 3.888700
16.152300 4.683400
16.173700 5.478100
16.195000 6.891600
16.216300 6.672000
16.237600 6.459700
16.258900 6.103900
16.280300 5.760400
16.301600 5.416900
16.322900 5.070300
16.344200 4.831500
16.365500 4.737800
16.386800 4.687300
16.408200 4.773900
16.429500 4.903100
16.450800 4.943500
16.472100 5.058600
16.493400 7.505800
16.514700 7.023900
16.536100 6.506600
16.557400 5.969700
16.578700 4.730900
16.600000 4.639700
16.621300 4.608600
16.642600 4.032700
16.664000 4.049200
16.685300 4.096100
16.706600 4.014100
16.727900 4.016300
16.749200 4.012700
16.770500 3.902700
16.791900 3.950000
16.813200 3.997400
16.834500 4.032900
16.855800 4.081500
16.877100 4.121600
16.898500 4.167800
16.919800 4.213900
16.941100 4.260000
16.962400 4.304500
16.983700 7.155500
17.005000 7.002200
17.026400 6.384100
17.047700 6.295800
17.069000 6.038500
17.090300 5.995400
17.111600 6.019100
17.132900 6.024000
17.154300 6.012800
17.175600 6.348400
17.196900 7.300400
17.218200 5.968800
17.239500 6.126100
17.260800 6.498900
17.282200 6.613000
17.303500 7.004400
17.324800 7.348800
17.346100 6.936100
17.367400 6.772300
17.388700 6.672800
17.410100 5.881700
17.431400 5.901000
17.452700 5.902700
17.474000 5.950800
17.495300 6.076100
17.516700 6.235000
17.538000 6.404200
17.559300 6.570700
17.580600 6.274800
17.601900 6.092900
17.623200 6.125200
17.644600 5.968500
17.665900 5.947200
17.687200 5.629700
17.708500 5.695300
17.729800 6.168600
17.751100 6.353300
17.772500 6.502100
17.793800 6.632800
17.815100 6.739900
17.836400 6.852000
17.857700 7.124600
17.879000 7.406100
17.900400 8.109700
17.921700 8.442100
17.943000 9.688900
17.964300 8.336500
17.985600 8.694300
18.006900 8.941400
18.028300 9.189000
18.049600 8.127700
18.070900 7.444300
18.092200 6.779700
18.113500 6.650400
18.134900 6.898000
18.156200 7.809900
18.177500 9.249100
18.198800 7.234100
18.220100 7.394200
18.241400 8.004400
18.262800 9.031400
18.284100 8.709400
18.305400 9.402100
18.326700 7.510300
18.348000 7.723700
18.369300 7.939200
18.390700 8.207700
18.412000 8.180200
18.433300 8.508100
18.454600 8.978100
18.475900 9.451000
18.497200 8.444100
18.518600 8.822300
18.539900 9.029400
18.561200 10.229600
18.582500 8.763500
18.603800 7.316500
18.625100 7.044700
18.646500 6.866100
18.667800 7.183300
18.689100 7.622400
18.710400 7.525800
18.731700 7.429100
18.753100 7.332500
18.774400 7.235800
18.795700 12.284900
18.817000 6.764500
18.838300 6.694000
18.859600 6.620300
18.881000 6.164800
18.902300 6.041000
18.923600 6.152800
18.944900 6.304100
18.966200 6.455300
18.987500 6.542700
19.008900 6.687800
19.030200 13.094500
19.051500 9.682900
19.072800 6.986000
19.094100 6.095700
19.115400 5.568800
19.136800 5.735000
19.158100 5.935200
19.179400 6.235200
19.200700 6.570900
19.222000 7.714500
19.243300 8.776900
19.264700 8.487600
19.286000 7.880700
19.307300 6.635900
19.328600 5.959200
19.349900 5.687100
19.371300 5.477000
19.392600 5.091300
19.413900 4.351700
19.435200 4.315400
19.456500 4.560800
19.477800 4.771800
19.499200 4.817100
19.520500 4.862400
19.541800 4.906100
19.563100 6.190900
19.584400 5.605800
19.605700 5.114000
19.627100 6.021700
19.648400 5.668800
19.669700 5.307500
19.691000 4.946200
19.712300 4.701200
19.733600 4.683100
19.755000 4.669600
19.776300 4.634200
19.797600 4.701900
19.818900 4.714300
19.840200 4.641600
19.861600 4.672300
19.882900 4.703300
19.904200 4.731300
19.925500 4.758900
19.946800 4.786600
19.968100 4.806000
19.989500 4.785600
20.010800 4.815200
20.032100 4.678000
20.053400 4.755700
20.074700 5.133100
20.096000 5.644400
20.117400 7.395700
20.138700 10.454600
20.160000 6.525200
20.181300 7.820200
20.202600 9.545500
20.223900 6.234200
20.245300 6.488000
20.266600 6.795500
20.287900 7.116700
20.309200 7.670400
20.330500 8.044700
20.351800 7.737400
20.373200 6.883600
20.394500 6.090300
20.415800 5.703100
20.437100 5.235900
20.458400 5.218900
20.479800 5.205000
20.501100 5.248800
20.522400 5.238200
20.543700 5.163200
20.565000 5.088200
20.586300 5.111500
20.607700 5.092700
20.629000 5.074200
20.650300 5.124200
20.671600 5.120500
20.692900 5.507500
20.714200 4.974200
20.735600 4.507200
20.756900 4.569900
20.778200 5.049100
20.799500 4.990500
20.820800 4.854200
20.842100 5.074700
20.863500 5.334300
20.884800 5.594000
20.906100 5.853600
20.927400 5.896400
20.948700 5.824600
20.970000 5.834300
20.991400 5.844000
21.012700 5.853700
21.034000 5.884000
21.055300 6.031600
21.076600 6.126600
21.098000 6.309500
21.119300 6.204700
21.140600 6.196900
21.161900 6.243900
21.183200 6.773300
21.204500 6.886400
21.225900 5.957100
21.247200 5.728200
21.268500 5.089100
21.289800 4.620900
21.311100 5.779100
21.332400 3.951000
21.353800 3.653800
21.375100 3.612000
21.396400 3.570300
21.417700 3.528500
21.439000 3.486800
21.460300 3.445000
21.481700 3.412100
21.503000 3.937300
21.524300 4.847900
21.545600 5.760700
21.566900 5.212600
21.588200 5.067000
21.609600 4.921500
21.630900 4.775900
21.652200 4.630300
21.673500 4.278500
21.694800 4.751800
21.716200 4.677400
21.737500 4.735200
21.758800 4.967900
21.780100 3.983600
21.801400 4.059900
21.822700 4.191100
21.844100 4.491400
21.865400 4.805700
21.886700 5.143600
21.908000 5.481600
21.929300 5.836000
21.950600 6.352100
21.972000 6.247000
21.993300 6.149400
22.014600 6.064400
22.035900 7.303300
22.057200 6.666600
22.078500 6.971200
22.099900 6.905300
22.121200 6.482600
22.142500 6.290400
22.163800 6.088000
22.185100 5.879000
22.206400 5.762600
22.227800 5.450600
22.249100 5.335200
22.270400 5.551800
22.291700 5.294800
22.313000 5.579100
22.334400 5.198100
22.355700 4.817000
22.377000 4.450900
22.398300 4.277700
22.419600 4.336500
22.440900 4.907200
22.462300 4.856100
22.483600 4.008000
22.504900 3.920000
22.526200 3.831900
22.547500 3.862500
22.568800 5.927000
22.590200 5.195200
22.611500 4.606900
22.632800 5.531700
22.654100 5.431600
22.675400 5.981500
22.696700 5.935000
22.718100 5.888500
22.739400 5.835100
22.760700 5.802400
22.782000 7.309200
22.803300 7.009500
22.824600 6.722100
22.846000 6.714900
22.867300 7.040000
22.888600 8.136800
22.909900 9.327700
22.931200 6.726100
22.952600 6.844300
22.973900 6.730400
22.995200 6.484900
23.016500 6.573700
23.037800 6.837700
23.059100 7.101600
23.080500 7.365600
23.101800 10.204500
23.123100 9.374400
23.144400 8.145000
23.165700 8.185400
23.187000 8.255000
23.208400 7.273300
23.229700 6.839500
23.251000 6.451700
23.272300 6.126000
23.293600 5.764100
23.314900 5.097700
23.336300 5.043900
23.357600 5.088000
23.378900 5.183700
23.400200 6.259800
23.421500 8.127600
23.442800 6.387000
23.464200 8.172300
23.485500 5.948100
23.506800 5.952000
23.528100 8.054300
23.549400 7.440400
23.570800 6.826400
23.592100 6.128400
23.613400 5.508600
23.634700 5.227900
23.656000 6.771700
23.677300 6.039500
23.698700 5.389000
23.720000 4.738500
23.741300 3.815200
23.762600 5.138800
23.783900 8.768700
23.805200 5.303800
23.826600 5.104700
23.847900 5.079500
23.869200 5.054300
23.890500 5.016400
23.911800 4.970300
23.933100 4.948500
23.954500 4.926600
23.975800 4.914800
23.997100 4.916600
24.018400 4.906700
24.039700 4.896400
24.061000 4.892400
24.082400 4.901700
24.103700 4.899000
24.125000 4.882000
24.146300 4.864900
24.167600 4.847900
24.189000 4.830800
24.210300 4.871400
24.231600 5.049200
24.252900 5.015300
24.274200 14.346600
24.295500 7.587000
24.316900 7.572300
24.338200 6.218600
24.359500 4.557400
24.380800 4.593100
24.402100 4.628800
24.423400 4.683900
24.444800 4.755200
24.466100 4.515400
24.487400 4.630500
24.508700 4.014300
24.530000 4.857300
24.551300 5.907800
24.572700 4.191900
24.594000 4.276900
24.615300 4.362100
24.636600 4.442800
24.657900 4.626500
24.679200 4.699700
24.700600 4.772900
24.721900 4.176000
24.743200 4.212800
24.764500 4.248300
24.785800 4.284500
24.807200 4.321300
24.828500 4.358100
24.849800 4.386000
24.871100 4.411900
24.892400 4.449000
24.913700 7.868600
24.935100 5.843700
24.956400 4.173900
24.977700 4.027800
24.999000 3.881600
25.020300 3.735500
25.041600 3.574800
25.063000 3.422900
25.084300 3.306000
25.105600 3.236600
25.126900 3.208400
25.148200 3.278100
25.169500 3.348900
25.190900 4.028200
25.212200 3.873700
25.233500 3.753200
25.254800 4.024400
25.276100 4.460800
25.297400 6.002300
25.318800 12.250700
25.340100 5.468500
25.361400 7.510800
25.382700 6.456900
25.404000 5.403100
25.425400 5.425800
25.446700 5.618800
25.468000 3.873100
25.489300 3.845700
25.510600 3.818300
25.531900 3.014200
25.553300 2.964600
25.574600 2.913200
25.595900 2.861700
25.617200 2.810200
25.638500 2.758700
25.659800 2.709300
25.681200 2.740700
25.702500 2.699900
25.723800 2.659000
25.745100 2.616700
25.766400 2.565800
25.787700 2.514900
25.809100 2.464100
25.830400 2.411000
25.851700 2.362600
25.873000 2.326200
25.894300 2.288800
25.915600 2.253500
25.937000 2.234500
25.958300 2.215400
25.979600 2.197300
26.000900 2.180400
26.022200 2.163500
26.043600 2.449400
26.064900 2.324500
26.086200 2.204000
26.107500 2.017900
26.128800 1.827800
26.150100 1.688600
26.171500 1.629300
26.192800 1.572300
26.214100 1.517800
26.235400 1.463600
26.256700 1.409400
26.278000 1.355100
26.299400 1.300900
26.320700 1.246700
26.342000 1.192400
26.363300 1.138200
26.384600 1.084000
26.405900 1.047900
26.427300 1.038500
26.448600 1.029100
26.469900 1.019600
26.491200 1.010200
26.512500 1.000800
26.533900 0.991300
26.555200 0.981900
26.576500 0.972500
26.597800 1.130700
26.619100 1.208600
26.640400 1.286600
26.661800 1.247300
26.683100 1.219600
26.704400 1.313200
26.725700 1.183600
26.747000 1.054100
26.768300 0.924600
26.789700 0.795100
26.811000 0.665500
26.832300 0.536000
26.853600 0.406500
26.874900 0.333000
26.896200 0.286000
26.917600 0.239000
26.938900 0.192100
26.960200 0.145100
26.981500 0.098200
27.002800 0.051200
27.024100 0.004300
27.045500 0.000000
27.066800 0.000000
27.088100 0.000000
27.109400 0.000000
27.130700 0.000000
27.152100 0.000000
27.173400 0.000000
27.194700 0.000000
27.216000 0.000000
27.237300 0.000000
27.258600 0.000000
27.280000 0.000000
27.301300 0.000000
27.322600 0.000000
27.343900 0.000000
27.365200 0.000000
27.386500 0.000000
27.407900 0.000000
27.429200 0.000000
27.450500 0.000000
27.471800 0.000000
27.493100 0.000000
27.514400 0.000000
27.535800 0.000000
27.557100 0.000000
27.578400 0.000000
27.599700 0.000000
27.621000 0.000000
27.642300 0.000000
27.663700 0.000000
27.685000 0.000000
27.706300 0.000000
27.727600 0.000000
27.748900 0.000000
27.770300 0.000000
27.791600 0.000000
27.812900 0.000000
27.834200 0.000000
27.855500 0.000000
27.876800 0.000000
27.898200 0.000000
27.919500 0.000000
27.940800 0.000000
27.962100 0.000000
27.983400 0.000000
28.004700 0.000000
28.026100 0.000000
28.047400 0.000000
28.068700 0.000000
28.090000 0.000000
28.111300 0.000000
28.132600 0.000000
28.154000 0.000000
28.175300 0.000000
28.196600 0.000000
28.217900 0.000000
28.239200 0.000000
28.260500 0.000000
28.281900 0.000000
28.303200 0.000000
28.324500 0.000000
28.345800 0.000000
28.367100 0.000000
28.388500 0.000000
28.409800 0.000000
28.431100 0.000000
28.452400 0.000000
28.473700 0.000000
28.495000 0.000000
28.516400 0.000000
28.537700 0.000000
28.559000 0.000000
28.580300 0.000000
28.601600 0.000000
28.622900 0.000000
28.644300 0.000000
28.665600 0.000000
28.686900 0.000000
28.708200 0.000000
28.729500 0.000000
28.750800 0.000000
28.772200 0.000000
28.793500 0.000000
28.814800 0.000000
28.836100 0.000000
28.857400 0.000000
28.878700 0.000000
28.900100 0.000000
28.921400 0.000000
28.942700 0.000000
28.964000 0.000000
e
