set title 'mp-997182 - Density of States'
set xlabel 'Energy (eV)'
set ylabel 'DOS (states/eV)'
set grid
set xrange [-10:10]
set yrange [0:5.792]
set xzeroaxis lt -1
set terminal png size 800,600
set output 'mp-997182_dos_gnuplot.png'
plot '-' using 1:2 with lines title 'DOS'
-22.529400 0.000000
-22.498800 0.000000
-22.468100 0.000000
-22.437500 0.000000
-22.406900 0.000000
-22.376200 0.000000
-22.345600 0.000000
-22.314900 0.000000
-22.284300 0.000000
-22.253600 0.000000
-22.223000 0.000000
-22.192300 0.000000
-22.161700 0.000000
-22.131100 0.000000
-22.100400 0.000000
-22.069800 0.000000
-22.039100 0.000000
-22.008500 0.000000
-21.977800 0.000000
-21.947200 0.000000
-21.916500 0.000000
-21.885900 0.000000
-21.855300 0.000000
-21.824600 0.000000
-21.794000 0.000000
-21.763300 0.000000
-21.732700 0.000000
-21.702000 0.000000
-21.671400 0.000000
-21.640700 0.000000
-21.610100 0.000000
-21.579500 0.000000
-21.548800 0.000000
-21.518200 0.000000
-21.487500 0.000000
-21.456900 0.000000
-21.426200 0.000000
-21.395600 0.000000
-21.364900 0.000000
-21.334300 0.000000
-21.303700 0.000000
-21.273000 0.000000
-21.242400 0.000000
-21.211700 0.000000
-21.181100 0.000000
-21.150400 0.000000
-21.119800 0.000000
-21.089200 0.000000
-21.058500 0.000000
-21.027900 0.000000
-20.997200 0.000000
-20.966600 0.000000
-20.935900 0.000000
-20.905300 0.000000
-20.874600 0.000000
-20.844000 0.000000
-20.813400 0.000000
-20.782700 0.000000
-20.752100 0.000000
-20.721400 0.000000
-20.690800 0.000000
-20.660100 0.000000
-20.629500 0.000000
-20.598800 0.000000
-20.568200 0.000000
-20.537600 0.000000
-20.506900 0.000000
-20.476300 0.000000
-20.445600 0.000000
-20.415000 0.000000
-20.384300 0.000000
-20.353700 0.000000
-20.323000 0.000000
-20.292400 0.000000
-20.261800 0.000000
-20.231100 0.000000
-20.200500 0.000000
-20.169800 0.000000
-20.139200 0.000000
-20.108500 0.000000
-20.077900 0.000000
-20.047200 0.000000
-20.016600 0.000000
-19.986000 0.000000
-19.955300 0.000000
-19.924700 0.000000
-19.894000 0.000000
-19.863400 0.000000
-19.832700 0.000000
-19.802100 0.000000
-19.771400 0.000000
-19.740800 0.052300
-19.710200 0.634800
-19.679500 0.525700
-19.648900 0.574300
-19.618200 0.623000
-19.587600 0.671700
-19.556900 0.627200
-19.526300 0.575500
-19.495600 0.592600
-19.465000 0.609700
-19.434400 0.626900
-19.403700 0.644000
-19.373100 0.661200
-19.342400 0.609400
-19.311800 0.605800
-19.281100 0.602100
-19.250500 0.603600
-19.219800 0.612300
-19.189200 0.621100
-19.158600 0.629800
-19.127900 0.638600
-19.097300 0.641100
-19.066600 0.618800
-19.036000 0.607700
-19.005300 0.609400
-18.974700 0.611100
-18.944000 0.612800
-18.913400 0.614500
-18.882800 0.617200
-18.852100 0.622500
-18.821500 0.627900
-18.790800 0.633200
-18.760200 0.638600
-18.729500 0.625500
-18.698900 0.621600
-18.668200 0.617700
-18.637600 0.613700
-18.607000 0.613700
-18.576300 0.615900
-18.545700 0.618200
-18.515000 0.620400
-18.484400 0.622600
-18.453700 0.624800
-18.423100 0.627000
-18.392400 0.630300
-18.361800 0.633900
-18.331200 0.637600
-18.300500 0.636800
-18.269900 0.626700
-18.239200 0.622500
-18.208600 0.622200
-18.177900 0.621800
-18.147300 0.621500
-18.116600 0.621200
-18.086000 0.621900
-18.055400 0.623900
-18.024700 0.625900
-17.994100 0.628000
-17.963400 0.630000
-17.932800 0.632000
-17.902100 0.634000
-17.871500 0.636000
-17.840800 0.638000
-17.810200 0.640600
-17.779600 0.633700
-17.748900 0.631600
-17.718300 0.629500
-17.687600 0.627400
-17.657000 0.627600
-17.626300 0.628300
-17.595700 0.628900
-17.565100 0.629600
-17.534400 0.630300
-17.503800 0.630900
-17.473100 0.631600
-17.442500 0.633400
-17.411800 0.635100
-17.381200 0.636900
-17.350500 0.638700
-17.319900 0.640400
-17.289300 0.642200
-17.258600 0.643900
-17.228000 0.645700
-17.197300 0.643000
-17.166700 0.637500
-17.136000 0.637000
-17.105400 0.636800
-17.074700 0.636700
-17.044100 0.636600
-17.013500 0.636500
-16.982800 0.637300
-16.952200 0.638400
-16.921500 0.639400
-16.890900 0.640400
-16.860200 0.641400
-16.829600 0.642400
-16.798900 0.643400
-16.768300 0.644400
-16.737700 0.645700
-16.707000 0.647300
-16.676400 0.648900
-16.645700 0.650500
-16.615100 0.652100
-16.584400 0.653700
-16.553800 0.655300
-16.523100 0.650200
-16.492500 0.649300
-16.461900 0.648300
-16.431200 0.648200
-16.400600 0.648700
-16.369900 0.649400
-16.339300 0.650100
-16.308600 0.650800
-16.278000 0.651500
-16.247300 0.652300
-16.216700 0.653500
-16.186100 0.654900
-16.155400 0.656200
-16.124800 0.657500
-16.094100 0.658800
-16.063500 0.660100
-16.032800 0.661400
-16.002200 0.662700
-15.971500 0.664000
-15.940900 0.665400
-15.910300 0.667200
-15.879600 0.669000
-15.849000 0.670900
-15.818300 0.669500
-15.787700 0.668600
-15.757000 0.669400
-15.726400 0.670300
-15.695700 0.671100
-15.665100 0.672000
-15.634500 0.673200
-15.603800 0.674800
-15.573200 0.676400
-15.542500 0.678200
-15.511900 0.680300
-15.481200 0.682400
-15.450600 0.684500
-15.419900 0.686600
-15.389300 0.689400
-15.358700 0.692600
-15.328000 0.695800
-15.297400 0.699000
-15.266700 0.702200
-15.236100 0.705400
-15.205400 0.708500
-15.174800 0.711700
-15.144100 0.714900
-15.113500 0.718100
-15.082900 0.721800
-15.052200 0.730200
-15.021600 0.739500
-14.990900 0.748800
-14.960300 0.758800
-14.929600 0.769800
-14.899000 0.780700
-14.868300 0.791600
-14.837700 0.802500
-14.807100 0.813500
-14.776400 0.830500
-14.745800 0.849700
-14.715100 1.083400
-14.684500 1.047000
-14.653800 1.010600
-14.623200 0.974200
-14.592500 0.937800
-14.561900 1.424000
-14.531300 1.134400
-14.500600 0.844800
-14.470000 0.639800
-14.439300 0.618100
-14.408700 0.596300
-14.378000 0.574600
-14.347400 0.552900
-14.316700 0.531100
-14.286100 0.509400
-14.255500 0.491200
-14.224800 0.483500
-14.194200 0.783400
-14.163500 0.447000
-14.132900 0.434000
-14.102200 0.421000
-14.071600 0.408000
-14.041000 0.394900
-14.010300 0.381900
-13.979700 0.368900
-13.949000 0.355900
-13.918400 0.342900
-13.887700 0.329900
-13.857100 0.316900
-13.826400 0.303800
-13.795800 0.290800
-13.765200 0.277800
-13.734500 0.264800
-13.703900 0.251800
-13.673200 0.238800
-13.642600 0.243100
-13.611900 0.273500
-13.581300 0.303900
-13.550600 0.334300
-13.520000 0.364700
-13.489400 0.395000
-13.458700 0.159000
-13.428100 0.159500
-13.397400 0.252700
-13.366800 0.345800
-13.336100 0.439000
-13.305500 0.532100
-13.274800 0.625300
-13.244200 0.718400
-13.213600 0.472100
-13.182900 0.492100
-13.152300 0.793800
-13.121600 1.350400
-13.091000 0.581900
-13.060300 0.585200
-13.029700 0.588600
-12.999000 0.592000
-12.968400 0.595400
-12.937800 0.598800
-12.907100 0.602100
-12.876500 0.605500
-12.845800 0.608900
-12.815200 0.628600
-12.784500 0.658000
-12.753900 0.687500
-12.723200 0.762000
-12.692600 0.799900
-12.662000 0.837800
-12.631300 0.875700
-12.600700 0.913600
-12.570000 0.951500
-12.539400 0.989400
-12.508700 1.027300
-12.478100 1.070900
-12.447400 1.116000
-12.416800 1.161100
-12.386200 0.829800
-12.355500 0.819300
-12.324900 0.808700
-12.294200 0.798200
-12.263600 0.787700
-12.232900 0.777300
-12.202300 0.767100
-12.171600 0.756900
-12.141000 0.746700
-12.110400 0.737200
-12.079700 0.728600
-12.049100 0.720100
-12.018400 0.711500
-11.987800 0.702900
-11.957100 0.694400
-11.926500 0.685800
-11.895800 0.677200
-11.865200 0.668700
-11.834600 0.660100
-11.803900 0.651300
-11.773300 0.642300
-11.742600 0.634700
-11.712000 0.632100
-11.681300 0.629500
-11.650700 0.627000
-11.620000 0.624500
-11.589400 0.622100
-11.558800 0.619700
-11.528100 0.617200
-11.497500 0.614800
-11.466800 0.612400
-11.436200 0.609900
-11.405500 0.607300
-11.374900 0.604700
-11.344200 0.602100
-11.313600 0.599400
-11.283000 0.596800
-11.252300 0.594200
-11.221700 0.555700
-11.191000 0.554600
-11.160400 0.553400
-11.129700 0.552200
-11.099100 0.551000
-11.068400 0.549800
-11.037800 0.548700
-11.007200 0.547500
-10.976500 0.546300
-10.945900 0.545000
-10.915200 0.543800
-10.884600 0.542500
-10.853900 0.541300
-10.823300 0.540000
-10.792700 0.538800
-10.762000 0.555800
-10.731400 0.581400
-10.700700 0.607000
-10.670100 0.632600
-10.639400 0.658200
-10.608800 0.683800
-10.578100 0.709300
-10.547500 0.734900
-10.516900 0.760500
-10.486200 0.786100
-10.455600 0.811700
-10.424900 0.721500
-10.394300 0.720900
-10.363600 0.721600
-10.333000 0.722400
-10.302300 0.722700
-10.271700 0.722600
-10.241100 0.722400
-10.210400 0.722300
-10.179800 0.722200
-10.149100 0.722100
-10.118500 0.722000
-10.087800 0.723800
-10.057200 0.729200
-10.026500 0.734600
-9.995900 0.740000
-9.965300 0.745500
-9.934600 0.750900
-9.904000 0.756300
-9.873300 0.761700
-9.842700 0.767100
-9.812000 0.772500
-9.781400 0.777700
-9.750700 0.756700
-9.720100 0.756000
-9.689500 0.755300
-9.658800 0.755300
-9.628200 0.755700
-9.597500 0.756000
-9.566900 0.756400
-9.536200 0.756800
-9.505600 0.757100
-9.474900 0.757500
-9.444300 0.757800
-9.413700 0.758200
-9.383000 0.782000
-9.352400 0.784100
-9.321700 0.786300
-9.291100 0.788400
-9.260400 0.790600
-9.229800 0.792700
-9.199100 0.794700
-9.168500 0.795800
-9.137900 0.795400
-9.107200 0.795100
-9.076600 0.794700
-9.045900 0.794300
-9.015300 0.793900
-8.984600 0.793600
-8.954000 0.793200
-8.923300 0.792800
-8.892700 0.792400
-8.862100 0.796800
-8.831400 0.801600
-8.800800 0.808100
-8.770100 0.814600
-8.739500 0.820200
-8.708800 0.825000
-8.678200 0.829700
-8.647500 0.834500
-8.616900 0.839300
-8.586300 0.843800
-8.555600 0.847800
-8.525000 0.851900
-8.494300 0.855900
-8.463700 0.858300
-8.433000 0.859800
-8.402400 0.861300
-8.371700 0.862700
-8.341100 0.864200
-8.310500 0.865700
-8.279800 0.867200
-8.249200 0.868700
-8.218500 0.870200
-8.187900 0.871700
-8.157200 0.873200
-8.126600 0.874600
-8.095900 0.876100
-8.065300 0.863400
-8.034700 0.892200
-8.004000 0.909600
-7.973400 0.919200
-7.942700 0.926400
-7.912100 0.933600
-7.881400 0.940900
-7.850800 0.948100
-7.820100 1.231400
-7.789500 1.644800
-7.758900 1.411800
-7.728200 1.451000
-7.697600 1.490200
-7.666900 1.529400
-7.636300 1.535800
-7.605600 1.498700
-7.575000 1.480800
-7.544300 1.497900
-7.513700 1.513800
-7.483100 1.529300
-7.452400 1.544800
-7.421800 1.560300
-7.391100 1.536700
-7.360500 1.545000
-7.329800 1.558700
-7.299200 1.624800
-7.268600 1.660500
-7.237900 1.704700
-7.207300 1.748100
-7.176600 1.780900
-7.146000 1.813700
-7.115300 1.843400
-7.084700 1.870300
-7.054000 1.878900
-7.023400 1.884200
-6.992800 1.944400
-6.962100 2.013800
-6.931500 2.083300
-6.900800 2.152800
-6.870200 2.222300
-6.839500 2.291700
-6.808900 2.352700
-6.778200 2.326400
-6.747600 2.210600
-6.717000 2.161700
-6.686300 2.112800
-6.655700 2.062300
-6.625000 1.474400
-6.594400 1.348800
-6.563700 1.287500
-6.533100 1.186500
-6.502400 1.249300
-6.471800 1.374600
-6.441200 1.500000
-6.410500 1.625300
-6.379900 1.750700
-6.349200 1.852100
-6.318600 2.313100
-6.287900 2.385300
-6.257300 2.391100
-6.226600 2.356600
-6.196000 2.322000
-6.165400 2.287500
-6.134700 2.094300
-6.104100 1.737800
-6.073400 1.516200
-6.042800 1.428500
-6.012100 1.318400
-5.981500 1.200000
-5.950800 1.084500
-5.920200 0.969000
-5.889600 0.970000
-5.858900 0.992400
-5.828300 1.014800
-5.797600 1.037200
-5.767000 1.059600
-5.736300 1.084200
-5.705700 1.109500
-5.675000 1.134900
-5.644400 1.160300
-5.613800 1.230700
-5.583100 1.733000
-5.552500 1.872800
-5.521800 1.756700
-5.491200 1.684800
-5.460500 1.612900
-5.429900 1.541100
-5.399200 1.500900
-5.368600 1.464400
-5.338000 1.428400
-5.307300 1.392400
-5.276700 1.356400
-5.246000 1.320400
-5.215400 1.284400
-5.184700 1.275000
-5.154100 1.272200
-5.123400 1.269900
-5.092800 1.267600
-5.062200 1.263300
-5.031500 1.257700
-5.000900 1.252000
-4.970200 1.246400
-4.939600 1.240700
-4.908900 1.235100
-4.878300 1.227400
-4.847600 1.217200
-4.817000 1.209300
-4.786400 1.202700
-4.755700 1.196000
-4.725100 1.189400
-4.694400 1.182700
-4.663800 1.177000
-4.633100 1.174600
-4.602500 1.171400
-4.571800 1.182000
-4.541200 1.196500
-4.510600 1.190300
-4.479900 1.184100
-4.449300 1.177900
-4.418600 1.171700
-4.388000 1.165800
-4.357300 1.160200
-4.326700 1.154600
-4.296000 1.149000
-4.265400 1.143400
-4.234800 1.137800
-4.204100 1.132200
-4.173500 1.126600
-4.142800 1.124000
-4.112200 1.125500
-4.081500 1.128300
-4.050900 1.131100
-4.020200 1.156400
-3.989600 1.151900
-3.959000 1.147400
-3.928300 1.142900
-3.897700 1.136700
-3.867000 1.128100
-3.836400 1.120200
-3.805700 1.112500
-3.775100 1.104800
-3.744500 1.097100
-3.713800 1.094700
-3.683200 1.114700
-3.652500 1.134600
-3.621900 1.140200
-3.591200 1.126100
-3.560600 1.113100
-3.529900 1.100300
-3.499300 1.191400
-3.468700 1.147300
-3.438000 1.103100
-3.407400 1.059000
-3.376700 1.154200
-3.346100 0.998200
-3.315400 0.843800
-3.284800 0.705900
-3.254100 0.711300
-3.223500 0.718900
-3.192900 0.728300
-3.162200 0.737700
-3.131600 0.747100
-3.100900 0.756500
-3.070300 0.765900
-3.039600 0.779500
-3.009000 0.794000
-2.978300 0.808500
-2.947700 0.822900
-2.917100 0.837400
-2.886400 0.851900
-2.855800 0.877900
-2.825100 0.919000
-2.794500 0.960100
-2.763800 1.001100
-2.733200 1.042200
-2.702500 1.083300
-2.671900 1.466300
-2.641300 1.315800
-2.610600 1.165200
-2.580000 1.014700
-2.549300 0.866400
-2.518700 1.175800
-2.488000 0.878400
-2.457400 0.845500
-2.426700 0.812600
-2.396100 0.779700
-2.365500 0.746800
-2.334800 0.714000
-2.304200 0.681100
-2.273500 0.648200
-2.242900 0.615300
-2.212200 0.582500
-2.181600 0.549600
-2.150900 0.523100
-2.120300 0.522900
-2.089700 0.522800
-2.059000 0.522700
-2.028400 0.522500
-1.997700 0.522400
-1.967100 0.522300
-1.936400 0.522100
-1.905800 0.399000
-1.875100 0.403600
-1.844500 0.408200
-1.813900 0.412700
-1.783200 0.417300
-1.752600 0.409800
-1.721900 0.398300
-1.691300 0.384900
-1.660600 0.371400
-1.630000 0.357900
-1.599300 0.344400
-1.568700 0.330900
-1.538100 0.317400
-1.507400 0.303900
-1.476800 0.290400
-1.446100 0.276900
-1.415500 0.263400
-1.384800 0.249900
-1.354200 0.247100
-1.323500 0.244700
-1.292900 0.242300
-1.262300 0.240000
-1.231600 0.237600
-1.201000 0.235200
-1.170300 0.232900
-1.139700 0.230500
-1.109000 0.228100
-1.078400 0.225700
-1.047700 0.223400
-1.017100 0.221000
-0.986500 0.136700
-0.955800 0.131100
-0.925200 0.125400
-0.894500 0.119800
-0.863900 0.114200
-0.833200 0.108600
-0.802600 0.103000
-0.771900 0.097400
-0.741300 0.091800
-0.710700 0.086200
-0.680000 0.080500
-0.649400 0.074900
-0.618700 0.069300
-0.588100 0.063700
-0.557400 0.058100
-0.526800 0.052500
-0.496200 0.046900
-0.465500 0.041300
-0.434900 0.035600
-0.404200 0.030000
-0.373600 0.024400
-0.342900 0.018800
-0.312300 0.013200
-0.281600 0.007600
-0.251000 0.002000
-0.220400 0.003800
-0.189700 0.009700
-0.159100 0.015700
-0.128400 0.021600
-0.097800 0.027500
-0.067100 0.033400
-0.036500 0.039400
-0.005800 0.045300
0.024800 0.051200
0.055400 0.057200
0.086100 0.063100
0.116700 0.069000
0.147400 0.074900
0.178000 0.080900
0.208700 0.086800
0.239300 0.092700
0.270000 0.098600
0.300600 0.104600
0.331200 0.110500
0.361900 0.116400
0.392500 0.122300
0.423200 0.128300
0.453800 0.134200
0.484500 0.140100
0.515100 0.258800
0.545800 0.258400
0.576400 0.258000
0.607000 0.257600
0.637700 0.257200
0.668300 0.256900
0.699000 0.256500
0.729600 0.256100
0.760300 0.255700
0.790900 0.255400
0.821600 0.267300
0.852200 0.288300
0.882800 0.309300
0.913500 0.330300
0.944100 0.351300
0.974800 0.372300
1.005400 0.393300
1.036100 0.414300
1.066700 0.435300
1.097400 0.456300
1.128000 0.477300
1.158600 0.498300
1.189300 0.519300
1.219900 1.163300
1.250600 0.811600
1.281200 0.566300
1.311900 0.586500
1.342500 0.656800
1.373200 0.727000
1.403800 0.797300
1.434400 1.105700
1.465100 1.888800
1.495700 1.420900
1.526400 1.568000
1.557000 1.168600
1.587700 1.115800
1.618300 1.062900
1.649000 1.010100
1.679600 0.957200
1.710200 0.916800
1.740900 0.883100
1.771500 0.849500
1.802200 0.815900
1.832800 0.785100
1.863500 0.770000
1.894100 0.754900
1.924800 0.739800
1.955400 0.726400
1.986000 0.713300
2.016700 0.700100
2.047300 0.687000
2.078000 0.673800
2.108600 0.655500
2.139300 0.646300
2.169900 0.637100
2.200600 0.627900
2.231200 0.620100
2.261800 0.613700
2.292500 0.608000
2.323100 0.603000
2.353800 0.597900
2.384400 0.592900
2.415100 0.587900
2.445700 0.582800
2.476400 0.577800
2.507000 0.572800
2.537600 0.567700
2.568300 0.562700
2.598900 0.557700
2.629600 0.554300
2.660200 0.571900
2.690900 0.616300
2.721500 0.645800
2.752200 0.695700
2.782800 0.756300
2.813400 0.729900
2.844100 0.739000
2.874700 0.744600
2.905400 0.745200
2.936000 0.741200
2.966700 0.731600
2.997300 0.717500
3.027900 0.707000
3.058600 0.707000
3.089200 0.709300
3.119900 0.767200
3.150500 0.831000
3.181200 0.801400
3.211800 0.812400
3.242500 0.823000
3.273100 0.828500
3.303700 0.841300
3.334400 0.846100
3.365000 0.849600
3.395700 0.856700
3.426300 0.868700
3.457000 0.880900
3.487600 0.893400
3.518300 0.905600
3.548900 0.912400
3.579500 0.910700
3.610200 0.901200
3.640800 0.895900
3.671500 0.890900
3.702100 0.887500
3.732800 0.884400
3.763400 0.881500
3.794100 0.879900
3.824700 0.879100
3.855300 0.878400
3.886000 0.878200
3.916600 0.882400
3.947300 0.892200
3.977900 0.896700
4.008600 0.894300
4.039200 0.898500
4.069900 0.904800
4.100500 0.911100
4.131100 0.914500
4.161800 0.919800
4.192400 0.925300
4.223100 0.931100
4.253700 0.937300
4.284400 0.944500
4.315000 0.952100
4.345700 0.959800
4.376300 0.967500
4.406900 0.974700
4.437600 0.982200
4.468200 0.987700
4.498900 1.008400
4.529500 1.066600
4.560200 1.120400
4.590800 1.065300
4.621500 1.070800
4.652100 1.075700
4.682700 1.082100
4.713400 1.084500
4.744000 1.079600
4.774700 1.075600
4.805300 1.080100
4.836000 1.084400
4.866600 1.088400
4.897300 1.093000
4.927900 1.107800
4.958500 1.135700
4.989200 1.159400
5.019800 1.195800
5.050500 1.232600
5.081100 1.257600
5.111800 1.275900
5.142400 1.296800
5.173100 1.319300
5.203700 1.342300
5.234300 1.365800
5.265000 1.327700
5.295600 1.279800
5.326300 1.260100
5.356900 1.201500
5.387600 1.200500
5.418200 1.130100
5.448900 1.034400
5.479500 0.979300
5.510100 0.932900
5.540800 0.895500
5.571400 0.866700
5.602100 0.845100
5.632700 0.821500
5.663400 0.804600
5.694000 0.789800
5.724700 0.772300
5.755300 0.654800
5.785900 0.641000
5.816600 0.771600
5.847200 0.877800
5.877900 0.962500
5.908500 1.036300
5.939200 1.103700
5.969800 1.182200
6.000500 1.215700
6.031100 1.226000
6.061700 1.252800
6.092400 1.647600
6.123000 1.595400
6.153700 1.583000
6.184300 1.548200
6.215000 1.510300
6.245600 1.427300
6.276200 1.346400
6.306900 1.298200
6.337500 1.272300
6.368200 1.244800
6.398800 1.214200
6.429500 1.145100
6.460100 1.081700
6.490800 1.019100
6.521400 1.025600
6.552000 1.035300
6.582700 1.035200
6.613300 1.034000
6.644000 1.056600
6.674600 1.112200
6.705300 1.179200
6.735900 1.243800
6.766600 1.306400
6.797200 1.364400
6.827800 1.388200
6.858500 1.407100
6.889100 1.420200
6.919800 1.426000
6.950400 1.424700
6.981100 1.416300
7.011700 1.427200
7.042400 1.462600
7.073000 1.591500
7.103600 1.739900
7.134300 2.020600
7.164900 2.079900
7.195600 2.080600
7.226200 2.158900
7.256900 2.213000
7.287500 2.182600
7.318200 2.156700
7.348800 2.062200
7.379400 1.797300
7.410100 1.669900
7.440700 1.684600
7.471400 1.844500
7.502000 1.986300
7.532700 2.127600
7.563300 2.210300
7.594000 2.270100
7.624600 2.302700
7.655200 2.317600
7.685900 2.345500
7.716500 2.361400
7.747200 2.366500
7.777800 2.424100
7.808500 2.486100
7.839100 2.541400
7.869800 2.657800
7.900400 2.750900
7.931000 2.780100
7.961700 2.776400
7.992300 2.797300
8.023000 2.937100
8.053600 3.797800
8.084300 4.276000
8.114900 5.026700
8.145600 4.598700
8.176200 4.367600
8.206800 4.051600
8.237500 3.621900
8.268100 3.128400
8.298800 2.959500
8.329400 2.848100
8.360100 2.737800
8.390700 2.640500
8.421400 2.546600
8.452000 2.449300
8.482600 2.365300
8.513300 2.298800
8.543900 2.271400
8.574600 2.278900
8.605200 2.286700
8.635900 2.293900
8.666500 2.348500
8.697200 2.428100
8.727800 2.563400
8.758400 2.619900
8.789100 2.672100
8.819700 2.627100
8.850400 2.630200
8.881000 2.632100
8.911700 2.632700
8.942300 2.631800
8.973000 2.597200
9.003600 2.533900
9.034200 2.508400
9.064900 2.480300
9.095500 2.466800
9.126200 2.458700
9.156800 2.458100
9.187500 2.456500
9.218100 2.464200
9.248800 2.339600
9.279400 2.351000
9.310000 2.362700
9.340700 2.373300
9.371300 2.393200
9.402000 2.428700
9.432600 2.304600
9.463300 2.262700
9.493900 2.178500
9.524600 2.050700
9.555200 1.999300
9.585800 1.942400
9.616500 1.877300
9.647100 1.831900
9.677800 1.814800
9.708400 1.799800
9.739100 1.787300
9.769700 1.776800
9.800300 1.768000
9.831000 1.761200
9.861600 1.761900
9.892300 1.769400
9.922900 5.265300
9.953600 2.535400
9.984200 2.705100
10.014900 2.668400
10.045500 2.657000
10.076100 2.657600
10.106800 2.665400
10.137400 2.674800
10.168100 2.641100
10.198700 2.547000
10.229400 2.502400
10.260000 2.491800
10.290700 2.588800
10.321300 2.626700
10.351900 2.846300
10.382600 3.400800
10.413200 4.070500
10.443900 4.292100
10.474500 3.987100
10.505200 3.435700
10.535800 3.228500
10.566500 2.947100
10.597100 2.816500
10.627700 2.690500
10.658400 2.733300
10.689000 2.634400
10.719700 2.602800
10.750300 2.461900
10.781000 2.379700
10.811600 2.377200
10.842300 2.376400
10.872900 2.356200
10.903500 2.336000
10.934200 2.340200
10.964800 2.499500
10.995500 2.320500
11.026100 2.257700
11.056800 2.218900
11.087400 2.196700
11.118100 2.178300
11.148700 2.158200
11.179300 2.183900
11.210000 2.220300
11.240600 2.270700
11.271300 2.462100
11.301900 3.064200
11.332600 2.261400
11.363200 2.304200
11.393900 2.339700
11.424500 2.696300
11.455100 2.889400
11.485800 2.676700
11.516400 2.598300
11.547100 3.193400
11.577700 2.240500
11.608400 1.937400
11.639000 1.973600
11.669700 2.032400
11.700300 2.071000
11.730900 1.642300
11.761600 1.606300
11.792200 1.583500
11.822900 1.573600
11.853500 1.880200
11.884200 1.774600
11.914800 1.821600
11.945500 1.839600
11.976100 1.856200
12.006700 1.919500
12.037400 1.991000
12.068000 2.058500
12.098700 2.170000
12.129300 2.230100
12.160000 2.252800
12.190600 2.208800
12.221300 2.520800
12.251900 2.812300
12.282500 2.958800
12.313200 2.418900
12.343800 2.437900
12.374500 2.460100
12.405100 2.515600
12.435800 2.597100
12.466400 2.716800
12.497100 2.740400
12.527700 2.949900
12.558300 3.574300
12.589000 3.504600
12.619600 3.295800
12.650300 3.069800
12.680900 2.927100
12.711600 2.935100
12.742200 2.978900
12.772900 3.041200
12.803500 3.068700
12.834100 3.346600
12.864800 3.767700
12.895400 3.727800
12.926100 3.807300
12.956700 4.072900
12.987400 4.075400
13.018000 3.938400
13.048700 3.924700
13.079300 3.935300
13.109900 3.921400
13.140600 3.696600
13.171200 3.486600
13.201900 3.258300
13.232500 3.011600
13.263200 2.774800
13.293800 2.582900
13.324400 2.681800
13.355100 2.879800
13.385700 2.708200
13.416400 2.709000
13.447000 2.705900
13.477700 2.666500
13.508300 2.647000
13.539000 2.804700
13.569600 2.977700
13.600200 2.827500
13.630900 2.764500
13.661500 2.685500
13.692200 2.582800
13.722800 2.450100
13.753500 2.293900
13.784100 2.197300
13.814800 2.096000
13.845400 1.990200
13.876000 1.904000
13.906700 1.838400
13.937300 1.774200
13.968000 1.721000
13.998600 1.680600
14.029300 1.648700
14.059900 1.619100
14.090600 1.592000
14.121200 1.568900
14.151800 1.544200
14.182500 1.494800
14.213100 1.460300
14.243800 1.451600
14.274400 1.452800
14.305100 1.496700
14.335700 1.575800
14.366400 1.569500
14.397000 1.593400
14.427600 1.624200
14.458300 1.681600
14.488900 1.719900
14.519600 1.742700
14.550200 1.741100
14.580900 1.757900
14.611500 1.815300
14.642200 1.928000
14.672800 2.038800
14.703400 2.463900
14.734100 2.566700
14.764700 2.551200
14.795400 2.477500
14.826000 2.407900
14.856700 2.344100
14.887300 2.286100
14.918000 2.284600
14.948600 2.331700
14.979200 2.074500
15.009900 2.009800
15.040500 1.974300
15.071200 1.950000
15.101800 1.976900
15.132500 1.979200
15.163100 2.072700
15.193800 2.180400
15.224400 2.067000
15.255000 2.070700
15.285700 1.971200
15.316300 1.972700
15.347000 2.012000
15.377600 2.073000
15.408300 2.213800
15.438900 2.392200
15.469600 2.377500
15.500200 2.332800
15.530800 2.248800
15.561500 2.158100
15.592100 2.106400
15.622800 2.107300
15.653400 2.088600
15.684100 2.299900
15.714700 2.493400
15.745400 2.682400
15.776000 2.807700
15.806600 2.715600
15.837300 2.776500
15.867900 2.846900
15.898600 2.820600
15.929200 2.852200
15.959900 2.912600
15.990500 2.959200
16.021200 3.007200
16.051800 3.005600
16.082400 3.022000
16.113100 2.935300
16.143700 2.801500
16.174400 2.755700
16.205000 2.746500
16.235700 2.741200
16.266300 3.120500
16.297000 3.213100
16.327600 2.545200
16.358200 2.508400
16.388900 2.471600
16.419500 2.466400
16.450200 2.327800
16.480800 2.326900
16.511500 2.314400
16.542100 2.301400
16.572700 2.280600
16.603400 2.245100
16.634000 2.182500
16.664700 2.209300
16.695300 2.285700
16.726000 2.687600
16.756600 3.030100
16.787300 3.365500
16.817900 3.692900
16.848500 3.921600
16.879200 3.880600
16.909800 3.868900
16.940500 3.901000
16.971100 3.931200
17.001800 3.850200
17.032400 3.882000
17.063100 4.023000
17.093700 3.552000
17.124300 3.462200
17.155000 3.471200
17.185600 3.020700
17.216300 2.780200
17.246900 2.681900
17.277600 2.555600
17.308200 2.423100
17.338900 2.306200
17.369500 2.268200
17.400100 2.196900
17.430800 2.111400
17.461400 2.084100
17.492100 2.189200
17.522700 2.026200
17.553400 1.930500
17.584000 1.882600
17.614700 1.884500
17.645300 1.878800
17.675900 1.947600
17.706600 2.038000
17.737200 2.142000
17.767900 2.123700
17.798500 2.208200
17.829200 2.260800
17.859800 2.481200
17.890500 2.715500
17.921100 2.679000
17.951700 2.564400
17.982400 2.561000
18.013000 2.519700
18.043700 2.707500
18.074300 2.659900
18.105000 2.682200
18.135600 2.920600
18.166300 3.243400
18.196900 3.185300
18.227500 2.927200
18.258200 2.551700
18.288800 2.358000
18.319500 2.257000
18.350100 2.152000
18.380800 2.098600
18.411400 2.064600
18.442100 2.033100
18.472700 2.001200
18.503300 1.975200
18.534000 1.962100
18.564600 1.906800
18.595300 1.780700
18.625900 1.771800
18.656600 1.781100
18.687200 1.817700
18.717900 1.853000
18.748500 1.887000
18.779100 1.919600
18.809800 1.933500
18.840400 1.932900
18.871100 1.936000
18.901700 1.939900
18.932400 1.954500
18.963000 1.962100
18.993700 1.975000
19.024300 1.968400
19.054900 1.986200
19.085600 2.053900
19.116200 2.110400
19.146900 2.142300
19.177500 2.148200
19.208200 2.164700
19.238800 2.207500
19.269500 2.251400
19.300100 2.415300
19.330700 2.642200
19.361400 3.020400
19.392000 3.136000
19.422700 2.926700
19.453300 2.830100
19.484000 2.710700
19.514600 2.926500
19.545300 2.819100
19.575900 2.756000
19.606500 2.694100
19.637200 2.659600
19.667800 2.577100
19.698500 2.921800
19.729100 2.692300
19.759800 2.702600
19.790400 2.658300
19.821100 2.598200
19.851700 2.601200
19.882300 2.590700
19.913000 2.526700
19.943600 2.410700
19.974300 2.287300
20.004900 2.207200
20.035600 2.295900
20.066200 2.210400
20.096800 2.118200
20.127500 2.038900
20.158100 1.987200
20.188800 1.892800
20.219400 1.830700
20.250100 1.901300
20.280700 1.983300
20.311400 2.128200
20.342000 2.394700
20.372600 2.554600
20.403300 2.698700
20.433900 2.816900
20.464600 2.898000
20.495200 2.997400
20.525900 3.053900
20.556500 3.091700
20.587200 3.085600
20.617800 2.902200
20.648400 2.844700
20.679100 2.867000
20.709700 2.844800
20.740400 2.812400
20.771000 2.774100
20.801700 2.751200
20.832300 2.593800
20.863000 2.553000
20.893600 2.659800
20.924200 3.147600
20.954900 2.837700
20.985500 2.667600
21.016200 2.880200
21.046800 2.745100
21.077500 2.666300
21.108100 2.637200
21.138800 2.685200
21.169400 2.960700
21.200000 2.921100
21.230700 3.906900
21.261300 3.134700
21.292000 3.172300
21.322600 3.553900
21.353300 3.541200
21.383900 3.669700
21.414600 3.737300
21.445200 3.637100
21.475800 3.503400
21.506500 3.473800
21.537100 3.342800
21.567800 3.146800
21.598400 2.896300
21.629100 2.741900
21.659700 2.787800
21.690400 2.842500
21.721000 2.987200
21.751600 3.121800
21.782300 3.221700
21.812900 3.180600
21.843600 3.142900
21.874200 3.064600
21.904900 3.010500
21.935500 2.987400
21.966200 2.997200
21.996800 2.928500
22.027400 3.198500
22.058100 3.304900
22.088700 3.240200
22.119400 4.474100
22.150000 2.955300
22.180700 2.829300
22.211300 2.720400
22.242000 2.686100
22.272600 2.716800
22.303200 2.806100
22.333900 2.909400
22.364500 3.182700
22.395200 3.188200
22.425800 3.117000
22.456500 3.039200
22.487100 2.989200
22.517800 2.974700
22.548400 3.013600
22.579000 3.112800
22.609700 3.097300
22.640300 3.280700
22.671000 3.553100
22.701600 3.733900
22.732300 3.839900
22.762900 3.942000
22.793600 3.674400
22.824200 3.669900
22.854800 3.649700
22.885500 3.743100
22.916100 5.124200
22.946800 4.299100
22.977400 4.379300
23.008100 4.018900
23.038700 4.175700
23.069400 4.336300
23.100000 4.553800
23.130600 4.624900
23.161300 4.033400
23.191900 3.944600
23.222600 4.081600
23.253200 4.049500
23.283900 3.684000
23.314500 4.075900
23.345200 3.984100
23.375800 3.884000
23.406400 3.773700
23.437100 3.680600
23.467700 3.669600
23.498400 3.527600
23.529000 3.545900
23.559700 3.460000
23.590300 3.277400
23.620900 3.222400
23.651600 3.171200
23.682200 3.295100
23.712900 4.067500
23.743500 3.621700
23.774200 2.806300
23.804800 2.860100
23.835500 2.917400
23.866100 3.107700
23.896700 3.886900
23.927400 3.835700
23.958000 3.518200
23.988700 3.288900
24.019300 3.164300
24.050000 3.047300
24.080600 3.031400
24.111300 2.991300
24.141900 2.940700
24.172500 2.914200
24.203200 2.904800
24.233800 2.917000
24.264500 2.792100
24.295100 2.699500
24.325800 2.650500
24.356400 2.640900
24.387100 2.620000
24.417700 2.610500
24.448300 2.651100
24.479000 2.696200
24.509600 2.755100
24.540300 2.846200
24.570900 2.914400
24.601600 3.030800
24.632200 3.437000
24.662900 2.943800
24.693500 2.872400
24.724100 2.866400
24.754800 2.862800
24.785400 2.890100
24.816100 2.886100
24.846700 2.881500
24.877400 2.901700
24.908000 2.929700
24.938700 2.944900
24.969300 2.968300
24.999900 2.998800
25.030600 3.014700
25.061200 2.986500
25.091900 2.971500
25.122500 2.995000
25.153200 3.034200
25.183800 3.093900
25.214500 3.135900
25.245100 3.094800
25.275700 3.062800
25.306400 3.074800
25.337000 3.249500
25.367700 3.393900
25.398300 3.402500
25.429000 3.384600
25.459600 3.305400
25.490300 3.225500
25.520900 3.151900
25.551500 3.099600
25.582200 3.018500
25.612800 2.944800
25.643500 2.905500
25.674100 2.870800
25.704800 2.846400
25.735400 2.821200
25.766100 2.782500
25.796700 2.756500
25.827300 2.733900
25.858000 2.730800
25.888600 2.737400
25.919300 2.766600
25.949900 2.835400
25.980600 2.968700
26.011200 3.127200
26.041900 3.027600
26.072500 3.082500
26.103100 3.123700
26.133800 3.202200
26.164400 3.264700
26.195100 3.289800
26.225700 3.281400
26.256400 3.253700
26.287000 3.177500
26.317700 3.121100
26.348300 3.073000
26.378900 3.035200
26.409600 2.996600
26.440200 2.953100
26.470900 2.975900
26.501500 3.010700
26.532200 2.997600
26.562800 2.977000
26.593500 2.990000
26.624100 2.979500
26.654700 2.975200
26.685400 2.982800
26.716000 2.988800
26.746700 3.002100
26.777300 2.995100
26.808000 2.992900
26.838600 2.997400
26.869200 2.962200
26.899900 2.962600
26.930500 2.953400
26.961200 2.927100
26.991800 2.898300
27.022500 2.890000
27.053100 2.886900
27.083800 2.849200
27.114400 2.835200
27.145000 2.813200
27.175700 2.789300
27.206300 2.759500
27.237000 2.727100
27.267600 2.696700
27.298300 2.683200
27.328900 2.669600
27.359600 2.658100
27.390200 2.682900
27.420800 2.680300
27.451500 2.791800
27.482100 2.989900
27.512800 3.122700
27.543400 3.022700
27.574100 2.956900
27.604700 2.942600
27.635400 2.910500
27.666000 2.853300
27.696600 2.809200
27.727300 2.797000
27.757900 2.827100
27.788600 3.049500
27.819200 3.072300
27.849900 2.993100
27.880500 2.947400
27.911200 2.995400
27.941800 3.046300
27.972400 2.860900
28.003100 2.802300
28.033700 2.781700
28.064400 2.858400
28.095000 2.813800
28.125700 2.840700
28.156300 2.920000
28.187000 3.372200
28.217600 3.174900
28.248200 3.161800
28.278900 3.165400
28.309500 3.167500
28.340200 3.088000
28.370800 2.959600
28.401500 2.861000
28.432100 2.783000
28.462800 2.730700
28.493400 2.679600
28.524000 2.645200
28.554700 2.652900
28.585300 2.827100
28.616000 3.082300
28.646600 3.417600
28.677300 3.104100
28.707900 3.101500
28.738600 3.065600
28.769200 3.025300
28.799800 2.982100
28.830500 2.932100
28.861100 2.977600
28.891800 3.002800
28.922400 2.972900
28.953100 3.074000
28.983700 3.754100
29.014400 3.896200
29.045000 3.584200
29.075600 3.460200
29.106300 3.649100
29.136900 3.963100
29.167600 4.074400
29.198200 3.698800
29.228900 3.526300
29.259500 3.367500
29.290200 3.338900
29.320800 3.192500
29.351400 3.104300
29.382100 3.035400
29.412700 2.980000
29.443400 2.914100
29.474000 2.840000
29.504700 2.723600
29.535300 2.676800
29.566000 2.609000
29.596600 2.602200
29.627200 2.596700
29.657900 2.591200
29.688500 2.582400
29.719200 2.576600
29.749800 2.570700
29.780500 2.608600
29.811100 2.568200
29.841800 2.506000
29.872400 2.447900
29.903000 2.419700
29.933700 2.407100
29.964300 2.407300
29.995000 2.412800
30.025600 2.424200
30.056300 2.451900
30.086900 2.507000
30.117600 2.569500
30.148200 2.643700
30.178800 2.723800
30.209500 2.830000
30.240100 3.026300
30.270800 3.057700
30.301400 3.120500
30.332100 3.172100
30.362700 3.150800
30.393300 3.141900
30.424000 3.197600
30.454600 3.120200
30.485300 3.071300
30.515900 3.057500
30.546600 3.037300
30.577200 2.999500
30.607900 2.937600
30.638500 2.868700
30.669100 2.775500
30.699800 2.695300
30.730400 2.689700
30.761100 2.691300
30.791700 2.709200
30.822400 2.735600
30.853000 2.758400
30.883700 2.774400
30.914300 2.787800
30.944900 2.726400
30.975600 2.737400
31.006200 2.755700
31.036900 2.782800
31.067500 2.800200
31.098200 2.743800
31.128800 2.771300
31.159500 2.821900
31.190100 2.840000
31.220700 2.795600
31.251400 2.797700
31.282000 2.801800
31.312700 2.813800
31.343300 2.814400
31.374000 2.808800
31.404600 2.990400
31.435300 2.712200
31.465900 2.787400
31.496500 2.871700
31.527200 2.960100
31.557800 3.018900
31.588500 3.133700
31.619100 3.201100
31.649800 3.088200
31.680400 3.184500
31.711100 3.305900
31.741700 3.316000
31.772300 3.257000
31.803000 3.325600
31.833600 3.310200
31.864300 3.407000
31.894900 3.284300
31.925600 3.163500
31.956200 3.031700
31.986900 2.939300
32.017500 2.981600
32.048100 2.919800
32.078800 2.879500
32.109400 2.844500
32.140100 2.793500
32.170700 2.684000
32.201400 2.619800
32.232000 3.219500
32.262700 2.569700
32.293300 2.593900
32.323900 2.705400
32.354600 2.654200
32.385200 2.608500
32.415900 2.535600
32.446500 2.452900
32.477200 2.400700
32.507800 2.334700
32.538500 2.268200
32.569100 2.201900
32.599700 2.125100
32.630400 2.051100
32.661000 1.985400
32.691700 1.953300
32.722300 1.941700
32.753000 1.934900
32.783600 1.973300
32.814300 2.119100
32.844900 2.289700
32.875500 2.552600
32.906200 2.747600
32.936800 2.332400
32.967500 2.299400
32.998100 2.296700
33.028800 2.303100
33.059400 2.354400
33.090100 2.422400
33.120700 2.497100
33.151300 2.979600
33.182000 2.459100
33.212600 2.382000
33.243300 2.322600
33.273900 2.267700
33.304600 2.244400
33.335200 2.352500
33.365900 2.410300
33.396500 2.388700
33.427100 2.424900
33.457800 2.376000
33.488400 2.323000
33.519100 2.305900
33.549700 2.278900
33.580400 2.245700
33.611000 2.165200
33.641600 2.142700
33.672300 2.123200
33.702900 1.955900
33.733600 1.866200
33.764200 1.758800
33.794900 1.657000
33.825500 1.536300
33.856200 1.455400
33.886800 1.386800
33.917400 1.322400
33.948100 1.223400
33.978700 1.107200
34.009400 1.015000
34.040000 0.991600
34.070700 0.973100
34.101300 0.954600
34.132000 0.953000
34.162600 0.930300
34.193200 0.904100
34.223900 0.878600
34.254500 0.863500
34.285200 0.850800
34.315800 0.868700
34.346500 0.861700
34.377100 0.858600
34.407800 0.852800
34.438400 0.820400
34.469000 0.841900
34.499700 0.861400
34.530300 0.849300
34.561000 0.799600
34.591600 0.789700
34.622300 0.698200
34.652900 0.661800
34.683600 0.627100
34.714200 0.618400
34.744800 0.619300
34.775500 0.644100
34.806100 0.635400
34.836800 0.804400
34.867400 0.542300
34.898100 0.511400
34.928700 0.478300
34.959400 0.442800
34.990000 0.390700
35.020600 0.351400
35.051300 0.335200
35.081900 0.321400
35.112600 0.309900
35.143200 0.300400
35.173900 0.292800
35.204500 0.286600
35.235200 0.357700
35.265800 0.387400
35.296400 0.381200
35.327100 0.334800
35.357700 0.297400
35.388400 0.262400
35.419000 0.230100
35.449700 0.200200
35.480300 0.173000
35.511000 0.150200
35.541600 0.541700
35.572200 0.319000
35.602900 0.246500
35.633500 0.057900
35.664200 0.044000
35.694800 0.032500
35.725500 0.022800
35.756100 0.014900
35.786800 0.008700
35.817400 0.004300
35.848000 0.001800
35.878700 0.000800
35.909300 0.000400
35.940000 0.000100
35.970600 0.000000
36.001300 0.000000
36.031900 0.000000
36.062600 0.000000
36.093200 0.000000
36.123800 0.000000
36.154500 0.000000
36.185100 0.000000
36.215800 0.000000
36.246400 0.000000
36.277100 0.000000
36.307700 0.000000
36.338400 0.000000
36.369000 0.000000
36.399600 0.000000
36.430300 0.000000
36.460900 0.000000
36.491600 0.000000
36.522200 0.000000
36.552900 0.000000
36.583500 0.000000
36.614200 0.000000
36.644800 0.000000
36.675400 0.000000
36.706100 0.000000
36.736700 0.000000
36.767400 0.000000
36.798000 0.000000
36.828700 0.000000
36.859300 0.000000
36.890000 0.000000
36.920600 0.000000
36.951200 0.000000
36.981900 0.000000
37.012500 0.000000
37.043200 0.000000
37.073800 0.000000
37.104500 0.000000
37.135100 0.000000
37.165700 0.000000
37.196400 0.000000
37.227000 0.000000
37.257700 0.000000
37.288300 0.000000
37.319000 0.000000
37.349600 0.000000
37.380300 0.000000
37.410900 0.000000
37.441500 0.000000
37.472200 0.000000
37.502800 0.000000
37.533500 0.000000
37.564100 0.000000
37.594800 0.000000
37.625400 0.000000
37.656100 0.000000
37.686700 0.000000
37.717300 0.000000
37.748000 0.000000
37.778600 0.000000
37.809300 0.000000
37.839900 0.000000
37.870600 0.000000
37.901200 0.000000
37.931900 0.000000
37.962500 0.000000
37.993100 0.000000
38.023800 0.000000
38.054400 0.000000
38.085100 0.000000
38.115700 0.000000
38.146400 0.000000
38.177000 0.000000
38.207700 0.000000
38.238300 0.000000
38.268900 0.000000
38.299600 0.000000
38.330200 0.000000
38.360900 0.000000
38.391500 0.000000
38.422200 0.000000
38.452800 0.000000
38.483500 0.000000
38.514100 0.000000
38.544700 0.000000
38.575400 0.000000
38.606000 0.000000
38.636700 0.000000
38.667300 0.000000
38.698000 0.000000
38.728600 0.000000
38.759300 0.000000
e
