set title 'mp-10631 - Density of States'
set xlabel 'Energy (eV)'
set ylabel 'DOS (states/eV)'
set grid
set xrange [-10:10]
set yrange [0:1.057]
set xzeroaxis lt -1
set terminal png size 800,600
set output 'mp-10631_dos_gnuplot.png'
plot '-' using 1:2 with lines title 'DOS'
-6.422900 0.000000
-6.403400 0.000000
-6.383900 0.000000
-6.364400 0.000000
-6.344900 0.000000
-6.325400 0.000000
-6.305900 0.000000
-6.286400 0.000000
-6.266900 0.000000
-6.247400 0.000000
-6.227900 0.000000
-6.208400 0.000000
-6.188900 0.000000
-6.169400 0.000000
-6.149900 0.000000
-6.130400 0.000000
-6.110900 0.000000
-6.091400 0.000000
-6.071900 0.000000
-6.052400 0.000000
-6.032900 0.000000
-6.013400 0.000000
-5.993900 0.000000
-5.974400 0.000000
-5.954900 0.000000
-5.935400 0.000000
-5.915900 0.000000
-5.896400 0.000000
-5.876900 0.000000
-5.857300 0.000000
-5.837800 0.000000
-5.818300 0.000000
-5.798800 0.000000
-5.779300 0.000000
-5.759800 0.000000
-5.740300 0.000000
-5.720800 0.000000
-5.701300 0.000000
-5.681800 0.000000
-5.662300 0.000000
-5.642800 0.000000
-5.623300 0.000000
-5.603800 0.000000
-5.584300 0.000000
-5.564800 0.000000
-5.545300 0.000000
-5.525800 0.000000
-5.506300 0.000000
-5.486800 0.000000
-5.467300 0.000000
-5.447800 0.000000
-5.428300 0.000000
-5.408800 0.000000
-5.389300 0.000000
-5.369800 0.000000
-5.350300 0.000000
-5.330800 0.000000
-5.311300 0.000000
-5.291800 0.000000
-5.272300 0.000000
-5.252800 0.000000
-5.233300 0.000000
-5.213800 0.000000
-5.194300 0.000000
-5.174800 0.000000
-5.155300 0.000000
-5.135800 0.000000
-5.116300 0.000000
-5.096800 0.000000
-5.077300 0.000000
-5.057800 0.000000
-5.038300 0.000000
-5.018800 0.000000
-4.999300 0.000000
-4.979800 0.000000
-4.960300 0.000000
-4.940800 0.000000
-4.921300 0.000000
-4.901800 0.000000
-4.882300 0.000000
-4.862800 0.000000
-4.843300 0.000000
-4.823800 0.000000
-4.804300 0.000000
-4.784800 0.000000
-4.765300 0.000000
-4.745800 0.000000
-4.726300 0.000000
-4.706800 0.000000
-4.687300 0.000000
-4.667700 0.000000
-4.648200 0.000100
-4.628700 0.008400
-4.609200 0.030700
-4.589700 0.042600
-4.570200 0.046900
-4.550700 0.054600
-4.531200 0.063800
-4.511700 0.072800
-4.492200 0.078000
-4.472700 0.079500
-4.453200 0.083400
-4.433700 0.087800
-4.414200 0.092700
-4.394700 0.097700
-4.375200 0.103000
-4.355700 0.107200
-4.336200 0.111400
-4.316700 0.114500
-4.297200 0.117100
-4.277700 0.119900
-4.258200 0.122700
-4.238700 0.125800
-4.219200 0.128900
-4.199700 0.132200
-4.180200 0.136200
-4.160700 0.139900
-4.141200 0.143100
-4.121700 0.146100
-4.102200 0.149300
-4.082700 0.151800
-4.063200 0.153900
-4.043700 0.156100
-4.024200 0.158300
-4.004700 0.160800
-3.985200 0.163300
-3.965700 0.166000
-3.946200 0.168800
-3.926700 0.171700
-3.907200 0.174600
-3.887700 0.177200
-3.868200 0.179600
-3.848700 0.182000
-3.829200 0.184500
-3.809700 0.187000
-3.790200 0.189400
-3.770700 0.191600
-3.751200 0.193500
-3.731700 0.195600
-3.712200 0.197800
-3.692700 0.200000
-3.673200 0.202200
-3.653700 0.204500
-3.634200 0.206800
-3.614700 0.209100
-3.595200 0.211500
-3.575700 0.213800
-3.556200 0.215800
-3.536700 0.217800
-3.517200 0.220000
-3.497700 0.222300
-3.478200 0.224600
-3.458600 0.226900
-3.439100 0.229300
-3.419600 0.231400
-3.400100 0.233300
-3.380600 0.235200
-3.361100 0.237100
-3.341600 0.239100
-3.322100 0.241000
-3.302600 0.243100
-3.283100 0.245100
-3.263600 0.247200
-3.244100 0.249400
-3.224600 0.251600
-3.205100 0.253800
-3.185600 0.255700
-3.166100 0.257700
-3.146600 0.259800
-3.127100 0.261800
-3.107600 0.263900
-3.088100 0.266000
-3.068600 0.268100
-3.049100 0.270300
-3.029600 0.272500
-3.010100 0.274600
-2.990600 0.276700
-2.971100 0.278500
-2.951600 0.280400
-2.932100 0.282400
-2.912600 0.284400
-2.893100 0.286500
-2.873600 0.288600
-2.854100 0.290700
-2.834600 0.292900
-2.815100 0.295100
-2.795600 0.297300
-2.776100 0.299400
-2.756600 0.301400
-2.737100 0.303400
-2.717600 0.305500
-2.698100 0.307600
-2.678600 0.309800
-2.659100 0.311900
-2.639600 0.314100
-2.620100 0.316300
-2.600600 0.318500
-2.581100 0.320800
-2.561600 0.323100
-2.542100 0.325500
-2.522600 0.327900
-2.503100 0.330100
-2.483600 0.332400
-2.464100 0.334700
-2.444600 0.337000
-2.425100 0.339400
-2.405600 0.341800
-2.386100 0.344200
-2.366600 0.346600
-2.347100 0.349100
-2.327600 0.351600
-2.308100 0.354000
-2.288600 0.356500
-2.269000 0.359000
-2.249500 0.361600
-2.230000 0.364100
-2.210500 0.366800
-2.191000 0.369500
-2.171500 0.372300
-2.152000 0.375100
-2.132500 0.378000
-2.113000 0.380900
-2.093500 0.383800
-2.074000 0.386800
-2.054500 0.389800
-2.035000 0.393000
-2.015500 0.396200
-1.996000 0.399500
-1.976500 0.402900
-1.957000 0.406400
-1.937500 0.409900
-1.918000 0.413500
-1.898500 0.417200
-1.879000 0.421000
-1.859500 0.424900
-1.840000 0.428900
-1.820500 0.433100
-1.801000 0.437500
-1.781500 0.442200
-1.762000 0.447100
-1.742500 0.452500
-1.723000 0.458300
-1.703500 0.464500
-1.684000 0.471000
-1.664500 0.478100
-1.645000 0.489800
-1.625500 0.508400
-1.606000 0.503500
-1.586500 0.504600
-1.567000 0.507200
-1.547500 0.513700
-1.528000 0.522200
-1.508500 0.516500
-1.489000 0.520700
-1.469500 0.524200
-1.450000 0.527200
-1.430500 0.529700
-1.411000 0.532100
-1.391500 0.534100
-1.372000 0.536500
-1.352500 0.540900
-1.333000 0.547200
-1.313500 0.552800
-1.294000 0.558400
-1.274500 0.563900
-1.255000 0.569600
-1.235500 0.575300
-1.216000 0.581200
-1.196500 0.587300
-1.177000 0.594300
-1.157500 0.602300
-1.138000 0.611200
-1.118500 0.621200
-1.099000 0.633000
-1.079400 0.652900
-1.059900 0.673200
-1.040400 0.696300
-1.020900 0.704800
-1.001400 0.711200
-0.981900 0.719600
-0.962400 0.723700
-0.942900 0.729400
-0.923400 0.717300
-0.903900 0.707700
-0.884400 0.701800
-0.864900 0.696400
-0.845400 0.691300
-0.825900 0.686100
-0.806400 0.683400
-0.786900 0.683400
-0.767400 0.679000
-0.747900 0.676500
-0.728400 0.674900
-0.708900 0.670400
-0.689400 0.666800
-0.669900 0.657300
-0.650400 0.657900
-0.630900 0.655000
-0.611400 0.649200
-0.591900 0.643300
-0.572400 0.641300
-0.552900 0.643800
-0.533400 0.623000
-0.513900 0.580000
-0.494400 0.550200
-0.474900 0.532300
-0.455400 0.516800
-0.435900 0.501400
-0.416400 0.486300
-0.396900 0.475100
-0.377400 0.466000
-0.357900 0.456400
-0.338400 0.446700
-0.318900 0.436700
-0.299400 0.427300
-0.279900 0.418400
-0.260400 0.410000
-0.240900 0.402700
-0.221400 0.396000
-0.201900 0.389800
-0.182400 0.383900
-0.162900 0.378200
-0.143400 0.370800
-0.123900 0.364100
-0.104400 0.357200
-0.084900 0.350600
-0.065400 0.344900
-0.045900 0.339800
-0.026400 0.335200
-0.006900 0.331000
0.012600 0.326800
0.032100 0.322600
0.051600 0.318100
0.071100 0.313400
0.090600 0.308400
0.110200 0.303700
0.129700 0.299200
0.149200 0.294800
0.168700 0.290300
0.188200 0.286100
0.207700 0.282100
0.227200 0.278400
0.246700 0.275000
0.266200 0.271700
0.285700 0.268400
0.305200 0.265000
0.324700 0.261700
0.344200 0.258300
0.363700 0.254900
0.383200 0.251400
0.402700 0.247800
0.422200 0.244700
0.441700 0.241600
0.461200 0.238400
0.480700 0.235200
0.500200 0.232000
0.519700 0.228900
0.539200 0.226000
0.558700 0.223900
0.578200 0.220900
0.597700 0.218200
0.617200 0.215500
0.636700 0.212900
0.656200 0.210400
0.675700 0.207900
0.695200 0.205500
0.714700 0.203100
0.734200 0.200700
0.753700 0.198200
0.773200 0.195700
0.792700 0.193200
0.812200 0.191300
0.831700 0.187900
0.851200 0.185400
0.870700 0.183000
0.890200 0.180500
0.909700 0.178200
0.929200 0.175900
0.948700 0.173500
0.968200 0.171600
0.987700 0.171100
1.007200 0.169500
1.026700 0.167900
1.046200 0.166000
1.065700 0.164700
1.085200 0.164200
1.104700 0.163500
1.124200 0.160800
1.143700 0.157600
1.163200 0.149300
1.182700 0.146700
1.202200 0.144300
1.221700 0.142100
1.241200 0.140400
1.260700 0.139900
1.280200 0.140600
1.299700 0.140600
1.319300 0.147300
1.338800 0.169400
1.358300 0.132700
1.377800 0.124000
1.397300 0.126200
1.416800 0.121400
1.436300 0.113800
1.455800 0.105500
1.475300 0.095700
1.494800 0.090000
1.514300 0.099100
1.533800 0.000000
1.553300 0.000000
1.572800 0.000000
1.592300 0.000000
1.611800 0.000000
1.631300 0.000000
1.650800 0.000000
1.670300 0.000000
1.689800 0.000000
1.709300 0.000000
1.728800 0.000000
1.748300 0.000000
1.767800 0.000000
1.787300 0.000000
1.806800 0.000000
1.826300 0.000000
1.845800 0.000000
1.865300 0.000000
1.884800 0.000000
1.904300 0.000000
1.923800 0.000000
1.943300 0.000000
1.962800 0.000000
1.982300 0.000000
2.001800 0.000000
2.021300 0.000000
2.040800 0.000000
2.060300 0.000000
2.079800 0.000000
2.099300 0.000000
2.118800 0.000000
2.138300 0.000000
2.157800 0.000000
2.177300 0.000000
2.196800 0.000000
2.216300 0.000000
2.235800 0.000000
2.255300 0.000000
2.274800 0.000000
2.294300 0.000000
2.313800 0.000000
2.333300 0.000000
2.352800 0.000000
2.372300 0.000000
2.391800 0.000000
2.411300 0.000000
2.430800 0.000000
2.450300 0.000000
2.469800 0.004600
2.489300 0.029100
2.508900 0.057500
2.528400 0.073100
2.547900 0.090200
2.567400 0.106800
2.586900 0.112900
2.606400 0.122400
2.625900 0.135200
2.645400 0.150000
2.664900 0.156800
2.684400 0.169800
2.703900 0.185900
2.723400 0.200200
2.742900 0.206500
2.762400 0.214400
2.781900 0.217500
2.801400 0.220500
2.820900 0.224600
2.840400 0.230300
2.859900 0.238300
2.879400 0.247200
2.898900 0.256000
2.918400 0.264200
2.937900 0.271500
2.957400 0.278300
2.976900 0.285300
2.996400 0.293200
3.015900 0.302100
3.035400 0.309000
3.054900 0.315200
3.074400 0.322200
3.093900 0.329400
3.113400 0.336700
3.132900 0.343700
3.152400 0.350300
3.171900 0.356700
3.191400 0.363700
3.210900 0.371100
3.230400 0.379000
3.249900 0.387400
3.269400 0.395200
3.288900 0.402700
3.308400 0.410000
3.327900 0.417800
3.347400 0.426400
3.366900 0.436300
3.386400 0.447600
3.405900 0.461100
3.425400 0.476300
3.444900 0.488800
3.464400 0.497600
3.483900 0.504100
3.503400 0.508200
3.522900 0.510500
3.542400 0.512900
3.561900 0.515900
3.581400 0.519600
3.600900 0.523400
3.620400 0.526300
3.639900 0.529200
3.659400 0.533500
3.678900 0.536000
3.698500 0.540700
3.718000 0.546900
3.737500 0.553400
3.757000 0.561200
3.776500 0.571100
3.796000 0.587000
3.815500 0.598200
3.835000 0.607500
3.854500 0.616300
3.874000 0.624100
3.893500 0.631500
3.913000 0.637600
3.932500 0.638800
3.952000 0.636300
3.971500 0.636700
3.991000 0.638200
4.010500 0.641000
4.030000 0.644600
4.049500 0.649700
4.069000 0.653700
4.088500 0.662300
4.108000 0.681400
4.127500 0.677400
4.147000 0.684500
4.166500 0.689200
4.186000 0.694100
4.205500 0.701200
4.225000 0.710900
4.244500 0.725800
4.264000 0.747800
4.283500 0.781700
4.303000 0.828500
4.322500 0.865400
4.342000 0.877100
4.361500 0.862900
4.381000 0.831200
4.400500 0.794900
4.420000 0.776400
4.439500 0.759500
4.459000 0.744100
4.478500 0.730800
4.498000 0.718500
4.517500 0.707200
4.537000 0.690400
4.556500 0.683700
4.576000 0.677200
4.595500 0.670100
4.615000 0.657700
4.634500 0.648400
4.654000 0.639300
4.673500 0.634200
4.693000 0.630400
4.712500 0.627800
4.732000 0.635800
4.751500 0.632500
4.771000 0.608900
4.790500 0.586600
4.810000 0.579800
4.829500 0.572500
4.849000 0.568400
4.868500 0.572800
4.888100 0.575400
4.907600 0.565300
4.927100 0.546100
4.946600 0.533600
4.966100 0.522300
4.985600 0.511600
5.005100 0.503600
5.024600 0.497600
5.044100 0.487200
5.063600 0.479500
5.083100 0.475400
5.102600 0.473300
5.122100 0.471300
5.141600 0.469600
5.161100 0.468100
5.180600 0.466800
5.200100 0.466000
5.219600 0.466500
5.239100 0.467700
5.258600 0.469500
5.278100 0.471900
5.297600 0.474800
5.317100 0.478400
5.336600 0.482700
5.356100 0.487700
5.375600 0.494500
5.395100 0.496800
5.414600 0.498100
5.434100 0.501700
5.453600 0.508400
5.473100 0.521900
5.492600 0.549400
5.512100 0.550800
5.531600 0.550500
5.551100 0.551800
5.570600 0.559600
5.590100 0.567400
5.609600 0.575100
5.629100 0.582100
5.648600 0.586400
5.668100 0.587600
5.687600 0.585300
5.707100 0.583400
5.726600 0.583900
5.746100 0.586100
5.765600 0.588600
5.785100 0.590700
5.804600 0.590200
5.824100 0.588600
5.843600 0.588400
5.863100 0.589700
5.882600 0.591100
5.902100 0.592500
5.921600 0.593800
5.941100 0.595100
5.960600 0.596500
5.980100 0.598100
5.999600 0.599600
6.019100 0.600800
6.038600 0.601600
6.058100 0.602000
6.077600 0.602300
6.097200 0.602800
6.116700 0.603400
6.136200 0.604200
6.155700 0.605400
6.175200 0.606400
6.194700 0.604600
6.214200 0.605600
6.233700 0.616500
6.253200 0.607100
6.272700 0.607800
6.292200 0.610200
6.311700 0.612800
6.331200 0.614200
6.350700 0.614000
6.370200 0.613900
6.389700 0.614100
6.409200 0.614100
6.428700 0.613400
6.448200 0.614900
6.467700 0.616600
6.487200 0.618600
6.506700 0.621900
6.526200 0.625900
6.545700 0.627700
6.565200 0.629200
6.584700 0.632600
6.604200 0.636900
6.623700 0.633200
6.643200 0.636700
6.662700 0.629400
6.682200 0.619300
6.701700 0.621700
6.721200 0.611000
6.740700 0.609600
6.760200 0.607900
6.779700 0.606200
6.799200 0.604300
6.818700 0.602500
6.838200 0.600800
6.857700 0.599200
6.877200 0.597900
6.896700 0.596900
6.916200 0.596000
6.935700 0.595200
6.955200 0.594400
6.974700 0.593800
6.994200 0.593500
7.013700 0.594100
7.033200 0.595900
7.052700 0.597100
7.072200 0.598900
7.091700 0.618200
7.111200 0.599000
7.130700 0.597300
7.150200 0.597200
7.169700 0.597300
7.189200 0.597300
7.208700 0.597200
7.228200 0.597000
7.247700 0.601600
7.267200 0.592700
7.286800 0.592600
7.306300 0.592900
7.325800 0.593300
7.345300 0.593800
7.364800 0.594400
7.384300 0.595100
7.403800 0.595900
7.423300 0.596700
7.442800 0.597600
7.462300 0.598900
7.481800 0.600300
7.501300 0.601600
7.520800 0.602600
7.540300 0.603400
7.559800 0.604200
7.579300 0.604900
7.598800 0.608800
7.618300 0.607000
7.637800 0.604700
7.657300 0.606500
7.676800 0.609700
7.696300 0.613900
7.715800 0.617800
7.735300 0.614500
7.754800 0.615800
7.774300 0.632300
7.793800 0.639200
7.813300 0.642000
7.832800 0.644100
7.852300 0.647400
7.871800 0.651700
7.891300 0.656300
7.910800 0.661300
7.930300 0.666700
7.949800 0.672500
7.969300 0.678100
7.988800 0.685000
8.008300 0.692300
8.027800 0.699900
8.047300 0.710300
8.066800 0.722200
8.086300 0.724600
8.105800 0.729700
8.125300 0.736600
8.144800 0.744600
8.164300 0.752700
8.183800 0.761400
8.203300 0.770800
8.222800 0.781700
8.242300 0.795000
8.261800 0.809300
8.281300 0.826900
8.300800 0.849200
8.320300 0.874000
8.339800 0.895400
8.359300 0.886100
8.378800 0.884900
8.398300 0.885300
8.417800 0.882800
8.437300 0.885700
8.456800 0.887800
8.476400 0.895600
8.495900 0.901300
8.515400 0.882300
8.534900 0.883000
8.554400 0.883700
8.573900 0.884900
8.593400 0.883000
8.612900 0.880800
8.632400 0.883100
8.651900 0.875600
8.671400 0.867000
8.690900 0.858500
8.710400 0.855900
8.729900 0.855600
8.749400 0.858700
8.768900 0.860500
8.788400 0.862200
8.807900 0.859400
8.827400 0.860100
8.846900 0.859500
8.866400 0.861600
8.885900 0.864800
8.905400 0.869300
8.924900 0.871800
8.944400 0.872900
8.963900 0.874400
8.983400 0.876100
9.002900 0.879100
9.022400 0.883400
9.041900 0.888800
9.061400 0.896100
9.080900 0.928700
9.100400 0.929300
9.119900 0.945200
9.139400 0.951000
9.158900 0.960500
9.178400 0.958300
9.197900 0.950200
9.217400 0.942600
9.236900 0.923800
9.256400 0.912500
9.275900 0.895500
9.295400 0.870000
9.314900 0.851600
9.334400 0.824300
9.353900 0.797800
9.373400 0.774000
9.392900 0.759000
9.412400 0.746600
9.431900 0.737800
9.451400 0.729100
9.470900 0.719900
9.490400 0.710500
9.509900 0.701500
9.529400 0.708800
9.548900 0.683200
9.568400 0.675500
9.587900 0.668800
9.607400 0.661500
9.626900 0.654000
9.646400 0.647000
9.666000 0.640400
9.685500 0.634700
9.705000 0.630100
9.724500 0.628000
9.744000 0.627800
9.763500 0.627100
9.783000 0.618100
9.802500 0.611100
9.822000 0.607700
9.841500 0.605800
9.861000 0.600400
9.880500 0.594800
9.900000 0.590800
9.919500 0.589100
9.939000 0.587800
9.958500 0.585600
9.978000 0.581600
9.997500 0.577600
10.017000 0.575700
10.036500 0.580700
10.056000 0.576000
10.075500 0.576400
10.095000 0.571600
10.114500 0.566800
10.134000 0.568800
10.153500 0.572700
10.173000 0.568100
10.192500 0.564100
10.212000 0.561700
10.231500 0.559600
10.251000 0.557900
10.270500 0.556200
10.290000 0.554500
10.309500 0.553400
10.329000 0.552800
10.348500 0.552200
10.368000 0.552000
10.387500 0.552200
10.407000 0.552700
10.426500 0.553500
10.446000 0.554500
10.465500 0.555600
10.485000 0.558500
10.504500 0.565800
10.524000 0.561100
10.543500 0.557500
10.563000 0.554700
10.582500 0.550100
10.602000 0.545800
10.621500 0.540400
10.641000 0.534900
10.660500 0.529800
10.680000 0.525200
10.699500 0.521000
10.719000 0.516900
10.738500 0.513100
10.758000 0.509600
10.777500 0.506800
10.797000 0.504600
10.816500 0.503300
10.836000 0.498400
10.855600 0.494100
10.875100 0.491000
10.894600 0.488600
10.914100 0.485900
10.933600 0.482900
10.953100 0.479800
10.972600 0.476500
10.992100 0.473900
11.011600 0.472900
11.031100 0.471100
11.050600 0.468000
11.070100 0.465100
11.089600 0.462100
11.109100 0.459000
11.128600 0.455800
11.148100 0.452700
11.167600 0.449600
11.187100 0.446700
11.206600 0.444200
11.226100 0.441900
11.245600 0.439800
11.265100 0.437700
11.284600 0.435700
11.304100 0.434100
11.323600 0.433300
11.343100 0.429900
11.362600 0.428100
11.382100 0.422700
11.401600 0.419600
11.421100 0.417100
11.440600 0.424500
11.460100 0.422900
11.479600 0.420300
11.499100 0.418500
11.518600 0.415200
11.538100 0.413600
11.557600 0.414600
11.577100 0.413800
11.596600 0.414700
11.616100 0.420100
11.635600 0.418300
11.655100 0.415400
11.674600 0.414500
11.694100 0.410300
11.713600 0.407200
11.733100 0.405000
11.752600 0.403400
11.772100 0.401900
11.791600 0.401500
11.811100 0.401600
11.830600 0.402000
11.850100 0.402400
11.869600 0.403200
11.889100 0.404400
11.908600 0.406100
11.928100 0.408100
11.947600 0.409800
11.967100 0.406800
11.986600 0.409100
12.006100 0.411600
12.025600 0.413200
12.045100 0.412400
12.064700 0.414600
12.084200 0.416200
12.103700 0.416900
12.123200 0.417000
12.142700 0.417900
12.162200 0.419400
12.181700 0.421100
12.201200 0.429000
12.220700 0.425000
12.240200 0.423100
12.259700 0.423500
12.279200 0.424900
12.298700 0.426200
12.318200 0.427700
12.337700 0.429400
12.357200 0.431300
12.376700 0.433400
12.396200 0.435400
12.415700 0.437300
12.435200 0.439900
12.454700 0.444000
12.474200 0.452500
12.493700 0.457600
12.513200 0.460900
12.532700 0.463300
12.552200 0.465500
12.571700 0.467800
12.591200 0.471100
12.610700 0.473800
12.630200 0.476700
12.649700 0.480700
12.669200 0.481500
12.688700 0.482400
12.708200 0.484600
12.727700 0.487200
12.747200 0.490200
12.766700 0.493600
12.786200 0.510900
12.805700 0.500700
12.825200 0.506000
12.844700 0.506800
12.864200 0.508000
12.883700 0.511400
12.903200 0.526100
12.922700 0.514300
12.942200 0.516600
12.961700 0.518900
12.981200 0.521200
13.000700 0.523500
13.020200 0.525300
13.039700 0.526400
13.059200 0.527600
13.078700 0.529100
13.098200 0.531000
13.117700 0.533100
13.137200 0.537000
13.156700 0.542600
13.176200 0.545000
13.195700 0.561700
13.215200 0.537100
13.234700 0.536800
13.254300 0.536800
13.273800 0.537700
13.293300 0.539100
13.312800 0.540800
13.332300 0.542700
13.351800 0.545400
13.371300 0.548600
13.390800 0.553100
13.410300 0.556300
13.429800 0.555900
13.449300 0.554400
13.468800 0.553500
13.488300 0.555800
13.507800 0.559100
13.527300 0.562100
13.546800 0.567500
13.566300 0.573000
13.585800 0.568500
13.605300 0.575500
13.624800 0.595500
13.644300 0.601400
13.663800 0.606500
13.683300 0.600800
13.702800 0.592400
13.722300 0.583300
13.741800 0.580300
13.761300 0.580500
13.780800 0.577500
13.800300 0.576200
13.819800 0.581200
13.839300 0.590300
13.858800 0.595800
13.878300 0.598700
13.897800 0.602600
13.917300 0.609200
13.936800 0.612900
13.956300 0.616700
13.975800 0.618200
13.995300 0.608200
14.014800 0.596400
14.034300 0.586000
14.053800 0.574200
14.073300 0.569200
14.092800 0.564400
14.112300 0.562500
14.131800 0.560200
14.151300 0.556400
14.170800 0.553400
14.190300 0.550300
14.209800 0.547800
14.229300 0.546800
14.248800 0.547600
14.268300 0.549800
14.287800 0.552800
14.307300 0.554900
14.326800 0.555300
14.346300 0.557400
14.365800 0.560300
14.385300 0.563900
14.404800 0.567400
14.424300 0.571600
14.443900 0.577500
14.463400 0.585100
14.482900 0.587200
14.502400 0.590400
14.521900 0.595900
14.541400 0.602000
14.560900 0.608800
14.580400 0.616200
14.599900 0.624900
14.619400 0.633800
14.638900 0.642900
14.658400 0.650200
14.677900 0.657300
14.697400 0.665300
14.716900 0.674000
14.736400 0.683300
14.755900 0.694600
14.775400 0.706800
14.794900 0.719000
14.814400 0.732200
14.833900 0.744200
14.853400 0.749300
14.872900 0.755200
14.892400 0.760600
14.911900 0.766600
14.931400 0.768700
14.950900 0.772500
14.970400 0.777200
14.989900 0.780400
15.009400 0.781000
15.028900 0.777200
15.048400 0.777700
15.067900 0.795300
15.087400 0.790300
15.106900 0.783000
15.126400 0.781100
15.145900 0.780400
15.165400 0.779900
15.184900 0.779800
15.204400 0.780100
15.223900 0.780900
15.243400 0.781200
15.262900 0.781100
15.282400 0.782200
15.301900 0.783300
15.321400 0.784400
15.340900 0.785800
15.360400 0.787800
15.379900 0.790000
15.399400 0.791700
15.418900 0.793200
15.438400 0.794400
15.457900 0.795500
15.477400 0.798000
15.496900 0.801600
15.516400 0.806700
15.535900 0.813600
15.555400 0.817400
15.574900 0.818600
15.594400 0.822100
15.613900 0.821500
15.633500 0.821900
15.653000 0.822200
15.672500 0.822400
15.692000 0.823300
15.711500 0.823900
15.731000 0.823400
15.750500 0.820600
15.770000 0.816500
15.789500 0.811600
15.809000 0.807500
15.828500 0.805200
15.848000 0.805700
15.867500 0.807800
15.887000 0.814700
15.906500 0.818700
15.926000 0.815900
15.945500 0.816800
15.965000 0.818400
15.984500 0.820600
16.004000 0.824400
16.023500 0.827300
16.043000 0.827500
16.062500 0.827900
16.082000 0.824500
16.101500 0.825800
16.121000 0.828400
16.140500 0.830100
16.160000 0.829100
16.179500 0.826800
16.199000 0.823800
16.218500 0.821300
16.238000 0.820600
16.257500 0.820500
16.277000 0.819900
16.296500 0.819700
16.316000 0.819300
16.335500 0.819000
16.355000 0.818900
16.374500 0.819300
16.394000 0.820000
16.413500 0.820800
16.433000 0.823600
16.452500 0.826900
16.472000 0.827800
16.491500 0.829000
16.511000 0.832800
16.530500 0.835800
16.550000 0.837600
16.569500 0.838400
16.589000 0.838900
16.608500 0.839700
16.628000 0.840700
16.647500 0.842400
16.667000 0.848900
16.686500 0.881200
16.706000 0.866100
16.725500 0.848400
16.745000 0.842100
16.764500 0.842800
16.784000 0.843500
16.803500 0.843600
16.823000 0.848500
16.842600 0.857200
16.862100 0.868400
16.881600 0.894500
16.901100 0.897000
16.920600 0.900600
16.940100 0.913100
16.959600 0.929600
16.979100 0.943400
16.998600 0.954300
17.018100 0.964800
17.037600 0.977000
17.057100 0.984000
17.076600 0.985500
17.096100 0.988700
17.115600 0.996500
17.135100 1.010100
17.154600 1.021500
17.174100 1.034200
17.193600 1.043100
17.213100 1.047900
17.232600 1.050400
17.252100 1.050000
17.271600 1.052000
17.291100 1.088400
17.310600 1.055900
17.330100 1.053700
17.349600 1.052200
17.369100 1.047300
17.388600 1.045000
17.408100 1.045500
17.427600 1.059000
17.447100 1.071300
17.466600 1.059700
17.486100 1.055500
17.505600 1.051900
17.525100 1.047600
17.544600 1.040200
17.564100 1.031800
17.583600 1.029400
17.603100 1.029800
17.622600 1.028500
17.642100 1.025100
17.661600 1.020100
17.681100 1.018100
17.700600 1.018300
17.720100 1.009100
17.739600 0.986800
17.759100 0.965000
17.778600 0.945100
17.798100 0.925400
17.817600 0.913400
17.837100 0.903400
17.856600 0.898700
17.876100 0.902500
17.895600 0.905800
17.915100 0.908900
17.934600 0.904400
17.954100 0.894100
17.973600 0.883600
17.993100 0.864800
18.012600 0.846900
18.032200 0.832300
18.051700 0.818700
18.071200 0.806700
18.090700 0.795700
18.110200 0.786100
18.129700 0.777900
18.149200 0.770800
18.168700 0.764800
18.188200 0.763400
18.207700 0.758600
18.227200 0.748900
18.246700 0.742200
18.266200 0.737000
18.285700 0.731800
18.305200 0.724600
18.324700 0.715100
18.344200 0.707600
18.363700 0.699200
18.383200 0.691200
18.402700 0.682900
18.422200 0.674300
18.441700 0.666100
18.461200 0.658600
18.480700 0.652500
18.500200 0.647300
18.519700 0.642800
18.539200 0.639100
18.558700 0.636400
18.578200 0.634600
18.597700 0.634100
18.617200 0.635500
18.636700 0.639300
18.656200 0.644700
18.675700 0.651400
18.695200 0.658400
18.714700 0.687000
18.734200 0.723300
18.753700 0.753900
18.773200 0.773600
18.792700 0.791300
18.812200 0.814400
18.831700 0.835200
18.851200 0.861900
18.870700 0.885500
18.890200 0.908100
18.909700 0.928100
18.929200 0.948800
18.948700 0.969400
18.968200 0.988100
18.987700 0.994100
19.007200 1.005400
19.026700 1.021700
19.046200 1.046800
19.065700 1.058700
19.085200 1.073200
19.104700 1.091300
19.124200 1.104500
19.143700 1.117900
19.163200 1.124600
19.182700 1.123700
19.202200 1.123900
19.221800 1.130400
19.241300 1.125900
19.260800 1.123900
19.280300 1.118400
19.299800 1.115000
19.319300 1.108200
19.338800 1.104100
19.358300 1.104900
19.377800 1.104400
19.397300 1.106000
19.416800 1.110000
19.436300 1.114800
19.455800 1.112200
19.475300 1.097700
19.494800 1.087700
19.514300 1.075900
19.533800 1.067100
19.553300 1.062200
19.572800 1.061100
19.592300 1.060600
19.611800 1.060800
19.631300 1.061800
19.650800 1.062700
19.670300 1.057000
19.689800 1.051700
19.709300 1.050300
19.728800 1.051000
19.748300 1.052900
19.767800 1.055900
19.787300 1.060400
19.806800 1.062900
19.826300 1.065000
19.845800 1.064300
19.865300 1.066700
19.884800 1.066100
19.904300 1.108000
19.923800 1.068100
19.943300 1.059400
19.962800 1.048400
19.982300 1.036000
20.001800 1.027400
20.021300 1.021500
20.040800 1.018000
20.060300 1.015900
20.079800 1.015700
20.099300 1.017900
20.118800 1.020500
20.138300 1.023200
20.157800 1.026400
20.177300 1.027500
20.196800 1.030700
20.216300 1.041200
20.235800 1.055600
20.255300 1.046700
20.274800 1.048000
20.294300 1.052700
20.313800 1.059700
20.333300 1.067500
20.352800 1.073000
20.372300 1.079100
20.391800 1.091600
20.411400 1.089500
20.430900 1.086100
20.450400 1.079500
20.469900 1.073100
20.489400 1.065900
20.508900 1.060900
20.528400 1.057200
20.547900 1.054900
20.567400 1.053100
20.586900 1.057400
20.606400 1.045700
20.625900 1.042000
20.645400 1.040400
20.664900 1.036800
20.684400 1.034400
20.703900 1.043000
20.723400 1.035600
20.742900 1.036100
20.762400 1.044500
20.781900 1.045500
20.801400 1.045900
20.820900 1.044500
20.840400 1.047000
20.859900 1.055600
20.879400 1.059100
20.898900 1.063400
20.918400 1.066800
20.937900 1.069200
20.957400 1.070400
20.976900 1.072800
20.996400 1.075900
21.015900 1.080300
21.035400 1.086600
21.054900 1.094900
21.074400 1.107000
21.093900 1.121900
21.113400 1.136800
21.132900 1.152200
21.152400 1.184600
21.171900 1.217200
21.191400 1.229600
21.210900 1.233700
21.230400 1.236900
21.249900 1.255900
21.269400 1.274600
21.288900 1.276800
21.308400 1.278600
21.327900 1.280700
21.347400 1.282600
21.366900 1.285100
21.386400 1.288600
21.405900 1.293000
21.425400 1.299300
21.444900 1.312500
21.464400 1.317200
21.483900 1.320900
21.503400 1.320500
21.522900 1.314100
21.542400 1.306200
21.561900 1.294700
21.581400 1.282600
21.600900 1.270300
21.620500 1.257400
21.640000 1.257100
21.659500 1.240500
21.679000 1.228800
21.698500 1.221300
21.718000 1.215500
21.737500 1.210400
21.757000 1.206400
21.776500 1.202900
21.796000 1.201100
21.815500 1.200000
21.835000 1.198400
21.854500 1.196000
21.874000 1.195800
21.893500 1.204900
21.913000 1.204800
21.932500 1.201300
21.952000 1.199900
21.971500 1.204100
21.991000 1.207300
22.010500 1.210200
22.030000 1.211800
22.049500 1.208600
22.069000 1.205700
22.088500 1.203300
22.108000 1.197800
22.127500 1.192600
22.147000 1.187400
22.166500 1.181900
22.186000 1.177000
22.205500 1.174700
22.225000 1.171200
22.244500 1.166700
22.264000 1.156500
22.283500 1.157200
22.303000 1.159000
22.322500 1.161300
22.342000 1.162600
22.361500 1.164000
22.381000 1.166900
22.400500 1.170900
22.420000 1.174400
22.439500 1.179500
22.459000 1.182700
22.478500 1.185600
22.498000 1.189100
22.517500 1.195200
22.537000 1.194100
22.556500 1.192200
22.576000 1.191500
22.595500 1.190900
22.615000 1.190700
22.634500 1.191500
22.654000 1.191400
22.673500 1.192100
22.693000 1.190700
22.712500 1.184800
22.732000 1.184500
22.751500 1.189800
22.771000 1.195100
22.790500 1.194300
22.810100 1.195400
22.829600 1.199600
22.849100 1.199700
22.868600 1.196300
22.888100 1.203700
22.907600 1.196200
22.927100 1.193600
22.946600 1.192700
22.966100 1.190900
22.985600 1.186200
23.005100 1.179300
23.024600 1.171300
23.044100 1.161800
23.063600 1.162000
23.083100 1.160700
23.102600 1.160800
23.122100 1.162700
23.141600 1.166200
23.161100 1.170300
23.180600 1.175200
23.200100 1.181100
23.219600 1.189700
23.239100 1.198400
23.258600 1.207500
23.278100 1.213100
23.297600 1.224200
23.317100 1.231200
23.336600 1.230900
23.356100 1.227100
23.375600 1.219600
23.395100 1.214300
23.414600 1.211100
23.434100 1.181700
23.453600 1.162900
23.473100 1.152700
23.492600 1.145600
23.512100 1.138400
23.531600 1.137200
23.551100 1.136800
23.570600 1.137900
23.590100 1.140400
23.609600 1.143800
23.629100 1.147700
23.648600 1.155000
23.668100 1.153500
23.687600 1.155600
23.707100 1.161300
23.726600 1.168600
23.746100 1.178500
23.765600 1.191600
23.785100 1.205200
23.804600 1.217500
23.824100 1.225200
23.843600 1.230000
23.863100 1.241100
23.882600 1.250400
23.902100 1.259600
23.921600 1.260300
23.941100 1.256500
23.960600 1.256500
23.980100 1.260600
23.999700 1.270700
24.019200 1.278000
24.038700 1.282100
24.058200 1.286800
24.077700 1.294100
24.097200 1.305100
24.116700 1.314900
24.136200 1.318500
24.155700 1.323800
24.175200 1.330300
24.194700 1.339500
24.214200 1.343500
24.233700 1.349200
24.253200 1.356500
24.272700 1.359800
24.292200 1.364000
24.311700 1.368800
24.331200 1.375900
24.350700 1.383300
24.370200 1.389300
24.389700 1.394800
24.409200 1.393700
24.428700 1.390200
24.448200 1.393100
24.467700 1.399300
24.487200 1.406400
24.506700 1.417600
24.526200 1.415100
24.545700 1.402900
24.565200 1.389900
24.584700 1.377700
24.604200 1.366500
24.623700 1.357200
24.643200 1.349700
24.662700 1.343700
24.682200 1.340100
24.701700 1.339000
24.721200 1.339000
24.740700 1.337100
24.760200 1.334800
24.779700 1.334300
24.799200 1.329800
24.818700 1.321700
24.838200 1.319500
24.857700 1.310900
24.877200 1.292000
24.896700 1.278500
24.916200 1.268200
24.935700 1.252100
24.955200 1.231200
24.974700 1.216000
24.994200 1.194900
25.013700 1.179300
25.033200 1.171500
25.052700 1.167400
25.072200 1.163600
25.091700 1.160100
25.111200 1.157800
25.130700 1.153200
25.150200 1.149500
25.169700 1.151800
25.189300 1.150100
25.208800 1.151000
25.228300 1.156600
25.247800 1.166500
25.267300 1.182100
25.286800 1.199000
25.306300 1.216300
25.325800 1.236300
25.345300 1.259600
25.364800 1.283700
25.384300 1.306800
25.403800 1.329700
25.423300 1.351400
25.442800 1.373600
25.462300 1.401000
25.481800 1.432000
25.501300 1.464900
25.520800 1.495200
25.540300 1.519300
25.559800 1.541000
25.579300 1.562600
25.598800 1.568000
25.618300 1.575900
25.637800 1.587200
25.657300 1.624700
25.676800 1.645200
25.696300 1.651700
25.715800 1.649900
25.735300 1.633200
25.754800 1.597900
25.774300 1.570600
25.793800 1.546600
25.813300 1.522600
25.832800 1.501500
25.852300 1.478200
25.871800 1.451200
25.891300 1.425900
25.910800 1.400300
25.930300 1.375300
25.949800 1.351300
25.969300 1.328200
25.988800 1.298800
26.008300 1.272600
26.027800 1.247500
26.047300 1.220000
26.066800 1.201300
26.086300 1.190300
26.105800 1.166400
26.125300 1.149200
26.144800 1.145800
26.164300 1.145600
26.183800 1.149600
26.203300 1.156300
26.222800 1.169600
26.242300 1.186800
26.261800 1.203100
26.281300 1.220000
26.300800 1.234500
26.320300 1.246000
26.339800 1.257200
26.359300 1.271500
26.378800 1.277500
26.398400 1.282700
26.417900 1.296200
26.437400 1.315300
26.456900 1.323700
26.476400 1.319300
26.495900 1.320600
26.515400 1.323000
26.534900 1.335400
26.554400 1.346800
26.573900 1.338200
26.593400 1.331200
26.612900 1.325900
26.632400 1.325200
26.651900 1.327200
26.671400 1.335000
26.690900 1.344000
26.710400 1.345200
26.729900 1.351900
26.749400 1.361400
26.768900 1.369600
26.788400 1.375800
26.807900 1.382900
26.827400 1.385900
26.846900 1.384600
26.866400 1.375100
26.885900 1.361600
26.905400 1.349300
26.924900 1.336700
26.944400 1.322000
26.963900 1.307800
26.983400 1.298400
27.002900 1.292700
27.022400 1.291700
27.041900 1.281100
27.061400 1.265300
27.080900 1.250600
27.100400 1.240800
27.119900 1.230900
27.139400 1.220000
27.158900 1.214200
27.178400 1.202500
27.197900 1.187000
27.217400 1.172500
27.236900 1.159300
27.256400 1.152300
27.275900 1.155700
27.295400 1.133800
27.314900 1.124200
27.334400 1.117200
27.353900 1.111400
27.373400 1.107500
27.392900 1.103300
27.412400 1.089800
27.431900 1.076300
27.451400 1.058100
27.470900 1.034300
27.490400 1.018600
27.509900 1.004000
27.529400 0.989400
27.548900 0.977800
27.568400 0.968800
27.588000 0.966700
27.607500 0.953400
27.627000 0.991800
27.646500 1.025200
27.666000 0.880000
27.685500 0.871700
27.705000 0.861700
27.724500 0.850000
27.744000 0.837300
27.763500 0.827000
27.783000 0.823900
27.802500 0.825200
27.822000 0.830800
27.841500 0.833600
27.861000 0.819600
27.880500 0.805200
27.900000 0.794100
27.919500 0.776400
27.939000 0.753200
27.958500 0.733100
27.978000 0.716700
27.997500 0.705300
28.017000 0.684100
28.036500 0.663900
28.056000 0.650200
28.075500 0.638600
28.095000 0.624500
28.114500 0.611800
28.134000 0.600500
28.153500 0.597800
28.173000 0.575600
28.192500 0.562400
28.212000 0.553800
28.231500 0.546000
28.251000 0.531800
28.270500 0.517100
28.290000 0.503900
28.309500 0.492000
28.329000 0.482100
28.348500 0.473700
28.368000 0.466100
28.387500 0.460500
28.407000 0.455600
28.426500 0.451400
28.446000 0.448300
28.465500 0.440800
28.485000 0.437100
28.504500 0.433300
28.524000 0.429700
28.543500 0.426800
28.563000 0.424200
28.582500 0.422700
28.602000 0.422200
28.621500 0.423000
28.641000 0.427100
28.660500 0.431800
28.680000 0.422600
28.699500 0.420900
28.719000 0.419000
28.738500 0.407600
28.758000 0.389500
28.777600 0.383000
28.797100 0.377900
28.816600 0.370200
28.836100 0.353600
28.855600 0.333900
28.875100 0.318000
28.894600 0.305500
28.914100 0.293600
28.933600 0.280900
28.953100 0.267300
28.972600 0.252800
28.992100 0.237000
29.011600 0.225500
29.031100 0.216500
29.050600 0.209800
29.070100 0.204100
29.089600 0.204400
29.109100 0.200700
29.128600 0.188800
29.148100 0.188500
29.167600 0.185200
29.187100 0.181300
29.206600 0.177000
29.226100 0.172600
29.245600 0.168800
29.265100 0.165200
29.284600 0.158300
29.304100 0.153400
29.323600 0.149100
29.343100 0.145500
29.362600 0.142300
29.382100 0.139500
29.401600 0.137200
29.421100 0.135200
29.440600 0.133400
29.460100 0.132600
29.479600 0.133800
29.499100 0.134600
29.518600 0.134900
29.538100 0.134700
29.557600 0.133900
29.577100 0.132500
29.596600 0.130700
29.616100 0.129100
29.635600 0.128500
29.655100 0.123400
29.674600 0.118900
29.694100 0.117000
29.713600 0.115100
29.733100 0.113300
29.752600 0.111800
29.772100 0.108400
29.791600 0.106600
29.811100 0.104200
29.830600 0.101700
29.850100 0.099300
29.869600 0.097200
29.889100 0.095200
29.908600 0.093500
29.928100 0.091700
29.947600 0.090000
29.967200 0.088400
29.986700 0.086700
30.006200 0.085000
30.025700 0.083500
30.045200 0.082000
30.064700 0.080500
30.084200 0.079100
30.103700 0.077800
30.123200 0.076500
30.142700 0.075400
30.162200 0.074300
30.181700 0.073000
30.201200 0.071800
30.220700 0.070400
30.240200 0.069100
30.259700 0.067900
30.279200 0.066900
30.298700 0.066300
30.318200 0.065700
30.337700 0.065100
30.357200 0.064300
30.376700 0.063300
30.396200 0.062100
30.415700 0.060900
30.435200 0.059500
30.454700 0.058200
30.474200 0.056400
30.493700 0.055100
30.513200 0.051700
30.532700 0.048600
30.552200 0.045500
30.571700 0.042600
30.591200 0.039700
30.610700 0.037000
30.630200 0.034300
30.649700 0.031900
30.669200 0.029700
30.688700 0.027600
30.708200 0.025200
30.727700 0.022600
30.747200 0.020400
30.766700 0.021200
30.786200 0.024500
30.805700 0.000100
30.825200 0.000000
30.844700 0.000000
30.864200 0.000000
30.883700 0.000000
30.903200 0.000000
30.922700 0.000000
30.942200 0.000000
30.961700 0.000000
30.981200 0.000000
31.000700 0.000000
31.020200 0.000000
31.039700 0.000000
31.059200 0.000000
31.078700 0.000000
31.098200 0.000000
31.117700 0.000000
31.137200 0.000000
31.156700 0.000000
31.176300 0.000000
31.195800 0.000000
31.215300 0.000000
31.234800 0.000000
31.254300 0.000000
31.273800 0.000000
31.293300 0.000000
31.312800 0.000000
31.332300 0.000000
31.351800 0.000000
31.371300 0.000000
31.390800 0.000000
31.410300 0.000000
31.429800 0.000000
31.449300 0.000000
31.468800 0.000000
31.488300 0.000000
31.507800 0.000000
31.527300 0.000000
31.546800 0.000000
31.566300 0.000000
31.585800 0.000000
31.605300 0.000000
31.624800 0.000000
31.644300 0.000000
31.663800 0.000000
31.683300 0.000000
31.702800 0.000000
31.722300 0.000000
31.741800 0.000000
31.761300 0.000000
31.780800 0.000000
31.800300 0.000000
31.819800 0.000000
31.839300 0.000000
31.858800 0.000000
31.878300 0.000000
31.897800 0.000000
31.917300 0.000000
31.936800 0.000000
31.956300 0.000000
31.975800 0.000000
31.995300 0.000000
32.014800 0.000000
32.034300 0.000000
32.053800 0.000000
32.073300 0.000000
32.092800 0.000000
32.112300 0.000000
32.131800 0.000000
32.151300 0.000000
32.170800 0.000000
32.190300 0.000000
32.209800 0.000000
32.229300 0.000000
32.248800 0.000000
32.268300 0.000000
32.287800 0.000000
32.307300 0.000000
32.326800 0.000000
32.346300 0.000000
32.365900 0.000000
32.385400 0.000000
32.404900 0.000000
32.424400 0.000000
32.443900 0.000000
32.463400 0.000000
32.482900 0.000000
32.502400 0.000000
32.521900 0.000000
32.541400 0.000000
32.560900 0.000000
32.580400 0.000000
e
