set title 'mp-567551 - Density of States'
set xlabel 'Energy (eV)'
set ylabel 'DOS (states/eV)'
set grid
set xrange [-10:10]
set yrange [0:44.783]
set xzeroaxis lt -1
set terminal png size 800,600
set output 'mp-567551_dos_gnuplot.png'
plot '-' using 1:2 with lines title 'DOS'
-8.789600 0.000000
-8.773700 0.000000
-8.757700 0.000000
-8.741800 0.000000
-8.725900 0.000000
-8.710000 0.000000
-8.694100 0.000000
-8.678100 0.000000
-8.662200 0.000000
-8.646300 0.000000
-8.630400 0.000000
-8.614400 0.000000
-8.598500 0.000000
-8.582600 0.000000
-8.566700 0.000000
-8.550800 0.000000
-8.534800 0.000000
-8.518900 0.000000
-8.503000 0.000000
-8.487100 0.000000
-8.471100 0.000000
-8.455200 0.000000
-8.439300 0.000000
-8.423400 0.000000
-8.407400 0.000000
-8.391500 0.000000
-8.375600 0.000000
-8.359700 0.000000
-8.343800 0.000000
-8.327800 0.000000
-8.311900 0.000000
-8.296000 0.000000
-8.280100 0.000000
-8.264100 0.000000
-8.248200 0.000000
-8.232300 0.000000
-8.216400 0.000000
-8.200500 0.000000
-8.184500 0.000000
-8.168600 0.000000
-8.152700 0.000000
-8.136800 0.000000
-8.120800 0.000000
-8.104900 0.000000
-8.089000 0.000000
-8.073100 0.000000
-8.057100 0.000000
-8.041200 0.000000
-8.025300 0.000000
-8.009400 0.000000
-7.993500 0.000000
-7.977500 0.000000
-7.961600 0.000000
-7.945700 0.000000
-7.929800 0.000000
-7.913800 0.000000
-7.897900 0.000000
-7.882000 0.000000
-7.866100 0.000000
-7.850200 0.000000
-7.834200 0.000000
-7.818300 0.000000
-7.802400 0.000000
-7.786500 0.000000
-7.770500 0.000000
-7.754600 0.000000
-7.738700 0.000000
-7.722800 0.000000
-7.706900 0.000000
-7.690900 0.000000
-7.675000 0.000000
-7.659100 0.000000
-7.643200 0.000000
-7.627200 0.000000
-7.611300 0.000000
-7.595400 0.000000
-7.579500 0.000000
-7.563500 0.000000
-7.547600 0.000000
-7.531700 0.000000
-7.515800 0.000000
-7.499900 0.000000
-7.483900 0.000000
-7.468000 0.000000
-7.452100 0.000000
-7.436200 0.000000
-7.420200 0.000000
-7.404300 0.000000
-7.388400 0.000000
-7.372500 0.000000
-7.356600 0.000000
-7.340600 0.004800
-7.324700 0.057400
-7.308800 0.110000
-7.292900 0.162600
-7.276900 0.215200
-7.261000 0.315800
-7.245100 0.459700
-7.229200 0.617900
-7.213300 0.776100
-7.197300 0.934400
-7.181400 1.092600
-7.165500 1.250900
-7.149600 1.409100
-7.133600 1.567300
-7.117700 1.341600
-7.101800 1.451800
-7.085900 1.562000
-7.069900 1.672200
-7.054000 1.405400
-7.038100 1.145300
-7.022200 1.230900
-7.006300 1.351500
-6.990300 1.472000
-6.974400 1.592600
-6.958500 1.713100
-6.942600 1.833700
-6.926600 1.954300
-6.910700 2.074800
-6.894800 2.195400
-6.878900 2.315900
-6.863000 2.436500
-6.847000 2.557100
-6.831100 2.296300
-6.815200 2.013400
-6.799300 2.036500
-6.783300 2.059500
-6.767400 2.082600
-6.751500 2.105600
-6.735600 2.128700
-6.719700 2.151700
-6.703700 2.170100
-6.687800 2.183600
-6.671900 2.223700
-6.656000 2.292000
-6.640000 2.410800
-6.624100 2.521700
-6.608200 2.625200
-6.592300 2.728600
-6.576300 2.832100
-6.560400 2.935500
-6.544500 3.039000
-6.528600 3.142400
-6.512700 3.245800
-6.496700 3.352800
-6.480800 3.463000
-6.464900 3.200100
-6.449000 3.260500
-6.433000 2.928300
-6.417100 2.941800
-6.401200 2.956100
-6.385300 2.961300
-6.369400 2.966400
-6.353400 2.971600
-6.337500 2.976700
-6.321600 2.981900
-6.305700 2.987000
-6.289700 2.992200
-6.273800 2.997300
-6.257900 3.002500
-6.242000 3.007600
-6.226100 3.012800
-6.210100 3.023300
-6.194200 3.036600
-6.178300 3.055400
-6.162400 3.082300
-6.146400 3.178700
-6.130500 3.309800
-6.114600 3.440900
-6.098700 3.572000
-6.082700 3.703100
-6.066800 3.834200
-6.050900 3.958500
-6.035000 4.079100
-6.019100 4.190900
-6.003100 4.302600
-5.987200 4.414300
-5.971300 4.526000
-5.955400 4.267600
-5.939400 3.946900
-5.923500 3.956200
-5.907600 3.965500
-5.891700 3.946300
-5.875800 3.954200
-5.859800 3.962500
-5.843900 3.977200
-5.828000 3.966300
-5.812100 3.958300
-5.796100 3.977100
-5.780200 3.995800
-5.764300 4.014600
-5.748400 4.033300
-5.732400 4.052000
-5.716500 4.070800
-5.700600 4.089500
-5.684700 4.108300
-5.668800 4.127000
-5.652800 4.145700
-5.636900 4.164500
-5.621000 4.156100
-5.605100 4.173400
-5.589100 4.163100
-5.573200 4.179100
-5.557300 4.195100
-5.541400 4.199800
-5.525500 4.253900
-5.509500 4.340200
-5.493600 4.455200
-5.477700 4.570300
-5.461800 4.685400
-5.445800 4.800500
-5.429900 4.916700
-5.414000 5.033900
-5.398100 5.151200
-5.382200 5.268500
-5.366200 5.385900
-5.350300 5.507300
-5.334400 5.251500
-5.318500 5.329200
-5.302500 4.994500
-5.286600 5.018800
-5.270700 5.017600
-5.254800 5.040600
-5.238800 5.037900
-5.222900 5.060800
-5.207000 5.084200
-5.191100 5.108300
-5.175200 5.132300
-5.159200 5.156400
-5.143300 5.180500
-5.127400 5.204500
-5.111500 5.228600
-5.095500 5.252700
-5.079600 5.276800
-5.063700 5.300800
-5.047800 5.324900
-5.031900 5.349000
-5.015900 5.373000
-5.000000 5.397100
-4.984100 5.421200
-4.968200 5.445300
-4.952200 5.469300
-4.936300 5.485200
-4.920400 5.496000
-4.904500 5.499500
-4.888600 5.504100
-4.872600 5.508800
-4.856700 5.514000
-4.840800 5.519300
-4.824900 5.543200
-4.808900 5.628300
-4.793000 5.759900
-4.777100 5.868500
-4.761200 5.977400
-4.745200 6.117000
-4.729300 6.259600
-4.713400 6.407600
-4.697500 6.558600
-4.681600 6.713100
-4.665600 6.869600
-4.649700 7.026000
-4.633800 6.801300
-4.617900 6.521000
-4.601900 6.563200
-4.586000 6.605400
-4.570100 6.647600
-4.554200 6.689700
-4.538300 6.731900
-4.522300 6.774100
-4.506400 6.821100
-4.490500 6.868400
-4.474600 6.919600
-4.458600 6.971100
-4.442700 7.022700
-4.426800 7.074400
-4.410900 7.127800
-4.395000 7.182200
-4.379000 7.236700
-4.363100 7.291200
-4.347200 7.347500
-4.331300 7.404500
-4.315300 7.462000
-4.299400 7.809700
-4.283500 7.847300
-4.267600 7.884800
-4.251600 8.222200
-4.235700 8.522300
-4.219800 8.493100
-4.203900 8.452000
-4.188000 8.430300
-4.172000 8.392700
-4.156100 8.374200
-4.140200 8.426900
-4.124300 8.547700
-4.108300 8.670100
-4.092400 9.139800
-4.076500 9.230700
-4.060600 9.328800
-4.044700 9.750800
-4.028700 9.827900
-4.012800 9.905100
-3.996900 9.982200
-3.981000 10.059300
-3.965000 9.720700
-3.949100 9.321200
-3.933200 9.272300
-3.917300 9.223500
-3.901400 9.179400
-3.885400 9.142300
-3.869500 9.109300
-3.853600 9.077300
-3.837700 9.480200
-3.821700 9.401300
-3.805800 9.391000
-3.789900 13.053400
-3.774000 9.885500
-3.758000 11.294000
-3.742100 13.591800
-3.726200 12.904600
-3.710300 9.578300
-3.694400 9.612600
-3.678400 9.821900
-3.662500 10.031200
-3.646600 10.240500
-3.630700 9.989100
-3.614700 10.241500
-3.598800 10.879300
-3.582900 10.173300
-3.567000 10.616200
-3.551100 8.929300
-3.535100 8.929500
-3.519200 8.968300
-3.503300 9.007200
-3.487400 9.697300
-3.471400 9.637000
-3.455500 10.166100
-3.439600 10.025600
-3.423700 9.892300
-3.407800 9.762400
-3.391800 9.653300
-3.375900 9.790200
-3.360000 9.454600
-3.344100 9.591000
-3.328100 9.727500
-3.312200 9.864000
-3.296300 8.632500
-3.280400 8.562700
-3.264400 8.506900
-3.248500 8.539900
-3.232600 8.601200
-3.216700 8.662500
-3.200800 8.786500
-3.184800 8.950700
-3.168900 9.114900
-3.153000 9.279100
-3.137100 10.896100
-3.121100 10.585200
-3.105200 10.274400
-3.089300 9.963500
-3.073400 9.652600
-3.057500 10.211500
-3.041500 9.602300
-3.025600 9.204200
-3.009700 8.889200
-2.993800 8.574100
-2.977800 8.294400
-2.961900 8.024000
-2.946000 7.730000
-2.930100 7.436000
-2.914100 7.192800
-2.898200 7.092900
-2.882300 7.005500
-2.866400 6.923500
-2.850500 6.967500
-2.834500 7.192900
-2.818600 7.442300
-2.802700 7.977700
-2.786800 9.744300
-2.770800 17.345800
-2.754900 19.018100
-2.739000 40.712200
-2.723100 9.636000
-2.707200 7.936900
-2.691200 6.602200
-2.675300 6.868600
-2.659400 7.248700
-2.643500 7.628900
-2.627500 8.009100
-2.611600 8.389300
-2.595700 8.769400
-2.579800 9.149600
-2.563900 9.529800
-2.547900 9.909900
-2.532000 10.290100
-2.516100 8.057400
-2.500200 14.062400
-2.484200 11.405000
-2.468300 13.409200
-2.452400 12.397500
-2.436500 11.385700
-2.420500 14.536700
-2.404600 18.743700
-2.388700 19.733100
-2.372800 16.624400
-2.356900 10.810500
-2.340900 5.743800
-2.325000 5.718900
-2.309100 5.694000
-2.293200 6.204900
-2.277200 6.526700
-2.261300 5.873500
-2.245400 1.923800
-2.229500 0.000000
-2.213600 0.000000
-2.197600 0.000000
-2.181700 0.000000
-2.165800 0.000000
-2.149900 0.000000
-2.133900 0.000000
-2.118000 0.000000
-2.102100 0.000000
-2.086200 0.000000
-2.070300 0.000000
-2.054300 0.000000
-2.038400 0.000000
-2.022500 0.000000
-2.006600 0.000000
-1.990600 0.000000
-1.974700 0.000000
-1.958800 0.000000
-1.942900 0.000000
-1.926900 0.000000
-1.911000 0.000000
-1.895100 0.000000
-1.879200 0.000000
-1.863300 0.000000
-1.847300 0.000000
-1.831400 0.000000
-1.815500 0.000000
-1.799600 0.000000
-1.783600 0.000000
-1.767700 0.000000
-1.751800 0.000000
-1.735900 0.000000
-1.720000 0.000000
-1.704000 0.000000
-1.688100 0.000000
-1.672200 0.000000
-1.656300 0.000000
-1.640300 0.000000
-1.624400 0.000000
-1.608500 0.000000
-1.592600 0.000000
-1.576700 0.000000
-1.560700 0.000000
-1.544800 0.000000
-1.528900 0.000000
-1.513000 0.000000
-1.497000 0.000000
-1.481100 0.000000
-1.465200 0.000000
-1.449300 0.000000
-1.433300 0.000000
-1.417400 0.000000
-1.401500 0.000000
-1.385600 0.000000
-1.369700 0.000000
-1.353700 0.000000
-1.337800 0.000000
-1.321900 0.000000
-1.306000 0.000000
-1.290000 0.000000
-1.274100 0.000000
-1.258200 0.000000
-1.242300 0.000000
-1.226400 0.000000
-1.210400 0.000000
-1.194500 0.000000
-1.178600 0.000000
-1.162700 0.000000
-1.146700 0.000000
-1.130800 0.000000
-1.114900 0.000000
-1.099000 0.000000
-1.083100 0.000000
-1.067100 0.000000
-1.051200 0.000000
-1.035300 0.000000
-1.019400 0.000000
-1.003400 0.000000
-0.987500 0.000000
-0.971600 0.000000
-0.955700 0.000000
-0.939700 0.000000
-0.923800 0.000000
-0.907900 0.000000
-0.892000 0.000000
-0.876100 0.000000
-0.860100 0.000000
-0.844200 0.000000
-0.828300 0.000000
-0.812400 0.000000
-0.796400 0.000000
-0.780500 0.000000
-0.764600 0.000000
-0.748700 0.000000
-0.732800 0.000000
-0.716800 0.000000
-0.700900 0.000000
-0.685000 0.000000
-0.669100 0.000000
-0.653100 0.000000
-0.637200 0.000000
-0.621300 0.000000
-0.605400 0.000000
-0.589400 0.000000
-0.573500 0.000000
-0.557600 0.000000
-0.541700 0.000000
-0.525800 0.000000
-0.509800 0.000000
-0.493900 0.036700
-0.478000 0.100600
-0.462100 0.164500
-0.446100 0.228400
-0.430200 0.292300
-0.414300 0.356200
-0.398400 0.420100
-0.382500 0.484000
-0.366500 0.547800
-0.350600 0.611700
-0.334700 0.675600
-0.318800 0.739500
-0.302800 0.406500
-0.286900 0.413000
-0.271000 0.419400
-0.255100 9.061900
-0.239200 0.926300
-0.223200 1.152400
-0.207300 1.667100
-0.191400 2.181900
-0.175500 2.696600
-0.159500 3.786200
-0.143600 6.198900
-0.127700 2.236200
-0.111800 2.297000
-0.095800 2.357900
-0.079900 2.418800
-0.064000 7.553900
-0.048100 3.131900
-0.032200 3.357300
-0.016200 3.583000
-0.000300 4.281500
0.015600 5.103900
0.031500 5.926200
0.047500 6.748600
0.063400 5.308400
0.079300 5.547000
0.095200 6.249100
0.111100 6.615500
0.127100 6.460300
0.143000 6.237800
0.158900 6.372000
0.174800 6.506300
0.190800 6.640600
0.206700 6.774800
0.222600 6.909100
0.238500 7.051900
0.254400 8.237800
0.270400 8.279600
0.286300 8.321500
0.302200 8.363300
0.318100 8.405200
0.334100 8.447000
0.350000 9.923700
0.365900 11.103600
0.381800 10.862600
0.397800 10.669200
0.413700 12.902800
0.429600 11.731600
0.445500 12.782700
0.461400 12.349100
0.477400 11.919100
0.493300 14.620700
0.509200 13.381600
0.525100 12.855200
0.541100 14.784500
0.557000 14.009100
0.572900 14.878100
0.588800 16.556400
0.604700 14.800600
0.620700 17.836900
0.636600 13.601400
0.652500 13.372200
0.668400 13.355400
0.684400 12.901600
0.700300 12.447800
0.716200 12.569300
0.732100 12.713900
0.748000 12.858600
0.764000 17.102000
0.779900 13.089100
0.795800 13.625500
0.811700 14.025900
0.827700 14.296500
0.843600 15.931100
0.859500 15.707600
0.875400 18.099100
0.891400 12.971500
0.907300 13.820600
0.923200 14.904200
0.939100 13.247000
0.955000 14.790500
0.971000 8.002800
0.986900 8.489300
1.002800 9.430800
1.018700 10.414000
1.034700 11.397100
1.050600 12.381700
1.066500 8.887200
1.082400 9.130500
1.098300 9.383200
1.114300 9.639900
1.130200 10.457900
1.146100 12.224600
1.162000 13.524500
1.178000 10.877100
1.193900 9.409200
1.209800 11.340800
1.225700 22.925400
1.241600 8.824500
1.257600 8.864500
1.273500 8.906100
1.289400 8.947700
1.305300 8.989300
1.321300 9.047900
1.337200 9.106900
1.353100 9.165800
1.369000 9.237200
1.385000 9.434100
1.400900 9.859000
1.416800 10.788500
1.432700 12.107200
1.448600 13.425900
1.464600 14.759500
1.480500 16.093900
1.496400 15.869500
1.512300 13.681700
1.528300 10.960300
1.544200 9.661300
1.560100 8.975900
1.576000 9.350800
1.591900 7.483600
1.607900 7.257400
1.623800 6.783700
1.639700 6.863300
1.655600 6.942900
1.671600 7.022500
1.687500 7.102100
1.703400 7.181700
1.719300 7.264700
1.735200 7.353600
1.751200 5.971000
1.767100 5.953000
1.783000 5.934900
1.798900 5.916800
1.814900 5.900500
1.830800 5.885300
1.846700 5.870100
1.862600 5.856400
1.878600 5.846200
1.894500 5.540900
1.910400 5.515700
1.926300 5.491200
1.942200 5.472800
1.958200 5.454400
1.974100 5.436200
1.990000 5.523400
2.005900 5.508300
2.021900 5.493200
2.037800 5.478100
2.053700 5.462900
2.069600 5.448100
2.085500 5.459000
2.101500 5.469900
2.117400 5.480900
2.133300 5.662700
2.149200 5.691600
2.165200 5.720500
2.181100 5.751400
2.197000 5.803000
2.212900 5.858300
2.228900 5.913700
2.244800 5.980600
2.260700 6.048700
2.276600 6.247700
2.292500 6.486100
2.308500 6.881200
2.324400 7.290400
2.340300 7.705300
2.356200 8.118800
2.372200 8.532200
2.388100 8.751300
2.404000 9.237000
2.419900 9.507000
2.435800 10.034500
2.451800 10.561900
2.467700 11.089400
2.483600 10.840900
2.499500 10.167700
2.515500 9.278700
2.531400 7.548800
2.547300 6.341700
2.563200 6.016800
2.579100 6.081000
2.595100 6.136200
2.611000 7.327400
2.626900 8.610100
2.642800 11.266300
2.658800 10.278300
2.674700 9.290200
2.690600 8.294600
2.706500 7.297900
2.722500 7.782900
2.738400 8.271500
2.754300 8.454200
2.770200 8.453300
2.786100 8.625900
2.802100 8.797800
2.818000 8.966200
2.833900 9.134700
2.849800 9.303200
2.865800 9.471700
2.881700 9.584200
2.897600 9.747900
2.913500 9.853300
2.929400 10.185200
2.945400 9.646900
2.961300 9.321800
2.977200 8.812700
2.993100 8.708000
3.009100 8.829300
3.025000 8.965100
3.040900 9.100800
3.056800 9.236600
3.072700 9.372300
3.088700 9.508100
3.104600 9.575900
3.120500 9.712100
3.136400 9.714100
3.152400 9.856300
3.168300 9.998500
3.184200 10.140800
3.200100 10.283000
3.216100 10.425200
3.232000 10.567500
3.247900 10.723500
3.263800 10.943200
3.279700 11.659100
3.295700 11.005600
3.311600 10.939200
3.327500 11.361000
3.343400 11.187400
3.359400 11.045400
3.375300 10.903500
3.391200 10.484700
3.407100 10.265000
3.423000 9.905200
3.439000 9.823200
3.454900 9.780300
3.470800 9.688500
3.486700 9.657100
3.502700 9.712600
3.518600 9.846400
3.534500 10.114200
3.550400 10.385300
3.566300 10.656400
3.582300 10.871000
3.598200 11.145200
3.614100 11.462500
3.630000 11.803800
3.646000 11.862300
3.661900 12.428500
3.677800 13.139600
3.693700 13.977000
3.709700 16.719600
3.725600 19.635800
3.741500 21.511000
3.757400 13.977000
3.773300 13.837900
3.789300 13.643600
3.805200 13.415600
3.821100 13.187100
3.837000 12.958700
3.853000 11.733000
3.868900 11.739900
3.884800 11.755200
3.900700 11.717900
3.916600 11.622300
3.932600 11.388800
3.948500 11.418800
3.964400 11.448800
3.980300 11.478700
3.996300 11.508700
4.012200 11.623000
4.028100 11.645000
4.044000 11.679000
4.059900 11.713600
4.075900 11.856100
4.091800 11.091300
4.107700 11.046400
4.123600 11.170700
4.139600 11.294900
4.155500 11.425500
4.171400 11.546400
4.187300 12.045100
4.203300 12.728800
4.219200 13.418000
4.235100 14.155800
4.251000 14.929300
4.266900 15.392900
4.282900 14.758800
4.298800 12.967800
4.314700 11.540600
4.330600 11.687400
4.346600 11.834000
4.362500 11.972000
4.378400 12.106700
4.394300 12.237800
4.410200 12.368200
4.426200 12.418400
4.442100 12.213100
4.458000 12.766800
4.473900 12.577000
4.489900 15.000900
4.505800 14.850100
4.521700 14.701000
4.537600 14.552000
4.553600 14.402900
4.569500 14.254900
4.585400 14.107600
4.601300 13.960400
4.617200 16.240000
4.633200 18.191900
4.649100 17.746400
4.665000 17.413500
4.680900 17.137300
4.696900 16.856700
4.712800 16.619600
4.728700 16.193000
4.744600 16.006000
4.760500 15.812800
4.776500 15.383000
4.792400 15.172500
4.808300 15.237000
4.824200 15.342800
4.840200 15.448100
4.856100 15.327100
4.872000 15.421800
4.887900 15.562600
4.903800 15.389300
4.919800 15.258600
4.935700 14.985400
4.951600 14.979500
4.967500 17.999700
4.983500 20.995600
4.999400 20.346100
5.015300 19.696600
5.031200 19.092400
5.047200 18.446300
5.063100 19.331900
5.079000 17.975100
5.094900 18.492300
5.110800 16.921900
5.126800 15.726600
5.142700 15.008900
5.158600 14.737400
5.174500 14.707500
5.190500 14.650600
5.206400 14.602700
5.222300 14.564600
5.238200 14.530200
5.254100 14.583500
5.270100 14.669400
5.286000 14.764100
5.301900 14.887700
5.317800 15.010200
5.333800 15.304700
5.349700 15.432000
5.365600 15.502600
5.381500 15.835400
5.397400 16.780300
5.413400 17.802700
5.429300 18.829800
5.445200 17.537700
5.461100 18.149100
5.477100 18.848500
5.493000 18.000700
5.508900 18.175700
5.524800 18.297200
5.540800 17.872500
5.556700 17.743800
5.572600 17.661500
5.588500 17.592100
5.604400 17.494900
5.620400 17.487500
5.636300 17.491800
5.652200 17.502400
5.668100 17.531200
5.684100 17.607900
5.700000 17.434400
5.715900 17.122700
5.731800 16.879900
5.747700 17.050300
5.763700 17.138500
5.779600 17.227600
5.795500 17.401800
5.811400 17.503800
5.827400 17.655700
5.843300 17.781800
5.859200 17.917500
5.875100 18.061200
5.891000 17.108000
5.907000 17.267900
5.922900 17.437600
5.938800 17.648200
5.954700 17.816000
5.970700 18.001500
5.986600 18.228800
6.002500 18.371800
6.018400 18.500500
6.034400 18.743700
6.050300 19.027300
6.066200 19.311600
6.082100 19.220600
6.098000 18.859000
6.114000 18.760400
6.129900 18.998200
6.145800 18.807000
6.161700 19.037500
6.177700 19.243200
6.193600 19.477900
6.209500 19.885000
6.225400 19.529800
6.241300 19.685500
6.257300 19.861600
6.273200 20.038700
6.289100 20.107400
6.305000 19.782000
6.321000 19.785800
6.336900 19.789700
6.352800 19.377200
6.368700 19.704900
6.384600 19.846600
6.400600 19.957300
6.416500 20.080900
6.432400 20.220100
6.448300 20.298100
6.464300 20.531000
6.480200 21.096600
6.496100 21.180500
6.512000 21.245900
6.528000 20.928600
6.543900 18.771600
6.559800 18.608000
6.575700 18.429500
6.591600 18.114900
6.607600 17.864200
6.623500 17.680600
6.639400 17.550100
6.655300 17.341900
6.671300 17.194900
6.687200 16.980000
6.703100 16.765200
6.719000 16.464300
6.734900 16.175900
6.750900 15.779800
6.766800 15.565900
6.782700 15.357700
6.798600 15.260300
6.814600 15.097300
6.830500 14.693900
6.846400 14.250200
6.862300 14.005300
6.878200 13.852700
6.894200 13.766800
6.910100 13.499100
6.926000 13.217700
6.941900 12.943200
6.957900 12.330600
6.973800 12.020900
6.989700 11.829300
7.005600 11.555100
7.021600 11.337800
7.037500 11.073400
7.053400 10.876600
7.069300 10.622700
7.085200 10.442100
7.101200 10.324100
7.117100 10.311200
7.133000 10.256200
7.148900 10.084900
7.164900 9.913700
7.180800 9.742400
7.196700 9.619800
7.212600 9.643000
7.228500 9.492900
7.244500 9.281200
7.260400 9.155900
7.276300 8.909200
7.292200 8.768200
7.308200 8.664600
7.324100 8.437100
7.340000 8.174900
7.355900 7.912600
7.371900 7.710000
7.387800 7.460800
7.403700 7.224600
7.419600 6.993100
7.435500 6.836600
7.451500 6.615200
7.467400 6.393800
7.483300 6.179900
7.499200 5.992000
7.515200 5.808200
7.531100 5.624500
7.547000 5.421700
7.562900 5.219800
7.578800 5.039400
7.594800 4.883000
7.610700 5.146600
7.626600 5.149900
7.642500 4.972700
7.658500 4.866700
7.674400 4.772400
7.690300 4.556700
7.706200 4.330800
7.722100 4.104900
7.738100 3.879000
7.754000 3.653100
7.769900 3.427200
7.785800 3.201300
7.801800 2.980700
7.817700 2.776200
7.833600 2.617600
7.849500 3.706700
7.865500 3.744500
7.881400 3.299000
7.897300 2.853500
7.913200 2.408000
7.929100 2.755400
7.945100 2.072800
7.961000 1.429900
7.976900 0.868500
7.992800 0.516400
8.008800 0.164400
8.024700 0.000000
8.040600 0.000000
8.056500 0.000000
8.072400 0.000000
8.088400 0.000000
8.104300 0.000000
8.120200 0.000000
8.136100 0.000000
8.152100 0.000000
8.168000 0.000000
8.183900 0.000000
8.199800 0.000000
8.215700 0.000000
8.231700 0.000000
8.247600 0.000000
8.263500 0.000000
8.279400 0.000000
8.295400 0.000000
8.311300 0.000000
8.327200 0.000000
8.343100 0.000000
8.359100 0.000000
8.375000 0.000000
8.390900 0.000000
8.406800 0.000000
8.422700 0.000000
8.438700 0.000000
8.454600 0.000000
8.470500 0.000000
8.486400 0.000000
8.502400 0.000000
8.518300 0.000000
8.534200 0.000000
8.550100 0.000000
8.566000 0.000000
8.582000 0.000000
8.597900 0.000000
8.613800 0.000000
8.629700 0.000000
8.645700 0.000000
8.661600 0.000000
8.677500 0.000000
8.693400 0.000000
8.709300 0.000000
8.725300 0.000000
8.741200 0.000000
8.757100 0.000000
8.773000 0.000000
8.789000 0.000000
8.804900 0.000000
8.820800 0.000000
8.836700 0.000000
8.852700 0.000000
8.868600 0.000000
8.884500 0.000000
8.900400 0.000000
8.916300 0.000000
8.932300 0.000000
8.948200 0.000000
8.964100 0.000000
8.980000 0.000000
8.996000 0.000000
9.011900 0.000000
9.027800 0.000000
9.043700 0.000000
9.059600 0.000000
9.075600 0.000000
9.091500 0.000000
9.107400 0.000000
9.123300 0.000000
9.139300 0.000000
9.155200 0.000000
9.171100 0.000000
9.187000 0.000000
9.202900 0.000000
9.218900 0.000000
9.234800 0.000000
9.250700 0.000000
9.266600 0.000000
9.282600 0.000000
9.298500 0.000000
9.314400 0.000000
9.330300 0.000000
9.346300 0.000000
9.362200 0.000000
9.378100 0.000000
9.394000 0.000000
9.409900 0.000000
9.425900 0.000000
9.441800 0.000000
9.457700 0.000000
9.473600 0.000000
9.489600 0.000000
9.505500 0.000000
9.521400 0.000000
9.537300 0.000000
9.553200 0.000000
9.569200 0.000000
9.585100 0.000000
9.601000 0.000000
9.616900 0.000000
9.632900 0.000000
9.648800 0.000000
9.664700 0.000000
9.680600 0.000000
9.696600 0.000000
9.712500 0.000000
9.728400 0.000000
9.744300 0.000000
9.760200 0.000000
9.776200 0.000000
9.792100 0.000000
9.808000 0.000000
9.823900 0.000000
9.839900 0.000000
9.855800 0.000000
9.871700 0.000000
9.887600 0.000000
9.903500 0.000000
9.919500 0.000000
9.935400 0.000000
9.951300 0.000000
9.967200 0.000000
9.983200 0.000000
9.999100 0.000000
10.015000 0.000000
10.030900 0.000000
10.046800 0.000000
10.062800 0.000000
10.078700 0.000000
10.094600 0.311600
10.110500 0.320100
10.126500 0.328700
10.142400 0.337200
10.158300 0.345700
10.174200 0.640200
10.190200 0.657900
10.206100 0.675500
10.222000 0.971400
10.237900 0.997900
10.253800 1.024400
10.269800 1.051000
10.285700 1.302700
10.301600 1.338600
10.317500 1.374400
10.333500 1.410300
10.349400 1.446200
10.365300 1.482100
10.381200 1.517900
10.397100 1.553800
10.413100 1.589700
10.429000 1.625500
10.444900 1.661400
10.460800 1.697300
10.476800 1.733200
10.492700 1.769000
10.508600 1.804900
10.524500 1.840800
10.540400 1.876600
10.556400 1.912500
10.572300 2.396500
10.588200 2.460800
10.604100 2.525200
10.620100 2.589500
10.636000 2.653800
10.651900 2.718100
10.667800 2.782500
10.683800 2.846800
10.699700 2.914500
10.715600 2.986800
10.731500 3.059000
10.747400 3.131200
10.763400 3.205400
10.779300 3.281700
10.795200 3.358000
10.811100 3.433300
10.827100 3.494100
10.843000 3.555000
10.858900 3.609700
10.874800 3.659100
10.890700 3.706600
10.906700 3.746300
10.922600 3.785100
10.938500 3.817300
10.954400 3.852700
10.970400 3.894500
10.986300 3.936300
11.002200 3.978100
11.018100 4.019900
11.034000 4.061700
11.050000 4.103500
11.065900 4.145100
11.081800 4.185400
11.097700 4.225600
11.113700 4.265800
11.129600 4.306100
11.145500 4.347700
11.161400 4.390600
11.177400 4.423300
11.193300 4.451900
11.209200 4.480600
11.225100 4.510900
11.241000 5.677000
11.257000 5.635000
11.272900 5.595600
11.288800 5.557100
11.304700 5.518600
11.320700 5.480100
11.336600 5.627200
11.352500 5.600100
11.368400 5.572900
11.384300 7.891200
11.400300 7.537100
11.416200 7.182900
11.432100 7.029700
11.448000 6.688000
11.464000 6.346300
11.479900 6.004700
11.495800 5.663000
11.511700 5.540500
11.527600 5.579400
11.543600 6.986500
11.559500 13.452300
11.575400 6.431900
11.591300 6.750700
11.607300 7.327500
11.623200 7.697900
11.639100 8.068200
11.655000 8.438500
11.671000 8.808800
11.686900 6.666700
11.702800 6.988900
11.718700 7.085500
11.734600 7.182000
11.750600 7.278600
11.766500 7.375200
11.782400 7.471800
11.798300 7.568300
11.814300 7.664900
11.830200 7.761500
11.846100 7.856900
11.862000 7.949000
11.877900 8.041100
11.893900 8.174800
11.909800 7.606000
11.925700 7.682800
11.941600 7.759600
11.957600 7.074300
11.973500 7.093900
11.989400 7.170000
12.005300 7.313800
12.021200 7.457400
12.037200 7.601100
12.053100 7.744900
12.069000 7.188500
12.084900 7.283900
12.100900 7.798400
12.116800 7.426400
12.132700 8.111700
12.148600 7.127000
12.164600 9.032500
12.180500 12.334400
12.196400 14.121100
12.212300 9.494800
12.228200 9.411300
12.244200 9.375300
12.260100 9.383200
12.276000 9.391200
12.291900 9.399600
12.307900 9.815800
12.323800 10.053100
12.339700 10.810900
12.355600 16.763700
12.371500 10.619800
12.387500 10.189900
12.403400 9.745300
12.419300 9.410300
12.435200 9.158600
12.451200 8.876600
12.467100 8.601400
12.483000 8.601700
12.498900 10.375200
12.514900 10.464600
12.530800 10.185200
12.546700 10.020600
12.562600 9.863100
12.578500 9.705700
12.594500 9.548200
12.610400 9.390800
12.626300 9.233300
12.642200 9.075800
12.658200 8.918400
12.674100 9.392600
12.690000 11.777900
12.705900 14.527300
12.721800 7.229700
12.737800 7.257900
12.753700 7.286100
12.769600 7.314300
12.785500 7.342500
12.801500 7.786500
12.817400 7.837000
12.833300 7.887400
12.849200 8.274300
12.865100 8.357700
12.881100 8.487000
12.897000 8.620900
12.912900 8.752600
12.928800 8.722600
12.944800 8.516300
12.960700 8.777200
12.976600 9.038200
12.992500 9.299100
13.008500 9.560100
13.024400 9.901600
13.040300 10.432500
13.056200 10.745900
13.072100 10.996100
13.088100 11.139800
13.104000 11.185500
13.119900 11.288000
13.135800 11.401700
13.151800 11.497000
13.167700 11.559000
13.183600 11.632800
13.199500 11.715800
13.215400 11.798700
13.231400 11.881700
13.247300 11.964700
13.263200 12.426500
13.279100 16.598300
13.295100 17.018800
13.311000 14.000300
13.326900 14.118100
13.342800 14.307000
13.358700 13.488400
13.374700 11.022900
13.390600 11.279800
13.406500 11.615700
13.422400 11.951600
13.438400 12.288100
13.454300 12.671100
13.470200 13.055300
13.486100 11.890100
13.502100 12.162900
13.518000 13.235100
13.533900 12.214300
13.549800 12.890800
13.565700 11.625700
13.581700 11.866100
13.597600 12.703800
13.613500 13.668300
13.629400 14.632700
13.645400 13.083700
13.661300 12.456800
13.677200 12.570100
13.693100 12.505300
13.709000 17.437200
13.725000 16.152200
13.740900 14.667000
13.756800 13.376300
13.772700 10.508100
13.788700 10.520600
13.804600 10.999400
13.820500 11.142600
13.836400 11.474600
13.852300 11.768800
13.868300 12.061300
13.884200 13.517100
13.900100 13.919400
13.916000 14.427100
13.932000 14.954700
13.947900 14.763500
13.963800 17.247100
13.979700 17.115000
13.995700 13.996700
14.011600 14.259100
14.027500 14.536200
14.043400 14.802600
14.059300 15.086700
14.075300 14.117500
14.091200 15.141900
14.107100 13.925300
14.123000 13.935100
14.139000 13.952000
14.154900 14.259900
14.170800 14.679900
14.186700 13.630900
14.202600 14.052800
14.218600 14.497800
14.234500 14.929200
14.250400 13.051200
14.266300 13.091300
14.282300 13.128500
14.298200 11.169400
14.314100 10.939100
14.330000 10.708800
14.345900 11.233400
14.361900 11.091400
14.377800 11.016900
14.393700 10.684800
14.409600 15.666300
14.425600 10.179900
14.441500 10.201200
14.457400 10.273400
14.473300 14.085600
14.489300 14.717600
14.505200 11.692800
14.521100 12.115000
14.537000 14.007600
14.552900 13.030500
14.568900 12.590200
14.584800 14.724900
14.600700 13.680000
14.616600 12.662600
14.632600 11.579700
14.648500 11.011000
14.664400 10.602100
14.680300 10.213400
14.696200 12.429000
14.712200 11.417700
14.728100 10.415100
14.744000 10.343700
14.759900 11.845800
14.775900 13.413900
14.791800 13.297900
14.807700 15.319300
14.823600 16.560500
14.839600 14.990300
14.855500 12.120800
14.871400 15.430300
14.887300 7.879600
14.903200 12.008000
14.919200 12.427500
14.935100 21.092700
14.951000 17.562200
14.966900 20.121500
14.982900 14.744400
14.998800 12.570100
15.014700 11.079600
15.030600 13.322200
15.046500 9.809700
15.062500 10.662000
15.078400 11.815600
15.094300 10.880200
15.110200 11.990700
15.126200 13.228900
15.142100 14.588200
15.158000 15.435700
15.173900 16.068600
15.189800 15.966300
15.205800 16.088100
15.221700 15.903500
15.237600 15.767100
15.253500 15.809100
15.269500 15.705900
15.285400 15.967500
15.301300 16.296000
15.317200 16.501100
15.333200 16.954500
15.349100 16.776100
15.365000 18.847100
15.380900 21.436400
15.396800 17.134900
15.412800 21.582100
15.428700 22.948500
15.444600 48.009600
15.460500 23.612900
15.476500 24.533600
15.492400 26.852900
15.508300 24.825900
15.524200 22.533700
15.540100 22.498400
15.556100 23.223300
15.572000 23.086600
15.587900 23.431300
15.603800 20.677600
15.619800 20.716700
15.635700 24.779000
15.651600 20.640000
15.667500 20.369500
15.683400 20.934700
15.699400 20.132500
15.715300 19.485700
15.731200 18.957900
15.747100 18.413200
15.763100 18.243400
15.779000 18.130500
15.794900 17.395800
15.810800 17.397800
15.826800 17.710900
15.842700 18.395100
15.858600 15.995800
15.874500 16.530400
15.890400 16.536000
15.906400 17.288000
15.922300 17.982600
15.938200 18.440400
15.954100 18.756200
15.970100 19.117500
15.986000 20.214500
16.001900 19.352400
16.017800 19.489300
16.033700 18.275700
16.049700 18.707800
16.065600 17.464500
16.081500 16.459900
16.097400 18.889800
16.113400 23.794300
16.129300 18.195600
16.145200 18.290700
16.161100 19.207800
16.177000 18.711200
16.193000 19.030800
16.208900 19.999800
16.224800 21.469100
16.240700 21.664400
16.256700 21.323900
16.272600 20.609700
16.288500 20.819400
16.304400 21.732200
16.320400 23.159500
16.336300 23.800900
16.352200 22.081200
16.368100 19.587600
16.384000 18.624100
16.400000 18.537600
16.415900 19.440400
16.431800 20.080000
16.447700 19.490800
16.463700 17.525200
16.479600 20.331400
16.495500 17.440500
16.511400 17.335800
16.527300 16.702000
16.543300 16.489700
16.559200 16.017200
16.575100 15.871000
16.591000 15.724900
16.607000 15.573500
16.622900 15.477700
16.638800 15.297500
16.654700 15.339000
16.670600 15.245900
16.686600 15.291200
16.702500 15.367200
16.718400 15.454400
16.734300 15.575600
16.750300 15.773000
16.766200 15.895800
16.782100 16.011500
16.798000 16.142800
16.814000 15.996400
16.829900 16.285100
16.845800 15.914700
16.861700 14.878600
16.877600 14.213700
16.893600 14.247500
16.909500 14.312200
16.925400 14.406400
16.941300 13.896400
16.957300 13.939600
16.973200 14.092900
16.989100 14.618900
17.005000 14.143700
17.020900 14.709600
17.036900 15.562100
17.052800 16.375100
17.068700 16.869800
17.084600 14.631900
17.100600 14.232800
17.116500 13.609600
17.132400 13.013600
17.148300 12.809500
17.164200 16.841200
17.180200 18.377900
17.196100 17.494800
17.212000 14.814000
17.227900 13.906100
17.243900 13.704800
17.259800 13.509900
17.275700 14.123700
17.291600 13.851800
17.307600 13.077400
17.323500 12.941600
17.339400 12.818300
17.355300 12.701500
17.371200 13.862500
17.387200 13.521700
17.403100 13.332300
17.419000 13.143000
17.434900 12.953600
17.450900 12.764300
17.466800 13.175000
17.482700 13.982200
17.498600 14.790700
17.514500 12.940900
17.530500 13.292900
17.546400 35.073900
17.562300 14.577400
17.578200 13.700100
17.594200 13.619800
17.610100 13.565800
17.626000 13.518500
17.641900 13.615500
17.657900 13.573300
17.673800 13.511000
17.689700 13.437600
17.705600 13.921100
17.721500 14.815700
17.737500 15.050300
17.753400 12.705600
17.769300 12.705300
17.785200 12.705000
17.801200 12.715500
17.817100 14.451900
17.833000 14.408400
17.848900 14.364800
17.864800 14.321200
17.880800 15.777900
17.896700 20.092900
17.912600 15.335400
17.928500 14.911300
17.944500 23.413100
17.960400 16.996600
17.976300 17.197300
17.992200 18.237500
18.008100 14.619400
18.024100 15.444900
18.040000 13.671600
18.055900 13.742000
18.071800 14.977800
18.087800 15.432300
18.103700 15.886700
18.119600 18.009700
18.135500 21.043600
18.151500 17.110900
18.167400 17.077300
18.183300 17.190500
18.199200 17.915700
18.215100 18.100100
18.231100 21.368100
18.247000 18.957900
18.262900 19.105900
18.278800 19.323800
18.294800 19.626100
18.310700 21.787200
18.326600 17.689900
18.342500 17.359800
18.358400 19.371100
18.374400 23.147900
18.390300 19.286300
18.406200 18.010600
18.422100 17.282800
18.438100 18.242900
18.454000 17.747200
18.469900 16.925600
18.485800 16.205700
18.501700 15.562600
18.517700 15.312500
18.533600 14.924100
18.549500 15.360400
18.565400 15.823300
18.581400 18.535600
18.597300 17.417500
18.613200 17.136600
18.629100 18.670300
18.645100 17.710300
18.661000 19.121900
18.676900 17.919500
18.692800 16.982200
18.708700 12.845400
18.724700 12.194300
18.740600 11.774100
18.756500 11.648400
18.772400 16.122400
18.788400 19.834500
18.804300 11.540000
18.820200 11.811100
18.836100 12.082100
18.852000 13.327900
18.868000 13.792600
18.883900 12.143500
18.899800 12.510500
18.915700 12.985100
18.931700 13.459700
18.947600 13.934300
18.963500 14.537000
18.979400 12.893700
18.995300 14.892300
19.011300 13.461000
19.027200 11.477800
19.043100 10.120700
19.059000 19.512700
19.075000 12.193100
19.090900 8.727600
19.106800 9.570200
19.122700 10.625600
19.138700 10.381700
19.154600 10.137800
19.170500 9.893900
19.186400 9.650000
19.202300 9.406200
19.218300 9.156900
19.234200 8.942800
19.250100 9.631700
19.266000 10.202300
19.282000 12.299300
19.297900 8.393700
19.313800 8.673000
19.329700 9.598000
19.345600 9.844100
19.361600 10.103800
19.377500 10.365200
19.393400 8.971500
19.409300 10.992200
19.425300 13.013000
19.441200 8.644200
19.457100 8.723400
19.473000 8.802600
19.488900 8.881800
19.504900 8.960900
19.520800 9.108700
19.536700 9.294900
19.552600 9.481100
19.568600 9.589700
19.584500 14.838200
19.600400 9.714600
19.616300 9.807900
19.632300 10.646300
19.648200 10.529000
19.664100 9.196900
19.680000 9.004100
19.695900 9.321400
19.711900 9.201400
19.727800 9.135800
19.743700 8.955100
19.759600 10.834900
19.775600 10.411900
19.791500 9.993200
19.807400 9.639200
19.823300 9.427900
19.839200 12.022800
19.855200 11.347100
19.871100 10.648800
19.887000 9.949700
19.902900 9.250600
19.918900 8.551500
19.934800 7.985500
19.950700 7.845500
19.966600 8.925400
19.982600 11.604300
19.998500 12.322200
20.014400 13.265700
20.030300 8.155100
20.046200 8.156400
20.062200 8.472800
20.078100 8.789100
20.094000 9.105500
20.109900 9.423300
20.125900 9.750800
20.141800 7.458500
20.157700 7.531600
20.173600 7.596400
20.189500 7.692600
20.205500 7.835400
20.221400 7.988800
20.237300 6.473200
20.253200 6.466400
20.269200 6.459000
20.285100 6.451500
20.301000 6.444100
20.316900 6.436700
20.332800 6.429300
20.348800 5.797500
20.364700 5.791100
20.380600 5.784700
20.396500 5.778300
20.412500 5.771900
20.428400 5.765500
20.444300 5.759100
20.460200 5.760600
20.476200 5.775700
20.492100 5.790900
20.508000 4.682800
20.523900 4.845100
20.539800 5.007400
20.555800 5.171000
20.571700 5.462500
20.587600 4.020800
20.603500 4.083800
20.619500 4.146800
20.635400 4.209800
20.651300 4.272800
20.667200 4.335800
20.683100 3.156800
20.699100 3.111000
20.715000 3.939700
20.730900 3.764100
20.746800 3.588500
20.762800 3.412800
20.778700 3.237200
20.794600 3.623800
20.810500 3.394900
20.826400 3.166100
20.842400 2.937300
20.858300 2.708400
20.874200 2.591700
20.890100 2.500500
20.906100 2.409400
20.922000 2.328900
20.937900 2.707400
20.953800 2.591700
20.969800 2.475900
20.985700 2.360200
21.001600 2.244500
21.017500 2.128700
21.033400 2.013000
21.049400 1.935300
21.065300 1.880000
21.081200 1.824700
21.097100 1.769400
21.113100 1.714100
21.129000 1.658800
21.144900 1.603500
21.160800 1.548200
21.176700 1.492900
21.192700 1.437600
21.208600 1.382300
21.224500 1.327000
21.240400 1.271700
21.256400 1.238400
21.272300 1.225400
21.288200 1.212400
21.304100 1.225700
21.320000 1.283200
21.336000 1.340700
21.351900 1.398300
21.367800 1.455800
21.383700 1.513300
21.399700 1.621100
21.415600 1.843100
21.431500 2.065100
21.447400 2.287100
21.463400 1.492300
21.479300 1.648300
21.495200 1.804300
21.511100 0.556700
21.527000 0.688000
21.543000 0.819300
21.558900 0.950600
21.574800 1.082000
21.590700 1.213300
21.606700 1.344600
21.622600 0.000000
21.638500 0.000000
21.654400 0.000000
21.670300 0.000000
21.686300 0.000000
21.702200 0.000000
21.718100 0.000000
21.734000 0.000000
21.750000 0.000000
21.765900 0.000000
21.781800 0.000000
21.797700 0.000000
21.813600 0.000000
21.829600 0.000000
21.845500 0.000000
21.861400 0.000000
21.877300 0.000000
21.893300 0.000000
21.909200 0.000000
21.925100 0.000000
21.941000 0.000000
21.957000 0.000000
21.972900 0.000000
21.988800 0.000000
22.004700 0.000000
22.020600 0.000000
22.036600 0.000000
22.052500 0.000000
22.068400 0.000000
22.084300 0.000000
22.100300 0.000000
22.116200 0.000000
22.132100 0.000000
22.148000 0.000000
22.163900 0.000000
22.179900 0.000000
22.195800 0.000000
22.211700 0.000000
22.227600 0.000000
22.243600 0.000000
22.259500 0.000000
22.275400 0.000000
22.291300 0.000000
22.307200 0.000000
22.323200 0.000000
22.339100 0.000000
22.355000 0.000000
22.370900 0.000000
22.386900 0.000000
22.402800 0.000000
22.418700 0.000000
22.434600 0.000000
22.450600 0.000000
22.466500 0.000000
22.482400 0.000000
22.498300 0.000000
22.514200 0.000000
22.530200 0.000000
22.546100 0.000000
22.562000 0.000000
22.577900 0.000000
22.593900 0.000000
22.609800 0.000000
22.625700 0.000000
22.641600 0.000000
22.657500 0.000000
22.673500 0.000000
22.689400 0.000000
22.705300 0.000000
22.721200 0.000000
22.737200 0.000000
22.753100 0.000000
22.769000 0.000000
22.784900 0.000000
22.800900 0.000000
22.816800 0.000000
22.832700 0.000000
22.848600 0.000000
22.864500 0.000000
22.880500 0.000000
22.896400 0.000000
22.912300 0.000000
22.928200 0.000000
22.944200 0.000000
22.960100 0.000000
22.976000 0.000000
22.991900 0.000000
23.007800 0.000000
23.023800 0.000000
23.039700 0.000000
23.055600 0.000000
e
