set title 'mp-1184904 - Density of States'
set xlabel 'Energy (eV)'
set ylabel 'DOS (states/eV)'
set grid
set xrange [-10:10]
set yrange [0:109.464]
set xzeroaxis lt -1
set terminal png size 800,600
set output 'mp-1184904_dos_gnuplot.png'
plot '-' using 1:2 with lines title 'DOS'
-10.252600 0.000000
-10.233500 0.000000
-10.214500 0.000000
-10.195400 0.000000
-10.176300 0.000000
-10.157200 0.000000
-10.138100 0.000000
-10.119000 0.000000
-10.100000 0.000000
-10.080900 0.000000
-10.061800 0.000000
-10.042700 0.000000
-10.023600 0.000000
-10.004500 0.000000
-9.985400 0.000000
-9.966400 0.000000
-9.947300 0.000000
-9.928200 0.000000
-9.909100 0.000000
-9.890000 0.000000
-9.870900 0.000000
-9.851900 0.000000
-9.832800 0.000000
-9.813700 0.000000
-9.794600 0.000000
-9.775500 0.000000
-9.756400 0.000000
-9.737400 0.000000
-9.718300 0.000000
-9.699200 0.000000
-9.680100 0.000000
-9.661000 0.000000
-9.641900 0.000000
-9.622900 0.000000
-9.603800 0.000000
-9.584700 0.000000
-9.565600 0.000000
-9.546500 0.000000
-9.527400 0.000000
-9.508400 0.000000
-9.489300 0.000000
-9.470200 0.000000
-9.451100 0.000000
-9.432000 0.000000
-9.412900 0.000000
-9.393900 0.000000
-9.374800 0.000000
-9.355700 0.000000
-9.336600 0.000000
-9.317500 0.000000
-9.298400 0.000000
-9.279400 0.000000
-9.260300 0.000000
-9.241200 0.000000
-9.222100 0.000000
-9.203000 0.000000
-9.183900 0.000000
-9.164800 0.000000
-9.145800 0.000000
-9.126700 0.000000
-9.107600 0.000000
-9.088500 0.000000
-9.069400 0.000000
-9.050300 0.000000
-9.031300 0.000000
-9.012200 0.000000
-8.993100 0.000000
-8.974000 0.000000
-8.954900 0.000000
-8.935800 0.000000
-8.916800 0.000000
-8.897700 0.000000
-8.878600 0.000000
-8.859500 0.000000
-8.840400 0.000000
-8.821300 0.000000
-8.802300 0.000000
-8.783200 0.000000
-8.764100 0.000000
-8.745000 0.000000
-8.725900 0.000000
-8.706800 0.000000
-8.687800 0.000000
-8.668700 0.000000
-8.649600 0.000200
-8.630500 0.002000
-8.611400 0.013800
-8.592300 0.073900
-8.573300 0.318200
-8.554200 1.126400
-8.535100 3.370900
-8.516000 8.743900
-8.496900 19.861300
-8.477800 39.091400
-8.458800 65.078900
-8.439700 89.362700
-8.420600 99.512700
-8.401500 89.864500
-8.382400 68.493200
-8.363300 50.409100
-8.344200 44.631700
-8.325200 49.695100
-8.306100 59.086300
-8.287000 67.504200
-8.267900 72.571000
-8.248800 73.688700
-8.229700 71.158200
-8.210700 66.307800
-8.191600 61.452100
-8.172500 58.959700
-8.153400 60.119900
-8.134300 64.695600
-8.115200 71.271800
-8.096200 77.857300
-8.077100 82.267200
-8.058000 82.586700
-8.038900 78.366000
-8.019800 71.773800
-8.000700 66.383300
-7.981700 63.647700
-7.962600 61.130700
-7.943500 54.954300
-7.924400 43.644200
-7.905300 29.456200
-7.886200 16.439300
-7.867200 7.428100
-7.848100 2.672600
-7.829000 0.756000
-7.809900 0.166500
-7.790800 0.028400
-7.771700 0.003700
-7.752700 0.000400
-7.733600 0.000000
-7.714500 0.000000
-7.695400 0.000000
-7.676300 0.000000
-7.657200 0.000000
-7.638200 0.000000
-7.619100 0.000000
-7.600000 0.000000
-7.580900 0.000000
-7.561800 0.000000
-7.542700 0.000000
-7.523600 0.000000
-7.504600 0.000000
-7.485500 0.000000
-7.466400 0.000000
-7.447300 0.000000
-7.428200 0.000000
-7.409100 0.000000
-7.390100 0.000000
-7.371000 0.000000
-7.351900 0.000000
-7.332800 0.000000
-7.313700 0.000000
-7.294600 0.000000
-7.275600 0.000000
-7.256500 0.000000
-7.237400 0.000000
-7.218300 0.000000
-7.199200 0.000000
-7.180100 0.000000
-7.161100 0.000000
-7.142000 0.000000
-7.122900 0.000000
-7.103800 0.000000
-7.084700 0.000000
-7.065600 0.000000
-7.046600 0.000000
-7.027500 0.000000
-7.008400 0.000000
-6.989300 0.000000
-6.970200 0.000000
-6.951100 0.000000
-6.932100 0.000000
-6.913000 0.000000
-6.893900 0.000000
-6.874800 0.000000
-6.855700 0.000000
-6.836600 0.000000
-6.817600 0.000000
-6.798500 0.000000
-6.779400 0.000000
-6.760300 0.000000
-6.741200 0.000000
-6.722100 0.000000
-6.703000 0.000000
-6.684000 0.000000
-6.664900 0.000000
-6.645800 0.000000
-6.626700 0.000000
-6.607600 0.000000
-6.588500 0.000000
-6.569500 0.000000
-6.550400 0.000000
-6.531300 0.000000
-6.512200 0.000000
-6.493100 0.000000
-6.474000 0.000000
-6.455000 0.000000
-6.435900 0.000000
-6.416800 0.000000
-6.397700 0.000000
-6.378600 0.000000
-6.359500 0.000000
-6.340500 0.000000
-6.321400 0.000000
-6.302300 0.000000
-6.283200 0.000000
-6.264100 0.000000
-6.245000 0.000000
-6.226000 0.000000
-6.206900 0.000000
-6.187800 0.000000
-6.168700 0.000000
-6.149600 0.000000
-6.130500 0.000000
-6.111500 0.000000
-6.092400 0.000000
-6.073300 0.000000
-6.054200 0.000000
-6.035100 0.000000
-6.016000 0.000000
-5.997000 0.000000
-5.977900 0.000000
-5.958800 0.000000
-5.939700 0.000000
-5.920600 0.000000
-5.901500 0.000000
-5.882400 0.000000
-5.863400 0.000000
-5.844300 0.000000
-5.825200 0.000000
-5.806100 0.000000
-5.787000 0.000000
-5.767900 0.000000
-5.748900 0.000000
-5.729800 0.000000
-5.710700 0.000000
-5.691600 0.000000
-5.672500 0.000000
-5.653400 0.000000
-5.634400 0.000000
-5.615300 0.000000
-5.596200 0.000000
-5.577100 0.000000
-5.558000 0.000000
-5.538900 0.000000
-5.519900 0.000000
-5.500800 0.000000
-5.481700 0.000000
-5.462600 0.000000
-5.443500 0.000000
-5.424400 0.000000
-5.405400 0.000000
-5.386300 0.000000
-5.367200 0.000000
-5.348100 0.000000
-5.329000 0.000000
-5.309900 0.000000
-5.290900 0.000000
-5.271800 0.000000
-5.252700 0.000000
-5.233600 0.000000
-5.214500 0.000000
-5.195400 0.000000
-5.176400 0.000000
-5.157300 0.000000
-5.138200 0.000000
-5.119100 0.000000
-5.100000 0.000000
-5.080900 0.000000
-5.061800 0.000000
-5.042800 0.000000
-5.023700 0.000000
-5.004600 0.000000
-4.985500 0.000000
-4.966400 0.000000
-4.947300 0.000000
-4.928300 0.000000
-4.909200 0.000000
-4.890100 0.000000
-4.871000 0.000000
-4.851900 0.000000
-4.832800 0.000000
-4.813800 0.000000
-4.794700 0.000000
-4.775600 0.000000
-4.756500 0.000000
-4.737400 0.000000
-4.718300 0.000000
-4.699300 0.000000
-4.680200 0.000000
-4.661100 0.000000
-4.642000 0.000000
-4.622900 0.000000
-4.603800 0.000000
-4.584800 0.000000
-4.565700 0.000000
-4.546600 0.000000
-4.527500 0.000000
-4.508400 0.000000
-4.489300 0.000000
-4.470300 0.000000
-4.451200 0.000000
-4.432100 0.000000
-4.413000 0.000000
-4.393900 0.000000
-4.374800 0.000000
-4.355800 0.000000
-4.336700 0.000000
-4.317600 0.000000
-4.298500 0.000000
-4.279400 0.000000
-4.260300 0.000000
-4.241200 0.000000
-4.222200 0.000000
-4.203100 0.000000
-4.184000 0.000000
-4.164900 0.000000
-4.145800 0.000000
-4.126700 0.000000
-4.107700 0.000000
-4.088600 0.000000
-4.069500 0.000000
-4.050400 0.000000
-4.031300 0.000000
-4.012200 0.000000
-3.993200 0.000000
-3.974100 0.000000
-3.955000 0.000000
-3.935900 0.000000
-3.916800 0.000000
-3.897700 0.000000
-3.878700 0.000000
-3.859600 0.000000
-3.840500 0.000000
-3.821400 0.000000
-3.802300 0.000000
-3.783200 0.000000
-3.764200 0.000000
-3.745100 0.000000
-3.726000 0.000000
-3.706900 0.000000
-3.687800 0.000000
-3.668700 0.000000
-3.649700 0.000000
-3.630600 0.000000
-3.611500 0.000000
-3.592400 0.000000
-3.573300 0.000000
-3.554200 0.000000
-3.535200 0.000000
-3.516100 0.000000
-3.497000 0.000000
-3.477900 0.000000
-3.458800 0.000000
-3.439700 0.000000
-3.420600 0.000000
-3.401600 0.000000
-3.382500 0.000000
-3.363400 0.000000
-3.344300 0.000000
-3.325200 0.000000
-3.306100 0.000100
-3.287100 0.000400
-3.268000 0.001700
-3.248900 0.006000
-3.229800 0.016000
-3.210700 0.033700
-3.191600 0.057700
-3.172600 0.083700
-3.153500 0.106100
-3.134400 0.122000
-3.115300 0.138600
-3.096200 0.178800
-3.077100 0.259100
-3.058100 0.352100
-3.039000 0.393300
-3.019900 0.344300
-3.000800 0.235000
-2.981700 0.133000
-2.962600 0.088600
-2.943600 0.118600
-2.924500 0.213900
-2.905400 0.340100
-2.886300 0.445800
-2.867200 0.494400
-2.848100 0.492900
-2.829100 0.482800
-2.810000 0.503200
-2.790900 0.555100
-2.771800 0.596800
-2.752700 0.577000
-2.733600 0.481000
-2.714600 0.344100
-2.695500 0.220400
-2.676400 0.148000
-2.657300 0.137700
-2.638200 0.177300
-2.619100 0.241300
-2.600000 0.314800
-2.581000 0.406000
-2.561900 0.524700
-2.542800 0.657300
-2.523700 0.777900
-2.504600 0.868300
-2.485500 0.910600
-2.466500 0.883100
-2.447400 0.790900
-2.428300 0.672800
-2.409200 0.557000
-2.390100 0.443800
-2.371000 0.350600
-2.352000 0.326300
-2.332900 0.391300
-2.313800 0.493400
-2.294700 0.554000
-2.275600 0.550400
-2.256500 0.528500
-2.237500 0.535900
-2.218400 0.562400
-2.199300 0.560700
-2.180200 0.520200
-2.161100 0.495800
-2.142000 0.538300
-2.123000 0.617700
-2.103900 0.659900
-2.084800 0.640100
-2.065700 0.594500
-2.046600 0.567900
-2.027500 0.594000
-2.008500 0.692100
-1.989400 0.843200
-1.970300 0.997000
-1.951200 1.115000
-1.932100 1.174100
-1.913000 1.140900
-1.894000 0.999400
-1.874900 0.802100
-1.855800 0.639700
-1.836700 0.553400
-1.817600 0.521700
-1.798500 0.523000
-1.779400 0.551800
-1.760400 0.576100
-1.741300 0.550300
-1.722200 0.484100
-1.703100 0.445300
-1.684000 0.476300
-1.664900 0.549300
-1.645900 0.616400
-1.626800 0.672700
-1.607700 0.749500
-1.588600 0.873000
-1.569500 1.029100
-1.550400 1.146400
-1.531400 1.140000
-1.512300 1.002400
-1.493200 0.816400
-1.474100 0.678500
-1.455000 0.638200
-1.435900 0.680800
-1.416900 0.745600
-1.397800 0.797500
-1.378700 0.867600
-1.359600 0.972600
-1.340500 1.047900
-1.321400 1.047200
-1.302400 1.042100
-1.283300 1.105800
-1.264200 1.160500
-1.245100 1.071100
-1.226000 0.853600
-1.206900 0.669400
-1.187900 0.626500
-1.168800 0.687100
-1.149700 0.767200
-1.130600 0.844500
-1.111500 0.936200
-1.092400 1.019300
-1.073400 1.025100
-1.054300 0.914800
-1.035200 0.739300
-1.016100 0.608900
-0.997000 0.594300
-0.977900 0.667800
-0.958800 0.751000
-0.939800 0.800100
-0.920700 0.815500
-0.901600 0.809500
-0.882500 0.812100
-0.863400 0.864700
-0.844300 0.968700
-0.825300 1.083300
-0.806200 1.191000
-0.787100 1.306900
-0.768000 1.413000
-0.748900 1.454300
-0.729800 1.412500
-0.710800 1.324700
-0.691700 1.221600
-0.672600 1.103100
-0.653500 0.984800
-0.634400 0.916500
-0.615300 0.913100
-0.596300 0.897900
-0.577200 0.773600
-0.558100 0.544500
-0.539000 0.320900
-0.519900 0.217800
-0.500800 0.287700
-0.481800 0.509500
-0.462700 0.789400
-0.443600 1.009300
-0.424500 1.132200
-0.405400 1.230000
-0.386300 1.359500
-0.367300 1.463200
-0.348200 1.446800
-0.329100 1.301700
-0.310000 1.103200
-0.290900 0.936900
-0.271800 0.863200
-0.252800 0.905900
-0.233700 1.037300
-0.214600 1.202600
-0.195500 1.373600
-0.176400 1.537400
-0.157300 1.635800
-0.138200 1.592700
-0.119200 1.410900
-0.100100 1.176700
-0.081000 0.977200
-0.061900 0.863000
-0.042800 0.853500
-0.023700 0.918900
-0.004700 0.981300
0.014400 0.973900
0.033500 0.899900
0.052600 0.832200
0.071700 0.847700
0.090800 0.953600
0.109800 1.092800
0.128900 1.220000
0.148000 1.328500
0.167100 1.391700
0.186200 1.350700
0.205300 1.195700
0.224300 0.999000
0.243400 0.849300
0.262500 0.809700
0.281600 0.909100
0.300700 1.098900
0.319800 1.253200
0.338800 1.281900
0.357900 1.214400
0.377000 1.130800
0.396100 1.057700
0.415200 0.981100
0.434300 0.915200
0.453300 0.898200
0.472400 0.948500
0.491500 1.066600
0.510600 1.246400
0.529700 1.444300
0.548800 1.574100
0.567800 1.561700
0.586900 1.402800
0.606000 1.177900
0.625100 1.002800
0.644200 0.942300
0.663300 0.995600
0.682400 1.153600
0.701400 1.395600
0.720500 1.624800
0.739600 1.701500
0.758700 1.582600
0.777800 1.378000
0.796900 1.252200
0.815900 1.303800
0.835000 1.515900
0.854100 1.750000
0.873200 1.809600
0.892300 1.618500
0.911400 1.338800
0.930400 1.224900
0.949500 1.357800
0.968600 1.574500
0.987700 1.637800
1.006800 1.441400
1.025900 1.078800
1.044900 0.755000
1.064000 0.632800
1.083100 0.733800
1.102200 0.942700
1.121300 1.083800
1.140400 1.031100
1.159400 0.801200
1.178500 0.548700
1.197600 0.466700
1.216700 0.678200
1.235800 1.156600
1.254900 1.688500
1.273900 1.981900
1.293000 1.909500
1.312100 1.615900
1.331200 1.337000
1.350300 1.186000
1.369400 1.152500
1.388400 1.202500
1.407500 1.302600
1.426600 1.392200
1.445700 1.411600
1.464800 1.375700
1.483900 1.372000
1.503000 1.460100
1.522000 1.607300
1.541100 1.730900
1.560200 1.778100
1.579300 1.777200
1.598400 1.796600
1.617500 1.831000
1.636500 1.794900
1.655600 1.673100
1.674700 1.583300
1.693800 1.626900
1.712900 1.764800
1.732000 1.892200
1.751000 1.952600
1.770100 1.930300
1.789200 1.806200
1.808300 1.575800
1.827400 1.284500
1.846500 1.013200
1.865500 0.827600
1.884600 0.755700
1.903700 0.791700
1.922800 0.892000
1.941900 0.988800
1.961000 1.050800
1.980000 1.144700
1.999100 1.413100
2.018200 1.935800
2.037300 2.595300
2.056400 3.120700
2.075500 3.286800
2.094500 3.059900
2.113600 2.577700
2.132700 2.017400
2.151800 1.483800
2.170900 1.020800
2.190000 0.694000
2.209000 0.602000
2.228100 0.787700
2.247200 1.157900
2.266300 1.521400
2.285400 1.722700
2.304500 1.712100
2.323600 1.506100
2.342600 1.178100
2.361700 0.887400
2.380800 0.800300
2.399900 0.952100
2.419000 1.227200
2.438100 1.459700
2.457100 1.540500
2.476200 1.480700
2.495300 1.418300
2.514400 1.526100
2.533500 1.842200
2.552600 2.194100
2.571600 2.354100
2.590700 2.271600
2.609800 2.084800
2.628900 1.928100
2.648000 1.815900
2.667100 1.696700
2.686100 1.525200
2.705200 1.283900
2.724300 1.009900
2.743400 0.810100
2.762500 0.796400
2.781600 0.977800
2.800600 1.241000
2.819700 1.455000
2.838800 1.586600
2.857900 1.701200
2.877000 1.864000
2.896100 2.063500
2.915100 2.211100
2.934200 2.183000
2.953300 1.903100
2.972400 1.434400
2.991500 0.957100
3.010600 0.631100
3.029600 0.510000
3.048700 0.570200
3.067800 0.752100
3.086900 0.956500
3.106000 1.077800
3.125100 1.096700
3.144200 1.106600
3.163200 1.204300
3.182300 1.371900
3.201400 1.501400
3.220500 1.525700
3.239600 1.477400
3.258700 1.414600
3.277700 1.345500
3.296800 1.256300
3.315900 1.175400
3.335000 1.157900
3.354100 1.204700
3.373200 1.256600
3.392200 1.291800
3.411300 1.360400
3.430400 1.484100
3.449500 1.585600
3.468600 1.574300
3.487700 1.472000
3.506700 1.413400
3.525800 1.520700
3.544900 1.784900
3.564000 2.075700
3.583100 2.261100
3.602200 2.290600
3.621200 2.166900
3.640300 1.914800
3.659400 1.605300
3.678500 1.326700
3.697600 1.104000
3.716700 0.901400
3.735700 0.705400
3.754800 0.560900
3.773900 0.528400
3.793000 0.643800
3.812100 0.907800
3.831200 1.256600
3.850200 1.532800
3.869300 1.571600
3.888400 1.361600
3.907500 1.070400
3.926600 0.901500
3.945700 0.965200
3.964700 1.252100
3.983800 1.669600
4.002900 2.084200
4.022000 2.346400
4.041100 2.348900
4.060200 2.127500
4.079300 1.862000
4.098300 1.716100
4.117400 1.703200
4.136500 1.734400
4.155600 1.744300
4.174700 1.728400
4.193800 1.693500
4.212800 1.619600
4.231900 1.498800
4.251000 1.381300
4.270100 1.339200
4.289200 1.391500
4.308300 1.495200
4.327300 1.597300
4.346400 1.675600
4.365500 1.739200
4.384600 1.801400
4.403700 1.846100
4.422800 1.822700
4.441800 1.693000
4.460900 1.485600
4.480000 1.282000
4.499100 1.151600
4.518200 1.110500
4.537300 1.122600
4.556300 1.152400
4.575400 1.237800
4.594500 1.453700
4.613600 1.761600
4.632700 1.961500
4.651800 1.878700
4.670800 1.575200
4.689900 1.300400
4.709000 1.227300
4.728100 1.302900
4.747200 1.367300
4.766300 1.335200
4.785300 1.231500
4.804400 1.139300
4.823500 1.149600
4.842600 1.280800
4.861700 1.429800
4.880800 1.469600
4.899900 1.377600
4.918900 1.218400
4.938000 1.049500
4.957100 0.900300
4.976200 0.797800
4.995300 0.756700
5.014400 0.757100
5.033400 0.760100
5.052500 0.741000
5.071600 0.709600
5.090700 0.727800
5.109800 0.896600
5.128900 1.277200
5.147900 1.815100
5.167000 2.358300
5.186100 2.730700
5.205200 2.795600
5.224300 2.535800
5.243400 2.114700
5.262400 1.793100
5.281500 1.726800
5.300600 1.859800
5.319700 2.019400
5.338800 2.102400
5.357900 2.151000
5.376900 2.239500
5.396000 2.341600
5.415100 2.353900
5.434200 2.216600
5.453300 1.982900
5.472400 1.774100
5.491400 1.654400
5.510500 1.567800
5.529600 1.454200
5.548700 1.402300
5.567800 1.585500
5.586900 2.037300
5.605900 2.573500
5.625000 2.964300
5.644100 3.115400
5.663200 3.055500
5.682300 2.865200
5.701400 2.688800
5.720500 2.674100
5.739500 2.781300
5.758600 2.761400
5.777700 2.439100
5.796800 1.947500
5.815900 1.586700
5.835000 1.516800
5.854000 1.674300
5.873100 1.907600
5.892200 2.083600
5.911300 2.125000
5.930400 2.060400
5.949500 1.998300
5.968500 1.982600
5.987600 1.938500
6.006700 1.812200
6.025800 1.675900
6.044900 1.626200
6.064000 1.639600
6.083000 1.624800
6.102100 1.597800
6.121200 1.689700
6.140300 1.945800
6.159400 2.211600
6.178500 2.280200
6.197500 2.095000
6.216600 1.765500
6.235700 1.454700
6.254800 1.292600
6.273900 1.308200
6.293000 1.402300
6.312000 1.440200
6.331100 1.370700
6.350200 1.227200
6.369300 1.065300
6.388400 0.935700
6.407500 0.867900
6.426500 0.857200
6.445600 0.884400
6.464700 0.939000
6.483800 1.016700
6.502900 1.122700
6.522000 1.281800
6.541100 1.532300
6.560100 1.898000
6.579200 2.327100
6.598300 2.653900
6.617400 2.685300
6.636500 2.361800
6.655600 1.819100
6.674600 1.301400
6.693700 1.028900
6.712800 1.121900
6.731900 1.590200
6.751000 2.311000
6.770100 3.009100
6.789100 3.362300
6.808200 3.210400
6.827300 2.659200
6.846400 1.985300
6.865500 1.444100
6.884600 1.149100
6.903600 1.101400
6.922700 1.277300
6.941800 1.633700
6.960900 2.066200
6.980000 2.434400
6.999100 2.625800
7.018100 2.589000
7.037200 2.373600
7.056300 2.147300
7.075400 2.078100
7.094500 2.184200
7.113600 2.365200
7.132600 2.540500
7.151700 2.672500
7.170800 2.739900
7.189900 2.791000
7.209000 2.913000
7.228100 3.066700
7.247100 3.085900
7.266200 2.917400
7.285300 2.726400
7.304400 2.662300
7.323500 2.646100
7.342600 2.520600
7.361700 2.304700
7.380700 2.148000
7.399800 2.106900
7.418900 2.098300
7.438000 2.023500
7.457100 1.836200
7.476200 1.535500
7.495200 1.183200
7.514300 0.909500
7.533400 0.822500
7.552500 0.888200
7.571600 0.938900
7.590700 0.839000
7.609700 0.620000
7.628800 0.437400
7.647900 0.429500
7.667000 0.625300
7.686100 0.936000
7.705200 1.218800
7.724200 1.379200
7.743300 1.431900
7.762400 1.457600
7.781500 1.501900
7.800600 1.548100
7.819700 1.601000
7.838700 1.718500
7.857800 1.890600
7.876900 1.989300
7.896000 1.945100
7.915100 1.883800
7.934200 1.972700
7.953200 2.205600
7.972300 2.437500
7.991400 2.563300
8.010500 2.561200
8.029600 2.433000
8.048700 2.212000
8.067700 1.988500
8.086800 1.855900
8.105900 1.846200
8.125000 1.913700
8.144100 1.957300
8.163200 1.905700
8.182300 1.818100
8.201300 1.879800
8.220400 2.273200
8.239500 3.004600
8.258600 3.819400
8.277700 4.341500
8.296800 4.364500
8.315800 3.982800
8.334900 3.429800
8.354000 2.871400
8.373100 2.370200
8.392200 1.941700
8.411300 1.602000
8.430300 1.400200
8.449400 1.390500
8.468500 1.540200
8.487600 1.716100
8.506700 1.823500
8.525800 1.932300
8.544800 2.174700
8.563900 2.517700
8.583000 2.751600
8.602100 2.737400
8.621200 2.575100
8.640300 2.473700
8.659300 2.516000
8.678400 2.621600
8.697500 2.692500
8.716600 2.690700
8.735700 2.597300
8.754800 2.401700
8.773800 2.133100
8.792900 1.849700
8.812000 1.606800
8.831100 1.449300
8.850200 1.388700
8.869300 1.375800
8.888300 1.345700
8.907400 1.296200
8.926500 1.290700
8.945600 1.388900
8.964700 1.586600
8.983800 1.828400
9.002900 2.074400
9.021900 2.322600
9.041000 2.559300
9.060100 2.717400
9.079200 2.699100
9.098300 2.444300
9.117400 1.994700
9.136400 1.492600
9.155500 1.102000
9.174600 0.910300
9.193700 0.904000
9.212800 1.029900
9.231900 1.250200
9.250900 1.528000
9.270000 1.802500
9.289100 2.020500
9.308200 2.182900
9.327300 2.326900
9.346400 2.455900
9.365400 2.517400
9.384500 2.491700
9.403600 2.447300
9.422700 2.441600
9.441800 2.441500
9.460900 2.411500
9.479900 2.389100
9.499000 2.410100
9.518100 2.441300
9.537200 2.451000
9.556300 2.508500
9.575400 2.756600
9.594400 3.249300
9.613500 3.811100
9.632600 4.117100
9.651700 3.981500
9.670800 3.528300
9.689900 3.050200
9.708900 2.764500
9.728000 2.706900
9.747100 2.767800
9.766200 2.811500
9.785300 2.783900
9.804400 2.700900
9.823500 2.584300
9.842500 2.486000
9.861600 2.525900
9.880700 2.786000
9.899800 3.172700
9.918900 3.445300
9.938000 3.377500
9.957000 2.919800
9.976100 2.259100
9.995200 1.693500
10.014300 1.419200
10.033400 1.442900
10.052500 1.648600
10.071500 1.911800
10.090600 2.197100
10.109700 2.545100
10.128800 2.920700
10.147900 3.151800
10.167000 3.110400
10.186000 2.876900
10.205100 2.632900
10.224200 2.474800
10.243300 2.413400
10.262400 2.451500
10.281500 2.548900
10.300500 2.565800
10.319600 2.370800
10.338700 2.024800
10.357800 1.757800
10.376900 1.725900
10.396000 1.859700
10.415000 1.965800
10.434100 1.938400
10.453200 1.880900
10.472300 2.008800
10.491400 2.375300
10.510500 2.718100
10.529500 2.683800
10.548600 2.218900
10.567700 1.652500
10.586800 1.393800
10.605900 1.621700
10.625000 2.219400
10.644100 2.878500
10.663100 3.270300
10.682200 3.259900
10.701300 2.988800
10.720400 2.697600
10.739500 2.510600
10.758600 2.424100
10.777600 2.411400
10.796700 2.485000
10.815800 2.664100
10.834900 2.886800
10.854000 2.996200
10.873100 2.878100
10.892100 2.598400
10.911200 2.357900
10.930300 2.330500
10.949400 2.582000
10.968500 3.081400
10.987600 3.678500
11.006600 4.097200
11.025700 4.103000
11.044800 3.724200
11.063900 3.227000
11.083000 2.866800
11.102100 2.719200
11.121100 2.712800
11.140200 2.735600
11.159300 2.723500
11.178400 2.720300
11.197500 2.851000
11.216600 3.172700
11.235600 3.547200
11.254700 3.716400
11.273800 3.514500
11.292900 2.992000
11.312000 2.366300
11.331100 1.875800
11.350100 1.647400
11.369200 1.668200
11.388300 1.860000
11.407400 2.137900
11.426500 2.401700
11.445600 2.537900
11.464700 2.497500
11.483700 2.388800
11.502800 2.428800
11.521900 2.724000
11.541000 3.119400
11.560100 3.323300
11.579200 3.178100
11.598200 2.789300
11.617300 2.414600
11.636400 2.233900
11.655500 2.208100
11.674600 2.162800
11.693700 2.006100
11.712700 1.817800
11.731800 1.721700
11.750900 1.747400
11.770000 1.845200
11.789100 1.959200
11.808200 2.051200
11.827200 2.121600
11.846300 2.226600
11.865400 2.407900
11.884500 2.597700
11.903600 2.680400
11.922700 2.646900
11.941700 2.614900
11.960800 2.698400
11.979900 2.891700
11.999000 3.076000
12.018100 3.127300
12.037200 2.996800
12.056200 2.697900
12.075300 2.294400
12.094400 1.929300
12.113500 1.763100
12.132600 1.810800
12.151700 1.903200
12.170700 1.874500
12.189800 1.735200
12.208900 1.617000
12.228000 1.610200
12.247100 1.709900
12.266200 1.864300
12.285300 2.046700
12.304300 2.320800
12.323400 2.782700
12.342500 3.353300
12.361600 3.722200
12.380700 3.637600
12.399800 3.183300
12.418800 2.660100
12.437900 2.288500
12.457000 2.121200
12.476100 2.134800
12.495200 2.277800
12.514300 2.460500
12.533300 2.589600
12.552400 2.631500
12.571500 2.626700
12.590600 2.643100
12.609700 2.699400
12.628800 2.736700
12.647800 2.689700
12.666900 2.569400
12.686000 2.435800
12.705100 2.314000
12.724200 2.181300
12.743300 2.022000
12.762300 1.854400
12.781400 1.713700
12.800500 1.638800
12.819600 1.654400
12.838700 1.746100
12.857800 1.874200
12.876800 2.005800
12.895900 2.106200
12.915000 2.134800
12.934100 2.081100
12.953200 1.975300
12.972300 1.833700
12.991300 1.625900
13.010400 1.340600
13.029500 1.063800
13.048600 0.939900
13.067700 1.041900
13.086800 1.307300
13.105900 1.613000
13.124900 1.882500
13.144000 2.093000
13.163100 2.218500
13.182200 2.245300
13.201300 2.238200
13.220400 2.320000
13.239400 2.562500
13.258500 2.902100
13.277600 3.155800
13.296700 3.157600
13.315800 2.915700
13.334900 2.605000
13.353900 2.401500
13.373000 2.361400
13.392100 2.435000
13.411200 2.521200
13.430300 2.517400
13.449400 2.397500
13.468400 2.253400
13.487500 2.192900
13.506600 2.194700
13.525700 2.126900
13.544800 1.921400
13.563900 1.666500
13.582900 1.487600
13.602000 1.395200
13.621100 1.317500
13.640200 1.236500
13.659300 1.212400
13.678400 1.274900
13.697400 1.347400
13.716500 1.327400
13.735600 1.241900
13.754700 1.258600
13.773800 1.505400
13.792900 1.921500
13.811900 2.303500
13.831000 2.484700
13.850100 2.492900
13.869200 2.520100
13.888300 2.677600
13.907400 2.823300
13.926500 2.720600
13.945500 2.322100
13.964600 1.825400
13.983700 1.508100
14.002800 1.542500
14.021900 1.903700
14.041000 2.416800
14.060000 2.881400
14.079100 3.136900
14.098200 3.080200
14.117300 2.738700
14.136400 2.300800
14.155500 1.972800
14.174500 1.807600
14.193600 1.723100
14.212700 1.653800
14.231800 1.640800
14.250900 1.775100
14.270000 2.056500
14.289000 2.334700
14.308100 2.445800
14.327200 2.390200
14.346300 2.296800
14.365400 2.239300
14.384500 2.181800
14.403500 2.085300
14.422600 1.975200
14.441700 1.912900
14.460800 1.975300
14.479900 2.236500
14.499000 2.674600
14.518000 3.104200
14.537100 3.301600
14.556200 3.209000
14.575300 2.949700
14.594400 2.676800
14.613500 2.491300
14.632500 2.443500
14.651600 2.519300
14.670700 2.645600
14.689800 2.735100
14.708900 2.696300
14.728000 2.459900
14.747100 2.080300
14.766100 1.750300
14.785200 1.632000
14.804300 1.701000
14.823400 1.788400
14.842500 1.750700
14.861600 1.606200
14.880600 1.529300
14.899700 1.690200
14.918800 2.083300
14.937900 2.545400
14.957000 2.929200
14.976100 3.174700
14.995100 3.225400
15.014200 3.036600
15.033300 2.710900
15.052400 2.472400
15.071500 2.445400
15.090600 2.566700
15.109600 2.739400
15.128700 2.950900
15.147800 3.207800
15.166900 3.471600
15.186000 3.703700
15.205100 3.876200
15.224100 3.913600
15.243200 3.739500
15.262300 3.414700
15.281400 3.135300
15.300500 3.055600
15.319600 3.152500
15.338600 3.257000
15.357700 3.193300
15.376800 2.907500
15.395900 2.499500
15.415000 2.146500
15.434100 1.979500
15.453100 2.012800
15.472200 2.175800
15.491300 2.395900
15.510400 2.635000
15.529500 2.849500
15.548600 2.960200
15.567700 2.911200
15.586700 2.740300
15.605800 2.553500
15.624900 2.447200
15.644000 2.465700
15.663100 2.569900
15.682200 2.634700
15.701200 2.561000
15.720300 2.402200
15.739400 2.307100
15.758500 2.346400
15.777600 2.466900
15.796700 2.578200
15.815700 2.607200
15.834800 2.506600
15.853900 2.284000
15.873000 2.015600
15.892100 1.808100
15.911200 1.745400
15.930200 1.836500
15.949300 1.996600
15.968400 2.120000
15.987500 2.191800
16.006600 2.306800
16.025700 2.555800
16.044700 2.893900
16.063800 3.150700
16.082900 3.195200
16.102000 3.059800
16.121100 2.873800
16.140200 2.725700
16.159200 2.622800
16.178300 2.540500
16.197400 2.471800
16.216500 2.450900
16.235600 2.560600
16.254700 2.900200
16.273700 3.484700
16.292800 4.148100
16.311900 4.608600
16.331000 4.670000
16.350100 4.341600
16.369200 3.808000
16.388300 3.309000
16.407300 2.970900
16.426400 2.742500
16.445500 2.559600
16.464600 2.517800
16.483700 2.773900
16.502800 3.287900
16.521800 3.760900
16.540900 3.884000
16.560000 3.615900
16.579100 3.164900
16.598200 2.747500
16.617300 2.462200
16.636300 2.362200
16.655400 2.492700
16.674500 2.806300
16.693600 3.138600
16.712700 3.320300
16.731800 3.285500
16.750800 3.077600
16.769900 2.799600
16.789000 2.578300
16.808100 2.552400
16.827200 2.849600
16.846300 3.482100
16.865300 4.207500
16.884400 4.605700
16.903500 4.419000
16.922600 3.773800
16.941700 3.030000
16.960800 2.510200
16.979800 2.371700
16.998900 2.576700
17.018000 2.912600
17.037100 3.114700
17.056200 3.030900
17.075300 2.718400
17.094300 2.396000
17.113400 2.244300
17.132500 2.245200
17.151600 2.264100
17.170700 2.242500
17.189800 2.222400
17.208900 2.224200
17.227900 2.213100
17.247000 2.187600
17.266100 2.194600
17.285200 2.247600
17.304300 2.316200
17.323400 2.389700
17.342400 2.494100
17.361500 2.680000
17.380600 2.992200
17.399700 3.379000
17.418800 3.640800
17.437900 3.540500
17.456900 3.010300
17.476000 2.263900
17.495100 1.675700
17.514200 1.512200
17.533300 1.769700
17.552400 2.233300
17.571400 2.644300
17.590500 2.825600
17.609600 2.742500
17.628700 2.535700
17.647800 2.452600
17.666900 2.648100
17.685900 3.045200
17.705000 3.419400
17.724100 3.598700
17.743200 3.571100
17.762300 3.436700
17.781400 3.290000
17.800400 3.143700
17.819500 2.970800
17.838600 2.814200
17.857700 2.767200
17.876800 2.818800
17.895900 2.831700
17.914900 2.713500
17.934000 2.527900
17.953100 2.408100
17.972200 2.412500
17.991300 2.496400
18.010400 2.601000
18.029500 2.707700
18.048500 2.784600
18.067600 2.745000
18.086700 2.531500
18.105800 2.214000
18.124900 1.946200
18.144000 1.837700
18.163000 1.889400
18.182100 2.022500
18.201200 2.158400
18.220300 2.290800
18.239400 2.477700
18.258500 2.748600
18.277500 3.028100
18.296600 3.162600
18.315700 3.033500
18.334800 2.678200
18.353900 2.300400
18.373000 2.118200
18.392000 2.173200
18.411100 2.307400
18.430200 2.356700
18.449300 2.355700
18.468400 2.484900
18.487500 2.800800
18.506500 3.112300
18.525600 3.192500
18.544700 3.035400
18.563800 2.808200
18.582900 2.610000
18.602000 2.393500
18.621000 2.109600
18.640100 1.824700
18.659200 1.664000
18.678300 1.699000
18.697400 1.919200
18.716500 2.275100
18.735500 2.708300
18.754600 3.136700
18.773700 3.447900
18.792800 3.548300
18.811900 3.424800
18.831000 3.152500
18.850100 2.834500
18.869100 2.535400
18.888200 2.273200
18.907300 2.050100
18.926400 1.880100
18.945500 1.801700
18.964600 1.861700
18.983600 2.079000
19.002700 2.402300
19.021800 2.693300
19.040900 2.819700
19.060000 2.803000
19.079100 2.798200
19.098100 2.909600
19.117200 3.116000
19.136300 3.341700
19.155400 3.489500
19.174500 3.459000
19.193600 3.233100
19.212600 2.942800
19.231700 2.800700
19.250800 2.927600
19.269900 3.240700
19.289000 3.557900
19.308100 3.785700
19.327100 3.939400
19.346200 4.018200
19.365300 3.949900
19.384400 3.683700
19.403500 3.322900
19.422600 3.112100
19.441600 3.212100
19.460700 3.515200
19.479800 3.765900
19.498900 3.831400
19.518000 3.776900
19.537100 3.710600
19.556100 3.656900
19.575200 3.588700
19.594300 3.498800
19.613400 3.391300
19.632500 3.238600
19.651600 3.001300
19.670700 2.689600
19.689700 2.364800
19.708800 2.077500
19.727900 1.855700
19.747000 1.741400
19.766100 1.765800
19.785200 1.880700
19.804200 1.980900
19.823300 2.006400
19.842400 1.987500
19.861500 1.999700
19.880600 2.106500
19.899700 2.298300
19.918700 2.449400
19.937800 2.409900
19.956900 2.190900
19.976000 2.004800
19.995100 2.079400
20.014200 2.434600
20.033200 2.842900
20.052300 3.012900
20.071400 2.818500
20.090500 2.371400
20.109600 1.935600
20.128700 1.780800
20.147700 2.009100
20.166800 2.467000
20.185900 2.902600
20.205000 3.199300
20.224100 3.358500
20.243200 3.334500
20.262200 3.050000
20.281300 2.543100
20.300400 1.992300
20.319500 1.592700
20.338600 1.427200
20.357700 1.458800
20.376700 1.650700
20.395800 2.020600
20.414900 2.533900
20.434000 3.059500
20.453100 3.488500
20.472200 3.770200
20.491300 3.827400
20.510300 3.578000
20.529400 3.050700
20.548500 2.408000
20.567600 1.850000
20.586700 1.508400
20.605800 1.419300
20.624800 1.548700
20.643900 1.815000
20.663000 2.124600
20.682100 2.402800
20.701200 2.589600
20.720300 2.674200
20.739300 2.763300
20.758400 3.030600
20.777500 3.533200
20.796600 4.115400
20.815700 4.530400
20.834800 4.645000
20.853800 4.518200
20.872900 4.298300
20.892000 4.062200
20.911100 3.806000
20.930200 3.607700
20.949300 3.658900
20.968300 4.024100
20.987400 4.461600
21.006500 4.606100
21.025600 4.299700
21.044700 3.691100
21.063800 3.060000
21.082800 2.624600
21.101900 2.485100
21.121000 2.642600
21.140100 3.029500
21.159200 3.537900
21.178300 4.027000
21.197300 4.355000
21.216400 4.460000
21.235500 4.394200
21.254600 4.247000
21.273700 4.049000
21.292800 3.782200
21.311900 3.484300
21.330900 3.266200
21.350000 3.160000
21.369100 3.021600
21.388200 2.687500
21.407300 2.204300
21.426400 1.842600
21.445400 1.882100
21.464500 2.362700
21.483600 3.020100
21.502700 3.484500
21.521800 3.579900
21.540900 3.432500
21.559900 3.288400
21.579000 3.272400
21.598100 3.361700
21.617200 3.518500
21.636300 3.742100
21.655400 4.014200
21.674400 4.262900
21.693500 4.401900
21.712600 4.377200
21.731700 4.148700
21.750800 3.680700
21.769900 3.029500
21.788900 2.393700
21.808000 1.996300
21.827100 1.925500
21.846200 2.105600
21.865300 2.375900
21.884400 2.587800
21.903400 2.681000
21.922500 2.695800
21.941600 2.693200
21.960700 2.672900
21.979800 2.599500
21.998900 2.509500
22.017900 2.550200
22.037000 2.834600
22.056100 3.235200
22.075200 3.439700
22.094300 3.302000
22.113400 3.039600
22.132500 2.963300
22.151500 3.107000
22.170600 3.292500
22.189700 3.462300
22.208800 3.701800
22.227900 3.987700
22.247000 4.175700
22.266000 4.218100
22.285100 4.195500
22.304200 4.141300
22.323300 3.993700
22.342400 3.751300
22.361500 3.550600
22.380500 3.512500
22.399600 3.583300
22.418700 3.607500
22.437800 3.516400
22.456900 3.360800
22.476000 3.196000
22.495000 3.020400
22.514100 2.797000
22.533200 2.497800
22.552300 2.167900
22.571400 1.928100
22.590500 1.883500
22.609500 2.069800
22.628600 2.487400
22.647700 3.074300
22.666800 3.607900
22.685900 3.777800
22.705000 3.464900
22.724000 2.883100
22.743100 2.375800
22.762200 2.127300
22.781300 2.106300
22.800400 2.204900
22.819500 2.358700
22.838500 2.545300
22.857600 2.737700
22.876700 2.907200
22.895800 3.041400
22.914900 3.122700
22.934000 3.119800
22.953100 3.032000
22.972100 2.926000
22.991200 2.881900
23.010300 2.893400
23.029400 2.859000
23.048500 2.673800
23.067600 2.322600
23.086600 1.910000
23.105700 1.600700
23.124800 1.507600
23.143900 1.644300
23.163000 1.939300
23.182100 2.225800
23.201100 2.290900
23.220200 2.056200
23.239300 1.678600
23.258400 1.417800
23.277500 1.441400
23.296600 1.742600
23.315600 2.146500
23.334700 2.398400
23.353800 2.340500
23.372900 2.026000
23.392000 1.638000
23.411100 1.328800
23.430100 1.156000
23.449200 1.104400
23.468300 1.119000
23.487400 1.151700
23.506500 1.194400
23.525600 1.250800
23.544600 1.309100
23.563700 1.361400
23.582800 1.400500
23.601900 1.387000
23.621000 1.280600
23.640100 1.128600
23.659100 1.066200
23.678200 1.186500
23.697300 1.431800
23.716400 1.641300
23.735500 1.671600
23.754600 1.470300
23.773700 1.101700
23.792700 0.719700
23.811800 0.465300
23.830900 0.370500
23.850000 0.376300
23.869100 0.418600
23.888200 0.478100
23.907200 0.562200
23.926300 0.659800
23.945400 0.723800
23.964500 0.706000
23.983600 0.605000
24.002700 0.468800
24.021700 0.355500
24.040800 0.295200
24.059900 0.279300
24.079000 0.284800
24.098100 0.303400
24.117200 0.334800
24.136200 0.357200
24.155300 0.334800
24.174400 0.258800
24.193500 0.162300
24.212600 0.091800
24.231700 0.075000
24.250700 0.113900
24.269800 0.186000
24.288900 0.246800
24.308000 0.253700
24.327100 0.202100
24.346200 0.131100
24.365200 0.089200
24.384300 0.098800
24.403400 0.148100
24.422500 0.204400
24.441600 0.240700
24.460700 0.251700
24.479700 0.240500
24.498800 0.204800
24.517900 0.152000
24.537000 0.110200
24.556100 0.107500
24.575200 0.141100
24.594300 0.175100
24.613300 0.172400
24.632400 0.129500
24.651500 0.075700
24.670600 0.043500
24.689700 0.051700
24.708800 0.108000
24.727800 0.205600
24.746900 0.309500
24.766000 0.369800
24.785100 0.367300
24.804200 0.331600
24.823300 0.302500
24.842300 0.290100
24.861400 0.281000
24.880500 0.258000
24.899600 0.210200
24.918700 0.142900
24.937800 0.078300
24.956800 0.038100
24.975900 0.031000
24.995000 0.057000
25.014100 0.108000
25.033200 0.159600
25.052300 0.178100
25.071300 0.150000
25.090400 0.096800
25.109500 0.053400
25.128600 0.040200
25.147700 0.057500
25.166800 0.093900
25.185800 0.136000
25.204900 0.177300
25.224000 0.217400
25.243100 0.248600
25.262200 0.250800
25.281300 0.210300
25.300300 0.141000
25.319400 0.074900
25.338500 0.036100
25.357600 0.031700
25.376700 0.060300
25.395800 0.112600
25.414900 0.162700
25.433900 0.177400
25.453000 0.145600
25.472100 0.090000
25.491200 0.041800
25.510300 0.014900
25.529400 0.005500
25.548400 0.007400
25.567500 0.019500
25.586600 0.042700
25.605700 0.070700
25.624800 0.088200
25.643900 0.082900
25.662900 0.059200
25.682000 0.034500
25.701100 0.024100
25.720200 0.033400
25.739300 0.057600
25.758400 0.081900
25.777400 0.088600
25.796500 0.072200
25.815600 0.044300
25.834700 0.020400
25.853800 0.007100
25.872900 0.001900
25.891900 0.000400
25.911000 0.000100
25.930100 0.000000
25.949200 0.000200
25.968300 0.001000
25.987400 0.003700
26.006400 0.010500
26.025500 0.022600
26.044600 0.036500
26.063700 0.044500
26.082800 0.041100
26.101900 0.030100
26.120900 0.021600
26.140000 0.022800
26.159100 0.032800
26.178200 0.042800
26.197300 0.043600
26.216400 0.033600
26.235500 0.019500
26.254500 0.008500
26.273600 0.002800
26.292700 0.000700
26.311800 0.000100
26.330900 0.000000
26.350000 0.000000
26.369000 0.000000
26.388100 0.000000
26.407200 0.000000
26.426300 0.000000
26.445400 0.000000
26.464500 0.000000
26.483500 0.000000
26.502600 0.000000
26.521700 0.000000
26.540800 0.000000
26.559900 0.000000
26.579000 0.000000
26.598000 0.000000
26.617100 0.000000
26.636200 0.000000
26.655300 0.000000
26.674400 0.000000
26.693500 0.000000
26.712500 0.000000
26.731600 0.000000
26.750700 0.000000
26.769800 0.000000
26.788900 0.000000
26.808000 0.000000
26.827000 0.000000
26.846100 0.000000
26.865200 0.000000
26.884300 0.000000
26.903400 0.000000
26.922500 0.000000
26.941500 0.000000
26.960600 0.000000
26.979700 0.000000
26.998800 0.000000
27.017900 0.000000
27.037000 0.000000
27.056100 0.000000
27.075100 0.000000
27.094200 0.000000
27.113300 0.000000
27.132400 0.000000
27.151500 0.000000
27.170600 0.000000
27.189600 0.000000
27.208700 0.000000
27.227800 0.000000
27.246900 0.000000
27.266000 0.000000
27.285100 0.000000
27.304100 0.000000
27.323200 0.000000
27.342300 0.000000
27.361400 0.000000
27.380500 0.000000
27.399600 0.000000
27.418600 0.000000
27.437700 0.000000
27.456800 0.000000
27.475900 0.000000
27.495000 0.000000
27.514100 0.000000
27.533100 0.000000
27.552200 0.000000
27.571300 0.000000
27.590400 0.000000
27.609500 0.000000
27.628600 0.000000
27.647600 0.000000
27.666700 0.000000
27.685800 0.000000
27.704900 0.000000
27.724000 0.000000
27.743100 0.000000
27.762100 0.000000
27.781200 0.000000
27.800300 0.000000
27.819400 0.000000
27.838500 0.000000
27.857600 0.000000
27.876700 0.000000
27.895700 0.000000
27.914800 0.000000
e
