set title 'mp-1206375 - Density of States'
set xlabel 'Energy (eV)'
set ylabel 'DOS (states/eV)'
set grid
set xrange [-10:10]
set yrange [0:4.484]
set xzeroaxis lt -1
set terminal png size 800,600
set output 'mp-1206375_dos_gnuplot.png'
plot '-' using 1:2 with lines title 'DOS'
-25.945700 0.000000
-25.908800 0.000000
-25.871900 0.000000
-25.835000 0.000000
-25.798100 0.000000
-25.761100 0.000000
-25.724200 0.000000
-25.687300 0.000000
-25.650400 0.000000
-25.613500 0.000000
-25.576500 0.000000
-25.539600 0.000000
-25.502700 0.000000
-25.465800 0.000000
-25.428900 0.000000
-25.392000 0.000000
-25.355000 0.000000
-25.318100 0.000000
-25.281200 0.000000
-25.244300 0.000000
-25.207400 0.000000
-25.170400 0.000000
-25.133500 0.000000
-25.096600 0.000000
-25.059700 0.000000
-25.022800 0.000000
-24.985800 0.000000
-24.948900 0.000000
-24.912000 0.000000
-24.875100 0.000000
-24.838200 0.000000
-24.801300 0.000000
-24.764300 0.000000
-24.727400 0.000000
-24.690500 0.000000
-24.653600 0.000000
-24.616700 0.000000
-24.579700 0.000000
-24.542800 0.000000
-24.505900 0.000000
-24.469000 0.000000
-24.432100 0.000000
-24.395200 0.000000
-24.358200 0.000000
-24.321300 0.000000
-24.284400 0.000000
-24.247500 0.000000
-24.210600 0.000000
-24.173600 0.000000
-24.136700 0.000000
-24.099800 0.000000
-24.062900 0.000000
-24.026000 0.000000
-23.989000 0.000000
-23.952100 0.000000
-23.915200 0.000000
-23.878300 0.000000
-23.841400 0.000000
-23.804500 0.000000
-23.767500 0.000000
-23.730600 0.000000
-23.693700 0.000000
-23.656800 0.000000
-23.619900 0.000000
-23.582900 0.000000
-23.546000 0.000000
-23.509100 0.000000
-23.472200 0.000000
-23.435300 0.000000
-23.398300 0.000000
-23.361400 0.000000
-23.324500 0.000000
-23.287600 0.000000
-23.250700 0.000000
-23.213800 0.000000
-23.176800 0.000000
-23.139900 0.000000
-23.103000 0.000000
-23.066100 0.000000
-23.029200 0.000000
-22.992200 0.000000
-22.955300 0.000000
-22.918400 0.000000
-22.881500 0.000000
-22.844600 0.000000
-22.807700 0.000000
-22.770700 0.000000
-22.733800 0.000000
-22.696900 0.000000
-22.660000 0.000000
-22.623100 0.000000
-22.586100 8.044700
-22.549200 30.427600
-22.512300 25.135200
-22.475400 24.236300
-22.438500 8.199600
-22.401500 10.244500
-22.364600 15.676000
-22.327700 19.026900
-22.290800 15.226900
-22.253900 0.000000
-22.217000 0.000000
-22.180000 0.000000
-22.143100 0.000000
-22.106200 0.000000
-22.069300 0.000000
-22.032400 0.000000
-21.995400 0.000000
-21.958500 0.000000
-21.921600 0.000000
-21.884700 0.000000
-21.847800 0.000000
-21.810800 0.000000
-21.773900 0.000000
-21.737000 0.000000
-21.700100 0.000000
-21.663200 0.000000
-21.626300 0.000000
-21.589300 0.000000
-21.552400 0.000000
-21.515500 0.000000
-21.478600 0.000000
-21.441700 0.000000
-21.404700 0.000000
-21.367800 0.000000
-21.330900 0.000000
-21.294000 0.000000
-21.257100 0.000000
-21.220200 0.000000
-21.183200 0.000000
-21.146300 0.000000
-21.109400 0.000000
-21.072500 0.000000
-21.035600 0.000000
-20.998600 0.000000
-20.961700 0.000000
-20.924800 0.000000
-20.887900 0.000000
-20.851000 0.000000
-20.814000 0.000000
-20.777100 0.000000
-20.740200 0.000000
-20.703300 0.000000
-20.666400 0.000000
-20.629500 0.000000
-20.592500 0.000000
-20.555600 0.000000
-20.518700 0.000000
-20.481800 0.000000
-20.444900 0.000000
-20.407900 0.000000
-20.371000 0.000000
-20.334100 0.000000
-20.297200 0.000000
-20.260300 0.000000
-20.223300 0.000000
-20.186400 0.000000
-20.149500 0.000000
-20.112600 0.000000
-20.075700 0.000000
-20.038800 0.000000
-20.001800 0.000000
-19.964900 0.000000
-19.928000 0.000000
-19.891100 0.000000
-19.854200 0.000000
-19.817200 0.000000
-19.780300 0.000000
-19.743400 0.000000
-19.706500 0.000000
-19.669600 0.000000
-19.632700 0.000000
-19.595700 0.000000
-19.558800 0.000000
-19.521900 0.000000
-19.485000 0.000000
-19.448100 0.000000
-19.411100 0.000000
-19.374200 0.000000
-19.337300 0.000000
-19.300400 0.000000
-19.263500 0.000000
-19.226500 0.000000
-19.189600 0.000000
-19.152700 0.000000
-19.115800 0.000000
-19.078900 0.000000
-19.042000 0.000000
-19.005000 0.000000
-18.968100 0.000000
-18.931200 0.000000
-18.894300 0.000000
-18.857400 0.000000
-18.820400 0.000000
-18.783500 0.000000
-18.746600 0.000000
-18.709700 0.000000
-18.672800 0.000000
-18.635800 0.000000
-18.598900 0.000000
-18.562000 0.000000
-18.525100 0.000000
-18.488200 0.000000
-18.451300 0.000000
-18.414300 0.000000
-18.377400 0.000000
-18.340500 0.000000
-18.303600 0.000000
-18.266700 0.000000
-18.229700 0.000000
-18.192800 0.000000
-18.155900 0.000000
-18.119000 0.000000
-18.082100 0.000000
-18.045200 0.000000
-18.008200 0.000000
-17.971300 0.000000
-17.934400 0.000000
-17.897500 0.000000
-17.860600 0.000000
-17.823600 0.000000
-17.786700 0.000000
-17.749800 0.000000
-17.712900 0.000000
-17.676000 0.000000
-17.639000 0.000000
-17.602100 0.000000
-17.565200 0.000000
-17.528300 0.000000
-17.491400 0.000000
-17.454500 0.000000
-17.417500 0.000000
-17.380600 0.000000
-17.343700 0.000000
-17.306800 0.000000
-17.269900 0.000000
-17.232900 0.000000
-17.196000 0.000000
-17.159100 0.000000
-17.122200 0.000000
-17.085300 0.000000
-17.048300 0.000000
-17.011400 0.000000
-16.974500 0.000000
-16.937600 0.000000
-16.900700 0.000000
-16.863800 0.000000
-16.826800 0.000000
-16.789900 0.000000
-16.753000 0.000000
-16.716100 0.000000
-16.679200 0.000000
-16.642200 0.000000
-16.605300 0.000000
-16.568400 0.000000
-16.531500 0.000000
-16.494600 0.000000
-16.457700 0.000000
-16.420700 0.000000
-16.383800 0.000000
-16.346900 0.000000
-16.310000 0.000000
-16.273100 0.000000
-16.236100 0.000000
-16.199200 0.000000
-16.162300 0.000000
-16.125400 0.000000
-16.088500 0.000000
-16.051500 0.000000
-16.014600 0.000000
-15.977700 0.000000
-15.940800 0.000000
-15.903900 0.000000
-15.867000 0.000000
-15.830000 0.000000
-15.793100 0.000000
-15.756200 0.000000
-15.719300 0.000000
-15.682400 0.000000
-15.645400 0.000000
-15.608500 0.000000
-15.571600 0.000000
-15.534700 0.000000
-15.497800 0.000000
-15.460800 0.000000
-15.423900 0.000000
-15.387000 0.000000
-15.350100 0.000000
-15.313200 0.000000
-15.276300 0.000000
-15.239300 0.000000
-15.202400 0.000000
-15.165500 0.000000
-15.128600 0.000000
-15.091700 0.000000
-15.054700 0.000000
-15.017800 0.000000
-14.980900 0.000000
-14.944000 0.000000
-14.907100 0.000000
-14.870200 0.000000
-14.833200 0.000000
-14.796300 0.000000
-14.759400 0.000000
-14.722500 0.000000
-14.685600 0.000000
-14.648600 0.000000
-14.611700 0.000000
-14.574800 0.000000
-14.537900 0.000000
-14.501000 0.000000
-14.464000 0.000000
-14.427100 0.000000
-14.390200 0.000000
-14.353300 0.000000
-14.316400 0.000000
-14.279500 0.000000
-14.242500 0.000000
-14.205600 0.000000
-14.168700 0.000000
-14.131800 0.000000
-14.094900 0.000000
-14.057900 0.000000
-14.021000 0.000000
-13.984100 0.000000
-13.947200 0.000000
-13.910300 0.000000
-13.873300 0.000000
-13.836400 0.000000
-13.799500 0.000000
-13.762600 0.000000
-13.725700 0.000000
-13.688800 0.000000
-13.651800 0.000000
-13.614900 0.000000
-13.578000 0.000000
-13.541100 0.000000
-13.504200 0.000000
-13.467200 0.000000
-13.430300 0.000000
-13.393400 0.000000
-13.356500 0.000000
-13.319600 0.000000
-13.282700 0.000000
-13.245700 0.000000
-13.208800 0.000000
-13.171900 0.000000
-13.135000 0.000000
-13.098100 0.000000
-13.061100 0.000000
-13.024200 0.000000
-12.987300 0.000000
-12.950400 0.000000
-12.913500 0.000000
-12.876500 0.000000
-12.839600 0.000000
-12.802700 0.000000
-12.765800 0.000000
-12.728900 0.000000
-12.692000 0.000000
-12.655000 0.000000
-12.618100 0.000000
-12.581200 0.000000
-12.544300 0.000000
-12.507400 0.000000
-12.470400 0.000000
-12.433500 0.000000
-12.396600 0.000000
-12.359700 0.000000
-12.322800 0.000000
-12.285800 0.000000
-12.248900 0.000000
-12.212000 0.000000
-12.175100 0.000000
-12.138200 0.000000
-12.101300 0.000000
-12.064300 0.000000
-12.027400 0.000000
-11.990500 0.000000
-11.953600 0.000000
-11.916700 0.000000
-11.879700 0.000000
-11.842800 0.000000
-11.805900 0.000000
-11.769000 0.000000
-11.732100 0.000000
-11.695200 0.000000
-11.658200 0.000000
-11.621300 0.000000
-11.584400 0.000000
-11.547500 0.000000
-11.510600 0.000000
-11.473600 0.000000
-11.436700 0.000000
-11.399800 0.000000
-11.362900 0.000000
-11.326000 0.000000
-11.289000 0.000000
-11.252100 0.000000
-11.215200 0.000000
-11.178300 0.000000
-11.141400 0.000000
-11.104500 0.000000
-11.067500 0.000000
-11.030600 0.000000
-10.993700 0.000000
-10.956800 0.000000
-10.919900 0.000000
-10.882900 0.000000
-10.846000 0.000000
-10.809100 0.000000
-10.772200 0.000000
-10.735300 0.000000
-10.698300 0.000000
-10.661400 0.000000
-10.624500 0.000000
-10.587600 0.000000
-10.550700 0.000000
-10.513800 0.000000
-10.476800 0.000000
-10.439900 0.000000
-10.403000 0.000000
-10.366100 0.000000
-10.329200 0.000000
-10.292200 0.000000
-10.255300 0.000000
-10.218400 0.000000
-10.181500 0.000000
-10.144600 0.000000
-10.107700 0.000000
-10.070700 0.000000
-10.033800 0.000000
-9.996900 0.000000
-9.960000 0.000000
-9.923100 0.000000
-9.886100 0.000000
-9.849200 0.000000
-9.812300 0.000000
-9.775400 0.000000
-9.738500 0.000000
-9.701500 0.000000
-9.664600 0.000000
-9.627700 0.000000
-9.590800 0.000000
-9.553900 0.000000
-9.517000 0.000000
-9.480000 0.000000
-9.443100 0.000000
-9.406200 0.000000
-9.369300 0.000000
-9.332400 0.000000
-9.295400 0.000000
-9.258500 0.000000
-9.221600 0.000000
-9.184700 0.000000
-9.147800 0.000000
-9.110800 0.000000
-9.073900 0.000000
-9.037000 0.000000
-9.000100 0.000000
-8.963200 0.000000
-8.926300 0.000000
-8.889300 0.000000
-8.852400 0.000000
-8.815500 0.000000
-8.778600 0.000000
-8.741700 0.000000
-8.704700 0.000000
-8.667800 0.000000
-8.630900 0.000000
-8.594000 0.000000
-8.557100 0.000000
-8.520200 0.000000
-8.483200 0.000000
-8.446300 0.000000
-8.409400 0.000000
-8.372500 0.000000
-8.335600 0.000000
-8.298600 0.000000
-8.261700 0.000000
-8.224800 0.000000
-8.187900 0.000000
-8.151000 0.000000
-8.114000 0.000000
-8.077100 0.000000
-8.040200 0.000000
-8.003300 0.000000
-7.966400 0.000000
-7.929500 0.000000
-7.892500 0.000000
-7.855600 0.000000
-7.818700 0.000000
-7.781800 0.000000
-7.744900 0.000000
-7.707900 0.000000
-7.671000 0.000000
-7.634100 0.000000
-7.597200 0.000000
-7.560300 0.000000
-7.523300 0.000000
-7.486400 0.000000
-7.449500 0.000000
-7.412600 0.000000
-7.375700 0.000000
-7.338800 0.000000
-7.301800 0.000000
-7.264900 0.000000
-7.228000 0.000000
-7.191100 0.000000
-7.154200 0.000000
-7.117200 0.000000
-7.080300 0.000000
-7.043400 0.000000
-7.006500 0.000000
-6.969600 0.000000
-6.932700 0.000000
-6.895700 0.000000
-6.858800 0.000000
-6.821900 0.000000
-6.785000 0.000000
-6.748100 0.000000
-6.711100 0.000000
-6.674200 0.000000
-6.637300 0.000000
-6.600400 0.000000
-6.563500 0.000000
-6.526500 0.000000
-6.489600 0.000000
-6.452700 0.000000
-6.415800 0.000000
-6.378900 0.000000
-6.342000 0.000000
-6.305000 0.000000
-6.268100 0.000000
-6.231200 0.000000
-6.194300 0.000000
-6.157400 0.000000
-6.120400 0.004400
-6.083500 0.038000
-6.046600 0.087700
-6.009700 0.125500
-5.972800 0.133700
-5.935800 0.154500
-5.898900 0.173700
-5.862000 0.197400
-5.825100 0.222300
-5.788200 0.247700
-5.751300 0.270900
-5.714300 0.296500
-5.677400 0.335000
-5.640500 0.374400
-5.603600 0.400500
-5.566700 0.383500
-5.529700 0.384900
-5.492800 0.393500
-5.455900 0.401600
-5.419000 0.408900
-5.382100 0.414100
-5.345200 0.415300
-5.308200 0.414300
-5.271300 0.414000
-5.234400 0.415600
-5.197500 0.420200
-5.160600 0.425500
-5.123600 0.430900
-5.086700 0.436200
-5.049800 0.441500
-5.012900 0.446800
-4.976000 0.451500
-4.939000 0.456100
-4.902100 0.458600
-4.865200 0.462600
-4.828300 0.467300
-4.791400 0.472700
-4.754500 0.478400
-4.717500 0.484500
-4.680600 0.491200
-4.643700 0.498100
-4.606800 0.505100
-4.569900 0.512400
-4.532900 0.519800
-4.496000 0.527500
-4.459100 0.535200
-4.422200 0.543100
-4.385300 0.551100
-4.348300 0.560100
-4.311400 0.571300
-4.274500 0.583200
-4.237600 0.596000
-4.200700 0.609900
-4.163800 0.624700
-4.126800 0.640200
-4.089900 0.656800
-4.053000 0.675100
-4.016100 0.694900
-3.979200 0.716000
-3.942200 0.738600
-3.905300 0.763000
-3.868400 0.789300
-3.831500 0.821300
-3.794600 0.898400
-3.757700 1.037800
-3.720700 1.120100
-3.683800 1.134500
-3.646900 1.126600
-3.610000 1.139300
-3.573100 1.157400
-3.536100 1.178200
-3.499200 1.197900
-3.462300 1.197900
-3.425400 1.237600
-3.388500 1.342100
-3.351500 1.255600
-3.314600 1.054900
-3.277700 0.941500
-3.240800 0.892600
-3.203900 0.969100
-3.167000 1.026000
-3.130000 1.034300
-3.093100 1.031200
-3.056200 1.088400
-3.019300 1.106100
-2.982400 1.113900
-2.945400 1.132200
-2.908500 1.170300
-2.871600 1.241600
-2.834700 1.318500
-2.797800 1.429800
-2.760800 2.283700
-2.723900 3.886600
-2.687000 3.334300
-2.650100 2.921700
-2.613200 2.882600
-2.576300 2.992900
-2.539300 3.273000
-2.502400 3.509500
-2.465500 3.568900
-2.428600 4.076600
-2.391700 3.577100
-2.354700 3.371100
-2.317800 3.321600
-2.280900 3.255800
-2.244000 3.202000
-2.207100 3.284500
-2.170200 2.971700
-2.133200 2.437500
-2.096300 2.256900
-2.059400 1.958100
-2.022500 1.807400
-1.985600 1.729300
-1.948600 1.783300
-1.911700 1.666700
-1.874800 0.891200
-1.837900 0.898200
-1.801000 0.909800
-1.764000 0.924000
-1.727100 0.934600
-1.690200 0.950500
-1.653300 0.951400
-1.616400 0.956700
-1.579500 0.963700
-1.542500 0.978500
-1.505600 0.997100
-1.468700 1.020800
-1.431800 1.107900
-1.394900 1.325300
-1.357900 1.421000
-1.321000 1.389600
-1.284100 1.161600
-1.247200 1.092400
-1.210300 1.055600
-1.173300 1.044200
-1.136400 1.025900
-1.099500 0.974600
-1.062600 0.911500
-1.025700 0.818300
-0.988800 0.684100
-0.951800 0.546000
-0.914900 0.414200
-0.878000 0.337200
-0.841100 0.278000
-0.804200 0.252000
-0.767200 0.247500
-0.730300 0.242900
-0.693400 0.238400
-0.656500 0.233800
-0.619600 0.229300
-0.582700 0.223800
-0.545700 0.217000
-0.508800 0.209500
-0.471900 0.201400
-0.435000 0.192700
-0.398100 0.183000
-0.361100 0.173600
-0.324200 0.166300
-0.287300 0.160000
-0.250400 0.154600
-0.213500 0.150000
-0.176500 0.146900
-0.139600 0.144100
-0.102700 0.141300
-0.065800 0.138500
-0.028900 0.135700
0.008000 0.132900
0.045000 0.130100
0.081900 0.127300
0.118800 0.124500
0.155700 0.121700
0.192600 0.118900
0.229600 0.116100
0.266500 0.113300
0.303400 0.111000
0.340300 0.109900
0.377200 0.106400
0.414200 0.102100
0.451100 0.097100
0.488000 0.091700
0.524900 0.085100
0.561800 0.078600
0.598700 0.072000
0.635700 0.065500
0.672600 0.058900
0.709500 0.052400
0.746400 0.045800
0.783300 0.039300
0.820300 0.032700
0.857200 0.026200
0.894100 0.092600
0.931000 0.146000
0.967900 0.210400
1.004800 0.224100
1.041800 0.275400
1.078700 0.331600
1.115600 0.359400
1.152500 0.391800
1.189400 0.435900
1.226400 0.484100
1.263300 0.521500
1.300200 0.564200
1.337100 0.610500
1.374000 0.706900
1.411000 0.828800
1.447900 0.867900
1.484800 0.868400
1.521700 0.879400
1.558600 0.838900
1.595500 0.827000
1.632500 0.815100
1.669400 0.801200
1.706300 0.792100
1.743200 0.792200
1.780100 0.795100
1.817100 0.780100
1.854000 0.772100
1.890900 0.771600
1.927800 0.772400
1.964700 0.776800
2.001600 0.811700
2.038600 0.826500
2.075500 0.826800
2.112400 0.841200
2.149300 0.854900
2.186200 0.866500
2.223200 0.878700
2.260100 0.892000
2.297000 0.901700
2.333900 0.918800
2.370800 0.937500
2.407800 0.955700
2.444700 0.974100
2.481600 0.991700
2.518500 1.028000
2.555400 1.156900
2.592300 1.332700
2.629300 1.495500
2.666200 1.637900
2.703100 1.742100
2.740000 1.715600
2.776900 1.788100
2.813900 1.851600
2.850800 1.921000
2.887700 1.985200
2.924600 2.083600
2.961500 1.961500
2.998500 1.665100
3.035400 1.364600
3.072300 1.197000
3.109200 1.128700
3.146100 1.082200
3.183000 1.102100
3.220000 1.245600
3.256900 1.566100
3.293800 1.772100
3.330700 1.767700
3.367600 1.874700
3.404600 1.568200
3.441500 1.302000
3.478400 1.340900
3.515300 1.412300
3.552200 1.499600
3.589100 1.580900
3.626100 1.687000
3.663000 1.800800
3.699900 1.915500
3.736800 2.001100
3.773700 2.004300
3.810700 1.941500
3.847600 1.835000
3.884500 1.882000
3.921400 1.453800
3.958300 1.289200
3.995300 1.298500
4.032200 1.395700
4.069100 1.589900
4.106000 1.806100
4.142900 1.779100
4.179800 1.786600
4.216800 1.817600
4.253700 1.838900
4.290600 1.800800
4.327500 1.714800
4.364400 1.727400
4.401400 1.704500
4.438300 1.710900
4.475200 1.783500
4.512100 2.005000
4.549000 2.187100
4.586000 2.246200
4.622900 2.406700
4.659800 2.563100
4.696700 2.701900
4.733600 2.603900
4.770500 2.852600
4.807500 2.910000
4.844400 2.846000
4.881300 2.658300
4.918200 2.445300
4.955100 2.224300
4.992100 1.756700
5.029000 1.691100
5.065900 1.789600
5.102800 1.926500
5.139700 1.887300
5.176600 1.734600
5.213600 1.625500
5.250500 1.640400
5.287400 1.690200
5.324300 1.926300
5.361200 1.544100
5.398200 1.447400
5.435100 1.436900
5.472000 1.446400
5.508900 1.419100
5.545800 1.406400
5.582800 1.399500
5.619700 1.413000
5.656600 1.616400
5.693500 1.631600
5.730400 1.414600
5.767300 1.221600
5.804300 1.073900
5.841200 0.966500
5.878100 0.906100
5.915000 0.989600
5.951900 1.179100
5.988900 1.345700
6.025800 1.542500
6.062700 1.627700
6.099600 1.563100
6.136500 1.633100
6.173500 1.725600
6.210400 1.816500
6.247300 1.916500
6.284200 1.744900
6.321100 1.633600
6.358000 1.403200
6.395000 1.356300
6.431900 1.327200
6.468800 1.298900
6.505700 1.279800
6.542600 1.297000
6.579600 1.326100
6.616500 1.344800
6.653400 1.375700
6.690300 1.397400
6.727200 1.386300
6.764100 1.370200
6.801100 1.401700
6.838000 1.437200
6.874900 1.472000
6.911800 1.483800
6.948700 1.490600
6.985700 1.537800
7.022600 1.593200
7.059500 1.536600
7.096400 1.421300
7.133300 1.278000
7.170300 1.222300
7.207200 1.106200
7.244100 1.135900
7.281000 1.170000
7.317900 1.241800
7.354800 1.300600
7.391800 1.404800
7.428700 1.557300
7.465600 1.760100
7.502500 1.986200
7.539400 2.238900
7.576400 2.376700
7.613300 2.451400
7.650200 2.542500
7.687100 2.573400
7.724000 2.366500
7.761000 2.089100
7.797900 1.915700
7.834800 1.666500
7.871700 1.506600
7.908600 1.327900
7.945500 1.065700
7.982500 1.057700
8.019400 1.084400
8.056300 1.152200
8.093200 1.291200
8.130100 1.413100
8.167100 1.495900
8.204000 1.664900
8.240900 1.884200
8.277800 2.231800
8.314700 2.723800
8.351600 3.320500
8.388600 3.670500
8.425500 3.688700
8.462400 3.737600
8.499300 3.004700
8.536200 2.279900
8.573200 1.873100
8.610100 1.698500
8.647000 1.601800
8.683900 1.597400
8.720800 1.784200
8.757800 1.691000
8.794700 1.561900
8.831600 1.227100
8.868500 1.074300
8.905400 1.073200
8.942300 1.160500
8.979300 1.232500
9.016200 1.401800
9.053100 1.693300
9.090000 2.140400
9.126900 2.339000
9.163900 2.443800
9.200800 2.535100
9.237700 2.521800
9.274600 2.400200
9.311500 2.424600
9.348500 2.437600
9.385400 2.452400
9.422300 2.315000
9.459200 2.203400
9.496100 2.185100
9.533000 2.347100
9.570000 2.304200
9.606900 2.247200
9.643800 2.245700
9.680700 2.325300
9.717600 2.368100
9.754600 2.345000
9.791500 2.290700
9.828400 2.314400
9.865300 2.270900
9.902200 2.234800
9.939100 2.314900
9.976100 2.246600
10.013000 2.189300
10.049900 2.030300
10.086800 1.905700
10.123700 1.763100
10.160700 1.646800
10.197600 1.528400
10.234500 1.297000
10.271400 1.144000
10.308300 1.098500
10.345300 1.064600
10.382200 1.034100
10.419100 1.028100
10.456000 1.034200
10.492900 1.048600
10.529800 1.069000
10.566800 1.094100
10.603700 1.088500
10.640600 1.062000
10.677500 1.039900
10.714400 1.006800
10.751400 0.917800
10.788300 0.949700
10.825200 1.028300
10.862100 1.155900
10.899000 1.164100
10.936000 1.154300
10.972900 1.146900
11.009800 1.143100
11.046700 1.137500
11.083600 1.132300
11.120500 1.133200
11.157500 1.139100
11.194400 1.157300
11.231300 1.179400
11.268200 1.181100
11.305100 1.203900
11.342100 1.221700
11.379000 1.254500
11.415900 1.299500
11.452800 1.383800
11.489700 1.347400
11.526600 1.276300
11.563600 1.229600
11.600500 1.210900
11.637400 1.191900
11.674300 1.172500
11.711200 1.157000
11.748200 1.145800
11.785100 1.132800
11.822000 1.124700
11.858900 1.120700
11.895800 1.120700
11.932800 1.126400
11.969700 1.136600
12.006600 1.153200
12.043500 1.191600
12.080400 1.285500
12.117300 1.307500
12.154300 1.284600
12.191200 1.236800
12.228100 1.197900
12.265000 1.147000
12.301900 1.094400
12.338900 1.058000
12.375800 1.046100
12.412700 1.064100
12.449600 1.107800
12.486500 1.188700
12.523500 1.228600
12.560400 1.213000
12.597300 1.106400
12.634200 1.064300
12.671100 1.114900
12.708000 1.204400
12.745000 1.222900
12.781900 1.224600
12.818800 1.191500
12.855700 1.182600
12.892600 1.188200
12.929600 1.196300
12.966500 1.208100
13.003400 1.226800
13.040300 1.260700
13.077200 1.301800
13.114100 1.351200
13.151100 1.442000
13.188000 1.494300
13.224900 1.641700
13.261800 1.634700
13.298700 1.733200
13.335700 1.853000
13.372600 1.970300
13.409500 2.106800
13.446400 2.246900
13.483300 2.431400
13.520300 2.408300
13.557200 2.058300
13.594100 1.744200
13.631000 1.533600
13.667900 1.470100
13.704800 1.482400
13.741800 1.465200
13.778700 1.475200
13.815600 1.487600
13.852500 1.517700
13.889400 1.532600
13.926400 1.467400
13.963300 1.412800
14.000200 1.357000
14.037100 1.280400
14.074000 1.199800
14.111000 1.130100
14.147900 1.058600
14.184800 1.007700
14.221700 0.966200
14.258600 0.999900
14.295500 0.995000
14.332500 1.017500
14.369400 1.098700
14.406300 1.666600
14.443200 1.990400
14.480100 1.945900
14.517100 1.971400
14.554000 1.885500
14.590900 1.892400
14.627800 1.964900
14.664700 1.885300
14.701600 1.859500
14.738600 1.851100
14.775500 1.827900
14.812400 1.812800
14.849300 1.810100
14.886200 1.810500
14.923200 1.820100
14.960100 1.824300
14.997000 1.813300
15.033900 1.786400
15.070800 1.739700
15.107800 1.664500
15.144700 1.588200
15.181600 1.529900
15.218500 1.484000
15.255400 1.469400
15.292300 1.405600
15.329300 1.363900
15.366200 1.323500
15.403100 1.286500
15.440000 1.271000
15.476900 1.263500
15.513900 1.210700
15.550800 1.178500
15.587700 1.172400
15.624600 1.159200
15.661500 1.162100
15.698500 1.136800
15.735400 1.092400
15.772300 1.065900
15.809200 1.044200
15.846100 1.023000
15.883000 1.013800
15.920000 0.983600
15.956900 0.988800
15.993800 1.055600
16.030700 1.148700
16.067600 1.286600
16.104600 1.246300
16.141500 1.271700
16.178400 1.317500
16.215300 1.378600
16.252200 1.541000
16.289100 2.186900
16.326100 2.307300
16.363000 2.260900
16.399900 2.121400
16.436800 2.000000
16.473700 1.945200
16.510700 1.881700
16.547600 1.789500
16.584500 1.690700
16.621400 1.606000
16.658300 1.552900
16.695300 1.513200
16.732200 1.448100
16.769100 1.391300
16.806000 1.360700
16.842900 1.352700
16.879800 1.327000
16.916800 1.249900
16.953700 1.213300
16.990600 1.234900
17.027500 1.246400
17.064400 1.317400
17.101400 1.427100
17.138300 1.572700
17.175200 1.754200
17.212100 1.779100
17.249000 1.710400
17.286000 1.650800
17.322900 1.633100
17.359800 1.646400
17.396700 1.664000
17.433600 1.781000
17.470500 2.006000
17.507500 2.331200
17.544400 2.121300
17.581300 2.324000
17.618200 2.593800
17.655100 2.779200
17.692100 2.884800
17.729000 2.768900
17.765900 2.455700
17.802800 2.208000
17.839700 2.017900
17.876600 1.900000
17.913600 1.794700
17.950500 1.728600
17.987400 1.681800
18.024300 1.698700
18.061200 1.707600
18.098200 1.649400
18.135100 1.649400
18.172000 1.601400
18.208900 1.522400
18.245800 1.530800
18.282800 1.533100
18.319700 1.624000
18.356600 1.687400
18.393500 1.754900
18.430400 1.835900
18.467300 1.910000
18.504300 2.033700
18.541200 2.167900
18.578100 2.306200
18.615000 2.422600
18.651900 2.466800
18.688900 2.437300
18.725800 2.395500
18.762700 2.468300
18.799600 2.685200
18.836500 2.591800
18.873500 2.604200
18.910400 2.502300
18.947300 2.432500
18.984200 2.361000
19.021100 2.253600
19.058000 2.104800
19.095000 2.029400
19.131900 1.985800
19.168800 1.921200
19.205700 1.798000
19.242600 1.704400
19.279600 1.667100
19.316500 1.641800
19.353400 1.632200
19.390300 1.590200
19.427200 1.556300
19.464100 1.526900
19.501100 1.509300
19.538000 1.499300
19.574900 1.578800
19.611800 1.775900
19.648700 1.948400
19.685700 1.820600
19.722600 1.849500
19.759500 1.839000
19.796400 1.840900
19.833300 1.926900
19.870300 2.049000
19.907200 2.110900
19.944100 2.201900
19.981000 2.376600
20.017900 2.245200
20.054800 2.209100
20.091800 2.176200
20.128700 2.105600
20.165600 2.033200
20.202500 2.011100
20.239400 2.023000
20.276400 2.049000
20.313300 2.114100
20.350200 2.244700
20.387100 2.355700
20.424000 2.345100
20.461000 2.197900
20.497900 2.144600
20.534800 2.093600
20.571700 2.128900
20.608600 2.250600
20.645500 2.277400
20.682500 2.279800
20.719400 2.258700
20.756300 2.220800
20.793200 2.165000
20.830100 2.399300
20.867100 2.282800
20.904000 2.151700
20.940900 1.898600
20.977800 1.759900
21.014700 1.661200
21.051600 1.629900
21.088600 1.667100
21.125500 1.700100
21.162400 1.746200
21.199300 1.797000
21.236200 1.857800
21.273200 1.976400
21.310100 2.125300
21.347000 2.319000
21.383900 2.578100
21.420800 2.962800
21.457800 3.561900
21.494700 4.793300
21.531600 9.125400
21.568500 8.662100
21.605400 3.554600
21.642300 2.679700
21.679300 2.398400
21.716200 2.268900
21.753100 2.159300
21.790000 2.074200
21.826900 1.996500
21.863900 1.949100
21.900800 1.943600
21.937700 1.978700
21.974600 2.020100
22.011500 2.099100
22.048500 2.129100
22.085400 2.123100
22.122300 2.120900
22.159200 2.125400
22.196100 2.125900
22.233000 2.132800
22.270000 2.149800
22.306900 2.192100
22.343800 2.151500
22.380700 1.953800
22.417600 1.901100
22.454600 1.921200
22.491500 1.976900
22.528400 2.011300
22.565300 1.997800
22.602200 1.962800
22.639100 1.938900
22.676100 1.926300
22.713000 2.018100
22.749900 1.871100
22.786800 1.867900
22.823700 1.849200
22.860700 1.751800
22.897600 1.689900
22.934500 1.634200
22.971400 1.579100
23.008300 1.526600
23.045300 1.487800
23.082200 1.454900
23.119100 1.468600
23.156000 1.454700
23.192900 1.427600
23.229800 1.386600
23.266800 1.304700
23.303700 1.270700
23.340600 1.269500
23.377500 1.301700
23.414400 1.335800
23.451400 1.364400
23.488300 1.418800
23.525200 1.673100
23.562100 1.755300
23.599000 2.011300
23.636000 2.210400
23.672900 2.311200
23.709800 2.210000
23.746700 2.287100
23.783600 2.332200
23.820500 2.383400
23.857500 2.499400
23.894400 2.545500
23.931300 2.617000
23.968200 2.626700
24.005100 2.598600
24.042100 2.536800
24.079000 2.481300
24.115900 2.429300
24.152800 2.376300
24.189700 2.289700
24.226600 2.192700
24.263600 2.070800
24.300500 2.012000
24.337400 1.951100
24.374300 1.871300
24.411200 1.807200
24.448200 1.842300
24.485100 1.956500
24.522000 2.085400
24.558900 2.174600
24.595800 2.268200
24.632800 2.351800
24.669700 2.461900
24.706600 2.484600
24.743500 2.394900
24.780400 2.303900
24.817300 2.341600
24.854300 2.381500
24.891200 2.437800
24.928100 2.544100
24.965000 2.585200
25.001900 2.545700
25.038900 2.418800
25.075800 2.237400
25.112700 2.103300
25.149600 2.001100
25.186500 1.965000
25.223500 2.035000
25.260400 2.114200
25.297300 2.199100
25.334200 2.281600
25.371100 2.226400
25.408000 2.213100
25.445000 2.255300
25.481900 2.304800
25.518800 2.265900
25.555700 2.223400
25.592600 2.202800
25.629600 2.171800
25.666500 2.120500
25.703400 2.038300
25.740300 2.097600
25.777200 2.174700
25.814100 2.346200
25.851100 2.515900
25.888000 2.517300
25.924900 2.441200
25.961800 2.381300
25.998700 2.240500
26.035700 2.130000
26.072600 2.052800
26.109500 1.949800
26.146400 1.920800
26.183300 1.948400
26.220300 2.004100
26.257200 2.025900
26.294100 2.039600
26.331000 2.073300
26.367900 2.137800
26.404800 2.233200
26.441800 2.346400
26.478700 2.362400
26.515600 2.251900
26.552500 2.154300
26.589400 2.111900
26.626400 2.098700
26.663300 2.099500
26.700200 2.127200
26.737100 2.153100
26.774000 2.155800
26.811000 2.080800
26.847900 2.020200
26.884800 1.968400
26.921700 1.959900
26.958600 2.017100
26.995500 2.134900
27.032500 2.307400
27.069400 2.454100
27.106300 2.603200
27.143200 2.711800
27.180100 2.811200
27.217100 2.932700
27.254000 3.081900
27.290900 3.153500
27.327800 3.074200
27.364700 2.851700
27.401600 2.622300
27.438600 2.415600
27.475500 2.212600
27.512400 2.007200
27.549300 1.904000
27.586200 1.909200
27.623200 1.937800
27.660100 1.933000
27.697000 1.912200
27.733900 1.885000
27.770800 1.876100
27.807800 1.890600
27.844700 1.978200
27.881600 2.091600
27.918500 2.193400
27.955400 2.249900
27.992300 2.248400
28.029300 2.258500
28.066200 2.274800
28.103100 2.213800
28.140000 2.181000
28.176900 2.134600
28.213900 2.064800
28.250800 1.971900
28.287700 1.848900
28.324600 1.795700
28.361500 1.868100
28.398500 1.866300
28.435400 1.861800
28.472300 1.864600
28.509200 1.882600
28.546100 1.911800
28.583000 1.986500
28.620000 2.030900
28.656900 2.004500
28.693800 1.927000
28.730700 1.880300
28.767600 1.858200
28.804600 1.855500
28.841500 1.867700
28.878400 1.877700
28.915300 1.886600
28.952200 1.892700
28.989100 1.895300
29.026100 1.874500
29.063000 1.884400
29.099900 1.934100
29.136800 1.987500
29.173700 2.075600
29.210700 2.149400
29.247600 2.254800
29.284500 2.253400
29.321400 2.241000
29.358300 2.248000
29.395300 2.237300
29.432200 2.192300
29.469100 2.151900
29.506000 2.094700
29.542900 2.090800
29.579800 2.069400
29.616800 2.053800
29.653700 2.043500
29.690600 2.047200
29.727500 2.070000
29.764400 2.085700
29.801400 2.101300
29.838300 2.124100
29.875200 2.101600
29.912100 2.131100
29.949000 2.178300
29.986000 2.192500
30.022900 2.222300
30.059800 2.260200
30.096700 2.291500
30.133600 2.306900
30.170500 2.314800
30.207500 2.309900
30.244400 2.304100
30.281300 2.324600
30.318200 2.336100
30.355100 2.311100
30.392100 2.232400
30.429000 2.172900
30.465900 2.102400
30.502800 2.032300
30.539700 1.995800
30.576600 2.005600
30.613600 2.011500
30.650500 2.088200
30.687400 2.163400
30.724300 2.219300
30.761200 2.251100
30.798200 2.280400
30.835100 2.341300
30.872000 2.378400
30.908900 2.369000
30.945800 2.351500
30.982800 2.328400
31.019700 2.302400
31.056600 2.284000
31.093500 2.286600
31.130400 2.399500
31.167300 2.265700
31.204300 2.224600
31.241200 2.182700
31.278100 2.157900
31.315000 2.158800
31.351900 2.117700
31.388900 2.097900
31.425800 2.096300
31.462700 2.131200
31.499600 2.209500
31.536500 2.277600
31.573400 2.369600
31.610400 2.508400
31.647300 2.529500
31.684200 2.520400
31.721100 2.507900
31.758000 2.605800
31.795000 2.570400
31.831900 2.630900
31.868800 2.756400
31.905700 2.616000
31.942600 2.604900
31.979600 2.587500
32.016500 2.560700
32.053400 2.490800
32.090300 2.448400
32.127200 2.351900
32.164100 2.250500
32.201100 2.190900
32.238000 2.194100
32.274900 2.250100
32.311800 2.288400
32.348700 2.325700
32.385700 2.374900
32.422600 2.431000
32.459500 2.471000
32.496400 2.505100
32.533300 2.521000
32.570300 2.484700
32.607200 2.465100
32.644100 2.451800
32.681000 2.427500
32.717900 2.394800
32.754800 2.325600
32.791800 2.286000
32.828700 2.279000
32.865600 2.287600
32.902500 2.261800
32.939400 2.216500
32.976400 2.195600
33.013300 2.188800
33.050200 2.138700
33.087100 2.050500
33.124000 1.992800
33.160900 1.987800
33.197900 2.001400
33.234800 2.036400
33.271700 2.085700
33.308600 2.113900
33.345500 2.135100
33.382500 2.190900
33.419400 2.257900
33.456300 2.302900
33.493200 2.313500
33.530100 2.332300
33.567100 2.382400
33.604000 2.412000
33.640900 2.403900
33.677800 2.437100
33.714700 2.482700
33.751600 2.540400
33.788600 2.561600
33.825500 2.543600
33.862400 2.537100
33.899300 2.504200
33.936200 2.402500
33.973200 2.277400
34.010100 2.171400
34.047000 2.128900
34.083900 2.095500
34.120800 2.074700
34.157800 2.027100
34.194700 2.050000
34.231600 2.075700
34.268500 2.089300
34.305400 2.107800
34.342300 2.143500
34.379300 2.249600
34.416200 2.336400
34.453100 2.396600
34.490000 2.462000
34.526900 2.528600
34.563900 2.500700
34.600800 2.499600
34.637700 2.500700
34.674600 2.503300
34.711500 2.592600
34.748400 2.392200
34.785400 2.398700
34.822300 2.425100
34.859200 2.434800
34.896100 2.454400
34.933000 2.462100
34.970000 2.583900
35.006900 2.670000
35.043800 2.707300
35.080700 2.693000
35.117600 2.665500
35.154600 2.717000
35.191500 2.806000
35.228400 2.888800
35.265300 2.836900
35.302200 2.691300
35.339100 2.537100
35.376100 2.378100
35.413000 2.244600
35.449900 2.165300
35.486800 2.154100
35.523700 2.189300
35.560700 2.243600
35.597600 2.313500
35.634500 2.388400
35.671400 2.445900
35.708300 2.421300
35.745300 2.441100
35.782200 2.501300
35.819100 2.507300
35.856000 2.513400
35.892900 2.492900
35.929800 2.488900
35.966800 2.481500
36.003700 2.490600
36.040600 2.501500
36.077500 2.506700
36.114400 2.548800
36.151400 2.541500
36.188300 2.517000
36.225200 2.528200
36.262100 2.541200
36.299000 2.556400
36.335900 2.578100
36.372900 2.640900
36.409800 2.687300
36.446700 2.701200
36.483600 2.636600
36.520500 2.537000
36.557500 2.486800
36.594400 2.421100
36.631300 2.362100
36.668200 2.354800
36.705100 2.322700
36.742100 2.281100
36.779000 2.245500
36.815900 2.224800
36.852800 2.233800
36.889700 2.228500
36.926600 2.240200
36.963600 2.322000
37.000500 2.392900
37.037400 2.403000
37.074300 2.415500
37.111200 2.429000
37.148200 2.427100
37.185100 2.362800
37.222000 2.313200
37.258900 2.266200
37.295800 2.274400
37.332800 2.319100
37.369700 2.359200
37.406600 2.338700
37.443500 2.327400
37.480400 2.361900
37.517300 2.323500
37.554300 2.296400
37.591200 2.272400
37.628100 2.230000
37.665000 2.176500
37.701900 2.148500
37.738900 2.115300
37.775800 2.077000
37.812700 2.029500
37.849600 1.970300
37.886500 1.934800
37.923400 1.929400
37.960400 1.943500
37.997300 2.017100
38.034200 2.057200
38.071100 2.092500
38.108000 2.141800
38.145000 2.177900
38.181900 2.244600
38.218800 2.331000
38.255700 2.450800
38.292600 2.603000
38.329600 2.619600
38.366500 2.727700
38.403400 2.942400
38.440300 2.926700
38.477200 2.857000
38.514100 2.823500
38.551100 2.730700
38.588000 2.645900
38.624900 2.563000
38.661800 2.493100
38.698700 2.454500
38.735700 2.449000
38.772600 2.456400
38.809500 2.468900
38.846400 2.546000
38.883300 2.505900
38.920300 2.488500
38.957200 2.824800
38.994100 2.470600
39.031000 2.398800
39.067900 2.369300
39.104800 2.333000
39.141800 2.304600
39.178700 2.277400
39.215600 2.270500
39.252500 2.275000
39.289400 2.312000
39.326400 2.476100
39.363300 2.664200
39.400200 2.574700
39.437100 2.580300
39.474000 2.594500
39.510900 2.613600
39.547900 2.621100
39.584800 2.648400
39.621700 2.656900
39.658600 2.681000
39.695500 2.627000
39.732500 2.609200
39.769400 2.601800
39.806300 2.615600
39.843200 2.598400
39.880100 2.604200
39.917100 2.587600
39.954000 2.516500
39.990900 2.453200
40.027800 2.396400
40.064700 2.359800
40.101600 2.393900
40.138600 2.403300
40.175500 2.276800
40.212400 2.316400
40.249300 2.389200
40.286200 2.461700
40.323200 2.521800
40.360100 2.590200
40.397000 2.666100
40.433900 2.919700
40.470800 3.045700
40.507800 2.949600
40.544700 2.922300
40.581600 2.925700
40.618500 2.807600
40.655400 2.655700
40.692300 2.532500
40.729300 2.407300
40.766200 2.441000
40.803100 2.483100
40.840000 2.479700
40.876900 2.456300
40.913900 2.492200
40.950800 2.552100
40.987700 2.547400
41.024600 2.514000
41.061500 2.466100
41.098400 2.475700
41.135400 2.487900
41.172300 2.476000
41.209200 2.460200
41.246100 2.453500
41.283000 2.471800
41.320000 2.513900
41.356900 2.508600
41.393800 2.417700
41.430700 2.380500
41.467600 2.342200
41.504600 2.349100
41.541500 2.303000
41.578400 2.248000
41.615300 2.214900
41.652200 2.212700
41.689100 2.285900
41.726100 2.288900
41.763000 2.286400
41.799900 2.292600
41.836800 2.332400
41.873700 2.465100
41.910700 2.611600
41.947600 2.697500
41.984500 2.780700
42.021400 2.879000
42.058300 2.985800
42.095300 2.856800
42.132200 2.769000
42.169100 2.667600
42.206000 2.550200
42.242900 2.381500
42.279800 2.296400
42.316800 2.306600
42.353700 2.361100
42.390600 2.428500
42.427500 2.467800
42.464400 2.501900
42.501400 2.523100
42.538300 2.544200
42.575200 2.550800
42.612100 2.459300
42.649000 2.335600
42.685900 2.240800
42.722900 2.148000
42.759800 2.045800
42.796700 1.924800
42.833600 1.841600
42.870500 1.754900
42.907500 1.667400
42.944400 1.567500
42.981300 1.451600
43.018200 1.340400
43.055100 1.258700
43.092100 1.175100
43.129000 1.096100
43.165900 1.021100
43.202800 0.955300
43.239700 0.902400
43.276600 0.845600
43.313600 0.808500
43.350500 0.776300
43.387400 0.746300
43.424300 0.721400
43.461200 0.703900
43.498200 0.702500
43.535100 0.681300
43.572000 0.634600
43.608900 0.583300
43.645800 0.534800
43.682800 0.486100
43.719700 0.441100
43.756600 0.395900
43.793500 0.355600
43.830400 0.318200
43.867300 0.287700
43.904300 0.265000
43.941200 0.245900
43.978100 0.224700
44.015000 0.203100
44.051900 0.181900
44.088900 0.159100
44.125800 0.133700
44.162700 0.105700
44.199600 0.075100
44.236500 0.048800
44.273400 0.038900
44.310400 0.030500
44.347300 0.022900
44.384200 0.016100
44.421100 0.010000
44.458000 0.004700
44.495000 0.001300
44.531900 0.000000
44.568800 0.000000
44.605700 0.000000
44.642600 0.000000
44.679600 0.000000
44.716500 0.000000
44.753400 0.000000
44.790300 0.000000
44.827200 0.000000
44.864100 0.000000
44.901100 0.000000
44.938000 0.000000
44.974900 0.000000
45.011800 0.000000
45.048700 0.000000
45.085700 0.000000
45.122600 0.000000
45.159500 0.000000
45.196400 0.000000
45.233300 0.000000
45.270300 0.000000
45.307200 0.000000
45.344100 0.000000
45.381000 0.000000
45.417900 0.000000
45.454800 0.000000
45.491800 0.000000
45.528700 0.000000
45.565600 0.000000
45.602500 0.000000
45.639400 0.000000
45.676400 0.000000
45.713300 0.000000
45.750200 0.000000
45.787100 0.000000
45.824000 0.000000
45.860900 0.000000
45.897900 0.000000
45.934800 0.000000
45.971700 0.000000
46.008600 0.000000
46.045500 0.000000
46.082500 0.000000
46.119400 0.000000
46.156300 0.000000
46.193200 0.000000
46.230100 0.000000
46.267100 0.000000
46.304000 0.000000
46.340900 0.000000
46.377800 0.000000
46.414700 0.000000
46.451600 0.000000
46.488600 0.000000
46.525500 0.000000
46.562400 0.000000
46.599300 0.000000
46.636200 0.000000
46.673200 0.000000
46.710100 0.000000
46.747000 0.000000
46.783900 0.000000
46.820800 0.000000
46.857800 0.000000
46.894700 0.000000
46.931600 0.000000
46.968500 0.000000
47.005400 0.000000
47.042300 0.000000
47.079300 0.000000
47.116200 0.000000
47.153100 0.000000
47.190000 0.000000
47.226900 0.000000
47.263900 0.000000
47.300800 0.000000
47.337700 0.000000
47.374600 0.000000
47.411500 0.000000
47.448400 0.000000
47.485400 0.000000
47.522300 0.000000
47.559200 0.000000
47.596100 0.000000
47.633000 0.000000
47.670000 0.000000
47.706900 0.000000
47.743800 0.000000
47.780700 0.000000
47.817600 0.000000
47.854600 0.000000
47.891500 0.000000
e
