set title 'mp-1019097 - Density of States'
set xlabel 'Energy (eV)'
set ylabel 'DOS (states/eV)'
set grid
set xrange [-10:10]
set yrange [0:6.584]
set xzeroaxis lt -1
set terminal png size 800,600
set output 'mp-1019097_dos_gnuplot.png'
plot '-' using 1:2 with lines title 'DOS'
-12.523300 0.000000
-12.498300 0.000000
-12.473300 0.000000
-12.448400 0.000000
-12.423400 0.000000
-12.398400 0.000000
-12.373400 0.000000
-12.348400 0.000000
-12.323500 0.000000
-12.298500 0.000000
-12.273500 0.000000
-12.248500 0.000000
-12.223600 0.000000
-12.198600 0.000000
-12.173600 0.000000
-12.148600 0.000000
-12.123600 0.000000
-12.098700 0.000000
-12.073700 0.000000
-12.048700 0.000000
-12.023700 0.000000
-11.998800 0.000000
-11.973800 0.000000
-11.948800 0.000000
-11.923800 0.000000
-11.898900 0.000000
-11.873900 0.000000
-11.848900 0.000000
-11.823900 0.000000
-11.798900 0.000000
-11.774000 0.000000
-11.749000 0.000000
-11.724000 0.000000
-11.699000 0.000000
-11.674100 0.000000
-11.649100 0.000000
-11.624100 0.000000
-11.599100 0.000000
-11.574100 0.000000
-11.549200 0.000000
-11.524200 0.000000
-11.499200 0.000000
-11.474200 0.000000
-11.449300 0.000000
-11.424300 0.000000
-11.399300 0.000000
-11.374300 0.000000
-11.349300 0.000000
-11.324400 0.000000
-11.299400 0.000000
-11.274400 0.000000
-11.249400 0.000000
-11.224500 0.000000
-11.199500 0.000000
-11.174500 0.000000
-11.149500 0.000000
-11.124500 0.000000
-11.099600 0.000000
-11.074600 0.000000
-11.049600 0.000000
-11.024600 0.000000
-10.999700 0.000000
-10.974700 0.000000
-10.949700 0.000000
-10.924700 0.000000
-10.899700 0.000000
-10.874800 0.000000
-10.849800 0.000000
-10.824800 0.000000
-10.799800 0.000000
-10.774900 0.000000
-10.749900 0.000000
-10.724900 0.000000
-10.699900 0.000000
-10.675000 0.000000
-10.650000 0.000000
-10.625000 0.000000
-10.600000 0.000000
-10.575000 0.000000
-10.550100 0.000000
-10.525100 0.000000
-10.500100 0.000000
-10.475100 0.000000
-10.450200 0.000000
-10.425200 0.000000
-10.400200 0.000000
-10.375200 0.000000
-10.350200 0.000000
-10.325300 0.000000
-10.300300 0.000000
-10.275300 0.000000
-10.250300 0.000400
-10.225400 0.056600
-10.200400 0.187000
-10.175400 0.252300
-10.150400 0.267900
-10.125400 0.312800
-10.100500 0.370200
-10.075500 0.419300
-10.050500 0.442800
-10.025500 0.461100
-10.000600 0.490700
-9.975600 0.522700
-9.950600 0.554000
-9.925600 0.585700
-9.900600 0.618800
-9.875700 0.646800
-9.850700 0.706300
-9.825700 0.817000
-9.800700 0.800900
-9.775800 0.797200
-9.750800 0.814900
-9.725800 0.833800
-9.700800 0.837400
-9.675800 0.841700
-9.650900 0.853900
-9.625900 0.863800
-9.600900 0.874500
-9.575900 0.884800
-9.551000 0.981200
-9.526000 1.064800
-9.501000 1.063700
-9.476000 1.108300
-9.451100 1.155100
-9.426100 1.190800
-9.401100 1.211500
-9.376100 1.251300
-9.351100 1.293900
-9.326200 1.340200
-9.301200 1.389800
-9.276200 1.442600
-9.251200 1.482800
-9.226300 1.527900
-9.201300 1.577200
-9.176300 1.634800
-9.151300 1.709500
-9.126300 1.805400
-9.101400 1.902500
-9.076400 2.007800
-9.051400 2.123000
-9.026400 2.270300
-9.001500 2.569200
-8.976500 3.025900
-8.951500 2.852000
-8.926500 2.360100
-8.901500 2.320200
-8.876600 2.294600
-8.851600 2.235600
-8.826600 2.190200
-8.801600 2.221200
-8.776700 2.286500
-8.751700 2.345400
-8.726700 2.376000
-8.701700 2.368200
-8.676700 2.345000
-8.651800 2.333800
-8.626800 2.354600
-8.601800 2.392900
-8.576800 2.448900
-8.551900 2.506300
-8.526900 2.586100
-8.501900 2.655500
-8.476900 2.775000
-8.451900 2.976700
-8.427000 3.175700
-8.402000 3.497700
-8.377000 5.985600
-8.352000 3.680800
-8.327100 3.428800
-8.302100 2.901700
-8.277100 2.782600
-8.252100 2.667600
-8.227200 2.501800
-8.202200 2.362300
-8.177200 2.267800
-8.152200 2.186100
-8.127200 2.109100
-8.102300 2.026000
-8.077300 1.949800
-8.052300 1.911000
-8.027300 1.965400
-8.002400 1.831200
-7.977400 1.642600
-7.952400 1.719300
-7.927400 2.765300
-7.902400 1.221500
-7.877500 0.000000
-7.852500 0.000000
-7.827500 0.000000
-7.802500 0.000000
-7.777600 0.000000
-7.752600 0.000000
-7.727600 0.000000
-7.702600 0.000000
-7.677600 0.000000
-7.652700 0.000000
-7.627700 0.000000
-7.602700 0.000000
-7.577700 0.000000
-7.552800 0.000000
-7.527800 0.000000
-7.502800 0.000000
-7.477800 0.000000
-7.452800 0.000000
-7.427900 0.000000
-7.402900 0.000000
-7.377900 0.000000
-7.352900 0.000000
-7.328000 0.000000
-7.303000 0.000000
-7.278000 0.000000
-7.253000 0.000000
-7.228100 0.000000
-7.203100 0.000000
-7.178100 0.000000
-7.153100 0.000000
-7.128100 0.000000
-7.103200 0.000000
-7.078200 0.000000
-7.053200 0.000000
-7.028200 0.000000
-7.003300 0.000000
-6.978300 0.000000
-6.953300 0.000000
-6.928300 0.000000
-6.903300 0.000000
-6.878400 0.000000
-6.853400 0.000200
-6.828400 0.007500
-6.803400 0.025600
-6.778500 0.045400
-6.753500 0.061900
-6.728500 0.078100
-6.703500 0.095500
-6.678500 0.114300
-6.653600 0.134300
-6.628600 0.154300
-6.603600 0.170600
-6.578600 0.179100
-6.553700 0.185400
-6.528700 0.193800
-6.503700 0.202700
-6.478700 0.210900
-6.453700 0.218500
-6.428800 0.226300
-6.403800 0.237500
-6.378800 0.249000
-6.353800 0.258600
-6.328900 0.267500
-6.303900 0.276300
-6.278900 0.284900
-6.253900 0.293500
-6.228900 0.301600
-6.204000 0.309900
-6.179000 0.319600
-6.154000 0.330500
-6.129000 0.341900
-6.104100 0.353900
-6.079100 0.366300
-6.054100 0.378300
-6.029100 0.387800
-6.004200 0.396100
-5.979200 0.404600
-5.954200 0.412600
-5.929200 0.420300
-5.904200 0.428300
-5.879300 0.437800
-5.854300 0.448300
-5.829300 0.459200
-5.804300 0.470600
-5.779400 0.482400
-5.754400 0.494600
-5.729400 0.507200
-5.704400 0.519700
-5.679400 0.532100
-5.654500 0.544500
-5.629500 0.556300
-5.604500 0.567600
-5.579500 0.578700
-5.554600 0.592200
-5.529600 0.613000
-5.504600 0.635400
-5.479600 0.654300
-5.454600 0.673400
-5.429700 0.693000
-5.404700 0.713200
-5.379700 0.734000
-5.354700 0.754400
-5.329800 0.913000
-5.304800 0.929800
-5.279800 1.143400
-5.254800 1.331500
-5.229800 1.422700
-5.204900 1.607100
-5.179900 1.891900
-5.154900 1.872200
-5.129900 1.748000
-5.105000 1.771000
-5.080000 1.753000
-5.055000 1.897600
-5.030000 1.763200
-5.005000 1.469100
-4.980100 1.374800
-4.955100 1.327700
-4.930100 1.287800
-4.905100 1.241400
-4.880200 1.171500
-4.855200 1.133900
-4.830200 1.057000
-4.805200 0.988300
-4.780300 0.945100
-4.755300 0.894500
-4.730300 0.844800
-4.705300 0.799900
-4.680300 0.763000
-4.655400 0.735300
-4.630400 0.716200
-4.605400 0.698500
-4.580400 0.681200
-4.555500 0.664500
-4.530500 0.872800
-4.505500 0.822300
-4.480500 0.853000
-4.455500 0.841400
-4.430600 0.829500
-4.405600 0.827400
-4.380600 0.836900
-4.355600 0.809800
-4.330700 0.814500
-4.305700 0.819900
-4.280700 0.834100
-4.255700 0.847600
-4.230700 0.840200
-4.205800 0.842900
-4.180800 0.850700
-4.155800 0.859200
-4.130800 0.868400
-4.105900 0.878300
-4.080900 0.896900
-4.055900 0.915500
-4.030900 0.949300
-4.005900 0.889300
-3.981000 0.908800
-3.956000 0.932000
-3.931000 0.956700
-3.906000 0.982700
-3.881100 1.005900
-3.856100 1.029100
-3.831100 1.081000
-3.806100 1.096500
-3.781100 1.127300
-3.756200 1.188900
-3.731200 1.258700
-3.706200 1.337300
-3.681200 1.411800
-3.656300 1.460100
-3.631300 1.529100
-3.606300 1.607600
-3.581300 1.994900
-3.556400 2.224500
-3.531400 2.512800
-3.506400 2.883100
-3.481400 3.057500
-3.456400 2.537000
-3.431500 2.372100
-3.406500 2.301700
-3.381500 2.195800
-3.356500 2.238900
-3.331600 2.405700
-3.306600 2.448300
-3.281600 2.472800
-3.256600 2.492500
-3.231600 2.465200
-3.206700 2.370800
-3.181700 2.143300
-3.156700 1.894300
-3.131700 1.680100
-3.106800 1.577900
-3.081800 1.509900
-3.056800 1.453100
-3.031800 1.599200
-3.006800 1.481300
-2.981900 1.408700
-2.956900 1.135200
-2.931900 1.098000
-2.906900 1.068100
-2.882000 1.044900
-2.857000 1.037300
-2.832000 1.068500
-2.807000 1.057700
-2.782000 1.129500
-2.757100 0.984300
-2.732100 0.999600
-2.707100 1.029500
-2.682100 1.064100
-2.657200 1.101400
-2.632200 1.142300
-2.607200 1.627900
-2.582200 3.313000
-2.557300 1.447700
-2.532300 1.384400
-2.507300 1.348200
-2.482300 1.296400
-2.457300 1.265700
-2.432400 1.166300
-2.407400 1.134300
-2.382400 1.095100
-2.357400 1.051600
-2.332500 1.037200
-2.307500 1.007900
-2.282500 0.958700
-2.257500 0.916900
-2.232500 0.918200
-2.207600 0.925500
-2.182600 0.931500
-2.157600 0.935900
-2.132600 0.940000
-2.107700 0.943700
-2.082700 0.979900
-2.057700 0.983000
-2.032700 1.155900
-2.007700 1.673300
-1.982800 0.934600
-1.957800 0.921000
-1.932800 0.911500
-1.907800 0.904200
-1.882900 0.902300
-1.857900 0.912900
-1.832900 0.912200
-1.807900 0.905900
-1.782900 0.904400
-1.758000 0.902400
-1.733000 0.900000
-1.708000 0.897500
-1.683000 0.891300
-1.658100 0.886000
-1.633100 0.879300
-1.608100 0.870600
-1.583100 0.865000
-1.558100 0.858200
-1.533200 0.860700
-1.508200 0.864800
-1.483200 0.868900
-1.458200 0.873700
-1.433300 0.887300
-1.408300 0.898600
-1.383300 0.909100
-1.358300 0.918900
-1.333400 0.934600
-1.308400 0.933300
-1.283400 0.930700
-1.258400 0.928300
-1.233400 0.926100
-1.208500 0.924200
-1.183500 0.918800
-1.158500 0.918500
-1.133500 0.944200
-1.108600 1.027700
-1.083600 1.130100
-1.058600 1.238100
-1.033600 1.344400
-1.008600 1.453500
-0.983700 1.595700
-0.958700 1.729000
-0.933700 1.871900
-0.908700 2.536300
-0.883800 2.149000
-0.858800 2.234900
-0.833800 2.331500
-0.808800 2.434100
-0.783800 2.521500
-0.758900 2.633300
-0.733900 2.896400
-0.708900 3.119400
-0.683900 3.382000
-0.659000 3.330200
-0.634000 3.301500
-0.609000 2.970200
-0.584000 2.449400
-0.559000 2.026400
-0.534100 1.669600
-0.509100 1.415000
-0.484100 1.277200
-0.459100 1.226100
-0.434200 1.205600
-0.409200 1.148900
-0.384200 1.088400
-0.359200 1.043600
-0.334200 1.011800
-0.309300 1.266900
-0.284300 1.272600
-0.259300 1.699800
-0.234300 1.970900
-0.209400 2.105700
-0.184400 2.205200
-0.159400 2.381300
-0.134400 2.529100
-0.109500 2.632200
-0.084500 2.601300
-0.059500 2.624000
-0.034500 2.559500
-0.009500 2.515700
0.015400 2.592000
0.040400 2.650800
0.065400 2.666600
0.090400 2.715600
0.115300 2.797400
0.140300 2.875100
0.165300 3.439400
0.190300 3.708500
0.215300 4.118600
0.240200 3.899500
0.265200 3.520500
0.290200 3.254900
0.315200 2.962900
0.340100 2.661500
0.365100 2.493200
0.390100 2.365900
0.415100 2.147100
0.440100 2.136500
0.465000 2.109500
0.490000 2.094200
0.515000 2.085300
0.540000 2.143300
0.564900 2.116100
0.589900 2.065900
0.614900 2.063100
0.639900 2.062200
0.664900 2.060400
0.689800 2.057900
0.714800 2.034600
0.739800 2.106600
0.764800 2.118600
0.789700 2.058800
0.814700 2.101100
0.839700 2.174100
0.864700 2.148700
0.889700 2.074800
0.914600 2.036300
0.939600 2.026700
0.964600 1.997700
0.989600 1.980000
1.014500 2.048800
1.039500 2.068500
1.064500 2.033300
1.089500 2.142100
1.114400 2.095900
1.139400 2.095600
1.164400 2.174400
1.189400 2.308400
1.214400 2.363800
1.239300 2.416900
1.264300 2.527500
1.289300 2.698500
1.314300 2.671500
1.339200 2.739300
1.364200 2.728700
1.389200 2.688300
1.414200 2.625800
1.439200 2.447300
1.464100 2.383100
1.489100 2.318800
1.514100 2.439000
1.539100 2.731900
1.564000 2.975400
1.589000 3.901900
1.614000 3.275600
1.639000 3.404100
1.664000 3.305500
1.688900 3.177800
1.713900 3.147900
1.738900 3.069400
1.763900 2.972300
1.788800 2.951400
1.813800 2.875200
1.838800 2.608100
1.863800 2.443300
1.888800 2.317300
1.913700 2.303600
1.938700 2.310000
1.963700 2.297900
1.988700 2.218000
2.013600 2.351200
2.038600 2.205400
2.063600 2.216900
2.088600 2.257400
2.113500 2.307900
2.138500 2.344700
2.163500 2.403600
2.188500 2.417700
2.213500 2.466400
2.238400 2.501700
2.263400 2.496000
2.288400 2.522300
2.313400 2.518200
2.338300 2.620000
2.363300 2.628000
2.388300 2.629000
2.413300 2.626400
2.438300 2.515900
2.463200 2.357400
2.488200 2.354700
2.513200 2.407800
2.538200 2.426900
2.563100 2.402900
2.588100 2.405900
2.613100 2.403500
2.638100 2.383400
2.663100 2.374100
2.688000 2.377700
2.713000 2.357100
2.738000 2.352300
2.763000 2.402900
2.787900 2.356000
2.812900 2.323800
2.837900 2.284800
2.862900 2.264100
2.887900 2.227100
2.912800 2.373200
2.937800 2.250500
2.962800 2.247900
2.987800 2.268500
3.012700 2.292400
3.037700 2.331400
3.062700 2.318000
3.087700 2.375500
3.112700 2.328000
3.137600 2.327600
3.162600 2.334000
3.187600 2.343600
3.212600 2.349100
3.237500 2.357400
3.262500 2.361900
3.287500 2.325400
3.312500 2.281200
3.337400 2.257800
3.362400 2.273700
3.387400 2.270300
3.412400 2.268300
3.437400 2.264500
3.462300 2.253900
3.487300 2.255300
3.512300 2.252700
3.537300 2.247000
3.562200 2.246500
3.587200 2.264000
3.612200 2.259600
3.637200 2.240600
3.662200 2.190900
3.687100 2.135000
3.712100 2.099200
3.737100 2.164900
3.762100 2.161300
3.787000 2.007100
3.812000 2.073600
3.837000 2.049200
3.862000 2.000100
3.887000 2.047700
3.911900 2.129200
3.936900 2.145200
3.961900 2.119100
3.986900 2.076100
4.011800 2.035300
4.036800 2.096000
4.061800 1.954700
4.086800 2.020900
4.111800 1.937600
4.136700 1.855600
4.161700 1.821900
4.186700 1.829900
4.211700 1.719300
4.236600 1.844100
4.261600 1.878500
4.286600 1.935100
4.311600 1.984400
4.336600 1.948600
4.361500 1.880300
4.386500 1.805900
4.411500 1.731800
4.436500 1.648300
4.461400 1.495500
4.486400 1.412500
4.511400 1.333900
4.536400 1.266000
4.561300 1.223000
4.586300 1.209000
4.611300 1.218000
4.636300 1.222700
4.661300 1.229000
4.686200 1.237800
4.711200 1.254600
4.736200 1.252100
4.761200 1.254100
4.786100 1.252300
4.811100 1.249700
4.836100 1.246000
4.861100 1.241000
4.886100 1.231600
4.911000 1.223900
4.936000 1.218100
4.961000 1.222800
4.986000 1.219800
5.010900 1.216500
5.035900 1.217700
5.060900 1.220300
5.085900 1.226300
5.110900 1.232800
5.135800 1.238400
5.160800 1.242500
5.185800 1.250000
5.210800 1.278200
5.235700 1.336600
5.260700 1.412700
5.285700 1.495300
5.310700 1.508400
5.335700 1.502900
5.360600 1.485000
5.385600 1.464500
5.410600 1.433700
5.435600 1.384500
5.460500 1.296500
5.485500 0.989400
5.510500 0.918400
5.535500 0.857100
5.560500 0.802900
5.585400 0.759300
5.610400 0.722800
5.635400 0.689000
5.660400 0.658200
5.685300 0.636300
5.710300 0.709900
5.735300 0.609200
5.760300 0.568300
5.785200 0.530300
5.810200 0.490000
5.835200 0.454000
5.860200 0.408900
5.885200 0.345500
5.910100 0.263500
5.935100 0.272300
5.960100 0.281300
5.985100 0.290400
6.010000 0.299600
6.035000 0.309300
6.060000 0.319300
6.085000 0.329400
6.110000 0.341300
6.134900 0.356000
6.159900 0.371800
6.184900 0.388600
6.209900 0.406600
6.234800 0.425700
6.259800 0.447500
6.284800 0.490600
6.309800 0.535900
6.334800 0.627000
6.359700 0.657700
6.384700 0.686500
6.409700 0.713300
6.434700 0.738300
6.459600 0.750400
6.484600 0.752900
6.509600 0.748400
6.534600 0.765600
6.559600 0.779800
6.584500 0.785400
6.609500 0.789200
6.634500 0.793900
6.659500 0.799800
6.684400 0.808900
6.709400 0.824000
6.734400 0.941000
6.759400 0.988200
6.784300 0.976700
6.809300 0.987200
6.834300 1.000300
6.859300 1.027800
6.884300 1.049300
6.909200 1.070700
6.934200 1.087700
6.959200 1.106800
6.984200 1.131300
7.009100 1.162100
7.034100 1.192300
7.059100 1.222100
7.084100 1.308900
7.109100 1.356900
7.134000 2.023300
7.159000 1.618800
7.184000 1.467300
7.209000 1.218500
7.233900 1.219000
7.258900 1.169100
7.283900 1.119200
7.308900 1.049100
7.333900 0.975600
7.358800 0.926700
7.383800 0.923800
7.408800 0.923800
7.433800 0.923800
7.458700 0.923200
7.483700 0.921600
7.508700 0.917500
7.533700 0.898100
7.558700 1.681600
7.583600 1.406800
7.608600 1.083500
7.633600 1.062300
7.658600 1.076300
7.683500 1.097300
7.708500 1.120600
7.733500 1.146200
7.758500 1.177000
7.783500 1.225600
7.808400 1.217200
7.833400 1.257600
7.858400 1.313700
7.883400 1.340900
7.908300 1.371000
7.933300 1.398200
7.958300 1.428900
7.983300 1.479800
8.008200 1.514800
8.033200 1.408100
8.058200 1.394900
8.083200 1.343500
8.108200 1.285900
8.133100 1.266000
8.158100 1.250600
8.183100 1.279900
8.208100 1.290000
8.233000 1.331500
8.258000 1.341100
8.283000 1.393900
8.308000 1.440900
8.333000 1.484400
8.357900 1.522600
8.382900 1.554100
8.407900 1.598500
8.432900 1.785300
8.457800 1.817900
8.482800 2.046400
8.507800 2.181700
8.532800 2.055800
8.557800 2.088700
8.582700 2.250700
8.607700 2.410100
8.632700 2.556100
8.657700 2.682800
8.682600 2.809300
8.707600 2.898100
8.732600 2.819000
8.757600 2.738900
8.782600 2.606400
8.807500 2.512500
8.832500 2.465800
8.857500 2.418400
8.882500 2.374200
8.907400 2.343200
8.932400 2.313800
8.957400 2.284100
8.982400 2.261700
9.007400 2.222300
9.032300 2.202400
9.057300 2.181800
9.082300 2.184400
9.107300 2.226600
9.132200 2.272100
9.157200 2.317100
9.182200 2.362400
9.207200 2.489700
9.232100 2.444300
9.257100 2.255700
9.282100 2.039500
9.307100 1.977600
9.332100 2.305500
9.357000 2.173900
9.382000 2.081400
9.407000 1.950300
9.432000 1.850800
9.456900 1.759700
9.481900 1.663700
9.506900 1.626600
9.531900 1.622400
9.556900 1.638500
9.581800 1.584600
9.606800 1.531100
9.631800 1.508000
9.656800 1.486500
9.681700 1.464700
9.706700 1.434400
9.731700 1.416900
9.756700 1.404700
9.781700 1.392100
9.806600 1.383200
9.831600 1.378900
9.856600 1.376400
9.881600 1.370100
9.906500 1.380300
9.931500 1.391900
9.956500 1.406400
9.981500 1.420200
10.006500 1.430900
10.031400 1.441500
10.056400 1.457900
10.081400 1.476600
10.106400 1.496500
10.131300 1.522100
10.156300 1.556800
10.181300 1.599700
10.206300 1.644100
10.231300 1.731200
10.256200 1.823000
10.281200 1.888500
10.306200 1.916500
10.331200 1.950200
10.356100 1.983600
10.381100 2.057000
10.406100 2.088400
10.431100 2.108500
10.456000 2.109500
10.481000 2.165300
10.506000 1.822200
10.531000 1.606300
10.556000 1.455700
10.580900 1.350500
10.605900 1.210600
10.630900 0.998200
10.655900 0.882400
10.680800 0.827300
10.705800 0.843200
10.730800 0.859700
10.755800 0.880500
10.780800 0.902700
10.805700 0.923200
10.830700 0.943500
10.855700 0.963800
10.880700 1.000300
10.905600 1.016100
10.930600 1.023500
10.955600 1.029300
10.980600 1.035200
11.005600 1.043100
11.030500 1.049900
11.055500 1.065300
11.080500 1.075000
11.105500 1.084100
11.130400 1.097300
11.155400 1.113600
11.180400 1.145000
11.205400 1.168600
11.230400 1.194800
11.255300 1.220600
11.280300 1.252000
11.305300 1.288600
11.330300 1.394900
11.355200 1.386700
11.380200 1.420800
11.405200 1.386100
11.430200 1.389800
11.455200 1.389300
11.480100 1.386400
11.505100 1.382900
11.530100 1.386100
11.555100 1.384800
11.580000 1.332600
11.605000 1.337600
11.630000 1.621300
11.655000 1.567800
11.679900 1.611800
11.704900 1.655400
11.729900 1.708700
11.754900 1.737800
11.779900 1.785200
11.804800 1.848100
11.829800 1.985000
11.854800 1.915200
11.879800 1.896300
11.904700 1.865300
11.929700 1.829100
11.954700 1.792900
11.979700 1.761500
12.004700 1.738200
12.029600 1.750500
12.054600 1.779600
12.079600 1.816000
12.104600 1.883600
12.129500 1.947800
12.154500 2.059400
12.179500 2.166800
12.204500 2.322300
12.229500 2.513600
12.254400 2.732200
12.279400 2.833100
12.304400 2.919100
12.329400 2.942500
12.354300 2.976500
12.379300 2.985100
12.404300 3.012400
12.429300 2.921600
12.454300 2.924700
12.479200 2.749700
12.504200 2.818700
12.529200 2.669600
12.554200 2.490200
12.579100 2.303600
12.604100 2.177100
12.629100 2.034700
12.654100 1.929100
12.679000 1.843700
12.704000 2.010100
12.729000 2.438500
12.754000 2.579600
12.779000 2.850100
12.803900 2.886900
12.828900 2.917300
12.853900 2.945700
12.878900 2.938000
12.903800 2.738900
12.928800 2.598600
12.953800 2.900300
12.978800 2.652900
13.003800 2.654100
13.028700 2.754200
13.053700 2.647600
13.078700 2.524300
13.103700 2.411500
13.128600 2.315200
13.153600 2.271700
13.178600 2.259400
13.203600 2.269500
13.228600 2.288100
13.253500 2.337200
13.278500 2.439600
13.303500 2.498100
13.328500 2.629800
13.353400 2.673600
13.378400 2.669400
13.403400 2.695900
13.428400 2.699100
13.453400 2.688800
13.478300 2.618800
13.503300 2.645600
13.528300 2.655400
13.553300 2.677100
13.578200 2.667900
13.603200 2.636300
13.628200 2.710800
13.653200 3.047500
13.678200 3.537200
13.703100 2.901400
13.728100 3.022200
13.753100 3.244600
13.778100 3.620800
13.803000 3.657200
13.828000 3.305800
13.853000 2.822700
13.878000 2.575300
13.902900 2.342700
13.927900 2.208400
13.952900 2.220000
13.977900 2.245100
14.002900 2.325700
14.027800 2.197700
14.052800 2.162500
14.077800 2.256100
14.102800 2.342200
14.127700 2.771000
14.152700 2.609600
14.177700 2.702300
14.202700 2.799600
14.227700 2.874000
14.252600 3.209200
14.277600 3.246500
14.302600 2.999200
14.327600 2.964700
14.352500 2.933400
14.377500 2.886500
14.402500 2.841000
14.427500 2.716500
14.452500 2.424800
14.477400 2.129600
14.502400 2.048000
14.527400 2.031800
14.552400 2.217500
14.577300 1.889500
14.602300 1.813900
14.627300 1.795600
14.652300 1.775600
14.677300 1.776000
14.702200 1.899200
14.727200 2.093100
14.752200 2.454400
14.777200 2.650800
14.802100 2.814200
14.827100 2.551800
14.852100 2.269200
14.877100 2.179200
14.902100 2.059800
14.927000 2.062000
14.952000 2.364600
14.977000 2.536800
15.002000 2.468600
15.026900 2.585400
15.051900 2.707500
15.076900 2.964100
15.101900 3.343900
15.126800 3.625700
15.151800 3.898300
15.176800 4.146500
15.201800 3.986800
15.226800 3.470300
15.251700 2.998500
15.276700 2.657500
15.301700 2.392200
15.326700 2.234300
15.351600 2.081100
15.376600 1.901200
15.401600 1.770800
15.426600 1.577100
15.451600 1.675100
15.476500 1.847900
15.501500 2.788700
15.526500 3.090500
15.551500 3.143900
15.576400 3.237600
15.601400 3.261600
15.626400 3.259400
15.651400 3.219800
15.676400 3.195300
15.701300 3.154800
15.726300 3.084200
15.751300 2.629300
15.776300 2.521500
15.801200 2.552800
15.826200 2.683800
15.851200 2.558900
15.876200 2.552600
15.901200 2.649300
15.926100 2.742800
15.951100 2.788900
15.976100 2.790300
16.001100 2.819400
16.026000 2.914600
16.051000 3.109200
16.076000 3.227800
16.101000 3.347100
16.126000 3.583100
16.150900 3.654400
16.175900 3.637500
16.200900 3.599300
16.225900 3.591800
16.250800 3.601900
16.275800 3.639900
16.300800 3.746700
16.325800 3.598800
16.350700 3.269000
16.375700 3.116500
16.400700 2.900700
16.425700 2.740400
16.450700 2.652500
16.475600 2.558300
16.500600 2.472100
16.525600 2.411700
16.550600 2.695500
16.575500 2.955700
16.600500 3.230800
16.625500 3.408900
16.650500 3.469700
16.675500 3.486000
16.700400 3.606600
16.725400 3.589900
16.750400 3.667600
16.775400 3.762000
16.800300 3.955200
16.825300 3.782200
16.850300 3.468400
16.875300 3.644500
16.900300 3.149600
16.925200 3.141700
16.950200 3.118800
16.975200 3.381300
17.000200 3.541700
17.025100 3.540400
17.050100 3.723800
17.075100 3.525200
17.100100 3.699100
17.125100 3.691300
17.150000 3.496200
17.175000 3.368700
17.200000 3.449600
17.225000 3.608500
17.249900 4.039300
17.274900 3.734300
17.299900 3.623300
17.324900 3.513400
17.349800 3.357900
17.374800 3.305600
17.399800 3.262200
17.424800 3.220100
17.449800 3.185100
17.474700 3.160800
17.499700 3.216600
17.524700 3.396400
17.549700 3.516500
17.574600 3.564300
17.599600 3.364800
17.624600 3.208400
17.649600 2.974500
17.674600 2.821300
17.699500 2.611400
17.724500 2.405500
17.749500 2.254400
17.774500 2.129600
17.799400 2.083700
17.824400 2.146300
17.849400 2.200000
17.874400 2.284600
17.899400 2.344900
17.924300 2.348500
17.949300 2.369800
17.974300 2.402300
17.999300 2.457300
18.024200 2.527700
18.049200 2.608800
18.074200 2.638500
18.099200 2.660800
18.124200 2.690100
18.149100 2.774600
18.174100 2.753600
18.199100 2.729800
18.224100 2.633200
18.249000 2.662600
18.274000 2.665400
18.299000 2.639400
18.324000 2.552800
18.349000 2.511900
18.373900 2.440500
18.398900 2.413200
18.423900 2.419000
18.448900 2.402600
18.473800 2.367800
18.498800 2.337000
18.523800 2.359100
18.548800 2.373200
18.573700 2.373100
18.598700 2.374400
18.623700 2.378000
18.648700 2.412400
18.673700 2.438500
18.698600 2.404900
18.723600 2.396000
18.748600 2.419000
18.773600 2.408700
18.798500 2.316500
18.823500 2.225400
18.848500 2.076800
18.873500 1.984400
18.898500 1.814400
18.923400 1.813200
18.948400 1.906400
18.973400 1.955500
18.998400 2.031400
19.023300 2.104200
19.048300 2.397500
19.073300 2.416600
19.098300 2.482900
19.123300 2.565500
19.148200 2.745300
19.173200 2.960600
19.198200 3.106300
19.223200 2.860800
19.248100 2.676900
19.273100 2.578200
19.298100 2.583400
19.323100 2.617400
19.348100 2.597200
19.373000 2.577000
19.398000 2.537600
19.423000 2.534000
19.448000 2.501000
19.472900 2.496500
19.497900 2.490000
19.522900 2.476700
19.547900 3.292800
19.572900 2.509600
19.597800 2.490400
19.622800 2.475400
19.647800 2.454300
19.672800 2.442100
19.697700 2.437400
19.722700 2.448100
19.747700 2.594000
19.772700 2.772500
19.797600 2.775300
19.822600 2.742200
19.847600 2.740600
19.872600 2.719400
19.897600 2.688100
19.922500 2.602900
19.947500 2.577800
19.972500 2.559200
19.997500 2.545800
20.022400 2.600300
20.047400 2.638400
20.072400 2.729700
20.097400 2.820000
20.122400 2.830500
20.147300 2.837700
20.172300 2.908200
20.197300 2.890700
20.222300 2.883800
20.247200 2.901700
20.272200 2.989400
20.297200 3.244200
20.322200 3.450000
20.347200 3.548200
20.372100 3.406300
20.397100 3.307300
20.422100 3.323800
20.447100 3.535500
20.472000 3.367600
20.497000 3.402100
20.522000 3.425200
20.547000 3.400100
20.572000 3.457200
20.596900 3.425300
20.621900 3.362800
20.646900 3.296100
20.671900 3.255400
20.696800 3.195800
20.721800 3.124500
20.746800 3.099200
20.771800 3.054400
20.796800 2.988300
20.821700 2.966400
20.846700 2.896300
20.871700 2.920600
20.896700 2.917100
20.921600 2.894700
20.946600 2.826200
20.971600 2.805500
20.996600 2.757300
21.021500 2.714200
21.046500 2.631200
21.071500 2.556800
21.096500 2.489800
21.121500 2.434600
21.146400 2.381600
21.171400 2.345100
21.196400 2.323900
21.221400 2.336300
21.246300 2.402900
21.271300 2.350200
21.296300 2.285000
21.321300 2.855900
21.346300 2.210300
21.371200 2.099600
21.396200 2.003300
21.421200 1.914700
21.446200 1.893500
21.471100 1.974300
21.496100 1.985100
21.521100 1.978500
21.546100 1.939000
21.571100 1.893300
21.596000 2.290700
21.621000 1.831800
21.646000 1.699800
21.671000 1.608500
21.695900 1.527600
21.720900 1.506500
21.745900 1.484400
21.770900 1.501100
21.795900 1.523700
21.820800 1.482500
21.845800 1.492300
21.870800 1.508300
21.895800 1.683400
21.920700 1.558800
21.945700 1.594900
21.970700 1.677700
21.995700 1.704400
22.020600 1.723100
22.045600 1.723800
22.070600 1.707200
22.095600 1.678700
22.120600 1.651100
22.145500 1.611800
22.170500 1.585400
22.195500 1.546600
22.220500 1.509700
22.245400 1.517300
22.270400 1.607400
22.295400 1.622600
22.320400 1.603300
22.345400 1.623500
22.370300 1.644200
22.395300 1.651000
22.420300 1.680700
22.445300 1.699800
22.470200 1.738500
22.495200 1.756900
22.520200 1.774700
22.545200 1.820600
22.570200 1.812600
22.595100 1.804400
22.620100 1.761300
22.645100 1.763300
22.670100 1.770400
22.695000 1.775700
22.720000 1.768600
22.745000 1.774400
22.770000 1.789600
22.795000 1.792300
22.819900 1.780100
22.844900 1.753700
22.869900 1.742700
22.894900 1.754800
22.919800 1.743200
22.944800 1.736800
22.969800 1.714200
22.994800 1.695700
23.019800 1.682900
23.044700 1.657900
23.069700 1.678500
23.094700 1.731400
23.119700 1.789200
23.144600 1.844600
23.169600 1.955300
23.194600 2.000400
23.219600 2.048600
23.244500 2.084800
23.269500 2.139000
23.294500 2.260700
23.319500 2.331000
23.344500 2.394700
23.369400 2.403200
23.394400 2.367200
23.419400 2.245800
23.444400 2.218800
23.469300 2.220700
23.494300 2.223600
23.519300 2.231900
23.544300 2.253800
23.569300 2.286900
23.594200 2.356900
23.619200 2.540700
23.644200 2.696600
23.669200 3.160700
23.694100 2.784300
23.719100 2.722700
23.744100 2.650700
23.769100 2.605400
23.794100 2.593400
23.819000 2.596200
23.844000 2.598900
23.869000 2.591600
23.894000 2.575700
23.918900 2.542400
23.943900 2.519200
23.968900 2.535700
23.993900 2.558800
24.018900 2.547200
24.043800 2.516400
24.068800 2.526600
24.093800 2.547100
24.118800 2.613000
24.143700 2.693100
24.168700 2.681500
24.193700 2.654100
24.218700 2.648600
24.243700 2.637600
24.268600 2.672300
24.293600 2.745700
24.318600 2.902800
24.343600 2.930400
24.368500 2.893500
24.393500 2.876000
24.418500 2.894100
24.443500 2.879900
24.468400 2.716300
24.493400 2.755800
24.518400 2.796300
24.543400 2.904800
24.568400 3.046700
24.593300 3.117400
24.618300 3.243600
24.643300 3.291700
24.668300 3.296900
24.693200 3.298700
24.718200 3.411300
24.743200 3.555300
24.768200 3.594000
24.793200 3.470700
24.818100 3.422900
24.843100 3.541700
24.868100 3.546100
24.893100 3.382000
24.918000 3.350400
24.943000 3.221100
24.968000 3.112400
24.993000 2.943700
25.018000 2.895600
25.042900 2.856700
25.067900 2.868100
25.092900 2.952500
25.117900 3.018900
25.142800 3.099900
25.167800 3.366200
25.192800 3.354000
25.217800 3.232300
25.242800 3.191800
25.267700 3.112600
25.292700 3.023600
25.317700 2.994800
25.342700 3.087900
25.367600 3.089100
25.392600 3.096500
25.417600 3.243500
25.442600 3.421800
25.467600 3.456400
25.492500 3.616400
25.517500 3.694400
25.542500 4.222800
25.567500 3.490300
25.592400 3.160800
25.617400 3.108800
25.642400 3.074300
25.667400 3.101200
25.692300 3.015700
25.717300 2.950200
25.742300 2.893800
25.767300 2.902800
25.792300 2.833100
25.817200 2.864300
25.842200 3.077600
25.867200 3.248100
25.892200 3.395500
25.917100 3.570300
25.942100 3.757700
25.967100 3.788200
25.992100 3.943500
26.017100 3.902800
26.042000 3.998900
26.067000 4.129100
26.092000 4.238300
26.117000 4.222500
26.141900 4.275900
26.166900 4.257100
26.191900 4.068100
26.216900 3.789800
26.241900 3.386500
26.266800 3.141600
26.291800 3.258800
26.316800 3.366900
26.341800 3.393200
26.366700 3.405300
26.391700 3.458000
26.416700 3.484900
26.441700 3.540600
26.466700 3.429500
26.491600 3.399000
26.516600 3.393700
26.541600 3.320800
26.566600 3.292400
26.591500 3.260100
26.616500 3.249700
26.641500 3.166800
26.666500 3.071000
26.691400 3.025900
26.716400 2.991400
26.741400 2.977300
26.766400 2.909000
26.791400 2.906300
26.816300 2.944600
26.841300 2.946900
26.866300 2.948200
26.891300 2.948500
26.916200 2.892700
26.941200 2.882300
26.966200 2.872200
26.991200 2.810500
27.016200 2.706000
27.041100 2.565000
27.066100 2.371900
27.091100 2.238000
27.116100 2.130400
27.141000 2.050200
27.166000 2.006200
27.191000 1.980000
27.216000 1.967800
27.241000 1.990500
27.265900 2.045500
27.290900 2.069900
27.315900 2.086700
27.340900 2.119500
27.365800 2.197700
27.390800 2.226200
27.415800 2.268800
27.440800 2.344000
27.465800 2.383500
27.490700 2.442400
27.515700 2.604100
27.540700 2.772400
27.565700 2.883900
27.590600 2.955400
27.615600 2.997200
27.640600 2.968800
27.665600 2.821200
27.690600 2.759300
27.715500 2.779400
27.740500 3.067200
27.765500 2.830200
27.790500 2.820100
27.815400 2.837000
27.840400 2.892100
27.865400 2.999600
27.890400 3.055300
27.915300 3.355500
27.940300 3.249600
27.965300 3.062100
27.990300 3.062800
28.015300 3.610200
28.040200 3.086600
28.065200 3.098800
28.090200 3.102900
28.115200 3.088000
28.140100 3.077200
28.165100 3.176800
28.190100 3.279400
28.215100 3.149800
28.240100 3.010700
28.265000 2.873800
28.290000 2.779000
28.315000 2.730400
28.340000 2.682700
28.364900 2.612100
28.389900 2.527900
28.414900 2.396300
28.439900 2.338500
28.464900 2.381200
28.489800 2.547700
28.514800 2.602300
28.539800 2.574700
28.564800 2.695600
28.589700 2.840500
28.614700 2.979300
28.639700 3.004900
28.664700 3.063900
28.689700 3.097400
28.714600 3.114200
28.739600 3.120200
28.764600 3.118600
28.789600 3.117800
28.814500 3.089900
28.839500 3.108700
28.864500 3.096900
28.889500 3.233200
28.914500 3.173400
28.939400 3.053500
28.964400 3.016700
28.989400 2.906500
29.014400 2.830600
29.039300 2.794500
29.064300 2.800100
29.089300 2.778500
29.114300 2.783400
29.139200 2.810000
29.164200 2.783000
29.189200 3.080200
29.214200 2.599700
29.239200 2.569500
29.264100 2.689400
29.289100 2.747800
29.314100 2.722200
29.339100 2.707400
29.364000 2.727800
29.389000 2.715000
29.414000 2.665500
29.439000 2.680000
29.464000 2.634000
29.488900 2.690200
29.513900 2.796900
29.538900 2.833100
29.563900 2.924100
29.588800 3.006600
29.613800 3.009000
29.638800 3.113100
29.663800 3.178300
29.688800 3.300900
29.713700 3.342800
29.738700 3.397800
29.763700 3.609800
29.788700 3.894200
29.813600 3.949400
29.838600 3.835800
29.863600 3.758900
29.888600 3.606500
29.913600 3.565600
29.938500 3.609600
29.963500 3.585400
29.988500 3.753200
30.013500 3.799700
30.038400 3.744600
30.063400 3.750300
30.088400 3.908400
30.113400 3.598900
30.138400 3.387600
30.163300 3.266200
30.188300 3.311500
30.213300 3.517400
30.238300 3.665100
30.263200 4.057200
30.288200 4.301900
30.313200 4.403300
30.338200 4.346700
30.363100 4.053300
30.388100 3.882900
30.413100 3.791400
30.438100 3.735300
30.463100 3.637900
30.488000 3.554900
30.513000 3.481200
30.538000 3.497700
30.563000 3.550100
30.587900 3.203300
30.612900 2.857100
30.637900 2.425200
30.662900 2.426700
30.687900 2.528000
30.712800 2.390600
30.737800 2.417300
30.762800 2.372400
30.787800 2.506600
30.812700 2.527400
30.837700 2.607400
30.862700 2.560900
30.887700 2.302800
30.912700 2.204100
30.937600 2.186800
30.962600 2.230100
30.987600 2.241600
31.012600 2.256700
31.037500 2.326300
31.062500 2.352200
31.087500 2.334300
31.112500 2.394300
31.137500 2.455800
31.162400 2.500600
31.187400 2.422800
31.212400 2.335300
31.237400 2.255600
31.262300 2.216700
31.287300 2.241300
31.312300 2.304600
31.337300 2.419000
31.362200 2.394000
31.387200 2.451100
31.412200 2.351800
31.437200 2.455200
31.462200 2.590400
31.487100 2.685100
31.512100 2.701800
31.537100 2.666500
31.562100 2.652900
31.587000 2.579200
31.612000 2.276200
31.637000 2.345400
31.662000 2.524900
31.687000 2.702500
31.711900 2.794900
31.736900 2.811200
31.761900 2.826300
31.786900 2.839300
31.811800 2.818800
31.836800 2.922400
31.861800 3.018500
31.886800 3.144900
31.911800 3.273800
31.936700 3.477100
31.961700 3.383700
31.986700 3.316000
32.011700 3.241900
32.036600 3.223600
32.061600 3.139100
32.086600 3.091500
32.111600 3.031600
32.136600 2.981200
32.161500 2.988300
32.186500 2.997900
32.211500 2.980900
32.236500 3.059600
32.261400 3.194900
32.286400 3.319200
32.311400 3.441300
32.336400 3.604300
32.361400 3.520300
32.386300 3.431000
32.411300 3.408900
32.436300 3.502500
32.461300 3.602200
32.486200 3.663800
32.511200 3.719800
32.536200 3.673500
32.561200 3.590400
32.586100 3.518900
32.611100 3.484900
32.636100 3.464000
32.661100 3.491200
32.686100 3.452500
32.711000 3.324900
32.736000 3.358600
32.761000 3.377500
32.786000 3.393500
32.810900 3.440900
32.835900 3.283200
32.860900 3.279600
32.885900 3.367900
32.910900 3.487500
32.935800 3.580700
32.960800 3.477400
32.985800 3.482300
33.010800 3.549700
33.035700 3.674500
33.060700 3.695500
33.085700 3.922000
33.110700 4.023900
33.135700 4.025000
33.160600 4.194200
33.185600 4.483800
33.210600 3.985100
33.235600 3.898600
33.260500 3.679100
33.285500 3.327100
33.310500 3.213500
33.335500 3.176100
33.360500 3.199000
33.385400 3.269900
33.410400 3.331500
33.435400 3.627400
33.460400 3.834300
33.485300 4.264400
33.510300 4.193100
33.535300 4.000600
33.560300 3.967100
33.585300 3.896100
33.610200 3.640100
33.635200 3.590800
33.660200 3.570100
33.685200 3.566000
33.710100 3.565400
33.735100 3.696100
33.760100 3.566000
33.785100 3.438200
33.810000 3.152300
33.835000 2.979700
33.860000 2.961800
33.885000 2.878800
33.910000 2.729100
33.934900 2.645000
33.959900 2.519300
33.984900 2.390400
34.009900 2.370200
34.034800 2.281500
34.059800 2.282800
34.084800 2.244600
34.109800 2.312600
34.134800 2.403600
34.159700 2.470900
34.184700 2.632500
34.209700 2.139700
34.234700 1.882200
34.259600 1.856100
34.284600 1.838800
34.309600 1.820100
34.334600 1.887100
34.359600 1.930900
34.384500 1.807600
34.409500 1.854100
34.434500 1.969300
34.459500 2.274300
34.484400 2.148700
34.509400 2.070600
34.534400 1.859000
34.559400 1.570500
34.584400 1.354900
34.609300 1.163300
34.634300 1.062700
34.659300 0.778300
34.684300 0.627000
34.709200 0.515300
34.734200 0.440600
34.759200 0.385200
34.784200 0.345300
34.809200 0.317700
34.834100 0.291300
34.859100 0.265900
34.884100 0.241500
34.909100 0.218300
34.934000 0.237200
34.959000 0.206500
34.984000 0.171600
35.009000 0.139300
35.033900 0.131200
35.058900 0.105500
35.083900 0.081600
35.108900 0.064700
35.133900 0.049200
35.158800 0.034800
35.183800 0.000000
35.208800 0.000000
35.233800 0.000000
35.258700 0.000000
35.283700 0.000000
35.308700 0.000000
35.333700 0.000000
35.358700 0.000000
35.383600 0.000000
35.408600 0.000000
35.433600 0.000000
35.458600 0.000000
35.483500 0.000000
35.508500 0.000000
35.533500 0.000000
35.558500 0.000000
35.583500 0.000000
35.608400 0.000000
35.633400 0.000000
35.658400 0.000000
35.683400 0.000000
35.708300 0.000000
35.733300 0.000000
35.758300 0.000000
35.783300 0.000000
35.808300 0.000000
35.833200 0.000000
35.858200 0.000000
35.883200 0.000000
35.908200 0.000000
35.933100 0.000000
35.958100 0.000000
35.983100 0.000000
36.008100 0.000000
36.033000 0.000000
36.058000 0.000000
36.083000 0.000000
36.108000 0.000000
36.133000 0.000000
36.157900 0.000000
36.182900 0.000000
36.207900 0.000000
36.232900 0.000000
36.257800 0.000000
36.282800 0.000000
36.307800 0.000000
36.332800 0.000000
36.357800 0.000000
36.382700 0.000000
36.407700 0.000000
36.432700 0.000000
36.457700 0.000000
36.482600 0.000000
36.507600 0.000000
36.532600 0.000000
36.557600 0.000000
36.582600 0.000000
36.607500 0.000000
36.632500 0.000000
36.657500 0.000000
36.682500 0.000000
36.707400 0.000000
36.732400 0.000000
36.757400 0.000000
36.782400 0.000000
36.807400 0.000000
36.832300 0.000000
36.857300 0.000000
36.882300 0.000000
36.907300 0.000000
36.932200 0.000000
36.957200 0.000000
36.982200 0.000000
37.007200 0.000000
37.032200 0.000000
37.057100 0.000000
37.082100 0.000000
37.107100 0.000000
37.132100 0.000000
37.157000 0.000000
37.182000 0.000000
37.207000 0.000000
37.232000 0.000000
37.256900 0.000000
37.281900 0.000000
37.306900 0.000000
37.331900 0.000000
37.356900 0.000000
37.381800 0.000000
37.406800 0.000000
37.431800 0.000000
e
