set title 'mp-1017541 - Density of States'
set xlabel 'Energy (eV)'
set ylabel 'DOS (states/eV)'
set grid
set xrange [-10:10]
set yrange [0:4.765]
set xzeroaxis lt -1
set terminal png size 800,600
set output 'mp-1017541_dos_gnuplot.png'
plot '-' using 1:2 with lines title 'DOS'
-48.495000 0.000000
-48.425200 0.000000
-48.355300 0.000000
-48.285400 0.000000
-48.215600 0.000000
-48.145700 0.000000
-48.075900 0.000000
-48.006000 0.000000
-47.936200 0.000000
-47.866300 0.000000
-47.796500 0.000000
-47.726600 0.000000
-47.656800 0.000000
-47.586900 0.000000
-47.517100 0.000000
-47.447200 0.000000
-47.377400 0.000000
-47.307500 0.000000
-47.237700 0.000000
-47.167800 0.000000
-47.097900 0.000000
-47.028100 0.000000
-46.958200 0.000000
-46.888400 0.000000
-46.818500 0.000000
-46.748700 0.000000
-46.678800 0.000000
-46.609000 0.000000
-46.539100 0.000000
-46.469300 0.000000
-46.399400 0.000000
-46.329600 0.000000
-46.259700 0.000000
-46.189900 0.000000
-46.120000 0.000000
-46.050200 0.000000
-45.980300 0.000000
-45.910500 0.000000
-45.840600 0.000000
-45.770700 0.000000
-45.700900 0.000000
-45.631000 0.000000
-45.561200 0.000000
-45.491300 0.000000
-45.421500 0.000000
-45.351600 0.000000
-45.281800 0.000000
-45.211900 0.000000
-45.142100 0.000000
-45.072200 0.000000
-45.002400 0.000000
-44.932500 0.000000
-44.862700 0.000000
-44.792800 0.000000
-44.723000 0.000000
-44.653100 0.000000
-44.583200 0.000000
-44.513400 0.000000
-44.443500 0.000000
-44.373700 0.000000
-44.303800 0.000000
-44.234000 0.000000
-44.164100 0.000000
-44.094300 0.000000
-44.024400 0.000000
-43.954600 0.000000
-43.884700 0.000000
-43.814900 0.000000
-43.745000 0.000000
-43.675200 0.000000
-43.605300 0.000000
-43.535500 0.000000
-43.465600 0.000000
-43.395700 0.000000
-43.325900 0.000000
-43.256000 0.000000
-43.186200 0.000000
-43.116300 0.000000
-43.046500 0.000000
-42.976600 0.000000
-42.906800 0.000000
-42.836900 0.000000
-42.767100 0.000000
-42.697200 0.000000
-42.627400 0.000000
-42.557500 0.000000
-42.487700 0.000000
-42.417800 0.000000
-42.348000 0.000000
-42.278100 0.000000
-42.208200 0.000000
-42.138400 4.495400
-42.068500 23.749500
-41.998700 0.000000
-41.928800 0.000000
-41.859000 0.000000
-41.789100 0.000000
-41.719300 0.000000
-41.649400 0.000000
-41.579600 0.000000
-41.509700 0.000000
-41.439900 0.000000
-41.370000 0.000000
-41.300200 0.000000
-41.230300 0.000000
-41.160500 0.000000
-41.090600 0.000000
-41.020800 0.000000
-40.950900 0.000000
-40.881000 0.000000
-40.811200 0.000000
-40.741300 0.000000
-40.671500 0.000000
-40.601600 0.000000
-40.531800 0.000000
-40.461900 0.000000
-40.392100 0.000000
-40.322200 0.000000
-40.252400 0.000000
-40.182500 0.000000
-40.112700 0.000000
-40.042800 0.000000
-39.973000 0.000000
-39.903100 0.000000
-39.833300 0.000000
-39.763400 0.000000
-39.693500 0.000000
-39.623700 0.000000
-39.553800 0.000000
-39.484000 0.000000
-39.414100 0.000000
-39.344300 0.000000
-39.274400 0.000000
-39.204600 0.000000
-39.134700 0.000000
-39.064900 0.000000
-38.995000 0.000000
-38.925200 0.000000
-38.855300 0.000000
-38.785500 0.000000
-38.715600 0.000000
-38.645800 0.000000
-38.575900 0.000000
-38.506000 0.000000
-38.436200 0.000000
-38.366300 0.000000
-38.296500 0.000000
-38.226600 0.000000
-38.156800 0.000000
-38.086900 0.000000
-38.017100 0.000000
-37.947200 0.000000
-37.877400 0.000000
-37.807500 0.000000
-37.737700 0.000000
-37.667800 0.000000
-37.598000 0.000000
-37.528100 0.000000
-37.458300 0.000000
-37.388400 0.000000
-37.318600 0.000000
-37.248700 0.000000
-37.178800 0.000000
-37.109000 0.000000
-37.039100 0.000000
-36.969300 0.000000
-36.899400 0.000000
-36.829600 0.000000
-36.759700 0.000000
-36.689900 0.000000
-36.620000 0.000000
-36.550200 0.000000
-36.480300 0.000000
-36.410500 0.000000
-36.340600 0.000000
-36.270800 0.000000
-36.200900 0.000000
-36.131100 0.000000
-36.061200 0.000000
-35.991300 0.000000
-35.921500 0.000000
-35.851600 0.000000
-35.781800 0.000000
-35.711900 0.000000
-35.642100 0.000000
-35.572200 0.000000
-35.502400 0.000000
-35.432500 0.000000
-35.362700 0.000000
-35.292800 0.000000
-35.223000 0.000000
-35.153100 0.000000
-35.083300 0.000000
-35.013400 0.000000
-34.943600 0.000000
-34.873700 0.000000
-34.803800 0.000000
-34.734000 0.000000
-34.664100 0.000000
-34.594300 0.000000
-34.524400 0.000000
-34.454600 0.000000
-34.384700 0.000000
-34.314900 0.000000
-34.245000 0.000000
-34.175200 0.000000
-34.105300 0.000000
-34.035500 0.000000
-33.965600 0.000000
-33.895800 0.000000
-33.825900 0.000000
-33.756100 0.000000
-33.686200 0.000000
-33.616300 0.000000
-33.546500 0.000000
-33.476600 0.000000
-33.406800 0.000000
-33.336900 0.000000
-33.267100 0.000000
-33.197200 0.000000
-33.127400 0.000000
-33.057500 0.000000
-32.987700 0.000000
-32.917800 0.000000
-32.848000 0.000000
-32.778100 0.000000
-32.708300 0.000000
-32.638400 0.000000
-32.568600 0.000000
-32.498700 0.000000
-32.428900 0.000000
-32.359000 0.000000
-32.289100 0.000000
-32.219300 0.000000
-32.149400 0.000000
-32.079600 0.000000
-32.009700 0.000000
-31.939900 0.000000
-31.870000 0.000000
-31.800200 0.000000
-31.730300 0.000000
-31.660500 0.000000
-31.590600 0.000000
-31.520800 0.000000
-31.450900 0.000000
-31.381100 0.000000
-31.311200 0.000000
-31.241400 0.000000
-31.171500 0.000000
-31.101600 0.000000
-31.031800 0.000000
-30.961900 0.000000
-30.892100 0.000000
-30.822200 0.000000
-30.752400 0.000000
-30.682500 0.000000
-30.612700 0.000000
-30.542800 0.000000
-30.473000 0.000000
-30.403100 0.000000
-30.333300 0.000000
-30.263400 0.000000
-30.193600 0.000000
-30.123700 0.000000
-30.053900 0.000000
-29.984000 0.000000
-29.914100 0.000000
-29.844300 0.000000
-29.774400 0.000000
-29.704600 0.000000
-29.634700 0.000000
-29.564900 0.000000
-29.495000 0.000000
-29.425200 0.000000
-29.355300 0.000000
-29.285500 0.000000
-29.215600 0.000000
-29.145800 0.000000
-29.075900 0.000000
-29.006100 0.000000
-28.936200 0.000000
-28.866400 0.000000
-28.796500 0.000000
-28.726700 0.000000
-28.656800 0.000000
-28.586900 0.000000
-28.517100 0.000000
-28.447200 0.000000
-28.377400 0.000000
-28.307500 0.000000
-28.237700 0.000000
-28.167800 0.000000
-28.098000 0.000000
-28.028100 0.000000
-27.958300 0.000000
-27.888400 0.000000
-27.818600 0.000000
-27.748700 0.000000
-27.678900 0.000000
-27.609000 0.000000
-27.539200 0.000000
-27.469300 0.000000
-27.399400 0.000000
-27.329600 0.000000
-27.259700 0.000000
-27.189900 0.000000
-27.120000 0.000000
-27.050200 0.000000
-26.980300 0.000000
-26.910500 0.000000
-26.840600 0.000000
-26.770800 0.000000
-26.700900 0.000000
-26.631100 0.000000
-26.561200 0.000000
-26.491400 0.000000
-26.421500 0.000000
-26.351700 0.000000
-26.281800 0.000000
-26.211900 0.000000
-26.142100 0.000000
-26.072200 0.000000
-26.002400 0.000000
-25.932500 0.000000
-25.862700 0.000000
-25.792800 0.000000
-25.723000 0.000000
-25.653100 0.000000
-25.583300 0.000000
-25.513400 0.000000
-25.443600 0.000000
-25.373700 0.000000
-25.303900 0.000000
-25.234000 0.000000
-25.164200 0.000000
-25.094300 0.000000
-25.024400 0.000000
-24.954600 0.000000
-24.884700 0.000000
-24.814900 0.000000
-24.745000 0.000000
-24.675200 0.000000
-24.605300 0.000000
-24.535500 0.000000
-24.465600 0.000000
-24.395800 0.000000
-24.325900 0.000000
-24.256100 0.000000
-24.186200 0.000000
-24.116400 0.000000
-24.046500 0.000000
-23.976700 0.000000
-23.906800 0.000000
-23.837000 0.000000
-23.767100 0.000000
-23.697200 0.000000
-23.627400 0.000000
-23.557500 0.000000
-23.487700 0.000000
-23.417800 0.000000
-23.348000 0.000000
-23.278100 0.000000
-23.208300 0.000000
-23.138400 0.000000
-23.068600 0.000000
-22.998700 0.000000
-22.928900 0.000000
-22.859000 0.000000
-22.789200 0.000000
-22.719300 0.000000
-22.649500 0.000000
-22.579600 0.000000
-22.509700 0.000000
-22.439900 0.000000
-22.370000 0.000000
-22.300200 0.000000
-22.230300 0.000000
-22.160500 0.000000
-22.090600 0.000000
-22.020800 0.000000
-21.950900 0.000000
-21.881100 0.000000
-21.811200 0.000000
-21.741400 0.000000
-21.671500 0.000000
-21.601700 0.000000
-21.531800 0.000000
-21.462000 0.000000
-21.392100 0.000000
-21.322200 0.000000
-21.252400 0.000000
-21.182500 0.000000
-21.112700 0.000000
-21.042800 0.000000
-20.973000 0.000000
-20.903100 0.000000
-20.833300 0.000000
-20.763400 0.000000
-20.693600 0.000000
-20.623700 1.895200
-20.553900 7.785500
-20.484000 6.210700
-20.414200 5.005200
-20.344300 6.879000
-20.274500 14.499200
-20.204600 17.013300
-20.134800 9.346200
-20.064900 5.983400
-19.995000 10.263400
-19.925200 3.779500
-19.855300 0.000000
-19.785500 0.000000
-19.715600 0.000000
-19.645800 0.000000
-19.575900 0.000000
-19.506100 0.000000
-19.436200 0.000000
-19.366400 0.000000
-19.296500 0.000000
-19.226700 0.000000
-19.156800 0.000000
-19.087000 0.000000
-19.017100 0.000000
-18.947300 0.000000
-18.877400 0.000000
-18.807500 0.000000
-18.737700 0.000000
-18.667800 0.000000
-18.598000 0.000000
-18.528100 0.000000
-18.458300 0.000000
-18.388400 0.000000
-18.318600 0.000000
-18.248700 0.000000
-18.178900 0.000000
-18.109000 0.000000
-18.039200 0.000000
-17.969300 0.000000
-17.899500 0.000000
-17.829600 0.000000
-17.759800 0.000000
-17.689900 0.000000
-17.620000 0.000000
-17.550200 0.000000
-17.480300 0.000000
-17.410500 0.000000
-17.340600 0.000000
-17.270800 0.000000
-17.200900 0.000000
-17.131100 0.000000
-17.061200 0.000000
-16.991400 0.000000
-16.921500 0.000000
-16.851700 0.000000
-16.781800 0.000000
-16.712000 0.000000
-16.642100 0.000000
-16.572300 0.000000
-16.502400 0.000000
-16.432500 0.000000
-16.362700 0.000000
-16.292800 0.000000
-16.223000 0.000000
-16.153100 0.000000
-16.083300 0.000000
-16.013400 0.000000
-15.943600 0.000000
-15.873700 0.000000
-15.803900 0.000000
-15.734000 0.000000
-15.664200 0.000000
-15.594300 0.000000
-15.524500 0.000000
-15.454600 0.000000
-15.384800 0.000000
-15.314900 0.000000
-15.245100 0.000000
-15.175200 0.000000
-15.105300 0.000000
-15.035500 0.000000
-14.965600 0.000000
-14.895800 0.000000
-14.825900 0.000000
-14.756100 0.000000
-14.686200 0.000000
-14.616400 0.000000
-14.546500 0.000000
-14.476700 0.000000
-14.406800 0.000000
-14.337000 0.000000
-14.267100 0.000000
-14.197300 0.000000
-14.127400 0.000000
-14.057600 0.000000
-13.987700 0.000000
-13.917800 0.000000
-13.848000 0.000000
-13.778100 0.000000
-13.708300 0.000000
-13.638400 0.000000
-13.568600 0.000000
-13.498700 0.000000
-13.428900 0.000000
-13.359000 0.000000
-13.289200 0.000000
-13.219300 0.000000
-13.149500 0.000000
-13.079600 0.000000
-13.009800 0.000000
-12.939900 0.000000
-12.870100 0.000000
-12.800200 0.000000
-12.730300 0.000000
-12.660500 0.000000
-12.590600 0.000000
-12.520800 0.000000
-12.450900 0.000000
-12.381100 0.000000
-12.311200 0.000000
-12.241400 0.000000
-12.171500 0.000000
-12.101700 0.000000
-12.031800 0.000000
-11.962000 0.000000
-11.892100 0.000000
-11.822300 0.000000
-11.752400 0.000000
-11.682600 0.000000
-11.612700 0.000000
-11.542800 0.000000
-11.473000 0.000000
-11.403100 0.000000
-11.333300 0.000000
-11.263400 0.000000
-11.193600 0.000000
-11.123700 0.000000
-11.053900 0.000000
-10.984000 0.000000
-10.914200 0.000000
-10.844300 0.000000
-10.774500 0.000000
-10.704600 0.000000
-10.634800 0.000000
-10.564900 0.000000
-10.495100 0.000000
-10.425200 0.000000
-10.355400 0.000000
-10.285500 0.000000
-10.215600 0.000000
-10.145800 0.000000
-10.075900 0.000000
-10.006100 0.000000
-9.936200 0.000000
-9.866400 0.000000
-9.796500 0.000000
-9.726700 0.000000
-9.656800 0.000000
-9.587000 0.000000
-9.517100 0.000000
-9.447300 0.000000
-9.377400 0.000000
-9.307600 0.000000
-9.237700 0.000000
-9.167900 0.000000
-9.098000 0.000000
-9.028100 0.000000
-8.958300 0.000000
-8.888400 0.000000
-8.818600 0.000000
-8.748700 0.000000
-8.678900 0.000000
-8.609000 0.000000
-8.539200 0.000000
-8.469300 0.000000
-8.399500 0.000000
-8.329600 0.000000
-8.259800 0.000000
-8.189900 0.000000
-8.120100 0.000000
-8.050200 0.000000
-7.980400 0.000000
-7.910500 0.000000
-7.840600 0.000000
-7.770800 0.000000
-7.700900 0.000000
-7.631100 0.000000
-7.561200 0.000000
-7.491400 0.000000
-7.421500 0.000000
-7.351700 0.000000
-7.281800 0.000000
-7.212000 0.000000
-7.142100 0.000000
-7.072300 0.000000
-7.002400 0.000000
-6.932600 0.000000
-6.862700 0.000000
-6.792900 0.000000
-6.723000 0.000000
-6.653200 0.000000
-6.583300 0.000000
-6.513400 0.000000
-6.443600 0.000000
-6.373700 0.000000
-6.303900 0.000000
-6.234000 0.000000
-6.164200 0.000000
-6.094300 0.000000
-6.024500 0.000000
-5.954600 0.000000
-5.884800 0.000000
-5.814900 0.000000
-5.745100 0.000000
-5.675200 0.000000
-5.605400 0.000000
-5.535500 0.000000
-5.465700 0.000000
-5.395800 0.000000
-5.325900 0.000000
-5.256100 0.000000
-5.186200 0.000000
-5.116400 0.000000
-5.046500 0.000000
-4.976700 0.000000
-4.906800 0.000000
-4.837000 0.000000
-4.767100 0.000000
-4.697300 0.000000
-4.627400 0.000000
-4.557600 0.000000
-4.487700 0.000000
-4.417900 0.000000
-4.348000 0.000000
-4.278200 0.000000
-4.208300 0.000000
-4.138400 0.000000
-4.068600 0.000000
-3.998700 0.000000
-3.928900 0.000000
-3.859000 0.000000
-3.789200 0.000000
-3.719300 0.000000
-3.649500 0.000000
-3.579600 0.000000
-3.509800 0.000000
-3.439900 0.000000
-3.370100 0.000000
-3.300200 0.000000
-3.230400 0.000000
-3.160500 0.000000
-3.090700 0.000000
-3.020800 0.000000
-2.950900 0.000000
-2.881100 0.000000
-2.811200 0.000000
-2.741400 0.000000
-2.671500 0.000000
-2.601700 0.000000
-2.531800 0.000000
-2.462000 0.000000
-2.392100 0.000000
-2.322300 0.000000
-2.252400 0.000000
-2.182600 0.000000
-2.112700 0.000000
-2.042900 0.000000
-1.973000 0.000000
-1.903200 0.000000
-1.833300 0.000000
-1.763500 0.000000
-1.693600 0.000000
-1.623700 0.000000
-1.553900 0.000000
-1.484000 0.000000
-1.414200 0.000000
-1.344300 0.000000
-1.274500 0.000000
-1.204600 0.000000
-1.134800 0.000000
-1.064900 0.004300
-0.995100 0.032500
-0.925200 0.054900
-0.855400 0.059200
-0.785500 0.071500
-0.715700 0.086900
-0.645800 0.098400
-0.576000 0.102900
-0.506100 0.111400
-0.436200 0.120500
-0.366400 0.129500
-0.296500 0.139200
-0.226700 0.151100
-0.156800 0.160100
-0.087000 0.167800
-0.017100 0.176200
0.052700 0.184400
0.122600 0.195300
0.192400 0.207300
0.262300 0.219300
0.332100 0.231700
0.402000 0.244000
0.471800 0.256800
0.541700 0.272300
0.611500 0.289300
0.681400 0.306300
0.751300 0.323600
0.821100 0.345200
0.891000 0.373700
0.960800 0.403300
1.030700 0.439500
1.100500 0.630100
1.170400 0.846600
1.240200 1.125500
1.310100 1.166700
1.379900 1.211600
1.449800 1.262400
1.519600 1.200700
1.589500 1.211100
1.659300 1.330600
1.729200 1.351400
1.799000 1.390200
1.868900 1.590600
1.938700 1.756200
2.008600 1.872200
2.078500 1.989900
2.148300 2.179600
2.218200 2.130400
2.288000 2.008700
2.357900 2.182400
2.427700 2.460000
2.497600 3.079900
2.567400 3.533400
2.637300 3.575100
2.707100 3.554000
2.777000 3.557500
2.846800 3.301400
2.916700 3.099300
2.986500 2.756000
3.056400 2.191500
3.126200 2.154700
3.196100 2.196300
3.266000 3.177700
3.335800 3.642300
3.405700 2.794000
3.475500 2.849500
3.545400 3.281400
3.615200 3.089200
3.685100 4.325400
3.754900 3.195500
3.824800 3.246800
3.894600 3.330400
3.964500 3.052400
4.034300 3.205000
4.104200 4.074000
4.174000 3.957700
4.243900 3.201000
4.313700 3.249100
4.383600 3.496900
4.453500 3.870400
4.523300 4.331700
4.593200 3.651300
4.663000 3.488500
4.732900 2.618900
4.802700 2.383400
4.872600 2.577800
4.942400 2.680500
5.012300 2.435800
5.082100 2.062100
5.152000 1.950000
5.221800 1.745300
5.291700 1.521800
5.361500 1.226300
5.431400 1.025300
5.501200 0.859700
5.571100 0.783500
5.641000 0.753600
5.710800 0.802100
5.780700 0.737000
5.850500 1.221300
5.920400 0.985600
5.990200 0.792900
6.060100 0.800800
6.129900 0.813900
6.199800 0.823100
6.269600 0.847500
6.339500 0.871500
6.409300 0.897200
6.479200 0.939400
6.549000 0.998200
6.618900 1.082900
6.688700 1.195600
6.758600 1.340100
6.828400 1.620400
6.898300 1.898000
6.968200 2.302500
7.038000 2.040400
7.107900 2.045900
7.177700 2.103700
7.247600 2.250300
7.317400 2.406900
7.387300 2.670700
7.457100 2.900300
7.527000 2.469800
7.596800 2.350600
7.666700 2.403300
7.736500 2.466400
7.806400 2.354200
7.876200 2.312500
7.946100 2.430300
8.015900 2.297700
8.085800 2.156200
8.155700 1.987400
8.225500 1.507200
8.295400 1.404600
8.365200 1.486700
8.435100 1.611700
8.504900 1.911400
8.574800 2.218400
8.644600 2.810500
8.714500 3.035000
8.784300 2.589800
8.854200 2.123000
8.924000 1.971100
8.993900 1.808100
9.063700 1.629000
9.133600 1.378500
9.203400 1.283000
9.273300 1.335900
9.343200 1.359100
9.413000 1.424700
9.482900 1.405700
9.552700 1.278300
9.622600 1.213000
9.692400 1.207200
9.762300 1.184800
9.832100 1.174900
9.902000 1.110300
9.971800 1.129200
10.041700 1.240000
10.111500 1.574800
10.181400 1.570200
10.251200 1.587800
10.321100 1.572700
10.390900 1.621200
10.460800 1.663200
10.530600 1.769100
10.600500 1.969700
10.670400 2.131900
10.740200 2.167200
10.810100 2.087600
10.879900 2.127700
10.949800 2.144100
11.019600 2.143700
11.089500 2.106900
11.159300 2.026100
11.229200 1.898000
11.299000 1.698300
11.368900 1.354000
11.438700 1.223300
11.508600 0.765200
11.578400 0.722800
11.648300 0.676600
11.718100 0.636100
11.788000 0.606300
11.857900 0.643700
11.927700 0.620600
11.997600 0.611500
12.067400 0.602300
12.137300 0.604300
12.207100 0.578900
12.277000 0.568600
12.346800 0.575700
12.416700 0.658300
12.486500 0.677900
12.556400 0.741200
12.626200 0.823600
12.696100 0.931200
12.765900 1.105600
12.835800 1.192000
12.905600 1.241400
12.975500 1.385100
13.045400 1.677900
13.115200 1.025300
13.185100 0.908900
13.254900 0.825100
13.324800 0.771900
13.394600 0.739400
13.464500 0.783900
13.534300 0.873700
13.604200 0.888100
13.674000 0.863200
13.743900 0.819300
13.813700 0.764100
13.883600 0.729500
13.953400 0.679300
14.023300 0.634900
14.093100 0.589200
14.163000 0.654900
14.232900 0.643200
14.302700 0.624300
14.372600 0.602600
14.442400 0.586800
14.512300 0.579300
14.582100 0.573700
14.652000 0.601900
14.721800 0.566300
14.791700 0.538100
14.861500 0.533800
14.931400 0.543500
15.001200 0.533500
15.071100 0.537600
15.140900 0.539200
15.210800 0.557300
15.280600 0.609000
15.350500 0.665700
15.420300 0.746000
15.490200 0.861100
15.560100 0.958200
15.629900 1.003900
15.699800 1.086600
15.769600 1.062500
15.839500 0.972300
15.909300 0.901300
15.979200 0.834000
16.049000 0.770000
16.118900 0.724600
16.188700 0.689100
16.258600 0.656000
16.328400 0.627500
16.398300 0.599300
16.468100 0.564900
16.538000 0.529200
16.607800 0.497500
16.677700 0.469700
16.747600 0.587000
16.817400 0.601300
16.887300 0.642400
16.957100 0.641900
17.027000 0.642700
17.096800 0.672900
17.166700 0.713200
17.236500 0.833800
17.306400 0.816900
17.376200 0.843600
17.446100 0.797500
17.515900 0.790600
17.585800 0.809900
17.655600 0.831700
17.725500 0.846500
17.795300 0.842500
17.865200 0.845600
17.935100 0.862300
18.004900 0.925600
18.074800 0.990200
18.144600 1.188900
18.214500 0.994700
18.284300 1.026200
18.354200 1.073900
18.424000 1.139400
18.493900 1.482100
18.563700 1.290000
18.633600 1.305600
18.703400 1.330200
18.773300 1.303800
18.843100 1.344400
18.913000 1.310800
18.982800 1.290300
19.052700 1.229800
19.122500 1.245400
19.192400 1.247900
19.262300 1.263000
19.332100 1.313900
19.402000 1.294600
19.471800 1.300200
19.541700 1.400400
19.611500 1.453400
19.681400 1.455400
19.751200 1.418200
19.821100 1.402900
19.890900 1.416600
19.960800 1.454000
20.030600 1.461900
20.100500 1.489600
20.170300 1.442300
20.240200 1.431800
20.310000 1.444200
20.379900 1.449100
20.449800 1.488100
20.519600 1.509100
20.589500 1.509200
20.659300 1.510200
20.729200 1.504400
20.799000 1.494900
20.868900 1.492100
20.938700 1.510300
21.008600 1.574300
21.078400 1.661100
21.148300 1.689000
21.218100 1.709800
21.288000 1.708900
21.357800 1.701600
21.427700 1.690900
21.497500 1.695500
21.567400 1.645500
21.637300 1.644100
21.707100 1.541800
21.777000 1.413800
21.846800 1.318300
21.916700 1.274900
21.986500 1.275900
22.056400 1.304900
22.126200 1.485400
22.196100 1.591100
22.265900 1.512000
22.335800 1.517400
22.405600 1.490800
22.475500 1.433300
22.545300 1.416500
22.615200 1.292700
22.685000 1.237500
22.754900 1.161500
22.824800 1.138300
22.894600 1.295300
22.964500 1.373300
23.034300 1.411000
23.104200 1.392600
23.174000 1.328800
23.243900 1.264400
23.313700 1.231600
23.383600 1.244600
23.453400 1.199500
23.523300 1.144100
23.593100 1.088800
23.663000 1.220300
23.732800 1.027000
23.802700 0.959700
23.872500 0.946000
23.942400 1.022000
24.012200 1.019600
24.082100 0.953800
24.152000 0.993500
24.221800 1.186100
24.291700 1.322000
24.361500 1.474700
24.431400 1.634000
24.501200 1.534000
24.571100 1.411100
24.640900 1.280800
24.710800 1.205600
24.780600 1.200800
24.850500 1.186600
24.920300 0.945300
24.990200 0.870100
25.060000 0.812600
25.129900 0.800200
25.199700 0.841600
25.269600 0.880700
25.339500 0.993600
25.409300 1.140900
25.479200 1.222900
25.549000 1.326100
25.618900 1.395800
25.688700 1.343400
25.758600 1.323500
25.828400 1.331000
25.898300 1.332700
25.968100 1.391500
26.038000 1.507900
26.107800 1.576100
26.177700 1.628900
26.247500 1.668100
26.317400 1.721200
26.387200 1.688600
26.457100 1.659100
26.527000 1.654000
26.596800 1.740000
26.666700 1.810300
26.736500 1.744900
26.806400 1.673900
26.876200 1.581400
26.946100 1.528700
27.015900 1.508700
27.085800 1.539600
27.155600 1.572600
27.225500 1.665800
27.295300 1.657900
27.365200 1.313000
27.435000 1.240100
27.504900 1.196900
27.574700 1.157600
27.644600 1.176700
27.714400 1.043500
27.784300 0.984600
27.854200 0.931500
27.924000 0.860400
27.993900 0.819500
28.063700 0.809900
28.133600 0.844600
28.203400 0.886900
28.273300 1.005900
28.343100 0.995100
28.413000 0.945700
28.482800 0.909500
28.552700 0.888800
28.622500 0.925700
28.692400 0.975400
28.762200 0.976100
28.832100 0.968700
28.901900 0.977700
28.971800 0.996300
29.041700 1.037300
29.111500 1.062700
29.181400 1.112900
29.251200 1.182300
29.321100 1.282200
29.390900 1.332200
29.460800 1.362000
29.530600 1.404000
29.600500 1.429800
29.670300 1.508500
29.740200 1.519500
29.810000 1.533700
29.879900 1.547400
29.949700 1.609500
30.019600 1.667300
30.089400 1.729500
30.159300 1.893200
30.229200 1.962000
30.299000 2.041400
30.368900 2.064900
30.438700 2.062700
30.508600 2.085400
30.578400 1.887100
30.648300 1.581600
30.718100 1.752800
30.788000 1.829300
30.857800 1.819300
30.927700 1.781700
30.997500 1.639400
31.067400 1.553400
31.137200 1.422800
31.207100 1.299800
31.276900 1.180600
31.346800 1.137900
31.416700 1.132100
31.486500 1.164100
31.556400 1.141400
31.626200 1.114100
31.696100 1.192400
31.765900 1.304300
31.835800 1.444900
31.905600 1.611500
31.975500 1.573900
32.045300 1.465900
32.115200 1.414400
32.185000 1.372200
32.254900 1.281700
32.324700 1.180500
32.394600 1.260100
32.464400 1.303800
32.534300 1.381800
32.604100 1.447700
32.674000 1.490200
32.743900 1.601700
32.813700 1.543400
32.883600 1.560900
32.953400 1.596300
33.023300 1.568800
33.093100 1.462600
33.163000 1.442500
33.232800 1.390900
33.302700 1.359900
33.372500 1.436300
33.442400 1.649700
33.512200 1.636400
33.582100 1.671100
33.651900 1.672900
33.721800 1.637800
33.791600 1.553600
33.861500 1.627200
33.931400 1.501500
34.001200 1.452400
34.071100 1.318800
34.140900 1.319200
34.210800 1.240700
34.280600 1.278000
34.350500 1.306100
34.420300 1.385000
34.490200 1.516700
34.560000 1.635900
34.629900 1.760100
34.699700 1.908600
34.769600 1.932900
34.839400 2.008100
34.909300 2.003300
34.979100 1.902300
35.049000 1.806600
35.118900 1.535100
35.188700 1.308200
35.258600 1.103300
35.328400 1.090900
35.398300 1.177100
35.468100 1.382400
35.538000 1.535400
35.607800 1.664400
35.677700 1.561200
35.747500 1.533100
35.817400 1.486800
35.887200 1.421700
35.957100 1.477700
36.026900 1.613000
36.096800 1.773900
36.166600 1.737600
36.236500 1.767800
36.306400 1.761300
36.376200 1.790000
36.446100 1.856900
36.515900 1.995800
36.585800 2.068600
36.655600 1.944700
36.725500 1.857200
36.795300 1.800700
36.865200 1.739400
36.935000 1.714300
37.004900 1.682800
37.074700 1.747500
37.144600 1.825200
37.214400 1.926000
37.284300 1.991400
37.354100 2.082600
37.424000 2.271900
37.493800 2.307400
37.563700 2.200500
37.633600 2.026500
37.703400 1.910500
37.773300 1.946000
37.843100 1.938400
37.913000 1.901400
37.982800 1.901900
38.052700 1.955200
38.122500 1.978100
38.192400 2.035400
38.262200 2.125400
38.332100 2.161900
38.401900 2.119400
38.471800 2.114500
38.541600 2.078100
38.611500 2.042000
38.681300 1.959600
38.751200 1.959500
38.821100 1.967200
38.890900 1.986300
38.960800 2.086500
39.030600 2.283900
39.100500 2.820200
39.170300 3.582400
39.240200 4.331300
39.310000 4.526800
39.379900 5.426000
39.449700 9.862200
39.519600 10.989800
39.589400 16.311900
39.659300 10.301600
39.729100 8.124700
39.799000 4.930100
39.868800 3.828400
39.938700 2.841700
40.008600 2.452200
40.078400 2.234100
40.148300 2.196200
40.218100 2.128000
40.288000 1.941900
40.357800 1.959000
40.427700 1.971400
40.497500 1.929600
40.567400 1.892900
40.637200 1.794800
40.707100 1.725200
40.776900 1.500100
40.846800 1.339400
40.916600 1.250000
40.986500 1.233800
41.056300 1.238800
41.126200 1.255000
41.196000 1.235300
41.265900 1.306400
41.335800 1.409700
41.405600 1.585400
41.475500 1.620800
41.545300 1.718500
41.615200 1.948800
41.685000 1.757000
41.754900 1.571200
41.824700 1.599100
41.894600 1.659300
41.964400 1.806300
42.034300 1.935300
42.104100 2.063400
42.174000 2.141300
42.243800 1.998800
42.313700 1.827300
42.383500 1.705800
42.453400 1.695600
42.523300 1.728000
42.593100 1.767500
42.663000 1.774600
42.732800 1.730500
42.802700 1.736400
42.872500 1.786600
42.942400 1.864600
43.012200 2.006000
43.082100 2.047800
43.151900 2.133800
43.221800 2.008800
43.291600 2.008200
43.361500 1.967600
43.431300 1.914100
43.501200 1.909700
43.571000 1.950700
43.640900 1.867300
43.710800 1.865500
43.780600 1.885700
43.850500 1.947800
43.920300 1.975000
43.990200 1.989000
44.060000 1.917100
44.129900 1.667000
44.199700 1.568400
44.269600 1.568400
44.339400 1.558600
44.409300 1.574500
44.479100 1.613300
44.549000 1.709500
44.618800 1.741300
44.688700 1.765800
44.758500 1.754300
44.828400 1.736800
44.898300 1.699100
44.968100 1.706300
45.038000 1.695300
45.107800 1.745100
45.177700 1.731600
45.247500 1.726300
45.317400 1.736100
45.387200 1.782800
45.457100 1.840100
45.526900 1.932700
45.596800 1.973300
45.666600 1.995300
45.736500 2.048300
45.806300 2.047900
45.876200 2.121500
45.946000 2.206900
46.015900 2.218400
46.085700 2.001700
46.155600 1.839100
46.225500 1.868500
46.295300 1.915900
46.365200 2.009200
46.435000 2.099300
46.504900 1.884400
46.574700 1.868200
46.644600 1.954100
46.714400 1.982100
46.784300 1.945000
46.854100 1.879900
46.924000 1.857100
46.993800 1.822100
47.063700 1.840200
47.133500 1.824800
47.203400 1.772900
47.273200 1.770000
47.343100 1.817800
47.413000 1.823200
47.482800 1.836200
47.552700 1.839500
47.622500 1.865600
47.692400 1.979700
47.762200 2.113500
47.832100 2.278600
47.901900 2.311600
47.971800 2.317900
48.041600 2.336200
48.111500 1.953000
48.181300 1.924200
48.251200 2.057600
48.321000 2.085600
48.390900 2.323000
48.460700 2.456300
48.530600 2.637500
48.600500 2.573600
48.670300 2.519800
48.740200 2.591300
48.810000 2.584300
48.879900 2.506500
48.949700 2.508700
49.019600 2.685600
49.089400 2.845500
49.159300 2.960900
49.229100 2.835000
49.299000 2.664200
49.368800 2.645900
49.438700 2.350400
49.508500 2.089100
49.578400 1.961100
49.648200 1.950100
49.718100 2.085900
49.787900 2.200100
49.857800 2.309600
49.927700 2.264400
49.997500 2.174200
50.067400 2.161300
50.137200 2.244200
50.207100 2.332200
50.276900 2.435200
50.346800 2.518500
50.416600 2.432000
50.486500 2.360600
50.556300 2.059100
50.626200 1.883600
50.696000 1.919100
50.765900 2.090300
50.835700 2.051800
50.905600 1.969400
50.975400 1.910200
51.045300 1.802900
51.115200 1.752800
51.185000 1.728800
51.254900 1.673800
51.324700 1.637200
51.394600 1.553300
51.464400 1.503800
51.534300 1.488400
51.604100 1.542100
51.674000 1.649900
51.743800 1.845600
51.813700 1.881600
51.883500 1.841600
51.953400 1.759600
52.023200 1.759300
52.093100 1.748900
52.162900 1.739500
52.232800 1.793800
52.302700 1.957700
52.372500 2.037300
52.442400 2.073800
52.512200 1.949700
52.582100 1.864000
52.651900 1.848100
52.721800 1.824300
52.791600 1.806000
52.861500 1.831300
52.931300 1.749500
53.001200 1.573200
53.071000 1.514400
53.140900 1.500600
53.210700 1.558900
53.280600 1.665500
53.350400 1.770000
53.420300 1.807000
53.490200 1.848100
53.560000 1.880600
53.629900 1.946500
53.699700 1.889300
53.769600 1.877600
53.839400 1.938600
53.909300 2.009600
53.979100 2.127200
54.049000 2.099000
54.118800 2.044900
54.188700 2.041100
54.258500 2.106500
54.328400 2.016700
54.398200 1.878100
54.468100 1.785500
54.537900 1.732300
54.607800 1.725200
54.677600 1.722000
54.747500 1.716900
54.817400 1.755900
54.887200 1.813900
54.957100 1.882500
55.026900 1.960400
55.096800 2.126300
55.166600 2.043000
55.236500 2.149700
55.306300 2.134200
55.376200 2.154000
55.446000 2.144400
55.515900 2.108100
55.585700 2.113900
55.655600 2.071100
55.725400 2.005300
55.795300 1.983600
55.865100 1.976400
55.935000 2.058100
56.004900 2.049900
56.074700 2.074500
56.144600 2.065000
56.214400 2.104600
56.284300 2.153200
56.354100 2.287700
56.424000 2.190000
56.493800 2.326500
56.563700 2.277900
56.633500 2.340700
56.703400 2.312500
56.773200 2.193700
56.843100 2.021800
56.912900 1.930300
56.982800 1.934700
57.052600 2.011200
57.122500 2.064600
57.192400 2.024800
57.262200 1.923100
57.332100 1.996600
57.401900 2.054500
57.471800 2.105300
57.541600 2.157400
57.611500 2.108100
57.681300 2.210400
57.751200 2.340400
57.821000 2.404600
57.890900 2.604800
57.960700 2.432000
58.030600 2.224100
58.100400 2.187100
58.170300 2.194800
58.240100 2.106800
58.310000 2.010100
58.379800 1.936500
58.449700 1.895800
58.519600 1.814100
58.589400 1.833400
58.659300 1.922200
58.729100 2.166800
58.799000 2.092300
58.868800 2.026000
58.938700 2.016400
59.008500 2.027600
59.078400 2.022900
59.148200 2.022500
59.218100 2.062000
59.287900 1.914300
59.357800 1.946900
59.427600 1.925700
59.497500 1.929800
59.567300 2.063100
59.637200 2.117300
59.707100 2.163900
59.776900 2.236200
59.846800 2.264700
59.916600 2.255600
59.986500 2.230600
60.056300 2.198700
60.126200 2.138600
60.196000 2.136700
60.265900 2.163100
60.335700 2.175600
60.405600 2.232000
60.475400 2.172000
60.545300 2.196100
60.615100 2.324000
60.685000 2.385300
60.754800 2.415900
60.824700 2.272100
60.894600 2.215200
60.964400 2.151100
61.034300 2.142300
61.104100 2.169800
61.174000 2.112600
61.243800 2.148200
61.313700 2.268800
61.383500 2.232400
61.453400 2.286900
61.523200 2.301300
61.593100 2.316800
61.662900 2.232600
61.732800 2.065400
61.802600 1.878100
61.872500 1.736100
61.942300 1.680700
62.012200 1.548300
62.082100 1.520200
62.151900 1.580000
62.221800 1.648200
62.291600 1.761300
62.361500 1.887200
62.431300 2.209100
62.501200 2.451200
62.571000 2.414900
62.640900 2.342500
62.710700 2.210300
62.780600 2.081900
62.850400 2.036500
62.920300 1.874400
62.990100 1.909700
63.060000 1.960200
63.129800 2.047900
63.199700 2.154500
63.269500 2.238300
63.339400 2.209700
63.409300 2.217500
63.479100 2.194900
63.549000 2.139100
63.618800 2.079000
63.688700 2.076100
63.758500 2.026600
63.828400 1.979000
63.898200 1.978600
63.968100 2.033000
64.037900 2.063400
64.107800 2.072700
64.177600 2.114500
64.247500 2.162600
64.317300 2.291500
64.387200 2.456800
64.457000 2.508400
64.526900 2.433700
64.596800 2.365800
64.666600 2.219000
64.736500 2.078000
64.806300 1.959000
64.876200 1.880900
64.946000 1.876400
65.015900 1.885000
65.085700 1.835000
65.155600 1.786800
65.225400 1.746400
65.295300 1.765900
65.365100 1.822900
65.435000 1.862100
65.504800 1.882800
65.574700 1.975000
65.644500 2.011700
65.714400 1.907700
65.784300 1.854300
65.854100 1.910100
65.924000 2.018900
65.993800 2.145700
66.063700 2.118600
66.133500 2.122100
66.203400 2.170400
66.273200 2.232400
66.343100 2.085900
66.412900 1.885500
66.482800 1.751200
66.552600 1.664900
66.622500 1.675600
66.692300 1.648200
66.762200 1.752500
66.832000 1.858600
66.901900 2.059100
66.971700 2.231000
67.041600 2.326400
67.111500 2.381000
67.181300 2.236400
67.251200 2.114600
67.321000 2.033700
67.390900 1.995000
67.460700 2.014300
67.530600 2.052200
67.600400 2.091900
67.670300 2.176000
67.740100 2.188900
67.810000 2.115100
67.879800 2.059900
67.949700 2.009800
68.019500 2.107800
68.089400 2.087900
68.159200 2.073800
68.229100 2.062900
68.299000 2.049600
68.368800 2.019100
68.438700 2.022900
68.508500 2.078400
68.578400 2.152300
68.648200 2.160200
68.718100 2.142400
68.787900 2.115100
68.857800 2.145800
68.927600 2.274800
68.997500 2.258500
69.067300 2.253600
69.137200 2.239700
69.207000 2.241300
69.276900 2.114000
69.346700 1.981400
69.416600 1.938600
69.486500 1.886800
69.556300 1.904400
69.626200 1.955200
69.696000 2.035400
69.765900 2.075500
69.835700 2.101500
69.905600 2.137400
69.975400 2.255200
70.045300 2.280200
70.115100 2.151400
70.185000 2.141900
70.254800 2.157200
70.324700 2.166700
70.394500 2.181200
70.464400 2.184400
70.534200 2.169900
70.604100 2.153600
70.674000 2.145200
70.743800 2.117700
70.813700 2.098900
70.883500 2.108400
70.953400 2.130300
71.023200 2.102400
71.093100 2.132500
71.162900 2.158500
71.232800 2.203100
71.302600 2.256500
71.372500 2.326700
71.442300 2.405300
71.512200 2.376600
71.582000 2.362100
71.651900 2.155600
71.721700 2.068600
71.791600 2.004100
71.861400 1.942300
71.931300 2.043600
72.001200 2.186100
72.071000 2.238100
72.140900 2.351100
72.210700 2.481500
72.280600 2.262200
72.350400 2.091300
72.420300 1.982400
72.490100 1.925000
72.560000 1.928300
72.629800 2.050400
72.699700 2.144800
72.769500 2.228000
72.839400 2.294400
72.909200 2.396700
72.979100 2.447600
73.048900 2.569000
73.118800 2.471400
73.188700 2.374900
73.258500 2.337800
73.328400 2.225900
73.398200 2.174600
73.468100 2.135900
73.537900 2.157600
73.607800 2.182300
73.677600 2.245800
73.747500 2.404900
73.817300 2.226400
73.887200 2.176800
73.957000 2.162600
74.026900 2.222800
74.096700 2.291000
74.166600 2.261800
74.236400 2.243000
74.306300 2.262200
74.376200 2.422700
74.446000 2.452200
74.515900 2.399700
74.585700 2.320500
74.655600 2.248600
74.725400 2.191800
74.795300 2.117000
74.865100 2.019800
74.935000 1.974700
75.004800 2.004200
75.074700 2.080200
75.144500 2.105800
75.214400 2.149700
75.284200 2.135900
75.354100 2.134300
75.423900 2.129100
75.493800 2.116200
75.563600 2.129000
75.633500 2.072000
75.703400 2.011200
75.773200 2.098400
75.843100 2.177700
75.912900 2.244700
75.982800 2.264500
76.052600 2.278200
76.122500 2.283200
76.192300 2.271700
76.262200 2.202600
76.332000 2.140000
76.401900 2.037200
76.471700 2.056100
76.541600 2.088900
76.611400 2.127500
76.681300 2.122200
76.751100 2.103500
76.821000 2.160100
76.890900 2.272100
76.960700 2.233800
77.030600 2.204800
77.100400 2.181700
77.170300 2.136700
77.240100 2.103500
77.310000 2.032200
77.379800 1.984400
77.449700 1.957200
77.519500 2.002200
77.589400 2.153800
77.659200 2.221400
77.729100 2.185200
77.798900 2.272700
77.868800 2.328400
77.938600 2.438700
78.008500 2.526300
78.078400 2.464900
78.148200 2.265600
78.218100 2.185100
78.287900 2.200700
78.357800 2.200000
78.427600 2.238200
78.497500 2.181000
78.567300 2.244300
78.637200 2.268100
78.707000 2.268800
78.776900 2.339600
78.846700 2.441400
78.916600 2.551800
78.986400 2.553500
79.056300 2.499500
79.126100 2.469100
79.196000 2.453700
79.265900 2.290700
79.335700 2.285300
79.405600 2.263900
79.475400 2.287700
79.545300 2.381400
79.615100 2.361400
79.685000 2.339400
79.754800 2.338800
79.824700 2.235000
79.894500 2.142700
79.964400 2.060500
80.034200 2.090900
80.104100 2.094700
80.173900 2.104300
80.243800 2.077700
80.313600 2.067500
80.383500 2.103300
80.453300 2.165600
80.523200 2.260100
80.593100 2.256400
80.662900 2.308200
80.732800 2.123000
80.802600 2.187600
80.872500 2.105900
80.942300 2.039300
81.012200 1.967500
81.082000 1.966900
81.151900 2.034200
81.221700 1.977500
81.291600 1.926300
81.361400 1.863400
81.431300 1.819800
81.501100 1.785500
81.571000 1.749800
81.640800 1.668300
81.710700 1.573500
81.780600 1.551700
81.850400 1.670200
81.920300 1.716600
81.990100 1.692900
82.060000 1.705200
82.129800 1.627400
82.199700 1.514800
82.269500 1.443700
82.339400 1.492000
82.409200 1.518300
82.479100 1.539900
82.548900 1.507700
82.618800 1.431600
82.688600 1.292600
82.758500 1.169800
82.828300 1.068600
82.898200 1.002200
82.968100 0.967700
83.037900 0.867700
83.107800 0.868300
83.177600 0.780600
83.247500 0.689700
83.317300 0.608100
83.387200 0.499500
83.457000 0.428900
83.526900 0.361300
83.596700 0.308900
83.666600 0.270400
83.736400 0.234600
83.806300 0.193400
83.876100 0.166200
83.946000 0.140100
84.015800 0.121100
84.085700 0.111600
84.155600 0.100900
84.225400 0.090800
84.295300 0.080500
84.365100 0.069100
84.435000 0.070600
84.504800 0.128800
84.574700 0.020800
84.644500 0.015100
84.714400 0.009300
84.784200 0.003700
84.854100 0.000100
84.923900 0.000000
84.993800 0.000000
85.063600 0.000000
85.133500 0.000000
85.203300 0.000000
85.273200 0.000000
85.343000 0.000000
85.412900 0.000000
85.482800 0.000000
85.552600 0.000000
85.622500 0.000000
85.692300 0.000000
85.762200 0.000000
85.832000 0.000000
85.901900 0.000000
85.971700 0.000000
86.041600 0.000000
86.111400 0.000000
86.181300 0.000000
86.251100 0.000000
86.321000 0.000000
86.390800 0.000000
86.460700 0.000000
86.530500 0.000000
86.600400 0.000000
86.670300 0.000000
86.740100 0.000000
86.810000 0.000000
86.879800 0.000000
86.949700 0.000000
87.019500 0.000000
87.089400 0.000000
87.159200 0.000000
87.229100 0.000000
87.298900 0.000000
87.368800 0.000000
87.438600 0.000000
87.508500 0.000000
87.578300 0.000000
87.648200 0.000000
87.718000 0.000000
87.787900 0.000000
87.857800 0.000000
87.927600 0.000000
87.997500 0.000000
88.067300 0.000000
88.137200 0.000000
88.207000 0.000000
88.276900 0.000000
88.346700 0.000000
88.416600 0.000000
88.486400 0.000000
88.556300 0.000000
88.626100 0.000000
88.696000 0.000000
88.765800 0.000000
88.835700 0.000000
88.905500 0.000000
88.975400 0.000000
89.045200 0.000000
89.115100 0.000000
89.185000 0.000000
89.254800 0.000000
89.324700 0.000000
89.394500 0.000000
89.464400 0.000000
89.534200 0.000000
89.604100 0.000000
89.673900 0.000000
89.743800 0.000000
89.813600 0.000000
89.883500 0.000000
89.953300 0.000000
90.023200 0.000000
90.093000 0.000000
90.162900 0.000000
90.232700 0.000000
90.302600 0.000000
90.372500 0.000000
90.442300 0.000000
90.512200 0.000000
90.582000 0.000000
90.651900 0.000000
90.721700 0.000000
90.791600 0.000000
90.861400 0.000000
90.931300 0.000000
91.001100 0.000000
91.071000 0.000000
91.140800 0.000000
91.210700 0.000000
e
