set title 'mp-24 - Density of States'
set xlabel 'Energy (eV)'
set ylabel 'DOS (states/eV)'
set grid
set xrange [-10:10]
set yrange [0:5.005]
set xzeroaxis lt -1
set terminal png size 800,600
set output 'mp-24_dos_gnuplot.png'
plot '-' using 1:2 with lines title 'DOS'
-14.313300 0.000000
-14.282700 0.000000
-14.252200 0.000000
-14.221600 0.000000
-14.191000 0.000000
-14.160400 0.000000
-14.129900 0.000000
-14.099300 0.000000
-14.068700 0.000000
-14.038100 0.000000
-14.007600 0.000000
-13.977000 0.000000
-13.946400 0.000000
-13.915800 0.000000
-13.885200 0.000000
-13.854700 0.000000
-13.824100 0.000000
-13.793500 0.000000
-13.762900 0.000000
-13.732400 0.000000
-13.701800 0.000000
-13.671200 0.000000
-13.640600 0.000000
-13.610100 0.000000
-13.579500 0.000000
-13.548900 0.000000
-13.518300 0.000000
-13.487700 0.000000
-13.457200 0.000000
-13.426600 0.000000
-13.396000 0.000000
-13.365400 0.000000
-13.334900 0.000000
-13.304300 0.000000
-13.273700 0.000000
-13.243100 0.000000
-13.212600 0.000000
-13.182000 0.000000
-13.151400 0.000000
-13.120800 0.000000
-13.090200 0.000000
-13.059700 0.000000
-13.029100 0.000000
-12.998500 0.000000
-12.967900 0.000000
-12.937400 0.000000
-12.906800 0.000000
-12.876200 0.000000
-12.845600 0.000000
-12.815100 0.000000
-12.784500 0.000000
-12.753900 0.000000
-12.723300 0.000000
-12.692700 0.000000
-12.662200 0.000000
-12.631600 0.000000
-12.601000 0.000000
-12.570400 0.000000
-12.539900 0.000000
-12.509300 0.000000
-12.478700 0.000000
-12.448100 0.000000
-12.417600 0.000000
-12.387000 0.000000
-12.356400 0.000000
-12.325800 0.000000
-12.295200 0.000000
-12.264700 0.000000
-12.234100 0.000000
-12.203500 0.000000
-12.172900 0.000000
-12.142400 0.000000
-12.111800 0.000000
-12.081200 0.000000
-12.050600 0.000000
-12.020100 0.000000
-11.989500 0.000000
-11.958900 0.000000
-11.928300 0.000000
-11.897700 0.000000
-11.867200 0.000000
-11.836600 0.000000
-11.806000 0.000000
-11.775400 0.000000
-11.744900 0.000000
-11.714300 0.000000
-11.683700 0.000000
-11.653100 0.000000
-11.622600 0.000000
-11.592000 0.000000
-11.561400 0.000000
-11.530800 0.066200
-11.500200 0.092700
-11.469700 0.116500
-11.439100 0.137500
-11.408500 0.155700
-11.377900 0.171200
-11.347400 0.185100
-11.316800 0.213100
-11.286200 0.236600
-11.255600 0.255800
-11.225100 0.270700
-11.194500 0.281300
-11.163900 0.259700
-11.133300 0.270200
-11.102800 0.280900
-11.072200 0.291800
-11.041600 0.303000
-11.011000 0.314400
-10.980400 0.326000
-10.949900 0.337900
-10.919300 0.350000
-10.888700 0.362400
-10.858100 0.375000
-10.827600 0.387800
-10.797000 0.390200
-10.766400 0.399800
-10.735800 0.408600
-10.705300 0.416400
-10.674700 0.423300
-10.644100 0.429200
-10.613500 0.433900
-10.582900 0.436400
-10.552400 0.439500
-10.521800 0.443400
-10.491200 0.447900
-10.460600 0.453100
-10.430100 0.459300
-10.399500 0.467400
-10.368900 0.475600
-10.338300 0.484100
-10.307800 0.492800
-10.277200 0.501700
-10.246600 0.510700
-10.216000 0.520000
-10.185400 0.529500
-10.154900 0.539100
-10.124300 0.549000
-10.093700 0.559000
-10.063100 0.558800
-10.032600 0.562400
-10.002000 0.566000
-9.971400 0.569500
-9.940800 0.573000
-9.910300 0.576400
-9.879700 0.580300
-9.849100 0.585500
-9.818500 0.590900
-9.787900 0.596400
-9.757400 0.602100
-9.726800 0.607900
-9.696200 0.614100
-9.665600 0.621200
-9.635100 0.629000
-9.604500 0.637500
-9.573900 0.646600
-9.543300 0.656500
-9.512800 0.667100
-9.482200 0.678300
-9.451600 0.690300
-9.421000 0.703000
-9.390400 0.716300
-9.359900 0.730400
-9.329300 0.759500
-9.298700 0.770800
-9.268100 0.781300
-9.237600 0.790800
-9.207000 0.799400
-9.176400 0.807100
-9.145800 0.815400
-9.115300 0.826700
-9.084700 0.841100
-9.054100 0.858800
-9.023500 0.879600
-8.992900 0.901500
-8.962400 0.955900
-8.931800 0.948300
-8.901200 0.939300
-8.870600 0.928800
-8.840100 0.916900
-8.809500 0.903600
-8.778900 0.888800
-8.748300 0.872500
-8.717800 0.854800
-8.687200 0.835700
-8.656600 0.815100
-8.626000 0.769500
-8.595400 0.729200
-8.564900 0.695500
-8.534300 0.668500
-8.503700 0.648100
-8.473100 0.634200
-8.442600 0.628500
-8.412000 0.625200
-8.381400 0.623300
-8.350800 0.622800
-8.320300 0.654100
-8.289700 0.657800
-8.259100 0.662600
-8.228500 0.668700
-8.197900 0.675900
-8.167400 0.684300
-8.136800 0.693900
-8.106200 0.704700
-8.075600 0.716600
-8.045100 0.729700
-8.014500 0.744100
-7.983900 0.759600
-7.953300 0.776500
-7.922800 0.781700
-7.892200 0.918700
-7.861600 0.936100
-7.831000 0.960000
-7.800400 0.990700
-7.769900 1.027900
-7.739300 1.070500
-7.708700 1.111900
-7.678100 1.151300
-7.647600 1.188500
-7.617000 1.223000
-7.586400 1.251400
-7.555800 1.142900
-7.525300 1.133600
-7.494700 1.123100
-7.464100 1.111300
-7.433500 1.098400
-7.402900 1.118800
-7.372400 1.096800
-7.341800 1.069000
-7.311200 1.035400
-7.280600 0.996000
-7.250100 0.951800
-7.219500 0.992800
-7.188900 1.031700
-7.158300 1.067400
-7.127800 1.099900
-7.097200 1.129200
-7.066600 1.164200
-7.036000 1.156800
-7.005500 1.150800
-6.974900 1.146000
-6.944300 1.142600
-6.913700 1.142800
-6.883100 1.150200
-6.852600 1.159500
-6.822000 1.170600
-6.791400 1.183600
-6.760800 1.198500
-6.730300 1.184800
-6.699700 1.221400
-6.669100 1.245100
-6.638500 1.265600
-6.608000 1.283000
-6.577400 1.297200
-6.546800 1.312400
-6.516200 1.492400
-6.485600 1.505000
-6.455100 1.506800
-6.424500 1.497600
-6.393900 1.378300
-6.363300 1.382800
-6.332800 1.389000
-6.302200 1.394800
-6.271600 1.400200
-6.241000 1.405200
-6.210500 1.286700
-6.179900 1.271700
-6.149300 1.257000
-6.118700 1.242600
-6.088100 1.228500
-6.057600 1.291200
-6.027000 1.177000
-5.996400 1.170200
-5.965800 1.163700
-5.935300 1.157500
-5.904700 1.159000
-5.874100 1.135600
-5.843500 1.157500
-5.813000 1.169600
-5.782400 1.166500
-5.751800 1.147900
-5.721200 1.126600
-5.690600 1.114300
-5.660100 1.108900
-5.629500 1.103200
-5.598900 1.097100
-5.568300 1.090700
-5.537800 1.083900
-5.507200 1.076700
-5.476600 1.069200
-5.446000 1.061400
-5.415500 1.053100
-5.384900 1.072400
-5.354300 1.058800
-5.323700 1.045000
-5.293100 1.030900
-5.262600 1.016500
-5.232000 0.997600
-5.201400 0.985600
-5.170800 0.977400
-5.140300 0.969800
-5.109700 0.962500
-5.079100 0.955400
-5.048500 0.948400
-5.018000 0.941700
-4.987400 0.937300
-4.956800 0.938100
-4.926200 0.944100
-4.895600 0.955400
-4.865100 1.023700
-4.834500 1.019000
-4.803900 1.016100
-4.773300 1.015000
-4.742800 1.015600
-4.712200 1.201800
-4.681600 1.087800
-4.651000 1.061500
-4.620500 1.033800
-4.589900 1.004700
-4.559300 0.948000
-4.528700 0.928200
-4.498100 0.914300
-4.467600 0.889900
-4.437000 0.855100
-4.406400 0.816100
-4.375800 0.815300
-4.345300 0.814200
-4.314700 0.812700
-4.284100 0.810900
-4.253500 0.808700
-4.223000 0.858500
-4.192400 0.864000
-4.161800 0.870300
-4.131200 0.877300
-4.100600 0.908300
-4.070100 0.913500
-4.039500 0.930600
-4.008900 0.948400
-3.978300 0.966900
-3.947800 0.986200
-3.917200 1.006100
-3.886600 1.026700
-3.856000 1.051600
-3.825500 1.062400
-3.794900 1.070500
-3.764300 1.080900
-3.733700 1.091200
-3.703100 1.101500
-3.672600 1.111900
-3.642000 1.122100
-3.611400 1.132400
-3.580800 1.193100
-3.550300 1.212300
-3.519700 1.226500
-3.489100 1.236700
-3.458500 1.265600
-3.428000 1.284000
-3.397400 1.329400
-3.366800 1.411700
-3.336200 1.499800
-3.305700 1.593800
-3.275100 1.847500
-3.244500 2.070100
-3.213900 2.122000
-3.183300 2.122200
-3.152800 2.073100
-3.122200 2.021300
-3.091600 1.977800
-3.061000 1.923800
-3.030500 1.859200
-2.999900 1.737000
-2.969300 1.661000
-2.938700 1.575000
-2.908200 1.478900
-2.877600 1.313800
-2.847000 1.384600
-2.816400 1.109800
-2.785800 0.877300
-2.755300 0.758500
-2.724700 0.713300
-2.694100 0.657800
-2.663500 0.629600
-2.633000 0.604100
-2.602400 0.581300
-2.571800 0.561300
-2.541200 0.544000
-2.510700 0.529500
-2.480100 0.517700
-2.449500 0.508700
-2.418900 0.470200
-2.388300 0.472700
-2.357800 0.478400
-2.327200 0.487200
-2.296600 0.499100
-2.266000 0.575400
-2.235500 0.577400
-2.204900 0.600900
-2.174300 0.636400
-2.143700 0.675800
-2.113200 0.719100
-2.082600 0.904300
-2.052000 1.044700
-2.021400 1.235300
-1.990800 1.429700
-1.960300 1.552000
-1.929700 1.573400
-1.899100 1.518100
-1.868500 1.289400
-1.838000 1.204100
-1.807400 1.155200
-1.776800 1.138000
-1.746200 1.144100
-1.715700 1.159700
-1.685100 1.233800
-1.654500 1.296600
-1.623900 1.348100
-1.593300 1.387400
-1.562800 1.420100
-1.532200 1.449000
-1.501600 1.474200
-1.471000 1.467300
-1.440500 1.465300
-1.409900 1.469500
-1.379300 1.472300
-1.348700 1.473600
-1.318200 1.490000
-1.287600 1.505000
-1.257000 1.526000
-1.226400 1.548300
-1.195800 1.572000
-1.165300 1.598000
-1.134700 1.626400
-1.104100 1.650300
-1.073500 1.679800
-1.043000 1.718700
-1.012400 1.687600
-0.981800 1.688100
-0.951200 1.697000
-0.920700 1.707200
-0.890100 1.718700
-0.859500 2.172200
-0.828900 2.291100
-0.798300 2.177600
-0.767800 2.141000
-0.737200 2.094000
-0.706600 2.034600
-0.676000 1.978200
-0.645500 1.929400
-0.614900 1.860500
-0.584300 1.792100
-0.553700 1.727900
-0.523200 1.678600
-0.492600 1.650300
-0.462000 1.625700
-0.431400 1.614800
-0.400800 1.619300
-0.370300 1.639300
-0.339700 1.652400
-0.309100 1.689900
-0.278500 1.875900
-0.248000 1.630300
-0.217400 1.567600
-0.186800 1.508100
-0.156200 1.451700
-0.125700 1.398600
-0.095100 1.348700
-0.064500 1.330100
-0.033900 1.326700
-0.003300 1.309900
0.027200 1.310000
0.057800 1.245700
0.088400 1.285900
0.119000 1.335100
0.149500 1.427000
0.180100 1.439800
0.210700 1.456500
0.241300 1.469500
0.271800 1.470700
0.302400 1.473100
0.333000 1.473900
0.363600 1.472900
0.394200 1.470000
0.424700 1.465200
0.455300 1.575500
0.485900 1.606000
0.516500 1.639300
0.547000 1.674200
0.577600 1.703800
0.608200 1.739000
0.638800 1.765300
0.669300 1.782700
0.699900 1.859600
0.730500 1.878400
0.761100 1.885600
0.791600 1.878500
0.822200 1.879200
0.852800 1.940100
0.883400 1.841400
0.914000 1.828200
0.944500 1.980900
0.975100 2.368500
1.005700 1.586900
1.036300 1.605900
1.066800 1.614000
1.097400 1.595700
1.128000 1.607300
1.158600 1.623100
1.189100 1.641300
1.219700 1.659900
1.250300 1.678800
1.280900 1.698000
1.311500 1.717500
1.342000 1.737300
1.372600 1.757500
1.403200 1.844100
1.433800 1.886600
1.464300 1.891300
1.494900 1.891100
1.525500 1.886000
1.556100 1.875900
1.586600 1.858100
1.617200 1.841200
1.647800 1.827400
1.678400 1.850800
1.709000 1.878600
1.739500 1.913200
1.770100 1.944600
1.800700 1.969100
1.831300 1.996100
1.861800 2.036700
1.892400 1.976000
1.923000 1.899400
1.953600 1.909700
1.984100 1.914000
2.014700 1.914000
2.045300 2.069000
2.075900 2.027000
2.106500 1.988500
2.137000 1.936100
2.167600 1.913600
2.198200 1.957600
2.228800 2.044100
2.259300 2.003600
2.289900 1.966000
2.320500 1.930700
2.351100 1.875800
2.381600 1.796900
2.412200 1.750700
2.442800 1.747400
2.473400 1.750100
2.504000 1.756700
2.534500 1.770600
2.565100 1.785200
2.595700 1.800400
2.626300 1.807200
2.656800 1.842100
2.687400 1.734900
2.718000 1.833900
2.748600 1.907300
2.779100 1.972700
2.809700 2.016200
2.840300 2.055600
2.870900 2.095100
2.901500 2.128500
2.932000 2.158300
2.962600 2.185600
2.993200 2.210400
3.023800 2.232600
3.054300 2.252400
3.084900 2.269500
3.115500 2.207900
3.146100 2.191700
3.176600 2.177700
3.207200 2.158300
3.237800 2.178800
3.268400 2.232200
3.299000 2.291200
3.329500 2.320900
3.360100 2.364000
3.390700 2.381500
3.421300 2.426600
3.451800 2.307700
3.482400 2.769000
3.513000 1.746900
3.543600 1.648400
3.574100 1.600800
3.604700 1.598000
3.635300 1.598800
3.665900 1.585400
3.696500 1.570000
3.727000 1.553600
3.757600 1.587700
3.788200 1.645900
3.818800 1.732500
3.849300 1.733400
3.879900 1.725400
3.910500 1.716500
3.941100 1.699100
3.971600 1.737900
4.002200 1.818200
4.032800 1.883100
4.063400 1.936200
4.094000 1.984400
4.124500 2.027600
4.155100 2.073800
4.185700 2.300800
4.216300 2.369400
4.246800 2.440000
4.277400 2.512500
4.308000 2.591400
4.338600 2.780300
4.369100 2.799000
4.399700 2.819700
4.430300 2.835600
4.460900 2.849100
4.491500 2.868200
4.522000 2.842200
4.552600 2.815400
4.583200 2.788000
4.613800 2.725400
4.644300 2.685600
4.674900 2.773600
4.705500 2.764100
4.736100 2.773600
4.766600 2.908900
4.797200 2.766800
4.827800 2.775500
4.858400 2.787800
4.888900 2.803400
4.919500 2.821900
4.950100 2.837400
4.980700 2.840300
5.011300 2.831900
5.041800 2.821800
5.072400 2.829000
5.103000 2.835600
5.133600 2.837200
5.164100 2.827200
5.194700 2.819300
5.225300 2.802400
5.255900 2.726700
5.286400 2.723300
5.317000 2.727300
5.347600 2.749100
5.378200 2.783300
5.408800 2.837500
5.439300 2.922300
5.469900 2.992900
5.500500 3.108400
5.531100 3.226600
5.561600 3.364800
5.592200 3.567600
5.622800 3.773900
5.653400 4.115700
5.683900 4.333100
5.714500 4.400000
5.745100 4.448100
5.775700 4.336500
5.806300 4.244000
5.836800 4.211500
5.867400 4.243000
5.898000 4.514200
5.928600 4.550300
5.959100 4.521500
5.989700 4.449300
6.020300 4.287600
6.050900 4.173800
6.081400 3.961500
6.112000 3.784200
6.142600 4.204600
6.173200 4.173700
6.203800 4.162500
6.234300 3.983200
6.264900 3.249400
6.295500 3.395400
6.326100 3.506900
6.356600 3.608500
6.387200 3.700400
6.417800 3.799600
6.448400 3.774300
6.478900 3.721500
6.509500 3.669300
6.540100 3.587400
6.570700 3.485300
6.601300 3.360300
6.631800 3.214000
6.662400 3.052600
6.693000 2.875800
6.723600 2.533500
6.754100 2.425600
6.784700 2.335400
6.815300 2.268500
6.845900 2.232300
6.876400 2.219600
6.907000 2.289300
6.937600 2.299900
6.968200 2.172000
6.998800 2.188200
7.029300 2.211200
7.059900 2.277200
7.090500 2.294400
7.121100 2.316900
7.151600 2.376800
7.182200 2.446300
7.212800 2.532400
7.243400 2.552200
7.273900 2.434300
7.304500 2.429100
7.335100 2.443700
7.365700 2.455400
7.396300 2.439500
7.426800 2.419300
7.457400 2.394900
7.488000 2.384100
7.518600 2.389500
7.549100 2.396900
7.579700 2.400600
7.610300 2.405900
7.640900 2.397500
7.671400 2.349400
7.702000 2.267800
7.732600 2.244300
7.763200 2.216000
7.793800 2.183300
7.824300 2.135000
7.854900 2.074000
7.885500 2.013400
7.916100 1.841900
7.946600 1.669100
7.977200 1.600400
8.007800 1.538000
8.038400 1.479300
8.068900 1.421800
8.099500 1.346100
8.130100 1.270400
8.160700 1.204000
8.191300 1.158600
8.221800 1.124600
8.252400 1.093900
8.283000 1.066600
8.313600 1.037500
8.344100 1.008300
8.374700 0.979000
8.405300 0.949600
8.435900 0.920000
8.466400 0.893600
8.497000 0.870200
8.527600 0.866300
8.558200 0.846300
8.588700 0.821600
8.619300 0.797100
8.649900 0.773000
8.680500 0.749900
8.711100 0.727900
8.741600 0.692500
8.772200 0.658700
8.802800 0.637200
8.833400 0.616400
8.863900 0.596100
8.894500 0.576500
8.925100 0.557400
8.955700 0.538900
8.986200 0.521000
9.016800 0.503700
9.047400 0.489800
9.078000 0.479500
9.108600 0.470400
9.139100 0.459200
9.169700 0.445500
9.200300 0.430700
9.230900 0.414600
9.261400 0.397300
9.292000 0.397700
9.322600 0.454400
9.353200 0.410700
9.383700 0.321200
9.414300 0.298600
9.444900 0.276000
9.475500 0.253600
9.506100 0.210900
9.536600 0.192900
9.567200 0.175300
9.597800 0.158100
9.628400 0.141400
9.658900 0.125000
9.689500 0.109000
9.720100 0.093500
9.750700 0.078300
9.781200 0.035300
9.811800 0.000000
9.842400 0.000000
9.873000 0.000000
9.903600 0.000000
9.934100 0.000000
9.964700 0.000000
9.995300 0.000000
10.025900 0.000000
10.056400 0.000000
10.087000 0.000000
10.117600 0.000000
10.148200 0.000000
10.178700 0.000000
10.209300 0.000000
10.239900 0.000000
10.270500 0.000000
10.301100 0.000000
10.331600 0.000000
10.362200 0.000000
10.392800 0.000000
10.423400 0.000000
10.453900 0.000000
10.484500 0.000000
10.515100 0.000000
10.545700 0.000000
10.576200 0.000000
10.606800 0.000000
10.637400 0.000000
10.668000 0.000000
10.698600 0.000000
10.729100 0.000000
10.759700 0.000000
10.790300 0.000000
10.820900 0.000000
10.851400 0.000000
10.882000 0.000000
10.912600 0.000000
10.943200 0.000000
10.973700 0.000000
11.004300 0.000000
11.034900 0.000000
11.065500 0.000000
11.096100 0.000000
11.126600 0.000000
11.157200 0.000000
11.187800 0.000000
11.218400 0.000000
11.248900 0.000000
11.279500 0.000000
11.310100 0.000000
11.340700 0.000000
11.371200 0.000000
11.401800 0.000000
11.432400 0.000000
11.463000 0.000000
11.493600 0.000000
11.524100 0.000000
11.554700 0.000000
11.585300 0.000000
11.615900 0.000000
11.646400 0.000000
11.677000 0.000000
11.707600 0.000000
11.738200 0.000000
11.768700 0.000000
11.799300 0.000000
11.829900 0.000000
11.860500 0.000000
11.891100 0.000000
11.921600 0.000000
11.952200 0.000000
11.982800 0.000000
12.013400 0.000000
12.043900 0.000000
12.074500 0.000000
12.105100 0.000000
12.135700 0.000000
12.166200 0.000000
12.196800 0.000000
12.227400 0.000000
12.258000 0.000000
12.288600 0.000000
12.319100 0.000000
12.349700 0.000000
12.380300 0.000000
12.410900 0.000000
12.441400 0.000000
12.472000 0.000000
12.502600 0.000000
12.533200 0.000000
12.563700 0.042200
12.594300 0.053700
12.624900 0.064700
12.655500 0.075200
12.686000 0.085200
12.716600 0.094800
12.747200 0.103900
12.777800 0.112500
12.808400 0.120700
12.838900 0.128400
12.869500 0.144000
12.900100 0.165400
12.930700 0.189200
12.961200 0.215400
12.991800 0.244000
13.022400 0.274900
13.053000 0.308300
13.083500 0.344100
13.114100 0.382200
13.144700 0.564400
13.175300 0.621800
13.205900 0.554400
13.236400 0.603200
13.267000 0.653800
13.297600 0.706300
13.328200 0.760500
13.358700 0.827100
13.389300 0.922600
13.419900 1.047300
13.450500 1.189400
13.481000 1.224700
13.511600 1.260600
13.542200 1.319900
13.572800 1.234800
13.603400 1.239100
13.633900 1.256700
13.664500 1.287800
13.695100 1.337000
13.725700 1.394900
13.756200 1.460900
13.786800 1.549800
13.817400 1.654300
13.848000 1.771900
13.878500 1.902800
13.909100 2.042400
13.939700 2.203200
13.970300 2.106900
14.000900 1.991100
14.031400 1.862000
14.062000 1.698200
14.092600 1.544500
14.123200 1.415500
14.153700 1.308700
14.184300 1.241700
14.214900 1.187500
14.245500 1.144600
14.276000 1.105300
14.306600 1.070200
14.337200 1.039100
14.367800 1.013500
14.398400 1.003300
14.428900 0.988600
14.459500 0.971200
14.490100 0.984500
14.520700 1.001400
14.551200 1.020400
14.581800 1.041600
14.612400 1.131100
14.643000 1.268400
14.673500 1.389600
14.704100 1.557700
14.734700 1.746000
14.765300 1.943300
14.795900 2.208000
14.826400 2.299500
14.857000 2.374900
14.887600 2.454600
14.918200 2.517900
14.948700 2.555700
14.979300 2.620600
15.009900 2.693500
15.040500 2.962700
15.071000 3.075800
15.101600 3.021800
15.132200 2.928600
15.162800 2.861800
15.193400 2.368800
15.223900 1.897900
15.254500 1.759500
15.285100 1.743900
15.315700 1.603900
15.346200 1.576300
15.376800 1.560600
15.407400 1.556800
15.438000 1.541500
15.468500 1.528700
15.499100 1.518500
15.529700 1.516000
15.560300 1.521500
15.590900 1.722100
15.621400 1.835500
15.652000 1.948200
15.682600 2.206400
15.713200 2.385000
15.743700 2.525800
15.774300 2.623700
15.804900 2.851300
15.835500 3.413700
15.866000 3.311600
15.896600 3.136000
15.927200 2.988400
15.957800 2.893800
15.988400 2.775500
16.018900 2.579500
16.049500 2.479700
16.080100 2.389700
16.110700 2.306900
16.141200 2.230300
16.171800 2.183700
16.202400 2.065900
16.233000 1.897700
16.263500 1.771400
16.294100 1.610000
16.324700 1.454800
16.355300 1.298900
16.385900 1.133900
16.416400 0.853100
16.447000 0.739200
16.477600 0.705900
16.508200 0.697400
16.538700 0.701900
16.569300 1.143700
16.599900 0.987800
16.630500 1.198200
16.661000 1.496200
16.691600 1.829400
16.722200 2.190400
16.752800 2.597600
16.783300 3.056200
16.813900 3.818200
16.844500 5.227400
16.875100 5.951700
16.905700 5.208600
16.936200 4.128000
16.966800 3.210300
16.997400 2.724200
17.028000 2.412000
17.058500 2.227100
17.089100 2.061500
17.119700 1.949100
17.150300 1.931200
17.180800 2.053200
17.211400 2.227000
17.242000 2.492500
17.272600 2.935400
17.303200 3.841800
17.333700 4.348400
17.364300 4.752600
17.394900 4.974500
17.425500 4.955900
17.456000 4.978300
17.486600 4.966900
17.517200 5.320300
17.547800 5.528300
17.578300 5.279800
17.608900 5.106700
17.639500 5.923000
17.670100 5.359800
17.700700 5.124500
17.731200 3.399600
17.761800 3.113400
17.792400 2.877000
17.823000 2.635900
17.853500 2.642400
17.884100 2.769100
17.914700 3.039000
17.945300 3.249500
17.975800 3.436800
18.006400 3.706400
18.037000 4.050100
18.067600 4.509200
18.098200 4.332300
18.128700 3.784000
18.159300 3.646200
18.189900 3.491500
18.220500 3.347000
18.251000 3.168600
18.281600 2.903500
18.312200 2.453500
18.342800 2.201100
18.373300 2.115700
18.403900 2.035900
18.434500 1.936800
18.465100 1.895100
18.495700 1.875000
18.526200 1.722900
18.556800 1.620200
18.587400 1.651000
18.618000 1.735600
18.648500 2.032200
18.679100 2.249400
18.709700 2.420600
18.740300 2.551800
18.770800 2.677100
18.801400 2.801500
18.832000 2.992600
18.862600 3.170900
18.893200 3.329300
18.923700 3.471700
18.954300 3.881600
18.984900 3.851200
19.015500 3.712200
19.046000 3.641700
19.076600 3.642200
19.107200 3.648900
19.137800 3.605400
19.168300 3.520700
19.198900 3.423200
19.229500 3.302800
19.260100 3.180700
19.290700 3.108800
19.321200 3.095300
19.351800 3.103500
19.382400 3.336500
19.413000 3.201600
19.443500 3.131800
19.474100 3.117200
19.504700 3.086900
19.535300 3.057400
19.565800 3.009500
19.596400 2.969600
19.627000 2.948800
19.657600 2.930400
19.688200 2.914900
19.718700 2.903400
19.749300 2.897600
19.779900 2.890200
19.810500 2.877800
19.841000 2.869300
19.871600 2.855000
19.902200 2.847900
19.932800 2.849300
19.963300 2.855600
19.993900 2.934200
20.024500 3.138900
20.055100 3.363300
20.085700 3.727200
20.116200 3.551300
20.146800 3.491300
20.177400 3.611000
20.208000 3.652800
20.238500 3.562900
20.269100 3.608100
20.299700 3.701000
20.330300 3.496100
20.360800 3.219700
20.391400 2.769600
20.422000 2.658800
20.452600 2.557600
20.483100 2.468700
20.513700 2.386900
20.544300 2.296900
20.574900 2.219200
20.605500 2.148300
20.636000 2.090400
20.666600 2.034700
20.697200 1.982300
20.727800 1.930600
20.758300 1.934000
20.788900 1.917100
20.819500 1.866800
20.850100 1.860500
20.880600 2.139700
20.911200 2.111900
20.941800 2.125100
20.972400 2.151700
21.003000 2.172900
21.033500 2.200100
21.064100 2.215000
21.094700 2.224500
21.125300 2.228700
21.155800 2.233400
21.186400 2.257300
21.217000 2.281200
21.247600 2.363100
21.278100 2.389300
21.308700 2.379300
21.339300 2.339100
21.369900 2.367000
21.400500 2.402700
21.431000 2.437700
21.461600 2.526300
21.492200 2.563400
21.522800 2.443600
21.553300 2.463600
21.583900 2.611900
21.614500 2.559800
21.645100 2.450900
21.675600 2.487100
21.706200 2.526500
21.736800 2.579000
21.767400 2.687800
21.798000 2.812100
21.828500 2.820400
21.859100 2.862700
21.889700 2.904700
21.920300 2.952100
21.950800 3.033900
21.981400 3.121700
22.012000 3.233100
22.042600 3.349400
22.073100 3.431300
22.103700 4.004900
22.134300 3.539800
22.164900 3.250400
22.195500 3.074300
22.226000 2.908900
22.256600 2.754100
22.287200 2.598100
22.317800 2.466500
22.348300 2.309800
22.378900 2.182500
22.409500 2.023300
22.440100 1.814400
22.470600 1.692800
22.501200 1.882300
22.531800 1.983500
22.562400 2.027800
22.593000 2.017300
22.623500 1.952300
22.654100 1.794500
22.684700 1.531900
22.715300 1.296000
22.745800 1.098300
22.776400 0.996000
22.807000 0.867300
22.837600 0.595300
22.868100 0.545600
22.898700 0.510500
22.929300 0.479100
22.959900 0.416400
22.990500 0.382500
23.021000 0.342400
23.051600 0.318400
23.082200 0.307300
23.112800 0.309200
23.143300 0.324000
23.173900 0.344400
23.204500 0.366000
23.235100 0.390000
23.265600 0.428900
23.296200 0.450500
23.326800 0.549500
23.357400 0.598000
23.388000 0.638000
23.418500 0.669500
23.449100 0.746200
23.479700 0.828700
23.510300 0.908400
23.540800 0.999300
23.571400 1.101600
23.602000 1.212400
23.632600 1.282200
23.663100 1.365600
23.693700 1.468900
23.724300 1.558100
23.754900 1.641900
23.785500 1.769500
23.816000 1.852600
23.846600 1.935600
23.877200 2.099400
23.907800 2.217100
23.938300 2.340800
23.968900 2.470400
23.999500 2.625000
24.030100 2.885400
24.060600 3.156100
24.091200 3.417000
24.121800 3.729000
24.152400 3.875400
24.183000 3.509200
24.213500 3.172300
24.244100 2.824100
24.274700 2.684500
24.305300 2.562700
24.335800 2.442300
24.366400 2.574100
24.397000 2.103400
24.427600 2.186500
24.458100 2.143200
24.488700 2.129900
24.519300 2.175100
24.549900 2.262900
24.580400 2.416400
24.611000 2.605400
24.641600 2.818100
24.672200 3.054300
24.702800 3.298900
24.733300 3.447000
24.763900 3.715400
24.794500 4.091100
24.825100 4.253000
24.855600 4.385300
24.886200 4.506100
24.916800 4.473800
24.947400 3.766700
24.977900 3.407900
25.008500 3.072400
25.039100 2.755500
25.069700 2.226500
25.100300 2.455900
25.130800 1.928500
25.161400 1.847100
25.192000 1.798900
25.222600 1.847400
25.253100 1.913400
25.283700 2.037800
25.314300 2.275900
25.344900 2.546700
25.375400 2.669500
25.406000 2.829300
25.436600 2.992200
25.467200 3.190300
25.497800 3.378300
25.528300 3.542200
25.558900 3.702200
25.589500 3.738800
25.620100 3.671400
25.650600 3.974900
25.681200 5.625000
25.711800 3.557600
25.742400 2.826200
25.772900 2.809600
25.803500 2.791100
25.834100 2.771700
25.864700 2.732100
25.895300 2.641100
25.925800 2.603300
25.956400 2.573000
25.987000 2.543500
26.017600 2.509900
26.048100 2.519600
26.078700 2.609200
26.109300 2.790100
26.139900 3.201000
26.170400 2.503100
26.201000 2.117700
26.231600 1.784800
26.262200 1.482100
26.292800 1.234400
26.323300 1.019400
26.353900 0.868100
26.384500 0.762300
26.415100 0.616900
26.445600 0.486300
26.476200 0.370300
26.506800 0.269000
26.537400 0.160200
26.567900 0.022200
26.598500 0.000000
26.629100 0.000000
26.659700 0.000000
26.690300 0.000000
26.720800 0.000000
26.751400 0.000000
26.782000 0.000000
26.812600 0.000000
26.843100 0.000000
26.873700 0.000000
26.904300 0.000000
26.934900 0.000000
26.965400 0.000000
26.996000 0.000000
27.026600 0.000000
27.057200 0.000000
27.087800 0.000000
27.118300 0.000000
27.148900 0.000000
27.179500 0.000100
27.210100 0.001200
27.240600 0.003500
27.271200 0.006800
27.301800 0.011300
27.332400 0.017000
27.362900 0.023700
27.393500 0.031600
27.424100 0.040600
27.454700 0.050700
27.485300 0.062000
27.515800 0.074400
27.546400 0.087900
27.577000 0.102600
27.607600 0.118400
27.638100 0.135300
27.668700 0.153300
27.699300 0.246800
27.729900 0.300500
27.760400 0.362500
27.791000 0.431200
27.821600 0.491500
27.852200 0.543100
27.882800 0.585900
27.913300 0.623700
27.943900 0.658600
27.974500 0.695900
28.005100 0.735400
28.035600 0.776700
28.066200 0.819700
28.096800 0.864800
28.127400 0.912800
28.157900 0.961700
28.188500 1.011500
28.219100 1.069800
28.249700 1.168200
28.280200 1.245300
28.310800 1.305100
28.341400 1.362900
28.372000 1.459400
28.402600 1.562700
28.433100 1.678000
28.463700 1.828100
28.494300 2.114900
28.524900 2.197900
28.555400 2.152500
28.586000 2.029800
28.616600 1.818400
28.647200 1.606100
28.677700 1.474700
28.708300 1.340500
28.738900 1.230700
28.769500 1.139200
28.800100 1.116400
28.830600 1.099700
28.861200 1.089000
28.891800 1.084300
28.922400 1.085700
28.952900 1.206100
28.983500 1.302400
29.014100 1.470100
29.044700 1.731900
29.075200 2.122400
29.105800 2.651800
29.136400 3.137000
29.167000 3.603300
29.197600 4.354600
29.228100 4.311700
29.258700 3.860300
29.289300 2.948400
29.319900 2.580500
29.350400 1.997900
29.381000 1.887400
29.411600 1.787200
29.442200 1.697700
29.472700 1.619000
29.503300 1.548700
29.533900 1.487400
29.564500 1.432100
29.595100 1.401200
29.625600 1.387300
29.656200 1.382400
29.686800 1.382500
29.717400 1.387500
29.747900 1.395200
29.778500 1.412000
29.809100 1.423300
29.839700 1.434400
29.870200 1.614200
29.900800 1.531000
29.931400 1.488800
29.962000 1.523100
29.992600 1.560000
30.023100 1.682500
30.053700 1.757000
30.084300 1.799900
30.114900 1.827700
30.145400 1.854200
30.176000 1.914700
30.206600 1.985900
30.237200 1.926200
30.267700 1.731600
30.298300 1.631700
30.328900 1.571500
30.359500 1.576800
30.390100 1.912600
30.420600 2.294400
30.451200 2.704300
30.481800 2.603400
30.512400 2.533600
30.542900 2.443300
30.573500 2.544000
30.604100 2.561300
30.634700 2.439900
30.665200 2.425200
30.695800 2.429400
30.726400 2.550300
30.757000 2.737100
30.787600 2.934300
30.818100 3.117900
30.848700 3.369600
30.879300 3.750800
30.909900 4.189600
30.940400 4.345600
30.971000 4.336300
31.001600 4.247200
31.032200 3.710200
31.062700 3.068100
31.093300 2.546000
31.123900 2.474000
31.154500 2.540300
31.185100 2.606600
31.215600 2.726500
31.246200 2.834900
31.276800 2.940900
31.307400 2.974900
31.337900 2.999700
31.368500 3.066200
31.399100 3.206700
31.429700 3.487000
31.460200 3.809300
31.490800 4.058300
31.521400 3.989100
31.552000 3.432200
31.582600 3.125300
31.613100 2.830800
31.643700 2.548700
31.674300 2.279000
31.704900 2.106500
31.735400 1.903000
31.766000 1.753700
31.796600 1.744800
31.827200 1.750600
31.857700 1.702100
31.888300 1.650700
31.918900 1.639200
31.949500 1.688200
31.980100 1.750900
32.010600 1.846700
32.041200 2.193300
32.071800 2.194300
32.102400 2.309000
32.132900 2.419900
32.163500 2.525000
32.194100 2.610900
32.224700 2.616200
32.255200 2.560700
32.285800 2.508700
32.316400 2.391600
32.347000 2.242400
32.377500 2.075700
32.408100 1.922900
32.438700 1.773100
32.469300 1.627100
32.499900 1.488000
32.530400 1.431300
32.561000 1.216800
32.591600 1.099900
32.622200 0.971500
32.652700 1.109400
32.683300 1.254000
32.713900 1.439000
32.744500 1.681600
32.775000 1.883400
32.805600 2.117700
32.836200 2.398200
32.866800 2.663500
32.897400 2.985700
32.927900 3.300000
32.958500 3.679100
32.989100 4.158500
33.019700 4.452000
33.050200 4.569100
33.080800 4.809900
33.111400 4.204300
33.142000 3.536700
33.172500 3.132800
33.203100 2.845100
33.233700 3.327900
33.264300 3.111400
33.294900 2.691400
33.325400 1.394700
33.356000 1.147300
33.386600 1.003800
33.417200 0.925200
33.447700 0.899800
33.478300 0.975000
33.508900 1.252300
33.539500 1.734200
33.570000 2.418200
33.600600 4.147100
33.631200 6.510700
33.661800 6.110500
33.692400 5.778800
33.722900 5.186700
33.753500 4.333700
33.784100 3.521200
33.814700 2.679000
33.845200 1.945300
33.875800 1.675100
33.906400 1.491800
33.937000 1.407400
33.967500 1.397000
33.998100 1.543300
34.028700 1.781100
34.059300 1.752100
34.089900 1.778900
34.120400 1.872000
34.151000 1.980700
34.181600 2.096200
34.212200 2.246600
34.242700 2.385000
34.273300 2.529700
34.303900 2.629000
34.334500 2.709700
34.365000 2.767700
34.395600 2.803000
34.426200 2.829700
34.456800 2.881900
34.487400 3.060000
34.517900 3.152600
34.548500 3.123600
34.579100 2.849900
34.609700 2.688400
34.640200 2.576400
34.670800 2.521000
34.701400 2.450500
34.732000 2.376300
34.762500 2.346300
34.793100 2.352800
34.823700 2.414200
34.854300 2.610300
34.884900 3.251500
34.915400 4.706100
34.946000 6.141300
34.976600 5.550500
35.007200 5.118600
35.037700 4.898900
35.068300 4.632600
35.098900 4.282700
35.129500 3.749500
35.160000 3.361800
35.190600 3.385100
35.221200 3.513600
35.251800 3.579700
35.282400 3.445700
35.312900 3.242300
35.343500 3.024400
35.374100 2.821200
35.404700 2.633400
35.435200 2.460600
35.465800 2.280100
35.496400 2.362400
35.527000 2.387800
35.557500 2.536100
35.588100 2.711700
35.618700 2.920900
35.649300 3.140500
35.679900 3.312100
35.710400 3.584200
35.741000 3.769200
35.771600 3.817300
35.802200 3.799600
35.832700 3.554000
35.863300 3.134000
35.893900 2.548000
35.924500 2.251700
35.955000 1.967800
35.985600 1.741800
36.016200 1.462800
36.046800 1.378200
36.077400 1.360400
36.107900 1.315000
36.138500 1.232300
36.169100 1.166000
36.199700 1.266400
36.230200 1.505500
36.260800 2.042800
36.291400 2.060100
36.322000 2.083300
36.352500 2.146300
36.383100 2.249400
36.413700 2.527300
36.444300 2.504400
36.474800 2.418700
36.505400 2.307200
36.536000 2.367000
36.566600 2.421500
36.597200 2.822500
36.627700 2.702700
36.658300 2.597300
36.688900 2.487700
36.719500 2.376000
36.750000 2.266000
36.780600 2.143100
36.811200 1.909200
36.841800 1.829800
36.872300 1.752300
36.902900 1.675700
36.933500 1.600900
36.964100 1.529800
36.994700 1.461400
37.025200 1.391300
37.055800 1.323500
37.086400 1.256800
37.117000 1.206100
37.147500 1.160000
37.178100 1.118100
37.208700 1.079900
37.239300 1.021400
37.269800 0.972100
37.300400 0.940000
37.331000 0.947100
37.361600 0.958100
37.392200 0.979700
37.422700 1.000000
37.453300 1.018700
37.483900 1.033400
37.514500 1.038700
37.545000 1.048400
37.575600 1.062300
37.606200 1.080700
37.636800 1.103300
37.667300 1.148800
37.697900 1.261000
37.728500 1.385100
37.759100 1.478000
37.789700 1.547500
37.820200 1.571800
37.850800 1.565100
37.881400 1.532900
37.912000 1.464600
37.942500 1.327800
37.973100 1.161400
38.003700 1.043400
38.034300 0.986800
38.064800 0.952700
38.095400 0.970800
38.126000 1.030400
38.156600 1.131100
38.187200 2.222700
38.217700 2.553400
38.248300 2.262500
38.278900 2.128500
38.309500 1.990300
38.340000 1.856800
38.370600 1.715400
38.401200 1.544700
38.431800 1.442000
38.462300 1.358400
38.492900 1.286500
38.523500 1.226200
38.554100 1.178500
38.584700 1.140300
38.615200 1.107600
38.645800 1.077200
38.676400 1.049500
38.707000 1.025400
38.737500 1.011200
38.768100 1.001000
38.798700 0.989000
38.829300 0.976800
38.859800 0.962400
38.890400 0.945300
38.921000 0.925600
38.951600 0.869800
38.982200 0.864200
39.012700 0.861900
39.043300 0.857800
39.073900 0.853900
39.104500 0.850300
39.135000 0.847000
39.165600 0.843600
39.196200 0.838000
39.226800 0.834900
39.257300 0.833500
39.287900 0.832400
39.318500 0.831500
39.349100 0.830900
39.379700 0.830800
39.410200 0.832900
39.440800 0.837800
39.471400 0.843200
39.502000 0.849200
39.532500 0.855800
39.563100 0.862900
39.593700 0.870600
39.624300 0.878900
39.654800 0.887800
39.685400 0.895900
39.716000 0.901300
39.746600 0.910800
39.777200 0.929400
39.807700 0.971600
39.838300 0.982400
39.868900 0.975300
39.899500 0.966500
39.930000 0.955800
39.960600 0.943400
39.991200 0.929200
40.021800 0.913200
40.052300 0.890300
40.082900 0.866600
40.113500 0.844700
40.144100 0.824400
40.174600 0.805900
40.205200 0.788700
40.235800 0.784300
40.266400 0.782100
40.297000 0.781900
40.327500 0.784000
40.358100 0.788100
40.388700 0.793300
40.419300 1.073600
40.449800 0.932800
40.480400 0.985600
40.511000 1.187800
40.541600 1.535200
40.572100 2.012300
40.602700 2.261200
40.633300 2.302700
40.663900 2.348200
40.694500 2.217100
40.725000 2.158300
40.755600 2.099900
40.786200 2.007700
40.816800 1.917100
40.847300 1.850900
40.877900 1.832600
40.908500 1.916700
40.939100 2.357000
40.969600 2.645600
41.000200 2.822000
41.030800 2.938900
41.061400 2.497700
41.092000 2.565200
41.122500 2.633700
41.153100 2.702200
41.183700 2.769600
41.214300 2.786200
41.244800 2.790700
41.275400 2.909900
41.306000 2.806000
41.336600 2.791500
41.367100 2.686300
41.397700 2.647400
41.428300 2.634000
41.458900 2.627300
41.489500 2.629500
41.520000 2.652000
41.550600 2.637000
41.581200 2.627400
41.611800 2.625000
41.642300 2.742400
41.672900 2.694200
41.703500 2.743200
41.734100 2.801700
41.764600 2.879000
41.795200 2.892100
41.825800 3.031300
41.856400 2.714700
41.887000 2.390800
41.917500 2.206100
41.948100 2.062900
41.978700 1.916300
42.009300 1.592700
42.039800 1.423200
42.070400 1.342100
42.101000 1.307200
42.131600 1.276200
42.162100 1.258500
42.192700 1.257000
42.223300 1.271600
42.253900 1.305800
42.284500 1.395900
42.315000 1.500100
42.345600 1.622500
42.376200 1.763300
42.406800 1.922300
42.437300 2.058300
42.467900 2.177000
42.498500 2.231800
42.529100 1.804400
42.559600 1.820700
42.590200 1.850500
42.620800 1.870800
42.651400 1.875700
42.682000 1.868900
42.712500 1.815400
42.743100 1.800500
42.773700 1.802200
42.804300 1.810200
42.834800 1.771100
42.865400 1.782400
42.896000 1.789600
42.926600 1.792800
42.957100 1.791900
42.987700 1.767600
43.018300 1.762200
43.048900 1.753000
43.079500 1.729300
43.110000 1.753100
43.140600 1.722500
43.171200 1.641200
43.201800 1.454000
43.232300 1.253900
43.262900 1.146600
43.293500 1.134200
43.324100 1.117700
43.354600 1.100100
43.385200 1.081200
43.415800 1.061100
43.446400 1.039900
43.477000 1.017600
43.507500 0.993500
43.538100 0.966800
43.568700 0.937600
43.599300 0.906000
43.629800 0.871800
43.660400 0.835100
43.691000 0.794700
43.721600 0.736800
43.752100 0.675400
43.782700 0.601000
43.813300 0.423700
43.843900 0.318200
43.874500 0.103700
43.905000 0.038800
43.935600 0.012200
43.966200 0.003000
43.996800 0.001300
44.027300 0.000300
44.057900 0.000000
44.088500 0.000000
44.119100 0.000000
44.149600 0.000000
44.180200 0.000000
44.210800 0.000000
44.241400 0.000000
44.271900 0.000000
44.302500 0.000000
44.333100 0.000000
44.363700 0.000000
44.394300 0.000000
44.424800 0.000000
44.455400 0.000000
44.486000 0.000000
44.516600 0.000000
44.547100 0.000000
44.577700 0.000000
44.608300 0.000000
44.638900 0.000000
44.669400 0.000000
44.700000 0.000000
44.730600 0.000000
44.761200 0.000000
44.791800 0.000000
44.822300 0.000000
44.852900 0.000000
44.883500 0.000000
44.914100 0.000000
44.944600 0.000000
44.975200 0.000000
45.005800 0.000000
45.036400 0.000000
45.066900 0.000000
45.097500 0.000000
45.128100 0.000000
45.158700 0.000000
45.189300 0.000000
45.219800 0.000000
45.250400 0.000000
45.281000 0.000000
45.311600 0.000000
45.342100 0.000000
45.372700 0.000000
45.403300 0.000000
45.433900 0.000000
45.464400 0.000000
45.495000 0.000000
45.525600 0.000000
45.556200 0.000000
45.586800 0.000000
45.617300 0.000000
45.647900 0.000000
45.678500 0.000000
45.709100 0.000000
45.739600 0.000000
45.770200 0.000000
45.800800 0.000000
45.831400 0.000000
45.861900 0.000000
45.892500 0.000000
45.923100 0.000000
45.953700 0.000000
45.984300 0.000000
46.014800 0.000000
46.045400 0.000000
46.076000 0.000000
46.106600 0.000000
46.137100 0.000000
46.167700 0.000000
46.198300 0.000000
46.228900 0.000000
46.259400 0.000000
46.290000 0.000000
46.320600 0.000000
46.351200 0.000000
46.381800 0.000000
46.412300 0.000000
46.442900 0.000000
46.473500 0.000000
46.504100 0.000000
46.534600 0.000000
46.565200 0.000000
46.595800 0.000000
46.626400 0.000000
46.656900 0.000000
46.687500 0.000000
46.718100 0.000000
46.748700 0.000000
46.779300 0.000000
46.809800 0.000000
46.840400 0.000000
e
