set title 'mp-1228665 - Density of States'
set xlabel 'Energy (eV)'
set ylabel 'DOS (states/eV)'
set grid
set xrange [-10:10]
set yrange [0:21.853]
set xzeroaxis lt -1
set terminal png size 800,600
set output 'mp-1228665_dos_gnuplot.png'
plot '-' using 1:2 with lines title 'DOS'
-6.897400 0.000000
-6.879700 0.000000
-6.862000 0.000000
-6.844400 0.000000
-6.826700 0.000000
-6.809100 0.000000
-6.791400 0.000000
-6.773700 0.000000
-6.756100 0.000000
-6.738400 0.000000
-6.720700 0.000000
-6.703100 0.000000
-6.685400 0.000000
-6.667700 0.000000
-6.650100 0.000000
-6.632400 0.000000
-6.614700 0.000000
-6.597100 0.000000
-6.579400 0.000000
-6.561700 0.000000
-6.544100 0.000000
-6.526400 0.000000
-6.508700 0.000000
-6.491100 0.000000
-6.473400 0.000000
-6.455700 0.000000
-6.438100 0.000000
-6.420400 0.000000
-6.402800 0.000000
-6.385100 0.000000
-6.367400 0.000000
-6.349800 0.000000
-6.332100 0.000000
-6.314400 0.000000
-6.296800 0.000000
-6.279100 0.000000
-6.261400 0.000000
-6.243800 0.000000
-6.226100 0.000000
-6.208400 0.000000
-6.190800 0.000000
-6.173100 0.000000
-6.155400 0.000000
-6.137800 0.000000
-6.120100 0.000000
-6.102400 0.000000
-6.084800 0.000000
-6.067100 0.000000
-6.049400 0.000000
-6.031800 0.000000
-6.014100 0.000000
-5.996400 0.000000
-5.978800 0.000000
-5.961100 0.000000
-5.943500 0.000000
-5.925800 0.000000
-5.908100 0.000000
-5.890500 0.000000
-5.872800 0.000000
-5.855100 0.000000
-5.837500 0.000000
-5.819800 0.000000
-5.802100 0.000000
-5.784500 0.000000
-5.766800 0.000000
-5.749100 0.000000
-5.731500 0.000000
-5.713800 0.000000
-5.696100 0.000000
-5.678500 0.000000
-5.660800 0.000000
-5.643100 0.000000
-5.625500 0.000000
-5.607800 0.000000
-5.590100 0.000000
-5.572500 0.000000
-5.554800 0.000000
-5.537200 0.000000
-5.519500 0.000000
-5.501800 0.000000
-5.484200 0.000000
-5.466500 0.000000
-5.448800 0.000000
-5.431200 0.000000
-5.413500 0.000000
-5.395800 0.000000
-5.378200 0.000000
-5.360500 0.000000
-5.342800 0.000000
-5.325200 0.000000
-5.307500 0.000000
-5.289800 0.001100
-5.272200 0.067700
-5.254500 0.159400
-5.236800 0.251100
-5.219200 0.342800
-5.201500 0.434400
-5.183800 0.526100
-5.166200 0.587300
-5.148500 0.557200
-5.130900 0.527000
-5.113200 0.496800
-5.095500 0.466600
-5.077900 0.436300
-5.060200 0.412800
-5.042500 0.423200
-5.024900 0.435700
-5.007200 0.448200
-4.989500 0.460700
-4.971900 0.473300
-4.954200 0.485800
-4.936500 0.498300
-4.918900 0.510800
-4.901200 0.523300
-4.883500 0.535800
-4.865900 0.548300
-4.848200 0.560800
-4.830500 0.552700
-4.812900 0.538500
-4.795200 0.524300
-4.777500 0.510000
-4.759900 0.495800
-4.742200 0.503900
-4.724600 0.508100
-4.706900 0.512400
-4.689200 0.516600
-4.671600 0.520900
-4.653900 0.525100
-4.636200 0.529400
-4.618600 0.533600
-4.600900 0.537900
-4.583200 0.542100
-4.565600 0.546400
-4.547900 0.550600
-4.530200 0.554900
-4.512600 0.559100
-4.494900 0.563400
-4.477200 0.568100
-4.459600 0.579700
-4.441900 0.592000
-4.424200 0.604300
-4.406600 0.616700
-4.388900 0.629000
-4.371200 0.641300
-4.353600 0.653600
-4.335900 0.664500
-4.318300 0.664500
-4.300600 0.664300
-4.282900 1.131400
-4.265300 1.192500
-4.247600 1.258000
-4.229900 1.323500
-4.212300 1.389000
-4.194600 1.454500
-4.176900 1.520000
-4.159300 1.585500
-4.141600 1.651000
-4.123900 1.538900
-4.106300 1.543700
-4.088600 1.688500
-4.070900 1.718700
-4.053300 1.748900
-4.035600 1.797000
-4.017900 1.931200
-4.000300 2.065400
-3.982600 2.199600
-3.964900 2.333800
-3.947300 2.468000
-3.929600 2.538300
-3.912000 2.593700
-3.894300 2.649200
-3.876600 2.559300
-3.859000 1.913500
-3.841300 1.807700
-3.823600 1.701900
-3.806000 1.596000
-3.788300 1.490200
-3.770600 1.384400
-3.753000 1.278600
-3.735300 1.204300
-3.717600 1.238200
-3.700000 1.271200
-3.682300 1.220200
-3.664600 1.169200
-3.647000 1.118300
-3.629300 1.067300
-3.611600 1.016300
-3.594000 0.965300
-3.576300 0.914300
-3.558600 0.863300
-3.541000 0.812300
-3.523300 0.761300
-3.505700 0.754800
-3.488000 0.736400
-3.470300 0.718000
-3.452700 0.699500
-3.435000 0.681100
-3.417300 0.662600
-3.399700 0.644200
-3.382000 0.625700
-3.364300 0.607300
-3.346700 0.588900
-3.329000 0.570400
-3.311300 0.552000
-3.293700 0.533500
-3.276000 0.515100
-3.258300 0.496600
-3.240700 0.478200
-3.223000 0.459800
-3.205300 0.441300
-3.187700 0.729900
-3.170000 0.697900
-3.152300 0.665900
-3.134700 0.633900
-3.117000 0.601900
-3.099400 0.569900
-3.081700 0.537900
-3.064000 0.000000
-3.046400 0.000000
-3.028700 0.000000
-3.011000 0.000000
-2.993400 0.000000
-2.975700 0.000000
-2.958000 0.000000
-2.940400 0.000000
-2.922700 0.000000
-2.905000 0.000000
-2.887400 0.000000
-2.869700 0.000000
-2.852000 0.000000
-2.834400 0.000000
-2.816700 0.000000
-2.799000 0.000000
-2.781400 0.000000
-2.763700 0.000000
-2.746000 0.000000
-2.728400 0.000000
-2.710700 0.000000
-2.693000 0.000000
-2.675400 0.000000
-2.657700 0.000000
-2.640100 0.000000
-2.622400 0.000000
-2.604700 0.000000
-2.587100 0.000000
-2.569400 0.000000
-2.551700 0.000000
-2.534100 0.000000
-2.516400 0.000000
-2.498700 0.000000
-2.481100 0.000000
-2.463400 0.000000
-2.445700 0.000000
-2.428100 0.000000
-2.410400 0.000000
-2.392700 0.000000
-2.375100 0.000000
-2.357400 0.000000
-2.339700 0.000000
-2.322100 0.000000
-2.304400 0.000000
-2.286700 0.000000
-2.269100 0.000000
-2.251400 0.000000
-2.233800 0.000000
-2.216100 0.000000
-2.198400 0.000000
-2.180800 0.000000
-2.163100 0.933600
-2.145400 1.002500
-2.127800 1.071300
-2.110100 1.140200
-2.092400 0.479400
-2.074800 0.502200
-2.057100 0.524900
-2.039400 0.547700
-2.021800 0.570400
-2.004100 0.593200
-1.986400 0.616000
-1.968800 0.638700
-1.951100 0.661500
-1.933400 0.684200
-1.915800 0.707000
-1.898100 0.729700
-1.880400 0.752500
-1.862800 0.775200
-1.845100 0.798000
-1.827500 0.820700
-1.809800 0.843500
-1.792100 0.866200
-1.774500 0.889000
-1.756800 0.846800
-1.739100 0.988100
-1.721500 1.129400
-1.703800 1.270700
-1.686100 1.324400
-1.668500 1.224600
-1.650800 1.124800
-1.633100 1.105500
-1.615500 1.153900
-1.597800 1.201500
-1.580100 1.249100
-1.562500 1.296700
-1.544800 1.344300
-1.527100 1.391800
-1.509500 1.439400
-1.491800 1.487000
-1.474100 1.534600
-1.456500 1.582200
-1.438800 1.629800
-1.421200 1.677400
-1.403500 2.073500
-1.385800 2.514400
-1.368200 2.955000
-1.350500 2.393800
-1.332800 1.746700
-1.315200 3.299600
-1.297500 4.235500
-1.279800 3.956500
-1.262200 4.239000
-1.244500 4.530800
-1.226800 4.843900
-1.209200 5.243100
-1.191500 5.645400
-1.173800 6.127900
-1.156200 6.416200
-1.138500 6.703800
-1.120800 6.871000
-1.103200 7.139400
-1.085500 7.151700
-1.067800 7.146100
-1.050200 7.186600
-1.032500 7.270900
-1.014900 7.055000
-0.997200 7.109000
-0.979500 7.147600
-0.961900 8.770800
-0.944200 9.497800
-0.926500 8.484200
-0.908900 7.236500
-0.891200 7.789700
-0.873500 8.847200
-0.855900 8.311800
-0.838200 3.827000
-0.820500 3.061500
-0.802900 3.053300
-0.785200 3.137700
-0.767500 3.270700
-0.749900 3.189100
-0.732200 2.845500
-0.714500 3.526900
-0.696900 5.149800
-0.679200 5.372800
-0.661500 5.346300
-0.643900 4.954900
-0.626200 4.725800
-0.608600 4.504100
-0.590900 4.313900
-0.573200 4.137600
-0.555600 3.947800
-0.537900 4.724700
-0.520200 4.704200
-0.502600 4.865800
-0.484900 4.545600
-0.467200 9.289200
-0.449600 3.837700
-0.431900 5.145100
-0.414200 6.813200
-0.396600 1.731800
-0.378900 1.692800
-0.361200 1.836100
-0.343600 3.296700
-0.325900 4.393600
-0.308200 5.338600
-0.290600 6.198700
-0.272900 6.929000
-0.255200 8.234700
-0.237600 8.426100
-0.219900 8.986000
-0.202300 9.764700
-0.184600 12.484800
-0.166900 10.990000
-0.149300 10.308500
-0.131600 10.067100
-0.113900 9.976500
-0.096300 9.790400
-0.078600 10.036700
-0.060900 9.948500
-0.043300 9.383500
-0.025600 8.869100
-0.007900 8.418800
0.009700 7.939200
0.027400 7.877600
0.045100 7.795600
0.062700 8.787000
0.080400 10.076000
0.098100 11.927600
0.115700 13.408000
0.133400 14.269700
0.151100 13.289600
0.168700 11.623500
0.186400 11.879900
0.204000 12.378200
0.221700 14.593200
0.239400 15.315000
0.257000 13.796400
0.274700 10.459800
0.292400 10.196700
0.310000 10.918800
0.327700 12.248200
0.345400 15.131700
0.363000 14.626200
0.380700 13.428800
0.398400 13.355500
0.416000 14.186900
0.433700 14.060100
0.451400 12.458700
0.469000 10.627400
0.486700 12.081700
0.504400 15.168700
0.522000 18.229900
0.539700 19.866400
0.557400 16.894300
0.575000 14.473700
0.592700 14.056600
0.610400 12.873200
0.628000 10.734300
0.645700 12.060800
0.663300 15.933200
0.681000 16.340600
0.698700 14.908800
0.716300 15.412600
0.734000 15.023300
0.751700 16.112000
0.769300 15.983000
0.787000 14.873500
0.804700 13.016000
0.822300 12.408100
0.840000 11.403800
0.857700 10.636700
0.875300 10.360300
0.893000 10.917900
0.910700 13.240700
0.928300 12.758400
0.946000 12.459300
0.963700 11.697900
0.981300 10.086700
0.999000 9.319200
1.016700 8.617100
1.034300 8.076600
1.052000 7.691800
1.069600 8.073000
1.087300 9.102700
1.105000 11.984100
1.122600 11.778100
1.140300 10.371600
1.158000 9.197000
1.175600 10.040900
1.193300 10.554000
1.211000 10.085200
1.228600 10.334500
1.246300 10.520400
1.264000 9.166800
1.281600 8.679700
1.299300 8.418100
1.317000 8.953200
1.334600 9.210500
1.352300 10.954200
1.370000 12.062100
1.387600 13.433000
1.405300 14.762400
1.423000 15.322500
1.440600 13.246000
1.458300 12.707600
1.475900 12.980300
1.493600 11.994400
1.511300 12.495500
1.528900 10.943100
1.546600 9.533100
1.564300 9.569900
1.581900 9.651200
1.599600 12.051300
1.617300 11.157900
1.634900 10.796500
1.652600 11.368400
1.670300 12.966100
1.687900 12.819800
1.705600 13.489500
1.723300 11.360900
1.740900 9.421700
1.758600 7.565100
1.776300 7.698400
1.793900 8.709700
1.811600 8.750900
1.829300 8.903500
1.846900 9.133500
1.864600 8.217000
1.882200 9.277800
1.899900 8.848300
1.917600 9.669700
1.935200 11.035600
1.952900 13.106900
1.970600 11.188300
1.988200 9.534300
2.005900 9.361900
2.023600 10.699300
2.041200 9.684900
2.058900 9.437600
2.076600 10.517300
2.094200 12.193300
2.111900 11.500400
2.129600 10.632900
2.147200 10.039000
2.164900 9.960500
2.182600 8.543100
2.200200 7.257900
2.217900 5.585000
2.235600 6.026100
2.253200 6.935900
2.270900 7.891900
2.288500 8.446400
2.306200 8.593800
2.323900 8.685200
2.341500 8.150400
2.359200 8.145100
2.376900 8.313100
2.394500 8.385200
2.412200 9.549100
2.429900 10.610700
2.447500 10.804200
2.465200 11.039600
2.482900 11.637300
2.500500 10.798700
2.518200 10.584700
2.535900 11.762000
2.553500 13.071300
2.571200 14.282100
2.588900 16.690200
2.606500 17.546000
2.624200 14.361200
2.641900 12.181500
2.659500 11.252900
2.677200 10.034000
2.694800 9.984800
2.712500 11.136900
2.730200 11.354700
2.747800 11.454500
2.765500 11.620700
2.783200 11.790200
2.800800 12.190400
2.818500 12.756300
2.836200 12.365900
2.853800 12.505700
2.871500 12.341500
2.889200 11.886400
2.906800 11.409200
2.924500 10.789600
2.942200 9.834800
2.959800 10.968400
2.977500 9.392500
2.995200 8.358400
3.012800 7.898900
3.030500 8.139700
3.048200 10.481500
3.065800 8.820300
3.083500 10.143400
3.101100 11.110500
3.118800 11.426100
3.136500 11.424100
3.154100 12.462100
3.171800 15.020800
3.189500 17.043500
3.207100 15.662500
3.224800 11.181700
3.242500 9.251400
3.260100 8.053000
3.277800 7.211900
3.295500 6.356300
3.313100 5.740100
3.330800 5.673500
3.348500 5.944200
3.366100 6.430400
3.383800 6.546100
3.401500 6.062600
3.419100 6.511800
3.436800 7.107200
3.454500 7.693400
3.472100 7.627200
3.489800 7.171400
3.507400 7.730800
3.525100 7.526800
3.542800 7.667900
3.560400 7.798900
3.578100 7.549800
3.595800 7.228200
3.613400 7.315900
3.631100 7.340800
3.648800 6.633900
3.666400 6.283800
3.684100 6.945800
3.701800 7.341100
3.719400 8.536900
3.737100 8.913300
3.754800 9.267000
3.772400 7.649600
3.790100 6.280000
3.807800 5.170000
3.825400 4.684100
3.843100 4.458900
3.860800 4.338000
3.878400 4.116700
3.896100 3.957900
3.913800 3.823000
3.931400 3.697900
3.949100 3.429900
3.966700 3.128800
3.984400 2.773200
4.002100 2.505300
4.019700 2.228800
4.037400 2.128200
4.055100 2.073500
4.072700 2.030200
4.090400 2.005000
4.108100 2.000500
4.125700 2.018600
4.143400 2.033500
4.161100 2.029800
4.178700 2.022600
4.196400 2.005700
4.214100 1.973600
4.231700 1.939800
4.249400 1.907000
4.267100 1.875500
4.284700 1.847000
4.302400 1.824700
4.320100 1.816200
4.337700 1.781400
4.355400 1.749500
4.373000 1.715100
4.390700 1.676400
4.408400 1.645000
4.426000 1.620200
4.443700 1.613600
4.461400 1.569500
4.479000 1.483400
4.496700 1.410000
4.514400 1.380300
4.532000 1.367000
4.549700 1.352200
4.567400 1.337400
4.585000 1.322400
4.602700 1.307700
4.620400 1.294100
4.638000 1.281900
4.655700 1.273300
4.673400 1.261800
4.691000 1.286100
4.708700 1.309300
4.726400 1.337900
4.744000 1.377600
4.761700 1.416100
4.779300 1.488000
4.797000 1.544900
4.814700 1.611600
4.832300 1.686100
4.850000 1.766000
4.867700 2.073600
4.885300 2.152800
4.903000 2.261600
4.920700 2.387000
4.938300 2.329000
4.956000 2.269500
4.973700 2.180600
4.991300 2.091900
5.009000 1.945600
5.026700 1.823400
5.044300 1.760300
5.062000 1.704400
5.079700 1.651900
5.097300 1.603600
5.115000 1.556300
5.132700 1.509800
5.150300 1.482800
5.168000 1.434700
5.185600 1.388400
5.203300 1.354700
5.221000 1.258500
5.238600 1.232600
5.256300 1.210400
5.274000 1.188400
5.291600 1.167600
5.309300 1.148600
5.327000 1.131100
5.344600 1.119800
5.362300 1.129000
5.380000 1.141600
5.397600 1.149100
5.415300 1.153500
5.433000 1.160300
5.450600 1.172600
5.468300 1.189100
5.486000 1.202100
5.503600 1.228200
5.521300 1.251700
5.539000 1.275400
5.556600 1.339700
5.574300 1.442800
5.591900 1.412300
5.609600 1.447100
5.627300 1.482600
5.644900 1.515400
5.662600 1.545600
5.680300 1.559600
5.697900 1.576900
5.715600 1.596200
5.733300 1.614600
5.750900 1.638600
5.768600 1.670000
5.786300 1.695400
5.803900 1.703400
5.821600 1.709400
5.839300 1.708600
5.856900 1.699300
5.874600 1.686200
5.892300 1.670400
5.909900 1.651600
5.927600 1.632400
5.945300 1.614800
5.962900 1.597900
5.980600 1.581700
5.998200 1.566600
6.015900 1.554000
6.033600 1.543400
6.051200 1.528700
6.068900 1.567000
6.086600 1.533100
6.104200 1.525200
6.121900 1.517300
6.139600 1.510200
6.157200 1.503900
6.174900 1.498300
6.192600 1.492300
6.210200 1.485800
6.227900 1.486200
6.245600 1.494200
6.263200 1.511600
6.280900 1.546900
6.298600 1.641300
6.316200 1.826600
6.333900 1.881200
6.351600 1.930900
6.369200 1.903400
6.386900 1.867800
6.404500 1.848500
6.422200 1.841600
6.439900 1.861400
6.457500 1.910600
6.475200 1.938000
6.492900 1.873100
6.510500 1.797200
6.528200 1.720400
6.545900 1.626200
6.563500 1.602800
6.581200 1.575700
6.598900 1.540900
6.616500 1.498400
6.634200 1.471100
6.651900 1.447600
6.669500 1.443600
6.687200 1.477800
6.704900 1.517100
6.722500 1.566100
6.740200 1.624400
6.757900 1.672700
6.775500 1.697900
6.793200 1.731600
6.810900 1.758500
6.828500 1.774700
6.846200 1.797500
6.863800 1.837800
6.881500 1.893700
6.899200 1.929000
6.916800 1.928700
6.934500 2.137500
6.952200 2.278800
6.969800 2.188600
6.987500 2.133900
7.005200 2.099700
7.022800 2.079600
7.040500 2.014500
7.058200 1.978100
7.075800 1.966000
7.093500 1.966500
7.111200 1.975500
7.128800 1.987900
7.146500 2.024400
7.164200 2.165100
7.181800 2.242100
7.199500 2.305700
7.217200 2.508100
7.234800 2.443000
7.252500 2.375200
7.270100 2.293200
7.287800 2.194000
7.305500 2.078000
7.323100 1.970500
7.340800 1.890100
7.358500 1.725700
7.376100 1.681300
7.393800 1.651100
7.411500 1.655700
7.429100 1.686000
7.446800 1.720500
7.464500 1.787100
7.482100 1.826200
7.499800 1.861700
7.517500 1.931300
7.535100 1.987600
7.552800 2.089600
7.570500 2.017500
7.588100 2.008400
7.605800 2.024100
7.623500 2.067100
7.641100 2.860200
7.658800 2.985300
7.676400 2.752800
7.694100 1.911300
7.711800 1.382200
7.729400 1.105700
7.747100 1.044600
7.764800 1.091300
7.782400 1.346700
7.800100 1.590000
7.817800 1.917400
7.835400 2.123200
7.853100 1.961200
7.870800 1.814200
7.888400 1.727700
7.906100 1.678300
7.923800 1.628300
7.941400 1.634000
7.959100 1.671600
7.976800 1.714000
7.994400 1.761500
8.012100 1.810000
8.029800 1.826000
8.047400 1.887100
8.065100 2.053500
8.082700 2.241500
8.100400 2.499700
8.118100 2.624400
8.135700 2.580600
8.153400 2.379000
8.171100 2.336100
8.188700 2.329500
8.206400 2.318400
8.224100 2.311700
8.241700 2.278800
8.259400 2.326800
8.277100 2.226000
8.294700 2.192500
8.312400 2.035900
8.330100 1.708500
8.347700 1.427000
8.365400 1.398000
8.383100 1.574500
8.400700 1.543100
8.418400 1.501300
8.436100 1.491500
8.453700 1.493600
8.471400 1.499400
8.489000 1.510700
8.506700 1.527700
8.524400 1.552900
8.542000 1.603900
8.559700 1.684600
8.577400 1.772700
8.595000 1.868000
8.612700 1.955900
8.630400 2.002400
8.648000 2.076000
8.665700 2.155700
8.683400 2.241400
8.701000 2.290200
8.718700 2.178000
8.736400 2.149300
8.754000 2.105500
8.771700 2.143600
8.789400 2.123700
8.807000 2.085900
8.824700 2.034300
8.842400 1.972900
8.860000 1.935400
8.877700 1.880800
8.895300 1.823000
8.913000 1.660000
8.930700 1.562900
8.948300 1.483100
8.966000 1.409700
8.983700 1.340700
9.001300 1.276200
9.019000 1.217000
9.036700 1.170600
9.054300 1.137800
9.072000 1.116400
9.089700 1.085100
9.107300 1.057800
9.125000 1.034600
9.142700 1.015900
9.160300 1.000200
9.178000 1.017300
9.195700 1.075300
9.213300 1.156900
9.231000 1.265400
9.248700 1.354300
9.266300 1.378700
9.284000 1.401100
9.301600 1.432000
9.319300 1.469400
9.337000 1.507900
9.354600 1.532400
9.372300 1.546900
9.390000 1.588500
9.407600 1.577500
9.425300 1.579500
9.443000 1.583800
9.460600 1.594800
9.478300 1.610200
9.496000 1.630300
9.513600 1.651000
9.531300 1.673800
9.549000 1.677800
9.566600 1.706000
9.584300 1.694100
9.602000 1.670000
9.619600 1.634500
9.637300 1.586600
9.655000 1.522600
9.672600 1.478700
9.690300 1.437300
9.707900 1.399900
9.725600 1.364700
9.743300 1.328800
9.760900 1.292200
9.778600 1.262200
9.796300 1.241100
9.813900 1.223000
9.831600 1.207700
9.849300 1.193200
9.866900 1.183800
9.884600 1.176300
9.902300 1.172600
9.919900 1.173300
9.937600 1.178800
9.955300 1.189100
9.972900 1.207100
9.990600 1.226300
10.008300 1.245000
10.025900 1.263200
10.043600 1.280700
10.061300 1.298300
10.078900 1.315200
10.096600 1.330400
10.114300 1.345600
10.131900 1.364500
10.149600 1.395100
10.167200 1.432800
10.184900 1.536500
10.202600 1.832500
10.220200 1.888800
10.237900 1.932900
10.255600 1.964900
10.273200 1.982800
10.290900 1.989900
10.308600 1.987700
10.326200 2.005600
10.343900 1.986200
10.361600 1.869200
10.379200 1.744600
10.396900 1.680600
10.414600 1.642700
10.432200 1.661000
10.449900 1.690900
10.467600 1.720100
10.485200 1.742700
10.502900 1.770100
10.520600 1.804300
10.538200 1.839400
10.555900 1.870900
10.573500 1.895100
10.591200 1.914700
10.608900 1.930900
10.626500 1.948000
10.644200 1.963200
10.661900 1.979100
10.679500 1.999600
10.697200 2.016500
10.714900 2.031200
10.732500 2.042600
10.750200 1.972500
10.767900 1.942400
10.785500 1.912800
10.803200 1.880100
10.820900 1.857400
10.838500 1.867300
10.856200 1.861800
10.873900 1.838000
10.891500 1.819900
10.909200 1.812500
10.926900 1.803600
10.944500 1.788700
10.962200 1.785700
10.979800 1.790100
10.997500 1.822700
11.015200 1.831800
11.032800 1.929900
11.050500 1.935300
11.068200 1.917700
11.085800 1.871300
11.103500 1.807200
11.121200 1.730000
11.138800 1.589300
11.156500 1.521500
11.174200 1.528900
11.191800 1.456700
11.209500 1.342700
11.227200 1.283400
11.244800 1.227600
11.262500 1.174400
11.280200 1.129800
11.297800 1.082500
11.315500 1.039100
11.333200 0.991000
11.350800 0.939600
11.368500 0.904500
11.386100 0.874500
11.403800 0.854000
11.421500 0.834700
11.439100 0.819000
11.456800 0.803700
11.474500 0.820000
11.492100 0.804700
11.509800 0.788800
11.527500 0.773300
11.545100 0.770300
11.562800 0.767400
11.580500 0.732800
11.598100 1.293800
11.615800 0.633200
11.633500 0.477700
11.651100 0.470900
11.668800 0.465900
11.686500 0.461700
11.704100 0.458400
11.721800 0.455900
11.739500 0.454100
11.757100 0.453200
11.774800 0.452100
11.792400 0.451900
11.810100 0.455300
11.827800 0.465300
11.845400 0.478900
11.863100 0.494300
11.880800 0.512800
11.898400 0.532600
11.916100 0.629500
11.933800 0.587500
11.951400 0.505200
11.969100 0.440300
11.986800 0.403900
12.004400 0.397800
12.022100 0.392800
12.039800 0.388900
12.057400 0.386200
12.075100 0.384600
12.092800 0.384000
12.110400 0.383600
12.128100 0.383300
12.145800 0.383200
12.163400 0.383300
12.181100 0.383500
12.198700 0.383800
12.216400 0.384300
12.234100 0.384900
12.251700 0.385700
12.269400 0.386600
12.287100 0.387600
12.304700 0.388600
12.322400 0.389800
12.340100 0.391000
12.357700 0.392400
12.375400 0.393800
12.393100 0.395200
12.410700 0.396800
12.428400 0.398500
12.446100 0.400500
12.463700 0.402700
12.481400 0.405200
12.499100 0.408100
12.516700 0.411300
12.534400 0.414800
12.552100 0.418600
12.569700 0.422700
12.587400 0.432700
12.605000 0.473000
12.622700 0.559300
12.640400 0.665400
12.658000 0.790400
12.675700 0.939000
12.693400 1.120000
12.711000 1.585500
12.728700 2.102700
12.746400 2.288800
12.764000 2.311400
12.781700 2.432800
12.799400 2.599200
12.817000 2.686800
12.834700 2.686700
12.852400 2.447300
12.870000 2.248900
12.887700 2.185100
12.905400 2.150100
12.923000 2.105200
12.940700 2.013300
12.958400 1.903800
12.976000 1.881700
12.993700 1.862600
13.011300 1.846600
13.029000 1.826900
13.046700 1.803500
13.064300 1.806900
13.082000 1.817700
13.099700 1.834600
13.117300 1.881000
13.135000 1.941600
13.152700 1.960000
13.170300 1.988400
13.188000 2.022300
13.205700 2.218600
13.223300 2.169900
13.241000 2.093500
13.258700 2.051700
13.276300 2.022000
13.294000 2.062200
13.311700 2.202100
13.329300 2.257600
13.347000 2.316200
13.364700 2.381300
13.382300 2.434100
13.400000 2.433000
13.417700 2.347200
13.435300 2.312800
13.453000 2.340700
13.470600 2.469100
13.488300 2.546500
13.506000 2.556400
13.523600 2.556900
13.541300 2.549000
13.559000 2.530800
13.576600 2.508200
13.594300 2.482900
13.612000 2.465600
13.629600 2.501800
13.647300 2.421600
13.665000 2.341800
13.682600 2.298400
13.700300 2.277000
13.718000 2.258000
13.735600 2.243000
13.753300 2.269900
13.771000 2.242100
13.788600 2.205000
13.806300 2.158400
13.824000 2.100600
13.841600 2.055400
13.859300 2.011500
13.876900 1.968800
13.894600 1.925500
13.912300 1.882800
13.929900 1.825100
13.947600 1.795500
13.965300 1.792800
13.982900 1.798200
14.000600 1.843100
14.018300 1.782900
14.035900 1.789900
14.053600 1.797900
14.071300 1.801100
14.088900 1.798600
14.106600 1.787100
14.124300 1.781500
14.141900 1.775100
14.159600 1.768700
14.177300 1.762300
14.194900 1.757400
14.212600 1.753700
14.230300 1.749700
14.247900 1.745500
14.265600 1.742000
14.283200 1.739100
14.300900 1.761100
14.318600 1.776000
14.336200 1.785600
14.353900 1.803500
14.371600 1.896200
14.389200 1.984300
14.406900 1.967500
14.424600 2.043100
14.442200 2.148700
14.459900 2.026500
14.477600 2.056500
14.495200 2.085300
14.512900 2.124800
14.530600 2.157000
14.548200 2.194300
14.565900 2.235200
14.583600 2.288800
14.601200 2.367100
14.618900 2.465700
14.636600 2.598400
14.654200 2.732700
14.671900 2.858400
14.689500 2.768600
14.707200 2.672800
14.724900 2.586500
14.742500 2.469000
14.760200 2.439700
14.777900 2.422300
14.795500 2.332500
14.813200 2.257900
14.830900 2.273500
14.848500 2.292900
14.866200 2.246800
14.883900 2.255100
14.901500 2.239900
14.919200 2.217200
14.936900 2.256000
14.954500 2.266300
14.972200 2.279900
14.989900 2.330000
15.007500 2.375300
15.025200 2.386800
15.042900 2.382700
15.060500 2.397700
15.078200 2.457500
15.095800 2.484200
15.113500 2.447000
15.131200 2.447200
15.148800 2.460200
15.166500 2.482900
15.184200 2.518000
15.201800 2.566100
15.219500 2.633700
15.237200 2.734300
15.254800 2.828200
15.272500 2.900200
15.290200 2.909000
15.307800 2.912300
15.325500 2.918600
15.343200 2.923900
15.360800 2.926800
15.378500 2.967300
15.396200 3.121800
15.413800 3.054100
15.431500 3.090700
15.449200 3.282900
15.466800 3.211300
15.484500 3.174900
15.502100 3.183000
15.519800 3.270800
15.537500 3.214500
15.555100 3.038800
15.572800 2.902100
15.590500 2.843200
15.608100 3.166800
15.625800 3.085500
15.643500 3.099700
15.661100 2.994600
15.678800 2.973800
15.696500 2.990600
15.714100 3.026300
15.731800 3.027900
15.749500 3.061800
15.767100 3.090200
15.784800 2.965700
15.802500 2.894500
15.820100 2.835500
15.837800 2.786200
15.855500 2.743000
15.873100 2.716900
15.890800 2.695900
15.908400 2.686400
15.926100 2.690400
15.943800 2.705300
15.961400 2.732400
15.979100 2.781200
15.996800 2.831100
16.014400 2.868600
16.032100 2.897600
16.049800 2.906200
16.067400 2.897900
16.085100 2.888900
16.102800 2.820700
16.120400 2.792600
16.138100 2.779400
16.155800 2.784100
16.173400 2.785100
16.191100 2.818800
16.208800 2.805600
16.226400 2.922800
16.244100 2.780400
16.261800 2.809300
16.279400 2.841200
16.297100 2.873000
16.314700 2.879100
16.332400 2.883100
16.350100 2.753900
16.367700 2.681600
16.385400 2.650000
16.403100 2.631000
16.420700 2.616600
16.438400 2.605500
16.456100 2.598700
16.473700 2.588800
16.491400 2.577400
16.509100 2.560900
16.526700 2.532600
16.544400 2.500900
16.562100 2.467400
16.579700 2.441700
16.597400 2.425000
16.615100 2.407000
16.632700 2.388100
16.650400 2.377700
16.668100 2.378100
16.685700 2.375700
16.703400 2.355100
16.721100 2.328900
16.738700 2.315200
16.756400 2.286100
16.774000 2.261800
16.791700 2.246400
16.809400 2.236300
16.827000 2.242100
16.844700 2.274900
16.862400 2.330200
16.880000 2.359900
16.897700 2.375200
16.915400 2.392900
16.933000 2.398300
16.950700 2.419500
16.968400 2.442800
16.986000 2.468500
17.003700 2.497600
17.021400 2.524100
17.039000 2.545900
17.056700 2.575100
17.074400 2.585800
17.092000 2.505600
17.109700 2.432500
17.127400 2.423800
17.145000 2.420500
17.162700 2.428600
17.180300 2.431200
17.198000 2.533900
17.215700 2.621300
17.233300 2.468900
17.251000 2.404600
17.268700 2.423000
17.286300 2.497200
17.304000 2.568100
17.321700 2.525000
17.339300 2.531800
17.357000 2.557700
17.374700 2.597800
17.392300 2.522100
17.410000 2.502300
17.427700 2.455900
17.445300 2.358800
17.463000 2.309700
17.480700 2.285300
17.498300 2.301100
17.516000 2.283500
17.533700 2.343000
17.551300 2.345100
17.569000 2.341200
17.586600 2.331700
17.604300 2.349600
17.622000 2.374700
17.639600 2.395300
17.657300 2.402200
17.675000 2.465100
17.692600 2.472800
17.710300 2.388100
17.728000 2.358500
17.745600 2.445800
17.763300 2.543600
17.781000 2.744200
17.798600 2.922400
17.816300 4.108800
17.834000 3.301600
17.851600 3.237100
17.869300 3.124700
17.887000 3.078500
17.904600 2.974900
17.922300 2.874900
17.940000 2.835400
17.957600 2.841600
17.975300 2.833100
17.992900 2.822300
18.010600 2.819200
18.028300 2.821500
18.045900 2.825600
18.063600 2.831300
18.081300 2.831700
18.098900 2.831400
18.116600 2.840800
18.134300 2.990900
18.151900 2.934900
18.169600 2.869700
18.187300 2.892600
18.204900 2.941200
18.222600 2.985800
18.240300 3.017800
18.257900 3.028300
18.275600 3.022000
18.293300 2.939100
18.310900 2.863600
18.328600 2.810100
18.346300 2.814600
18.363900 2.820900
18.381600 2.832800
18.399200 2.850900
18.416900 2.876600
18.434600 2.912900
18.452200 2.955500
18.469900 3.005100
18.487600 3.064900
18.505200 3.139200
18.522900 3.226200
18.540600 3.308300
18.558200 3.345700
18.575900 3.349800
18.593600 3.329000
18.611200 3.245900
18.628900 3.143400
18.646600 3.044900
18.664200 2.989200
18.681900 2.955700
18.699600 2.947500
18.717200 2.981200
18.734900 3.003600
18.752600 3.056000
18.770200 3.047700
18.787900 3.046900
18.805500 3.034500
18.823200 3.141300
18.840900 3.189400
18.858500 3.198300
18.876200 3.250500
18.893900 3.123400
18.911500 3.116600
18.929200 3.106800
18.946900 3.096900
18.964500 3.086700
18.982200 3.072800
18.999900 3.064400
19.017500 3.060200
19.035200 3.057600
19.052900 3.054100
19.070500 3.051000
19.088200 3.050000
19.105900 3.046900
19.123500 3.092600
19.141200 3.126200
19.158900 3.048600
19.176500 2.969300
19.194200 2.863300
19.211800 2.861500
19.229500 2.856600
19.247200 2.853700
19.264800 2.854400
19.282500 2.858000
19.300200 2.866200
19.317800 2.882100
19.335500 2.891300
19.353200 2.887000
19.370800 2.901500
19.388500 2.919700
19.406200 3.005000
19.423800 3.153300
19.441500 3.236400
19.459200 3.273700
19.476800 3.306400
19.494500 3.312000
19.512200 3.305600
19.529800 3.223100
19.547500 3.128900
19.565200 3.083900
19.582800 3.061800
19.600500 3.026300
19.618100 2.975800
19.635800 2.896200
19.653500 2.813100
19.671100 2.675400
19.688800 2.605600
19.706500 2.550000
19.724100 2.485100
19.741800 2.447400
19.759500 2.403000
19.777100 2.369200
19.794800 2.336200
19.812500 2.309700
19.830100 2.300800
19.847800 2.297900
19.865500 2.300400
19.883100 2.306000
19.900800 2.312400
19.918500 2.317300
19.936100 2.316400
19.953800 2.318300
19.971500 2.324400
19.989100 2.328800
20.006800 2.336400
20.024500 2.354400
20.042100 2.405200
20.059800 2.473100
20.077400 2.549900
20.095100 2.645000
20.112800 2.679300
20.130400 2.647400
20.148100 2.597900
20.165800 2.581900
20.183400 2.566500
20.201100 2.545500
20.218800 2.509200
20.236400 2.468800
20.254100 2.435300
20.271800 2.400300
20.289400 2.364100
20.307100 2.331900
20.324800 2.307100
20.342400 2.285200
20.360100 2.271700
20.377800 2.265300
20.395400 2.271100
20.413100 2.284900
20.430800 2.313100
20.448400 2.360800
20.466100 2.384800
20.483700 2.377400
20.501400 2.382800
20.519100 2.425400
20.536700 2.448200
20.554400 2.421100
20.572100 2.379400
20.589700 2.357000
20.607400 2.336200
20.625100 2.325800
20.642700 2.350500
20.660400 2.419100
20.678100 2.458300
20.695700 2.487300
20.713400 2.506100
20.731100 2.517900
20.748700 2.529500
20.766400 2.542400
20.784100 2.555900
20.801700 2.577300
20.819400 2.613300
20.837100 2.626200
20.854700 2.625300
20.872400 2.577800
20.890000 2.531400
20.907700 2.516600
20.925400 2.513300
20.943000 2.516100
20.960700 2.520000
20.978400 2.532500
20.996000 2.560300
21.013700 2.590500
21.031400 2.627200
21.049000 2.670600
21.066700 2.709300
21.084400 2.756700
21.102000 2.807300
21.119700 2.938300
21.137400 3.227500
21.155000 3.387900
21.172700 3.539900
21.190400 3.674200
21.208000 3.771100
21.225700 3.862400
21.243400 4.003900
21.261000 3.956300
21.278700 3.822300
21.296300 3.721200
21.314000 3.616200
21.331700 3.579500
21.349300 3.610300
21.367000 3.653900
21.384700 3.639900
21.402300 3.526400
21.420000 3.441900
21.437700 3.400000
21.455300 3.340100
21.473000 3.308700
21.490700 3.317500
21.508300 3.325300
21.526000 3.316200
21.543700 3.291200
21.561300 3.561600
21.579000 3.250600
21.596700 3.170600
21.614300 3.162600
21.632000 3.184000
21.649700 3.228300
21.667300 3.317000
21.685000 3.418100
21.702600 3.481800
21.720300 3.846400
21.738000 3.551400
21.755600 3.557900
21.773300 3.511400
21.791000 3.493600
21.808600 3.442400
21.826300 3.395900
21.844000 3.352900
21.861600 3.296400
21.879300 3.215000
21.897000 3.111000
21.914600 3.006700
21.932300 2.928100
21.950000 2.865800
21.967600 2.793100
21.985300 2.713500
22.003000 2.606500
22.020600 2.449500
22.038300 2.376000
22.056000 2.352100
22.073600 2.422700
22.091300 2.296200
22.108900 2.221500
22.126600 2.146300
22.144300 2.087900
22.161900 2.044000
22.179600 2.012600
22.197300 1.993300
22.214900 1.973000
22.232600 1.990100
22.250300 2.018000
22.267900 2.031800
22.285600 2.050200
22.303300 2.076700
22.320900 2.130000
22.338600 2.181200
22.356300 2.227200
22.373900 2.263700
22.391600 2.287600
22.409300 2.307600
22.426900 2.320400
22.444600 2.195300
22.462300 2.186800
22.479900 2.290500
22.497600 2.305200
22.515200 2.289100
22.532900 2.319300
22.550600 2.373500
22.568200 2.418800
22.585900 2.441700
22.603600 2.457700
22.621200 2.386400
22.638900 2.464600
22.656600 2.598600
22.674200 2.664200
22.691900 2.828800
22.709600 3.044200
22.727200 3.217900
22.744900 3.440400
22.762600 3.886500
22.780200 3.903800
22.797900 3.939300
22.815600 4.093200
22.833200 4.220100
22.850900 4.392500
22.868600 4.579700
22.886200 4.692900
22.903900 4.788700
22.921500 4.838400
22.939200 4.797000
22.956900 4.805900
22.974500 4.819800
22.992200 4.746300
23.009900 4.385300
23.027500 3.911800
23.045200 3.781800
23.062900 3.829900
23.080500 3.628300
23.098200 3.557200
23.115900 3.283000
23.133500 3.203500
23.151200 3.144200
23.168900 3.082900
23.186500 3.009500
23.204200 2.859300
23.221900 2.737300
23.239500 2.670600
23.257200 2.617100
23.274900 2.644300
23.292500 2.680700
23.310200 2.718700
23.327900 2.805000
23.345500 2.998000
23.363200 3.211000
23.380800 3.408500
23.398500 3.578300
23.416200 3.911600
23.433800 4.122700
23.451500 4.265500
23.469200 4.513400
23.486800 4.778700
23.504500 4.845000
23.522200 4.933200
23.539800 5.111000
23.557500 5.119100
23.575200 4.762500
23.592800 5.122300
23.610500 4.532000
23.628200 4.108000
23.645800 3.878100
23.663500 3.782700
23.681200 3.768600
23.698800 3.757800
23.716500 3.751600
23.734200 3.750900
23.751800 3.762300
23.769500 3.776200
23.787100 3.764900
23.804800 3.645600
23.822500 3.667800
23.840100 3.711100
23.857800 3.935400
23.875500 4.161400
23.893100 4.374100
23.910800 4.457700
23.928500 4.489900
23.946100 4.572800
23.963800 4.443100
23.981500 4.221500
23.999100 4.111800
24.016800 4.036300
24.034500 3.989100
24.052100 3.942900
24.069800 3.909600
24.087500 3.891900
24.105100 3.849900
24.122800 3.800400
24.140500 3.748200
24.158100 3.695300
24.175800 3.694600
24.193400 3.684300
24.211100 3.709600
24.228800 3.744300
24.246400 3.727700
24.264100 3.743600
24.281800 3.746000
24.299400 3.737400
24.317100 3.725200
24.334800 3.841200
24.352400 3.847400
24.370100 3.653600
24.387800 3.589600
24.405400 3.541000
24.423100 3.481600
24.440800 3.411500
24.458400 3.331400
24.476100 3.248200
24.493800 3.256200
24.511400 3.067500
24.529100 3.002200
24.546800 2.964300
24.564400 2.936900
24.582100 2.940500
24.599700 2.963800
24.617400 3.045500
24.635100 3.155900
24.652700 3.426300
24.670400 3.619600
24.688100 3.754000
24.705700 3.765800
24.723400 4.004200
24.741100 4.140200
24.758700 4.293300
24.776400 4.320100
24.794100 4.409300
24.811700 4.424900
24.829400 4.359300
24.847100 4.293300
24.864700 3.947000
24.882400 3.780800
24.900100 4.153300
24.917700 5.149600
24.935400 8.355100
24.953100 18.799700
24.970700 15.686000
24.988400 35.359300
25.006000 25.053900
25.023700 13.794400
25.041400 9.387100
25.059000 16.230000
25.076700 16.510300
25.094400 17.531400
25.112000 13.343200
25.129700 11.577300
25.147400 8.133900
25.165000 6.595000
25.182700 5.884000
25.200400 5.652400
25.218000 5.526300
25.235700 5.581000
25.253400 5.883000
25.271000 6.129400
25.288700 6.935000
25.306400 8.340100
25.324000 11.415900
25.341700 15.761500
25.359400 20.002400
25.377000 25.100700
25.394700 42.077800
25.412300 26.106800
25.430000 16.301800
25.447700 8.928100
25.465300 12.424000
25.483000 30.692700
25.500700 26.025100
25.518300 23.751500
25.536000 20.368800
25.553700 11.238300
25.571300 6.984300
25.589000 6.120800
25.606700 5.917500
25.624300 6.091600
25.642000 6.270900
25.659700 6.706800
25.677300 7.026400
25.695000 7.030600
25.712700 6.931600
25.730300 6.863800
25.748000 6.858600
25.765700 6.881900
25.783300 7.051500
25.801000 7.242100
25.818600 9.029300
25.836300 9.164700
25.854000 8.122600
25.871600 7.134900
25.889300 11.743000
25.907000 36.369600
25.924600 91.819100
25.942300 55.049800
25.960000 36.693300
25.977600 17.589200
25.995300 30.742700
26.013000 35.021900
26.030600 20.855700
26.048300 13.133900
26.066000 10.998700
26.083600 19.397200
26.101300 23.824400
26.119000 15.935700
26.136600 12.537400
26.154300 10.570300
26.172000 8.618700
26.189600 7.109900
26.207300 5.829500
26.224900 5.171600
26.242600 4.836700
26.260300 4.682300
26.277900 5.344700
26.295600 6.983000
26.313300 8.112900
26.330900 10.090000
26.348600 13.412300
26.366300 28.170500
26.383900 43.262200
26.401600 78.368400
26.419300 49.280500
26.436900 32.417200
26.454600 21.734500
26.472300 15.333000
26.489900 14.518700
26.507600 15.590900
26.525300 13.708500
26.542900 10.817500
26.560600 9.273400
26.578300 7.707100
26.595900 6.746000
26.613600 5.810800
26.631300 4.636500
26.648900 3.593700
26.666600 2.618900
26.684200 1.775100
26.701900 1.138000
26.719600 0.820000
26.737200 0.559700
26.754900 0.352200
26.772600 0.207700
26.790200 0.104300
26.807900 0.034600
26.825600 0.001600
26.843200 0.000000
26.860900 0.000000
26.878600 0.000000
26.896200 0.000000
26.913900 0.000000
26.931600 0.000000
26.949200 0.000000
26.966900 0.000000
26.984600 0.000000
27.002200 0.000000
27.019900 0.000000
27.037600 0.000000
27.055200 0.000000
27.072900 0.000000
27.090500 0.000000
27.108200 0.000000
27.125900 0.000000
27.143500 0.000000
27.161200 0.000000
27.178900 0.000000
27.196500 0.000000
27.214200 0.000000
27.231900 0.000000
27.249500 0.000000
27.267200 0.000000
27.284900 0.000000
27.302500 0.000000
27.320200 0.000000
27.337900 0.000000
27.355500 0.000000
27.373200 0.000000
27.390900 0.000000
27.408500 0.000000
27.426200 0.000000
27.443900 0.000000
27.461500 0.000000
27.479200 0.000000
27.496800 0.000000
27.514500 0.000000
27.532200 0.000000
27.549800 0.000000
27.567500 0.000000
27.585200 0.000000
27.602800 0.000000
27.620500 0.000000
27.638200 0.000000
27.655800 0.000000
27.673500 0.000000
27.691200 0.000000
27.708800 0.000000
27.726500 0.000000
27.744200 0.000000
27.761800 0.000000
27.779500 0.000000
27.797200 0.000000
27.814800 0.000000
27.832500 0.000000
27.850200 0.000000
27.867800 0.000000
27.885500 0.000000
27.903100 0.000000
27.920800 0.000000
27.938500 0.000000
27.956100 0.000000
27.973800 0.000000
27.991500 0.000000
28.009100 0.000000
28.026800 0.000000
28.044500 0.000000
28.062100 0.000000
28.079800 0.000000
28.097500 0.000000
28.115100 0.000000
28.132800 0.000000
28.150500 0.000000
28.168100 0.000000
28.185800 0.000000
28.203500 0.000000
28.221100 0.000000
28.238800 0.000000
28.256500 0.000000
28.274100 0.000000
28.291800 0.000000
28.309400 0.000000
28.327100 0.000000
28.344800 0.000000
28.362400 0.000000
28.380100 0.000000
28.397800 0.000000
28.415400 0.000000
28.433100 0.000000
e
