set title 'mp-1183477 - Density of States'
set xlabel 'Energy (eV)'
set ylabel 'DOS (states/eV)'
set grid
set xrange [-10:10]
set yrange [0:13.224]
set xzeroaxis lt -1
set terminal png size 800,600
set output 'mp-1183477_dos_gnuplot.png'
plot '-' using 1:2 with lines title 'DOS'
-7.307700 0.000000
-7.285900 0.000000
-7.264000 0.000000
-7.242200 0.000000
-7.220400 0.000000
-7.198500 0.000000
-7.176700 0.000000
-7.154900 0.000000
-7.133100 0.000000
-7.111200 0.000000
-7.089400 0.000000
-7.067600 0.000000
-7.045700 0.000000
-7.023900 0.000000
-7.002100 0.000000
-6.980200 0.000000
-6.958400 0.000000
-6.936600 0.000000
-6.914700 0.000000
-6.892900 0.000000
-6.871100 0.000000
-6.849200 0.000000
-6.827400 0.000000
-6.805600 0.000000
-6.783800 0.000000
-6.761900 0.000000
-6.740100 0.000000
-6.718300 0.000000
-6.696400 0.000000
-6.674600 0.000000
-6.652800 0.000000
-6.630900 0.000000
-6.609100 0.000000
-6.587300 0.000000
-6.565400 0.000000
-6.543600 0.000000
-6.521800 0.000000
-6.499900 0.000000
-6.478100 0.000000
-6.456300 0.000000
-6.434500 0.000000
-6.412600 0.000000
-6.390800 0.000000
-6.369000 0.000000
-6.347100 0.000000
-6.325300 0.000000
-6.303500 0.000000
-6.281600 0.000000
-6.259800 0.000000
-6.238000 0.000000
-6.216100 0.000000
-6.194300 0.000000
-6.172500 0.000000
-6.150600 0.000000
-6.128800 0.000000
-6.107000 0.000000
-6.085200 0.000000
-6.063300 0.000000
-6.041500 0.000000
-6.019700 0.000000
-5.997800 0.000000
-5.976000 0.000000
-5.954200 0.000000
-5.932300 0.000000
-5.910500 0.000000
-5.888700 0.000000
-5.866800 0.000000
-5.845000 0.000000
-5.823200 0.000000
-5.801400 0.000000
-5.779500 0.000000
-5.757700 0.000000
-5.735900 0.000000
-5.714000 0.000000
-5.692200 0.000000
-5.670400 0.000000
-5.648500 0.000000
-5.626700 0.000000
-5.604900 0.000000
-5.583000 0.000000
-5.561200 0.000000
-5.539400 0.000000
-5.517500 0.000000
-5.495700 0.000000
-5.473900 0.000000
-5.452100 0.000000
-5.430200 0.000000
-5.408400 0.000000
-5.386600 0.000000
-5.364700 0.000000
-5.342900 0.000000
-5.321100 0.000100
-5.299200 0.017900
-5.277400 0.065800
-5.255600 0.126100
-5.233700 0.179800
-5.211900 0.199600
-5.190100 0.219200
-5.168200 0.240700
-5.146400 0.255200
-5.124600 0.279700
-5.102800 0.306300
-5.080900 0.334000
-5.059100 0.362800
-5.037300 0.387300
-5.015400 0.403600
-4.993600 0.416600
-4.971800 0.439500
-4.949900 0.460600
-4.928100 0.481900
-4.906300 0.503600
-4.884400 0.525900
-4.862600 0.549200
-4.840800 0.573100
-4.818900 0.598100
-4.797100 0.626800
-4.775300 0.660200
-4.753500 0.695700
-4.731600 0.727600
-4.709800 0.760300
-4.688000 0.794000
-4.666100 0.829500
-4.644300 0.866900
-4.622500 0.912300
-4.600600 1.014400
-4.578800 1.087000
-4.557000 1.124600
-4.535100 1.145200
-4.513300 1.146500
-4.491500 1.178700
-4.469600 1.211200
-4.447800 1.244700
-4.426000 1.277500
-4.404200 1.295400
-4.382300 1.326500
-4.360500 1.366600
-4.338700 1.413300
-4.316800 1.465700
-4.295000 1.522900
-4.273200 1.584700
-4.251300 1.651600
-4.229500 1.722700
-4.207700 1.801300
-4.185800 1.884800
-4.164000 1.973500
-4.142200 2.069800
-4.120300 2.199800
-4.098500 2.448000
-4.076700 2.815200
-4.054900 3.465200
-4.033000 4.220100
-4.011200 4.237900
-3.989400 4.146000
-3.967500 3.398100
-3.945700 3.161800
-3.923900 3.062800
-3.902000 2.875000
-3.880200 2.910500
-3.858400 3.057900
-3.836500 2.796200
-3.814700 0.000000
-3.792900 0.000000
-3.771000 0.000000
-3.749200 0.000000
-3.727400 0.000000
-3.705600 0.000000
-3.683700 0.000000
-3.661900 0.000000
-3.640100 0.000000
-3.618200 0.000000
-3.596400 0.000000
-3.574600 0.000000
-3.552700 0.000000
-3.530900 0.000000
-3.509100 0.000000
-3.487200 0.000000
-3.465400 0.000000
-3.443600 0.000000
-3.421700 0.000000
-3.399900 0.000000
-3.378100 0.000000
-3.356300 0.000000
-3.334400 0.000000
-3.312600 0.000000
-3.290800 0.000000
-3.268900 0.000000
-3.247100 0.000000
-3.225300 0.000000
-3.203400 0.000000
-3.181600 0.000000
-3.159800 0.000000
-3.137900 0.000000
-3.116100 0.000000
-3.094300 0.000000
-3.072500 0.000000
-3.050600 0.000000
-3.028800 0.000000
-3.007000 0.000000
-2.985100 0.000000
-2.963300 0.000000
-2.941500 0.000000
-2.919600 0.000000
-2.897800 0.000000
-2.876000 0.000000
-2.854100 0.000000
-2.832300 0.000000
-2.810500 0.000000
-2.788600 0.000000
-2.766800 0.000000
-2.745000 0.000000
-2.723200 0.000000
-2.701300 0.000000
-2.679500 0.000000
-2.657700 0.000000
-2.635800 0.000000
-2.614000 0.000000
-2.592200 0.000000
-2.570300 0.000000
-2.548500 0.000000
-2.526700 0.000000
-2.504800 0.000000
-2.483000 0.000000
-2.461200 0.000000
-2.439300 0.000000
-2.417500 0.000000
-2.395700 0.000000
-2.373900 0.000000
-2.352000 0.000000
-2.330200 0.000000
-2.308400 0.000000
-2.286500 0.000000
-2.264700 0.000000
-2.242900 0.000000
-2.221000 0.000000
-2.199200 0.000000
-2.177400 0.000000
-2.155500 0.000000
-2.133700 0.000000
-2.111900 0.000000
-2.090000 0.000000
-2.068200 0.000000
-2.046400 0.000000
-2.024600 0.000000
-2.002700 0.000000
-1.980900 0.000000
-1.959100 0.000000
-1.937200 0.000000
-1.915400 0.000000
-1.893600 0.000000
-1.871700 0.000000
-1.849900 0.000000
-1.828100 0.000000
-1.806200 0.000000
-1.784400 0.000000
-1.762600 0.000000
-1.740700 0.000000
-1.718900 0.000000
-1.697100 0.000000
-1.675300 0.000000
-1.653400 0.000000
-1.631600 0.000000
-1.609800 0.000000
-1.587900 0.000000
-1.566100 0.000000
-1.544300 0.000000
-1.522400 0.000000
-1.500600 0.000000
-1.478800 0.000000
-1.456900 0.000000
-1.435100 0.000000
-1.413300 0.000000
-1.391400 0.000000
-1.369600 0.000000
-1.347800 0.000000
-1.326000 0.000000
-1.304100 0.000000
-1.282300 0.000000
-1.260500 0.000000
-1.238600 0.000000
-1.216800 0.000000
-1.195000 0.000000
-1.173100 0.000000
-1.151300 0.000000
-1.129500 0.000000
-1.107600 0.000000
-1.085800 0.000000
-1.064000 0.000000
-1.042100 0.000000
-1.020300 0.000000
-0.998500 0.000000
-0.976700 0.000000
-0.954800 0.000000
-0.933000 0.000000
-0.911200 0.000000
-0.889300 0.000000
-0.867500 0.000000
-0.845700 0.000000
-0.823800 0.000000
-0.802000 0.000000
-0.780200 0.000000
-0.758300 0.000000
-0.736500 0.000000
-0.714700 0.000000
-0.692900 0.000000
-0.671000 0.000000
-0.649200 0.000000
-0.627400 0.000000
-0.605500 0.000000
-0.583700 0.000000
-0.561900 0.000000
-0.540000 0.000000
-0.518200 0.000000
-0.496400 0.000000
-0.474500 0.000000
-0.452700 0.000000
-0.430900 0.000000
-0.409000 0.000000
-0.387200 0.000000
-0.365400 0.000000
-0.343600 0.000000
-0.321700 0.000000
-0.299900 0.000000
-0.278100 0.000000
-0.256200 0.000000
-0.234400 0.000000
-0.212600 0.000000
-0.190700 0.000000
-0.168900 0.000000
-0.147100 0.000000
-0.125200 0.000000
-0.103400 0.000000
-0.081600 0.000000
-0.059700 0.000000
-0.037900 0.000000
-0.016100 0.000000
0.005700 0.000000
0.027600 0.000000
0.049400 0.014200
0.071200 0.046000
0.093100 0.063000
0.114900 0.089600
0.136700 0.111600
0.158600 0.129100
0.180400 0.142000
0.202200 0.145100
0.224100 0.153200
0.245900 0.166100
0.267700 0.179600
0.289600 0.193700
0.311400 0.208400
0.333200 0.223700
0.355000 0.233400
0.376900 0.315900
0.398700 0.505400
0.420500 0.638600
0.442400 0.776200
0.464200 0.821600
0.486000 0.905900
0.507900 1.005300
0.529700 1.119800
0.551500 1.372800
0.573400 1.393900
0.595200 1.396800
0.617000 1.400300
0.638900 1.467600
0.660700 1.535900
0.682500 1.607300
0.704300 1.720200
0.726200 1.876500
0.748000 2.138000
0.769800 2.303000
0.791700 2.674600
0.813500 2.829200
0.835300 2.796800
0.857200 2.734700
0.879000 2.542100
0.900800 2.422700
0.922700 2.377300
0.944500 2.344800
0.966300 2.315300
0.988200 2.283100
1.010000 2.241200
1.031800 2.188100
1.053600 2.223900
1.075500 2.190400
1.097300 2.099500
1.119100 1.994300
1.141000 1.789200
1.162800 1.644100
1.184600 1.559000
1.206500 1.486700
1.228300 1.417300
1.250100 1.369900
1.272000 1.344400
1.293800 1.327800
1.315600 1.304300
1.337500 1.286300
1.359300 1.293700
1.381100 1.328500
1.402900 1.315000
1.424800 1.231400
1.446600 1.211200
1.468400 1.186300
1.490300 1.132600
1.512100 1.066300
1.533900 1.009000
1.555800 0.964700
1.577600 0.931600
1.599400 0.926700
1.621300 0.936000
1.643100 0.959700
1.664900 0.999600
1.686800 1.042400
1.708600 1.089600
1.730400 1.138300
1.752200 1.177300
1.774100 1.279800
1.795900 1.361900
1.817700 1.447600
1.839600 1.590000
1.861400 1.641200
1.883200 1.706000
1.905100 1.804600
1.926900 1.894000
1.948700 1.968600
1.970600 2.031700
1.992400 2.121800
2.014200 2.156000
2.036000 2.243400
2.057900 2.326900
2.079700 2.374200
2.101500 2.429900
2.123400 2.613300
2.145200 2.810600
2.167000 2.827600
2.188900 2.684200
2.210700 2.570100
2.232500 2.541600
2.254400 2.571900
2.276200 2.666000
2.298000 2.857600
2.319900 3.110700
2.341700 4.178000
2.363500 4.168900
2.385300 3.634300
2.407200 3.337300
2.429000 3.459200
2.450800 3.542300
2.472700 3.525200
2.494500 3.187300
2.516300 2.986300
2.538200 2.878600
2.560000 2.821900
2.581800 2.826600
2.603700 3.075600
2.625500 3.042500
2.647300 3.380900
2.669200 4.671700
2.691000 6.408900
2.712800 5.571200
2.734600 5.154200
2.756500 5.031400
2.778300 4.811400
2.800100 4.810500
2.822000 5.006500
2.843800 4.129000
2.865600 4.172400
2.887500 4.319300
2.909300 4.185700
2.931100 4.145900
2.953000 3.441600
2.974800 2.894600
2.996600 2.365800
3.018500 2.140500
3.040300 3.001300
3.062100 4.243700
3.083900 5.139100
3.105800 5.273300
3.127600 6.212300
3.149400 6.730900
3.171300 6.930600
3.193100 6.666900
3.214900 7.044300
3.236800 7.975200
3.258600 7.387900
3.280400 7.210100
3.302300 7.032900
3.324100 7.164700
3.345900 7.665100
3.367800 7.294700
3.389600 6.080400
3.411400 5.760300
3.433200 5.611400
3.455100 5.468900
3.476900 5.633000
3.498700 5.853500
3.520600 6.179200
3.542400 6.567200
3.564200 7.105500
3.586100 7.319000
3.607900 7.735800
3.629700 7.678200
3.651600 7.423300
3.673400 7.708700
3.695200 7.960700
3.717100 6.523600
3.738900 6.107400
3.760700 6.188200
3.782500 5.701200
3.804400 5.707900
3.826200 5.644000
3.848000 5.156700
3.869900 4.966700
3.891700 4.707900
3.913500 4.452700
3.935400 3.974500
3.957200 3.666200
3.979000 3.382000
4.000900 3.215400
4.022700 3.128800
4.044500 2.918400
4.066400 2.604500
4.088200 2.216800
4.110000 1.837000
4.131800 2.055100
4.153700 2.731400
4.175500 3.641500
4.197300 5.569600
4.219200 6.812500
4.241000 7.542800
4.262800 7.915300
4.284700 6.355600
4.306500 5.969700
4.328300 6.261600
4.350200 6.404200
4.372000 7.824400
4.393800 7.236700
4.415600 8.088200
4.437500 9.783700
4.459300 11.355100
4.481100 9.907500
4.503000 9.176800
4.524800 9.190400
4.546600 9.718000
4.568500 9.586300
4.590300 8.878600
4.612100 8.366300
4.634000 8.880200
4.655800 9.869100
4.677600 10.448600
4.699500 9.744300
4.721300 7.584400
4.743100 5.234500
4.764900 3.996000
4.786800 3.531100
4.808600 3.269200
4.830400 3.185100
4.852300 3.430700
4.874100 3.811800
4.895900 4.141300
4.917800 4.542800
4.939600 6.492900
4.961400 8.324600
4.983300 6.294200
5.005100 5.303700
5.026900 5.073200
5.048800 5.192100
5.070600 5.059600
5.092400 4.445500
5.114200 4.189500
5.136100 3.940600
5.157900 3.663000
5.179700 3.708600
5.201600 3.596800
5.223400 4.149000
5.245200 4.492600
5.267100 5.082000
5.288900 5.282800
5.310700 6.135500
5.332600 7.609400
5.354400 9.066500
5.376200 6.249200
5.398100 6.305900
5.419900 6.840800
5.441700 6.141000
5.463500 6.202000
5.485400 6.157000
5.507200 5.332000
5.529000 5.877700
5.550900 5.172600
5.572700 5.101300
5.594500 5.620700
5.616400 6.107500
5.638200 6.696000
5.660000 7.922900
5.681900 8.133200
5.703700 8.261500
5.725500 9.794400
5.747400 11.245900
5.769200 11.927300
5.791000 12.022200
5.812800 11.060100
5.834700 10.210800
5.856500 9.442200
5.878300 8.383900
5.900200 7.956200
5.922000 7.741200
5.943800 7.479600
5.965700 8.232700
5.987500 7.852100
6.009300 6.432100
6.031200 5.918900
6.053000 5.925300
6.074800 5.944800
6.096700 5.847700
6.118500 5.850900
6.140300 6.577100
6.162100 5.684900
6.184000 5.648100
6.205800 6.337300
6.227600 5.611300
6.249500 4.937800
6.271300 4.920700
6.293100 4.386100
6.315000 4.050000
6.336800 3.874800
6.358600 3.822900
6.380500 3.788200
6.402300 3.751900
6.424100 3.555800
6.446000 3.087600
6.467800 2.873100
6.489600 2.783000
6.511400 2.824600
6.533300 3.057800
6.555100 4.142200
6.576900 4.617800
6.598800 3.955600
6.620600 3.515300
6.642400 3.505600
6.664300 3.651600
6.686100 3.386600
6.707900 3.858000
6.729800 4.555300
6.751600 5.593300
6.773400 8.102800
6.795300 9.812700
6.817100 10.620700
6.838900 10.713300
6.860700 10.663000
6.882600 9.635700
6.904400 8.340100
6.926200 7.186100
6.948100 7.313700
6.969900 8.409200
6.991700 10.165500
7.013600 10.328900
7.035400 8.790600
7.057200 7.050400
7.079100 5.783100
7.100900 6.634400
7.122700 6.053500
7.144500 6.556600
7.166400 5.974900
7.188200 5.390000
7.210000 5.198700
7.231900 5.095300
7.253700 5.205100
7.275500 3.998000
7.297400 3.748800
7.319200 3.504800
7.341000 3.133800
7.362900 2.839200
7.384700 2.606000
7.406500 2.433200
7.428400 2.249200
7.450200 2.005000
7.472000 1.852600
7.493800 1.725600
7.515700 1.698700
7.537500 1.684000
7.559300 1.670400
7.581200 1.634300
7.603000 1.570900
7.624800 1.515100
7.646700 1.554100
7.668500 1.541000
7.690300 1.530800
7.712200 1.547300
7.734000 1.592500
7.755800 1.640400
7.777700 1.687400
7.799500 1.725000
7.821300 1.728700
7.843100 1.702600
7.865000 1.663700
7.886800 1.631600
7.908600 1.586600
7.930500 1.213100
7.952300 1.120500
7.974100 1.045200
7.996000 1.059600
8.017800 1.120800
8.039600 1.194800
8.061500 1.246800
8.083300 1.328500
8.105100 1.431500
8.127000 1.574900
8.148800 1.739500
8.170600 1.914500
8.192400 1.938400
8.214300 1.860500
8.236100 1.985600
8.257900 2.038400
8.279800 2.035000
8.301600 1.967900
8.323400 1.917900
8.345300 1.955300
8.367100 2.091100
8.388900 1.893800
8.410800 1.473500
8.432600 1.438000
8.454400 1.424900
8.476300 1.410800
8.498100 1.395800
8.519900 1.380100
8.541700 1.364400
8.563600 1.359700
8.585400 1.369700
8.607200 1.358600
8.629100 1.381100
8.650900 1.421900
8.672700 1.472300
8.694600 1.553200
8.716400 1.585700
8.738200 1.591300
8.760100 1.601700
8.781900 1.631100
8.803700 1.668400
8.825600 1.705300
8.847400 1.737800
8.869200 1.766500
8.891000 1.802600
8.912900 1.856800
8.934700 2.158100
8.956500 2.502200
8.978400 2.350100
9.000200 2.324000
9.022000 2.324100
9.043900 2.385000
9.065700 2.338000
9.087500 2.373400
9.109400 2.381100
9.131200 2.501100
9.153000 2.361400
9.174900 2.148000
9.196700 2.025000
9.218500 1.935400
9.240300 1.853600
9.262200 1.712000
9.284000 1.643600
9.305800 1.545500
9.327700 1.406800
9.349500 1.171900
9.371300 1.109900
9.393200 1.077000
9.415000 1.049800
9.436800 1.028000
9.458700 1.016000
9.480500 1.014100
9.502300 1.046700
9.524100 1.077800
9.546000 1.084700
9.567800 1.096900
9.589600 1.111000
9.611500 1.127000
9.633300 1.148100
9.655100 1.175000
9.677000 1.208500
9.698800 1.235500
9.720600 1.261900
9.742500 1.287200
9.764300 1.311000
9.786100 1.345100
9.808000 1.388200
9.829800 1.432800
9.851600 1.478900
9.873400 1.517800
9.895300 1.528300
9.917100 1.516900
9.938900 1.519400
9.960800 1.507400
9.982600 1.518700
10.004400 1.494800
10.026300 1.458100
10.048100 1.413000
10.069900 1.355000
10.091800 1.309000
10.113600 1.273700
10.135400 1.244700
10.157300 1.227100
10.179100 1.203600
10.200900 1.181500
10.222700 1.165800
10.244600 1.161900
10.266400 1.174000
10.288200 1.153600
10.310100 1.113600
10.331900 1.070000
10.353700 1.023100
10.375600 0.977100
10.397400 0.939000
10.419200 0.942900
10.441100 0.947500
10.462900 0.967700
10.484700 1.003400
10.506600 1.049000
10.528400 1.043200
10.550200 1.032400
10.572000 1.048300
10.593900 1.046900
10.615700 1.047700
10.637500 1.051500
10.659400 1.064200
10.681200 1.090900
10.703000 1.154300
10.724900 1.189700
10.746700 1.205700
10.768500 1.199800
10.790400 1.232100
10.812200 1.261500
10.834000 1.285800
10.855900 1.304600
10.877700 1.331700
10.899500 1.378200
10.921300 1.371500
10.943200 1.335000
10.965000 1.269500
10.986800 1.241900
11.008700 1.247700
11.030500 1.245900
11.052300 1.242800
11.074200 1.305300
11.096000 1.286300
11.117800 1.351700
11.139700 1.409100
11.161500 1.431200
11.183300 1.366600
11.205200 1.318100
11.227000 1.291400
11.248800 1.266500
11.270600 1.247000
11.292500 1.235600
11.314300 1.227800
11.336100 1.222100
11.358000 1.218700
11.379800 1.217500
11.401600 1.218400
11.423500 1.222600
11.445300 1.230600
11.467100 1.241500
11.489000 1.254500
11.510800 1.260700
11.532600 1.279400
11.554500 1.300300
11.576300 1.323700
11.598100 1.355300
11.619900 1.380000
11.641800 1.453500
11.663600 1.470800
11.685400 1.515800
11.707300 1.582900
11.729100 1.667900
11.750900 1.517100
11.772800 1.564500
11.794600 1.643900
11.816400 1.613000
11.838300 1.614700
11.860100 1.617100
11.881900 1.618700
11.903800 1.618300
11.925600 1.616000
11.947400 1.639700
11.969200 1.633400
11.991100 1.625000
12.012900 1.682600
12.034700 1.678200
12.056600 1.642500
12.078400 1.604300
12.100200 1.543000
12.122100 1.500000
12.143900 1.488200
12.165700 1.486400
12.187600 1.488600
12.209400 1.484700
12.231200 1.491900
12.253000 1.505400
12.274900 1.520400
12.296700 1.536700
12.318500 1.554500
12.340400 1.577300
12.362200 1.605300
12.384000 1.638000
12.405900 1.675600
12.427700 1.718300
12.449500 1.729700
12.471400 1.730400
12.493200 1.956500
12.515000 1.819800
12.536900 1.826500
12.558700 1.818900
12.580500 1.818900
12.602300 1.824700
12.624200 1.835200
12.646000 1.845500
12.667800 1.859600
12.689700 1.881400
12.711500 1.899600
12.733300 1.913000
12.755200 1.921100
12.777000 1.959300
12.798800 2.026800
12.820700 2.035500
12.842500 2.096800
12.864300 2.170500
12.886200 2.195900
12.908000 2.214400
12.929800 2.285500
12.951600 2.330000
12.973500 2.099100
12.995300 1.791000
13.017100 1.585400
13.039000 1.537100
13.060800 1.539200
13.082600 1.549200
13.104500 1.606700
13.126300 1.954100
13.148100 2.629100
13.170000 2.440500
13.191800 2.343800
13.213600 2.254600
13.235500 2.154100
13.257300 2.047500
13.279100 1.970500
13.300900 1.869000
13.322800 1.754200
13.344600 1.658700
13.366400 1.503600
13.388300 1.438700
13.410100 1.383700
13.431900 1.323200
13.453800 1.254200
13.475600 1.209300
13.497400 1.147700
13.519300 1.084100
13.541100 1.029800
13.562900 1.017000
13.584800 1.001500
13.606600 0.988800
13.628400 0.984000
13.650200 0.978000
13.672100 0.969200
13.693900 0.958500
13.715700 0.947400
13.737600 0.936300
13.759400 0.925900
13.781200 0.916100
13.803100 0.907200
13.824900 0.905700
13.846700 0.921200
13.868600 0.945200
13.890400 0.977000
13.912200 1.032400
13.934100 1.099000
13.955900 1.130600
13.977700 1.184400
13.999500 1.232100
14.021400 1.279100
14.043200 1.326500
14.065000 1.381400
14.086900 1.409300
14.108700 1.422300
14.130500 1.448900
14.152400 1.507700
14.174200 1.552400
14.196000 1.610500
14.217900 1.656000
14.239700 1.704200
14.261500 1.774900
14.283400 1.851800
14.305200 1.916300
14.327000 1.961900
14.348800 2.001800
14.370700 2.062900
14.392500 2.118400
14.414300 2.168700
14.436200 2.212400
14.458000 2.239800
14.479800 2.279800
14.501700 2.451400
14.523500 2.237400
14.545300 2.066400
14.567200 1.957300
14.589000 1.876200
14.610800 1.831000
14.632700 1.789100
14.654500 1.749700
14.676300 1.722300
14.698100 1.771500
14.720000 1.720500
14.741800 1.669000
14.763600 1.643000
14.785500 1.647900
14.807300 1.579300
14.829100 1.516200
14.851000 1.457900
14.872800 1.418500
14.894600 1.381000
14.916500 1.295600
14.938300 1.272800
14.960100 1.261400
14.981900 1.260100
15.003800 1.246900
15.025600 1.230200
15.047400 1.217900
15.069300 1.221100
15.091100 1.228500
15.112900 1.230100
15.134800 1.229100
15.156600 1.228000
15.178400 1.238100
15.200300 1.320300
15.222100 1.434700
15.243900 1.567400
15.265800 1.694400
15.287600 1.828900
15.309400 1.923000
15.331200 1.974200
15.353100 2.002300
15.374900 2.081100
15.396700 2.133900
15.418600 2.138000
15.440400 2.087500
15.462200 2.089000
15.484100 2.088300
15.505900 2.085300
15.527700 2.074400
15.549600 2.059800
15.571400 2.044200
15.593200 2.022000
15.615100 2.003500
15.636900 1.980300
15.658700 1.962700
15.680500 1.949100
15.702400 1.940400
15.724200 1.925500
15.746000 1.915100
15.767900 1.906700
15.789700 1.934700
15.811500 1.956500
15.833400 1.972100
15.855200 2.004900
15.877000 2.003300
15.898900 1.995000
15.920700 1.990800
15.942500 1.992400
15.964400 1.998000
15.986200 1.995800
16.008000 1.969300
16.029800 1.963600
16.051700 1.957600
16.073500 1.952900
16.095300 1.946300
16.117200 1.955500
16.139000 1.967400
16.160800 1.962300
16.182700 2.004300
16.204500 2.069700
16.226300 2.144400
16.248200 2.274100
16.270000 2.384200
16.291800 2.476900
16.313700 2.429100
16.335500 2.558400
16.357300 2.915000
16.379100 3.346600
16.401000 3.053100
16.422800 2.680800
16.444600 2.568700
16.466500 2.462200
16.488300 2.354900
16.510100 2.250500
16.532000 2.158800
16.553800 2.097800
16.575600 2.009300
16.597500 1.886500
16.619300 1.793900
16.641100 1.836600
16.663000 1.688600
16.684800 1.595800
16.706600 1.539600
16.728400 1.496100
16.750300 1.422100
16.772100 1.410700
16.793900 1.416400
16.815800 1.438200
16.837600 1.502700
16.859400 1.606200
16.881300 1.620800
16.903100 1.676400
16.924900 1.722600
16.946800 1.765200
16.968600 1.830600
16.990400 1.904000
17.012300 1.978500
17.034100 2.023400
17.055900 2.058200
17.077700 2.078500
17.099600 2.085800
17.121400 2.097100
17.143200 2.109900
17.165100 2.117000
17.186900 2.130100
17.208700 2.169400
17.230600 2.170900
17.252400 2.108800
17.274200 2.074900
17.296100 2.050900
17.317900 2.040900
17.339700 2.023900
17.361500 1.986500
17.383400 1.974000
17.405200 1.928800
17.427000 1.899600
17.448900 1.885500
17.470700 1.878000
17.492500 1.885100
17.514400 1.917400
17.536200 1.943200
17.558000 1.959000
17.579900 1.971300
17.601700 1.950700
17.623500 1.924500
17.645400 1.884500
17.667200 1.866700
17.689000 1.838900
17.710800 1.825200
17.732700 1.844400
17.754500 1.869200
17.776300 1.903600
17.798200 1.944400
17.820000 1.983300
17.841800 2.026800
17.863700 2.052600
17.885500 2.069400
17.907300 2.082500
17.929200 2.094000
17.951000 2.107900
17.972800 2.123400
17.994700 2.137300
18.016500 2.200500
18.038300 2.132100
18.060100 2.088200
18.082000 2.087900
18.103800 2.044200
18.125600 1.997300
18.147500 1.970200
18.169300 1.950100
18.191100 1.945000
18.213000 1.950000
18.234800 1.966500
18.256600 2.023400
18.278500 2.094600
18.300300 2.105200
18.322100 2.118700
18.344000 2.135300
18.365800 2.154900
18.387600 2.174200
18.409400 2.193600
18.431300 2.221400
18.453100 2.206100
18.474900 2.169400
18.496800 2.109500
18.518600 2.079100
18.540400 2.048300
18.562300 1.996100
18.584100 1.950600
18.605900 1.926800
18.627800 1.885400
18.649600 1.876700
18.671400 1.919100
18.693300 1.925000
18.715100 1.940800
18.736900 1.930200
18.758700 1.910300
18.780600 1.899400
18.802400 1.894900
18.824200 1.900000
18.846100 1.909000
18.867900 1.920000
18.889700 2.010500
18.911600 2.039000
18.933400 2.063900
18.955200 2.093200
18.977100 2.116600
18.998900 2.118800
19.020700 2.106600
19.042600 2.091300
19.064400 2.079300
19.086200 2.159700
19.108000 2.127200
19.129900 2.081700
19.151700 2.052300
19.173500 2.047600
19.195400 2.048800
19.217200 2.071300
19.239000 2.095500
19.260900 2.108800
19.282700 2.145300
19.304500 2.155100
19.326400 2.089500
19.348200 2.120800
19.370000 2.101900
19.391900 2.081000
19.413700 2.059700
19.435500 2.044000
19.457300 2.033500
19.479200 2.028200
19.501000 2.023800
19.522800 2.020400
19.544700 2.021600
19.566500 2.034600
19.588300 2.081200
19.610200 2.107400
19.632000 2.142700
19.653800 2.137900
19.675700 2.090300
19.697500 2.054000
19.719300 2.037600
19.741200 2.021800
19.763000 2.007000
19.784800 1.993400
19.806600 1.970500
19.828500 1.965300
19.850300 1.960100
19.872100 1.942900
19.894000 1.920400
19.915800 1.898600
19.937600 1.910700
19.959500 2.067800
19.981300 2.158200
20.003100 2.231800
20.025000 2.324500
20.046800 2.332000
20.068600 2.305300
20.090400 2.295400
20.112300 2.140800
20.134100 2.132400
20.155900 2.104600
20.177800 2.079500
20.199600 2.057800
20.221400 2.080400
20.243300 2.207600
20.265100 2.163300
20.286900 2.209200
20.308800 2.283300
20.330600 2.385800
20.352400 2.520100
20.374300 2.757100
20.396100 2.872900
20.417900 2.879800
20.439700 3.035400
20.461600 3.107300
20.483400 3.102300
20.505200 3.076800
20.527100 2.938300
20.548900 2.786600
20.570700 2.660600
20.592600 2.368100
20.614400 2.210500
20.636200 2.021800
20.658100 1.976900
20.679900 1.959400
20.701700 1.945800
20.723600 1.888700
20.745400 1.802200
20.767200 1.740000
20.789000 1.712100
20.810900 1.715300
20.832700 1.734300
20.854500 1.769700
20.876400 1.842200
20.898200 1.963800
20.920000 2.054400
20.941900 2.251100
20.963700 2.478300
20.985500 2.859000
21.007400 2.764500
21.029200 2.801900
21.051000 2.674600
21.072900 2.514500
21.094700 2.389500
21.116500 2.270500
21.138300 2.185700
21.160200 2.142600
21.182000 2.164700
21.203800 2.051900
21.225700 1.945000
21.247500 1.879400
21.269300 1.864800
21.291200 1.842400
21.313000 1.808600
21.334800 1.779600
21.356700 1.753200
21.378500 1.730400
21.400300 1.719400
21.422200 1.720200
21.444000 1.697300
21.465800 1.654800
21.487600 1.657000
21.509500 1.670500
21.531300 1.692000
21.553100 1.720200
21.575000 1.755900
21.596800 1.814200
21.618600 1.964500
21.640500 2.063500
21.662300 2.181700
21.684100 2.253200
21.706000 2.301700
21.727800 2.406500
21.749600 2.395400
21.771500 2.385800
21.793300 2.399000
21.815100 2.464700
21.836900 2.545900
21.858800 2.691400
21.880600 2.883800
21.902400 3.094200
21.924300 3.458500
21.946100 3.548500
21.967900 3.703900
21.989800 3.745400
22.011600 3.803000
22.033400 3.817400
22.055300 3.725800
22.077100 3.645200
22.098900 3.702600
22.120800 3.791500
22.142600 3.866100
22.164400 3.870900
22.186200 3.777600
22.208100 3.795600
22.229900 3.819900
22.251700 3.858500
22.273600 3.850900
22.295400 3.795300
22.317200 3.749000
22.339100 3.662400
22.360900 3.560200
22.382700 3.428300
22.404600 3.531600
22.426400 3.490600
22.448200 3.465000
22.470000 2.961100
22.491900 2.888600
22.513700 2.838900
22.535500 2.799200
22.557400 2.760000
22.579200 2.733100
22.601000 2.729100
22.622900 2.678600
22.644700 2.653600
22.666500 2.600100
22.688400 2.523400
22.710200 2.418500
22.732000 2.313900
22.753900 2.258800
22.775700 2.244700
22.797500 2.256300
22.819300 2.285600
22.841200 2.341300
22.863000 2.315600
22.884800 2.354000
22.906700 2.384900
22.928500 2.370500
22.950300 2.400900
22.972200 2.458100
22.994000 2.479900
23.015800 2.542700
23.037700 2.641500
23.059500 2.779400
23.081300 2.964100
23.103200 3.191100
23.125000 3.282800
23.146800 3.412000
23.168600 3.498000
23.190500 3.623300
23.212300 3.703000
23.234100 3.699600
23.256000 3.724100
23.277800 3.669800
23.299600 3.588000
23.321500 3.543700
23.343300 3.514800
23.365100 3.404700
23.387000 3.109100
23.408800 2.943000
23.430600 2.943100
23.452500 3.023900
23.474300 2.922400
23.496100 3.043300
23.517900 2.836000
23.539800 2.751200
23.561600 2.734400
23.583400 2.699200
23.605300 2.616700
23.627100 2.657600
23.648900 2.682200
23.670800 2.719800
23.692600 2.758400
23.714400 2.782200
23.736300 2.812200
23.758100 2.832700
23.779900 2.824800
23.801800 2.821100
23.823600 2.829300
23.845400 2.825600
23.867200 2.858700
23.889100 2.899000
23.910900 2.974000
23.932700 3.035000
23.954600 3.079500
23.976400 3.408100
23.998200 3.191700
24.020100 3.160700
24.041900 3.230000
24.063700 3.310600
24.085600 3.407500
24.107400 3.532200
24.129200 3.694100
24.151100 3.651500
24.172900 3.525400
24.194700 3.438400
24.216500 3.303600
24.238400 3.155400
24.260200 3.025600
24.282000 2.899700
24.303900 2.806300
24.325700 2.729200
24.347500 2.635000
24.369400 2.528400
24.391200 2.395600
24.413000 2.287900
24.434900 2.171200
24.456700 2.063900
24.478500 1.967700
24.500400 1.935800
24.522200 1.974600
24.544000 1.773100
24.565800 1.633100
24.587700 1.584100
24.609500 1.553500
24.631300 1.538700
24.653200 1.535500
24.675000 1.557900
24.696800 1.603500
24.718700 1.686200
24.740500 1.768400
24.762300 1.789100
24.784200 1.857500
24.806000 1.924000
24.827800 1.990600
24.849700 2.060100
24.871500 2.132100
24.893300 2.210700
24.915100 2.315200
24.937000 2.458200
24.958800 2.605300
24.980600 2.717800
25.002500 2.846000
25.024300 2.999800
25.046100 3.167200
25.068000 3.345400
25.089800 3.498800
25.111600 3.510500
25.133500 3.231600
25.155300 3.075200
25.177100 2.961300
25.198900 2.850200
25.220800 2.732300
25.242600 2.623700
25.264400 2.552400
25.286300 2.476500
25.308100 2.549200
25.329900 2.544400
25.351800 2.382300
25.373600 2.283400
25.395400 2.253000
25.417300 2.317900
25.439100 2.374200
25.460900 2.414600
25.482800 2.464000
25.504600 2.546300
25.526400 2.661700
25.548200 2.809300
25.570100 2.915500
25.591900 2.932600
25.613700 2.953000
25.635600 2.975000
25.657400 2.985700
25.679200 2.985100
25.701100 2.980100
25.722900 2.973700
25.744700 2.969100
25.766600 2.976400
25.788400 2.975200
25.810200 2.953600
25.832100 2.950200
25.853900 2.954100
25.875700 2.930800
25.897500 2.881400
25.919400 2.772900
25.941200 2.722600
25.963000 2.571500
25.984900 2.433100
26.006700 2.320200
26.028500 2.345100
26.050400 2.473100
26.072200 2.641400
26.094000 2.651700
26.115900 2.705700
26.137700 2.791900
26.159500 2.861300
26.181400 3.005800
26.203200 3.166600
26.225000 3.295400
26.246800 3.480400
26.268700 3.034300
26.290500 2.784500
26.312300 2.721300
26.334200 2.745900
26.356000 2.698200
26.377800 2.726600
26.399700 2.760700
26.421500 2.663000
26.443300 2.635000
26.465200 2.580600
26.487000 2.877900
26.508800 2.667800
26.530700 2.725500
26.552500 2.775300
26.574300 2.812800
26.596100 2.847000
26.618000 3.053300
26.639800 2.897400
26.661600 2.865000
26.683500 2.893400
26.705300 2.968900
26.727100 3.087700
26.749000 3.225800
26.770800 3.270200
26.792600 3.091300
26.814500 2.876900
26.836300 2.694000
26.858100 2.560400
26.880000 2.552300
26.901800 2.568300
26.923600 2.590000
26.945400 2.632800
26.967300 2.705500
26.989100 2.691100
27.010900 2.844200
27.032800 2.991100
27.054600 3.088800
27.076400 3.033800
27.098300 3.073300
27.120100 3.109000
27.141900 3.105000
27.163800 3.107700
27.185600 3.075400
27.207400 2.918000
27.229300 2.711300
27.251100 2.367000
27.272900 2.370400
27.294700 2.382000
27.316600 2.395700
27.338400 2.360300
27.360200 2.306000
27.382100 2.251500
27.403900 2.184600
27.425700 2.143900
27.447600 2.116000
27.469400 2.099000
27.491200 2.112800
27.513100 2.188300
27.534900 2.262200
27.556700 2.335900
27.578500 2.205000
27.600400 2.206800
27.622200 2.210900
27.644000 2.230700
27.665900 2.353600
27.687700 2.382000
27.709500 2.381200
27.731400 2.441000
27.753200 2.513900
27.775000 2.640800
27.796900 2.719300
27.818700 2.798600
27.840500 2.883800
27.862400 2.956800
27.884200 3.023900
27.906000 3.091700
27.927800 3.166600
27.949700 3.308900
27.971500 3.277500
27.993300 3.257800
28.015200 3.013100
28.037000 2.825600
28.058800 2.662000
28.080700 2.518300
28.102500 2.478800
28.124300 2.522800
28.146200 2.484600
28.168000 2.433400
28.189800 2.450400
28.211700 2.536900
28.233500 2.592900
28.255300 2.680000
28.277100 2.801200
28.299000 2.958100
28.320800 3.147600
28.342600 3.355900
28.364500 3.485300
28.386300 3.525200
28.408100 3.507100
28.430000 3.392000
28.451800 3.186600
28.473600 2.981000
28.495500 2.846000
28.517300 2.731400
28.539100 2.578000
28.561000 2.437500
28.582800 2.317200
28.604600 2.250600
28.626400 2.147300
28.648300 2.011500
28.670100 1.878600
28.691900 1.729100
28.713800 1.619900
28.735600 1.446600
28.757400 1.379600
28.779300 1.343600
28.801100 1.363600
28.822900 1.387500
28.844800 1.414500
28.866600 1.465800
28.888400 1.564300
28.910300 1.697500
28.932100 1.738300
28.953900 1.867600
28.975700 1.999000
28.997600 2.043100
29.019400 2.113600
29.041200 2.216500
29.063100 2.349500
29.084900 2.510600
29.106700 2.744600
29.128600 2.858400
29.150400 3.057100
29.172200 3.257200
29.194100 3.467400
29.215900 3.795700
29.237700 3.841100
29.259600 3.859700
29.281400 3.780200
29.303200 3.606700
29.325000 3.411400
29.346900 3.191500
29.368700 3.077000
29.390500 3.030500
29.412400 3.009300
29.434200 3.176600
29.456000 3.078700
29.477900 2.973100
29.499700 2.938700
29.521500 2.942300
29.543400 3.026900
29.565200 3.104300
29.587000 3.182100
29.608900 3.189400
29.630700 3.129300
29.652500 3.044800
29.674300 2.960800
29.696200 2.880000
29.718000 2.773300
29.739800 2.658800
29.761700 2.523600
29.783500 2.471600
29.805300 2.431000
29.827200 2.389800
29.849000 2.367100
29.870800 2.429600
29.892700 2.389900
29.914500 2.541500
29.936300 2.561100
29.958200 2.601900
29.980000 2.598000
30.001800 2.606700
30.023600 2.659700
30.045500 2.685900
30.067300 2.728300
30.089100 2.777300
30.111000 2.847500
30.132800 2.868100
30.154600 2.931100
30.176500 3.023500
30.198300 3.128600
30.220100 3.276200
30.242000 3.421900
30.263800 3.636500
30.285600 3.726200
30.307400 3.770200
30.329300 3.702300
30.351100 3.668500
30.372900 3.589300
30.394800 3.544400
30.416600 3.483900
30.438400 3.404600
30.460300 3.319200
30.482100 3.232500
30.503900 3.186100
30.525800 3.214400
30.547600 3.039200
30.569400 2.785900
30.591300 2.542600
30.613100 2.824100
30.634900 2.445300
30.656700 2.421000
30.678600 2.297800
30.700400 2.340700
30.722200 2.237300
30.744100 2.276100
30.765900 2.366100
30.787700 2.522500
30.809600 2.749300
30.831400 2.907300
30.853200 3.274400
30.875100 3.774300
30.896900 4.238600
30.918700 4.769100
30.940600 4.819800
30.962400 4.909700
30.984200 4.957700
31.006000 5.025300
31.027900 4.813800
31.049700 4.718500
31.071500 4.133800
31.093400 3.941500
31.115200 3.674000
31.137000 3.387600
31.158900 3.383500
31.180700 3.513100
31.202500 3.409600
31.224400 3.615500
31.246200 3.604900
31.268000 3.660200
31.289900 3.620400
31.311700 3.618200
31.333500 3.764400
31.355300 4.033200
31.377200 4.242000
31.399000 4.398900
31.420800 4.529400
31.442700 4.638700
31.464500 4.774500
31.486300 5.059900
31.508200 4.991800
31.530000 4.564100
31.551800 4.482900
31.573700 4.449900
31.595500 4.356200
31.617300 4.283700
31.639200 4.209400
31.661000 4.097100
31.682800 3.933800
31.704600 3.722900
31.726500 3.680800
31.748300 3.665300
31.770100 3.593800
31.792000 3.557500
31.813800 3.636600
31.835600 3.779200
31.857500 3.886500
31.879300 4.072100
31.901100 4.421400
31.923000 4.667700
31.944800 4.707700
31.966600 4.736200
31.988500 4.454800
32.010300 4.398600
32.032100 4.440100
32.053900 4.474600
32.075800 4.397100
32.097600 4.322400
32.119400 4.304200
32.141300 4.510100
32.163100 3.978000
32.184900 3.651200
32.206800 3.511800
32.228600 3.507500
32.250400 3.505400
32.272300 3.476400
32.294100 3.374900
32.315900 3.268700
32.337800 3.202300
32.359600 3.175500
32.381400 3.167900
32.403200 3.120100
32.425100 3.137300
32.446900 3.221700
32.468700 3.268800
32.490600 3.283800
32.512400 3.579200
32.534200 3.310700
32.556100 3.267400
32.577900 3.161700
32.599700 3.200500
32.621600 3.313200
32.643400 3.457700
32.665200 3.631700
32.687000 3.953100
32.708900 3.979100
32.730700 4.123400
32.752500 4.326400
32.774400 3.917500
32.796200 3.706000
32.818000 3.549500
32.839900 3.440900
32.861700 3.293300
32.883500 3.171800
32.905400 3.084800
32.927200 2.920100
32.949000 2.757700
32.970900 2.660100
32.992700 2.587200
33.014500 2.618600
33.036300 2.691500
33.058200 2.775300
33.080000 2.865500
33.101800 2.947800
33.123700 3.026300
33.145500 3.110800
33.167300 3.191600
33.189200 3.195500
33.211000 3.204800
33.232800 3.241200
33.254700 3.250500
33.276500 3.245800
33.298300 3.237400
33.320200 3.265000
33.342000 3.305400
33.363800 3.332800
33.385600 3.432800
33.407500 3.123800
33.429300 2.991500
33.451100 2.616200
33.473000 2.337200
33.494800 2.103700
33.516600 1.926200
33.538500 1.776200
33.560300 1.618400
33.582100 1.484500
33.604000 1.354800
33.625800 1.243400
33.647600 1.202000
33.669500 1.151100
33.691300 1.066900
33.713100 1.006800
33.734900 0.973200
33.756800 0.951900
33.778600 0.926400
33.800400 0.897600
33.822300 0.881600
33.844100 0.889200
33.865900 0.829300
33.887800 0.616200
33.909600 0.313800
33.931400 0.235000
33.953300 0.178700
33.975100 0.129300
33.996900 0.093600
34.018800 0.069300
34.040600 0.050800
34.062400 0.037600
34.084200 0.028200
34.106100 0.024000
34.127900 0.020200
34.149700 0.016700
34.171600 0.013600
34.193400 0.010800
34.215200 0.008300
34.237100 0.006100
34.258900 0.004300
34.280700 0.002700
34.302600 0.001600
34.324400 0.000700
34.346200 0.000200
34.368100 0.000000
34.389900 0.000000
34.411700 0.000000
34.433500 0.000000
34.455400 0.000000
34.477200 0.000000
34.499000 0.000000
34.520900 0.000000
34.542700 0.000000
34.564500 0.000000
34.586400 0.000000
34.608200 0.000000
34.630000 0.000000
34.651900 0.000000
34.673700 0.000000
34.695500 0.000000
34.717400 0.000000
34.739200 0.000000
34.761000 0.000000
34.782800 0.000000
34.804700 0.000000
34.826500 0.000000
34.848300 0.000000
34.870200 0.000000
34.892000 0.000000
34.913800 0.000000
34.935700 0.000000
34.957500 0.000000
34.979300 0.000000
35.001200 0.000000
35.023000 0.000000
35.044800 0.000000
35.066700 0.000000
35.088500 0.000000
35.110300 0.000000
35.132100 0.000000
35.154000 0.000000
35.175800 0.000000
35.197600 0.000000
35.219500 0.000000
35.241300 0.000000
35.263100 0.000000
35.285000 0.000000
35.306800 0.000000
35.328600 0.000000
35.350500 0.000000
35.372300 0.000000
35.394100 0.000000
35.415900 0.000000
35.437800 0.000000
35.459600 0.000000
35.481400 0.000000
35.503300 0.000000
35.525100 0.000000
35.546900 0.000000
35.568800 0.000000
35.590600 0.000000
35.612400 0.000000
35.634300 0.000000
35.656100 0.000000
35.677900 0.000000
35.699800 0.000000
35.721600 0.000000
35.743400 0.000000
35.765200 0.000000
35.787100 0.000000
35.808900 0.000000
35.830700 0.000000
35.852600 0.000000
35.874400 0.000000
35.896200 0.000000
35.918100 0.000000
35.939900 0.000000
35.961700 0.000000
35.983600 0.000000
36.005400 0.000000
36.027200 0.000000
36.049100 0.000000
36.070900 0.000000
36.092700 0.000000
36.114500 0.000000
36.136400 0.000000
36.158200 0.000000
36.180000 0.000000
36.201900 0.000000
36.223700 0.000000
36.245500 0.000000
36.267400 0.000000
36.289200 0.000000
36.311000 0.000000
36.332900 0.000000
36.354700 0.000000
e
