set title 'mp-1551 - Density of States'
set xlabel 'Energy (eV)'
set ylabel 'DOS (states/eV)'
set grid
set xrange [-10:10]
set yrange [0:17.511]
set xzeroaxis lt -1
set terminal png size 800,600
set output 'mp-1551_dos_gnuplot.png'
plot '-' using 1:2 with lines title 'DOS'
-7.517200 0.000000
-7.500400 0.000000
-7.483500 0.000000
-7.466700 0.000000
-7.449900 0.000000
-7.433000 0.000000
-7.416200 0.000000
-7.399300 0.000000
-7.382500 0.000000
-7.365700 0.000000
-7.348800 0.000000
-7.332000 0.000000
-7.315200 0.000000
-7.298300 0.000000
-7.281500 0.000000
-7.264700 0.000000
-7.247800 0.000000
-7.231000 0.000000
-7.214100 0.000000
-7.197300 0.000000
-7.180500 0.000000
-7.163600 0.000000
-7.146800 0.000000
-7.130000 0.000000
-7.113100 0.000000
-7.096300 0.000000
-7.079400 0.000000
-7.062600 0.000000
-7.045800 0.000000
-7.028900 0.000000
-7.012100 0.000000
-6.995300 0.000000
-6.978400 0.000000
-6.961600 0.000000
-6.944800 0.000000
-6.927900 0.000000
-6.911100 0.000000
-6.894200 0.000000
-6.877400 0.000000
-6.860600 0.000000
-6.843700 0.000000
-6.826900 0.000000
-6.810100 0.000000
-6.793200 0.000000
-6.776400 0.000000
-6.759600 0.000000
-6.742700 0.000000
-6.725900 0.000000
-6.709000 0.000000
-6.692200 0.000000
-6.675400 0.000000
-6.658500 0.000000
-6.641700 0.000000
-6.624900 0.000000
-6.608000 0.000000
-6.591200 0.000000
-6.574300 0.000000
-6.557500 0.000000
-6.540700 0.000000
-6.523800 0.000000
-6.507000 0.000000
-6.490200 0.000000
-6.473300 0.000000
-6.456500 0.000000
-6.439700 0.000000
-6.422800 0.000000
-6.406000 0.000000
-6.389100 0.000000
-6.372300 0.000000
-6.355500 0.000000
-6.338600 0.000000
-6.321800 0.000000
-6.305000 0.000000
-6.288100 0.000000
-6.271300 0.000000
-6.254500 0.000000
-6.237600 0.000000
-6.220800 0.000000
-6.203900 0.000000
-6.187100 0.000000
-6.170300 0.000000
-6.153400 0.000000
-6.136600 0.000000
-6.119800 0.000000
-6.102900 0.000000
-6.086100 0.000000
-6.069300 0.000000
-6.052400 0.000000
-6.035600 0.000000
-6.018700 0.000000
-6.001900 0.000000
-5.985100 0.052700
-5.968200 0.113700
-5.951400 0.189400
-5.934600 0.279600
-5.917700 0.373000
-5.900900 0.457900
-5.884000 0.544800
-5.867200 0.633500
-5.850400 0.725400
-5.833500 0.868100
-5.816700 0.972000
-5.799900 1.071800
-5.783000 1.139700
-5.766200 1.167100
-5.749400 1.190400
-5.732500 1.206900
-5.715700 1.220400
-5.698800 1.234500
-5.682000 1.242100
-5.665200 1.237400
-5.648300 1.223300
-5.631500 1.198500
-5.614700 1.185800
-5.597800 1.180200
-5.581000 1.181600
-5.564200 1.188500
-5.547300 1.196400
-5.530500 1.204800
-5.513600 1.213500
-5.496800 1.223000
-5.480000 1.233700
-5.463100 1.244700
-5.446300 1.337800
-5.429500 1.395200
-5.412600 1.458300
-5.395800 1.521400
-5.379000 1.576800
-5.362100 1.634300
-5.345300 1.694400
-5.328400 1.757200
-5.311600 1.823000
-5.294800 1.892000
-5.277900 1.955200
-5.261100 2.017800
-5.244300 2.080100
-5.227400 2.141600
-5.210600 2.204400
-5.193700 2.267800
-5.176900 2.332900
-5.160100 2.411700
-5.143200 2.486500
-5.126400 2.561500
-5.109600 2.723200
-5.092700 2.822500
-5.075900 2.918300
-5.059100 3.003800
-5.042200 3.077800
-5.025400 3.199400
-5.008500 3.297700
-4.991700 3.394500
-4.974900 3.466800
-4.958000 3.565800
-4.941200 3.599500
-4.924400 3.632000
-4.907500 3.661900
-4.890700 3.692400
-4.873900 3.712400
-4.857000 3.730800
-4.840200 3.751100
-4.823300 3.780500
-4.806500 3.526900
-4.789700 3.423900
-4.772800 3.449900
-4.756000 3.431500
-4.739200 3.435900
-4.722300 3.447100
-4.705500 3.545500
-4.688600 3.690000
-4.671800 3.802200
-4.655000 3.820200
-4.638100 3.695800
-4.621300 3.348800
-4.604500 2.113100
-4.587600 2.178700
-4.570800 2.206200
-4.554000 2.243700
-4.537100 2.276800
-4.520300 2.323500
-4.503400 2.347200
-4.486600 2.452200
-4.469800 2.557900
-4.452900 2.549000
-4.436100 2.637600
-4.419300 2.732700
-4.402400 2.835900
-4.385600 3.031400
-4.368800 3.172500
-4.351900 3.310300
-4.335100 3.422300
-4.318200 3.528500
-4.301400 3.628900
-4.284600 3.838000
-4.267700 4.098900
-4.250900 4.147000
-4.234100 4.190700
-4.217200 4.231700
-4.200400 4.112400
-4.183600 3.972300
-4.166700 3.925000
-4.149900 3.997000
-4.133000 4.026700
-4.116200 4.068800
-4.099400 4.385800
-4.082500 5.699600
-4.065700 6.594700
-4.048900 7.215900
-4.032000 8.050800
-4.015200 8.696900
-3.998300 9.343000
-3.981500 9.593800
-3.964700 9.551000
-3.947800 9.758300
-3.931000 8.222800
-3.914200 6.965900
-3.897300 4.620700
-3.880500 3.854500
-3.863700 3.220700
-3.846800 2.996300
-3.830000 2.788600
-3.813100 2.611700
-3.796300 2.444300
-3.779500 2.255700
-3.762600 2.478500
-3.745800 2.873200
-3.729000 3.463300
-3.712100 3.931100
-3.695300 4.756300
-3.678500 5.293200
-3.661600 5.753700
-3.644800 5.773400
-3.627900 6.297900
-3.611100 6.567400
-3.594300 6.876400
-3.577400 8.016900
-3.560600 7.456300
-3.543800 7.313000
-3.526900 8.276800
-3.510100 9.121500
-3.493300 10.351100
-3.476400 10.076000
-3.459600 9.701600
-3.442700 9.169600
-3.425900 8.809100
-3.409100 11.093400
-3.392200 9.013200
-3.375400 8.681500
-3.358600 8.128800
-3.341700 7.611400
-3.324900 7.176000
-3.308000 7.099300
-3.291200 7.367300
-3.274400 7.860600
-3.257500 7.727300
-3.240700 7.230700
-3.223900 6.719500
-3.207000 5.662000
-3.190200 5.273600
-3.173400 5.118500
-3.156500 5.101300
-3.139700 4.944400
-3.122800 4.874500
-3.106000 5.000200
-3.089200 4.747900
-3.072300 4.365100
-3.055500 3.963000
-3.038700 3.623200
-3.021800 3.318900
-3.005000 3.019600
-2.988200 2.640100
-2.971300 2.167100
-2.954500 1.941200
-2.937600 1.826800
-2.920800 1.728000
-2.904000 1.647100
-2.887100 1.614300
-2.870300 1.616400
-2.853500 1.583900
-2.836600 1.493500
-2.819800 1.391100
-2.803000 1.295100
-2.786100 1.205700
-2.769300 1.334800
-2.752400 1.370400
-2.735600 1.284400
-2.718800 1.028700
-2.701900 0.495200
-2.685100 0.000000
-2.668300 0.000000
-2.651400 0.000000
-2.634600 0.000000
-2.617700 0.000000
-2.600900 0.000000
-2.584100 0.000000
-2.567200 0.000000
-2.550400 0.000000
-2.533600 0.000000
-2.516700 0.000000
-2.499900 0.000000
-2.483100 0.000000
-2.466200 0.000000
-2.449400 0.000000
-2.432500 0.000000
-2.415700 0.000000
-2.398900 0.000000
-2.382000 0.000000
-2.365200 0.000000
-2.348400 0.000000
-2.331500 0.000000
-2.314700 0.000000
-2.297900 0.000000
-2.281000 0.000000
-2.264200 0.000000
-2.247300 0.000000
-2.230500 0.000000
-2.213700 0.000000
-2.196800 0.000000
-2.180000 0.000000
-2.163200 0.000000
-2.146300 0.000000
-2.129500 0.000000
-2.112600 0.000000
-2.095800 0.000000
-2.079000 0.000000
-2.062100 0.000000
-2.045300 0.000000
-2.028500 0.000000
-2.011600 0.000000
-1.994800 0.000000
-1.978000 0.000000
-1.961100 0.000000
-1.944300 0.000000
-1.927400 0.000000
-1.910600 0.000000
-1.893800 0.000000
-1.876900 0.000000
-1.860100 0.000000
-1.843300 0.000000
-1.826400 0.000000
-1.809600 0.000000
-1.792800 0.000000
-1.775900 0.000000
-1.759100 0.000000
-1.742200 0.000000
-1.725400 0.000000
-1.708600 0.000000
-1.691700 0.000000
-1.674900 0.000000
-1.658100 0.000000
-1.641200 0.000000
-1.624400 0.000000
-1.607600 0.000000
-1.590700 0.000000
-1.573900 0.000000
-1.557000 0.000000
-1.540200 0.000000
-1.523400 0.000000
-1.506500 0.000000
-1.489700 0.000000
-1.472900 0.000000
-1.456000 0.000000
-1.439200 0.000000
-1.422300 0.000000
-1.405500 0.000000
-1.388700 0.000000
-1.371800 0.000000
-1.355000 0.000000
-1.338200 0.000000
-1.321300 0.000000
-1.304500 0.000000
-1.287700 0.000000
-1.270800 0.000000
-1.254000 0.000000
-1.237100 0.000000
-1.220300 0.000000
-1.203500 0.000000
-1.186600 0.000000
-1.169800 0.000000
-1.153000 0.000000
-1.136100 0.000000
-1.119300 0.000000
-1.102500 0.000000
-1.085600 0.000000
-1.068800 0.000000
-1.051900 0.000000
-1.035100 0.000000
-1.018300 0.000000
-1.001400 0.000000
-0.984600 0.000000
-0.967800 0.000000
-0.950900 0.000000
-0.934100 0.000000
-0.917300 0.000000
-0.900400 0.000000
-0.883600 0.000000
-0.866700 0.000000
-0.849900 0.000000
-0.833100 0.000000
-0.816200 0.000000
-0.799400 0.000000
-0.782600 0.000000
-0.765700 0.000000
-0.748900 0.000000
-0.732000 0.000000
-0.715200 0.000000
-0.698400 0.000000
-0.681500 0.000000
-0.664700 0.000000
-0.647900 0.000000
-0.631000 0.000000
-0.614200 0.000000
-0.597400 0.000000
-0.580500 0.000000
-0.563700 0.000000
-0.546800 0.000000
-0.530000 0.000000
-0.513200 0.000000
-0.496300 0.000000
-0.479500 0.000000
-0.462700 0.000000
-0.445800 0.000000
-0.429000 0.000000
-0.412200 0.000000
-0.395300 0.000000
-0.378500 0.000000
-0.361600 0.000000
-0.344800 0.000000
-0.328000 0.000000
-0.311100 0.000000
-0.294300 0.000000
-0.277500 0.000000
-0.260600 0.000000
-0.243800 0.000000
-0.226900 0.000000
-0.210100 0.000000
-0.193300 0.000000
-0.176400 0.000000
-0.159600 0.000000
-0.142800 0.000000
-0.125900 0.000000
-0.109100 0.000000
-0.092300 0.000000
-0.075400 0.000000
-0.058600 0.000000
-0.041700 0.000000
-0.024900 0.000000
-0.008100 0.000000
0.008800 0.000000
0.025600 0.000000
0.042400 0.000000
0.059300 0.000000
0.076100 0.000000
0.092900 0.000000
0.109800 0.000000
0.126600 0.000000
0.143500 0.000000
0.160300 0.000000
0.177100 0.000000
0.194000 0.000000
0.210800 0.000000
0.227600 0.000000
0.244500 0.000000
0.261300 0.000000
0.278100 0.000000
0.295000 0.000000
0.311800 0.000000
0.328700 0.000000
0.345500 0.000000
0.362300 0.000000
0.379200 0.000000
0.396000 0.000000
0.412800 0.000000
0.429700 0.000000
0.446500 0.000000
0.463400 0.000000
0.480200 0.000000
0.497000 0.000000
0.513900 0.000000
0.530700 0.000000
0.547500 0.000000
0.564400 0.000000
0.581200 0.000000
0.598000 0.000000
0.614900 0.000000
0.631700 0.000000
0.648600 0.000000
0.665400 0.000000
0.682200 0.000000
0.699100 0.000000
0.715900 0.000000
0.732700 0.000000
0.749600 0.000000
0.766400 0.000000
0.783200 0.000000
0.800100 0.000000
0.816900 0.000000
0.833800 0.000000
0.850600 0.000000
0.867400 0.000000
0.884300 0.000000
0.901100 0.000000
0.917900 0.000000
0.934800 0.000000
0.951600 0.000000
0.968400 0.000000
0.985300 0.000000
1.002100 0.000000
1.019000 0.000000
1.035800 0.000000
1.052600 0.000000
1.069500 0.000000
1.086300 0.000000
1.103100 0.000000
1.120000 0.000000
1.136800 0.000000
1.153700 0.111700
1.170500 0.204500
1.187300 0.361600
1.204200 0.475800
1.221000 0.554300
1.237800 0.634000
1.254700 0.712100
1.271500 0.789200
1.288300 0.868900
1.305200 1.028300
1.322000 1.401200
1.338900 1.893400
1.355700 2.576300
1.372500 4.003100
1.389400 5.182700
1.406200 5.900000
1.423000 6.560800
1.439900 7.609500
1.456700 9.034000
1.473500 9.290600
1.490400 9.075200
1.507200 9.862100
1.524100 9.860800
1.540900 9.630700
1.557700 9.123300
1.574600 8.212100
1.591400 7.518900
1.608200 7.354300
1.625100 6.392000
1.641900 5.583000
1.658700 5.230000
1.675600 5.062800
1.692400 5.051700
1.709300 5.265000
1.726100 5.579200
1.742900 5.571500
1.759800 5.322100
1.776600 5.036500
1.793400 4.849400
1.810300 4.732600
1.827100 4.599600
1.844000 4.111900
1.860800 3.569700
1.877600 3.446300
1.894500 3.375600
1.911300 3.489100
1.928100 3.646100
1.945000 3.901400
1.961800 4.240400
1.978600 4.425100
1.995500 4.562100
2.012300 4.839700
2.029200 4.910900
2.046000 5.038300
2.062800 5.255400
2.079700 5.308400
2.096500 5.369800
2.113300 5.276500
2.130200 5.506600
2.147000 5.707000
2.163800 5.889000
2.180700 6.083800
2.197500 6.282300
2.214400 6.427300
2.231200 6.656100
2.248000 8.539800
2.264900 7.254900
2.281700 7.128200
2.298500 7.436800
2.315400 8.289900
2.332200 7.921000
2.349100 7.476800
2.365900 6.686500
2.382700 6.011700
2.399600 6.194500
2.416400 6.283900
2.433200 6.501700
2.450100 6.252600
2.466900 5.625500
2.483700 5.446200
2.500600 5.481100
2.517400 5.564500
2.534300 5.659700
2.551100 6.025800
2.567900 6.497500
2.584800 6.886300
2.601600 7.250300
2.618400 7.562100
2.635300 7.654600
2.652100 7.512500
2.668900 7.109400
2.685800 6.799600
2.702600 7.133500
2.719500 7.312200
2.736300 7.389500
2.753100 7.736400
2.770000 7.788700
2.786800 7.806200
2.803600 8.101800
2.820500 8.240500
2.837300 8.530500
2.854100 9.521400
2.871000 9.797600
2.887800 9.500900
2.904700 9.209900
2.921500 9.196600
2.938300 9.507900
2.955200 8.476000
2.972000 8.476600
2.988800 8.754600
3.005700 9.780200
3.022500 9.632600
3.039400 9.152600
3.056200 9.265400
3.073000 9.935400
3.089900 9.769200
3.106700 8.999600
3.123500 9.107600
3.140400 9.698900
3.157200 10.155900
3.174000 10.890200
3.190900 10.264900
3.207700 8.474500
3.224600 7.218100
3.241400 7.241100
3.258200 7.256000
3.275100 7.945200
3.291900 7.594300
3.308700 8.785500
3.325600 10.188200
3.342400 10.506000
3.359200 10.061200
3.376100 10.426900
3.392900 10.543400
3.409800 11.537300
3.426600 10.220100
3.443400 11.672700
3.460300 12.418500
3.477100 13.487100
3.493900 11.930600
3.510800 11.029100
3.527600 10.443300
3.544400 10.323600
3.561300 10.032200
3.578100 9.627300
3.595000 9.582400
3.611800 8.484800
3.628600 6.460300
3.645500 5.475600
3.662300 5.053000
3.679100 4.780700
3.696000 4.603200
3.712800 4.684900
3.729700 4.981700
3.746500 5.032500
3.763300 5.201200
3.780200 5.377100
3.797000 5.543200
3.813800 5.801400
3.830700 6.290000
3.847500 6.786000
3.864300 7.253300
3.881200 7.652300
3.898000 7.935000
3.914900 7.842000
3.931700 7.416500
3.948500 7.256400
3.965400 7.057600
3.982200 7.200200
3.999000 7.288600
4.015900 7.233400
4.032700 7.388100
4.049500 7.762700
4.066400 7.942600
4.083200 8.496100
4.100100 9.014600
4.116900 8.528600
4.133700 7.379400
4.150600 6.409800
4.167400 5.846400
4.184200 5.500000
4.201100 5.359700
4.217900 5.406900
4.234800 5.439700
4.251600 5.527200
4.268400 5.636900
4.285300 5.851400
4.302100 6.968800
4.318900 8.594600
4.335800 8.674300
4.352600 8.906900
4.369400 9.262500
4.386300 9.906300
4.403100 10.005800
4.420000 10.120700
4.436800 9.657600
4.453600 9.145300
4.470500 8.822300
4.487300 8.458200
4.504100 8.328500
4.521000 8.575500
4.537800 9.097400
4.554600 8.335700
4.571500 9.009800
4.588300 9.779300
4.605200 10.532900
4.622000 10.499900
4.638800 10.371400
4.655700 10.521900
4.672500 9.849900
4.689300 9.372900
4.706200 9.424400
4.723000 10.048000
4.739800 9.363600
4.756700 9.110900
4.773500 8.758700
4.790400 9.155200
4.807200 10.006700
4.824000 10.701700
4.840900 11.986600
4.857700 12.321500
4.874500 12.518500
4.891400 12.463000
4.908200 12.434300
4.925100 12.518700
4.941900 12.137100
4.958700 11.506400
4.975600 11.423500
4.992400 11.177500
5.009200 11.491700
5.026100 11.769700
5.042900 12.344000
5.059700 12.864600
5.076600 13.087800
5.093400 11.595200
5.110300 11.415200
5.127100 10.914100
5.143900 10.211100
5.160800 9.353400
5.177600 8.842600
5.194400 10.130800
5.211300 10.823100
5.228100 10.800800
5.244900 10.150600
5.261800 10.515500
5.278600 11.526500
5.295500 11.957900
5.312300 12.507900
5.329100 11.129400
5.346000 11.508200
5.362800 10.718900
5.379600 11.972900
5.396500 13.487700
5.413300 14.212900
5.430100 15.918700
5.447000 13.561700
5.463800 11.101600
5.480700 10.188600
5.497500 13.891000
5.514300 11.684500
5.531200 10.697200
5.548000 11.245700
5.564800 11.000200
5.581700 10.642400
5.598500 10.625800
5.615400 11.955100
5.632200 11.603600
5.649000 11.024000
5.665900 9.507100
5.682700 8.804800
5.699500 8.642000
5.716400 8.926300
5.733200 9.385600
5.750000 9.841500
5.766900 10.927100
5.783700 11.883900
5.800600 12.828000
5.817400 13.459100
5.834200 13.253900
5.851100 13.046500
5.867900 12.697500
5.884700 12.476000
5.901600 12.010000
5.918400 11.951100
5.935200 11.244700
5.952100 10.773700
5.968900 10.271700
5.985800 10.064700
6.002600 9.910500
6.019400 9.687200
6.036300 9.864300
6.053100 10.534600
6.069900 11.432200
6.086800 12.104800
6.103600 13.427900
6.120400 11.904500
6.137300 11.307000
6.154100 10.611300
6.171000 10.059200
6.187800 10.220500
6.204600 9.387800
6.221500 9.007800
6.238300 8.727400
6.255100 8.515000
6.272000 8.434800
6.288800 8.498800
6.305700 7.962100
6.322500 8.231600
6.339300 8.825300
6.356200 9.312300
6.373000 9.590800
6.389800 9.804600
6.406700 9.212100
6.423500 10.196700
6.440300 10.148800
6.457200 9.316800
6.474000 8.875700
6.490900 8.775100
6.507700 8.382000
6.524500 7.384800
6.541400 6.429300
6.558200 5.459600
6.575000 5.101600
6.591900 4.901200
6.608700 4.830500
6.625500 4.833000
6.642400 4.890000
6.659200 4.975000
6.676100 5.183600
6.692900 5.517100
6.709700 5.716100
6.726600 5.823400
6.743400 5.950500
6.760200 5.853800
6.777100 5.816500
6.793900 5.746100
6.810800 5.636500
6.827600 5.435700
6.844400 5.164400
6.861300 4.586200
6.878100 4.121700
6.894900 3.852600
6.911800 3.648700
6.928600 3.556200
6.945400 3.598200
6.962300 4.006200
6.979100 3.464200
6.996000 3.647300
7.012800 4.675500
7.029600 4.717400
7.046500 5.256900
7.063300 5.667700
7.080100 5.866500
7.097000 6.027400
7.113800 6.062200
7.130600 6.439400
7.147500 7.080000
7.164300 7.466300
7.181200 7.750800
7.198000 8.037100
7.214800 7.815800
7.231700 7.959700
7.248500 8.053500
7.265300 7.334800
7.282200 7.239600
7.299000 7.409000
7.315800 6.994000
7.332700 6.299000
7.349500 5.596200
7.366400 5.033200
7.383200 4.008200
7.400000 2.916800
7.416900 1.916100
7.433700 1.392100
7.450500 0.955900
7.467400 0.919600
7.484200 0.311300
7.501100 0.328200
7.517900 0.437200
7.534700 0.573800
7.551600 0.737300
7.568400 0.936100
7.585200 1.502200
7.602100 2.773300
7.618900 4.694600
7.635700 3.173700
7.652600 2.767000
7.669400 2.673300
7.686300 2.567500
7.703100 2.468500
7.719900 2.377600
7.736800 2.294500
7.753600 2.207800
7.770400 2.141500
7.787300 2.096700
7.804100 2.078900
7.820900 2.097300
7.837800 2.113400
7.854600 2.117500
7.871500 2.110900
7.888300 2.104200
7.905100 2.100000
7.922000 2.099000
7.938800 2.100700
7.955600 2.087400
7.972500 2.135200
7.989300 2.150800
8.006100 2.114200
8.023000 2.017200
8.039800 1.886900
8.056700 1.761800
8.073500 1.656800
8.090300 1.577900
8.107200 1.535600
8.124000 1.525000
8.140800 1.522600
8.157700 1.561700
8.174500 1.716100
8.191400 2.073800
8.208200 2.585300
8.225000 3.225700
8.241900 3.799900
8.258700 4.586500
8.275500 5.125500
8.292400 5.218500
8.309200 5.439700
8.326000 5.033200
8.342900 4.715300
8.359700 4.461300
8.376600 4.430900
8.393400 4.515200
8.410200 4.613900
8.427100 4.608300
8.443900 4.226000
8.460700 4.016200
8.477600 3.814200
8.494400 3.608900
8.511200 3.507800
8.528100 3.360300
8.544900 3.160000
8.561800 3.139100
8.578600 3.206600
8.595400 3.325600
8.612300 3.479900
8.629100 3.712400
8.645900 3.983000
8.662800 4.445300
8.679600 5.128600
8.696500 6.040700
8.713300 6.087900
8.730100 6.057300
8.747000 5.953800
8.763800 5.890900
8.780600 6.193700
8.797500 6.383300
8.814300 6.696700
8.831100 7.189900
8.848000 7.918400
8.864800 7.557000
8.881700 5.125900
8.898500 4.510800
8.915300 4.315200
8.932200 4.125600
8.949000 4.124200
8.965800 4.458800
8.982700 5.277900
8.999500 5.653700
9.016300 5.829000
9.033200 6.038200
9.050000 6.272700
9.066900 6.184400
9.083700 6.417600
9.100500 6.669100
9.117400 6.916600
9.134200 6.920600
9.151000 6.944000
9.167900 7.283400
9.184700 7.502300
9.201500 7.409700
9.218400 6.795800
9.235200 5.975500
9.252100 5.334800
9.268900 4.967400
9.285700 4.777500
9.302600 4.674600
9.319400 4.656900
9.336200 4.724800
9.353100 4.531600
9.369900 4.611600
9.386800 4.615600
9.403600 4.557100
9.420400 4.877900
9.437300 5.135400
9.454100 5.496300
9.470900 6.593000
9.487800 8.117000
9.504600 8.438100
9.521400 8.403700
9.538300 7.502900
9.555100 7.707400
9.572000 7.801400
9.588800 7.421900
9.605600 6.918100
9.622500 6.718900
9.639300 6.602200
9.656100 6.526500
9.673000 6.486900
9.689800 6.562900
9.706600 6.643800
9.723500 6.763500
9.740300 6.677100
9.757200 5.946800
9.774000 4.834000
9.790800 4.415700
9.807700 4.195300
9.824500 4.044700
9.841300 3.944700
9.858200 4.009000
9.875000 4.218800
9.891800 4.950900
9.908700 5.074000
9.925500 4.826600
9.942400 5.023400
9.959200 5.294700
9.976000 5.532300
9.992900 5.615700
10.009700 5.570300
10.026500 5.602200
10.043400 5.693200
10.060200 5.704000
10.077100 5.832800
10.093900 5.996600
10.110700 6.048200
10.127600 6.023300
10.144400 6.123300
10.161200 6.236000
10.178100 6.424600
10.194900 6.638800
10.211700 6.482300
10.228600 6.195400
10.245400 5.865100
10.262300 5.341200
10.279100 5.063400
10.295900 4.680400
10.312800 4.554100
10.329600 4.496000
10.346400 4.476500
10.363300 4.673600
10.380100 4.832300
10.396900 4.925100
10.413800 5.277900
10.430600 5.878600
10.447500 6.584300
10.464300 6.419600
10.481100 6.697400
10.498000 6.904700
10.514800 6.963500
10.531600 6.884900
10.548500 6.872100
10.565300 6.325000
10.582100 5.764100
10.599000 5.521500
10.615800 5.212700
10.632700 4.919300
10.649500 4.656500
10.666300 4.747800
10.683200 4.644200
10.700000 4.384700
10.716800 4.247900
10.733700 4.062500
10.750500 3.816400
10.767400 3.672200
10.784200 3.603600
10.801000 3.569100
10.817900 3.589500
10.834700 3.497300
10.851500 3.139200
10.868400 2.689300
10.885200 2.322400
10.902000 2.040900
10.918900 1.759400
10.935700 1.519300
10.952600 1.415000
10.969400 1.323200
10.986200 1.301300
11.003100 1.227200
11.019900 1.110600
11.036700 0.978500
11.053600 0.620900
11.070400 0.299000
11.087200 0.287300
11.104100 0.326200
11.120900 0.373200
11.137800 0.480700
11.154600 0.592900
11.171400 0.715700
11.188300 0.533100
11.205100 0.557600
11.221900 0.582800
11.238800 0.608500
11.255600 0.634800
11.272500 0.661400
11.289300 0.688700
11.306100 0.717900
11.323000 0.748900
11.339800 0.784700
11.356600 0.828000
11.373500 0.883600
11.390300 0.958400
11.407100 1.024000
11.424000 1.075600
11.440800 1.116800
11.457700 1.170200
11.474500 1.234600
11.491300 1.330600
11.508200 1.448500
11.525000 1.567400
11.541800 1.669500
11.558700 1.764800
11.575500 1.871100
11.592300 1.988400
11.609200 2.126300
11.626000 2.278100
11.642900 2.394000
11.659700 2.623600
11.676500 2.628500
11.693400 2.617300
11.710200 2.662900
11.727000 2.762800
11.743900 2.836800
11.760700 2.878700
11.777500 2.929900
11.794400 3.018300
11.811200 3.132000
11.828100 3.277600
11.844900 3.362200
11.861700 3.431200
11.878600 3.618400
11.895400 3.981000
11.912200 4.220800
11.929100 4.488500
11.945900 4.547300
11.962800 4.844600
11.979600 4.884000
11.996400 4.775100
12.013300 4.796200
12.030100 4.764800
12.046900 4.693600
12.063800 4.645300
12.080600 4.724300
12.097400 4.800500
12.114300 4.891500
12.131100 4.972000
12.148000 5.171000
12.164800 6.160700
12.181600 5.466400
12.198500 5.358800
12.215300 5.403900
12.232100 5.586600
12.249000 5.501500
12.265800 5.564100
12.282600 5.743300
12.299500 5.797700
12.316300 5.660100
12.333200 5.628600
12.350000 5.785900
12.366800 6.095300
12.383700 5.852000
12.400500 5.776500
12.417300 5.713400
12.434200 5.595200
12.451000 5.385700
12.467800 5.308200
12.484700 5.243000
12.501500 5.211000
12.518400 5.173000
12.535200 5.026900
12.552000 4.880100
12.568900 4.887200
12.585700 4.990900
12.602500 5.119500
12.619400 5.314100
12.636200 5.541600
12.653100 5.334800
12.669900 5.216200
12.686700 5.049600
12.703600 4.613300
12.720400 4.325800
12.737200 4.091000
12.754100 3.863200
12.770900 3.593300
12.787700 3.238700
12.804600 3.114300
12.821400 3.003100
12.838300 2.912600
12.855100 2.850300
12.871900 2.665900
12.888800 2.607700
12.905600 2.565400
12.922400 2.580700
12.939300 2.648200
12.956100 2.753500
12.972900 2.956600
12.989800 3.284100
13.006600 3.620000
13.023500 3.798500
13.040300 3.987200
13.057100 4.174200
13.074000 4.519600
13.090800 4.863600
13.107600 5.077500
13.124500 5.125700
13.141300 5.114800
13.158100 5.058700
13.175000 4.957400
13.191800 4.890300
13.208700 4.841000
13.225500 4.760000
13.242300 4.531800
13.259200 4.342000
13.276000 4.195900
13.292800 4.054600
13.309700 3.902800
13.326500 3.774800
13.343400 3.679100
13.360200 3.499600
13.377000 3.305500
13.393900 2.956000
13.410700 2.980100
13.427500 3.120100
13.444400 3.371000
13.461200 3.658400
13.478000 4.009300
13.494900 4.435800
13.511700 5.167600
13.528600 5.090200
13.545400 5.260200
13.562200 5.457900
13.579100 5.879700
13.595900 6.486100
13.612700 6.868800
13.629600 7.010300
13.646400 7.229100
13.663200 7.182500
13.680100 6.904900
13.696900 6.468200
13.713800 5.979900
13.730600 5.579800
13.747400 5.209200
13.764300 5.054200
13.781100 4.898200
13.797900 4.351300
13.814800 4.027000
13.831600 3.732400
13.848500 3.528200
13.865300 3.285600
13.882100 3.060500
13.899000 2.941500
13.915800 3.102200
13.932600 3.423900
13.949500 3.655500
13.966300 3.766500
13.983100 3.972300
14.000000 4.175400
14.016800 4.417700
14.033700 4.810100
14.050500 5.368700
14.067300 6.220600
14.084200 7.121800
14.101000 6.935200
14.117800 6.844600
14.134700 7.176700
14.151500 7.151500
14.168300 6.629800
14.185200 6.405300
14.202000 6.341000
14.218900 6.150400
14.235700 5.884200
14.252500 5.688100
14.269400 5.557500
14.286200 5.500700
14.303000 5.571600
14.319900 5.572100
14.336700 5.558100
14.353500 5.600100
14.370400 5.705100
14.387200 5.806300
14.404100 5.899000
14.420900 6.065500
14.437700 6.455900
14.454600 6.439100
14.471400 6.567800
14.488200 6.812100
14.505100 7.119000
14.521900 7.014300
14.538800 6.823200
14.555600 7.163500
14.572400 6.568900
14.589300 6.344800
14.606100 6.168100
14.622900 6.273500
14.639800 6.391400
14.656600 6.529900
14.673400 6.717700
14.690300 6.907200
14.707100 6.966900
14.724000 7.018400
14.740800 7.074500
14.757600 6.909900
14.774500 6.828300
14.791300 6.686400
14.808100 6.805200
14.825000 7.012300
14.841800 7.486700
14.858600 7.454000
14.875500 7.405900
14.892300 7.115800
14.909200 7.151700
14.926000 7.262200
14.942800 7.330100
14.959700 7.340200
14.976500 7.340300
14.993300 7.392500
15.010200 7.641200
15.027000 7.627600
15.043800 7.609000
15.060700 7.524800
15.077500 7.217000
15.094400 6.720600
15.111200 6.312500
15.128000 5.868700
15.144900 5.527500
15.161700 5.090200
15.178500 5.009800
15.195400 5.084600
15.212200 5.276000
15.229100 5.520500
15.245900 5.823500
15.262700 6.105700
15.279600 6.320700
15.296400 6.605900
15.313200 7.056200
15.330100 7.322800
15.346900 7.799900
15.363700 8.009300
15.380600 7.782200
15.397400 7.180600
15.414300 6.861900
15.431100 6.562800
15.447900 6.340800
15.464800 6.210100
15.481600 6.140400
15.498400 5.968800
15.515300 5.825600
15.532100 5.761200
15.548900 5.733000
15.565800 5.693600
15.582600 5.655500
15.599500 5.685100
15.616300 5.781600
15.633100 5.911800
15.650000 5.862600
15.666800 5.984500
15.683600 6.287300
15.700500 6.331200
15.717300 6.353200
15.734200 6.424500
15.751000 6.414900
15.767800 6.676500
15.784700 7.044500
15.801500 7.373900
15.818300 7.581000
15.835200 7.639500
15.852000 7.804900
15.868800 7.692700
15.885700 7.562200
15.902500 7.312200
15.919400 7.071600
15.936200 6.913200
15.953000 6.857000
15.969900 6.846700
15.986700 6.859400
16.003500 6.898000
16.020400 6.894700
16.037200 6.917100
16.054000 6.960800
16.070900 7.051000
16.087700 7.075000
16.104600 7.334300
16.121400 7.586800
16.138200 7.676700
16.155100 8.030500
16.171900 8.223800
16.188700 7.709800
16.205600 7.738900
16.222400 7.813000
16.239200 8.261800
16.256100 8.448400
16.272900 7.938300
16.289800 7.915500
16.306600 7.851400
16.323400 7.944800
16.340300 8.095000
16.357100 9.128000
16.373900 8.271200
16.390800 8.065400
16.407600 7.774400
16.424500 7.804800
16.441300 8.255800
16.458100 8.529400
16.475000 8.621000
16.491800 8.577300
16.508600 8.548600
16.525500 8.888800
16.542300 8.117800
16.559100 8.198200
16.576000 8.345500
16.592800 8.420800
16.609700 6.488700
16.626500 6.336200
16.643300 6.305800
16.660200 6.334400
16.677000 6.378300
16.693800 6.491800
16.710700 6.696700
16.727500 6.835500
16.744300 6.949700
16.761200 7.031400
16.778000 7.165800
16.794900 7.504300
16.811700 7.260800
16.828500 7.021100
16.845400 6.846500
16.862200 6.581300
16.879000 6.505700
16.895900 6.559200
16.912700 6.813100
16.929500 6.917000
16.946400 6.741800
16.963200 6.597400
16.980100 6.469500
16.996900 6.403400
17.013700 6.173700
17.030600 6.055300
17.047400 6.229000
17.064200 6.259300
17.081100 6.106700
17.097900 5.865700
17.114800 5.721600
17.131600 5.606900
17.148400 5.501600
17.165300 5.439900
17.182100 5.428500
17.198900 5.429200
17.215800 5.448400
17.232600 5.436900
17.249400 5.398100
17.266300 5.379800
17.283100 5.375700
17.300000 5.346900
17.316800 5.316800
17.333600 5.309700
17.350500 5.323200
17.367300 5.382300
17.384100 5.464400
17.401000 5.564900
17.417800 5.687800
17.434600 5.822600
17.451500 5.952100
17.468300 6.052700
17.485200 6.165800
17.502000 6.353300
17.518800 6.499800
17.535700 6.578800
17.552500 6.620800
17.569300 6.633300
17.586200 6.622800
17.603000 6.523100
17.619800 6.406800
17.636700 6.260100
17.653500 6.137600
17.670400 6.118000
17.687200 6.165900
17.704000 6.261600
17.720900 6.363300
17.737700 6.618800
17.754500 6.449000
17.771400 6.483500
17.788200 6.472800
17.805100 6.500100
17.821900 6.685300
17.838700 6.801400
17.855600 6.720200
17.872400 6.699900
17.889200 6.746000
17.906100 6.729500
17.922900 6.764500
17.939700 6.857800
17.956600 6.877500
17.973400 6.840400
17.990300 6.778500
18.007100 6.726900
18.023900 6.719900
18.040800 6.801700
18.057600 6.992800
18.074400 7.240000
18.091300 7.516600
18.108100 7.247500
18.124900 7.033100
18.141800 7.035900
18.158600 7.380000
18.175500 7.018900
18.192300 6.915200
18.209100 6.913700
18.226000 7.023500
18.242800 7.061600
18.259600 7.095200
18.276500 7.048600
18.293300 6.938500
18.310200 6.838500
18.327000 6.766000
18.343800 6.692900
18.360700 6.596000
18.377500 6.631400
18.394300 6.676800
18.411200 6.667100
18.428000 6.704300
18.444800 6.779800
18.461700 6.974000
18.478500 6.953500
18.495400 6.906400
18.512200 7.022400
18.529000 7.275800
18.545900 7.531400
18.562700 7.753000
18.579500 7.798800
18.596400 7.490500
18.613200 7.369400
18.630000 7.227600
18.646900 7.063400
18.663700 6.886100
18.680600 6.967600
18.697400 7.194100
18.714200 7.448000
18.731100 7.297200
18.747900 6.765200
18.764700 6.552500
18.781600 6.546300
18.798400 6.541200
18.815200 6.558800
18.832100 6.621400
18.848900 6.711700
18.865800 6.832700
18.882600 6.974500
18.899400 7.122200
18.916300 7.198200
18.933100 7.294500
18.949900 7.552300
18.966800 7.523100
18.983600 7.278800
19.000500 7.227800
19.017300 7.099200
19.034100 6.995200
19.051000 6.962500
19.067800 7.027700
19.084600 7.431100
19.101500 7.782700
19.118300 7.824200
19.135100 7.908400
19.152000 8.077300
19.168800 8.133800
19.185700 8.058700
19.202500 8.064800
19.219300 7.845200
19.236200 7.649400
19.253000 7.465400
19.269800 7.250600
19.286700 7.124400
19.303500 7.501400
19.320300 7.470200
19.337200 7.365100
19.354000 7.440800
19.370900 7.781200
19.387700 7.723800
19.404500 7.808700
19.421400 7.953700
19.438200 7.924500
19.455000 7.854700
19.471900 7.764200
19.488700 7.689200
19.505500 7.615800
19.522400 7.598200
19.539200 7.617000
19.556100 7.630700
19.572900 7.684900
19.589700 7.693900
19.606600 7.799400
19.623400 7.845500
19.640200 7.812600
19.657100 7.774600
19.673900 7.756600
19.690800 7.735400
19.707600 7.761400
19.724400 7.836400
19.741300 7.954900
19.758100 7.980800
19.774900 8.022700
19.791800 7.962300
19.808600 7.942300
19.825400 7.874000
19.842300 7.829800
19.859100 7.868100
19.876000 7.919200
19.892800 7.897400
19.909600 7.877000
19.926500 7.863000
19.943300 7.875700
19.960100 7.673800
19.977000 7.569500
19.993800 7.512000
20.010600 7.381300
20.027500 7.306300
20.044300 7.317900
20.061200 7.388600
20.078000 7.244200
20.094800 7.171700
20.111700 7.154700
20.128500 7.215800
20.145300 7.313100
20.162200 7.461200
20.179000 7.554500
20.195900 7.662300
20.212700 7.755500
20.229500 7.897300
20.246400 7.846600
20.263200 7.718100
20.280000 7.617900
20.296900 7.567700
20.313700 7.418600
20.330500 7.460900
20.347400 7.419500
20.364200 7.394000
20.381100 7.369700
20.397900 7.356300
20.414700 7.395600
20.431600 7.421500
20.448400 7.402500
20.465200 7.391500
20.482100 7.421800
20.498900 7.455400
20.515700 7.298400
20.532600 7.322100
20.549400 7.238900
20.566300 7.198200
20.583100 7.392500
20.599900 7.403500
20.616800 7.304600
20.633600 7.343800
20.650400 7.401500
20.667300 7.409300
20.684100 7.442500
20.700900 7.731300
20.717800 7.771000
20.734600 7.278500
20.751500 7.077600
20.768300 6.982100
20.785100 6.820600
20.802000 6.698300
20.818800 6.627800
20.835600 6.610900
20.852500 6.656600
20.869300 6.729400
20.886200 6.839000
20.903000 6.979400
20.919800 7.131100
20.936700 7.416000
20.953500 7.613400
20.970300 7.656400
20.987200 7.655600
21.004000 7.664500
21.020800 7.607900
21.037700 7.560000
21.054500 7.560200
21.071400 7.571100
21.088200 7.539000
21.105000 7.449000
21.121900 7.518300
21.138700 7.640400
21.155500 7.798500
21.172400 7.853800
21.189200 7.855200
21.206000 7.909100
21.222900 7.867300
21.239700 7.817900
21.256600 7.577100
21.273400 7.536400
21.290200 7.471000
21.307100 7.446300
21.323900 7.516500
21.340700 7.672800
21.357600 7.805600
21.374400 7.937900
21.391200 8.017200
21.408100 7.872800
21.424900 7.843100
21.441800 8.084500
21.458600 7.767800
21.475400 7.552500
21.492300 7.549900
21.509100 7.614200
21.525900 7.683100
21.542800 7.804300
21.559600 7.995700
21.576500 8.178300
21.593300 8.389200
21.610100 8.554500
21.627000 8.784300
21.643800 8.854600
21.660600 8.694900
21.677500 8.589300
21.694300 8.447300
21.711100 7.989900
21.728000 7.626700
21.744800 7.467700
21.761700 7.697600
21.778500 8.356500
21.795300 8.790000
21.812200 9.040500
21.829000 8.980600
21.845800 8.519400
21.862700 8.247000
21.879500 7.962100
21.896300 7.868900
21.913200 7.784600
21.930000 8.070700
21.946900 8.260700
21.963700 8.504800
21.980500 8.710600
21.997400 8.879400
22.014200 8.974800
22.031000 9.073900
22.047900 9.141900
22.064700 9.255900
22.081500 9.044700
22.098400 8.774200
22.115200 8.923000
22.132100 8.625000
22.148900 7.878500
22.165700 7.606900
22.182600 7.665300
22.199400 8.011600
22.216200 8.517100
22.233100 8.719500
22.249900 8.601800
22.266800 8.655700
22.283600 7.974800
22.300400 7.826800
22.317300 7.904700
22.334100 7.917200
22.350900 7.829200
22.367800 7.715100
22.384600 7.745000
22.401400 8.229100
22.418300 8.787800
22.435100 9.216600
22.452000 8.714200
22.468800 8.394100
22.485600 8.101000
22.502500 7.839800
22.519300 7.723100
22.536100 7.606200
22.553000 7.820100
22.569800 8.169900
22.586600 8.868100
22.603500 9.260100
22.620300 9.688200
22.637200 9.061100
22.654000 8.411800
22.670800 8.069900
22.687700 7.998500
22.704500 7.906500
22.721300 7.649300
22.738200 7.522900
22.755000 7.548300
22.771900 7.942100
22.788700 7.889300
22.805500 8.194400
22.822400 8.310100
22.839200 8.093000
22.856000 7.983100
22.872900 7.968600
22.889700 7.698600
22.906500 7.370800
22.923400 7.187300
22.940200 7.322600
22.957100 7.667400
22.973900 7.887200
22.990700 7.965100
23.007600 8.103400
23.024400 7.830700
23.041200 7.487000
23.058100 7.738800
23.074900 8.042600
23.091700 8.054700
23.108600 8.157200
23.125400 7.716100
23.142300 7.335900
23.159100 7.318000
23.175900 7.582700
23.192800 7.754300
23.209600 7.833500
23.226400 7.912500
23.243300 8.043300
23.260100 8.377800
23.276900 8.703900
23.293800 8.712100
23.310600 8.703000
23.327500 8.951300
23.344300 8.710900
23.361100 8.520300
23.378000 8.346000
23.394800 8.125700
23.411600 7.890500
23.428500 7.813100
23.445300 7.707900
23.462200 7.584500
23.479000 7.628800
23.495800 8.264600
23.512700 8.087200
23.529500 7.559700
23.546300 6.816500
23.563200 6.144500
23.580000 5.881700
23.596800 5.715000
23.613700 5.519100
23.630500 5.302300
23.647400 5.025900
23.664200 4.698000
23.681000 4.405800
23.697900 4.294300
23.714700 4.255800
23.731500 4.139000
23.748400 3.960400
23.765200 3.744100
23.782000 3.454600
23.798900 3.037500
23.815700 2.706900
23.832600 2.467300
23.849400 2.273200
23.866200 2.079900
23.883100 1.897600
23.899900 1.721900
23.916700 1.551500
23.933600 1.388200
23.950400 1.236000
23.967200 1.093000
23.984100 0.959600
24.000900 0.835700
24.017800 0.715200
24.034600 0.620300
24.051400 0.544600
24.068300 0.476400
24.085100 0.392600
24.101900 0.336000
24.118800 0.291400
24.135600 0.258900
24.152500 0.235100
24.169300 0.213900
24.186100 0.195700
24.203000 0.179700
24.219800 0.164600
24.236600 0.148500
24.253500 0.131100
24.270300 0.113200
24.287100 0.104900
24.304000 0.097300
24.320800 0.090000
24.337700 0.083000
24.354500 0.076100
24.371300 0.069500
24.388200 0.062700
24.405000 0.055900
24.421800 0.049000
24.438700 0.042100
24.455500 0.035100
24.472300 0.028100
24.489200 0.021300
24.506000 0.015500
24.522900 0.010700
24.539700 0.006800
24.556500 0.003900
24.573400 0.001900
24.590200 0.000800
24.607000 0.000200
24.623900 0.000000
24.640700 0.000000
24.657600 0.000000
24.674400 0.000000
24.691200 0.000000
24.708100 0.000000
24.724900 0.000000
24.741700 0.000000
24.758600 0.000000
24.775400 0.000000
24.792200 0.000000
24.809100 0.000000
24.825900 0.000000
24.842800 0.000000
24.859600 0.000000
24.876400 0.000000
24.893300 0.000000
24.910100 0.000000
24.926900 0.000000
24.943800 0.000000
24.960600 0.000000
24.977400 0.000000
24.994300 0.000000
25.011100 0.000000
25.028000 0.000000
25.044800 0.000000
25.061600 0.000000
25.078500 0.000000
25.095300 0.000000
25.112100 0.000000
25.129000 0.000000
25.145800 0.000000
25.162600 0.000000
25.179500 0.000000
25.196300 0.000000
25.213200 0.000000
25.230000 0.000000
25.246800 0.000000
25.263700 0.000000
25.280500 0.000000
25.297300 0.000000
25.314200 0.000000
25.331000 0.000000
25.347900 0.000000
25.364700 0.000000
25.381500 0.000000
25.398400 0.000000
25.415200 0.000000
25.432000 0.000000
25.448900 0.000000
25.465700 0.000000
25.482500 0.000000
25.499400 0.000000
25.516200 0.000000
25.533100 0.000000
25.549900 0.000000
25.566700 0.000000
25.583600 0.000000
25.600400 0.000000
25.617200 0.000000
25.634100 0.000000
25.650900 0.000000
25.667700 0.000000
25.684600 0.000000
25.701400 0.000000
25.718300 0.000000
25.735100 0.000000
25.751900 0.000000
25.768800 0.000000
25.785600 0.000000
25.802400 0.000000
25.819300 0.000000
25.836100 0.000000
25.852900 0.000000
25.869800 0.000000
25.886600 0.000000
25.903500 0.000000
25.920300 0.000000
25.937100 0.000000
25.954000 0.000000
25.970800 0.000000
25.987600 0.000000
26.004500 0.000000
26.021300 0.000000
26.038200 0.000000
26.055000 0.000000
26.071800 0.000000
26.088700 0.000000
26.105500 0.000000
26.122300 0.000000
26.139200 0.000000
26.156000 0.000000
e
