set title 'mp-1077125 - Density of States'
set xlabel 'Energy (eV)'
set ylabel 'DOS (states/eV)'
set grid
set xrange [-10:10]
set yrange [0:2.689]
set xzeroaxis lt -1
set terminal png size 800,600
set output 'mp-1077125_dos_gnuplot.png'
plot '-' using 1:2 with lines title 'DOS'
-15.458500 0.000000
-15.419800 0.000000
-15.381100 0.000000
-15.342500 0.000000
-15.303800 0.000000
-15.265100 0.000000
-15.226400 0.000000
-15.187800 0.000000
-15.149100 0.000000
-15.110400 0.000000
-15.071700 0.000000
-15.033000 0.000000
-14.994400 0.000000
-14.955700 0.000000
-14.917000 0.000000
-14.878300 0.000000
-14.839700 0.000000
-14.801000 0.000000
-14.762300 0.000000
-14.723600 0.000000
-14.685000 0.000000
-14.646300 0.000000
-14.607600 0.000000
-14.568900 0.000000
-14.530200 0.000000
-14.491600 0.000000
-14.452900 0.000000
-14.414200 0.000000
-14.375500 0.000000
-14.336900 0.000000
-14.298200 0.000000
-14.259500 0.000000
-14.220800 0.000000
-14.182200 0.000000
-14.143500 0.000000
-14.104800 0.000000
-14.066100 0.000000
-14.027500 0.000000
-13.988800 0.000000
-13.950100 0.000000
-13.911400 0.000000
-13.872700 0.000000
-13.834100 0.000000
-13.795400 0.000000
-13.756700 0.000000
-13.718000 0.000000
-13.679400 0.000000
-13.640700 0.000000
-13.602000 0.000000
-13.563300 0.000000
-13.524700 0.000000
-13.486000 0.000000
-13.447300 0.000000
-13.408600 0.000000
-13.370000 0.000000
-13.331300 0.000000
-13.292600 0.000000
-13.253900 0.000000
-13.215200 0.000000
-13.176600 0.000000
-13.137900 0.000000
-13.099200 0.000000
-13.060500 0.000000
-13.021900 0.000000
-12.983200 0.000000
-12.944500 0.000000
-12.905800 0.000000
-12.867200 0.000000
-12.828500 0.000000
-12.789800 0.000000
-12.751100 0.000000
-12.712500 0.000000
-12.673800 0.000000
-12.635100 0.000000
-12.596400 0.000000
-12.557700 0.000000
-12.519100 0.000000
-12.480400 0.000000
-12.441700 0.000000
-12.403000 0.000000
-12.364400 0.000000
-12.325700 0.000000
-12.287000 0.000000
-12.248300 0.000000
-12.209700 0.000000
-12.171000 0.000000
-12.132300 0.000000
-12.093600 0.000000
-12.055000 0.000000
-12.016300 0.000000
-11.977600 0.000000
-11.938900 0.000500
-11.900200 0.043000
-11.861600 0.116100
-11.822900 0.166600
-11.784200 0.190000
-11.745500 0.216500
-11.706900 0.257600
-11.668200 0.317900
-11.629500 0.360400
-11.590800 0.355200
-11.552200 0.340500
-11.513500 0.338500
-11.474800 0.342900
-11.436100 0.346500
-11.397500 0.347800
-11.358800 0.343400
-11.320100 0.338300
-11.281400 0.339100
-11.242700 0.344900
-11.204100 0.350900
-11.165400 0.352300
-11.126700 0.350600
-11.088000 0.349900
-11.049400 0.349600
-11.010700 0.349100
-10.972000 0.347100
-10.933300 0.342800
-10.894700 0.340400
-10.856000 0.341500
-10.817300 0.343200
-10.778600 0.345300
-10.740000 0.347700
-10.701300 0.350400
-10.662600 0.353400
-10.623900 0.355800
-10.585200 0.355600
-10.546600 0.354500
-10.507900 0.353800
-10.469200 0.353000
-10.430500 0.351700
-10.391900 0.349200
-10.353200 0.346900
-10.314500 0.346300
-10.275800 0.346700
-10.237200 0.347500
-10.198500 0.348500
-10.159800 0.349600
-10.121100 0.351000
-10.082400 0.352600
-10.043800 0.354500
-10.005100 0.356300
-9.966400 0.358100
-9.927700 0.359800
-9.889100 0.360100
-9.850400 0.359300
-9.811700 0.358900
-9.773000 0.358500
-9.734400 0.361400
-9.695700 0.386000
-9.657000 0.422000
-9.618300 0.436200
-9.579700 0.443700
-9.541000 0.457700
-9.502300 0.468900
-9.463600 0.484000
-9.424900 0.499700
-9.386300 0.509800
-9.347600 0.516000
-9.308900 0.525000
-9.270200 0.534900
-9.231600 0.544800
-9.192900 0.555100
-9.154200 0.565800
-9.115500 0.576600
-9.076900 0.587900
-9.038200 0.598700
-8.999500 0.607300
-8.960800 0.615000
-8.922200 0.623600
-8.883500 0.632600
-8.844800 0.641700
-8.806100 0.651000
-8.767400 0.661100
-8.728800 0.672400
-8.690100 0.691300
-8.651400 0.711800
-8.612700 0.736000
-8.574100 0.745100
-8.535400 0.740500
-8.496700 0.742800
-8.458000 0.747600
-8.419400 0.751600
-8.380700 0.753200
-8.342000 0.753000
-8.303300 0.752000
-8.264700 0.753000
-8.226000 0.756500
-8.187300 0.760000
-8.148600 0.764000
-8.109900 0.800300
-8.071300 0.883500
-8.032600 1.019300
-7.993900 1.032100
-7.955200 0.949700
-7.916600 0.885800
-7.877900 0.837400
-7.839200 0.818400
-7.800500 0.806300
-7.761900 0.787200
-7.723200 0.757400
-7.684500 0.740400
-7.645800 0.729700
-7.607200 0.725000
-7.568500 0.722200
-7.529800 0.719400
-7.491100 0.716300
-7.452400 0.713100
-7.413800 0.708300
-7.375100 0.700800
-7.336400 0.689900
-7.297700 0.684400
-7.259100 0.681700
-7.220400 0.814000
-7.181700 0.947100
-7.143000 0.973500
-7.104400 1.071200
-7.065700 1.137200
-7.027000 1.132800
-6.988300 1.099400
-6.949700 1.081700
-6.911000 1.054600
-6.872300 1.038600
-6.833600 1.015400
-6.794900 0.980200
-6.756300 0.951200
-6.717600 0.928400
-6.678900 0.907300
-6.640200 0.885100
-6.601600 0.860600
-6.562900 0.840100
-6.524200 0.810700
-6.485500 0.777700
-6.446900 0.754800
-6.408200 0.732000
-6.369500 0.715900
-6.330800 0.702700
-6.292200 0.691000
-6.253500 0.680300
-6.214800 0.669500
-6.176100 0.661000
-6.137400 0.651500
-6.098800 0.644400
-6.060100 0.638600
-6.021400 0.629600
-5.982700 0.620800
-5.944100 0.614000
-5.905400 0.605200
-5.866700 0.597600
-5.828000 0.591900
-5.789400 0.587000
-5.750700 0.583100
-5.712000 0.579800
-5.673300 0.576200
-5.634600 0.573800
-5.596000 0.571600
-5.557300 0.569800
-5.518600 0.568400
-5.479900 0.567500
-5.441300 0.592500
-5.402600 0.646900
-5.363900 0.703300
-5.325200 0.762500
-5.286600 0.840200
-5.247900 0.942000
-5.209200 1.032700
-5.170500 1.070500
-5.131900 1.075900
-5.093200 1.101100
-5.054500 1.141500
-5.015800 1.206700
-4.977100 1.275100
-4.938500 1.379400
-4.899800 1.331700
-4.861100 1.210500
-4.822400 1.195900
-4.783800 1.178800
-4.745100 1.156200
-4.706400 1.136300
-4.667700 1.104700
-4.629100 1.089600
-4.590400 1.081600
-4.551700 1.069000
-4.513000 1.087400
-4.474400 1.143100
-4.435700 1.055400
-4.397000 0.996100
-4.358300 0.984200
-4.319600 0.953700
-4.281000 0.936500
-4.242300 0.923900
-4.203600 0.910300
-4.164900 0.897400
-4.126300 0.888700
-4.087600 0.882200
-4.048900 0.877300
-4.010200 0.875800
-3.971600 0.866900
-3.932900 0.896700
-3.894200 0.851100
-3.855500 0.847500
-3.816900 0.847400
-3.778200 0.848600
-3.739500 0.852500
-3.700800 0.842300
-3.662100 0.778800
-3.623500 0.772100
-3.584800 0.746700
-3.546100 0.673000
-3.507400 0.680900
-3.468800 0.751400
-3.430100 0.860600
-3.391400 0.909600
-3.352700 1.001400
-3.314100 1.298700
-3.275400 1.263100
-3.236700 1.220800
-3.198000 1.150200
-3.159400 0.935500
-3.120700 0.750200
-3.082000 0.625100
-3.043300 0.541400
-3.004600 0.476600
-2.966000 0.449500
-2.927300 0.444500
-2.888600 0.444400
-2.849900 0.460900
-2.811300 0.479200
-2.772600 0.488200
-2.733900 0.492200
-2.695200 0.499100
-2.656600 0.505600
-2.617900 0.532600
-2.579200 0.551300
-2.540500 0.632700
-2.501900 0.944600
-2.463200 0.895900
-2.424500 0.947000
-2.385800 1.097600
-2.347100 1.363200
-2.308500 1.272400
-2.269800 1.420500
-2.231100 1.522300
-2.192400 1.530200
-2.153800 1.499100
-2.115100 1.513100
-2.076400 1.508400
-2.037700 1.499600
-1.999100 1.534400
-1.960400 1.600100
-1.921700 1.688400
-1.883000 1.818000
-1.844400 1.892800
-1.805700 1.844000
-1.767000 1.771300
-1.728300 1.711700
-1.689600 1.602500
-1.651000 1.601700
-1.612300 1.686800
-1.573600 1.487000
-1.534900 1.346500
-1.496300 1.240800
-1.457600 1.138400
-1.418900 1.101000
-1.380200 1.083200
-1.341600 1.090600
-1.302900 1.117900
-1.264200 1.176500
-1.225500 1.164500
-1.186800 1.131400
-1.148200 1.137600
-1.109500 1.149700
-1.070800 1.183700
-1.032100 1.267000
-0.993500 1.224600
-0.954800 1.198900
-0.916100 1.183300
-0.877400 1.166400
-0.838800 1.138700
-0.800100 1.091700
-0.761400 1.015400
-0.722700 0.951700
-0.684100 0.897200
-0.645400 0.848600
-0.606700 0.775200
-0.568000 0.720600
-0.529300 0.675900
-0.490700 0.638400
-0.452000 0.609800
-0.413300 0.599600
-0.374600 0.596300
-0.336000 0.596400
-0.297300 0.614300
-0.258600 0.612500
-0.219900 0.614400
-0.181300 0.598000
-0.142600 0.584400
-0.103900 0.578900
-0.065200 0.597900
-0.026600 0.609600
0.012100 0.638700
0.050800 0.765400
0.089500 0.824900
0.128200 0.879600
0.166800 0.949700
0.205500 1.024600
0.244200 1.102000
0.282900 1.212700
0.321500 1.413000
0.360200 1.599700
0.398900 1.817500
0.437600 1.894000
0.476200 1.961600
0.514900 1.904600
0.553600 1.824200
0.592300 1.848100
0.630900 1.884000
0.669600 1.869000
0.708300 1.925000
0.747000 1.904300
0.785700 1.826800
0.824300 1.797800
0.863000 1.733100
0.901700 1.652300
0.940400 1.544200
0.979000 1.442900
1.017700 1.466900
1.056400 1.511400
1.095100 1.549700
1.133700 1.591200
1.172400 1.587700
1.211100 1.625700
1.249800 1.699200
1.288400 1.773200
1.327100 1.665200
1.365800 1.433300
1.404500 1.385700
1.443200 1.325500
1.481800 1.286200
1.520500 1.314000
1.559200 1.389300
1.597900 1.472900
1.636500 1.612500
1.675200 1.634900
1.713900 1.724600
1.752600 1.807900
1.791200 1.840400
1.829900 1.808100
1.868600 1.744400
1.907300 1.784200
1.945900 1.832900
1.984600 1.817700
2.023300 1.797600
2.062000 1.827700
2.100700 1.864300
2.139300 1.834800
2.178000 1.906700
2.216700 1.991100
2.255400 2.042100
2.294000 2.070000
2.332700 2.011500
2.371400 1.917700
2.410100 1.847700
2.448700 1.829200
2.487400 1.842300
2.526100 1.862700
2.564800 1.889000
2.603400 1.874700
2.642100 1.862100
2.680800 1.877900
2.719500 1.890500
2.758200 1.923900
2.796800 1.993900
2.835500 2.046300
2.874200 1.979800
2.912900 2.057100
2.951500 2.044900
2.990200 2.091300
3.028900 2.078700
3.067600 2.066900
3.106200 1.992500
3.144900 1.896500
3.183600 1.886200
3.222300 1.857600
3.261000 1.938200
3.299600 1.973800
3.338300 1.999300
3.377000 2.045200
3.415700 2.048300
3.454300 2.091200
3.493000 2.084000
3.531700 2.048900
3.570400 2.109600
3.609000 2.192500
3.647700 2.346400
3.686400 2.186700
3.725100 2.162100
3.763700 2.124600
3.802400 2.084900
3.841100 2.071200
3.879800 2.040500
3.918500 2.065600
3.957100 2.062300
3.995800 2.148000
4.034500 2.214600
4.073200 2.243000
4.111800 2.274200
4.150500 2.336800
4.189200 2.369900
4.227900 2.366600
4.266500 2.392200
4.305200 2.444800
4.343900 2.347500
4.382600 2.277500
4.421200 2.191200
4.459900 2.156700
4.498600 2.127000
4.537300 2.130900
4.576000 2.124400
4.614600 2.135000
4.653300 2.131000
4.692000 2.140200
4.730700 2.143000
4.769300 2.147200
4.808000 2.159300
4.846700 2.141600
4.885400 2.105400
4.924000 2.161600
4.962700 2.141200
5.001400 2.164800
5.040100 2.187900
5.078700 2.224800
5.117400 2.265800
5.156100 2.292700
5.194800 2.337500
5.233500 2.277500
5.272100 2.283900
5.310800 2.318800
5.349500 2.354400
5.388200 2.339000
5.426800 2.281900
5.465500 2.254000
5.504200 2.234100
5.542900 2.206200
5.581500 2.177600
5.620200 2.161100
5.658900 2.147000
5.697600 2.110800
5.736200 2.089300
5.774900 2.104100
5.813600 2.122300
5.852300 2.144100
5.891000 2.177700
5.929600 2.219300
5.968300 2.264400
6.007000 2.269300
6.045700 2.343500
6.084300 2.211500
6.123000 2.120000
6.161700 1.928400
6.200400 1.760000
6.239000 1.644900
6.277700 1.530600
6.316400 1.404900
6.355100 1.271200
6.393700 1.171300
6.432400 1.093600
6.471100 1.049100
6.509800 1.023200
6.548500 1.005300
6.587100 0.984700
6.625800 0.964900
6.664500 0.948000
6.703200 0.938200
6.741800 0.932500
6.780500 0.939200
6.819200 0.940300
6.857900 1.024800
6.896500 0.935400
6.935200 0.848500
6.973900 0.733200
7.012600 0.714900
7.051200 0.708100
7.089900 0.701800
7.128600 0.702300
7.167300 0.701000
7.206000 0.697400
7.244600 0.682400
7.283300 0.673100
7.322000 0.666900
7.360700 0.664700
7.399300 0.662900
7.438000 0.658300
7.476700 0.654200
7.515400 0.650300
7.554000 0.646000
7.592700 0.643300
7.631400 0.640400
7.670100 0.637500
7.708800 0.634600
7.747400 0.630600
7.786100 0.625500
7.824800 0.623800
7.863500 0.621000
7.902100 0.617500
7.940800 0.612400
7.979500 0.607100
8.018200 0.612400
8.056800 0.616500
8.095500 0.616800
8.134200 0.613300
8.172900 0.614300
8.211500 0.615900
8.250200 0.618800
8.288900 0.622700
8.327600 0.625800
8.366300 0.626600
8.404900 0.625200
8.443600 0.620100
8.482300 0.617900
8.521000 0.629600
8.559600 0.621200
8.598300 0.634000
8.637000 0.639200
8.675700 0.639800
8.714300 0.641300
8.753000 0.649600
8.791700 0.670800
8.830400 0.769100
8.869000 0.837000
8.907700 0.832900
8.946400 0.830200
8.985100 0.918900
9.023800 1.063900
9.062400 1.099700
9.101100 1.107100
9.139800 1.107700
9.178500 1.098900
9.217100 1.076600
9.255800 1.054900
9.294500 1.029600
9.333200 0.996400
9.371800 0.810000
9.410500 0.547400
9.449200 0.479700
9.487900 0.432300
9.526500 0.394200
9.565200 0.360900
9.603900 0.340300
9.642600 0.317100
9.681300 0.277100
9.719900 0.246100
9.758600 0.217300
9.797300 0.190700
9.836000 0.166300
9.874600 0.143500
9.913300 0.121300
9.952000 0.099300
9.990700 0.079100
10.029300 0.060400
10.068000 0.041500
10.106700 0.029900
10.145400 0.000400
10.184000 0.000000
10.222700 0.000000
10.261400 0.000000
10.300100 0.000000
10.338800 0.000000
10.377400 0.000000
10.416100 0.000000
10.454800 0.000000
10.493500 0.000000
10.532100 0.000000
10.570800 0.000000
10.609500 0.000000
10.648200 0.000000
10.686800 0.000000
10.725500 0.000000
10.764200 0.000000
10.802900 0.000000
10.841500 0.000000
10.880200 0.000000
10.918900 0.000000
10.957600 0.000000
10.996300 0.000000
11.034900 0.000000
11.073600 0.000000
11.112300 0.000000
11.151000 0.000000
11.189600 0.000000
11.228300 0.000000
11.267000 0.000000
11.305700 0.000000
11.344300 0.000000
11.383000 0.000000
11.421700 0.000000
11.460400 0.000000
11.499000 0.000000
11.537700 0.000000
11.576400 0.000000
11.615100 0.000000
11.653800 0.000000
11.692400 0.000000
11.731100 0.000000
11.769800 0.000000
11.808500 0.000000
11.847100 0.000000
11.885800 0.000000
11.924500 0.000000
11.963200 0.000000
12.001800 0.000000
12.040500 0.000000
12.079200 0.000000
12.117900 0.000000
12.156600 0.000000
12.195200 0.000000
12.233900 0.000000
12.272600 0.000000
12.311300 0.000000
12.349900 0.000000
12.388600 0.000000
12.427300 0.000000
12.466000 0.000000
12.504600 0.000000
12.543300 0.000000
12.582000 0.000000
12.620700 0.000000
12.659300 0.000000
12.698000 0.000000
12.736700 0.000000
12.775400 0.000000
12.814100 0.000000
12.852700 0.000000
12.891400 0.000000
12.930100 0.000000
12.968800 0.000000
13.007400 0.002800
13.046100 0.027500
13.084800 0.074100
13.123500 0.134500
13.162100 0.198500
13.200800 0.229500
13.239500 0.238600
13.278200 0.252800
13.316800 0.262900
13.355500 0.282800
13.394200 0.309800
13.432900 0.321900
13.471600 0.330100
13.510200 0.350800
13.548900 0.382100
13.587600 0.415900
13.626300 0.456100
13.664900 0.503000
13.703600 0.534100
13.742300 0.547300
13.781000 0.573100
13.819600 0.561200
13.858300 0.566500
13.897000 0.590200
13.935700 0.630700
13.974300 0.678800
14.013000 0.732800
14.051700 0.790100
14.090400 0.857600
14.129100 0.876300
14.167700 0.874200
14.206400 0.897700
14.245100 0.984500
14.283800 1.033500
14.322400 1.119300
14.361100 1.275100
14.399800 1.221900
14.438500 1.172100
14.477100 1.145900
14.515800 1.137600
14.554500 1.137400
14.593200 1.140600
14.631800 1.137200
14.670500 1.144100
14.709200 1.152300
14.747900 1.162700
14.786600 1.181900
14.825200 1.197900
14.863900 1.256700
14.902600 1.247700
14.941300 1.279600
14.979900 1.321400
15.018600 1.363400
15.057300 1.363100
15.096000 1.378400
15.134600 1.387200
15.173300 1.408400
15.212000 1.434200
15.250700 1.461900
15.289300 1.490800
15.328000 1.518600
15.366700 1.560400
15.405400 1.586000
15.444100 1.602200
15.482700 1.624800
15.521400 1.658000
15.560100 1.694900
15.598800 1.739700
15.637400 1.795800
15.676100 1.847500
15.714800 1.901200
15.753500 1.986600
15.792100 2.049900
15.830800 2.104800
15.869500 2.175800
15.908200 2.213900
15.946800 2.254800
15.985500 2.154500
16.024200 2.138000
16.062900 2.178600
16.101600 2.272400
16.140200 2.263500
16.178900 2.471300
16.217600 2.422800
16.256300 2.332300
16.294900 2.284000
16.333600 2.209900
16.372300 2.173300
16.411000 2.215400
16.449600 2.322600
16.488300 2.411500
16.527000 2.506400
16.565700 2.572100
16.604400 2.646100
16.643000 2.769900
16.681700 2.918600
16.720400 3.067600
16.759100 3.133400
16.797700 2.978600
16.836400 2.954200
16.875100 2.736700
16.913800 2.586500
16.952400 2.568600
16.991100 2.635000
17.029800 2.844800
17.068500 2.512000
17.107100 2.512000
17.145800 2.556300
17.184500 2.575600
17.223200 2.576800
17.261900 2.575600
17.300500 2.530000
17.339200 2.488500
17.377900 2.622300
17.416600 2.844700
17.455200 3.040800
17.493900 2.672000
17.532600 2.464500
17.571300 2.392500
17.609900 2.404100
17.648600 2.491000
17.687300 2.485600
17.726000 2.510700
17.764600 2.514000
17.803300 2.635700
17.842000 2.604900
17.880700 2.478200
17.919400 2.463800
17.958000 2.533300
17.996700 2.613200
18.035400 2.670700
18.074100 2.647400
18.112700 2.488600
18.151400 2.434400
18.190100 2.375300
18.228800 2.348300
18.267400 2.340900
18.306100 2.344200
18.344800 2.364500
18.383500 2.427100
18.422100 2.371200
18.460800 2.395500
18.499500 2.464300
18.538200 2.532800
18.576900 2.533800
18.615500 2.579600
18.654200 2.528400
18.692900 2.414700
18.731600 2.405000
18.770200 2.391700
18.808900 2.311800
18.847600 2.294300
18.886300 2.266000
18.924900 2.243200
18.963600 2.196700
19.002300 2.229600
19.041000 2.203300
19.079600 2.128400
19.118300 2.101700
19.157000 2.069200
19.195700 2.047500
19.234400 2.077800
19.273000 2.166400
19.311700 2.262700
19.350400 2.286800
19.389100 2.219300
19.427700 2.205000
19.466400 2.160200
19.505100 2.173900
19.543800 2.214400
19.582400 2.233000
19.621100 2.259900
19.659800 2.299700
19.698500 2.267300
19.737100 2.170100
19.775800 2.140400
19.814500 2.114800
19.853200 2.141900
19.891900 2.181800
19.930500 2.234700
19.969200 2.252300
20.007900 2.224900
20.046600 2.156500
20.085200 2.054900
20.123900 2.001700
20.162600 1.884100
20.201300 1.830900
20.239900 1.842900
20.278600 1.816700
20.317300 1.766700
20.356000 1.710700
20.394600 1.700800
20.433300 1.699600
20.472000 1.685200
20.510700 1.635700
20.549400 1.657800
20.588000 1.752300
20.626700 1.831900
20.665400 1.937900
20.704100 2.053400
20.742700 2.154600
20.781400 2.262900
20.820100 2.337900
20.858800 2.463900
20.897400 2.729400
20.936100 2.973200
20.974800 2.869300
21.013500 2.623100
21.052200 2.327500
21.090800 2.130200
21.129500 2.185200
21.168200 2.113800
21.206900 2.076900
21.245500 2.124400
21.284200 2.253900
21.322900 2.273500
21.361600 2.275500
21.400200 2.409300
21.438900 2.439400
21.477600 2.382900
21.516300 2.280900
21.554900 2.210400
21.593600 2.133100
21.632300 2.065000
21.671000 2.002000
21.709700 1.953000
21.748300 1.892800
21.787000 1.834500
21.825700 1.788500
21.864400 1.746200
21.903000 1.703200
21.941700 1.680500
21.980400 1.678200
22.019100 1.678300
22.057700 1.752400
22.096400 1.746200
22.135100 1.780500
22.173800 1.901800
22.212400 2.090100
22.251100 2.193000
22.289800 2.239300
22.328500 2.359100
22.367200 2.340300
22.405800 2.387900
22.444500 2.479700
22.483200 2.668500
22.521900 2.764600
22.560500 2.727000
22.599200 2.655900
22.637900 2.805900
22.676600 3.047600
22.715200 2.954700
22.753900 2.945400
22.792600 2.903500
22.831300 2.712400
22.869900 2.391800
22.908600 2.244100
22.947300 2.171100
22.986000 2.179600
23.024700 2.256800
23.063300 2.291600
23.102000 2.324200
23.140700 2.301900
23.179400 2.275400
23.218000 2.346000
23.256700 2.463700
23.295400 2.581300
23.334100 2.727600
23.372700 2.888100
23.411400 2.944100
23.450100 2.925200
23.488800 2.752500
23.527400 2.571500
23.566100 2.359300
23.604800 2.212400
23.643500 1.930400
23.682200 1.788000
23.720800 1.761400
23.759500 1.746200
23.798200 1.730600
23.836900 1.729700
23.875500 1.743900
23.914200 1.776400
23.952900 1.827900
23.991600 1.879000
24.030200 1.938200
24.068900 1.957000
24.107600 1.993900
24.146300 2.171200
24.184900 2.293300
24.223600 2.407000
24.262300 2.255100
24.301000 2.088400
24.339700 2.141400
24.378300 2.305600
24.417000 2.418900
24.455700 2.377600
24.494400 2.306000
24.533000 2.388800
24.571700 2.174200
24.610400 2.040200
24.649100 1.953100
24.687700 1.823000
24.726400 1.668400
24.765100 1.633900
24.803800 1.639000
24.842500 1.671400
24.881100 1.600000
24.919800 1.479400
24.958500 1.226500
24.997200 1.041600
25.035800 0.917900
25.074500 0.822200
25.113200 0.727200
25.151900 0.674900
25.190500 0.632200
25.229200 0.598000
25.267900 0.601000
25.306600 0.627000
25.345200 0.671400
25.383900 0.693200
25.422600 0.541600
25.461300 0.517500
25.500000 0.705600
25.538600 0.512900
25.577300 0.398500
25.616000 0.270600
25.654700 0.205000
25.693300 0.144900
25.732000 0.146300
25.770700 0.147800
25.809400 0.149600
25.848000 0.155300
25.886700 0.162500
25.925400 0.170400
25.964100 0.178900
26.002700 0.188200
26.041400 0.198200
26.080100 0.209000
26.118800 0.220500
26.157500 0.233600
26.196100 0.247100
26.234800 0.262300
26.273500 0.280400
26.312200 0.298200
26.350800 0.317400
26.389500 0.338400
26.428200 0.361600
26.466900 0.403000
26.505500 0.468600
26.544200 0.523900
26.582900 0.573400
26.621600 0.624000
26.660200 0.670500
26.698900 0.717000
26.737600 0.764300
26.776300 0.823100
26.815000 0.901700
26.853600 0.970300
26.892300 1.029700
26.931000 1.084900
26.969700 1.145000
27.008300 1.196100
27.047000 1.251500
27.085700 1.294100
27.124400 1.332100
27.163000 1.311100
27.201700 1.243500
27.240400 1.198100
27.279100 1.181400
27.317700 1.176800
27.356400 1.171200
27.395100 1.154900
27.433800 1.141500
27.472500 1.118100
27.511100 1.059100
27.549800 1.035400
27.588500 1.016100
27.627200 0.995700
27.665800 0.981300
27.704500 0.974700
27.743200 0.974600
27.781900 0.979700
27.820500 0.990600
27.859200 0.994700
27.897900 0.987700
27.936600 0.979300
27.975200 0.982200
28.013900 0.988300
28.052600 0.990300
28.091300 0.987800
28.130000 0.988200
28.168600 0.987000
28.207300 0.988100
28.246000 0.992400
28.284700 1.002600
28.323300 1.030400
28.362000 1.058700
28.400700 1.071100
28.439400 1.084300
28.478000 1.126700
28.516700 1.203600
28.555400 1.370800
28.594100 1.530900
28.632700 1.695700
28.671400 1.869000
28.710100 1.838000
28.748800 1.783800
28.787500 1.757000
28.826100 1.794800
28.864800 1.895100
28.903500 2.251200
28.942200 2.265400
28.980800 2.304700
29.019500 2.377600
29.058200 2.484100
29.096900 2.423000
29.135500 2.331500
29.174200 2.299700
29.212900 2.386300
29.251600 2.529100
29.290300 2.684600
29.328900 2.668100
29.367600 2.634800
29.406300 3.075000
29.445000 2.134000
29.483600 2.214500
29.522300 2.304400
29.561000 2.531800
29.599700 2.754200
29.638300 3.086900
29.677000 3.099400
29.715700 3.005400
29.754400 2.813700
29.793000 2.438300
29.831700 2.437500
29.870400 2.635200
29.909100 2.516300
29.947800 2.365700
29.986400 2.336100
30.025100 2.277900
30.063800 2.317400
30.102500 2.308000
30.141100 2.327200
30.179800 2.252900
30.218500 2.186600
30.257200 2.143800
30.295800 2.133000
30.334500 2.128500
30.373200 2.113900
30.411900 2.103600
30.450500 2.128200
30.489200 2.174800
30.527900 2.273600
30.566600 2.332600
30.605300 2.591400
30.643900 2.523300
30.682600 2.623500
30.721300 2.661300
30.760000 2.694200
30.798600 2.756000
30.837300 2.644900
30.876000 2.662100
30.914700 2.772300
30.953300 2.581600
30.992000 2.401700
31.030700 2.238500
31.069400 2.024300
31.108000 1.873600
31.146700 1.861400
31.185400 1.923800
31.224100 2.003400
31.262800 2.063300
31.301400 2.164400
31.340100 2.711200
31.378800 2.471800
31.417500 2.522600
31.456100 2.719000
31.494800 3.327300
31.533500 3.115700
31.572200 2.946300
31.610800 2.535200
31.649500 1.948400
31.688200 1.901000
31.726900 1.935900
31.765500 1.980300
31.804200 2.052200
31.842900 2.099800
31.881600 2.301900
31.920300 2.349200
31.958900 2.337400
31.997600 2.260000
32.036300 2.237000
32.075000 2.261100
32.113600 2.245000
32.152300 2.241600
32.191000 2.260100
32.229700 2.305800
32.268300 2.394100
32.307000 2.602000
32.345700 2.739000
32.384400 2.712000
32.423000 2.650300
32.461700 2.646000
32.500400 2.594000
32.539100 2.560600
32.577800 2.304000
32.616400 2.259500
32.655100 2.347900
32.693800 2.443000
32.732500 2.639900
32.771100 2.755900
32.809800 2.533900
32.848500 1.851500
32.887200 1.238700
32.925800 1.039900
32.964500 1.020500
33.003200 1.024000
33.041900 1.018700
33.080500 1.110800
33.119200 1.136300
33.157900 1.119800
33.196600 1.126500
33.235300 1.159100
33.273900 1.169100
33.312600 1.157600
33.351300 1.401500
33.390000 1.594100
33.428600 1.482800
33.467300 1.418800
33.506000 1.386800
33.544700 1.344300
33.583300 1.220500
33.622000 1.174800
33.660700 1.174200
33.699400 1.190500
33.738100 1.197600
33.776700 1.217900
33.815400 1.238100
33.854100 1.314400
33.892800 1.374600
33.931400 1.519800
33.970100 1.529400
34.008800 1.509300
34.047500 1.498000
34.086100 1.519200
34.124800 1.509600
34.163500 1.497500
34.202200 1.507200
34.240800 1.534300
34.279500 1.545900
34.318200 1.606700
34.356900 1.476900
34.395600 1.440200
34.434200 1.439400
34.472900 1.449200
34.511600 1.465800
34.550300 1.484700
34.588900 1.505700
34.627600 1.515300
34.666300 1.495300
34.705000 1.477000
34.743600 1.456700
34.782300 1.446700
34.821000 1.448200
34.859700 1.458500
34.898300 1.468100
34.937000 1.479700
34.975700 1.684500
35.014400 1.805700
35.053100 1.756600
35.091700 1.656700
35.130400 1.586000
35.169100 1.496300
35.207800 1.474500
35.246400 1.456300
35.285100 1.451700
35.323800 1.459900
35.362500 1.485900
35.401100 1.496000
35.439800 1.513400
35.478500 1.516500
35.517200 1.519300
35.555800 1.516900
35.594500 1.453800
35.633200 1.433500
35.671900 1.415000
35.710600 1.398800
35.749200 1.381900
35.787900 1.365300
35.826600 1.349400
35.865300 1.335200
35.903900 1.324200
35.942600 1.314200
35.981300 1.306200
36.020000 1.300200
36.058600 1.304400
36.097300 1.300100
36.136000 1.297200
36.174700 1.295500
36.213300 1.298900
36.252000 1.318200
36.290700 1.318400
36.329400 1.328200
36.368100 1.363300
36.406700 1.447800
36.445400 1.483900
36.484100 1.475500
36.522800 1.471900
36.561400 1.478000
36.600100 1.481900
36.638800 1.487600
36.677500 1.491100
36.716100 1.490600
36.754800 1.489700
36.793500 1.492100
36.832200 1.475500
36.870800 1.456800
36.909500 1.436900
36.948200 1.422300
36.986900 1.410900
37.025600 1.395300
37.064200 1.411600
37.102900 1.329000
37.141600 1.308900
37.180300 1.293400
37.218900 1.281000
37.257600 1.273900
37.296300 1.269800
37.335000 1.258000
37.373600 1.275700
37.412300 1.263400
37.451000 1.251600
37.489700 1.253500
37.528300 1.192800
37.567000 1.164600
37.605700 1.133900
37.644400 1.116500
37.683100 1.099300
37.721700 1.089200
37.760400 1.083000
37.799100 1.075400
37.837800 1.072200
37.876400 1.073900
37.915100 1.073000
37.953800 1.073000
37.992500 1.074100
38.031100 1.077000
38.069800 1.084600
38.108500 1.099600
38.147200 1.116400
38.185900 1.137400
38.224500 1.156300
38.263200 1.199100
38.301900 1.189000
38.340600 1.188800
38.379200 1.189200
38.417900 1.196300
38.456600 1.206500
38.495300 1.218100
38.533900 1.211800
38.572600 1.225200
38.611300 1.224000
38.650000 1.216300
38.688600 1.215800
38.727300 1.217300
38.766000 1.216000
38.804700 1.211600
38.843400 1.206900
38.882000 1.207200
38.920700 1.201500
38.959400 1.185400
38.998100 1.190800
39.036700 1.189900
39.075400 1.194600
39.114100 1.202500
39.152800 1.188500
39.191400 1.187700
39.230100 1.182600
39.268800 1.176200
39.307500 1.171700
39.346100 1.171200
39.384800 1.213900
39.423500 1.197800
39.462200 1.209600
39.500900 1.211700
39.539500 1.235200
39.578200 1.257700
39.616900 1.267200
39.655600 1.317000
39.694200 1.301100
39.732900 1.284400
39.771600 1.277800
39.810300 1.276100
39.848900 1.255100
39.887600 1.235000
39.926300 1.227000
39.965000 1.207400
40.003600 1.234200
40.042300 1.283900
40.081000 1.319000
40.119700 1.368000
40.158400 1.408900
40.197000 1.418700
40.235700 1.432100
40.274400 1.448800
40.313100 1.474300
40.351700 1.529300
40.390400 1.517700
40.429100 1.539000
40.467800 1.541800
40.506400 1.534500
40.545100 1.533900
40.583800 1.654300
40.622500 1.693300
40.661100 1.660100
40.699800 1.640900
40.738500 1.613600
40.777200 1.598800
40.815900 1.515800
40.854500 1.435100
40.893200 1.355500
40.931900 1.326900
40.970600 1.283800
41.009200 1.256900
41.047900 1.239600
41.086600 1.225500
41.125300 1.218200
41.163900 1.229000
41.202600 1.219300
41.241300 1.244900
41.280000 1.259500
41.318600 1.259500
41.357300 1.241500
41.396000 1.218600
41.434700 1.208300
41.473400 1.197500
41.512000 1.160200
41.550700 1.154900
41.589400 1.168600
41.628100 1.164600
41.666700 1.141300
41.705400 1.142500
41.744100 1.143200
41.782800 1.142400
41.821400 1.140600
41.860100 1.103100
41.898800 1.088700
41.937500 1.087000
41.976100 1.080300
42.014800 1.102700
42.053500 1.068800
42.092200 1.013000
42.130900 0.994300
42.169500 0.982700
42.208200 0.988100
42.246900 0.976800
42.285600 0.963000
42.324200 0.943900
42.362900 0.936400
42.401600 0.924600
42.440300 0.915300
42.478900 0.916300
42.517600 0.914900
42.556300 0.885300
42.595000 0.861700
42.633700 0.836700
42.672300 0.839600
42.711000 0.842000
42.749700 0.810300
42.788400 0.783600
42.827000 0.776300
42.865700 0.778600
42.904400 0.792200
42.943100 0.807900
42.981700 0.820000
43.020400 0.834000
43.059100 0.847200
43.097800 0.865900
43.136400 0.906500
43.175100 0.971900
43.213800 1.035000
43.252500 1.046600
43.291200 1.074700
43.329800 1.107000
43.368500 1.140000
43.407200 1.165200
43.445900 1.201400
43.484500 1.237800
43.523200 1.268500
43.561900 1.315600
43.600600 1.463900
43.639200 1.376200
43.677900 1.336500
43.716600 1.328000
43.755300 1.329200
43.793900 1.332900
43.832600 1.338400
43.871300 1.337200
43.910000 1.345100
43.948700 1.352900
43.987300 1.362400
44.026000 1.375100
44.064700 1.416700
44.103400 1.465500
44.142000 1.481000
44.180700 1.464100
44.219400 1.444000
44.258100 1.432800
44.296700 1.437000
44.335400 1.430600
44.374100 1.436600
44.412800 1.453100
44.451400 1.469200
44.490100 1.487900
44.528800 1.506800
44.567500 1.499400
44.606200 1.473500
44.644800 1.452600
44.683500 1.452300
44.722200 1.439300
44.760900 1.437000
44.799500 1.441000
44.838200 1.436300
44.876900 1.449100
44.915600 1.459500
44.954200 1.463300
44.992900 1.478900
45.031600 1.499700
45.070300 1.518500
45.108900 1.538200
45.147600 1.555700
45.186300 1.569900
45.225000 1.597600
45.263700 1.604200
45.302300 1.611700
45.341000 1.619700
45.379700 1.641000
45.418400 1.662900
45.457000 1.559500
45.495700 1.489700
45.534400 1.476300
45.573100 1.475800
45.611700 1.486700
45.650400 1.486900
45.689100 1.489300
45.727800 1.477500
45.766400 1.477300
45.805100 1.482200
45.843800 1.487200
45.882500 1.493100
45.921200 1.540300
45.959800 1.565700
45.998500 1.589800
46.037200 1.615600
46.075900 1.660900
46.114500 1.665500
46.153200 1.681800
46.191900 1.707300
46.230600 1.767800
46.269200 1.827200
46.307900 1.889000
46.346600 1.958400
46.385300 2.022500
46.423900 2.126700
46.462600 2.102900
46.501300 2.074700
46.540000 2.153300
46.578700 2.234200
46.617300 2.264900
46.656000 2.280000
46.694700 2.282300
46.733400 2.274400
46.772000 2.358200
46.810700 2.143100
46.849400 2.009700
46.888100 1.934500
46.926700 1.892200
46.965400 1.849300
47.004100 1.891900
47.042800 1.828000
47.081500 1.778400
47.120100 1.747600
47.158800 1.714900
47.197500 1.690600
47.236200 1.677400
47.274800 1.752900
47.313500 1.781800
47.352200 1.822200
47.390900 1.871100
47.429500 1.899700
47.468200 1.934200
47.506900 1.989500
47.545600 2.042000
47.584200 2.067300
47.622900 2.093000
47.661600 2.162600
47.700300 2.204100
47.739000 2.303300
47.777600 2.321600
47.816300 2.370700
47.855000 2.413600
47.893700 2.491900
47.932300 2.535100
47.971000 2.740400
48.009700 2.778500
48.048400 2.664400
48.087000 2.685200
48.125700 2.489600
48.164400 2.464400
48.203100 2.454300
48.241700 2.441400
48.280400 2.419400
48.319100 2.441700
48.357800 2.508900
48.396500 2.539300
48.435100 2.546500
48.473800 2.562600
48.512500 2.573100
48.551200 2.563400
48.589800 2.581700
48.628500 2.500700
48.667200 2.486700
48.705900 2.482600
48.744500 2.507900
48.783200 2.522800
48.821900 2.510100
48.860600 2.478500
48.899200 2.415200
48.937900 2.390700
48.976600 2.371100
49.015300 2.369400
49.054000 2.412400
49.092600 2.560700
49.131300 2.572800
49.170000 2.539100
49.208700 2.455300
49.247300 2.391800
49.286000 2.343900
49.324700 2.322200
49.363400 2.308600
49.402000 2.328900
49.440700 2.395200
49.479400 2.413300
49.518100 2.454900
49.556700 2.483900
49.595400 2.458800
49.634100 2.444300
49.672800 2.465700
49.711500 2.481100
49.750100 2.509600
49.788800 2.525600
49.827500 2.564300
49.866200 2.500900
49.904800 2.456800
49.943500 2.458900
49.982200 2.461300
50.020900 2.505200
50.059500 2.549600
50.098200 2.576000
50.136900 2.481900
50.175600 2.407000
50.214200 2.326600
50.252900 2.241500
50.291600 2.169700
50.330300 2.150300
50.369000 2.152900
50.407600 2.190300
50.446300 2.218800
50.485000 2.175900
50.523700 2.158300
50.562300 2.176300
50.601000 2.245700
50.639700 2.289200
50.678400 2.253900
50.717000 2.269200
50.755700 2.143500
50.794400 2.075500
50.833100 2.042200
50.871700 2.024600
50.910400 2.017000
50.949100 2.005100
50.987800 2.063900
51.026500 2.175300
51.065100 2.260300
51.103800 2.234000
51.142500 2.285500
51.181200 2.229400
51.219800 2.205600
51.258500 2.217900
51.297200 2.272300
51.335900 2.280800
51.374500 2.311500
51.413200 2.407200
51.451900 2.534200
51.490600 2.661500
51.529300 2.555700
51.567900 2.458600
51.606600 2.448800
51.645300 2.500400
51.684000 2.297400
51.722600 2.179500
51.761300 2.129300
51.800000 2.113000
51.838700 2.149300
51.877300 2.177400
51.916000 2.220400
51.954700 2.265500
51.993400 2.312700
52.032000 2.337000
52.070700 2.317000
52.109400 2.144500
52.148100 2.066600
52.186800 2.031000
52.225400 2.051400
52.264100 2.183100
52.302800 2.271800
52.341500 2.351900
52.380100 2.415100
52.418800 2.420000
52.457500 2.418400
52.496200 2.417700
52.534800 2.338300
52.573500 2.239300
52.612200 2.142900
52.650900 2.017900
52.689500 1.931600
52.728200 1.881200
52.766900 1.770000
52.805600 1.659000
52.844300 1.655200
52.882900 1.755200
52.921600 1.877900
52.960300 1.849600
52.999000 1.826000
53.037600 1.794600
53.076300 1.759900
53.115000 1.712100
53.153700 1.667200
53.192300 1.601800
53.231000 1.503800
53.269700 1.403200
53.308400 1.352100
53.347000 1.296500
53.385700 1.248100
53.424400 1.240700
53.463100 1.242600
53.501800 1.178300
53.540400 1.139300
53.579100 1.111000
53.617800 1.081400
53.656500 1.069900
53.695100 1.070600
53.733800 1.057300
53.772500 1.037500
53.811200 1.020000
53.849800 0.972900
53.888500 0.983100
53.927200 0.919900
53.965900 0.894900
54.004500 0.899800
54.043200 0.900700
54.081900 0.893100
54.120600 0.901400
54.159300 0.883000
54.197900 0.872200
54.236600 0.859400
54.275300 0.822900
54.314000 0.818700
54.352600 0.806800
54.391300 0.795300
54.430000 0.802300
54.468700 0.815300
54.507300 0.842300
54.546000 0.861100
54.584700 0.894200
54.623400 0.807400
54.662000 0.765200
54.700700 0.781300
54.739400 0.783300
54.778100 0.774800
54.816800 0.765600
54.855400 0.761900
54.894100 0.737900
54.932800 0.739200
54.971500 0.680900
55.010100 0.623400
55.048800 0.602400
55.087500 0.608800
55.126200 0.611300
55.164800 0.608000
55.203500 0.597000
55.242200 0.581100
55.280900 0.558100
55.319500 0.550700
55.358200 0.591400
55.396900 0.821100
55.435600 0.615800
55.474300 0.574700
55.512900 0.517500
55.551600 0.441400
55.590300 0.370400
55.629000 0.323900
55.667600 0.310000
55.706300 0.295200
55.745000 0.277900
55.783700 0.259800
55.822300 0.243700
55.861000 0.228000
55.899700 0.214600
55.938400 0.204100
55.977100 0.194600
56.015700 0.185300
56.054400 0.176200
56.093100 0.168800
56.131800 0.163000
56.170400 0.157400
56.209100 0.152100
56.247800 0.147100
56.286500 0.142300
56.325100 0.138000
56.363800 0.134600
56.402500 0.131800
56.441200 0.129100
56.479800 0.126300
56.518500 0.122300
56.557200 0.118700
56.595900 0.115300
56.634600 0.112300
56.673200 0.109400
56.711900 0.106800
56.750600 0.104400
56.789300 0.102100
56.827900 0.099700
56.866600 0.097100
56.905300 0.094300
56.944000 0.091300
56.982600 0.088200
57.021300 0.084900
57.060000 0.081300
57.098700 0.077700
57.137300 0.073800
57.176000 0.069900
57.214700 0.066000
57.253400 0.062300
57.292100 0.059800
57.330700 0.057400
57.369400 0.055100
57.408100 0.052800
57.446800 0.050700
57.485400 0.048600
57.524100 0.046600
57.562800 0.044700
57.601500 0.043000
57.640100 0.042900
57.678800 0.043900
57.717500 0.041400
57.756200 0.038900
57.794800 0.036300
57.833500 0.033700
57.872200 0.031200
57.910900 0.028700
57.949600 0.026200
57.988200 0.023800
58.026900 0.021500
58.065600 0.019100
58.104300 0.016600
58.142900 0.013700
58.181600 0.010700
58.220300 0.007900
58.259000 0.005500
58.297600 0.003300
58.336300 0.001600
58.375000 0.000100
58.413700 0.000000
58.452300 0.000000
58.491000 0.000000
58.529700 0.000000
58.568400 0.000000
58.607100 0.000000
58.645700 0.000000
58.684400 0.000000
58.723100 0.000000
58.761800 0.000000
58.800400 0.000000
58.839100 0.000000
58.877800 0.000000
58.916500 0.000000
58.955100 0.000000
58.993800 0.000000
59.032500 0.000000
59.071200 0.000000
59.109800 0.000000
59.148500 0.000000
59.187200 0.000000
59.225900 0.000000
59.264600 0.000000
59.303200 0.000000
59.341900 0.000000
59.380600 0.000000
59.419300 0.000000
59.457900 0.000000
59.496600 0.000000
59.535300 0.000000
59.574000 0.000000
59.612600 0.000000
59.651300 0.000000
59.690000 0.000000
59.728700 0.000000
59.767300 0.000000
59.806000 0.000000
59.844700 0.000000
59.883400 0.000000
59.922100 0.000000
59.960700 0.000000
59.999400 0.000000
60.038100 0.000000
60.076800 0.000000
60.115400 0.000000
60.154100 0.000000
60.192800 0.000000
60.231500 0.000000
60.270100 0.000000
60.308800 0.000000
60.347500 0.000000
60.386200 0.000000
60.424900 0.000000
60.463500 0.000000
60.502200 0.000000
60.540900 0.000000
60.579600 0.000000
60.618200 0.000000
60.656900 0.000000
60.695600 0.000000
60.734300 0.000000
60.772900 0.000000
60.811600 0.000000
60.850300 0.000000
60.889000 0.000000
60.927600 0.000000
60.966300 0.000000
61.005000 0.000000
61.043700 0.000000
61.082400 0.000000
61.121000 0.000000
61.159700 0.000000
61.198400 0.000000
61.237100 0.000000
61.275700 0.000000
61.314400 0.000000
61.353100 0.000000
61.391800 0.000000
61.430400 0.000000
61.469100 0.000000
61.507800 0.000000
61.546500 0.000000
61.585100 0.000000
61.623800 0.000000
61.662500 0.000000
61.701200 0.000000
61.739900 0.000000
61.778500 0.000000
61.817200 0.000000
61.855900 0.000000
61.894600 0.000000
e
