set title 'mp-1056376 - Density of States'
set xlabel 'Energy (eV)'
set ylabel 'DOS (states/eV)'
set grid
set xrange [-10:10]
set yrange [0:2.730]
set xzeroaxis lt -1
set terminal png size 800,600
set output 'mp-1056376_dos_gnuplot.png'
plot '-' using 1:2 with lines title 'DOS'
-53.402700 0.000000
-53.306700 0.000000
-53.210600 0.000000
-53.114600 0.000000
-53.018500 0.000000
-52.922500 0.000000
-52.826500 0.000000
-52.730400 0.000000
-52.634400 0.000000
-52.538400 0.000000
-52.442300 0.000000
-52.346300 0.000000
-52.250200 0.000000
-52.154200 0.000000
-52.058200 0.000000
-51.962100 0.000000
-51.866100 0.000000
-51.770100 0.000000
-51.674000 0.000000
-51.578000 0.000000
-51.482000 0.000000
-51.385900 0.000000
-51.289900 0.000000
-51.193800 0.000000
-51.097800 0.000000
-51.001800 0.000000
-50.905700 0.000000
-50.809700 0.000000
-50.713700 0.000000
-50.617600 0.000000
-50.521600 0.000000
-50.425500 0.000000
-50.329500 0.000000
-50.233500 0.000000
-50.137400 0.000000
-50.041400 0.000000
-49.945400 0.000000
-49.849300 0.000000
-49.753300 0.000000
-49.657200 0.000000
-49.561200 0.000000
-49.465200 0.000000
-49.369100 0.000000
-49.273100 0.000000
-49.177100 0.000000
-49.081000 0.000000
-48.985000 0.000000
-48.888900 0.000000
-48.792900 0.000000
-48.696900 0.000000
-48.600800 0.000000
-48.504800 0.000000
-48.408800 0.000000
-48.312700 0.000000
-48.216700 0.000000
-48.120600 0.000000
-48.024600 0.000000
-47.928600 0.000000
-47.832500 0.000000
-47.736500 0.000000
-47.640500 0.000000
-47.544400 0.000000
-47.448400 0.000000
-47.352400 0.000000
-47.256300 0.000000
-47.160300 0.000000
-47.064200 0.000000
-46.968200 0.000000
-46.872200 0.000000
-46.776100 0.000000
-46.680100 0.000000
-46.584100 0.000000
-46.488000 0.000000
-46.392000 0.000000
-46.295900 0.000000
-46.199900 0.000000
-46.103900 0.000000
-46.007800 0.000000
-45.911800 0.000000
-45.815800 0.000000
-45.719700 0.000000
-45.623700 0.000000
-45.527600 0.000000
-45.431600 0.000000
-45.335600 0.000000
-45.239500 0.000000
-45.143500 0.000000
-45.047500 0.000000
-44.951400 0.000000
-44.855400 0.000000
-44.759300 0.000000
-44.663300 0.698200
-44.567300 5.075500
-44.471200 14.053800
-44.375200 3.055200
-44.279200 0.000000
-44.183100 0.000000
-44.087100 0.000000
-43.991100 0.000000
-43.895000 0.000000
-43.799000 0.000000
-43.702900 0.000000
-43.606900 0.000000
-43.510900 0.000000
-43.414800 0.000000
-43.318800 0.000000
-43.222800 0.000000
-43.126700 0.000000
-43.030700 0.000000
-42.934600 0.000000
-42.838600 0.000000
-42.742600 0.000000
-42.646500 0.000000
-42.550500 0.000000
-42.454500 0.000000
-42.358400 0.000000
-42.262400 0.000000
-42.166300 0.000000
-42.070300 0.000000
-41.974300 0.000000
-41.878200 0.000000
-41.782200 0.000000
-41.686200 0.000000
-41.590100 0.000000
-41.494100 0.000000
-41.398000 0.000000
-41.302000 0.000000
-41.206000 0.000000
-41.109900 0.000000
-41.013900 0.000000
-40.917900 0.000000
-40.821800 0.000000
-40.725800 0.000000
-40.629800 0.000000
-40.533700 0.000000
-40.437700 0.000000
-40.341600 0.000000
-40.245600 0.000000
-40.149600 0.000000
-40.053500 0.000000
-39.957500 0.000000
-39.861500 0.000000
-39.765400 0.000000
-39.669400 0.000000
-39.573300 0.000000
-39.477300 0.000000
-39.381300 0.000000
-39.285200 0.000000
-39.189200 0.000000
-39.093200 0.000000
-38.997100 0.000000
-38.901100 0.000000
-38.805000 0.000000
-38.709000 0.000000
-38.613000 0.000000
-38.516900 0.000000
-38.420900 0.000000
-38.324900 0.000000
-38.228800 0.000000
-38.132800 0.000000
-38.036700 0.000000
-37.940700 0.000000
-37.844700 0.000000
-37.748600 0.000000
-37.652600 0.000000
-37.556600 0.000000
-37.460500 0.000000
-37.364500 0.000000
-37.268500 0.000000
-37.172400 0.000000
-37.076400 0.000000
-36.980300 0.000000
-36.884300 0.000000
-36.788300 0.000000
-36.692200 0.000000
-36.596200 0.000000
-36.500200 0.000000
-36.404100 0.000000
-36.308100 0.000000
-36.212000 0.000000
-36.116000 0.000000
-36.020000 0.000000
-35.923900 0.000000
-35.827900 0.000000
-35.731900 0.000000
-35.635800 0.000000
-35.539800 0.000000
-35.443700 0.000000
-35.347700 0.000000
-35.251700 0.000000
-35.155600 0.000000
-35.059600 0.000000
-34.963600 0.000000
-34.867500 0.000000
-34.771500 0.000000
-34.675400 0.000000
-34.579400 0.000000
-34.483400 0.000000
-34.387300 0.000000
-34.291300 0.000000
-34.195300 0.000000
-34.099200 0.000000
-34.003200 0.000000
-33.907200 0.000000
-33.811100 0.000000
-33.715100 0.000000
-33.619000 0.000000
-33.523000 0.000000
-33.427000 0.000000
-33.330900 0.000000
-33.234900 0.000000
-33.138900 0.000000
-33.042800 0.000000
-32.946800 0.000000
-32.850700 0.000000
-32.754700 0.000000
-32.658700 0.000000
-32.562600 0.000000
-32.466600 0.000000
-32.370600 0.000000
-32.274500 0.000000
-32.178500 0.000000
-32.082400 0.000000
-31.986400 0.000000
-31.890400 0.000000
-31.794300 0.000000
-31.698300 0.000000
-31.602300 0.000000
-31.506200 0.000000
-31.410200 0.000000
-31.314100 0.000000
-31.218100 0.000000
-31.122100 0.000000
-31.026000 0.000000
-30.930000 0.000000
-30.834000 0.000000
-30.737900 0.000000
-30.641900 0.000000
-30.545800 0.000000
-30.449800 0.000000
-30.353800 0.000000
-30.257700 0.000000
-30.161700 0.000000
-30.065700 0.000000
-29.969600 0.000000
-29.873600 0.000000
-29.777600 0.000000
-29.681500 0.000000
-29.585500 0.000000
-29.489400 0.000000
-29.393400 0.000000
-29.297400 0.000000
-29.201300 0.000000
-29.105300 0.000000
-29.009300 0.000000
-28.913200 0.000000
-28.817200 0.000000
-28.721100 0.000000
-28.625100 0.000000
-28.529100 0.000000
-28.433000 0.000000
-28.337000 0.000000
-28.241000 0.000000
-28.144900 0.000000
-28.048900 0.000000
-27.952800 0.000000
-27.856800 0.000000
-27.760800 0.000000
-27.664700 0.000000
-27.568700 0.000000
-27.472700 0.000000
-27.376600 0.000000
-27.280600 0.000000
-27.184500 0.000000
-27.088500 0.000000
-26.992500 0.000000
-26.896400 0.000000
-26.800400 0.000000
-26.704400 0.000000
-26.608300 0.000000
-26.512300 0.000000
-26.416300 0.000000
-26.320200 0.000000
-26.224200 0.000000
-26.128100 0.000000
-26.032100 0.000000
-25.936100 0.000000
-25.840000 0.000000
-25.744000 0.000000
-25.648000 0.000000
-25.551900 0.000000
-25.455900 0.000000
-25.359800 0.000000
-25.263800 0.000000
-25.167800 0.000000
-25.071700 0.000000
-24.975700 0.000000
-24.879700 0.000000
-24.783600 0.000000
-24.687600 0.000000
-24.591500 0.000000
-24.495500 0.000000
-24.399500 0.000000
-24.303400 0.000000
-24.207400 0.000000
-24.111400 0.000000
-24.015300 0.000000
-23.919300 0.000000
-23.823200 0.000000
-23.727200 0.000000
-23.631200 0.000000
-23.535100 0.000000
-23.439100 0.000000
-23.343100 1.092300
-23.247000 3.143400
-23.151000 5.423900
-23.055000 6.040600
-22.958900 5.088900
-22.862900 3.803800
-22.766800 3.700200
-22.670800 3.869900
-22.574800 4.621500
-22.478700 5.491300
-22.382700 8.021300
-22.286700 8.032500
-22.190600 3.471000
-22.094600 2.085000
-21.998500 0.000000
-21.902500 0.000000
-21.806500 0.000000
-21.710400 0.000000
-21.614400 0.000000
-21.518400 0.000000
-21.422300 0.000000
-21.326300 0.000000
-21.230200 0.000000
-21.134200 0.000000
-21.038200 0.000000
-20.942100 0.000000
-20.846100 0.000000
-20.750100 0.000000
-20.654000 0.000000
-20.558000 0.000000
-20.461900 0.000000
-20.365900 0.000000
-20.269900 0.000000
-20.173800 0.000000
-20.077800 0.000000
-19.981800 0.000000
-19.885700 0.000000
-19.789700 0.000000
-19.693700 0.000000
-19.597600 0.000000
-19.501600 0.000000
-19.405500 0.000000
-19.309500 0.000000
-19.213500 0.000000
-19.117400 0.000000
-19.021400 0.000000
-18.925400 0.000000
-18.829300 0.000000
-18.733300 0.000000
-18.637200 0.000000
-18.541200 0.000000
-18.445200 0.000000
-18.349100 0.000000
-18.253100 0.000000
-18.157100 0.000000
-18.061000 0.000000
-17.965000 0.000000
-17.868900 0.000000
-17.772900 0.000000
-17.676900 0.000000
-17.580800 0.000000
-17.484800 0.000000
-17.388800 0.000000
-17.292700 0.000000
-17.196700 0.000000
-17.100600 0.000000
-17.004600 0.000000
-16.908600 0.000000
-16.812500 0.000000
-16.716500 0.000000
-16.620500 0.000000
-16.524400 0.000000
-16.428400 0.000000
-16.332400 0.000000
-16.236300 0.000000
-16.140300 0.000000
-16.044200 0.000000
-15.948200 0.000000
-15.852200 0.000000
-15.756100 0.000000
-15.660100 0.000000
-15.564100 0.000000
-15.468000 0.000000
-15.372000 0.000000
-15.275900 0.000000
-15.179900 0.000000
-15.083900 0.000000
-14.987800 0.000000
-14.891800 0.000000
-14.795800 0.000000
-14.699700 0.000000
-14.603700 0.000000
-14.507600 0.000000
-14.411600 0.000000
-14.315600 0.000000
-14.219500 0.000000
-14.123500 0.000000
-14.027500 0.000000
-13.931400 0.000000
-13.835400 0.000000
-13.739300 0.000000
-13.643300 0.000000
-13.547300 0.000000
-13.451200 0.000000
-13.355200 0.000000
-13.259200 0.000000
-13.163100 0.000000
-13.067100 0.000000
-12.971100 0.000000
-12.875000 0.000000
-12.779000 0.000000
-12.682900 0.000000
-12.586900 0.000000
-12.490900 0.000000
-12.394800 0.000000
-12.298800 0.000000
-12.202800 0.000000
-12.106700 0.000000
-12.010700 0.000000
-11.914600 0.000000
-11.818600 0.000000
-11.722600 0.000000
-11.626500 0.000000
-11.530500 0.000000
-11.434500 0.000000
-11.338400 0.000000
-11.242400 0.000000
-11.146300 0.000000
-11.050300 0.000000
-10.954300 0.000000
-10.858200 0.000000
-10.762200 0.000000
-10.666200 0.000000
-10.570100 0.000000
-10.474100 0.000000
-10.378000 0.000000
-10.282000 0.000000
-10.186000 0.000000
-10.089900 0.000000
-9.993900 0.000000
-9.897900 0.000000
-9.801800 0.000000
-9.705800 0.000000
-9.609700 0.000000
-9.513700 0.000000
-9.417700 0.000000
-9.321600 0.000000
-9.225600 0.000000
-9.129600 0.000000
-9.033500 0.000000
-8.937500 0.000000
-8.841500 0.000000
-8.745400 0.000000
-8.649400 0.000000
-8.553300 0.000000
-8.457300 0.000000
-8.361300 0.000000
-8.265200 0.000000
-8.169200 0.000000
-8.073200 0.000000
-7.977100 0.000000
-7.881100 0.000000
-7.785000 0.000000
-7.689000 0.000000
-7.593000 0.000000
-7.496900 0.000000
-7.400900 0.000000
-7.304900 0.000000
-7.208800 0.000000
-7.112800 0.000000
-7.016700 0.000000
-6.920700 0.000000
-6.824700 0.000000
-6.728600 0.000000
-6.632600 0.000000
-6.536600 0.000000
-6.440500 0.000000
-6.344500 0.000000
-6.248400 0.000000
-6.152400 0.000000
-6.056400 0.000000
-5.960300 0.000000
-5.864300 0.000000
-5.768300 0.000000
-5.672200 0.000000
-5.576200 0.000000
-5.480200 0.000000
-5.384100 0.000000
-5.288100 0.000000
-5.192000 0.000000
-5.096000 0.000000
-5.000000 0.000000
-4.903900 0.000000
-4.807900 0.000000
-4.711900 0.000000
-4.615800 0.000000
-4.519800 0.000000
-4.423700 0.000000
-4.327700 0.000000
-4.231700 0.000000
-4.135600 0.000000
-4.039600 0.000000
-3.943600 0.000000
-3.847500 0.000000
-3.751500 0.000000
-3.655400 0.000000
-3.559400 0.000000
-3.463400 0.000000
-3.367300 0.000000
-3.271300 0.000000
-3.175300 0.000000
-3.079200 0.000000
-2.983200 0.000000
-2.887100 0.000000
-2.791100 0.000000
-2.695100 0.000000
-2.599000 0.000000
-2.503000 0.000000
-2.407000 0.000000
-2.310900 0.000000
-2.214900 0.000000
-2.118900 0.000000
-2.022800 0.000000
-1.926800 0.000000
-1.830700 0.000000
-1.734700 0.000000
-1.638700 0.000000
-1.542600 0.000000
-1.446600 0.000000
-1.350600 0.000000
-1.254500 0.006900
-1.158500 0.033500
-1.062400 0.041600
-0.966400 0.055500
-0.870400 0.063200
-0.774300 0.071200
-0.678300 0.080600
-0.582300 0.090000
-0.486200 0.097900
-0.390200 0.106100
-0.294100 0.114700
-0.198100 0.124300
-0.102100 0.134000
-0.006000 0.143700
0.090000 0.153500
0.186000 0.164600
0.282100 0.176600
0.378100 0.189600
0.474200 0.203400
0.570200 0.218600
0.666200 0.236300
0.762300 0.257400
0.858300 0.282400
0.954300 0.312600
1.050400 0.349200
1.146400 0.583600
1.242400 0.853000
1.338500 0.955900
1.434500 1.073700
1.530600 1.213800
1.626600 1.406700
1.722600 1.941800
1.818700 1.823700
1.914700 1.653100
2.010700 1.157300
2.106800 1.027100
2.202800 0.969400
2.298900 1.035100
2.394900 0.921800
2.490900 0.877300
2.587000 0.905100
2.683000 0.954700
2.779000 1.175400
2.875100 1.663700
2.971100 1.985700
3.067200 2.336000
3.163200 2.457500
3.259200 2.481400
3.355300 1.881700
3.451300 1.610000
3.547300 1.636600
3.643400 0.952000
3.739400 0.502000
3.835500 0.406500
3.931500 0.417700
4.027500 0.597800
4.123600 0.964800
4.219600 1.112300
4.315600 1.254500
4.411700 1.331900
4.507700 1.447400
4.603700 1.432500
4.699800 1.306500
4.795800 1.272900
4.891900 1.287700
4.987900 1.150000
5.083900 1.005300
5.180000 0.955900
5.276000 1.006800
5.372000 0.869800
5.468100 0.730500
5.564100 0.705100
5.660200 1.035800
5.756200 0.969300
5.852200 1.240500
5.948300 1.419700
6.044300 1.602900
6.140300 1.822600
6.236400 2.240200
6.332400 2.112400
6.428500 1.948100
6.524500 1.904200
6.620500 1.850300
6.716600 1.600400
6.812600 1.315200
6.908600 1.031300
7.004700 1.281300
7.100700 1.597300
7.196800 1.544000
7.292800 1.358900
7.388800 1.360100
7.484900 1.712300
7.580900 1.575800
7.676900 1.363000
7.773000 1.316500
7.869000 1.296000
7.965000 1.210700
8.061100 1.182800
8.157100 1.183700
8.253200 1.183000
8.349200 1.044400
8.445200 1.073000
8.541300 1.132500
8.637300 1.001500
8.733300 0.972700
8.829400 0.931800
8.925400 0.851600
9.021500 0.814400
9.117500 0.747300
9.213500 0.674200
9.309600 0.590700
9.405600 0.519100
9.501600 0.502200
9.597700 0.483200
9.693700 0.456500
9.789800 0.461700
9.885800 0.470000
9.981800 0.523500
10.077900 0.588600
10.173900 0.600500
10.269900 0.483000
10.366000 0.466500
10.462000 0.430200
10.558100 0.405500
10.654100 0.390900
10.750100 0.378200
10.846200 0.363000
10.942200 0.338100
11.038200 0.336200
11.134300 0.333000
11.230300 0.329500
11.326400 0.324500
11.422400 0.332600
11.518400 0.318900
11.614500 0.314600
11.710500 0.324900
11.806500 0.326700
11.902600 0.336300
11.998600 0.385400
12.094600 0.659800
12.190700 1.036300
12.286700 0.784600
12.382800 0.798000
12.478800 0.743000
12.574800 0.584700
12.670900 0.472800
12.766900 0.465100
12.862900 0.479100
12.959000 0.511600
13.055000 0.549500
13.151100 0.580000
13.247100 0.607600
13.343100 0.624600
13.439200 0.635200
13.535200 0.660600
13.631200 0.675300
13.727300 0.694000
13.823300 0.746700
13.919400 0.683800
14.015400 0.643900
14.111400 0.615500
14.207500 0.599100
14.303500 0.566100
14.399500 0.536300
14.495600 0.510700
14.591600 0.491600
14.687700 0.476200
14.783700 0.462600
14.879700 0.451200
14.975800 0.442000
15.071800 0.433600
15.167800 0.426400
15.263900 0.422000
15.359900 0.419000
15.455900 0.416000
15.552000 0.414700
15.648000 0.414500
15.744100 0.415700
15.840100 0.419900
15.936100 0.427300
16.032200 0.438000
16.128200 0.454700
16.224200 0.472100
16.320300 0.492600
16.416300 0.508700
16.512400 0.530400
16.608400 0.760100
16.704400 1.029400
16.800500 1.203400
16.896500 1.189100
16.992500 1.148200
17.088600 1.152400
17.184600 1.245700
17.280700 1.325100
17.376700 1.597600
17.472700 1.152000
17.568800 1.111400
17.664800 1.011100
17.760800 0.896300
17.856900 0.941900
17.952900 0.953600
18.049000 1.114800
18.145000 1.032800
18.241000 1.079700
18.337100 1.101100
18.433100 1.202200
18.529100 1.295600
18.625200 1.524600
18.721200 0.926500
18.817200 0.864100
18.913300 0.829800
19.009300 0.830700
19.105400 0.838200
19.201400 0.803100
19.297400 0.777800
19.393500 0.780200
19.489500 0.796000
19.585500 0.828300
19.681600 0.802700
19.777600 0.759900
19.873700 0.753300
19.969700 0.754100
20.065700 0.750100
20.161800 0.762200
20.257800 0.753700
20.353800 0.758000
20.449900 0.767100
20.545900 0.797400
20.642000 0.840700
20.738000 0.887000
20.834000 0.959600
20.930100 1.009100
21.026100 1.040400
21.122100 1.041300
21.218200 1.164900
21.314200 1.052900
21.410300 0.862100
21.506300 0.810200
21.602300 0.821700
21.698400 1.007400
21.794400 0.997200
21.890400 1.014000
21.986500 1.047100
22.082500 1.055100
22.178500 1.039300
22.274600 1.137800
22.370600 1.010300
22.466700 1.047400
22.562700 0.910200
22.658700 0.782900
22.754800 0.761200
22.850800 0.766900
22.946800 0.785300
23.042900 0.830000
23.138900 0.876800
23.235000 0.922700
23.331000 1.045200
23.427000 1.153200
23.523100 0.927800
23.619100 0.885700
23.715100 0.879100
23.811200 0.915200
23.907200 0.842800
24.003300 0.714900
24.099300 0.638700
24.195300 0.591400
24.291400 0.601700
24.387400 0.573400
24.483400 0.522500
24.579500 0.513500
24.675500 0.554100
24.771600 0.603900
24.867600 0.589600
24.963600 0.569900
25.059700 0.522700
25.155700 0.494900
25.251700 0.530300
25.347800 0.584000
25.443800 0.657400
25.539800 0.719800
25.635900 0.777500
25.731900 0.853900
25.828000 0.917300
25.924000 0.939600
26.020000 1.014000
26.116100 1.102500
26.212100 1.120200
26.308100 1.136000
26.404200 1.260100
26.500200 1.377300
26.596300 1.465100
26.692300 1.318100
26.788300 1.203600
26.884400 1.022600
26.980400 0.953100
27.076400 1.018200
27.172500 1.033200
27.268500 0.950800
27.364600 0.933300
27.460600 0.969100
27.556600 1.037500
27.652700 1.055600
27.748700 1.065200
27.844700 1.046900
27.940800 1.015400
28.036800 1.018100
28.132900 1.004100
28.228900 0.972500
28.324900 0.881200
28.421000 0.835900
28.517000 0.795600
28.613000 0.739100
28.709100 0.671000
28.805100 0.607800
28.901200 0.599300
28.997200 0.608800
29.093200 0.618100
29.189300 0.627900
29.285300 0.640100
29.381300 0.695000
29.477400 0.798900
29.573400 0.840200
29.669400 0.879100
29.765500 0.955500
29.861500 1.109100
29.957600 1.071000
30.053600 1.137400
30.149600 1.193000
30.245700 1.180600
30.341700 1.300600
30.437700 1.330200
30.533800 1.207500
30.629800 1.239500
30.725900 1.085100
30.821900 0.955300
30.917900 0.887700
31.014000 0.857700
31.110000 0.877400
31.206000 0.991600
31.302100 1.124500
31.398100 1.220600
31.494200 1.249000
31.590200 1.276300
31.686200 1.327700
31.782300 1.288300
31.878300 1.181200
31.974300 1.008600
32.070400 0.939200
32.166400 0.890200
32.262500 0.942900
32.358500 0.967900
32.454500 1.039300
32.550600 1.052100
32.646600 1.097300
32.742600 1.191000
32.838700 1.182200
32.934700 1.172900
33.030700 1.105400
33.126800 1.089300
33.222800 1.119700
33.318900 1.115600
33.414900 1.125100
33.510900 1.082600
33.607000 1.012600
33.703000 0.972900
33.799000 0.936800
33.895100 0.947300
33.991100 0.929000
34.087200 0.934800
34.183200 0.917900
34.279200 0.841300
34.375300 0.808700
34.471300 0.808400
34.567300 0.740600
34.663400 0.698500
34.759400 0.728900
34.855500 0.742000
34.951500 0.727800
35.047500 0.762000
35.143600 0.884100
35.239600 0.987200
35.335600 1.062400
35.431700 1.056100
35.527700 1.008500
35.623800 0.971200
35.719800 0.944600
35.815800 0.889000
35.911900 0.821000
36.007900 0.820900
36.103900 0.818000
36.200000 0.905900
36.296000 1.012200
36.392000 0.990000
36.488100 1.088200
36.584100 1.229900
36.680200 1.430000
36.776200 1.685400
36.872200 1.765700
36.968300 1.518100
37.064300 1.275300
37.160300 1.165800
37.256400 1.096600
37.352400 1.172800
37.448500 1.100100
37.544500 1.015700
37.640500 1.025800
37.736600 1.132000
37.832600 1.204000
37.928600 1.172500
38.024700 1.220700
38.120700 1.350900
38.216800 1.316800
38.312800 1.260500
38.408800 1.195900
38.504900 1.169900
38.600900 1.185800
38.696900 1.204300
38.793000 1.183700
38.889000 1.171800
38.985100 1.077600
39.081100 0.969300
39.177100 0.952400
39.273200 0.979900
39.369200 0.971000
39.465200 0.959000
39.561300 1.043100
39.657300 1.058500
39.753300 1.088400
39.849400 1.159900
39.945400 1.243600
40.041500 1.248600
40.137500 1.198500
40.233500 1.111100
40.329600 1.069400
40.425600 1.073200
40.521600 1.093800
40.617700 1.112900
40.713700 1.011000
40.809800 0.941900
40.905800 0.924800
41.001800 0.923700
41.097900 0.958900
41.193900 0.917100
41.289900 0.871200
41.386000 0.937500
41.482000 0.950800
41.578100 0.976600
41.674100 1.014800
41.770100 1.039200
41.866200 1.051700
41.962200 0.955400
42.058200 0.981700
42.154300 1.092300
42.250300 1.090200
42.346400 1.024700
42.442400 1.005100
42.538400 0.991000
42.634500 0.993600
42.730500 0.997400
42.826500 1.041400
42.922600 1.138000
43.018600 1.139200
43.114600 1.217700
43.210700 1.237300
43.306700 1.300300
43.402800 1.301300
43.498800 1.282700
43.594800 1.236700
43.690900 1.257200
43.786900 1.197500
43.882900 1.193800
43.979000 1.215400
44.075000 1.238500
44.171100 1.257100
44.267100 1.244900
44.363100 1.206300
44.459200 1.211500
44.555200 1.328300
44.651200 1.354000
44.747300 1.333400
44.843300 1.355800
44.939400 1.356500
45.035400 1.346800
45.131400 1.340000
45.227500 1.317900
45.323500 1.240700
45.419500 1.197400
45.515600 1.232400
45.611600 1.224700
45.707700 1.276000
45.803700 1.300000
45.899700 1.232900
45.995800 1.161700
46.091800 0.995100
46.187800 0.888500
46.283900 0.792400
46.379900 0.725500
46.475900 0.704400
46.572000 0.770800
46.668000 0.922800
46.764100 1.074200
46.860100 1.203500
46.956100 1.287700
47.052200 1.363200
47.148200 1.368800
47.244200 1.401400
47.340300 1.293500
47.436300 1.223900
47.532400 1.090900
47.628400 1.055100
47.724400 1.015600
47.820500 1.024700
47.916500 1.073100
48.012500 1.149500
48.108600 1.221200
48.204600 1.286300
48.300700 1.329900
48.396700 1.335100
48.492700 1.222700
48.588800 1.201900
48.684800 1.205400
48.780800 1.155200
48.876900 1.116800
48.972900 1.134400
49.069000 1.100100
49.165000 1.187500
49.261000 1.300500
49.357100 1.455900
49.453100 1.512500
49.549100 1.582700
49.645200 1.633900
49.741200 1.729900
49.837300 1.710000
49.933300 1.614300
50.029300 1.618700
50.125400 1.471200
50.221400 1.346100
50.317400 1.295800
50.413500 1.265800
50.509500 1.293300
50.605500 1.321100
50.701600 1.347300
50.797600 1.294200
50.893700 1.269900
50.989700 1.263800
51.085700 1.250700
51.181800 1.296400
51.277800 1.242200
51.373800 1.301800
51.469900 1.333800
51.565900 1.326300
51.662000 1.298200
51.758000 1.278700
51.854000 1.203400
51.950100 1.121200
52.046100 1.055100
52.142100 1.036400
52.238200 1.063500
52.334200 1.056000
52.430300 0.999700
52.526300 1.007600
52.622300 1.014900
52.718400 1.044400
52.814400 1.116800
52.910400 1.190800
53.006500 1.234900
53.102500 1.250100
53.198600 1.246800
53.294600 1.272700
53.390600 1.258800
53.486700 1.233800
53.582700 1.238000
53.678700 1.285300
53.774800 1.315400
53.870800 1.261700
53.966800 1.250000
54.062900 1.259300
54.158900 1.248000
54.255000 1.198000
54.351000 1.184100
54.447000 1.182100
54.543100 1.198600
54.639100 1.223400
54.735100 1.221500
54.831200 1.187200
54.927200 1.186200
55.023300 1.216500
55.119300 1.280300
55.215300 1.395600
55.311400 1.413200
55.407400 1.345300
55.503400 1.335000
55.599500 1.388500
55.695500 1.463300
55.791600 1.440200
55.887600 1.406900
55.983600 1.462700
56.079700 1.421900
56.175700 1.394600
56.271700 1.290600
56.367800 1.181600
56.463800 1.103400
56.559900 1.056200
56.655900 1.062700
56.751900 1.213100
56.848000 1.220500
56.944000 1.186200
57.040000 1.183800
57.136100 1.157900
57.232100 1.171200
57.328100 1.178600
57.424200 1.245800
57.520200 1.288500
57.616300 1.324600
57.712300 1.349500
57.808300 1.379200
57.904400 1.414700
58.000400 1.459200
58.096400 1.521900
58.192500 1.533700
58.288500 1.525100
58.384600 1.468000
58.480600 1.398900
58.576600 1.307400
58.672700 1.216300
58.768700 1.157200
58.864700 1.169900
58.960800 1.153300
59.056800 1.142600
59.152900 1.090900
59.248900 1.085500
59.344900 1.144000
59.441000 1.276000
59.537000 1.336900
59.633000 1.351800
59.729100 1.398500
59.825100 1.461100
59.921200 1.537300
60.017200 1.508200
60.113200 1.461400
60.209300 1.392100
60.305300 1.319000
60.401300 1.251500
60.497400 1.196200
60.593400 1.175500
60.689400 1.186400
60.785500 1.210500
60.881500 1.214900
60.977600 1.237300
61.073600 1.274200
61.169600 1.310800
61.265700 1.365100
61.361700 1.440500
61.457700 1.394800
61.553800 1.306300
61.649800 1.288000
61.745900 1.205500
61.841900 1.157500
61.937900 1.119400
62.034000 1.101200
62.130000 1.130100
62.226000 1.172700
62.322100 1.216100
62.418100 1.217900
62.514200 1.250400
62.610200 1.290800
62.706200 1.410200
62.802300 1.488500
62.898300 1.478000
62.994300 1.488600
63.090400 1.471600
63.186400 1.489700
63.282500 1.490800
63.378500 1.491500
63.474500 1.512100
63.570600 1.574000
63.666600 1.559700
63.762600 1.503500
63.858700 1.422100
63.954700 1.327800
64.050700 1.350200
64.146800 1.375200
64.242800 1.327800
64.338900 1.314600
64.434900 1.319300
64.530900 1.358300
64.627000 1.350000
64.723000 1.326100
64.819000 1.358600
64.915100 1.339200
65.011100 1.364500
65.107200 1.394100
65.203200 1.442300
65.299200 1.422700
65.395300 1.356100
65.491300 1.346100
65.587300 1.391400
65.683400 1.395400
65.779400 1.387400
65.875500 1.358100
65.971500 1.362500
66.067500 1.379800
66.163600 1.427800
66.259600 1.520200
66.355600 1.593000
66.451700 1.625400
66.547700 1.575900
66.643800 1.430700
66.739800 1.527100
66.835800 1.604200
66.931900 1.670800
67.027900 1.604300
67.123900 1.615900
67.220000 1.538400
67.316000 1.487100
67.412000 1.408300
67.508100 1.354900
67.604100 1.299300
67.700200 1.281500
67.796200 1.295400
67.892200 1.312600
67.988300 1.365100
68.084300 1.424500
68.180300 1.449200
68.276400 1.435400
68.372400 1.396100
68.468500 1.337400
68.564500 1.306500
68.660500 1.288700
68.756600 1.343500
68.852600 1.464900
68.948600 1.487800
69.044700 1.551000
69.140700 1.656400
69.236800 1.675100
69.332800 1.690600
69.428800 1.607600
69.524900 1.494700
69.620900 1.388700
69.716900 1.304700
69.813000 1.224200
69.909000 1.198800
70.005100 1.219500
70.101100 1.241400
70.197100 1.327400
70.293200 1.391800
70.389200 1.356400
70.485200 1.352100
70.581300 1.385800
70.677300 1.452000
70.773400 1.549700
70.869400 1.548600
70.965400 1.597900
71.061500 1.574600
71.157500 1.453300
71.253500 1.356600
71.349600 1.306200
71.445600 1.265500
71.541600 1.257500
71.637700 1.194800
71.733700 1.169700
71.829800 1.161300
71.925800 1.163700
72.021800 1.187200
72.117900 1.220800
72.213900 1.271600
72.309900 1.340900
72.406000 1.415500
72.502000 1.473500
72.598100 1.518200
72.694100 1.509200
72.790100 1.437900
72.886200 1.435400
72.982200 1.453800
73.078200 1.406100
73.174300 1.381400
73.270300 1.369600
73.366400 1.417900
73.462400 1.514100
73.558400 1.473800
73.654500 1.485400
73.750500 1.573900
73.846500 1.566800
73.942600 1.448700
74.038600 1.402700
74.134700 1.392300
74.230700 1.399200
74.326700 1.413900
74.422800 1.452100
74.518800 1.524800
74.614800 1.465700
74.710900 1.447200
74.806900 1.371500
74.902900 1.381400
74.999000 1.461700
75.095000 1.536300
75.191100 1.589300
75.287100 1.618300
75.383100 1.609500
75.479200 1.561000
75.575200 1.453800
75.671200 1.423200
75.767300 1.436100
75.863300 1.449500
75.959400 1.497000
76.055400 1.488000
76.151400 1.488600
76.247500 1.486500
76.343500 1.444800
76.439500 1.412700
76.535600 1.457000
76.631600 1.468700
76.727700 1.480500
76.823700 1.548300
76.919700 1.560200
77.015800 1.575000
77.111800 1.557900
77.207800 1.525100
77.303900 1.425000
77.399900 1.416200
77.496000 1.378200
77.592000 1.372300
77.688000 1.334600
77.784100 1.306800
77.880100 1.307900
77.976100 1.321600
78.072200 1.349100
78.168200 1.436600
78.264200 1.517600
78.360300 1.464100
78.456300 1.477700
78.552400 1.575700
78.648400 1.610000
78.744400 1.525200
78.840500 1.450000
78.936500 1.429400
79.032500 1.436200
79.128600 1.485300
79.224600 1.515900
79.320700 1.535500
79.416700 1.586100
79.512700 1.626600
79.608800 1.688600
79.704800 1.651300
79.800800 1.630200
79.896900 1.580900
79.992900 1.505600
80.089000 1.479400
80.185000 1.498900
80.281000 1.510200
80.377100 1.504200
80.473100 1.525700
80.569100 1.563200
80.665200 1.615100
80.761200 1.611700
80.857300 1.599100
80.953300 1.573600
81.049300 1.616700
81.145400 1.646700
81.241400 1.539300
81.337400 1.476600
81.433500 1.444400
81.529500 1.471100
81.625500 1.458500
81.721600 1.408600
81.817600 1.521400
81.913700 1.453400
82.009700 1.501900
82.105700 1.479600
82.201800 1.353200
82.297800 1.436400
82.393800 1.485100
82.489900 1.505500
82.585900 1.512900
82.682000 1.503800
82.778000 1.491400
82.874000 1.463900
82.970100 1.468500
83.066100 1.480200
83.162100 1.475200
83.258200 1.482600
83.354200 1.494200
83.450300 1.517400
83.546300 1.525600
83.642300 1.546900
83.738400 1.542200
83.834400 1.526100
83.930400 1.472900
84.026500 1.476000
84.122500 1.462000
84.218600 1.459300
84.314600 1.567700
84.410600 1.547900
84.506700 1.549800
84.602700 1.573200
84.698700 1.569900
84.794800 1.556800
84.890800 1.522300
84.986800 1.467900
85.082900 1.418700
85.178900 1.433200
85.275000 1.463400
85.371000 1.404500
85.467000 1.392000
85.563100 1.399200
85.659100 1.420500
85.755100 1.447400
85.851200 1.487300
85.947200 1.444900
86.043300 1.453500
86.139300 1.457200
86.235300 1.461200
86.331400 1.508500
86.427400 1.597200
86.523400 1.520200
86.619500 1.523600
86.715500 1.539900
86.811600 1.600900
86.907600 1.590800
87.003600 1.621500
87.099700 1.611000
87.195700 1.572700
87.291700 1.586100
87.387800 1.588300
87.483800 1.619200
87.579900 1.639200
87.675900 1.650400
87.771900 1.670500
87.868000 1.684400
87.964000 1.588200
88.060000 1.570100
88.156100 1.571800
88.252100 1.579700
88.348100 1.575400
88.444200 1.627400
88.540200 1.631200
88.636300 1.627400
88.732300 1.681600
88.828300 1.709200
88.924400 1.730900
89.020400 1.729600
89.116400 1.740900
89.212500 1.705000
89.308500 1.638000
89.404600 1.635500
89.500600 1.633700
89.596600 1.602200
89.692700 1.569200
89.788700 1.534700
89.884700 1.513100
89.980800 1.489900
90.076800 1.473500
90.172900 1.465700
90.268900 1.453700
90.364900 1.443100
90.461000 1.452400
90.557000 1.476500
90.653000 1.508900
90.749100 1.491800
90.845100 1.523300
90.941200 1.530500
91.037200 1.560200
91.133200 1.597100
91.229300 1.599900
91.325300 1.613000
91.421300 1.622700
91.517400 1.625100
91.613400 1.608000
91.709500 1.583300
91.805500 1.566200
91.901500 1.559100
91.997600 1.544000
92.093600 1.532100
92.189600 1.532200
92.285700 1.559600
92.381700 1.611900
92.477700 1.633200
92.573800 1.632600
92.669800 1.647700
92.765900 1.691800
92.861900 1.724400
92.957900 1.763900
93.054000 1.754000
93.150000 1.737900
93.246000 1.751500
93.342100 1.756500
93.438100 1.751500
93.534200 1.772200
93.630200 1.765800
93.726200 1.712500
93.822300 1.656400
93.918300 1.645700
94.014300 1.639000
94.110400 1.596600
94.206400 1.599800
94.302500 1.610700
94.398500 1.634800
94.494500 1.703600
94.590600 1.752800
94.686600 1.700300
94.782600 1.666100
94.878700 1.648600
94.974700 1.597800
95.070800 1.579400
95.166800 1.605700
95.262800 1.611000
95.358900 1.580100
95.454900 1.550700
95.550900 1.526000
95.647000 1.476200
95.743000 1.453900
95.839000 1.432900
95.935100 1.442900
96.031100 1.464600
96.127200 1.459000
96.223200 1.458200
96.319200 1.490800
96.415300 1.526900
96.511300 1.562900
96.607300 1.585500
96.703400 1.683600
96.799400 1.662400
96.895500 1.652000
96.991500 1.674500
97.087500 1.702300
97.183600 1.698800
97.279600 1.701100
97.375600 1.755200
97.471700 1.813700
97.567700 1.832400
97.663800 1.876700
97.759800 1.844900
97.855800 1.808400
97.951900 1.802000
98.047900 1.761600
98.143900 1.693200
98.240000 1.673000
98.336000 1.683200
98.432100 1.673500
98.528100 1.650500
98.624100 1.635900
98.720200 1.608500
98.816200 1.593700
98.912200 1.603600
99.008300 1.624100
99.104300 1.706200
99.200300 1.631500
99.296400 1.673100
99.392400 1.691800
99.488500 1.696700
99.584500 1.712400
99.680500 1.668500
99.776600 1.648900
99.872600 1.600100
99.968600 1.588400
100.064700 1.612600
100.160700 1.596300
100.256800 1.612400
100.352800 1.614200
100.448800 1.622700
100.544900 1.659700
100.640900 1.705700
100.736900 1.687200
100.833000 1.715100
100.929000 1.821200
101.025100 1.726200
101.121100 1.731600
101.217100 1.716900
101.313200 1.682700
101.409200 1.633300
101.505200 1.611600
101.601300 1.567200
101.697300 1.537200
101.793400 1.549500
101.889400 1.604200
101.985400 1.685900
102.081500 1.720400
102.177500 1.644700
102.273500 1.551000
102.369600 1.512200
102.465600 1.491600
102.561600 1.581200
102.657700 1.706500
102.753700 1.720900
102.849800 1.667700
102.945800 1.705500
103.041800 1.756500
103.137900 1.679100
103.233900 1.687900
103.329900 1.662700
103.426000 1.620700
103.522000 1.621200
103.618100 1.644500
103.714100 1.705300
103.810100 1.741400
103.906200 1.762500
104.002200 1.791000
104.098200 1.798800
104.194300 1.812900
104.290300 1.837200
104.386400 1.834100
104.482400 1.841900
104.578400 1.750400
104.674500 1.670100
104.770500 1.626000
104.866500 1.612100
104.962600 1.645300
105.058600 1.683500
105.154700 1.718100
105.250700 1.682100
105.346700 1.737600
105.442800 1.692900
105.538800 1.712300
105.634800 1.719400
105.730900 1.715100
105.826900 1.759700
105.922900 1.773000
106.019000 1.781800
106.115000 1.774100
106.211100 1.769600
106.307100 1.777900
106.403100 1.758400
106.499200 1.664800
106.595200 1.603300
106.691200 1.612900
106.787300 1.592800
106.883300 1.615600
106.979400 1.672200
107.075400 1.715400
107.171400 1.735500
107.267500 1.742300
107.363500 1.753500
107.459500 1.689900
107.555600 1.669000
107.651600 1.683500
107.747700 1.647800
107.843700 1.692100
107.939700 1.725900
108.035800 1.740400
108.131800 1.760600
108.227800 1.760900
108.323900 1.705200
108.419900 1.642300
108.516000 1.625000
108.612000 1.621300
108.708000 1.637400
108.804100 1.667200
108.900100 1.711300
108.996100 1.770800
109.092200 1.808200
109.188200 1.705600
109.284300 1.667700
109.380300 1.712700
109.476300 1.805700
109.572400 1.886200
109.668400 1.931600
109.764400 1.929700
109.860500 1.856100
109.956500 1.826200
110.052500 1.821900
110.148600 1.851900
110.244600 1.842200
110.340700 1.808900
110.436700 1.769500
110.532700 1.774100
110.628800 1.765400
110.724800 1.702400
110.820800 1.710900
110.916900 1.655500
111.012900 1.639500
111.109000 1.611400
111.205000 1.652700
111.301000 1.688100
111.397100 1.733200
111.493100 1.746200
111.589100 1.774900
111.685200 1.770400
111.781200 1.776000
111.877300 1.779900
111.973300 1.800700
112.069300 1.820800
112.165400 1.782600
112.261400 1.725000
112.357400 1.698800
112.453500 1.697500
112.549500 1.719500
112.645600 1.733000
112.741600 1.746000
112.837600 1.696400
112.933700 1.688900
113.029700 1.735500
113.125700 1.749500
113.221800 1.819700
113.317800 1.840800
113.413800 1.809600
113.509900 1.772300
113.605900 1.747700
113.702000 1.746000
113.798000 1.755700
113.894000 1.777700
113.990100 1.760600
114.086100 1.776700
114.182100 1.781600
114.278200 1.777500
114.374200 1.759600
114.470300 1.702200
114.566300 1.730800
114.662300 1.659600
114.758400 1.632000
114.854400 1.619700
114.950400 1.649300
115.046500 1.635400
115.142500 1.604700
115.238600 1.576100
115.334600 1.548000
115.430600 1.533500
115.526700 1.527300
115.622700 1.539400
115.718700 1.534200
115.814800 1.549600
115.910800 1.606600
116.006900 1.566600
116.102900 1.543900
116.198900 1.537100
116.295000 1.477100
116.391000 1.382400
116.487000 1.336600
116.583100 1.308400
116.679100 1.297000
116.775100 1.252000
116.871200 1.173500
116.967200 1.115200
117.063300 0.984700
117.159300 0.911000
117.255300 0.868500
117.351400 0.845900
117.447400 0.821500
117.543400 0.796700
117.639500 0.781900
117.735500 0.826600
117.831600 0.699600
117.927600 0.631200
118.023600 0.605400
118.119700 0.585400
118.215700 0.551800
118.311700 0.524500
118.407800 0.483300
118.503800 0.438000
118.599900 0.407200
118.695900 0.369100
118.791900 0.326200
118.888000 0.299800
118.984000 0.280600
119.080000 0.263900
119.176100 0.241400
119.272100 0.245800
119.368200 0.229600
119.464200 0.204500
119.560200 0.185600
119.656300 0.173000
119.752300 0.161100
119.848300 0.141300
119.944400 0.121100
120.040400 0.103400
120.136400 0.092900
120.232500 0.086800
120.328500 0.081800
120.424600 0.076500
120.520600 0.072500
120.616600 0.069100
120.712700 0.066000
120.808700 0.063100
120.904700 0.060600
121.000800 0.058500
121.096800 0.056400
121.192900 0.054500
121.288900 0.052700
121.384900 0.050900
121.481000 0.049300
121.577000 0.047800
121.673000 0.046400
121.769100 0.045000
121.865100 0.043700
121.961200 0.042500
122.057200 0.041700
122.153200 0.041300
122.249300 0.042500
122.345300 0.045100
122.441300 0.048700
122.537400 0.058200
122.633400 0.066700
122.729500 0.072300
122.825500 0.078300
122.921500 0.060500
123.017600 0.043500
123.113600 0.024900
123.209600 0.018500
123.305700 0.015700
123.401700 0.013700
123.497700 0.011900
123.593800 0.010900
123.689800 0.010600
123.785900 0.010200
123.881900 0.009900
123.977900 0.009600
124.074000 0.009200
124.170000 0.008900
124.266000 0.008600
124.362100 0.008300
124.458100 0.008000
124.554200 0.007700
124.650200 0.007400
124.746200 0.007200
124.842300 0.006900
124.938300 0.006600
125.034300 0.006400
125.130400 0.006100
125.226400 0.005900
125.322500 0.005600
125.418500 0.005400
125.514500 0.005200
125.610600 0.005000
125.706600 0.004800
125.802600 0.004600
125.898700 0.004400
125.994700 0.004100
126.090800 0.003900
126.186800 0.003600
126.282800 0.003500
126.378900 0.003300
126.474900 0.003100
126.570900 0.002900
126.667000 0.002800
126.763000 0.002600
126.859000 0.002500
126.955100 0.002300
127.051100 0.002200
127.147200 0.002000
127.243200 0.001900
127.339200 0.001700
127.435300 0.001600
127.531300 0.001500
127.627300 0.001400
127.723400 0.001200
127.819400 0.001100
127.915500 0.001000
128.011500 0.000900
128.107500 0.000800
128.203600 0.000800
128.299600 0.000700
128.395600 0.000600
128.491700 0.000500
128.587700 0.000400
128.683800 0.000400
128.779800 0.000300
128.875800 0.000300
128.971900 0.000200
129.067900 0.000200
129.163900 0.000100
129.260000 0.000100
129.356000 0.000100
129.452100 0.000100
129.548100 0.000000
129.644100 0.000000
129.740200 0.000000
129.836200 0.000000
129.932200 0.000000
130.028300 0.000000
130.124300 0.000000
130.220400 0.000000
130.316400 0.000000
130.412400 0.000000
130.508500 0.000000
130.604500 0.000000
130.700500 0.000000
130.796600 0.000000
130.892600 0.000000
130.988600 0.000000
131.084700 0.000000
131.180700 0.000000
131.276800 0.000000
131.372800 0.000000
131.468800 0.000000
131.564900 0.000000
131.660900 0.000000
131.756900 0.000000
131.853000 0.000000
131.949000 0.000000
132.045100 0.000000
132.141100 0.000000
132.237100 0.000000
132.333200 0.000000
132.429200 0.000000
132.525200 0.000000
132.621300 0.000000
132.717300 0.000000
132.813400 0.000000
132.909400 0.000000
133.005400 0.000000
133.101500 0.000000
133.197500 0.000000
133.293500 0.000000
133.389600 0.000000
133.485600 0.000000
133.581700 0.000000
133.677700 0.000000
133.773700 0.000000
133.869800 0.000000
133.965800 0.000000
134.061800 0.000000
134.157900 0.000000
134.253900 0.000000
134.349900 0.000000
134.446000 0.000000
134.542000 0.000000
134.638100 0.000000
134.734100 0.000000
134.830100 0.000000
134.926200 0.000000
135.022200 0.000000
135.118200 0.000000
135.214300 0.000000
135.310300 0.000000
135.406400 0.000000
135.502400 0.000000
135.598400 0.000000
135.694500 0.000000
135.790500 0.000000
135.886500 0.000000
135.982600 0.000000
136.078600 0.000000
136.174700 0.000000
136.270700 0.000000
136.366700 0.000000
136.462800 0.000000
136.558800 0.000000
136.654800 0.000000
136.750900 0.000000
136.846900 0.000000
136.943000 0.000000
137.039000 0.000000
137.135000 0.000000
137.231100 0.000000
137.327100 0.000000
137.423100 0.000000
137.519200 0.000000
137.615200 0.000000
137.711200 0.000000
137.807300 0.000000
137.903300 0.000000
137.999400 0.000000
138.095400 0.000000
138.191400 0.000000
138.287500 0.000000
138.383500 0.000000
138.479500 0.000000
138.575600 0.000000
138.671600 0.000000
e
