set title 'mp-79 - Density of States'
set xlabel 'Energy (eV)'
set ylabel 'DOS (states/eV)'
set grid
set xrange [-10:10]
set yrange [0:25.772]
set xzeroaxis lt -1
set terminal png size 800,600
set output 'mp-79_dos_gnuplot.png'
plot '-' using 1:2 with lines title 'DOS'
-8.870800 0.000000
-8.853300 0.000000
-8.835800 0.000000
-8.818300 0.000000
-8.800900 0.000000
-8.783400 0.000000
-8.765900 0.000000
-8.748400 0.000000
-8.730900 0.000000
-8.713500 0.000000
-8.696000 0.000000
-8.678500 0.000000
-8.661000 0.000000
-8.643500 0.000000
-8.626000 0.000000
-8.608600 0.000000
-8.591100 0.000000
-8.573600 0.000000
-8.556100 0.000000
-8.538600 0.000000
-8.521200 0.000000
-8.503700 0.000000
-8.486200 0.000000
-8.468700 0.000000
-8.451200 0.000000
-8.433700 0.000000
-8.416300 0.000000
-8.398800 0.000000
-8.381300 0.000000
-8.363800 0.000000
-8.346300 0.000000
-8.328800 0.000000
-8.311400 0.000000
-8.293900 0.000000
-8.276400 0.000000
-8.258900 0.000000
-8.241400 0.000000
-8.224000 0.000000
-8.206500 0.000000
-8.189000 0.000000
-8.171500 0.000000
-8.154000 0.000000
-8.136500 0.000000
-8.119100 0.000000
-8.101600 0.000000
-8.084100 0.000000
-8.066600 0.000000
-8.049100 0.000000
-8.031700 0.000000
-8.014200 0.000000
-7.996700 0.000000
-7.979200 0.000000
-7.961700 0.000000
-7.944200 0.000000
-7.926800 0.000000
-7.909300 0.000000
-7.891800 0.000000
-7.874300 0.000000
-7.856800 0.000000
-7.839400 0.000000
-7.821900 0.000000
-7.804400 0.000000
-7.786900 0.000000
-7.769400 0.000000
-7.751900 0.000000
-7.734500 0.000000
-7.717000 0.000000
-7.699500 0.000000
-7.682000 0.000000
-7.664500 0.000000
-7.647100 0.000000
-7.629600 0.000000
-7.612100 0.000000
-7.594600 0.000000
-7.577100 0.000000
-7.559600 0.000000
-7.542200 0.000000
-7.524700 0.000000
-7.507200 0.000000
-7.489700 0.000000
-7.472200 0.000000
-7.454800 0.000000
-7.437300 0.000000
-7.419800 0.000000
-7.402300 0.000000
-7.384800 0.000000
-7.367300 0.000000
-7.349900 0.000000
-7.332400 0.000000
-7.314900 0.000000
-7.297400 0.000000
-7.279900 0.000000
-7.262400 0.006600
-7.245000 0.024200
-7.227500 0.044700
-7.210000 0.050000
-7.192500 0.051000
-7.175000 0.058500
-7.157600 0.066400
-7.140100 0.074500
-7.122600 0.082000
-7.105100 0.086400
-7.087600 0.088100
-7.070100 0.091000
-7.052700 0.094800
-7.035200 0.099300
-7.017700 0.103800
-7.000200 0.108300
-6.982700 0.112800
-6.965300 0.117600
-6.947800 0.122400
-6.930300 0.126000
-6.912800 0.128300
-6.895300 0.131100
-6.877800 0.134300
-6.860400 0.137400
-6.842900 0.140400
-6.825400 0.143400
-6.807900 0.146500
-6.790400 0.150100
-6.773000 0.153800
-6.755500 0.157600
-6.738000 0.161500
-6.720500 0.165300
-6.703000 0.168900
-6.685500 0.172200
-6.668100 0.175200
-6.650600 0.177700
-6.633100 0.180300
-6.615600 0.183400
-6.598100 0.186600
-6.580700 0.189800
-6.563200 0.193000
-6.545700 0.196300
-6.528200 0.199700
-6.510700 0.203200
-6.493200 0.206700
-6.475800 0.210300
-6.458300 0.213900
-6.440800 0.217700
-6.423300 0.221500
-6.405800 0.225400
-6.388400 0.229500
-6.370900 0.233500
-6.353400 0.237200
-6.335900 0.241000
-6.318400 0.245000
-6.300900 0.249000
-6.283500 0.252900
-6.266000 0.257000
-6.248500 0.261200
-6.231000 0.265500
-6.213500 0.270000
-6.196000 0.274800
-6.178600 0.280400
-6.161100 0.286200
-6.143600 0.292100
-6.126100 0.298000
-6.108600 0.304200
-6.091200 0.310600
-6.073700 0.317100
-6.056200 0.323700
-6.038700 0.330400
-6.021200 0.337200
-6.003700 0.344300
-5.986300 0.353100
-5.968800 0.363300
-5.951300 0.373300
-5.933800 0.384400
-5.916300 0.396200
-5.898900 0.408400
-5.881400 0.421000
-5.863900 0.435100
-5.846400 0.454400
-5.828900 0.474800
-5.811400 0.495100
-5.794000 0.516600
-5.776500 0.548100
-5.759000 0.592900
-5.741500 0.645400
-5.724000 0.760500
-5.706600 0.798200
-5.689100 0.815400
-5.671600 0.840800
-5.654100 0.851700
-5.636600 0.862500
-5.619100 0.889200
-5.601700 0.916800
-5.584200 0.944500
-5.566700 0.968000
-5.549200 1.001000
-5.531700 1.042300
-5.514300 1.092300
-5.496800 1.147600
-5.479300 2.318500
-5.461800 4.743200
-5.444300 6.096200
-5.426800 6.980800
-5.409400 8.498200
-5.391900 8.202500
-5.374400 8.036200
-5.356900 7.984100
-5.339400 7.938600
-5.322000 7.874500
-5.304500 7.997000
-5.287000 8.196900
-5.269500 9.323700
-5.252000 7.774500
-5.234500 7.036900
-5.217100 6.669700
-5.199600 6.248200
-5.182100 7.690600
-5.164600 9.238700
-5.147100 10.395900
-5.129600 11.272200
-5.112200 12.298000
-5.094700 14.151700
-5.077200 14.928700
-5.059700 14.904700
-5.042200 13.501600
-5.024800 12.261900
-5.007300 12.357400
-4.989800 14.642600
-4.972300 17.211100
-4.954800 16.736000
-4.937300 17.547500
-4.919900 18.988900
-4.902400 13.300700
-4.884900 10.764600
-4.867400 10.289100
-4.849900 10.572800
-4.832500 13.099800
-4.815000 13.382300
-4.797500 12.470800
-4.780000 14.759400
-4.762500 15.112200
-4.745000 14.417400
-4.727600 11.428600
-4.710100 10.097700
-4.692600 11.393400
-4.675100 11.743600
-4.657600 11.836400
-4.640200 10.948000
-4.622700 11.071600
-4.605200 12.082300
-4.587700 13.381500
-4.570200 13.484300
-4.552700 14.434400
-4.535300 14.527300
-4.517800 16.526400
-4.500300 18.281400
-4.482800 18.278000
-4.465300 18.349600
-4.447900 19.908500
-4.430400 20.150500
-4.412900 23.428900
-4.395400 21.038800
-4.377900 17.685300
-4.360400 18.769800
-4.343000 20.944800
-4.325500 20.060800
-4.308000 20.036800
-4.290500 20.617400
-4.273000 23.093200
-4.255600 22.905800
-4.238100 21.157500
-4.220600 16.688300
-4.203100 17.902000
-4.185600 19.703000
-4.168100 19.218600
-4.150700 9.596700
-4.133200 9.355700
-4.115700 9.674200
-4.098200 9.926800
-4.080700 10.108900
-4.063200 11.738300
-4.045800 15.512400
-4.028300 7.712800
-4.010800 6.295900
-3.993300 5.743100
-3.975800 5.275400
-3.958400 4.792400
-3.940900 4.793700
-3.923400 4.086000
-3.905900 0.556700
-3.888400 0.541600
-3.870900 0.522900
-3.853500 0.509800
-3.836000 0.499200
-3.818500 0.492900
-3.801000 0.487000
-3.783500 0.481800
-3.766100 0.477100
-3.748600 0.472700
-3.731100 0.469000
-3.713600 0.466100
-3.696100 0.463700
-3.678600 0.461100
-3.661200 0.458600
-3.643700 0.456400
-3.626200 0.454700
-3.608700 0.453200
-3.591200 0.451900
-3.573800 0.450600
-3.556300 0.449500
-3.538800 0.448800
-3.521300 0.448200
-3.503800 0.447700
-3.486300 0.447400
-3.468900 0.446800
-3.451400 0.443200
-3.433900 0.440400
-3.416400 0.438400
-3.398900 0.436300
-3.381500 0.434300
-3.364000 0.432800
-3.346500 0.431800
-3.329000 0.431000
-3.311500 0.430100
-3.294000 0.429200
-3.276600 0.428400
-3.259100 0.427700
-3.241600 0.427100
-3.224100 0.426600
-3.206600 0.426300
-3.189200 0.426100
-3.171700 0.426100
-3.154200 0.426100
-3.136700 0.426100
-3.119200 0.426200
-3.101700 0.426300
-3.084300 0.426500
-3.066800 0.426700
-3.049300 0.427000
-3.031800 0.427200
-3.014300 0.427500
-2.996800 0.427900
-2.979400 0.428400
-2.961900 0.428800
-2.944400 0.429300
-2.926900 0.429800
-2.909400 0.430400
-2.892000 0.430900
-2.874500 0.430600
-2.857000 0.430000
-2.839500 0.429900
-2.822000 0.429700
-2.804500 0.429500
-2.787100 0.429400
-2.769600 0.429400
-2.752100 0.429500
-2.734600 0.429700
-2.717100 0.429900
-2.699700 0.430100
-2.682200 0.430400
-2.664700 0.430700
-2.647200 0.431000
-2.629700 0.431400
-2.612200 0.431900
-2.594800 0.432400
-2.577300 0.433000
-2.559800 0.433500
-2.542300 0.434100
-2.524800 0.434700
-2.507400 0.435200
-2.489900 0.435800
-2.472400 0.436300
-2.454900 0.436900
-2.437400 0.437500
-2.419900 0.438000
-2.402500 0.438600
-2.385000 0.439200
-2.367500 0.439800
-2.350000 0.440400
-2.332500 0.441100
-2.315100 0.441700
-2.297600 0.442400
-2.280100 0.443100
-2.262600 0.443900
-2.245100 0.444600
-2.227600 0.445400
-2.210200 0.446200
-2.192700 0.446900
-2.175200 0.447600
-2.157700 0.448000
-2.140200 0.448400
-2.122800 0.448800
-2.105300 0.449300
-2.087800 0.449800
-2.070300 0.450200
-2.052800 0.450700
-2.035300 0.451300
-2.017900 0.451900
-2.000400 0.452400
-1.982900 0.453000
-1.965400 0.453600
-1.947900 0.454300
-1.930400 0.454900
-1.913000 0.455600
-1.895500 0.456300
-1.878000 0.457000
-1.860500 0.457700
-1.843000 0.458400
-1.825600 0.459200
-1.808100 0.459900
-1.790600 0.460700
-1.773100 0.461500
-1.755600 0.462200
-1.738100 0.463000
-1.720700 0.463800
-1.703200 0.464600
-1.685700 0.465300
-1.668200 0.466100
-1.650700 0.466900
-1.633300 0.467700
-1.615800 0.468500
-1.598300 0.469400
-1.580800 0.470200
-1.563300 0.471100
-1.545800 0.472000
-1.528400 0.472900
-1.510900 0.473900
-1.493400 0.474800
-1.475900 0.475800
-1.458400 0.476800
-1.441000 0.477700
-1.423500 0.478700
-1.406000 0.479700
-1.388500 0.480700
-1.371000 0.481800
-1.353500 0.482700
-1.336100 0.483500
-1.318600 0.484300
-1.301100 0.485300
-1.283600 0.486200
-1.266100 0.487100
-1.248700 0.488000
-1.231200 0.489000
-1.213700 0.489900
-1.196200 0.490900
-1.178700 0.492000
-1.161200 0.493000
-1.143800 0.494100
-1.126300 0.495200
-1.108800 0.496300
-1.091300 0.497500
-1.073800 0.498600
-1.056400 0.499800
-1.038900 0.501000
-1.021400 0.502200
-1.003900 0.503400
-0.986400 0.504600
-0.968900 0.505900
-0.951500 0.507200
-0.934000 0.508400
-0.916500 0.509700
-0.899000 0.511100
-0.881500 0.512400
-0.864000 0.513800
-0.846600 0.515200
-0.829100 0.516600
-0.811600 0.517800
-0.794100 0.518700
-0.776600 0.519500
-0.759200 0.520300
-0.741700 0.521000
-0.724200 0.521200
-0.706700 0.521600
-0.689200 0.522000
-0.671700 0.522400
-0.654300 0.522800
-0.636800 0.523200
-0.619300 0.523600
-0.601800 0.524000
-0.584300 0.524500
-0.566900 0.525000
-0.549400 0.525500
-0.531900 0.526000
-0.514400 0.526400
-0.496900 0.526900
-0.479400 0.527300
-0.462000 0.527800
-0.444500 0.528200
-0.427000 0.528600
-0.409500 0.529100
-0.392000 0.529500
-0.374600 0.529900
-0.357100 0.530400
-0.339600 0.531000
-0.322100 0.531600
-0.304600 0.532100
-0.287100 0.532700
-0.269700 0.533400
-0.252200 0.534000
-0.234700 0.534800
-0.217200 0.535500
-0.199700 0.536300
-0.182300 0.537100
-0.164800 0.537900
-0.147300 0.538800
-0.129800 0.539600
-0.112300 0.540600
-0.094800 0.541500
-0.077400 0.542500
-0.059900 0.543400
-0.042400 0.544400
-0.024900 0.545400
-0.007400 0.546500
0.010000 0.547600
0.027500 0.548800
0.045000 0.550000
0.062500 0.551300
0.080000 0.552600
0.097500 0.557000
0.114900 0.562700
0.132400 0.565300
0.149900 0.567300
0.167400 0.569300
0.184900 0.571100
0.202400 0.572700
0.219800 0.573900
0.237300 0.574700
0.254800 0.575400
0.272300 0.576000
0.289800 0.582900
0.307200 0.594700
0.324700 0.599300
0.342200 0.600400
0.359700 0.600900
0.377200 0.600600
0.394700 0.599600
0.412100 0.597600
0.429600 0.593900
0.447100 0.589800
0.464600 0.585400
0.482100 0.582100
0.499500 0.580000
0.517000 0.578200
0.534500 0.576700
0.552000 0.575300
0.569500 0.574000
0.587000 0.572400
0.604400 0.570900
0.621900 0.569400
0.639400 0.568100
0.656900 0.566800
0.674400 0.565600
0.691800 0.564600
0.709300 0.563700
0.726800 0.563000
0.744300 0.562300
0.761800 0.561700
0.779300 0.561300
0.796700 0.560400
0.814200 0.559800
0.831700 0.579000
0.849200 0.600200
0.866700 0.591500
0.884100 0.575500
0.901600 0.569600
0.919100 0.568600
0.936600 0.567700
0.954100 0.566800
0.971600 0.561900
0.989000 0.559000
1.006500 0.558100
1.024000 0.557700
1.041500 0.557200
1.059000 0.556600
1.076400 0.556100
1.093900 0.555600
1.111400 0.555600
1.128900 0.554600
1.146400 0.553000
1.163900 0.552500
1.181300 0.553000
1.198800 0.555200
1.216300 0.558500
1.233800 0.562900
1.251300 0.568300
1.268800 0.574600
1.286200 0.581800
1.303700 0.590000
1.321200 0.603300
1.338700 0.612800
1.356200 0.628400
1.373600 0.635100
1.391100 0.643100
1.408600 0.654800
1.426100 0.664500
1.443600 0.672200
1.461100 0.673700
1.478500 0.669100
1.496000 0.663500
1.513500 0.649200
1.531000 0.643600
1.548500 0.650400
1.565900 0.659800
1.583400 0.671400
1.600900 0.683800
1.618400 0.695200
1.635900 0.723200
1.653400 0.723400
1.670800 0.697800
1.688300 0.699200
1.705800 0.695600
1.723300 0.646200
1.740800 0.636200
1.758200 0.628800
1.775700 0.616800
1.793200 0.612200
1.810700 0.608200
1.828200 0.604100
1.845700 0.599800
1.863100 0.595500
1.880600 0.591400
1.898100 0.587500
1.915600 0.583800
1.933100 0.581000
1.950500 0.576400
1.968000 0.574200
1.985500 0.572900
2.003000 0.574000
2.020500 0.581000
2.038000 0.591100
2.055400 0.601700
2.072900 0.612900
2.090400 0.617900
2.107900 0.597300
2.125400 0.592900
2.142900 0.587600
2.160300 0.581000
2.177800 0.576800
2.195300 0.575900
2.212800 0.575600
2.230300 0.577500
2.247700 0.584300
2.265200 0.576200
2.282700 0.570000
2.300200 0.563200
2.317700 0.556800
2.335200 0.550800
2.352600 0.545600
2.370100 0.548200
2.387600 0.542400
2.405100 0.537500
2.422600 0.532700
2.440000 0.527900
2.457500 0.523200
2.475000 0.518300
2.492500 0.512500
2.510000 0.506700
2.527500 0.502100
2.544900 0.499000
2.562400 0.497200
2.579900 0.495700
2.597400 0.489700
2.614900 0.482300
2.632300 0.475100
2.649800 0.470900
2.667300 0.491700
2.684800 0.509900
2.702300 0.482900
2.719800 0.455000
2.737200 0.447100
2.754700 0.439100
2.772200 0.430900
2.789700 0.426200
2.807200 0.430700
2.824600 0.442300
2.842100 0.454500
2.859600 0.435300
2.877100 0.424100
2.894600 0.422000
2.912100 0.419400
2.929500 0.414900
2.947000 0.408900
2.964500 0.407300
2.982000 0.407000
2.999500 0.405600
3.016900 0.406800
3.034400 0.408100
3.051900 0.408300
3.069400 0.407200
3.086900 0.403500
3.104400 0.400400
3.121800 0.397300
3.139300 0.393700
3.156800 0.392300
3.174300 0.389100
3.191800 0.380100
3.209300 0.372100
3.226700 0.364700
3.244200 0.358500
3.261700 0.354300
3.279200 0.350000
3.296700 0.345700
3.314100 0.342000
3.331600 0.347100
3.349100 0.364700
3.366600 0.376300
3.384100 0.385300
3.401600 0.394800
3.419000 0.405700
3.436500 0.418300
3.454000 0.429800
3.471500 0.440100
3.489000 0.450800
3.506400 0.462300
3.523900 0.474500
3.541400 0.486800
3.558900 0.494900
3.576400 0.501000
3.593900 0.494100
3.611300 0.495300
3.628800 0.497000
3.646300 0.498600
3.663800 0.502400
3.681300 0.511700
3.698700 0.522000
3.716200 0.533300
3.733700 0.545700
3.751200 0.558700
3.768700 0.569100
3.786200 0.578900
3.803600 0.589600
3.821100 0.618100
3.838600 0.629200
3.856100 0.630500
3.873600 0.635000
3.891000 0.629000
3.908500 0.627600
3.926000 0.645200
3.943500 0.640900
3.961000 0.639400
3.978500 0.650500
3.995900 0.662500
4.013400 0.652300
4.030900 0.604300
4.048400 0.593800
4.065900 0.595200
4.083300 0.595300
4.100800 0.598100
4.118300 0.602400
4.135800 0.618700
4.153300 0.624700
4.170800 0.616900
4.188200 0.637200
4.205700 0.657700
4.223200 0.676700
4.240700 0.686400
4.258200 0.685900
4.275700 0.691200
4.293100 0.698800
4.310600 0.706500
4.328100 0.714100
4.345600 0.719500
4.363100 0.721900
4.380500 0.723800
4.398000 0.725200
4.415500 0.726100
4.433000 0.722600
4.450500 0.725700
4.468000 0.730700
4.485400 0.735600
4.502900 0.740400
4.520400 0.744700
4.537900 0.748100
4.555400 0.750700
4.572800 0.752100
4.590300 0.753200
4.607800 0.753500
4.625300 0.752900
4.642800 0.751400
4.660300 0.749500
4.677700 0.751800
4.695200 0.752700
4.712700 0.753500
4.730200 0.756900
4.747700 0.762700
4.765100 0.771100
4.782600 0.780300
4.800100 0.789100
4.817600 0.797100
4.835100 0.804200
4.852600 0.804800
4.870000 0.800900
4.887500 0.793400
4.905000 0.789100
4.922500 0.786400
4.940000 0.785100
4.957400 0.784900
4.974900 0.784700
4.992400 0.783700
5.009900 0.780900
5.027400 0.776700
5.044900 0.771600
5.062300 0.765800
5.079800 0.759500
5.097300 0.753500
5.114800 0.748100
5.132300 0.766400
5.149700 0.776400
5.167200 0.768200
5.184700 0.754700
5.202200 0.753200
5.219700 0.751500
5.237200 0.749200
5.254600 0.746600
5.272100 0.743500
5.289600 0.740000
5.307100 0.736500
5.324600 0.732700
5.342100 0.731600
5.359500 0.726700
5.377000 0.722000
5.394500 0.716600
5.412000 0.713400
5.429500 0.711200
5.446900 0.710500
5.464400 0.711300
5.481900 0.712900
5.499400 0.714900
5.516900 0.715200
5.534400 0.714000
5.551800 0.712900
5.569300 0.712700
5.586800 0.714200
5.604300 0.731100
5.621800 0.760600
5.639200 0.762700
5.656700 0.767600
5.674200 0.771100
5.691700 0.774500
5.709200 0.750200
5.726700 0.750700
5.744100 0.751800
5.761600 0.753400
5.779100 0.755400
5.796600 0.757400
5.814100 0.760900
5.831500 0.759200
5.849000 0.759500
5.866500 0.762100
5.884000 0.766800
5.901500 0.772200
5.919000 0.780700
5.936400 0.788500
5.953900 0.795900
5.971400 0.802600
5.988900 0.810200
6.006400 0.817600
6.023800 0.829700
6.041300 0.842400
6.058800 0.847900
6.076300 0.849000
6.093800 0.862200
6.111300 0.855900
6.128700 0.850900
6.146200 0.847600
6.163700 0.845000
6.181200 0.840700
6.198700 0.835300
6.216100 0.829500
6.233600 0.823400
6.251100 0.819100
6.268600 0.816200
6.286100 0.813300
6.303600 0.810400
6.321000 0.807800
6.338500 0.805300
6.356000 0.803000
6.373500 0.800900
6.391000 0.799500
6.408500 0.800000
6.425900 0.801800
6.443400 0.805200
6.460900 0.808200
6.478400 0.811200
6.495900 0.819300
6.513300 0.843200
6.530800 0.824100
6.548300 0.810000
6.565800 0.799000
6.583300 0.789200
6.600800 0.780100
6.618200 0.775500
6.635700 0.771000
6.653200 0.766000
6.670700 0.760400
6.688200 0.754500
6.705600 0.748500
6.723100 0.742700
6.740600 0.740400
6.758100 0.736100
6.775600 0.726100
6.793100 0.720100
6.810500 0.720600
6.828000 0.723300
6.845500 0.719300
6.863000 0.714100
6.880500 0.710100
6.897900 0.706200
6.915400 0.702600
6.932900 0.700000
6.950400 0.698500
6.967900 0.696900
6.985400 0.694100
7.002800 0.691100
7.020300 0.688200
7.037800 0.685600
7.055300 0.682300
7.072800 0.679700
7.090200 0.677400
7.107700 0.674400
7.125200 0.670800
7.142700 0.666600
7.160200 0.663500
7.177700 0.660900
7.195100 0.658500
7.212600 0.656500
7.230100 0.656800
7.247600 0.659900
7.265100 0.659000
7.282500 0.658100
7.300000 0.656700
7.317500 0.658300
7.335000 0.660000
7.352500 0.661900
7.370000 0.664500
7.387400 0.671700
7.404900 0.682400
7.422400 0.686800
7.439900 0.690100
7.457400 0.693400
7.474900 0.695900
7.492300 0.696600
7.509800 0.697300
7.527300 0.698600
7.544800 0.701000
7.562300 0.704500
7.579700 0.708500
7.597200 0.712800
7.614700 0.717500
7.632200 0.720900
7.649700 0.722400
7.667200 0.723200
7.684600 0.723700
7.702100 0.723900
7.719600 0.724000
7.737100 0.725400
7.754600 0.728100
7.772000 0.729000
7.789500 0.729400
7.807000 0.727000
7.824500 0.723100
7.842000 0.720100
7.859500 0.725400
7.876900 0.729200
7.894400 0.731800
7.911900 0.733300
7.929400 0.730800
7.946900 0.727500
7.964300 0.724000
7.981800 0.714800
7.999300 0.707600
8.016800 0.701800
8.034300 0.696700
8.051800 0.692200
8.069200 0.688800
8.086700 0.686400
8.104200 0.687300
8.121700 0.688200
8.139200 0.688700
8.156600 0.688900
8.174100 0.696200
8.191600 0.706100
8.209100 0.695200
8.226600 0.695400
8.244100 0.695800
8.261500 0.696400
8.279000 0.697100
8.296500 0.697900
8.314000 0.699100
8.331500 0.700600
8.348900 0.702200
8.366400 0.704000
8.383900 0.705800
8.401400 0.707200
8.418900 0.709000
8.436400 0.710800
8.453800 0.712300
8.471300 0.716700
8.488800 0.718100
8.506300 0.719600
8.523800 0.722200
8.541300 0.727500
8.558700 0.733300
8.576200 0.738500
8.593700 0.743800
8.611200 0.748700
8.628700 0.751500
8.646100 0.756300
8.663600 0.763900
8.681100 0.774100
8.698600 0.786800
8.716100 0.800000
8.733600 0.807900
8.751000 0.817000
8.768500 0.828100
8.786000 0.829300
8.803500 0.831100
8.821000 0.838000
8.838400 0.838600
8.855900 0.835700
8.873400 0.833000
8.890900 0.831100
8.908400 0.832800
8.925900 0.836300
8.943300 0.839200
8.960800 0.841800
8.978300 0.843800
8.995800 0.843800
9.013300 0.842500
9.030700 0.841100
9.048200 0.840300
9.065700 0.839500
9.083200 0.840000
9.100700 0.839100
9.118200 0.838600
9.135600 0.839900
9.153100 0.841700
9.170600 0.842100
9.188100 0.840700
9.205600 0.839500
9.223000 0.844800
9.240500 0.843800
9.258000 0.844300
9.275500 0.846100
9.293000 0.847800
9.310500 0.849500
9.327900 0.850400
9.345400 0.850200
9.362900 0.849500
9.380400 0.841200
9.397900 0.841400
9.415300 0.841600
9.432800 0.842200
9.450300 0.843300
9.467800 0.840800
9.485300 0.842200
9.502800 0.843000
9.520200 0.843300
9.537700 0.843500
9.555200 0.843500
9.572700 0.842800
9.590200 0.842700
9.607700 0.845900
9.625100 0.853800
9.642600 0.866000
9.660100 0.871100
9.677600 0.873600
9.695100 0.874600
9.712500 0.874800
9.730000 0.875300
9.747500 0.875900
9.765000 0.876900
9.782500 0.877600
9.800000 0.877900
9.817400 0.878300
9.834900 0.878200
9.852400 0.876200
9.869900 0.875500
9.887400 0.874900
9.904800 0.875100
9.922300 0.875300
9.939800 0.875500
9.957300 0.875900
9.974800 0.876400
9.992300 0.877300
10.009700 0.878200
10.027200 0.879500
10.044700 0.883800
10.062200 0.887700
10.079700 0.910700
10.097100 0.908700
10.114600 0.888800
10.132100 0.880000
10.149600 0.873900
10.167100 0.872200
10.184600 0.870400
10.202000 0.869000
10.219500 0.867800
10.237000 0.867000
10.254500 0.866300
10.272000 0.865800
10.289400 0.865500
10.306900 0.865200
10.324400 0.865100
10.341900 0.864400
10.359400 0.863500
10.376900 0.863700
10.394300 0.864100
10.411800 0.864700
10.429300 0.865200
10.446800 0.865900
10.464300 0.866900
10.481700 0.868300
10.499200 0.869700
10.516700 0.871000
10.534200 0.872300
10.551700 0.873700
10.569200 0.875400
10.586600 0.877400
10.604100 0.880100
10.621600 0.883200
10.639100 0.886400
10.656600 0.889600
10.674100 0.892800
10.691500 0.895500
10.709000 0.897300
10.726500 0.894600
10.744000 0.896700
10.761500 0.900900
10.778900 0.904600
10.796400 0.908200
10.813900 0.911700
10.831400 0.914500
10.848900 0.916800
10.866400 0.918600
10.883800 0.920000
10.901300 0.919300
10.918800 0.918800
10.936300 0.918800
10.953800 0.919600
10.971200 0.920600
10.988700 0.920700
11.006200 0.921200
11.023700 0.921500
11.041200 0.921800
11.058700 0.922300
11.076100 0.923400
11.093600 0.926700
11.111100 0.932400
11.128600 0.934900
11.146100 0.933100
11.163500 0.928900
11.181000 0.929500
11.198500 0.930100
11.216000 0.930100
11.233500 0.929800
11.251000 0.929300
11.268400 0.928900
11.285900 0.928800
11.303400 0.929000
11.320900 0.929400
11.338400 0.930100
11.355800 0.931000
11.373300 0.931900
11.390800 0.932900
11.408300 0.933800
11.425800 0.935100
11.443300 0.937100
11.460700 0.941500
11.478200 0.946200
11.495700 0.950600
11.513200 0.954800
11.530700 0.958500
11.548100 0.961400
11.565600 0.963800
11.583100 0.966300
11.600600 0.968800
11.618100 0.971500
11.635600 0.974300
11.653000 0.977000
11.670500 0.980100
11.688000 0.983300
11.705500 0.987100
11.723000 0.991000
11.740500 0.997300
11.757900 1.000200
11.775400 1.003800
11.792900 1.008100
11.810400 1.011000
11.827900 1.009300
11.845300 1.008800
11.862800 1.009300
11.880300 1.009800
11.897800 1.010500
11.915300 1.012700
11.932800 1.016400
11.950200 1.021500
11.967700 1.026800
11.985200 1.030400
12.002700 1.035000
12.020200 1.040600
12.037600 1.046600
12.055100 1.053100
12.072600 1.054200
12.090100 1.053900
12.107600 1.057500
12.125100 1.053900
12.142500 1.049500
12.160000 1.046300
12.177500 1.044600
12.195000 1.044500
12.212500 1.048500
12.229900 1.054400
12.247400 1.020000
12.264900 1.019500
12.282400 1.019400
12.299900 1.015800
12.317400 1.008700
12.334800 1.006300
12.352300 1.007200
12.369800 1.007200
12.387300 1.005800
12.404800 1.002900
12.422200 1.001100
12.439700 1.002700
12.457200 1.008800
12.474700 1.010800
12.492200 1.012800
12.509700 1.014900
12.527100 1.017200
12.544600 1.019500
12.562100 1.022900
12.579600 1.039700
12.597100 1.042400
12.614600 1.036800
12.632000 1.038400
12.649500 1.043200
12.667000 1.050700
12.684500 1.057600
12.702000 1.060100
12.719400 1.058300
12.736900 1.055500
12.754400 1.056800
12.771900 1.062000
12.789400 1.069900
12.806900 1.079800
12.824300 1.071300
12.841800 1.066400
12.859300 1.063800
12.876800 1.063900
12.894300 1.065900
12.911700 1.066300
12.929200 1.064500
12.946700 1.060600
12.964200 1.054500
12.981700 1.049800
12.999200 1.047200
13.016600 1.044600
13.034100 1.042400
13.051600 1.040300
13.069100 1.038500
13.086600 1.037100
13.104000 1.037000
13.121500 1.037000
13.139000 1.036700
13.156500 1.036700
13.174000 1.037100
13.191500 1.037100
13.208900 1.037300
13.226400 1.037800
13.243900 1.038400
13.261400 1.037900
13.278900 1.036800
13.296300 1.036100
13.313800 1.034700
13.331300 1.033700
13.348800 1.033000
13.366300 1.031900
13.383800 1.030300
13.401200 1.028400
13.418700 1.026500
13.436200 1.024700
13.453700 1.023800
13.471200 1.024100
13.488600 1.024200
13.506100 1.024800
13.523600 1.025000
13.541100 1.024400
13.558600 1.023500
13.576100 1.022800
13.593500 1.023000
13.611000 1.023800
13.628500 1.025200
13.646000 1.026700
13.663500 1.028300
13.681000 1.029100
13.698400 1.028100
13.715900 1.025200
13.733400 1.021200
13.750900 1.017400
13.768400 1.013800
13.785800 1.009900
13.803300 1.005600
13.820800 1.000900
13.838300 0.995700
13.855800 0.990400
13.873300 0.986100
13.890700 0.982700
13.908200 0.976600
13.925700 0.962700
13.943200 0.951000
13.960700 0.939400
13.978100 0.930100
13.995600 0.921700
14.013100 0.914000
14.030600 0.907000
14.048100 0.895900
14.065600 0.892900
14.083000 0.890100
14.100500 0.887500
14.118000 0.885400
14.135500 0.883500
14.153000 0.881800
14.170400 0.879400
14.187900 0.877200
14.205400 0.875200
14.222900 0.872900
14.240400 0.870400
14.257900 0.868000
14.275300 0.865200
14.292800 0.862100
14.310300 0.858700
14.327800 0.855000
14.345300 0.851000
14.362700 0.846600
14.380200 0.842600
14.397700 0.839000
14.415200 0.836000
14.432700 0.833000
14.450200 0.829200
14.467600 0.825600
14.485100 0.822100
14.502600 0.818800
14.520100 0.814800
14.537600 0.810400
14.555000 0.806000
14.572500 0.801700
14.590000 0.797500
14.607500 0.793500
14.625000 0.790000
14.642500 0.787500
14.659900 0.789900
14.677400 0.790600
14.694900 0.789700
14.712400 0.789300
14.729900 0.789300
14.747400 0.788200
14.764800 0.783200
14.782300 0.774600
14.799800 0.767400
14.817300 0.763100
14.834800 0.759300
14.852200 0.756000
14.869700 0.753200
14.887200 0.750900
14.904700 0.748700
14.922200 0.746700
14.939700 0.744900
14.957100 0.743200
14.974600 0.742000
14.992100 0.741500
15.009600 0.741400
15.027100 0.741500
15.044500 0.741700
15.062000 0.742100
15.079500 0.742500
15.097000 0.742900
15.114500 0.743000
15.132000 0.742900
15.149400 0.742500
15.166900 0.741800
15.184400 0.740700
15.201900 0.739300
15.219400 0.737700
15.236800 0.736200
15.254300 0.734600
15.271800 0.732700
15.289300 0.730900
15.306800 0.729300
15.324300 0.727600
15.341700 0.725700
15.359200 0.723200
15.376700 0.720800
15.394200 0.718400
15.411700 0.715800
15.429100 0.712900
15.446600 0.709800
15.464100 0.706500
15.481600 0.703700
15.499100 0.701300
15.516600 0.699200
15.534000 0.697200
15.551500 0.694400
15.569000 0.691600
15.586500 0.688900
15.604000 0.686400
15.621400 0.684100
15.638900 0.681900
15.656400 0.690400
15.673900 0.690300
15.691400 0.678900
15.708900 0.669500
15.726300 0.669100
15.743800 0.669100
15.761300 0.670000
15.778800 0.672000
15.796300 0.675000
15.813800 0.678900
15.831200 0.684100
15.848700 0.690900
15.866200 0.698800
15.883700 0.707300
15.901200 0.716300
15.918600 0.726000
15.936100 0.761500
15.953600 0.780200
15.971100 0.790000
15.988600 0.790000
16.006100 0.793500
16.023500 0.797700
16.041000 0.800900
16.058500 0.804400
16.076000 0.807900
16.093500 0.812300
16.110900 0.822200
16.128400 0.833200
16.145900 0.845200
16.163400 0.864500
16.180900 0.884800
16.198400 0.902300
16.215800 0.978300
16.233300 0.959000
16.250800 0.960500
16.268300 0.966100
16.285800 0.975000
16.303200 0.987300
16.320700 1.000700
16.338200 1.008800
16.355700 1.027700
16.373200 1.057800
16.390700 1.054100
16.408100 1.048600
16.425600 1.042100
16.443100 1.035900
16.460600 1.030100
16.478100 1.024400
16.495500 1.020500
16.513000 1.027800
16.530500 1.023900
16.548000 1.019200
16.565500 1.014100
16.583000 1.008700
16.600400 1.003100
16.617900 0.997200
16.635400 0.991600
16.652900 0.986300
16.670400 0.980100
16.687800 0.974500
16.705300 0.969900
16.722800 0.966300
16.740300 0.963700
16.757800 0.961500
16.775300 0.959400
16.792700 0.957100
16.810200 0.954600
16.827700 0.952500
16.845200 0.952600
16.862700 0.952200
16.880200 0.950600
16.897600 0.948000
16.915100 0.944000
16.932600 0.938400
16.950100 0.931900
16.967600 0.926600
16.985000 0.923100
17.002500 0.920800
17.020000 0.918900
17.037500 0.916700
17.055000 0.915300
17.072500 0.914300
17.089900 0.913500
17.107400 0.911300
17.124900 0.909000
17.142400 0.906800
17.159900 0.904900
17.177300 0.903300
17.194800 0.901900
17.212300 0.900700
17.229800 0.899800
17.247300 0.899400
17.264800 0.900600
17.282200 0.903700
17.299700 0.908900
17.317200 0.912500
17.334700 0.911800
17.352200 0.910700
17.369600 0.909800
17.387100 0.909200
17.404600 0.908200
17.422100 0.906800
17.439600 0.906400
17.457100 0.906900
17.474500 0.907500
17.492000 0.908200
17.509500 0.909000
17.527000 0.909900
17.544500 0.911000
17.561900 0.913600
17.579400 0.919800
17.596900 0.924800
17.614400 0.927200
17.631900 0.927500
17.649400 0.926800
17.666800 0.925000
17.684300 0.922100
17.701800 0.918600
17.719300 0.917900
17.736800 0.919400
17.754200 0.926400
17.771700 0.928300
17.789200 0.929400
17.806700 0.930200
17.824200 0.931200
17.841700 0.932300
17.859100 0.933500
17.876600 0.934800
17.894100 0.936600
17.911600 0.941600
17.929100 0.949300
17.946600 0.959900
17.964000 0.947300
17.981500 0.933400
17.999000 0.916700
18.016500 0.904400
18.034000 0.904100
18.051400 0.909700
18.068900 0.922300
18.086400 0.923500
18.103900 0.920500
18.121400 0.906900
18.138900 0.892200
18.156300 0.888500
18.173800 0.886300
18.191300 0.888400
18.208800 0.886600
18.226300 0.884200
18.243700 0.882900
18.261200 0.882600
18.278700 0.883200
18.296200 0.884000
18.313700 0.885500
18.331200 0.887300
18.348600 0.889700
18.366100 0.892900
18.383600 0.906600
18.401100 0.918200
18.418600 0.928700
18.436000 0.937800
18.453500 0.946300
18.471000 0.954000
18.488500 0.961100
18.506000 0.970400
18.523500 0.983400
18.540900 0.996600
18.558400 1.011800
18.575900 1.039200
18.593400 1.069100
18.610900 1.102900
18.628300 1.112300
18.645800 1.117300
18.663300 1.121000
18.680800 1.122200
18.698300 1.111000
18.715800 1.086500
18.733200 1.057300
18.750700 1.028700
18.768200 1.003400
18.785700 0.979500
18.803200 0.957900
18.820600 0.939000
18.838100 0.923300
18.855600 0.912300
18.873100 0.905300
18.890600 0.899300
18.908100 0.894000
18.925500 0.889000
18.943000 0.883900
18.960500 0.881000
18.978000 0.879100
18.995500 0.878100
19.013000 0.877700
19.030400 0.878800
19.047900 0.881800
19.065400 0.885400
19.082900 0.890600
19.100400 0.899400
19.117800 0.902000
19.135300 0.899100
19.152800 0.900700
19.170300 0.902000
19.187800 0.902000
19.205300 0.900900
19.222700 0.899000
19.240200 0.896700
19.257700 0.894700
19.275200 0.893100
19.292700 0.891400
19.310100 0.889600
19.327600 0.888200
19.345100 0.887400
19.362600 0.887200
19.380100 0.887300
19.397600 0.887200
19.415000 0.887000
19.432500 0.887000
19.450000 0.886600
19.467500 0.886100
19.485000 0.883600
19.502400 0.881000
19.519900 0.880100
19.537400 0.879100
19.554900 0.878100
19.572400 0.876900
19.589900 0.875700
19.607300 0.874800
19.624800 0.874300
19.642300 0.874300
19.659800 0.874600
19.677300 0.875100
19.694700 0.875700
19.712200 0.876200
19.729700 0.876500
19.747200 0.877000
19.764700 0.878100
19.782200 0.878100
19.799600 0.871800
19.817100 0.869600
19.834600 0.869200
19.852100 0.868800
19.869600 0.866900
19.887000 0.864100
19.904500 0.860600
19.922000 0.856600
19.939500 0.854300
19.957000 0.854700
19.974500 0.858300
19.991900 0.902900
20.009400 0.982200
20.026900 0.968100
20.044400 0.884700
20.061900 0.825100
20.079400 0.786400
20.096800 0.769500
20.114300 0.762600
20.131800 0.755900
20.149300 0.749300
20.166800 0.742800
20.184200 0.736600
20.201700 0.731100
20.219200 0.726200
20.236700 0.721500
20.254200 0.716800
20.271700 0.712400
20.289100 0.708600
20.306600 0.705000
20.324100 0.701400
20.341600 0.697700
20.359100 0.694400
20.376500 0.694500
20.394000 0.692400
20.411500 0.689700
20.429000 0.687300
20.446500 0.685400
20.464000 0.683100
20.481400 0.680200
20.498900 0.677100
20.516400 0.674000
20.533900 0.670600
20.551400 0.666200
20.568800 0.660800
20.586300 0.654200
20.603800 0.646800
20.621300 0.639700
20.638800 0.633000
20.656300 0.626800
20.673700 0.620800
20.691200 0.614600
20.708700 0.608300
20.726200 0.601900
20.743700 0.595500
20.761100 0.589200
20.778600 0.583500
20.796100 0.578500
20.813600 0.574500
20.831100 0.570700
20.848600 0.567400
20.866000 0.565000
20.883500 0.563500
20.901000 0.562100
20.918500 0.559400
20.936000 0.556800
20.953400 0.554200
20.970900 0.551500
20.988400 0.548900
21.005900 0.546200
21.023400 0.543600
21.040900 0.541000
21.058300 0.538500
21.075800 0.536100
21.093300 0.534000
21.110800 0.532000
21.128300 0.530000
21.145800 0.528000
21.163200 0.525900
21.180700 0.523700
21.198200 0.521500
21.215700 0.519400
21.233200 0.517100
21.250600 0.515000
21.268100 0.512800
21.285600 0.511000
21.303100 0.509200
21.320600 0.507400
21.338100 0.505700
21.355500 0.503900
21.373000 0.502000
21.390500 0.500600
21.408000 0.502200
21.425500 0.503000
21.442900 0.502600
21.460400 0.500900
21.477900 0.498000
21.495400 0.499600
21.512900 0.502500
21.530400 0.503700
21.547800 0.504500
21.565300 0.498000
21.582800 0.477700
21.600300 0.474400
21.617800 0.471600
21.635200 0.469300
21.652700 0.467300
21.670200 0.465700
21.687700 0.463400
21.705200 0.459200
21.722700 0.455300
21.740100 0.452600
21.757600 0.450700
21.775100 0.448900
21.792600 0.447000
21.810100 0.445000
21.827500 0.443000
21.845000 0.441000
21.862500 0.439000
21.880000 0.437000
21.897500 0.435700
21.915000 0.434500
21.932400 0.433400
21.949900 0.432300
21.967400 0.431100
21.984900 0.429800
22.002400 0.427700
22.019800 0.425500
22.037300 0.423300
22.054800 0.420900
22.072300 0.418800
22.089800 0.416800
22.107300 0.425000
22.124700 0.430600
22.142200 0.429900
22.159700 0.429700
22.177200 0.429500
22.194700 0.428900
22.212200 0.426700
22.229600 0.422600
22.247100 0.418300
22.264600 0.413700
22.282100 0.409000
22.299600 0.404100
22.317000 0.399200
22.334500 0.395400
22.352000 0.392400
22.369500 0.390100
22.387000 0.388600
22.404500 0.388200
22.421900 0.388500
22.439400 0.389200
22.456900 0.390100
22.474400 0.391000
22.491900 0.390400
22.509300 0.389000
22.526800 0.387300
22.544300 0.385600
22.561800 0.385600
22.579300 0.386100
22.596800 0.386400
22.614200 0.384000
22.631700 0.381600
22.649200 0.379300
22.666700 0.377100
22.684200 0.380900
22.701600 0.380700
22.719100 0.379600
22.736600 0.378100
22.754100 0.376100
22.771600 0.376300
22.789100 0.373800
22.806500 0.370200
22.824000 0.366200
22.841500 0.362000
22.859000 0.357400
22.876500 0.356200
22.893900 0.349700
22.911400 0.341100
22.928900 0.336000
22.946400 0.339100
22.963900 0.342800
22.981400 0.350600
22.998800 0.345700
23.016300 0.341300
23.033800 0.338200
23.051300 0.335500
23.068800 0.333300
23.086300 0.331400
23.103700 0.329300
23.121200 0.326700
23.138700 0.323700
23.156200 0.320400
23.173700 0.318400
23.191100 0.316400
23.208600 0.314200
23.226100 0.311700
23.243600 0.307200
23.261100 0.302000
23.278600 0.296600
23.296000 0.292400
23.313500 0.287000
23.331000 0.280800
23.348500 0.274400
23.366000 0.267900
23.383400 0.261300
23.400900 0.254600
23.418400 0.250900
23.435900 0.245600
23.453400 0.236200
23.470900 0.237400
23.488300 0.219800
23.505800 0.188700
23.523300 0.166100
23.540800 0.155900
23.558300 0.149400
23.575700 0.143300
23.593200 0.139500
23.610700 0.135900
23.628200 0.132200
23.645700 0.128700
23.663200 0.125600
23.680600 0.122800
23.698100 0.120200
23.715600 0.117800
23.733100 0.115600
23.750600 0.113600
23.768000 0.111900
23.785500 0.110300
23.803000 0.109100
23.820500 0.108000
23.838000 0.106500
23.855500 0.104800
23.872900 0.102700
23.890400 0.098900
23.907900 0.093400
23.925400 0.086200
23.942900 0.078500
23.960300 0.070500
23.977800 0.063000
23.995300 0.056300
24.012800 0.050300
24.030300 0.047100
24.047800 0.043700
24.065200 0.040200
24.082700 0.036500
24.100200 0.033100
24.117700 0.031600
24.135200 0.030100
24.152700 0.028600
24.170100 0.027100
24.187600 0.026000
24.205100 0.025400
24.222600 0.024100
24.240100 0.021900
24.257500 0.019900
24.275000 0.017800
24.292500 0.015800
24.310000 0.013800
24.327500 0.011900
24.345000 0.010100
24.362400 0.008300
24.379900 0.006700
24.397400 0.005200
24.414900 0.003900
24.432400 0.002800
24.449800 0.001900
24.467300 0.001200
24.484800 0.000600
24.502300 0.000000
24.519800 0.000000
24.537300 0.000000
24.554700 0.000000
24.572200 0.000000
24.589700 0.000000
24.607200 0.000000
24.624700 0.000000
24.642100 0.000000
24.659600 0.000000
24.677100 0.000000
24.694600 0.000000
24.712100 0.000000
24.729600 0.000000
24.747000 0.000000
24.764500 0.000000
24.782000 0.000000
24.799500 0.000000
24.817000 0.000000
24.834400 0.000000
24.851900 0.000000
24.869400 0.000000
24.886900 0.000000
24.904400 0.000000
24.921900 0.000000
24.939300 0.000000
24.956800 0.000000
24.974300 0.000000
24.991800 0.000000
25.009300 0.000000
25.026700 0.000000
25.044200 0.000000
25.061700 0.000000
25.079200 0.000000
25.096700 0.000000
25.114200 0.000000
25.131600 0.000000
25.149100 0.000000
25.166600 0.000000
25.184100 0.000000
25.201600 0.000000
25.219100 0.000000
25.236500 0.000000
25.254000 0.000000
25.271500 0.000000
25.289000 0.000000
25.306500 0.000000
25.323900 0.000000
25.341400 0.000000
25.358900 0.000000
25.376400 0.000000
25.393900 0.000000
25.411400 0.000000
25.428800 0.000000
25.446300 0.000000
25.463800 0.000000
25.481300 0.000000
25.498800 0.000000
25.516200 0.000000
25.533700 0.000000
25.551200 0.000000
25.568700 0.000000
25.586200 0.000000
25.603700 0.000000
25.621100 0.000000
25.638600 0.000000
25.656100 0.000000
25.673600 0.000000
25.691100 0.000000
25.708500 0.000000
25.726000 0.000000
25.743500 0.000000
25.761000 0.000000
25.778500 0.000000
25.796000 0.000000
25.813400 0.000000
25.830900 0.000000
25.848400 0.000000
25.865900 0.000000
25.883400 0.000000
25.900800 0.000000
25.918300 0.000000
25.935800 0.000000
25.953300 0.000000
25.970800 0.000000
25.988300 0.000000
26.005700 0.000000
26.023200 0.000000
26.040700 0.000000
26.058200 0.000000
26.075700 0.000000
26.093100 0.000000
e
