set title 'mp-1080657 - Density of States'
set xlabel 'Energy (eV)'
set ylabel 'DOS (states/eV)'
set grid
set xrange [-10:10]
set yrange [0:14.397]
set xzeroaxis lt -1
set terminal png size 800,600
set output 'mp-1080657_dos_gnuplot.png'
plot '-' using 1:2 with lines title 'DOS'
-14.643200 0.000000
-14.625300 0.000000
-14.607400 0.000000
-14.589500 0.000000
-14.571700 0.000000
-14.553800 0.000000
-14.535900 0.000000
-14.518100 0.000000
-14.500200 0.000000
-14.482300 0.000000
-14.464400 0.000000
-14.446600 0.000000
-14.428700 0.000000
-14.410800 0.000000
-14.393000 0.000000
-14.375100 0.000000
-14.357200 0.000000
-14.339400 0.000000
-14.321500 0.000000
-14.303600 0.000000
-14.285700 0.000000
-14.267900 0.000000
-14.250000 0.000000
-14.232100 0.000000
-14.214300 0.000000
-14.196400 0.000000
-14.178500 0.000000
-14.160600 0.000000
-14.142800 0.000000
-14.124900 0.000000
-14.107000 0.000000
-14.089200 0.000000
-14.071300 0.000000
-14.053400 0.000000
-14.035600 0.000000
-14.017700 0.000000
-13.999800 0.000000
-13.981900 0.000000
-13.964100 0.000000
-13.946200 0.000000
-13.928300 0.000000
-13.910500 0.000000
-13.892600 0.000000
-13.874700 0.000000
-13.856800 0.000000
-13.839000 0.000000
-13.821100 0.000000
-13.803200 0.000000
-13.785400 0.000000
-13.767500 0.000000
-13.749600 0.000000
-13.731800 0.000000
-13.713900 0.000000
-13.696000 0.000000
-13.678100 0.000000
-13.660300 0.000000
-13.642400 0.000000
-13.624500 0.000000
-13.606700 0.000000
-13.588800 0.000000
-13.570900 0.000000
-13.553000 0.000000
-13.535200 0.000000
-13.517300 0.000000
-13.499400 0.000000
-13.481600 0.000000
-13.463700 0.000000
-13.445800 0.000000
-13.428000 0.000000
-13.410100 0.000000
-13.392200 0.000000
-13.374300 0.000000
-13.356500 0.000000
-13.338600 0.000000
-13.320700 0.000000
-13.302900 0.000000
-13.285000 0.000000
-13.267100 0.000000
-13.249200 0.000000
-13.231400 0.000000
-13.213500 0.000000
-13.195600 0.000000
-13.177800 0.000000
-13.159900 0.000000
-13.142000 0.000000
-13.124200 0.000000
-13.106300 0.000000
-13.088400 0.000000
-13.070500 0.000000
-13.052700 0.000000
-13.034800 0.000000
-13.016900 0.001800
-12.999100 0.254900
-12.981200 0.946200
-12.963300 2.390300
-12.945400 3.611800
-12.927600 4.213900
-12.909700 4.214000
-12.891800 4.214200
-12.874000 4.214300
-12.856100 4.207300
-12.838200 3.999500
-12.820400 3.495200
-12.802500 2.485300
-12.784600 1.729200
-12.766700 1.423100
-12.748900 1.423100
-12.731000 1.423100
-12.713100 1.423200
-12.695300 1.423200
-12.677400 4.221600
-12.659500 5.548900
-12.641600 5.669200
-12.623800 5.669200
-12.605900 5.669300
-12.588000 5.669300
-12.570200 5.669400
-12.552300 5.669400
-12.534400 5.174600
-12.516600 3.586000
-12.498700 2.909000
-12.480800 2.890800
-12.462900 2.890800
-12.445100 2.890800
-12.427200 2.890800
-12.409300 2.890800
-12.391500 2.890800
-12.373600 2.864900
-12.355700 2.781900
-12.337800 2.605400
-12.320000 2.447500
-12.302100 2.368400
-12.284200 2.368400
-12.266400 2.368400
-12.248500 2.368400
-12.230600 2.368400
-12.212700 2.368400
-12.194900 2.368400
-12.177000 2.368500
-12.159100 2.368500
-12.141300 2.368500
-12.123400 2.368500
-12.105500 2.368500
-12.087700 3.036000
-12.069800 4.617800
-12.051900 6.375200
-12.034000 7.004900
-12.016200 7.004900
-11.998300 7.004800
-11.980400 7.004700
-11.962600 7.004600
-11.944700 6.563900
-11.926800 5.537300
-11.908900 4.445800
-11.891100 4.080400
-11.873200 4.080300
-11.855300 4.080300
-11.837500 4.080200
-11.819600 4.080200
-11.801700 4.803900
-11.783900 7.984400
-11.766000 8.440400
-11.748100 8.440500
-11.730200 8.440500
-11.712400 8.440500
-11.694500 8.440500
-11.676600 8.440500
-11.658800 8.440500
-11.640900 7.035500
-11.623000 5.320800
-11.605100 4.708300
-11.587300 3.734100
-11.569400 3.600100
-11.551500 4.937400
-11.533700 6.859600
-11.515800 7.794700
-11.497900 7.829400
-11.480100 7.843700
-11.462200 7.855400
-11.444300 5.885500
-11.426400 4.478100
-11.408600 4.111600
-11.390700 4.112200
-11.372800 4.112800
-11.355000 4.113400
-11.337100 4.114000
-11.319200 4.114700
-11.301300 4.115400
-11.283500 4.116100
-11.265600 4.116800
-11.247700 4.117500
-11.229900 4.118200
-11.212000 4.119000
-11.194100 2.954900
-11.176300 0.000000
-11.158400 0.000000
-11.140500 0.000000
-11.122600 0.000000
-11.104800 0.000000
-11.086900 0.000000
-11.069000 0.000000
-11.051200 0.000000
-11.033300 0.000000
-11.015400 0.000000
-10.997500 0.000000
-10.979700 0.000000
-10.961800 0.000000
-10.943900 0.000000
-10.926100 0.000000
-10.908200 0.000000
-10.890300 0.000000
-10.872500 0.000000
-10.854600 0.000000
-10.836700 0.000000
-10.818800 0.000000
-10.801000 0.000000
-10.783100 0.000000
-10.765200 0.000000
-10.747400 0.000000
-10.729500 0.000000
-10.711600 0.000000
-10.693700 0.000000
-10.675900 0.000000
-10.658000 0.000000
-10.640100 0.000000
-10.622300 0.060000
-10.604400 0.747000
-10.586500 2.710700
-10.568700 4.979100
-10.550800 6.176600
-10.532900 6.204700
-10.515000 6.233600
-10.497200 6.263500
-10.479300 6.294200
-10.461400 3.063300
-10.443600 1.705200
-10.425700 1.705200
-10.407800 1.705200
-10.389900 1.705200
-10.372100 1.705200
-10.354200 1.705200
-10.336300 1.705200
-10.318500 1.705100
-10.300600 1.705100
-10.282700 1.768700
-10.264900 2.520500
-10.247000 3.358200
-10.229100 3.433200
-10.211200 3.433100
-10.193400 3.433100
-10.175500 3.433100
-10.157600 3.433100
-10.139800 3.433100
-10.121900 3.433100
-10.104000 3.433100
-10.086100 3.433100
-10.068300 3.433100
-10.050400 3.433100
-10.032500 3.433100
-10.014700 3.433100
-9.996800 3.433100
-9.978900 3.433100
-9.961100 3.433100
-9.943200 3.433000
-9.925300 3.433000
-9.907400 3.433000
-9.889600 3.433000
-9.871700 3.433000
-9.853800 3.433000
-9.836000 3.102300
-9.818100 2.915500
-9.800200 2.907800
-9.782300 2.907800
-9.764500 2.907800
-9.746600 2.907800
-9.728700 2.907800
-9.710900 2.907800
-9.693000 2.907800
-9.675100 2.907800
-9.657300 2.907800
-9.639400 2.907800
-9.621500 2.907800
-9.603600 2.907800
-9.585800 2.907900
-9.567900 2.928400
-9.550000 3.100100
-9.532200 3.328400
-9.514300 3.282900
-9.496400 3.282900
-9.478500 3.282900
-9.460700 3.222500
-9.442800 3.120300
-9.424900 3.059500
-9.407100 3.059500
-9.389200 3.059500
-9.371300 3.059500
-9.353500 3.059600
-9.335600 3.059600
-9.317700 3.059600
-9.299800 3.059600
-9.282000 3.059600
-9.264100 3.059700
-9.246200 3.059700
-9.228400 3.059700
-9.210500 3.059700
-9.192600 3.059800
-9.174700 3.059800
-9.156900 3.059800
-9.139000 3.059800
-9.121100 3.059900
-9.103300 3.059900
-9.085400 3.059900
-9.067500 3.059900
-9.049700 3.060000
-9.031800 3.060000
-9.013900 2.840400
-8.996000 1.967100
-8.978200 1.823900
-8.960300 1.823900
-8.942400 1.823900
-8.924600 1.823900
-8.906700 1.823900
-8.888800 1.823900
-8.870900 1.823900
-8.853100 1.823900
-8.835200 1.823900
-8.817300 1.823900
-8.799500 1.823900
-8.781600 1.823900
-8.763700 1.823900
-8.745900 1.823900
-8.728000 1.823900
-8.710100 1.823900
-8.692200 1.823900
-8.674400 1.823900
-8.656500 1.823900
-8.638600 1.823900
-8.620800 1.823900
-8.602900 2.143500
-8.585000 2.539900
-8.567100 2.581900
-8.549300 2.593400
-8.531400 2.594100
-8.513500 2.594100
-8.495700 2.594100
-8.477800 2.594200
-8.459900 2.594200
-8.442100 2.594200
-8.424200 2.594300
-8.406300 2.594300
-8.388400 2.594400
-8.370600 2.594400
-8.352700 2.594400
-8.334800 2.737200
-8.317000 2.860700
-8.299100 2.860800
-8.281200 2.860800
-8.263300 2.860900
-8.245500 2.860900
-8.227600 2.861000
-8.209700 2.861000
-8.191900 2.861100
-8.174000 2.861100
-8.156100 2.861200
-8.138300 2.861300
-8.120400 2.861300
-8.102500 2.861400
-8.084600 1.563200
-8.066800 1.563200
-8.048900 1.563200
-8.031000 1.563200
-8.013200 1.563200
-7.995300 1.563200
-7.977400 1.563200
-7.959500 1.563200
-7.941700 1.563200
-7.923800 1.563200
-7.905900 1.563200
-7.888100 1.563200
-7.870200 1.563200
-7.852300 1.563300
-7.834500 1.563300
-7.816600 1.563300
-7.798700 1.563300
-7.780800 1.563300
-7.763000 1.563300
-7.745100 1.563300
-7.727200 1.563300
-7.709400 1.563300
-7.691500 1.563300
-7.673600 1.563300
-7.655700 1.563300
-7.637900 1.563300
-7.620000 1.548700
-7.602100 1.036000
-7.584300 0.863700
-7.566400 0.586300
-7.548500 0.000000
-7.530700 0.000000
-7.512800 0.000000
-7.494900 0.000000
-7.477000 0.000000
-7.459200 0.000000
-7.441300 0.000000
-7.423400 0.000000
-7.405600 0.000000
-7.387700 0.000000
-7.369800 0.000000
-7.351900 0.000000
-7.334100 0.000000
-7.316200 0.000000
-7.298300 0.000000
-7.280500 0.000000
-7.262600 0.000000
-7.244700 0.000000
-7.226900 0.000000
-7.209000 0.000000
-7.191100 0.000000
-7.173200 0.000000
-7.155400 0.000000
-7.137500 0.000000
-7.119600 0.000000
-7.101800 0.000000
-7.083900 0.000000
-7.066000 0.000000
-7.048100 0.000000
-7.030300 0.000000
-7.012400 0.000000
-6.994500 0.000000
-6.976700 0.000000
-6.958800 0.000000
-6.940900 0.000000
-6.923100 0.000000
-6.905200 0.000000
-6.887300 0.000000
-6.869400 0.000000
-6.851600 0.000000
-6.833700 0.000000
-6.815800 0.000000
-6.798000 0.000000
-6.780100 0.000000
-6.762200 0.000000
-6.744300 0.000000
-6.726500 0.000000
-6.708600 0.000000
-6.690700 0.000000
-6.672900 0.000000
-6.655000 0.000000
-6.637100 0.000000
-6.619300 0.000000
-6.601400 0.000000
-6.583500 0.000000
-6.565600 0.000000
-6.547800 0.000000
-6.529900 0.000000
-6.512000 0.000000
-6.494200 0.000000
-6.476300 0.000000
-6.458400 0.000000
-6.440500 0.000000
-6.422700 0.000000
-6.404800 0.000000
-6.386900 0.000000
-6.369100 0.000000
-6.351200 0.000000
-6.333300 0.000000
-6.315500 0.000000
-6.297600 0.000000
-6.279700 0.000000
-6.261800 0.000000
-6.244000 0.000000
-6.226100 0.000000
-6.208200 0.000000
-6.190400 0.000700
-6.172500 0.146100
-6.154600 0.616000
-6.136700 0.745600
-6.118900 0.745600
-6.101000 0.745500
-6.083100 0.745500
-6.065300 0.745500
-6.047400 0.745500
-6.029500 0.745500
-6.011600 0.745500
-5.993800 0.745500
-5.975900 0.745400
-5.958000 0.745400
-5.940200 0.745400
-5.922300 0.745400
-5.904400 0.745400
-5.886600 0.745400
-5.868700 0.745400
-5.850800 0.745300
-5.832900 0.745300
-5.815100 0.745300
-5.797200 0.745300
-5.779300 0.745300
-5.761500 0.745300
-5.743600 0.957900
-5.725700 1.459300
-5.707800 1.790700
-5.690000 1.790700
-5.672100 1.790600
-5.654200 1.790600
-5.636400 1.790600
-5.618500 1.790600
-5.600600 1.790500
-5.582800 1.790500
-5.564900 1.790500
-5.547000 1.790500
-5.529100 1.790400
-5.511300 1.790400
-5.493400 1.790400
-5.475500 1.790400
-5.457700 1.790400
-5.439800 1.790300
-5.421900 1.790300
-5.404000 1.790300
-5.386200 1.790300
-5.368300 1.790200
-5.350400 1.790200
-5.332600 1.790200
-5.314700 1.793100
-5.296800 1.805000
-5.279000 1.832300
-5.261100 1.871500
-5.243200 1.901600
-5.225300 1.915200
-5.207500 1.915100
-5.189600 1.915100
-5.171700 1.915000
-5.153900 1.914900
-5.136000 1.914900
-5.118100 1.913500
-5.100200 1.886700
-5.082400 1.818400
-5.064500 1.814300
-5.046600 1.814200
-5.028800 1.814100
-5.010900 1.814100
-4.993000 1.814000
-4.975200 1.813900
-4.957300 1.813800
-4.939400 1.813800
-4.921500 1.813700
-4.903700 1.813600
-4.885800 1.813500
-4.867900 1.813400
-4.850100 1.813400
-4.832200 1.813300
-4.814300 1.813200
-4.796400 1.813100
-4.778600 1.813100
-4.760700 1.813000
-4.742800 1.812900
-4.725000 1.812800
-4.707100 1.812700
-4.689200 1.812700
-4.671400 1.812600
-4.653500 1.812500
-4.635600 1.812400
-4.617700 1.812300
-4.599900 1.812300
-4.582000 1.815500
-4.564100 1.846400
-4.546300 1.910300
-4.528400 2.011300
-4.510500 2.199100
-4.492600 2.393400
-4.474800 2.559600
-4.456900 2.696000
-4.439000 2.793500
-4.421200 2.832800
-4.403300 3.227900
-4.385400 3.717900
-4.367600 4.403300
-4.349700 4.580700
-4.331800 4.579500
-4.313900 4.578300
-4.296100 4.577100
-4.278200 4.576000
-4.260300 4.575000
-4.242500 4.573900
-4.224600 4.573000
-4.206700 4.572000
-4.188800 4.444700
-4.171000 3.918200
-4.153100 2.967500
-4.135200 1.723400
-4.117400 0.773100
-4.099500 0.127600
-4.081600 0.000000
-4.063800 0.000000
-4.045900 0.020500
-4.028000 0.327300
-4.010100 0.751700
-3.992300 1.182000
-3.974400 1.477100
-3.956500 1.564500
-3.938700 1.564700
-3.920800 1.564900
-3.902900 1.565100
-3.885000 1.565300
-3.867200 1.565400
-3.849300 1.565600
-3.831400 2.233900
-3.813600 2.654000
-3.795700 2.654200
-3.777800 2.654400
-3.760000 2.654500
-3.742100 2.654700
-3.724200 2.654900
-3.706300 2.655100
-3.688500 2.655300
-3.670600 2.655500
-3.652700 2.655700
-3.634900 2.655900
-3.617000 2.656100
-3.599100 2.566400
-3.581200 2.181600
-3.563400 1.721000
-3.545500 1.721000
-3.527600 1.721000
-3.509800 1.721000
-3.491900 1.721000
-3.474000 1.721000
-3.456200 1.721000
-3.438300 1.777300
-3.420400 2.900900
-3.402500 3.459600
-3.384700 3.459400
-3.366800 3.459200
-3.348900 3.459100
-3.331100 3.458900
-3.313200 3.458700
-3.295300 3.458600
-3.277400 3.458400
-3.259600 3.458200
-3.241700 3.458100
-3.223800 3.384900
-3.206000 3.208500
-3.188100 3.208300
-3.170200 3.208100
-3.152400 3.207900
-3.134500 3.207700
-3.116600 3.207500
-3.098700 3.207400
-3.080900 3.207200
-3.063000 3.148400
-3.045100 2.904600
-3.027300 2.536800
-3.009400 2.687700
-2.991500 2.942800
-2.973600 3.218200
-2.955800 3.460500
-2.937900 3.609900
-2.920000 3.610100
-2.902200 3.610300
-2.884300 3.610400
-2.866400 3.610600
-2.848600 3.610800
-2.830700 3.610900
-2.812800 3.611100
-2.794900 3.611300
-2.777100 3.611500
-2.759200 3.611700
-2.741300 3.611800
-2.723500 3.612000
-2.705600 3.612200
-2.687700 3.612400
-2.669800 3.612600
-2.652000 3.612800
-2.634100 3.613000
-2.616200 3.613200
-2.598400 3.613400
-2.580500 3.636900
-2.562600 3.749500
-2.544800 3.955100
-2.526900 5.112900
-2.509000 5.958600
-2.491100 6.177800
-2.473300 6.097000
-2.455400 5.981800
-2.437500 7.114600
-2.419700 10.392700
-2.401800 11.177600
-2.383900 11.294000
-2.366000 10.308200
-2.348200 8.948400
-2.330300 7.587800
-2.312400 6.281300
-2.294600 4.610000
-2.276700 2.320400
-2.258800 2.658700
-2.241000 2.883400
-2.223100 3.067600
-2.205200 3.067400
-2.187300 3.065700
-2.169500 3.064100
-2.151600 3.062300
-2.133700 3.070900
-2.115900 3.897700
-2.098000 4.686500
-2.080100 5.009600
-2.062200 5.293600
-2.044400 5.540500
-2.026500 5.721100
-2.008600 5.873500
-1.990800 6.088100
-1.972900 6.336100
-1.955000 6.602200
-1.937200 6.847100
-1.919300 7.044500
-1.901400 7.238600
-1.883500 7.403700
-1.865700 7.146300
-1.847800 6.771700
-1.829900 6.411700
-1.812100 6.058100
-1.794200 5.711000
-1.776300 5.370300
-1.758400 5.068000
-1.740600 4.824400
-1.722700 4.720600
-1.704800 4.279700
-1.687000 3.895700
-1.669100 3.571500
-1.651200 3.499900
-1.633400 3.526300
-1.615500 3.644700
-1.597600 3.807300
-1.579700 4.005900
-1.561900 4.233300
-1.544000 4.489400
-1.526100 4.746100
-1.508300 5.024200
-1.490400 5.309600
-1.472500 5.580200
-1.454600 5.855000
-1.436800 6.124000
-1.418900 6.295800
-1.401000 6.363100
-1.383200 6.375800
-1.365300 6.431400
-1.347400 6.485800
-1.329600 6.121000
-1.311700 5.900400
-1.293800 5.630400
-1.275900 5.369300
-1.258100 5.144900
-1.240200 4.913100
-1.222300 4.727500
-1.204500 4.629900
-1.186600 4.589600
-1.168700 4.614500
-1.150800 4.628200
-1.133000 4.644800
-1.115100 4.638700
-1.097200 4.633000
-1.079400 4.627500
-1.061500 4.622200
-1.043600 4.617200
-1.025800 4.612500
-1.007900 4.760300
-0.990000 5.260200
-0.972100 5.802400
-0.954300 6.378100
-0.936400 6.882800
-0.918500 7.585200
-0.900700 9.671700
-0.882800 10.886900
-0.864900 9.735500
-0.847000 8.370200
-0.829200 6.234300
-0.811300 4.896700
-0.793400 4.318800
-0.775600 3.917300
-0.757700 3.779900
-0.739800 4.083700
-0.722000 4.552300
-0.704100 5.145700
-0.686200 5.790400
-0.668300 6.207700
-0.650500 6.380800
-0.632600 6.325300
-0.614700 6.153100
-0.596900 6.169100
-0.579000 6.327700
-0.561100 6.506000
-0.543200 6.709900
-0.525400 6.947300
-0.507500 7.182600
-0.489600 7.161400
-0.471800 7.045700
-0.453900 6.841600
-0.436000 7.004900
-0.418200 7.227400
-0.400300 7.356500
-0.382400 7.436700
-0.364500 7.693100
-0.346700 7.374800
-0.328800 6.514800
-0.310900 5.851400
-0.293100 6.075700
-0.275200 7.095500
-0.257300 9.450000
-0.239400 10.352400
-0.221600 10.148400
-0.203700 10.006700
-0.185800 9.753500
-0.168000 9.631200
-0.150100 9.561800
-0.132200 8.928800
-0.114400 8.403700
-0.096500 8.652300
-0.078600 9.394600
-0.060700 9.940000
-0.042900 8.763000
-0.025000 6.351400
-0.007100 6.206200
0.010700 8.305900
0.028600 9.351000
0.046500 9.819400
0.064400 9.886100
0.082200 9.551300
0.100100 8.787200
0.118000 7.641700
0.135800 6.492900
0.153700 5.313800
0.171600 5.207500
0.189500 5.255900
0.207300 5.694800
0.225200 6.722500
0.243100 7.933900
0.260900 8.803900
0.278800 9.581800
0.296700 9.655900
0.314500 9.527200
0.332400 9.475600
0.350300 8.024100
0.368200 7.779700
0.386000 7.871500
0.403900 7.885400
0.421800 7.787700
0.439600 7.775700
0.457500 7.410700
0.475400 6.603300
0.493300 5.537200
0.511100 4.552600
0.529000 3.590600
0.546900 3.740200
0.564700 4.815900
0.582600 5.008400
0.600500 5.560300
0.618300 6.611000
0.636200 9.213600
0.654100 11.149200
0.672000 11.309200
0.689800 11.199700
0.707700 9.808900
0.725600 8.608200
0.743400 8.670900
0.761300 8.783000
0.779200 8.908600
0.797100 8.563100
0.814900 7.460900
0.832800 6.365800
0.850700 6.514700
0.868500 5.634000
0.886400 5.770200
0.904300 6.141300
0.922100 6.687100
0.940000 7.942600
0.957900 9.212700
0.975800 10.294900
0.993600 10.924500
1.011500 11.112900
1.029400 11.093700
1.047200 12.814000
1.065100 10.664500
1.083000 8.913500
1.100900 7.474200
1.118700 6.367300
1.136600 5.730100
1.154500 5.772000
1.172300 5.727900
1.190200 5.723200
1.208100 5.789900
1.225900 5.966700
1.243800 6.172500
1.261700 5.999200
1.279600 5.642300
1.297400 5.458900
1.315300 6.274000
1.333200 7.725200
1.351000 8.030500
1.368900 7.505200
1.386800 6.978900
1.404700 6.457300
1.422500 5.948300
1.440400 5.320000
1.458300 4.770600
1.476100 4.262400
1.494000 3.795100
1.511900 3.423100
1.529700 3.145800
1.547600 2.924300
1.565500 2.746100
1.583400 2.619400
1.601200 2.614800
1.619100 2.664000
1.637000 2.832400
1.654800 3.033100
1.672700 3.206500
1.690600 3.477400
1.708500 3.817900
1.726300 4.045800
1.744200 4.169400
1.762100 4.197900
1.779900 3.923100
1.797800 3.581400
1.815700 3.232600
1.833500 2.808400
1.851400 2.370400
1.869300 1.989800
1.887200 1.928900
1.905000 2.014900
1.922900 2.091600
1.940800 2.267000
1.958600 2.465500
1.976500 2.687000
1.994400 2.962600
2.012300 3.328800
2.030100 3.691700
2.048000 4.150000
2.065900 4.573200
2.083700 4.576400
2.101600 4.579500
2.119500 4.582800
2.137300 4.586000
2.155200 4.589300
2.173100 4.592600
2.191000 4.596000
2.208800 4.599400
2.226700 4.602800
2.244600 4.606300
2.262400 4.609800
2.280300 4.613300
2.298200 4.616900
2.316100 4.620500
2.333900 4.624200
2.351800 4.627900
2.369700 4.783000
2.387500 4.946100
2.405400 5.135200
2.423300 2.732200
2.441100 2.697300
2.459000 2.825700
2.476900 2.954700
2.494800 3.084400
2.512600 3.212100
2.530500 3.245900
2.548400 3.262500
2.566200 3.278900
2.584100 3.295100
2.602000 3.311100
2.619900 3.326900
2.637700 3.342500
2.655600 3.266300
2.673500 3.061800
2.691300 2.761200
2.709200 2.459600
2.727100 2.048800
2.744900 1.908700
2.762800 2.533000
2.780700 2.967800
2.798600 2.968200
2.816400 2.968700
2.834300 2.983400
2.852200 3.224900
2.870000 3.671200
2.887900 3.735100
2.905800 3.735600
2.923700 3.736000
2.941500 3.736500
2.959400 3.736900
2.977300 3.737400
2.995100 3.737800
3.013000 3.640900
3.030900 3.191000
3.048700 2.481800
3.066600 2.019100
3.084500 1.711000
3.102400 1.636800
3.120200 1.636800
3.138100 1.636800
3.156000 1.636800
3.173800 1.636800
3.191700 1.636800
3.209600 1.636800
3.227500 1.636800
3.245300 1.636700
3.263200 1.636700
3.281100 1.636700
3.298900 1.636700
3.316800 1.636700
3.334700 1.636700
3.352500 1.636700
3.370400 1.636700
3.388300 1.636700
3.406200 1.636700
3.424000 1.636700
3.441900 1.636700
3.459800 1.636700
3.477600 1.636700
3.495500 1.636700
3.513400 1.636700
3.531300 1.636600
3.549100 1.636600
3.567000 1.636600
3.584900 1.636600
3.602700 1.636600
3.620600 1.636600
3.638500 1.636600
3.656300 1.636600
3.674200 1.636600
3.692100 1.636600
3.710000 1.636600
3.727800 1.636600
3.745700 1.636600
3.763600 1.636600
3.781400 1.636600
3.799300 1.636600
3.817200 1.636600
3.835100 1.636500
3.852900 1.636500
3.870800 1.636500
3.888700 1.636500
3.906500 1.636500
3.924400 1.636500
3.942300 1.636500
3.960100 1.636500
3.978000 1.636500
3.995900 1.636500
4.013800 1.636500
4.031600 1.636500
4.049500 1.636500
4.067400 1.636700
4.085200 1.645600
4.103100 1.668300
4.121000 1.707600
4.138900 1.776100
4.156700 1.865100
4.174600 2.007600
4.192500 2.143700
4.210300 2.154200
4.228200 2.153900
4.246100 2.153700
4.263900 2.153500
4.281800 2.153200
4.299700 2.153000
4.317600 2.152800
4.335400 2.152600
4.353300 2.152300
4.371200 2.152100
4.389000 2.151900
4.406900 2.151700
4.424800 2.151400
4.442700 2.151200
4.460500 2.797200
4.478400 3.053400
4.496300 3.052100
4.514100 3.050800
4.532000 3.175000
4.549900 3.263400
4.567700 3.262000
4.585600 3.260700
4.603500 3.259300
4.621400 3.258000
4.639200 3.256600
4.657100 3.267200
4.675000 3.378600
4.692800 3.468500
4.710700 3.489900
4.728600 3.506000
4.746500 3.536100
4.764300 3.600800
4.782200 3.703300
4.800100 3.807100
4.817900 3.912000
4.835800 4.018200
4.853700 4.151000
4.871500 4.312400
4.889400 4.462200
4.907300 4.471900
4.925200 4.495700
4.943000 4.565400
4.960900 4.623800
4.978800 4.673900
4.996600 4.722900
5.014500 4.761400
5.032400 4.787100
5.050300 4.791600
5.068100 4.783800
5.086000 4.777100
5.103900 4.724700
5.121700 4.650800
5.139600 4.583400
5.157500 4.522500
5.175300 4.469000
5.193200 4.414300
5.211100 4.348500
5.229000 4.271500
5.246800 4.098700
5.264700 3.752400
5.282600 3.512500
5.300400 3.101200
5.318300 2.689900
5.336200 2.418800
5.354100 2.568300
5.371900 2.951600
5.389800 3.458600
5.407700 3.981500
5.425500 4.565400
5.443400 5.269900
5.461300 6.059200
5.479100 6.381300
5.497000 6.291800
5.514900 6.145400
5.532800 5.993600
5.550600 5.858600
5.568500 5.855700
5.586400 6.030400
5.604200 6.388300
5.622100 7.134100
5.640000 7.714400
5.657900 7.504400
5.675700 6.655900
5.693600 6.663600
5.711500 6.852000
5.729300 6.923600
5.747200 6.794100
5.765100 6.322100
5.782900 5.537700
5.800800 4.407300
5.818700 3.800700
5.836600 3.399200
5.854400 3.427300
5.872300 3.445100
5.890200 3.831500
5.908000 4.036200
5.925900 4.300700
5.943800 4.612700
5.961700 7.461200
5.979500 3.503200
5.997400 3.077800
6.015300 2.701800
6.033100 2.375100
6.051000 2.097700
6.068900 2.011200
6.086700 1.896000
6.104600 2.022600
6.122500 2.451800
6.140400 2.810500
6.158200 3.109800
6.176100 3.414800
6.194000 3.712200
6.211800 3.950500
6.229700 4.112200
6.247600 4.198700
6.265500 4.281800
6.283300 4.375100
6.301200 4.478700
6.319100 4.592500
6.336900 4.716600
6.354800 4.831400
6.372700 3.933500
6.390600 3.123300
6.408400 2.395900
6.426300 1.988200
6.444200 2.203300
6.462000 2.581200
6.479900 2.769400
6.497800 2.951500
6.515600 3.127500
6.533500 3.297300
6.551400 3.459300
6.569300 3.671900
6.587100 4.000100
6.605000 4.034600
6.622900 4.068300
6.640700 4.279500
6.658600 4.729200
6.676500 5.358300
6.694400 6.024900
6.712200 6.637900
6.730100 7.311800
6.748000 8.046400
6.765800 9.033400
6.783700 10.601500
6.801600 12.818100
6.819400 10.579200
6.837300 8.060700
6.855200 6.570300
6.873100 7.887000
6.890900 8.253400
6.908800 8.262000
6.926700 9.286800
6.944500 12.080500
6.962400 5.465800
6.980300 4.610900
6.998200 3.863900
7.016000 3.221700
7.033900 2.748500
7.051800 2.600000
7.069600 2.444300
7.087500 2.921800
7.105400 3.528600
7.123200 4.076900
7.141100 4.611600
7.159000 5.024100
7.176900 5.411600
7.194700 5.704400
7.212600 5.810700
7.230500 5.633700
7.248300 5.221100
7.266200 4.840700
7.284100 4.549400
7.302000 4.367400
7.319800 4.261300
7.337700 4.157800
7.355600 3.270000
7.373400 5.831000
7.391300 7.342100
7.409200 9.630200
7.427000 8.271300
7.444900 5.476700
7.462800 5.360600
7.480700 5.135700
7.498500 4.802000
7.516400 4.359400
7.534300 4.040800
7.552100 4.747500
7.570000 3.771200
7.587900 3.782700
7.605800 3.968500
7.623600 4.318900
7.641500 4.724800
7.659400 5.174700
7.677200 6.011700
7.695100 6.979600
7.713000 7.616300
7.730800 8.064500
7.748700 8.302000
7.766600 7.508900
7.784500 7.018700
7.802300 6.674900
7.820200 6.334300
7.838100 5.996800
7.855900 5.662900
7.873800 5.338900
7.891700 5.026800
7.909600 4.725200
7.927400 4.432000
7.945300 4.147100
7.963200 4.263400
7.981000 7.460800
7.998900 5.027100
8.016800 5.608300
8.034600 6.832200
8.052500 7.259400
8.070400 6.325100
8.088300 5.045900
8.106100 4.185600
8.124000 3.685900
8.141900 3.467100
8.159700 3.339400
8.177600 3.273600
8.195500 3.269700
8.213400 3.310300
8.231200 3.365800
8.249100 3.435000
8.267000 3.511200
8.284800 3.592300
8.302700 3.677500
8.320600 3.791900
8.338400 4.076600
8.356300 4.263500
8.374200 4.466300
8.392100 4.676400
8.409900 4.912900
8.427800 5.184700
8.445700 5.489400
8.463500 5.665500
8.481400 5.846300
8.499300 6.040100
8.517200 6.443600
8.535000 6.660200
8.552900 6.883000
8.570800 7.109500
8.588600 7.339300
8.606500 7.570100
8.624400 7.797600
8.642200 8.021600
8.660100 8.280300
8.678000 8.606100
8.695900 8.929700
8.713700 9.037100
8.731600 9.145500
8.749500 9.056000
8.767300 8.871900
8.785200 8.563200
8.803100 7.754900
8.821000 6.222900
8.838800 2.774900
8.856700 2.405800
8.874600 2.295800
8.892400 2.233300
8.910300 2.167500
8.928200 2.095100
8.946000 2.016600
8.963900 1.950500
8.981800 1.909300
8.999700 1.882900
9.017500 1.877500
9.035400 1.893200
9.053300 1.929900
9.071100 1.985500
9.089000 2.057100
9.106900 2.142800
9.124800 2.237300
9.142600 2.340300
9.160500 2.453500
9.178400 2.875400
9.196200 3.499900
9.214100 4.323600
9.232000 5.397100
9.249800 6.264500
9.267700 6.554900
9.285600 5.928100
9.303500 5.623700
9.321300 5.319300
9.339200 5.145800
9.357100 5.031900
9.374900 4.961800
9.392800 4.909300
9.410700 4.900000
9.428600 5.025800
9.446400 5.286900
9.464300 5.534400
9.482200 5.817300
9.500000 6.684400
9.517900 7.592500
9.535800 8.348500
9.553600 8.605600
9.571500 8.693000
9.589400 8.543500
9.607300 7.967300
9.625100 7.322800
9.643000 6.621100
9.660900 5.796300
9.678700 4.993100
9.696600 4.822500
9.714500 4.705800
9.732400 4.698700
9.750200 4.521900
9.768100 4.289100
9.786000 4.248900
9.803800 4.547800
9.821700 5.192200
9.839600 6.210000
9.857400 7.121000
9.875300 7.410000
9.893200 7.340200
9.911100 7.767700
9.928900 8.321500
9.946800 9.715300
9.964700 11.319200
9.982500 13.088100
10.000400 13.521100
10.018300 13.485200
10.036200 13.292000
10.054000 12.700000
10.071900 10.367000
10.089800 8.292300
10.107600 6.997100
10.125500 6.537200
10.143400 6.617900
10.161200 6.744300
10.179100 6.871600
10.197000 10.398100
10.214900 14.162100
10.232700 8.682100
10.250600 6.960600
10.268500 7.261600
10.286300 7.885400
10.304200 7.813100
10.322100 7.551300
10.340000 7.280600
10.357800 7.299800
10.375700 7.172500
10.393600 7.113100
10.411400 7.169900
10.429300 7.162700
10.447200 6.918900
10.465000 6.845700
10.482900 6.782500
10.500800 6.677600
10.518700 6.756100
10.536500 6.063800
10.554400 7.407300
10.572300 9.890900
10.590100 14.217500
10.608000 12.099300
10.625900 10.217600
10.643800 9.619800
10.661600 8.262400
10.679500 8.525600
10.697400 9.453700
10.715200 9.479600
10.733100 9.433300
10.751000 9.427200
10.768800 9.364200
10.786700 9.190000
10.804600 8.978000
10.822500 8.757800
10.840300 8.513200
10.858200 8.187000
10.876100 7.880200
10.893900 7.605400
10.911800 7.371000
10.929700 7.175900
10.947600 7.013800
10.965400 6.758200
10.983300 6.689600
11.001200 6.831200
11.019000 7.076500
11.036900 7.353500
11.054800 7.312900
11.072600 7.247600
11.090500 7.238600
11.108400 7.300400
11.126300 7.449700
11.144100 7.607300
11.162000 7.741200
11.179900 7.851200
11.197700 7.994600
11.215600 8.153700
11.233500 8.049900
11.251400 7.947300
11.269200 7.784800
11.287100 7.612300
11.305000 7.446000
11.322800 7.316600
11.340700 7.193800
11.358600 7.198900
11.376400 7.261500
11.394300 7.321500
11.412200 7.554300
11.430100 7.855200
11.447900 8.054800
11.465800 8.353200
11.483700 8.725400
11.501500 9.013700
11.519400 9.304600
11.537300 9.570000
11.555200 9.541900
11.573000 9.276100
11.590900 8.834900
11.608800 8.346800
11.626600 7.775400
11.644500 7.982800
11.662400 8.102200
11.680200 7.361400
11.698100 6.699500
11.716000 6.230200
11.733900 5.828500
11.751700 5.820100
11.769600 5.935500
11.787500 6.291200
11.805300 6.905300
11.823200 7.776100
11.841100 8.241600
11.859000 9.056000
11.876800 9.212700
11.894700 8.636400
11.912600 7.936500
11.930400 7.531600
11.948300 7.393700
11.966200 7.490800
11.984000 7.712800
12.001900 8.064600
12.019800 8.339500
12.037700 10.272300
12.055500 9.777500
12.073400 9.622400
12.091300 8.463900
12.109100 8.376200
12.127000 8.346100
12.144900 8.347600
12.162800 8.095800
12.180600 7.366300
12.198500 6.726100
12.216400 6.206300
12.234200 5.691300
12.252100 4.983000
12.270000 4.247400
12.287800 3.620300
12.305700 3.088400
12.323600 2.603000
12.341500 2.166700
12.359300 2.882900
12.377200 3.218100
12.395100 3.586600
12.412900 3.887500
12.430800 4.267800
12.448700 4.665600
12.466600 5.019400
12.484400 5.385300
12.502300 5.804900
12.520200 6.229000
12.538000 6.654600
12.555900 7.015000
12.573800 7.239700
12.591700 7.356700
12.609500 7.462700
12.627400 7.555300
12.645300 7.626600
12.663100 7.652600
12.681000 7.621100
12.698900 7.638100
12.716700 7.825100
12.734600 8.201800
12.752500 7.911800
12.770400 7.403200
12.788200 7.223900
12.806100 8.152100
12.824000 8.752800
12.841800 9.019600
12.859700 9.130600
12.877600 9.147100
12.895500 8.288200
12.913300 6.707200
12.931200 5.541600
12.949100 4.891400
12.966900 4.996200
12.984800 5.312100
13.002700 5.717500
13.020500 6.193700
13.038400 8.033000
13.056300 10.402100
13.074200 10.484100
13.092000 10.358500
13.109900 10.452900
13.127800 10.802700
13.145600 11.177600
13.163500 10.426900
13.181400 8.713600
13.199300 7.702400
13.217100 6.953100
13.235000 5.997600
13.252900 4.243000
13.270700 2.843200
13.288600 3.169000
13.306500 4.119100
13.324300 5.383200
13.342200 7.227200
13.360100 9.276300
13.378000 8.655900
13.395800 9.067800
13.413700 8.471000
13.431600 7.225500
13.449400 5.938700
13.467300 4.759600
13.485200 3.485400
13.503100 3.539800
13.520900 4.368100
13.538800 6.244800
13.556700 6.348700
13.574500 6.491400
13.592400 6.859700
13.610300 7.327400
13.628100 7.543100
13.646000 7.572800
13.663900 7.672100
13.681800 7.688600
13.699600 7.595300
13.717500 7.434200
13.735400 7.214900
13.753200 6.996200
13.771100 6.730000
13.789000 6.428500
13.806900 6.174300
13.824700 5.951300
13.842600 5.460000
13.860500 5.334800
13.878300 5.177400
13.896200 4.965300
13.914100 4.984100
13.931900 5.237600
13.949800 4.668700
13.967700 4.221800
13.985600 4.081700
14.003400 4.126100
14.021300 4.242100
14.039200 4.443300
14.057000 4.750600
14.074900 5.129100
14.092800 5.485200
14.110700 5.946900
14.128500 6.565500
14.146400 6.951100
14.164300 7.270000
14.182100 7.517000
14.200000 7.713100
14.217900 7.860800
14.235700 7.770300
14.253600 7.534700
14.271500 7.193100
14.289400 6.603600
14.307200 6.253600
14.325100 6.266400
14.343000 6.149500
14.360800 5.973400
14.378700 6.150600
14.396600 6.475000
14.414500 7.965800
14.432300 8.848800
14.450200 8.333900
14.468100 8.248900
14.485900 8.301100
14.503800 8.331600
14.521700 8.398400
14.539500 8.507500
14.557400 8.504200
14.575300 8.075800
14.593200 7.534800
14.611000 6.888300
14.628900 6.517700
14.646800 6.328500
14.664600 6.246400
14.682500 6.422100
14.700400 7.298400
14.718300 8.190300
14.736100 8.925500
14.754000 9.488100
14.771900 10.283900
14.789700 9.322100
14.807600 7.338300
14.825500 6.100500
14.843300 5.541300
14.861200 5.362200
14.879100 5.028400
14.897000 4.810200
14.914800 4.736800
14.932700 4.734100
14.950600 4.911500
14.968400 6.274400
14.986300 7.722100
15.004200 8.953600
15.022100 9.872300
15.039900 10.750100
15.057800 11.504600
15.075700 11.653900
15.093500 11.715700
15.111400 11.719500
15.129300 11.684000
15.147100 11.625400
15.165000 11.285300
15.182900 10.678400
15.200800 8.989400
15.218600 8.566300
15.236500 8.593600
15.254400 8.663800
15.272200 8.760900
15.290100 8.646700
15.308000 9.086100
15.325900 9.809500
15.343700 9.635900
15.361600 9.443300
15.379500 9.678100
15.397300 9.802700
15.415200 10.476000
15.433100 10.593900
15.450900 10.585600
15.468800 10.559100
15.486700 10.475000
15.504600 10.333900
15.522400 10.137900
15.540300 9.863200
15.558200 8.940400
15.576000 8.022100
15.593900 7.410500
15.611800 7.492800
15.629700 8.004300
15.647500 8.894900
15.665400 10.018000
15.683300 11.011500
15.701100 11.172200
15.719000 9.368600
15.736900 7.413400
15.754700 7.251900
15.772600 7.188200
15.790500 7.234300
15.808400 7.267700
15.826200 7.317600
15.844100 7.424800
15.862000 7.639400
15.879800 7.929900
15.897700 8.269400
15.915600 8.752600
15.933500 9.497500
15.951300 10.204600
15.969200 10.034200
15.987100 9.855500
16.004900 9.829300
16.022800 8.904700
16.040700 7.922100
16.058500 7.601300
16.076400 7.248000
16.094300 6.662500
16.112200 7.219100
16.130000 8.321600
16.147900 10.882200
16.165800 10.614700
16.183600 9.867700
16.201500 9.282200
16.219400 8.789000
16.237300 7.998800
16.255100 7.090200
16.273000 6.372300
16.290900 6.273200
16.308700 6.381300
16.326600 6.592800
16.344500 6.886100
16.362300 8.434500
16.380200 10.506300
16.398100 11.783400
16.416000 11.571800
16.433800 11.295900
16.451700 10.531500
16.469600 9.546800
16.487400 8.506000
16.505300 7.527400
16.523200 6.857400
16.541100 6.720900
16.558900 7.144600
16.576800 8.091400
16.594700 9.374100
16.612500 10.234500
16.630400 10.403000
16.648300 9.462500
16.666100 8.534800
16.684000 7.656700
16.701900 6.993700
16.719800 6.506400
16.737600 6.204500
16.755500 6.175400
16.773400 6.763100
16.791200 7.444800
16.809100 7.940100
16.827000 8.284000
16.844900 8.480600
16.862700 8.449600
16.880600 8.447300
16.898500 8.388300
16.916300 8.276900
16.934200 7.991300
16.952100 8.246600
16.969900 8.429200
16.987800 8.711200
17.005700 8.815900
17.023600 9.041000
17.041400 9.709000
17.059300 9.706000
17.077200 8.766100
17.095000 8.156000
17.112900 7.797300
17.130800 7.620700
17.148700 7.836100
17.166500 8.171000
17.184400 8.538700
17.202300 8.756200
17.220100 8.726200
17.238000 8.400500
17.255900 7.478100
17.273700 7.845100
17.291600 8.217200
17.309500 8.599900
17.327400 9.215900
17.345200 9.988200
17.363100 10.321800
17.381000 11.376900
17.398800 11.433500
17.416700 10.252500
17.434600 9.190300
17.452500 8.440800
17.470300 8.147200
17.488200 8.211100
17.506100 9.124600
17.523900 9.629000
17.541800 10.150700
17.559700 10.574800
17.577500 11.349400
17.595400 8.228400
17.613300 7.467000
17.631200 6.843400
17.649000 6.330500
17.666900 5.999500
17.684800 6.073500
17.702600 6.335400
17.720500 6.514600
17.738400 6.637500
17.756300 6.785200
17.774100 6.969600
17.792000 7.167500
17.809900 7.204900
17.827700 7.245300
17.845600 7.711900
17.863500 8.438400
17.881300 9.428100
17.899200 10.742500
17.917100 11.876400
17.935000 13.162200
17.952800 13.490000
17.970700 13.316200
17.988600 12.935700
18.006400 12.644700
18.024300 12.037000
18.042200 10.988400
18.060100 9.833000
18.077900 8.697600
18.095800 7.412600
18.113700 6.918200
18.131500 6.871300
18.149400 6.948500
18.167300 7.283600
18.185100 7.848900
18.203000 7.778200
18.220900 7.558900
18.238800 7.426900
18.256600 7.296900
18.274500 7.174100
18.292400 7.167900
18.310200 7.709000
18.328100 9.680800
18.346000 10.670200
18.363900 10.995300
18.381700 11.012700
18.399600 10.645300
18.417500 9.691800
18.435300 8.618500
18.453200 8.266100
18.471100 8.426900
18.488900 9.072800
18.506800 9.411600
18.524700 9.035500
18.542600 8.966800
18.560400 8.958800
18.578300 8.990900
18.596200 9.039900
18.614000 8.420700
18.631900 7.750900
18.649800 7.205400
18.667700 6.820400
18.685500 6.624200
18.703400 6.586100
18.721300 6.425300
18.739100 6.408700
18.757000 6.646500
18.774900 6.935900
18.792800 6.996500
18.810600 7.179100
18.828500 7.693600
18.846400 8.252900
18.864200 8.781800
18.882100 9.058000
18.900000 9.172300
18.917800 8.594100
18.935700 8.130600
18.953600 7.805100
18.971500 7.300100
18.989300 6.588100
19.007200 6.573400
19.025100 6.741600
19.042900 7.023700
19.060800 7.261300
19.078700 7.384000
19.096600 7.108800
19.114400 6.738200
19.132300 6.357300
19.150200 5.986100
19.168000 5.540700
19.185900 4.890600
19.203800 4.332300
19.221600 3.892200
19.239500 3.445400
19.257400 2.992000
19.275300 2.540400
19.293100 2.092800
19.311000 1.583800
19.328900 1.310200
19.346700 1.063700
19.364600 0.844300
19.382500 0.651800
19.400400 0.481000
19.418200 0.318800
19.436100 0.172000
19.454000 0.078500
19.471800 0.006600
19.489700 0.000000
19.507600 0.000000
19.525400 0.000000
19.543300 0.000000
19.561200 0.000000
19.579100 0.000000
19.596900 0.000000
19.614800 0.000000
19.632700 0.000000
19.650500 0.000000
19.668400 0.000000
19.686300 0.000000
19.704200 0.000000
19.722000 0.000000
19.739900 0.000000
19.757800 0.000000
19.775600 0.000000
19.793500 0.000000
19.811400 0.000000
19.829200 0.000000
19.847100 0.000000
19.865000 0.000000
19.882900 0.000000
19.900700 0.000000
19.918600 0.000000
19.936500 0.000000
19.954300 0.000000
19.972200 0.000000
19.990100 0.000000
20.008000 0.000000
20.025800 0.000000
20.043700 0.000000
20.061600 0.000000
20.079400 0.000000
20.097300 0.000000
20.115200 0.000000
20.133000 0.000000
20.150900 0.000000
20.168800 0.000000
20.186700 0.000000
20.204500 0.000000
20.222400 0.000000
20.240300 0.000000
20.258100 0.000000
20.276000 0.000000
20.293900 0.000000
20.311800 0.000000
20.329600 0.000000
20.347500 0.000000
20.365400 0.000000
20.383200 0.000000
20.401100 0.000000
20.419000 0.000000
20.436800 0.000000
20.454700 0.000000
20.472600 0.000000
20.490500 0.000000
20.508300 0.000000
20.526200 0.000000
20.544100 0.000000
20.561900 0.000000
20.579800 0.000000
20.597700 0.000000
20.615600 0.000000
20.633400 0.000000
20.651300 0.000000
20.669200 0.000000
20.687000 0.000000
20.704900 0.000000
20.722800 0.000000
20.740600 0.000000
20.758500 0.000000
20.776400 0.000000
20.794300 0.000000
20.812100 0.000000
20.830000 0.000000
20.847900 0.000000
20.865700 0.000000
20.883600 0.000000
20.901500 0.000000
20.919400 0.000000
20.937200 0.000000
20.955100 0.000000
20.973000 0.000000
20.990800 0.000000
21.008700 0.000000
21.026600 0.000000
21.044400 0.000000
21.062300 0.000000
21.080200 0.000000
21.098100 0.000000
e
