set title 'mp-632401 - Density of States'
set xlabel 'Energy (eV)'
set ylabel 'DOS (states/eV)'
set grid
set xrange [-10:10]
set yrange [0:5.586]
set xzeroaxis lt -1
set terminal png size 800,600
set output 'mp-632401_dos_gnuplot.png'
plot '-' using 1:2 with lines title 'DOS'
-12.214800 0.000000
-12.196100 0.000000
-12.177400 0.000000
-12.158700 0.000000
-12.140000 0.000000
-12.121300 0.000000
-12.102600 0.000000
-12.083900 0.000000
-12.065200 0.000000
-12.046400 0.000000
-12.027700 0.000000
-12.009000 0.000000
-11.990300 0.000000
-11.971600 0.000000
-11.952900 0.000000
-11.934200 0.000000
-11.915500 0.000000
-11.896800 0.000000
-11.878100 0.000000
-11.859400 0.000000
-11.840700 0.000000
-11.822000 0.000000
-11.803300 0.000000
-11.784600 0.000000
-11.765900 0.000000
-11.747200 0.000000
-11.728500 0.000000
-11.709700 0.000000
-11.691000 0.000000
-11.672300 0.000000
-11.653600 0.000000
-11.634900 0.000000
-11.616200 0.000000
-11.597500 0.000000
-11.578800 0.000000
-11.560100 0.000000
-11.541400 0.000000
-11.522700 0.000000
-11.504000 0.000000
-11.485300 0.000000
-11.466600 0.000000
-11.447900 0.000000
-11.429200 0.000000
-11.410500 0.000000
-11.391800 0.000000
-11.373000 0.000000
-11.354300 0.000000
-11.335600 0.000000
-11.316900 0.000000
-11.298200 0.000000
-11.279500 0.000000
-11.260800 0.000000
-11.242100 0.000000
-11.223400 0.000000
-11.204700 0.000000
-11.186000 0.000000
-11.167300 0.000000
-11.148600 0.000000
-11.129900 0.000000
-11.111200 0.000000
-11.092500 0.000000
-11.073800 0.000000
-11.055100 0.000000
-11.036300 0.000000
-11.017600 0.000000
-10.998900 0.000000
-10.980200 0.000000
-10.961500 0.000000
-10.942800 0.000000
-10.924100 0.000000
-10.905400 0.000000
-10.886700 0.000000
-10.868000 0.000000
-10.849300 0.000000
-10.830600 0.000000
-10.811900 0.000000
-10.793200 0.000000
-10.774500 0.000000
-10.755800 0.000000
-10.737100 0.000000
-10.718400 0.000000
-10.699600 0.000000
-10.680900 0.000000
-10.662200 0.000000
-10.643500 0.000000
-10.624800 0.000000
-10.606100 0.000000
-10.587400 0.000000
-10.568700 0.000000
-10.550000 0.000000
-10.531300 0.000000
-10.512600 0.000500
-10.493900 0.067800
-10.475200 0.224700
-10.456500 0.364400
-10.437800 0.427800
-10.419100 0.474900
-10.400400 0.537400
-10.381700 0.607700
-10.362900 0.684800
-10.344200 0.762200
-10.325500 0.847400
-10.306800 0.957500
-10.288100 1.078400
-10.269400 1.157100
-10.250700 1.151600
-10.232000 1.132000
-10.213300 1.146900
-10.194600 1.190600
-10.175900 1.244500
-10.157200 1.301000
-10.138500 1.351900
-10.119800 1.396900
-10.101100 1.391500
-10.082400 1.369000
-10.063700 1.350600
-10.045000 1.336400
-10.026200 1.324100
-10.007500 1.320800
-9.988800 1.318100
-9.970100 1.296400
-9.951400 1.245000
-9.932700 1.171300
-9.914000 1.090100
-9.895300 1.021600
-9.876600 0.980200
-9.857900 0.948600
-9.839200 0.920100
-9.820500 0.892900
-9.801800 0.866400
-9.783100 0.843500
-9.764400 0.823500
-9.745700 0.806200
-9.727000 0.792000
-9.708300 0.776300
-9.689500 0.761100
-9.670800 0.747700
-9.652100 0.734900
-9.633400 0.722400
-9.614700 0.709900
-9.596000 0.697200
-9.577300 0.683600
-9.558600 0.669800
-9.539900 0.656100
-9.521200 0.644300
-9.502500 0.636900
-9.483800 0.631300
-9.465100 0.625800
-9.446400 0.620200
-9.427700 0.614400
-9.409000 0.608500
-9.390300 0.602500
-9.371600 0.596300
-9.352800 0.590600
-9.334100 0.585800
-9.315400 0.580100
-9.296700 0.573200
-9.278000 0.566400
-9.259300 0.559800
-9.240600 0.552900
-9.221900 0.546600
-9.203200 0.540800
-9.184500 0.535900
-9.165800 0.532100
-9.147100 0.528000
-9.128400 0.522900
-9.109700 0.517500
-9.091000 0.521200
-9.072300 0.566200
-9.053600 0.636000
-9.034900 0.714000
-9.016100 0.808700
-8.997400 0.907000
-8.978700 0.985800
-8.960000 1.036700
-8.941300 1.062200
-8.922600 1.068200
-8.903900 1.073700
-8.885200 1.081600
-8.866500 1.085800
-8.847800 1.084500
-8.829100 1.072000
-8.810400 1.058800
-8.791700 1.051400
-8.773000 1.051000
-8.754300 1.055200
-8.735600 1.062000
-8.716900 1.070300
-8.698200 1.079500
-8.679400 1.089200
-8.660700 1.096900
-8.642000 1.104600
-8.623300 1.113000
-8.604600 1.120200
-8.585900 1.125800
-8.567200 1.131100
-8.548500 1.136000
-8.529800 1.142200
-8.511100 1.149500
-8.492400 1.157000
-8.473700 1.164300
-8.455000 1.171400
-8.436300 1.178500
-8.417600 1.186500
-8.398900 1.211400
-8.380200 1.266400
-8.361500 1.306700
-8.342700 1.342100
-8.324000 1.355900
-8.305300 1.357500
-8.286600 1.353200
-8.267900 1.332300
-8.249200 1.322200
-8.230500 1.321200
-8.211800 1.318600
-8.193100 1.313600
-8.174400 1.306500
-8.155700 1.299500
-8.137000 1.296500
-8.118300 1.294700
-8.099600 1.291900
-8.080900 1.289000
-8.062200 1.288800
-8.043500 1.292100
-8.024800 1.293100
-8.006000 1.289500
-7.987300 1.283900
-7.968600 1.276600
-7.949900 1.267500
-7.931200 1.256600
-7.912500 1.244400
-7.893800 1.231400
-7.875100 1.214900
-7.856400 1.194700
-7.837700 1.172600
-7.819000 1.148800
-7.800300 1.122200
-7.781600 1.102900
-7.762900 1.089600
-7.744200 1.077000
-7.725500 1.065000
-7.706800 1.053900
-7.688100 1.043700
-7.669300 1.033900
-7.650600 1.022800
-7.631900 1.048300
-7.613200 1.119600
-7.594500 1.246200
-7.575800 1.381200
-7.557100 1.573500
-7.538400 1.712300
-7.519700 1.696500
-7.501000 1.624600
-7.482300 1.556700
-7.463600 1.495100
-7.444900 1.461800
-7.426200 1.439500
-7.407500 1.414500
-7.388800 1.392600
-7.370100 1.379600
-7.351400 1.374100
-7.332600 1.376300
-7.313900 1.383000
-7.295200 1.392300
-7.276500 1.405000
-7.257800 1.420900
-7.239100 1.442100
-7.220400 1.470000
-7.201700 1.483300
-7.183000 1.478600
-7.164300 1.463000
-7.145600 1.416400
-7.126900 1.339600
-7.108200 1.286400
-7.089500 1.262500
-7.070800 1.258000
-7.052100 1.275500
-7.033400 1.299800
-7.014700 1.325900
-6.995900 1.353900
-6.977200 1.372700
-6.958500 1.378200
-6.939800 1.378200
-6.921100 1.379300
-6.902400 1.397500
-6.883700 1.483300
-6.865000 1.551000
-6.846300 1.557800
-6.827600 1.536100
-6.808900 1.526800
-6.790200 1.530100
-6.771500 1.532100
-6.752800 1.532100
-6.734100 1.528500
-6.715400 1.519800
-6.696700 1.521200
-6.678000 1.518600
-6.659200 1.516900
-6.640500 1.516100
-6.621800 1.516500
-6.603100 1.518000
-6.584400 1.517700
-6.565700 1.513600
-6.547000 1.506400
-6.528300 1.502800
-6.509600 1.626100
-6.490900 2.123400
-6.472200 2.331100
-6.453500 2.500300
-6.434800 2.702300
-6.416100 2.533400
-6.397400 2.265200
-6.378700 2.124900
-6.360000 2.010800
-6.341300 1.760500
-6.322500 1.434800
-6.303800 1.327400
-6.285100 1.271700
-6.266400 1.248600
-6.247700 1.225400
-6.229000 1.199100
-6.210300 1.167100
-6.191600 1.135300
-6.172900 1.301500
-6.154200 1.508500
-6.135500 1.396500
-6.116800 1.449100
-6.098100 1.508000
-6.079400 1.414400
-6.060700 1.366600
-6.042000 1.343400
-6.023300 1.330800
-6.004600 1.329200
-5.985800 1.337200
-5.967100 1.348500
-5.948400 1.364800
-5.929700 1.384800
-5.911000 1.407600
-5.892300 1.425400
-5.873600 1.451300
-5.854900 1.483100
-5.836200 1.514900
-5.817500 1.558400
-5.798800 1.681000
-5.780100 1.811600
-5.761400 1.903900
-5.742700 1.914000
-5.724000 1.940400
-5.705300 1.961300
-5.686600 1.982400
-5.667900 2.013100
-5.649100 2.025800
-5.630400 1.963000
-5.611700 1.964300
-5.593000 1.949900
-5.574300 1.898700
-5.555600 1.840000
-5.536900 1.798600
-5.518200 1.769700
-5.499500 1.740400
-5.480800 1.744200
-5.462100 1.651900
-5.443400 1.535600
-5.424700 1.474600
-5.406000 1.465200
-5.387300 1.477100
-5.368600 1.515500
-5.349900 1.580900
-5.331200 1.609800
-5.312400 1.575800
-5.293700 1.564000
-5.275000 1.588500
-5.256300 1.634100
-5.237600 1.677600
-5.218900 1.721300
-5.200200 1.744700
-5.181500 1.750800
-5.162800 1.753000
-5.144100 1.749800
-5.125400 1.754800
-5.106700 1.762000
-5.088000 1.775800
-5.069300 1.795500
-5.050600 1.819900
-5.031900 1.842800
-5.013200 1.844900
-4.994500 1.866900
-4.975700 1.895900
-4.957000 1.933500
-4.938300 1.980900
-4.919600 2.026100
-4.900900 2.080900
-4.882200 2.198200
-4.863500 2.287100
-4.844800 2.311100
-4.826100 2.321500
-4.807400 2.343700
-4.788700 2.383600
-4.770000 2.411100
-4.751300 2.383000
-4.732600 2.267400
-4.713900 2.240300
-4.695200 2.245000
-4.676500 2.263800
-4.657800 2.274200
-4.639000 2.283200
-4.620300 2.318500
-4.601600 2.390100
-4.582900 2.387700
-4.564200 2.227100
-4.545500 2.169300
-4.526800 2.148300
-4.508100 2.168300
-4.489400 2.079300
-4.470700 2.062600
-4.452000 2.175200
-4.433300 2.103900
-4.414600 2.040200
-4.395900 2.075100
-4.377200 2.094300
-4.358500 2.101900
-4.339800 2.091200
-4.321100 2.116500
-4.302300 2.162500
-4.283600 2.227600
-4.264900 2.362700
-4.246200 2.410300
-4.227500 2.458000
-4.208800 2.532400
-4.190100 2.618100
-4.171400 2.786100
-4.152700 3.379700
-4.134000 3.454300
-4.115300 2.997900
-4.096600 2.691100
-4.077900 2.523300
-4.059200 2.458700
-4.040500 2.425600
-4.021800 2.377000
-4.003100 2.323200
-3.984300 2.455100
-3.965600 2.520400
-3.946900 2.461500
-3.928200 2.424200
-3.909500 2.330100
-3.890800 2.076000
-3.872100 1.857700
-3.853400 1.682600
-3.834700 1.516400
-3.816000 1.376100
-3.797300 1.243600
-3.778600 1.147100
-3.759900 1.077700
-3.741200 1.026800
-3.722500 0.995300
-3.703800 1.007000
-3.685100 0.950100
-3.666400 0.971900
-3.647600 0.975700
-3.628900 0.983000
-3.610200 0.992600
-3.591500 1.031500
-3.572800 1.123200
-3.554100 1.258900
-3.535400 1.300500
-3.516700 1.236400
-3.498000 1.245000
-3.479300 1.230700
-3.460600 1.290200
-3.441900 1.333400
-3.423200 1.365100
-3.404500 1.420600
-3.385800 1.474800
-3.367100 1.738600
-3.348400 1.960800
-3.329700 2.106600
-3.310900 2.249400
-3.292200 2.543400
-3.273500 2.897200
-3.254800 2.367000
-3.236100 2.271100
-3.217400 1.988000
-3.198700 1.830000
-3.180000 1.801600
-3.161300 1.780800
-3.142600 1.740600
-3.123900 1.769800
-3.105200 1.853800
-3.086500 1.989200
-3.067800 2.126200
-3.049100 2.186200
-3.030400 2.298600
-3.011700 2.370500
-2.993000 2.523000
-2.974200 2.662800
-2.955500 2.871700
-2.936800 3.103700
-2.918100 3.271900
-2.899400 3.457600
-2.880700 3.516800
-2.862000 3.622000
-2.843300 3.792800
-2.824600 3.890600
-2.805900 3.848500
-2.787200 3.797500
-2.768500 3.832100
-2.749800 3.726100
-2.731100 3.498400
-2.712400 3.302600
-2.693700 3.114100
-2.675000 2.902400
-2.656300 2.692800
-2.637500 2.495100
-2.618800 2.298300
-2.600100 2.151700
-2.581400 2.020000
-2.562700 1.928800
-2.544000 1.885500
-2.525300 1.893500
-2.506600 1.932700
-2.487900 2.005900
-2.469200 2.011900
-2.450500 2.086900
-2.431800 2.138700
-2.413100 2.156000
-2.394400 2.207000
-2.375700 2.272900
-2.357000 2.341500
-2.338300 2.384400
-2.319600 2.451500
-2.300800 2.566500
-2.282100 2.755600
-2.263400 2.964400
-2.244700 3.145900
-2.226000 3.391500
-2.207300 3.684000
-2.188600 3.113200
-2.169900 2.889500
-2.151200 2.652500
-2.132500 2.486800
-2.113800 2.476100
-2.095100 2.415200
-2.076400 2.361100
-2.057700 2.334100
-2.039000 2.339500
-2.020300 2.421100
-2.001600 2.352500
-1.982900 2.290200
-1.964100 2.258000
-1.945400 2.240700
-1.926700 2.188000
-1.908000 2.118000
-1.889300 2.073900
-1.870600 2.052000
-1.851900 1.993800
-1.833200 1.967200
-1.814500 1.785500
-1.795800 1.740900
-1.777100 1.800500
-1.758400 1.839200
-1.739700 1.917200
-1.721000 1.981100
-1.702300 2.094500
-1.683600 2.274300
-1.664900 2.548200
-1.646200 2.838600
-1.627400 2.875000
-1.608700 2.760500
-1.590000 2.731500
-1.571300 2.647900
-1.552600 2.617200
-1.533900 2.593900
-1.515200 2.577400
-1.496500 2.584100
-1.477800 2.332300
-1.459100 2.151100
-1.440400 1.917100
-1.421700 1.849400
-1.403000 1.814000
-1.384300 1.779800
-1.365600 1.762500
-1.346900 1.780800
-1.328200 1.814900
-1.309500 1.859200
-1.290700 1.891900
-1.272000 2.048100
-1.253300 2.239900
-1.234600 2.420400
-1.215900 2.561900
-1.197200 2.692500
-1.178500 2.773600
-1.159800 2.855500
-1.141100 3.018100
-1.122400 3.109200
-1.103700 3.189800
-1.085000 3.168200
-1.066300 3.150600
-1.047600 3.172200
-1.028900 3.223800
-1.010200 2.962600
-0.991500 2.793500
-0.972800 2.621100
-0.954000 2.343400
-0.935300 2.098300
-0.916600 1.940600
-0.897900 1.866000
-0.879200 1.862700
-0.860500 1.924700
-0.841800 2.037800
-0.823100 2.229200
-0.804400 2.505900
-0.785700 2.755100
-0.767000 3.003800
-0.748300 3.210000
-0.729600 3.402700
-0.710900 3.585600
-0.692200 3.773200
-0.673500 4.020700
-0.654800 4.229600
-0.636100 4.217000
-0.617300 4.150000
-0.598600 4.120800
-0.579900 3.667400
-0.561200 3.255200
-0.542500 3.100100
-0.523800 2.997600
-0.505100 2.941100
-0.486400 2.902800
-0.467700 2.938600
-0.449000 2.842200
-0.430300 2.775800
-0.411600 2.722200
-0.392900 2.693300
-0.374200 2.711700
-0.355500 2.814800
-0.336800 2.702700
-0.318100 2.579500
-0.299400 2.551200
-0.280600 2.607000
-0.261900 2.643100
-0.243200 2.918800
-0.224500 3.121900
-0.205800 3.254500
-0.187100 3.320500
-0.168400 3.359300
-0.149700 3.418400
-0.131000 3.469200
-0.112300 3.533900
-0.093600 3.641200
-0.074900 3.622400
-0.056200 3.668100
-0.037500 3.653600
-0.018800 3.564000
-0.000100 3.475500
0.018600 3.379300
0.037300 3.298300
0.056100 3.217000
0.074800 3.121400
0.093500 3.016500
0.112200 3.068300
0.130900 3.036700
0.149600 2.964100
0.168300 2.929300
0.187000 2.959000
0.205700 3.004700
0.224400 3.216100
0.243100 3.231200
0.261800 3.266900
0.280500 3.212700
0.299200 3.181700
0.317900 3.179000
0.336600 3.263000
0.355300 3.414200
0.374000 3.554000
0.392800 3.568800
0.411500 3.734000
0.430200 3.727900
0.448900 3.740800
0.467600 3.965600
0.486300 3.820300
0.505000 3.827100
0.523700 3.813600
0.542400 3.855200
0.561100 3.946500
0.579800 3.974300
0.598500 3.982400
0.617200 3.917500
0.635900 3.774000
0.654600 3.631600
0.673300 3.572500
0.692000 3.592400
0.710700 3.424100
0.729500 3.302500
0.748200 3.138900
0.766900 3.015700
0.785600 2.983400
0.804300 3.089200
0.823000 3.001800
0.841700 2.941600
0.860400 3.057900
0.879100 3.324900
0.897800 3.419700
0.916500 3.444200
0.935200 3.560200
0.953900 3.768800
0.972600 3.892700
0.991300 4.072500
1.010000 4.151000
1.028700 4.297800
1.047400 4.624100
1.066200 4.741000
1.084900 4.693900
1.103600 4.501300
1.122300 4.178800
1.141000 3.856600
1.159700 3.562300
1.178400 3.336800
1.197100 3.290300
1.215800 3.227000
1.234500 3.114000
1.253200 2.999100
1.271900 2.827800
1.290600 2.766200
1.309300 2.739000
1.328000 2.734300
1.346700 2.828900
1.365400 3.035100
1.384100 3.027100
1.402900 3.062600
1.421600 3.068700
1.440300 3.141200
1.459000 3.319500
1.477700 3.625800
1.496400 4.100500
1.515100 4.542500
1.533800 4.755600
1.552500 4.845600
1.571200 4.910300
1.589900 5.049700
1.608600 4.919200
1.627300 4.668300
1.646000 4.410900
1.664700 4.156500
1.683400 3.929500
1.702100 3.731800
1.720800 3.574800
1.739600 3.445400
1.758300 3.389400
1.777000 3.383800
1.795700 3.297300
1.814400 3.204600
1.833100 3.210600
1.851800 3.201600
1.870500 3.180300
1.889200 3.250300
1.907900 3.275600
1.926600 3.315100
1.945300 3.421900
1.964000 3.575400
1.982700 3.683800
2.001400 3.951700
2.020100 4.156900
2.038800 4.351200
2.057500 4.780600
2.076300 4.629400
2.095000 4.521100
2.113700 4.438500
2.132400 4.143200
2.151100 3.843900
2.169800 3.678000
2.188500 3.467900
2.207200 3.232300
2.225900 3.139100
2.244600 3.167900
2.263300 3.117400
2.282000 3.224300
2.300700 3.384800
2.319400 3.519200
2.338100 3.718600
2.356800 3.645800
2.375500 3.740000
2.394200 3.636800
2.413000 3.604100
2.431700 3.485200
2.450400 3.450500
2.469100 3.601900
2.487800 3.794900
2.506500 3.936100
2.525200 4.058700
2.543900 4.151300
2.562600 4.211200
2.581300 4.213600
2.600000 4.261700
2.618700 4.399100
2.637400 4.533300
2.656100 4.879400
2.674800 5.078400
2.693500 4.957900
2.712200 4.596700
2.730900 4.516100
2.749700 4.398500
2.768400 4.415300
2.787100 4.140700
2.805800 4.062100
2.824500 4.000700
2.843200 4.024100
2.861900 4.402700
2.880600 4.451600
2.899300 4.637400
2.918000 4.785400
2.936700 4.939100
2.955400 5.042300
2.974100 4.856800
2.992800 4.667600
3.011500 4.339900
3.030200 4.172600
3.048900 4.009900
3.067600 3.864600
3.086400 3.731600
3.105100 3.622600
3.123800 3.556900
3.142500 3.542100
3.161200 3.550100
3.179900 3.392600
3.198600 3.260700
3.217300 3.128200
3.236000 3.033300
3.254700 2.935700
3.273400 2.754300
3.292100 2.653900
3.310800 2.654000
3.329500 2.650100
3.348200 2.630200
3.366900 2.615300
3.385600 2.640600
3.404300 2.666000
3.423100 2.684800
3.441800 2.688800
3.460500 2.773600
3.479200 2.863700
3.497900 2.974100
3.516600 3.079400
3.535300 3.244100
3.554000 3.213600
3.572700 3.232900
3.591400 3.349900
3.610100 3.361900
3.628800 3.308400
3.647500 3.222900
3.666200 3.081800
3.684900 2.967000
3.703600 2.889200
3.722300 2.873200
3.741000 2.847300
3.759800 2.814600
3.778500 2.742100
3.797200 2.659600
3.815900 2.601900
3.834600 2.553400
3.853300 2.511400
3.872000 2.471800
3.890700 2.455100
3.909400 2.435300
3.928100 2.409300
3.946800 2.330300
3.965500 2.301900
3.984200 2.291700
4.002900 2.281700
4.021600 2.286000
4.040300 2.315000
4.059000 2.351200
4.077700 2.376500
4.096500 2.368800
4.115200 2.367800
4.133900 2.437500
4.152600 2.449000
4.171300 2.440900
4.190000 2.410500
4.208700 2.337000
4.227400 2.352900
4.246100 2.330600
4.264800 2.343400
4.283500 2.366200
4.302200 2.391900
4.320900 2.413900
4.339600 2.474900
4.358300 2.544700
4.377000 2.587100
4.395700 2.587000
4.414400 2.619600
4.433200 2.665800
4.451900 2.697800
4.470600 2.726300
4.489300 2.707600
4.508000 2.726000
4.526700 2.681700
4.545400 2.647600
4.564100 2.652600
4.582800 2.526000
4.601500 2.489500
4.620200 2.320800
4.638900 2.289900
4.657600 2.252600
4.676300 2.218100
4.695000 2.189300
4.713700 2.157500
4.732400 2.125200
4.751100 2.090700
4.769900 2.007300
4.788600 1.957100
4.807300 1.917700
4.826000 1.886600
4.844700 1.866000
4.863400 1.850900
4.882100 1.839200
4.900800 1.828200
4.919500 1.838600
4.938200 1.840800
4.956900 1.843900
4.975600 1.840300
4.994300 1.836600
5.013000 1.828700
5.031700 1.834400
5.050400 1.832100
5.069100 1.821800
5.087800 1.808600
5.106600 1.791100
5.125300 1.781500
5.144000 1.806400
5.162700 1.721700
5.181400 1.638600
5.200100 1.543100
5.218800 1.485600
5.237500 1.427800
5.256200 1.380700
5.274900 1.341100
5.293600 1.300800
5.312300 1.262900
5.331000 1.226600
5.349700 1.196900
5.368400 1.174100
5.387100 1.156900
5.405800 1.148300
5.424600 1.149200
5.443300 1.148500
5.462000 1.151400
5.480700 1.153000
5.499400 1.158600
5.518100 1.188800
5.536800 1.253600
5.555500 1.399800
5.574200 1.574600
5.592900 1.500500
5.611600 1.398500
5.630300 1.351100
5.649000 1.325800
5.667700 1.305000
5.686400 1.287500
5.705100 1.273700
5.723800 1.264500
5.742500 1.259900
5.761300 1.255500
5.780000 1.250300
5.798700 1.244000
5.817400 1.236900
5.836100 1.235500
5.854800 1.230200
5.873500 1.221200
5.892200 1.221900
5.910900 1.245000
5.929600 1.271900
5.948300 1.284400
5.967000 1.236700
5.985700 1.198700
6.004400 1.190100
6.023100 1.183800
6.041800 1.175700
6.060500 1.170100
6.079200 1.163500
6.098000 1.158000
6.116700 1.153600
6.135400 1.150800
6.154100 1.149400
6.172800 1.149700
6.191500 1.147600
6.210200 1.143900
6.228900 1.142000
6.247600 1.146600
6.266300 1.156500
6.285000 1.167800
6.303700 1.181800
6.322400 1.196600
6.341100 1.215200
6.359800 1.239500
6.378500 1.263900
6.397200 1.289000
6.415900 1.307500
6.434700 1.327400
6.453400 1.398600
6.472100 1.454400
6.490800 1.492200
6.509500 1.479600
6.528200 1.502400
6.546900 1.559200
6.565600 1.611000
6.584300 1.636100
6.603000 1.672000
6.621700 1.687800
6.640400 1.696700
6.659100 1.704400
6.677800 1.704700
6.696500 1.701300
6.715200 1.690500
6.733900 1.682700
6.752600 1.659800
6.771400 1.615700
6.790100 1.547400
6.808800 1.490400
6.827500 1.437000
6.846200 1.401900
6.864900 1.380600
6.883600 1.371400
6.902300 1.369200
6.921000 1.366500
6.939700 1.362100
6.958400 1.356500
6.977100 1.352800
6.995800 1.351800
7.014500 1.352200
7.033200 1.351500
7.051900 1.348800
7.070600 1.345900
7.089300 1.342600
7.108100 1.338800
7.126800 1.332200
7.145500 1.320400
7.164200 1.305100
7.182900 1.292200
7.201600 1.276000
7.220300 1.257500
7.239000 1.239600
7.257700 1.221000
7.276400 1.200800
7.295100 1.177600
7.313800 1.156100
7.332500 1.145300
7.351200 1.135100
7.369900 1.125400
7.388600 1.115700
7.407300 1.105600
7.426000 1.096800
7.444800 1.090100
7.463500 1.087100
7.482200 1.087400
7.500900 1.088400
7.519600 1.092500
7.538300 1.104600
7.557000 1.128000
7.575700 1.161300
7.594400 1.138300
7.613100 1.113800
7.631800 1.088500
7.650500 1.059700
7.669200 1.018400
7.687900 0.995100
7.706600 0.990400
7.725300 0.991300
7.744000 0.997300
7.762700 1.025500
7.781500 1.106700
7.800200 1.184000
7.818900 1.267200
7.837600 1.400600
7.856300 1.622100
7.875000 1.597700
7.893700 1.553500
7.912400 1.531500
7.931100 1.512100
7.949800 1.557900
7.968500 1.541700
7.987200 1.559200
8.005900 1.544100
8.024600 1.525600
8.043300 1.500700
8.062000 1.490200
8.080700 1.526200
8.099400 1.641800
8.118200 1.788600
8.136900 2.067100
8.155600 2.493800
8.174300 2.730000
8.193000 3.005400
8.211700 3.227800
8.230400 3.331300
8.249100 3.164200
8.267800 2.799300
8.286500 2.554600
8.305200 2.374500
8.323900 2.280100
8.342600 2.194200
8.361300 2.131200
8.380000 2.047500
8.398700 2.035000
8.417400 1.973000
8.436100 1.981100
8.454900 2.033300
8.473600 2.151000
8.492300 2.404200
8.511000 2.400300
8.529700 2.272700
8.548400 2.144900
8.567100 2.107700
8.585800 2.155100
8.604500 2.232100
8.623200 2.314700
8.641900 2.395500
8.660600 2.465900
8.679300 2.643200
8.698000 2.738900
8.716700 2.725500
8.735400 2.708600
8.754100 2.707600
8.772800 2.660900
8.791600 2.645100
8.810300 2.553200
8.829000 2.523400
8.847700 2.582400
8.866400 2.518600
8.885100 2.455600
8.903800 2.413500
8.922500 2.373100
8.941200 2.353400
8.959900 2.320300
8.978600 2.304900
8.997300 2.304300
9.016000 2.167000
9.034700 2.069500
9.053400 2.022400
9.072100 2.012500
9.090800 2.039300
9.109500 2.124000
9.128300 2.243000
9.147000 2.256700
9.165700 2.249500
9.184400 2.242000
9.203100 2.263900
9.221800 2.323400
9.240500 2.403500
9.259200 2.452700
9.277900 2.490900
9.296600 2.528600
9.315300 2.556400
9.334000 2.614100
9.352700 2.649700
9.371400 2.652500
9.390100 2.615700
9.408800 2.498700
9.427500 2.322200
9.446200 2.229900
9.465000 2.187600
9.483700 2.157200
9.502400 2.131400
9.521100 2.101300
9.539800 2.066700
9.558500 2.050700
9.577200 2.022300
9.595900 1.993800
9.614600 1.980400
9.633300 2.022300
9.652000 2.093000
9.670700 2.185500
9.689400 2.281300
9.708100 2.443100
9.726800 2.478600
9.745500 2.543200
9.764200 2.611800
9.782900 2.687300
9.801700 2.768500
9.820400 2.858900
9.839100 2.943600
9.857800 3.009300
9.876500 3.068400
9.895200 3.125800
9.913900 3.184500
9.932600 3.218400
9.951300 3.267700
9.970000 3.319400
9.988700 3.358200
10.007400 3.382500
10.026100 3.471500
10.044800 3.589200
10.063500 3.672300
10.082200 3.726900
10.100900 3.593400
10.119600 3.420100
10.138400 3.273800
10.157100 3.127100
10.175800 3.130700
10.194500 2.956300
10.213200 2.829700
10.231900 2.755100
10.250600 2.648500
10.269300 2.666900
10.288000 2.723400
10.306700 2.856600
10.325400 3.049500
10.344100 3.593600
10.362800 4.109400
10.381500 4.473500
10.400200 4.615700
10.418900 4.818400
10.437600 5.085700
10.456300 5.509800
10.475100 5.925400
10.493800 6.012200
10.512500 5.934700
10.531200 5.417300
10.549900 5.009400
10.568600 4.896400
10.587300 4.656200
10.606000 4.333900
10.624700 3.987700
10.643400 3.647100
10.662100 3.428500
10.680800 3.359200
10.699500 3.315100
10.718200 3.295200
10.736900 3.259900
10.755600 3.467800
10.774300 3.502900
10.793000 3.577700
10.811800 3.748800
10.830500 4.015900
10.849200 4.258100
10.867900 4.114100
10.886600 4.292000
10.905300 4.377600
10.924000 4.292100
10.942700 4.491000
10.961400 4.593100
10.980100 4.619400
10.998800 4.722800
11.017500 4.756000
11.036200 4.814200
11.054900 4.788600
11.073600 4.699600
11.092300 4.721500
11.111000 4.713800
11.129700 4.714000
11.148500 4.761700
11.167200 4.592400
11.185900 4.237200
11.204600 3.920400
11.223300 3.749700
11.242000 3.612100
11.260700 3.465200
11.279400 3.277500
11.298100 3.108500
11.316800 2.714600
11.335500 2.481300
11.354200 2.365800
11.372900 2.389900
11.391600 2.494300
11.410300 2.567700
11.429000 2.591600
11.447700 2.681200
11.466400 2.789300
11.485200 2.920400
11.503900 3.078800
11.522600 3.270200
11.541300 3.419700
11.560000 3.659700
11.578700 4.031900
11.597400 4.493500
11.616100 4.605600
11.634800 4.558400
11.653500 4.607100
11.672200 4.431300
11.690900 4.229600
11.709600 4.129200
11.728300 3.888500
11.747000 3.837100
11.765700 3.866800
11.784400 3.787900
11.803100 3.902400
11.821900 3.973000
11.840600 3.951600
11.859300 4.173900
11.878000 4.288900
11.896700 4.288700
11.915400 4.305300
11.934100 4.266100
11.952800 4.231200
11.971500 4.342500
11.990200 4.491000
12.008900 4.742100
12.027600 4.771900
12.046300 4.698900
12.065000 4.614100
12.083700 4.580700
12.102400 4.631400
12.121100 4.636000
12.139800 4.648100
12.158600 4.708700
12.177300 4.720800
12.196000 4.651400
12.214700 4.560200
12.233400 4.505400
12.252100 4.311700
12.270800 4.067200
12.289500 4.064300
12.308200 4.119400
12.326900 4.165800
12.345600 4.183300
12.364300 4.218500
12.383000 4.068000
12.401700 4.049400
12.420400 4.047000
12.439100 4.067200
12.457800 4.109100
12.476500 4.207600
12.495300 4.127500
12.514000 4.162400
12.532700 4.203700
12.551400 4.149900
12.570100 4.082500
12.588800 4.020500
12.607500 4.078600
12.626200 3.917800
12.644900 3.698900
12.663600 3.564700
12.682300 3.569700
12.701000 3.622000
12.719700 3.753900
12.738400 3.790200
12.757100 3.904400
12.775800 4.057500
12.794500 4.119600
12.813200 4.143800
12.832000 4.061700
12.850700 4.139100
12.869400 4.220000
12.888100 4.275400
12.906800 4.306900
12.925500 4.320500
12.944200 4.518400
12.962900 4.754400
12.981600 4.727300
13.000300 4.659900
13.019000 4.707100
13.037700 4.866000
13.056400 4.972800
13.075100 4.657700
13.093800 4.434200
13.112500 4.186500
13.131200 4.119400
13.149900 4.074500
13.168700 3.923700
13.187400 3.818100
13.206100 3.791000
13.224800 3.758000
13.243500 3.648000
13.262200 3.552100
13.280900 3.528500
13.299600 3.589400
13.318300 3.703600
13.337000 3.696400
13.355700 3.901900
13.374400 3.810500
13.393100 3.915800
13.411800 3.994700
13.430500 4.168200
13.449200 4.326200
13.467900 4.477700
13.486600 4.650100
13.505400 4.845600
13.524100 4.787800
13.542800 4.762400
13.561500 4.758400
13.580200 4.716600
13.598900 4.551500
13.617600 4.347600
13.636300 4.185800
13.655000 4.067100
13.673700 4.087700
13.692400 4.015800
13.711100 3.990800
13.729800 4.012500
13.748500 3.965500
13.767200 3.873900
13.785900 3.834900
13.804600 3.859800
13.823300 3.758500
13.842100 3.673400
13.860800 3.628500
13.879500 3.639100
13.898200 3.613000
13.916900 3.590400
13.935600 3.547000
13.954300 3.590600
13.973000 3.628500
13.991700 3.613100
14.010400 3.617000
14.029100 3.594400
14.047800 3.578900
14.066500 3.593400
14.085200 3.700800
14.103900 3.909800
14.122600 4.156100
14.141300 4.352800
14.160000 4.470900
14.178800 4.539800
14.197500 4.518900
14.216200 4.506000
14.234900 4.602600
14.253600 4.715700
14.272300 4.804500
14.291000 4.741900
14.309700 4.573700
14.328400 4.407400
14.347100 4.190900
14.365800 3.900200
14.384500 3.737300
14.403200 3.644900
14.421900 3.543300
14.440600 3.418900
14.459300 3.328200
14.478000 3.264200
14.496800 3.319500
14.515500 3.538200
14.534200 3.679900
14.552900 3.785900
14.571600 3.895900
14.590300 4.029200
14.609000 4.291100
14.627700 4.534500
14.646400 4.779500
14.665100 5.003700
14.683800 4.961300
14.702500 4.748700
14.721200 4.594000
14.739900 4.442500
14.758600 4.227600
14.777300 4.060000
14.796000 4.087400
14.814700 4.190700
14.833500 4.151700
14.852200 4.107200
14.870900 4.112600
14.889600 4.017900
14.908300 3.995200
14.927000 4.023800
14.945700 3.828800
14.964400 3.576200
14.983100 3.267400
15.001800 3.026400
15.020500 3.083300
15.039200 3.238600
15.057900 3.347200
15.076600 3.418500
15.095300 3.566800
15.114000 3.722100
15.132700 3.888600
15.151400 4.180600
15.170200 4.408800
15.188900 4.546300
15.207600 4.483800
15.226300 4.510900
15.245000 4.577600
15.263700 4.689000
15.282400 4.523800
15.301100 4.508800
15.319800 4.562200
15.338500 4.041000
15.357200 3.791400
15.375900 3.557000
15.394600 3.373500
15.413300 3.354700
15.432000 3.358400
15.450700 3.333700
15.469400 3.379400
15.488100 3.486700
15.506900 3.622600
15.525600 3.660000
15.544300 3.653700
15.563000 3.616200
15.581700 3.646900
15.600400 3.739100
15.619100 3.909400
15.637800 4.098800
15.656500 4.423700
15.675200 4.537900
15.693900 4.379600
15.712600 4.226600
15.731300 4.081500
15.750000 3.934100
15.768700 3.731300
15.787400 3.691400
15.806100 3.695800
15.824800 3.756400
15.843600 3.828100
15.862300 3.975100
15.881000 4.070800
15.899700 4.459100
15.918400 4.257000
15.937100 3.927900
15.955800 3.443600
15.974500 3.498700
15.993200 3.551800
16.011900 3.531500
16.030600 3.578500
16.049300 3.606100
16.068000 3.617500
16.086700 3.652700
16.105400 3.701600
16.124100 3.759400
16.142800 3.795800
16.161500 4.029500
16.180300 4.087100
16.199000 4.231300
16.217700 4.253700
16.236400 4.289500
16.255100 4.321800
16.273800 4.359200
16.292500 4.474800
16.311200 4.519600
16.329900 4.681500
16.348600 4.995900
16.367300 4.893100
16.386000 4.757400
16.404700 4.498700
16.423400 4.245600
16.442100 3.770800
16.460800 3.615400
16.479500 3.453700
16.498200 3.369100
16.517000 3.303200
16.535700 3.217200
16.554400 3.283400
16.573100 3.441200
16.591800 3.555600
16.610500 3.626500
16.629200 3.706800
16.647900 3.933200
16.666600 3.932700
16.685300 3.812500
16.704000 3.721500
16.722700 3.696200
16.741400 3.753600
16.760100 3.878900
16.778800 4.047200
16.797500 4.399200
16.816200 4.705700
16.834900 5.101700
16.853700 5.263700
16.872400 5.478600
16.891100 5.543200
16.909800 5.461600
16.928500 5.150700
16.947200 4.950400
16.965900 4.598900
16.984600 4.390700
17.003300 4.154400
17.022000 4.124800
17.040700 4.132700
17.059400 4.193800
17.078100 4.285900
17.096800 4.321400
17.115500 4.376400
17.134200 4.391600
17.152900 4.424100
17.171600 4.451900
17.190400 4.255400
17.209100 4.051200
17.227800 4.033400
17.246500 3.865200
17.265200 3.878100
17.283900 3.926900
17.302600 3.883300
17.321300 3.792300
17.340000 3.722000
17.358700 3.758100
17.377400 3.766200
17.396100 3.743600
17.414800 3.697700
17.433500 3.682000
17.452200 3.662100
17.470900 3.691200
17.489600 3.709000
17.508300 3.614700
17.527100 3.429600
17.545800 3.467200
17.564500 3.503100
17.583200 3.604200
17.601900 3.734800
17.620600 3.803100
17.639300 3.832400
17.658000 3.790300
17.676700 3.899300
17.695400 4.033200
17.714100 4.245200
17.732800 4.497200
17.751500 4.642000
17.770200 4.690000
17.788900 4.707300
17.807600 4.780900
17.826300 4.770200
17.845000 4.757800
17.863800 4.636200
17.882500 4.494200
17.901200 4.341300
17.919900 4.056600
17.938600 3.811500
17.957300 3.542700
17.976000 3.171000
17.994700 2.919500
18.013400 2.893300
18.032100 2.967300
18.050800 3.117100
18.069500 3.285900
18.088200 3.462300
18.106900 3.704600
18.125600 4.059300
18.144300 4.457900
18.163000 4.570900
18.181700 4.752900
18.200500 4.651100
18.219200 4.574800
18.237900 4.458200
18.256600 4.373300
18.275300 4.244600
18.294000 4.167000
18.312700 4.224500
18.331400 4.255100
18.350100 4.243200
18.368800 4.145900
18.387500 4.100200
18.406200 3.994900
18.424900 4.074500
18.443600 3.969200
18.462300 3.916300
18.481000 3.870400
18.499700 3.825800
18.518400 3.832600
18.537200 3.990900
18.555900 4.176300
18.574600 4.377300
18.593300 4.343100
18.612000 4.384900
18.630700 4.445400
18.649400 4.547000
18.668100 4.638600
18.686800 4.654000
18.705500 4.368100
18.724200 4.289700
18.742900 4.409100
18.761600 4.459900
18.780300 4.532800
18.799000 4.773800
18.817700 4.710300
18.836400 4.569500
18.855100 4.440600
18.873900 4.416300
18.892600 4.200200
18.911300 4.043100
18.930000 3.899500
18.948700 3.825200
18.967400 3.776500
18.986100 3.747800
19.004800 3.732600
19.023500 3.755500
19.042200 3.759200
19.060900 3.825000
19.079600 3.854100
19.098300 3.887300
19.117000 3.914400
19.135700 4.040500
19.154400 4.106700
19.173100 4.262400
19.191800 4.420900
19.210600 4.536500
19.229300 4.562700
19.248000 4.587800
19.266700 4.721900
19.285400 4.623900
19.304100 4.550300
19.322800 4.456100
19.341500 4.408400
19.360200 4.254400
19.378900 4.246200
19.397600 4.306500
19.416300 4.246700
19.435000 4.213700
19.453700 4.238000
19.472400 4.203600
19.491100 4.144400
19.509800 4.142700
19.528500 4.250400
19.547300 4.085300
19.566000 3.999900
19.584700 3.935600
19.603400 3.875600
19.622100 3.791200
19.640800 3.712200
19.659500 3.654800
19.678200 3.658500
19.696900 3.581400
19.715600 3.469000
19.734300 3.454900
19.753000 3.416800
19.771700 3.444200
19.790400 3.460500
19.809100 3.543300
19.827800 3.727700
19.846500 3.820600
19.865200 3.844800
19.884000 3.922900
19.902700 3.969600
19.921400 4.035900
19.940100 4.124900
19.958800 4.232400
19.977500 4.278800
19.996200 4.406800
20.014900 4.431300
20.033600 4.464600
20.052300 4.565300
20.071000 4.671600
20.089700 4.788400
20.108400 4.741700
20.127100 4.740400
20.145800 4.509400
20.164500 4.243800
20.183200 4.015700
20.201900 3.956100
20.220700 3.956400
20.239400 3.875600
20.258100 3.820400
20.276800 3.750100
20.295500 3.765100
20.314200 3.736300
20.332900 3.700900
20.351600 3.702600
20.370300 3.763700
20.389000 3.850600
20.407700 3.872500
20.426400 3.816000
20.445100 3.738500
20.463800 3.741900
20.482500 3.845500
20.501200 4.147100
20.519900 4.179300
20.538600 4.176900
20.557400 4.147800
20.576100 3.927900
20.594800 3.769400
20.613500 3.630400
20.632200 3.526600
20.650900 3.540200
20.669600 3.640700
20.688300 3.841000
20.707000 4.387000
20.725700 4.624400
20.744400 4.805800
20.763100 4.872200
20.781800 5.066300
20.800500 4.889500
20.819200 4.857700
20.837900 4.803300
20.856600 4.701000
20.875300 4.640700
20.894100 4.503100
20.912800 4.361200
20.931500 4.286700
20.950200 4.180900
20.968900 4.183400
20.987600 4.156400
21.006300 4.162900
21.025000 4.194000
21.043700 4.280200
21.062400 4.447400
21.081100 4.766100
21.099800 4.504500
21.118500 4.420800
21.137200 4.303200
21.155900 4.227300
21.174600 3.854800
21.193300 3.678400
21.212000 3.643000
21.230800 3.649800
21.249500 3.666500
21.268200 3.702800
21.286900 3.764600
21.305600 3.810600
21.324300 3.864700
21.343000 3.899200
21.361700 4.071500
21.380400 4.334300
21.399100 4.561600
21.417800 4.648500
21.436500 4.656500
21.455200 4.652000
21.473900 4.641000
21.492600 4.715200
21.511300 4.794900
21.530000 4.818200
21.548700 4.795900
21.567500 4.858900
21.586200 4.927500
21.604900 4.988100
21.623600 4.977300
21.642300 5.032000
21.661000 5.173500
21.679700 5.008700
21.698400 4.805700
21.717100 4.787700
21.735800 4.795400
21.754500 4.704000
21.773200 4.539400
21.791900 4.567000
21.810600 4.472400
21.829300 4.448400
21.848000 4.387700
21.866700 4.363600
21.885400 4.302000
21.904200 4.297800
21.922900 4.339600
21.941600 4.435900
21.960300 4.616400
21.979000 4.463800
21.997700 4.218100
22.016400 3.924300
22.035100 3.802900
22.053800 3.621800
22.072500 3.534200
22.091200 3.458700
22.109900 3.489000
22.128600 3.597000
22.147300 3.570600
22.166000 3.638800
22.184700 3.602400
22.203400 3.452300
22.222100 3.408700
22.240900 3.403100
22.259600 3.275700
22.278300 3.136600
22.297000 2.960700
22.315700 2.710800
22.334400 2.580700
22.353100 2.454000
22.371800 2.325900
22.390500 2.211500
22.409200 2.124100
22.427900 2.042100
22.446600 2.025800
22.465300 2.010600
22.484000 1.991600
22.502700 1.979800
22.521400 1.984500
22.540100 1.999600
22.558800 2.034400
22.577600 2.067000
22.596300 2.084700
22.615000 2.060400
22.633700 2.006200
22.652400 1.943100
22.671100 1.861700
22.689800 1.787600
22.708500 1.682900
22.727200 1.697000
22.745900 1.588100
22.764600 1.491800
22.783300 1.463300
22.802000 1.493600
22.820700 1.455900
22.839400 1.253700
22.858100 1.111300
22.876800 1.027200
22.895500 0.996100
22.914300 1.022700
22.933000 1.089600
22.951700 1.103900
22.970400 1.092700
22.989100 1.104300
23.007800 1.125300
23.026500 1.174900
23.045200 1.224600
23.063900 1.270600
23.082600 1.273300
23.101300 1.170400
23.120000 1.078200
23.138700 0.965100
23.157400 0.827600
23.176100 0.688700
23.194800 0.574900
23.213500 0.475500
23.232200 0.360500
23.251000 0.293200
23.269700 0.211000
23.288400 0.157400
23.307100 0.129800
23.325800 0.110200
23.344500 0.091700
23.363200 0.074300
23.381900 0.057800
23.400600 0.041700
23.419300 0.026900
23.438000 0.015400
23.456700 0.007000
23.475400 0.001900
23.494100 0.000000
23.512800 0.000000
23.531500 0.000000
23.550200 0.000000
23.569000 0.000000
23.587700 0.000000
23.606400 0.000000
23.625100 0.000000
23.643800 0.000000
23.662500 0.000000
23.681200 0.000000
23.699900 0.000000
23.718600 0.000000
23.737300 0.000000
23.756000 0.000000
23.774700 0.000000
23.793400 0.000000
23.812100 0.000000
23.830800 0.000000
23.849500 0.000000
23.868200 0.000000
23.886900 0.000000
23.905700 0.000000
23.924400 0.000000
23.943100 0.000000
23.961800 0.000000
23.980500 0.000000
23.999200 0.000000
24.017900 0.000000
24.036600 0.000000
24.055300 0.000000
24.074000 0.000000
24.092700 0.000000
24.111400 0.000000
24.130100 0.000000
24.148800 0.000000
24.167500 0.000000
24.186200 0.000000
24.204900 0.000000
24.223600 0.000000
24.242400 0.000000
24.261100 0.000000
24.279800 0.000000
24.298500 0.000000
24.317200 0.000000
24.335900 0.000000
24.354600 0.000000
24.373300 0.000000
24.392000 0.000000
24.410700 0.000000
24.429400 0.000000
24.448100 0.000000
24.466800 0.000000
24.485500 0.000000
24.504200 0.000000
24.522900 0.000000
24.541600 0.000000
24.560300 0.000000
24.579100 0.000000
24.597800 0.000000
24.616500 0.000000
24.635200 0.000000
24.653900 0.000000
24.672600 0.000000
24.691300 0.000000
24.710000 0.000000
24.728700 0.000000
24.747400 0.000000
24.766100 0.000000
24.784800 0.000000
24.803500 0.000000
24.822200 0.000000
24.840900 0.000000
24.859600 0.000000
24.878300 0.000000
24.897000 0.000000
24.915800 0.000000
24.934500 0.000000
24.953200 0.000000
24.971900 0.000000
24.990600 0.000000
25.009300 0.000000
25.028000 0.000000
25.046700 0.000000
25.065400 0.000000
25.084100 0.000000
25.102800 0.000000
25.121500 0.000000
25.140200 0.000000
25.158900 0.000000
25.177600 0.000000
25.196300 0.000000
e
