set title 'mp-1183643 - Density of States'
set xlabel 'Energy (eV)'
set ylabel 'DOS (states/eV)'
set grid
set xrange [-10:10]
set yrange [0:48.768]
set xzeroaxis lt -1
set terminal png size 800,600
set output 'mp-1183643_dos_gnuplot.png'
plot '-' using 1:2 with lines title 'DOS'
-6.522400 0.000000
-6.502400 0.000000
-6.482400 0.000000
-6.462400 0.000000
-6.442400 0.000000
-6.422400 0.000000
-6.402400 0.000000
-6.382400 0.000000
-6.362500 0.000000
-6.342500 0.000000
-6.322500 0.000000
-6.302500 0.000000
-6.282500 0.000000
-6.262500 0.000000
-6.242500 0.000000
-6.222500 0.000000
-6.202500 0.000000
-6.182500 0.000000
-6.162500 0.000000
-6.142500 0.000000
-6.122500 0.000000
-6.102500 0.000000
-6.082600 0.000000
-6.062600 0.000000
-6.042600 0.000000
-6.022600 0.000000
-6.002600 0.000000
-5.982600 0.000000
-5.962600 0.000000
-5.942600 0.000000
-5.922600 0.000000
-5.902600 0.000000
-5.882600 0.000000
-5.862600 0.000000
-5.842600 0.000000
-5.822700 0.000000
-5.802700 0.000000
-5.782700 0.000000
-5.762700 0.000000
-5.742700 0.000000
-5.722700 0.000000
-5.702700 0.000000
-5.682700 0.000000
-5.662700 0.000000
-5.642700 0.000000
-5.622700 0.000000
-5.602700 0.000000
-5.582700 0.000000
-5.562800 0.000000
-5.542800 0.000000
-5.522800 0.000000
-5.502800 0.000000
-5.482800 0.000000
-5.462800 0.000000
-5.442800 0.000000
-5.422800 0.000000
-5.402800 0.000000
-5.382800 0.000000
-5.362800 0.000000
-5.342800 0.000000
-5.322800 0.000000
-5.302800 0.000000
-5.282900 0.000000
-5.262900 0.000000
-5.242900 0.000000
-5.222900 0.000000
-5.202900 0.000000
-5.182900 0.000000
-5.162900 0.000000
-5.142900 0.000000
-5.122900 0.000000
-5.102900 0.000000
-5.082900 0.000000
-5.062900 0.000000
-5.042900 0.000000
-5.023000 0.000000
-5.003000 0.000000
-4.983000 0.000000
-4.963000 0.000000
-4.943000 0.000000
-4.923000 0.000000
-4.903000 0.000000
-4.883000 0.000000
-4.863000 0.000000
-4.843000 0.000000
-4.823000 0.000000
-4.803000 0.000000
-4.783000 0.000000
-4.763100 0.000000
-4.743100 0.000000
-4.723100 0.000000
-4.703100 0.000000
-4.683100 0.005500
-4.663100 0.020000
-4.643100 0.043800
-4.623100 0.076500
-4.603100 0.105700
-4.583100 0.141900
-4.563100 0.158000
-4.543100 0.177300
-4.523100 0.200700
-4.503100 0.693900
-4.483200 5.069200
-4.463200 6.991800
-4.443200 8.409600
-4.423200 10.749200
-4.403200 15.353700
-4.383200 27.517100
-4.363200 31.353900
-4.343200 40.170800
-4.323200 36.170700
-4.303200 34.194500
-4.283200 36.540400
-4.263200 35.601300
-4.243200 36.380400
-4.223300 34.077900
-4.203300 44.334800
-4.183300 19.002200
-4.163300 23.168100
-4.143300 10.528700
-4.123300 13.743800
-4.103300 13.868000
-4.083300 7.437300
-4.063300 5.607900
-4.043300 4.699800
-4.023300 0.352800
-4.003300 0.345300
-3.983300 0.344800
-3.963400 0.347900
-3.943400 0.351600
-3.923400 0.356100
-3.903400 0.361400
-3.883400 0.367400
-3.863400 0.372700
-3.843400 0.375700
-3.823400 0.378700
-3.803400 0.381800
-3.783400 0.385000
-3.763400 0.388400
-3.743400 0.391400
-3.723400 0.393800
-3.703400 0.397400
-3.683500 0.401400
-3.663500 0.405600
-3.643500 0.410000
-3.623500 0.414500
-3.603500 0.419100
-3.583500 0.423900
-3.563500 0.428800
-3.543500 0.433600
-3.523500 0.440000
-3.503500 0.445600
-3.483500 0.451300
-3.463500 0.457200
-3.443500 0.463200
-3.423600 0.469400
-3.403600 0.475900
-3.383600 0.482400
-3.363600 0.489100
-3.343600 0.495700
-3.323600 0.502500
-3.303600 0.509300
-3.283600 0.515800
-3.263600 0.522300
-3.243600 0.528100
-3.223600 0.533500
-3.203600 0.539300
-3.183600 0.545400
-3.163700 0.551500
-3.143700 0.557800
-3.123700 0.564300
-3.103700 0.571000
-3.083700 0.578000
-3.063700 0.585100
-3.043700 0.592400
-3.023700 0.600200
-3.003700 0.608200
-2.983700 0.616300
-2.963700 0.624500
-2.943700 0.632800
-2.923700 0.641100
-2.903700 0.649600
-2.883800 0.658300
-2.863800 0.667100
-2.843800 0.676000
-2.823800 0.686300
-2.803800 0.699100
-2.783800 0.712000
-2.763800 0.724900
-2.743800 0.738000
-2.723800 0.750800
-2.703800 0.763000
-2.683800 0.774800
-2.663800 0.793800
-2.643800 0.811400
-2.623900 0.824400
-2.603900 0.833800
-2.583900 0.839800
-2.563900 0.843500
-2.543900 0.845300
-2.523900 0.853900
-2.503900 0.864000
-2.483900 0.875500
-2.463900 0.888000
-2.443900 0.901400
-2.423900 0.915800
-2.403900 0.931000
-2.383900 0.947100
-2.364000 0.964100
-2.344000 0.986200
-2.324000 1.046300
-2.304000 1.117500
-2.284000 1.150300
-2.264000 1.197000
-2.244000 1.243300
-2.224000 1.288000
-2.204000 1.333700
-2.184000 1.381400
-2.164000 1.432700
-2.144000 1.486500
-2.124000 1.560400
-2.104000 1.618100
-2.084100 1.709100
-2.064100 1.818900
-2.044100 1.943400
-2.024100 2.091200
-2.004100 2.893800
-1.984100 4.226200
-1.964100 4.867100
-1.944100 2.631600
-1.924100 2.177100
-1.904100 1.901900
-1.884100 1.722500
-1.864100 1.586000
-1.844100 1.439000
-1.824200 1.424500
-1.804200 1.274200
-1.784200 1.110000
-1.764200 1.026800
-1.744200 1.004600
-1.724200 1.051300
-1.704200 1.229400
-1.684200 1.511200
-1.664200 1.724400
-1.644200 2.166100
-1.624200 2.780900
-1.604200 3.668900
-1.584200 3.951400
-1.564300 4.213100
-1.544300 4.421800
-1.524300 4.264600
-1.504300 4.267600
-1.484300 4.250700
-1.464300 4.209700
-1.444300 4.278900
-1.424300 4.393900
-1.404300 4.498700
-1.384300 4.666400
-1.364300 4.947500
-1.344300 5.790000
-1.324300 5.232100
-1.304300 5.181700
-1.284400 3.875800
-1.264400 3.769700
-1.244400 4.184300
-1.224400 5.063900
-1.204400 4.851400
-1.184400 4.726400
-1.164400 4.490400
-1.144400 4.512200
-1.124400 4.615300
-1.104400 4.483900
-1.084400 4.271800
-1.064400 5.440500
-1.044400 6.205500
-1.024500 5.351500
-1.004500 5.444200
-0.984500 5.590800
-0.964500 5.711200
-0.944500 5.973400
-0.924500 5.892200
-0.904500 6.269300
-0.884500 6.824300
-0.864500 6.900200
-0.844500 8.461500
-0.824500 10.330800
-0.804500 11.145000
-0.784500 14.085600
-0.764600 17.220200
-0.744600 15.378900
-0.724600 13.058300
-0.704600 11.556100
-0.684600 12.250900
-0.664600 11.963900
-0.644600 11.685600
-0.624600 11.902500
-0.604600 10.263900
-0.584600 10.028100
-0.564600 9.197300
-0.544600 8.949500
-0.524600 10.103600
-0.504600 10.205500
-0.484700 9.892700
-0.464700 9.692900
-0.444700 9.490000
-0.424700 8.287300
-0.404700 7.237800
-0.384700 6.605000
-0.364700 6.232600
-0.344700 6.453200
-0.324700 7.067500
-0.304700 7.409100
-0.284700 6.362200
-0.264700 5.748800
-0.244700 6.243600
-0.224800 6.215900
-0.204800 6.276700
-0.184800 6.829500
-0.164800 7.301600
-0.144800 8.029500
-0.124800 8.325800
-0.104800 9.123000
-0.084800 9.535800
-0.064800 7.639900
-0.044800 6.176600
-0.024800 6.162500
-0.004800 6.132200
0.015200 5.817600
0.035100 7.276100
0.055100 8.465300
0.075100 9.878400
0.095100 10.518600
0.115100 10.527900
0.135100 10.005400
0.155100 8.742700
0.175100 8.380400
0.195100 7.624400
0.215100 7.212600
0.235100 9.490900
0.255100 9.185400
0.275100 9.867500
0.295100 11.515400
0.315000 8.935100
0.335000 7.874100
0.355000 7.601000
0.375000 7.807600
0.395000 7.894300
0.415000 8.133500
0.435000 8.237800
0.455000 7.925400
0.475000 7.776000
0.495000 8.245200
0.515000 8.494600
0.535000 8.523200
0.555000 8.936400
0.574900 9.662500
0.594900 9.156400
0.614900 8.642300
0.634900 8.699500
0.654900 8.501000
0.674900 8.174200
0.694900 7.514400
0.714900 6.820200
0.734900 6.387100
0.754900 6.088900
0.774900 5.988100
0.794900 5.863700
0.814900 5.566200
0.834800 5.232800
0.854800 5.549100
0.874800 6.915200
0.894800 11.546400
0.914800 11.744100
0.934800 11.358800
0.954800 11.666800
0.974800 11.903800
0.994800 12.105700
1.014800 12.944700
1.034800 12.878500
1.054800 11.371700
1.074800 10.660000
1.094800 10.769800
1.114700 8.426400
1.134700 9.230800
1.154700 9.395900
1.174700 10.005200
1.194700 10.149500
1.214700 9.989600
1.234700 8.610200
1.254700 7.892900
1.274700 7.580900
1.294700 7.336900
1.314700 8.059600
1.334700 8.471500
1.354700 9.679500
1.374600 9.357000
1.394600 9.460200
1.414600 9.436200
1.434600 8.481400
1.454600 7.922200
1.474600 7.793200
1.494600 7.905700
1.514600 8.122600
1.534600 8.173000
1.554600 7.906200
1.574600 7.763500
1.594600 7.651100
1.614600 7.483200
1.634500 6.515600
1.654500 6.504000
1.674500 6.780700
1.694500 6.429800
1.714500 5.665300
1.734500 5.392100
1.754500 5.255900
1.774500 5.323400
1.794500 5.279400
1.814500 5.141500
1.834500 5.023500
1.854500 5.960400
1.874500 5.259700
1.894500 4.181700
1.914400 3.317500
1.934400 3.733800
1.954400 6.862100
1.974400 9.698200
1.994400 9.747500
2.014400 8.171800
2.034400 7.775000
2.054400 7.333200
2.074400 7.223700
2.094400 7.625100
2.114400 7.161700
2.134400 6.264600
2.154400 5.248700
2.174300 5.268600
2.194300 3.343000
2.214300 2.966900
2.234300 2.673400
2.254300 2.532000
2.274300 2.598800
2.294300 2.910600
2.314300 3.234500
2.334300 3.090700
2.354300 2.877200
2.374300 2.702400
2.394300 2.559200
2.414300 2.423500
2.434200 2.239800
2.454200 2.138900
2.474200 2.077500
2.494200 2.043800
2.514200 2.034600
2.534200 1.995500
2.554200 1.929200
2.574200 1.826500
2.594200 1.682300
2.614200 1.564800
2.634200 1.456100
2.654200 1.356700
2.674200 1.294900
2.694200 1.284400
2.714100 1.274500
2.734100 1.263200
2.754100 1.265300
2.774100 1.275100
2.794100 1.285100
2.814100 1.295400
2.834100 1.307000
2.854100 1.315700
2.874100 1.322100
2.894100 1.309200
2.914100 1.301000
2.934100 1.297000
2.954100 1.281000
2.974000 1.285200
2.994000 1.292300
3.014000 1.297600
3.034000 1.302700
3.054000 1.307600
3.074000 1.306900
3.094000 1.304300
3.114000 1.299900
3.134000 1.293000
3.154000 1.305500
3.174000 1.283700
3.194000 1.264000
3.214000 1.240300
3.233900 1.214100
3.253900 1.188000
3.273900 1.163700
3.293900 1.143100
3.313900 1.129600
3.333900 1.123300
3.353900 1.116000
3.373900 1.111300
3.393900 1.112600
3.413900 1.120700
3.433900 1.071900
3.453900 1.050100
3.473900 1.055800
3.493900 1.064800
3.513800 1.081600
3.533800 1.081200
3.553800 1.075300
3.573800 1.068400
3.593800 1.061400
3.613800 1.054600
3.633800 1.047300
3.653800 1.044100
3.673800 1.043900
3.693800 1.043800
3.713800 1.044900
3.733800 1.055300
3.753800 1.067300
3.773700 1.080000
3.793700 1.093100
3.813700 1.106400
3.833700 1.121300
3.853700 1.072400
3.873700 1.057700
3.893700 1.043100
3.913700 1.037800
3.933700 1.049500
3.953700 1.057500
3.973700 1.066700
3.993700 1.078700
4.013700 1.091000
4.033600 1.108900
4.053600 1.130400
4.073600 1.154700
4.093600 1.175000
4.113600 1.195500
4.133600 1.214300
4.153600 1.231400
4.173600 1.246700
4.193600 1.260500
4.213600 1.273400
4.233600 1.285200
4.253600 1.293600
4.273600 1.295700
4.293600 1.298600
4.313500 1.301600
4.333500 1.307100
4.353500 1.309000
4.373500 1.314500
4.393500 1.259600
4.413500 1.259500
4.433500 1.257600
4.453500 1.253000
4.473500 1.232500
4.493500 1.214700
4.513500 1.200700
4.533500 1.188700
4.553500 1.192800
4.573400 1.199800
4.593400 1.206000
4.613400 1.209600
4.633400 1.212900
4.653400 1.212400
4.673400 1.212900
4.693400 1.213800
4.713400 1.217700
4.733400 1.223200
4.753400 1.230800
4.773400 1.241300
4.793400 1.254600
4.813400 1.271500
4.833400 1.259900
4.853300 1.267100
4.873300 1.275100
4.893300 1.283200
4.913300 1.290100
4.933300 1.298000
4.953300 1.305700
4.973300 1.311700
4.993300 1.316100
5.013300 1.319300
5.033300 1.321600
5.053300 1.319000
5.073300 1.316200
5.093300 1.310600
5.113200 1.302400
5.133200 1.291300
5.153200 1.277600
5.173200 1.261800
5.193200 1.255500
5.213200 1.251600
5.233200 1.246300
5.253200 1.238700
5.273200 1.228400
5.293200 1.221500
5.313200 1.215800
5.333200 1.223700
5.353200 1.215700
5.373100 1.202900
5.393100 1.188700
5.413100 1.176800
5.433100 1.161100
5.453100 1.131600
5.473100 1.102700
5.493100 1.073900
5.513100 1.044900
5.533100 1.015700
5.553100 0.986000
5.573100 0.954300
5.593100 0.921900
5.613100 0.890800
5.633100 0.869000
5.653000 0.853400
5.673000 0.815600
5.693000 0.809200
5.713000 0.810600
5.733000 0.809300
5.753000 0.809600
5.773000 0.810800
5.793000 0.812300
5.813000 0.814000
5.833000 0.815700
5.853000 0.819500
5.873000 0.823600
5.893000 0.828100
5.912900 0.833000
5.932900 0.838700
5.952900 0.845700
5.972900 0.853900
5.992900 0.863500
6.012900 0.874800
6.032900 0.887900
6.052900 0.903000
6.072900 0.912200
6.092900 0.960000
6.112900 1.005500
6.132900 1.042800
6.152900 1.069300
6.172800 1.084600
6.192800 1.088400
6.212800 1.080600
6.232800 1.081900
6.252800 1.086700
6.272800 1.094600
6.292800 1.103900
6.312800 1.114100
6.332800 1.124100
6.352800 1.131400
6.372800 1.144500
6.392800 1.149900
6.412800 1.159300
6.432800 1.171200
6.452700 1.260300
6.472700 1.488400
6.492700 1.558400
6.512700 1.513700
6.532700 1.433300
6.552700 1.417300
6.572700 1.414000
6.592700 1.422800
6.612700 1.440500
6.632700 1.459800
6.652700 1.480400
6.672700 1.502900
6.692700 1.530200
6.712600 1.562700
6.732600 1.600300
6.752600 1.642200
6.772600 1.686600
6.792600 1.732800
6.812600 1.760800
6.832600 1.758400
6.852600 1.737100
6.872600 1.680300
6.892600 1.634500
6.912600 1.678400
6.932600 1.694800
6.952600 1.489500
6.972500 1.482900
6.992500 1.478900
7.012500 1.477700
7.032500 1.480700
7.052500 1.481600
7.072500 1.492400
7.092500 1.502700
7.112500 1.461300
7.132500 1.438500
7.152500 1.423900
7.172500 1.414600
7.192500 1.411700
7.212500 1.421400
7.232500 1.418900
7.252400 1.387200
7.272400 1.370600
7.292400 1.352900
7.312400 1.331600
7.332400 1.305600
7.352400 1.282000
7.372400 1.301000
7.392400 1.257100
7.412400 1.223800
7.432400 1.200300
7.452400 1.184000
7.472400 1.168600
7.492400 1.153800
7.512300 1.141300
7.532300 1.153500
7.552300 1.120400
7.572300 1.100000
7.592300 1.090500
7.612300 1.081900
7.632300 1.074000
7.652300 1.066600
7.672300 1.059300
7.692300 1.052000
7.712300 1.045100
7.732300 1.039200
7.752300 1.034600
7.772200 1.031600
7.792200 1.018500
7.812200 1.002900
7.832200 0.992400
7.852200 0.986700
7.872200 0.990500
7.892200 0.998100
7.912200 1.008300
7.932200 1.020000
7.952200 1.020000
7.972200 1.031000
7.992200 1.058900
8.012200 1.094600
8.032200 1.122100
8.052100 1.143300
8.072100 1.166600
8.092100 1.192200
8.112100 1.219900
8.132100 1.249800
8.152100 1.285800
8.172100 1.329100
8.192100 1.378000
8.212100 1.429900
8.232100 1.397300
8.252100 1.422000
8.272100 1.448000
8.292100 1.491800
8.312000 1.503300
8.332000 1.482500
8.352000 1.487700
8.372000 1.493200
8.392000 1.505500
8.412000 1.520300
8.432000 1.534100
8.452000 1.546700
8.472000 1.556200
8.492000 1.576100
8.512000 1.581700
8.532000 1.575700
8.552000 1.620900
8.571900 1.603600
8.591900 1.588900
8.611900 1.589200
8.631900 1.579700
8.651900 1.572200
8.671900 1.564300
8.691900 1.556100
8.711900 1.549500
8.731900 1.542700
8.751900 1.535300
8.771900 1.527400
8.791900 1.519600
8.811900 1.512300
8.831900 1.505800
8.851800 1.502000
8.871800 1.503100
8.891800 1.511100
8.911800 1.520800
8.931800 1.531300
8.951800 1.559600
8.971800 1.574200
8.991800 1.577700
9.011800 1.561400
9.031800 1.565000
9.051800 1.590500
9.071800 1.622300
9.091800 1.629400
9.111700 1.617800
9.131700 1.583500
9.151700 1.565900
9.171700 1.552700
9.191700 1.533200
9.211700 1.513800
9.231700 1.494100
9.251700 1.474800
9.271700 1.455600
9.291700 1.436700
9.311700 1.418900
9.331700 1.402300
9.351700 1.389100
9.371600 1.377400
9.391600 1.366900
9.411600 1.357400
9.431600 1.350300
9.451600 1.346900
9.471600 1.346100
9.491600 1.346200
9.511600 1.345200
9.531600 1.344400
9.551600 1.343900
9.571600 1.343700
9.591600 1.342800
9.611600 1.338600
9.631600 1.334400
9.651500 1.359100
9.671500 1.363300
9.691500 1.365000
9.711500 1.364200
9.731500 1.361400
9.751500 1.359600
9.771500 1.354400
9.791500 1.317400
9.811500 1.303800
9.831500 1.291900
9.851500 1.268600
9.871500 1.258300
9.891500 1.253700
9.911400 1.258000
9.931400 1.272800
9.951400 1.284600
9.971400 1.294700
9.991400 1.303600
10.011400 1.310300
10.031400 1.315400
10.051400 1.333800
10.071400 1.350800
10.091400 1.362200
10.111400 1.363600
10.131400 1.366500
10.151400 1.370900
10.171300 1.386900
10.191300 1.407300
10.211300 1.429100
10.231300 1.449200
10.251300 1.465000
10.271300 1.459900
10.291300 1.462300
10.311300 1.461200
10.331300 1.459300
10.351300 1.459700
10.371300 1.461200
10.391300 1.449500
10.411300 1.436400
10.431300 1.415900
10.451200 1.391900
10.471200 1.377400
10.491200 1.364600
10.511200 1.351700
10.531200 1.338200
10.551200 1.326500
10.571200 1.318600
10.591200 1.310700
10.611200 1.302700
10.631200 1.294600
10.651200 1.287200
10.671200 1.286600
10.691200 1.289700
10.711100 1.294600
10.731100 1.297700
10.751100 1.302800
10.771100 1.310800
10.791100 1.319800
10.811100 1.329200
10.831100 1.339300
10.851100 1.349800
10.871100 1.359300
10.891100 1.369100
10.911100 1.381000
10.931100 1.392600
10.951100 1.402800
10.971000 1.412200
10.991000 1.409000
11.011000 1.416000
11.031000 1.422900
11.051000 1.429900
11.071000 1.437000
11.091000 1.444100
11.111000 1.453900
11.131000 1.466100
11.151000 1.478000
11.171000 1.489800
11.191000 1.513500
11.211000 1.535700
11.231000 1.561700
11.250900 1.589800
11.270900 1.619700
11.290900 1.651200
11.310900 1.685700
11.330900 1.723000
11.350900 1.787200
11.370900 1.837500
11.390900 1.888200
11.410900 1.938100
11.430900 1.987000
11.450900 2.032200
11.470900 2.070500
11.490900 2.092600
11.510800 2.120400
11.530800 2.154800
11.550800 2.209400
11.570800 2.307300
11.590800 2.322500
11.610800 2.069300
11.630800 1.907600
11.650800 1.846700
11.670800 1.807800
11.690800 1.798500
11.710800 1.784400
11.730800 1.772000
11.750800 1.740700
11.770700 1.702500
11.790700 1.658100
11.810700 1.552400
11.830700 1.501500
11.850700 1.467300
11.870700 1.427100
11.890700 1.389000
11.910700 1.354300
11.930700 1.323800
11.950700 1.296300
11.970700 1.270300
11.990700 1.238100
12.010700 1.190700
12.030700 1.176300
12.050600 1.165100
12.070600 1.159700
12.090600 1.157500
12.110600 1.156600
12.130600 1.156900
12.150600 1.158100
12.170600 1.160400
12.190600 1.163600
12.210600 1.168000
12.230600 1.171900
12.250600 1.172300
12.270600 1.177000
12.290600 1.182900
12.310500 1.189900
12.330500 1.197500
12.350500 1.202500
12.370500 1.220800
12.390500 1.236600
12.410500 1.254200
12.430500 1.272400
12.450500 1.291400
12.470500 1.315700
12.490500 1.333400
12.510500 1.356500
12.530500 1.383500
12.550500 1.410200
12.570400 1.438100
12.590400 1.468000
12.610400 1.500100
12.630400 1.534100
12.650400 1.574200
12.670400 1.623000
12.690400 1.685400
12.710400 1.737700
12.730400 1.781700
12.750400 1.819800
12.770400 1.849000
12.790400 1.872900
12.810400 1.891200
12.830400 1.901900
12.850300 1.905000
12.870300 1.900400
12.890300 1.901600
12.910300 1.899800
12.930300 1.903600
12.950300 1.915500
12.970300 1.940500
12.990300 1.945500
13.010300 1.977300
13.030300 2.027600
13.050300 1.984400
13.070300 2.023100
13.090300 2.061600
13.110200 2.086100
13.130200 2.091300
13.150200 2.069600
13.170200 2.053200
13.190200 2.057200
13.210200 2.051500
13.230200 2.052300
13.250200 2.083800
13.270200 2.095200
13.290200 2.017100
13.310200 2.026700
13.330200 2.026800
13.350200 2.024400
13.370100 2.017700
13.390100 1.991100
13.410100 1.990300
13.430100 1.971600
13.450100 1.969400
13.470100 1.991700
13.490100 2.011200
13.510100 2.036600
13.530100 2.055700
13.550100 2.076400
13.570100 2.094700
13.590100 2.107800
13.610100 2.123200
13.630100 2.121100
13.650000 2.107400
13.670000 2.104900
13.690000 2.107400
13.710000 2.107300
13.730000 2.105700
13.750000 2.101300
13.770000 2.094700
13.790000 2.100900
13.810000 2.107300
13.830000 2.094600
13.850000 2.131700
13.870000 2.184400
13.890000 2.224700
13.909900 2.233000
13.929900 2.270800
13.949900 2.273500
13.969900 2.298500
13.989900 2.228100
14.009900 2.191800
14.029900 2.174500
14.049900 2.174500
14.069900 2.183900
14.089900 2.174400
14.109900 2.166900
14.129900 2.170500
14.149900 2.177100
14.169800 2.181900
14.189800 2.185200
14.209800 2.187000
14.229800 2.188300
14.249800 2.200000
14.269800 2.231700
14.289800 2.252100
14.309800 2.252000
14.329800 2.231800
14.349800 2.220400
14.369800 2.201200
14.389800 2.180800
14.409800 2.154900
14.429800 2.119500
14.449700 2.076700
14.469700 2.032900
14.489700 1.988400
14.509700 1.948000
14.529700 1.891500
14.549700 1.819200
14.569700 1.828700
14.589700 1.849300
14.609700 1.876800
14.629700 1.911700
14.649700 1.946100
14.669700 1.980900
14.689700 2.018400
14.709600 2.073200
14.729600 2.127400
14.749600 2.178400
14.769600 2.168500
14.789600 2.169800
14.809600 2.193600
14.829600 2.215100
14.849600 2.232200
14.869600 2.237300
14.889600 2.192200
14.909600 2.099500
14.929600 2.074200
14.949600 2.062400
14.969500 2.057800
14.989500 2.041400
15.009500 2.003300
15.029500 2.011300
15.049500 2.012800
15.069500 2.025500
15.089500 2.050300
15.109500 2.085200
15.129500 2.117400
15.149500 2.140600
15.169500 2.151700
15.189500 2.144200
15.209500 2.175600
15.229500 2.225100
15.249400 2.213300
15.269400 2.195800
15.289400 2.186000
15.309400 2.180800
15.329400 2.177100
15.349400 2.149400
15.369400 2.105600
15.389400 2.058200
15.409400 2.012000
15.429400 1.970700
15.449400 1.935100
15.469400 1.905100
15.489400 1.879700
15.509300 1.857200
15.529300 1.844300
15.549300 1.834900
15.569300 1.828100
15.589300 1.824300
15.609300 1.824700
15.629300 1.825900
15.649300 1.828100
15.669300 1.829300
15.689300 1.829700
15.709300 1.830200
15.729300 1.828600
15.749300 1.814800
15.769200 1.806800
15.789200 1.808700
15.809200 1.818300
15.829200 1.827100
15.849200 1.833100
15.869200 1.836800
15.889200 1.839200
15.909200 1.840500
15.929200 1.840700
15.949200 1.844200
15.969200 1.850600
15.989200 1.859900
16.009200 1.875200
16.029200 1.895100
16.049100 1.929100
16.069100 1.969600
16.089100 2.145300
16.109100 2.127500
16.129100 2.091200
16.149100 2.109300
16.169100 2.141200
16.189100 2.126900
16.209100 2.098800
16.229100 2.057100
16.249100 1.975800
16.269100 1.902400
16.289100 1.879300
16.309000 1.870600
16.329000 1.875200
16.349000 1.880200
16.369000 1.882000
16.389000 1.882000
16.409000 1.882000
16.429000 1.880800
16.449000 1.881100
16.469000 1.885000
16.489000 1.890500
16.509000 1.893200
16.529000 1.896200
16.549000 1.899900
16.568900 1.904800
16.588900 1.911100
16.608900 1.917700
16.628900 1.928500
16.648900 1.938400
16.668900 1.935600
16.688900 1.927100
16.708900 1.922000
16.728900 1.917600
16.748900 1.912600
16.768900 1.908700
16.788900 1.907800
16.808900 1.910300
16.828900 1.921000
16.848800 1.921700
16.868800 1.918100
16.888800 1.934000
16.908800 1.961700
16.928800 1.969400
16.948800 1.967200
16.968800 1.953200
16.988800 1.939100
17.008800 1.931400
17.028800 1.918900
17.048800 1.916300
17.068800 1.923800
17.088800 1.922800
17.108700 1.916100
17.128700 1.910700
17.148700 1.908900
17.168700 1.907800
17.188700 1.906800
17.208700 1.906800
17.228700 1.907600
17.248700 1.910100
17.268700 1.917600
17.288700 1.927700
17.308700 1.938100
17.328700 1.949500
17.348700 1.961700
17.368700 1.974200
17.388600 1.994600
17.408600 2.100400
17.428600 1.972900
17.448600 1.963000
17.468600 1.960100
17.488600 1.960100
17.508600 1.961400
17.528600 1.967700
17.548600 1.978700
17.568600 2.115000
17.588600 2.148500
17.608600 2.131000
17.628600 2.111300
17.648500 2.078900
17.668500 2.044500
17.688500 2.012800
17.708500 1.983400
17.728500 1.953700
17.748500 1.926100
17.768500 1.904100
17.788500 1.943400
17.808500 1.918600
17.828500 1.879400
17.848500 1.846300
17.868500 1.818100
17.888500 1.799400
17.908400 1.778300
17.928400 1.756600
17.948400 1.735400
17.968400 1.716300
17.988400 1.697400
18.008400 1.681300
18.028400 1.668600
18.048400 1.656300
18.068400 1.641100
18.088400 1.624100
18.108400 1.606700
18.128400 1.590200
18.148400 1.582400
18.168400 1.583100
18.188300 1.584900
18.208300 1.587200
18.228300 1.588800
18.248300 1.589800
18.268300 1.595600
18.288300 1.600900
18.308300 1.603200
18.328300 1.604100
18.348300 1.605500
18.368300 1.606400
18.388300 1.606700
18.408300 1.609200
18.428300 1.615700
18.448200 1.625200
18.468200 1.655800
18.488200 1.652300
18.508200 1.657500
18.528200 1.666500
18.548200 1.675100
18.568200 1.687500
18.588200 1.706200
18.608200 1.729800
18.628200 1.763300
18.648200 1.809600
18.668200 2.304600
18.688200 1.726200
18.708100 1.793300
18.728100 1.870900
18.748100 1.957000
18.768100 2.012600
18.788100 2.037200
18.808100 2.056900
18.828100 2.085700
18.848100 2.123400
18.868100 2.158400
18.888100 2.236700
18.908100 2.277000
18.928100 2.297700
18.948100 2.298800
18.968100 2.138800
18.988000 2.146200
19.008000 2.159500
19.028000 2.178600
19.048000 2.210800
19.068000 2.237900
19.088000 2.248400
19.108000 2.284300
19.128000 2.316600
19.148000 2.345800
19.168000 2.367300
19.188000 2.385300
19.208000 2.380800
19.228000 2.362200
19.247900 2.353300
19.267900 2.367200
19.287900 2.361400
19.307900 2.369700
19.327900 2.365100
19.347900 2.308600
19.367900 2.285900
19.387900 2.256000
19.407900 2.169300
19.427900 2.120700
19.447900 2.077100
19.467900 2.039300
19.487900 2.005400
19.507800 1.976000
19.527800 1.964100
19.547800 2.090400
19.567800 2.199100
19.587800 2.302600
19.607800 2.083800
19.627800 1.855100
19.647800 1.785500
19.667800 1.758600
19.687800 1.781300
19.707800 1.831500
19.727800 1.870400
19.747800 1.912900
19.767800 1.957500
19.787700 2.009300
19.807700 2.070200
19.827700 2.144700
19.847700 2.239700
19.867700 2.380100
19.887700 2.571900
19.907700 2.787400
19.927700 3.138000
19.947700 2.928600
19.967700 3.061700
19.987700 3.203300
20.007700 3.385300
20.027700 3.498900
20.047600 3.608300
20.067600 3.884200
20.087600 4.061300
20.107600 4.042400
20.127600 3.998500
20.147600 3.908200
20.167600 3.734500
20.187600 3.507800
20.207600 3.218400
20.227600 3.128700
20.247600 3.110900
20.267600 3.122800
20.287600 3.111400
20.307500 3.003600
20.327500 2.951100
20.347500 2.833000
20.367500 2.778500
20.387500 2.758300
20.407500 2.769700
20.427500 2.805900
20.447500 2.881300
20.467500 2.921700
20.487500 2.962100
20.507500 3.006200
20.527500 3.084100
20.547500 3.222900
20.567500 3.590100
20.587400 4.021200
20.607400 4.264300
20.627400 4.487400
20.647400 4.407400
20.667400 4.192000
20.687400 3.957700
20.707400 3.809800
20.727400 3.614000
20.747400 3.574900
20.767400 3.566500
20.787400 3.530300
20.807400 3.527700
20.827400 3.540800
20.847300 3.545700
20.867300 3.509300
20.887300 3.442300
20.907300 3.352400
20.927300 3.272700
20.947300 3.199800
20.967300 3.146400
20.987300 3.111200
21.007300 3.074500
21.027300 3.007600
21.047300 2.933900
21.067300 2.883700
21.087300 2.836300
21.107200 2.776500
21.127200 2.734500
21.147200 2.716800
21.167200 2.818300
21.187200 2.911100
21.207200 3.047700
21.227200 3.094600
21.247200 3.128700
21.267200 3.176500
21.287200 3.230700
21.307200 3.274400
21.327200 3.269200
21.347200 3.213500
21.367200 3.135900
21.387100 3.121800
21.407100 3.108900
21.427100 3.051600
21.447100 3.027900
21.467100 3.033900
21.487100 3.053900
21.507100 3.106900
21.527100 3.122700
21.547100 3.134000
21.567100 3.143500
21.587100 3.151800
21.607100 3.132800
21.627100 3.125200
21.647000 3.117400
21.667000 3.117500
21.687000 3.115400
21.707000 3.082200
21.727000 3.028100
21.747000 2.984200
21.767000 2.954600
21.787000 2.940900
21.807000 2.935800
21.827000 2.910900
21.847000 2.900700
21.867000 2.895400
21.887000 2.884200
21.906900 2.871500
21.926900 2.851000
21.946900 2.826200
21.966900 2.881600
21.986900 2.858200
22.006900 2.838800
22.026900 2.822300
22.046900 2.885900
22.066900 2.928900
22.086900 2.972200
22.106900 3.035900
22.126900 3.025200
22.146900 3.020200
22.166900 2.991800
22.186800 2.945300
22.206800 2.910800
22.226800 2.792800
22.246800 2.686600
22.266800 2.585000
22.286800 2.451500
22.306800 2.398400
22.326800 2.363700
22.346800 2.339000
22.366800 2.320600
22.386800 2.313000
22.406800 2.317200
22.426800 2.316900
22.446700 2.317900
22.466700 2.322200
22.486700 2.330000
22.506700 2.340700
22.526700 2.357700
22.546700 2.382300
22.566700 2.382300
22.586700 2.269700
22.606700 2.253200
22.626700 2.272800
22.646700 2.263600
22.666700 2.250300
22.686700 2.222200
22.706600 2.188400
22.726600 2.161600
22.746600 2.140800
22.766600 2.122000
22.786600 2.110600
22.806600 2.085800
22.826600 2.065000
22.846600 2.055500
22.866600 2.048400
22.886600 2.046200
22.906600 2.046700
22.926600 2.048700
22.946600 2.053100
22.966600 2.062800
22.986500 2.094700
23.006500 2.099600
23.026500 2.116100
23.046500 2.115500
23.066500 2.112000
23.086500 2.110800
23.106500 2.112200
23.126500 2.123500
23.146500 2.133900
23.166500 2.169000
23.186500 2.224600
23.206500 2.253500
23.226500 2.228000
23.246400 2.160000
23.266400 2.112000
23.286400 2.076600
23.306400 2.047400
23.326400 2.019200
23.346400 1.991000
23.366400 1.964700
23.386400 1.937600
23.406400 1.911000
23.426400 1.884900
23.446400 1.858000
23.466400 1.853800
23.486400 1.815400
23.506300 1.780600
23.526300 1.756200
23.546300 1.882500
23.566300 1.809400
23.586300 1.672000
23.606300 1.592100
23.626300 1.547700
23.646300 1.519300
23.666300 1.501700
23.686300 1.493700
23.706300 1.494100
23.726300 1.500500
23.746300 1.508200
23.766300 1.498000
23.786200 1.490300
23.806200 1.472800
23.826200 1.421400
23.846200 1.410500
23.866200 1.401500
23.886200 1.393600
23.906200 1.386600
23.926200 1.380500
23.946200 1.375400
23.966200 1.371200
23.986200 1.368100
24.006200 1.367000
24.026200 1.371400
24.046100 1.380000
24.066100 1.402100
24.086100 1.422700
24.106100 1.442000
24.126100 1.459400
24.146100 1.475500
24.166100 1.493200
24.186100 1.512100
24.206100 1.530600
24.226100 1.547000
24.246100 1.557900
24.266100 1.559800
24.286100 1.560600
24.306000 1.577300
24.326000 1.620400
24.346000 1.627200
24.366000 1.627500
24.386000 1.625900
24.406000 1.615500
24.426000 1.620700
24.446000 1.627100
24.466000 1.633500
24.486000 1.638900
24.506000 1.644200
24.526000 1.649300
24.546000 1.654200
24.566000 1.658700
24.585900 1.662500
24.605900 1.668100
24.625900 1.675500
24.645900 1.684600
24.665900 1.693800
24.685900 1.703800
24.705900 1.715000
24.725900 1.743100
24.745900 1.805600
24.765900 1.876000
24.785900 1.900800
24.805900 1.886600
24.825900 1.883200
24.845800 1.881500
24.865800 1.939700
24.885800 1.928800
24.905800 1.951200
24.925800 1.964000
24.945800 1.928100
24.965800 1.927700
24.985800 1.916200
25.005800 1.917600
25.025800 1.922900
25.045800 1.952400
25.065800 1.973800
25.085800 1.970400
25.105700 1.963600
25.125700 1.920100
25.145700 1.915700
25.165700 1.911500
25.185700 1.919200
25.205700 1.951700
25.225700 1.965300
25.245700 1.969900
25.265700 1.968000
25.285700 2.026000
25.305700 1.925500
25.325700 1.907900
25.345700 1.906700
25.365700 1.902100
25.385600 1.880300
25.405600 1.872900
25.425600 1.878400
25.445600 1.873300
25.465600 1.881900
25.485600 1.896700
25.505600 2.000700
25.525600 1.892900
25.545600 1.899000
25.565600 1.905100
25.585600 1.913200
25.605600 1.922100
25.625600 1.969000
25.645500 2.026800
25.665500 2.057000
25.685500 2.093400
25.705500 2.141200
25.725500 2.190600
25.745500 2.228100
25.765500 2.264400
25.785500 2.308200
25.805500 2.459800
25.825500 2.519200
25.845500 2.591900
25.865500 2.529100
25.885500 2.492000
25.905400 2.397200
25.925400 2.328800
25.945400 2.284200
25.965400 2.237000
25.985400 2.196700
26.005400 2.241200
26.025400 2.314100
26.045400 2.661400
26.065400 2.563100
26.085400 2.530100
26.105400 2.609300
26.125400 2.684800
26.145400 2.695200
26.165400 2.730500
26.185300 2.659000
26.205300 2.708800
26.225300 2.788400
26.245300 2.919000
26.265300 2.571300
26.285300 2.566700
26.305300 2.582100
26.325300 2.634800
26.345300 2.618500
26.365300 2.713300
26.385300 2.756100
26.405300 2.776600
26.425300 2.939200
26.445200 2.984500
26.465200 2.974600
26.485200 2.919600
26.505200 2.870500
26.525200 2.715400
26.545200 2.615800
26.565200 2.556300
26.585200 2.498400
26.605200 2.451100
26.625200 2.375300
26.645200 2.335900
26.665200 2.296300
26.685200 2.279900
26.705100 2.348500
26.725100 2.394800
26.745100 2.432500
26.765100 2.473700
26.785100 2.517000
26.805100 2.559600
26.825100 2.596000
26.845100 2.743200
26.865100 2.801700
26.885100 2.606100
26.905100 2.544200
26.925100 2.441500
26.945100 2.420200
26.965100 2.465700
26.985000 2.474000
27.005000 2.737800
27.025000 2.730900
27.045000 2.693700
27.065000 2.665100
27.085000 2.575700
27.105000 2.514700
27.125000 2.497800
27.145000 2.495200
27.165000 2.493900
27.185000 2.493200
27.205000 2.496500
27.225000 2.498100
27.244900 2.517200
27.264900 2.551000
27.284900 2.488900
27.304900 2.463800
27.324900 2.484600
27.344900 2.556600
27.364900 2.560700
27.384900 2.602000
27.404900 2.632400
27.424900 2.671500
27.444900 2.705100
27.464900 2.711700
27.484900 2.741900
27.504800 2.732500
27.524800 2.731600
27.544800 2.734500
27.564800 2.675300
27.584800 2.683000
27.604800 2.764100
27.624800 2.968300
27.644800 2.818800
27.664800 2.702600
27.684800 2.680000
27.704800 2.691500
27.724800 2.598400
27.744800 2.591000
27.764800 2.603400
27.784700 2.630300
27.804700 2.690300
27.824700 2.832100
27.844700 2.808000
27.864700 2.635700
27.884700 2.609400
27.904700 2.612300
27.924700 2.614100
27.944700 2.611700
27.964700 2.606100
27.984700 2.595300
28.004700 2.607900
28.024700 2.604400
28.044600 2.590600
28.064600 2.579200
28.084600 2.571700
28.104600 2.506300
28.124600 2.540500
28.144600 2.621600
28.164600 2.680000
28.184600 2.731200
28.204600 2.787800
28.224600 2.860000
28.244600 2.989000
28.264600 3.174200
28.284600 3.372600
28.304500 3.503700
28.324500 3.600900
28.344500 3.738400
28.364500 3.734700
28.384500 3.738100
28.404500 3.721500
28.424500 3.641200
28.444500 3.535700
28.464500 3.467700
28.484500 3.417100
28.504500 3.305300
28.524500 3.212600
28.544500 3.196500
28.564500 3.197500
28.584400 3.188500
28.604400 3.151700
28.624400 3.116100
28.644400 3.065700
28.664400 3.113000
28.684400 3.084300
28.704400 3.001100
28.724400 3.177200
28.744400 3.174600
28.764400 3.130400
28.784400 3.213800
28.804400 3.393300
28.824400 3.439300
28.844300 3.453100
28.864300 3.434600
28.884300 3.411800
28.904300 3.402100
28.924300 3.392300
28.944300 3.436700
28.964300 3.530800
28.984300 3.531000
29.004300 3.578800
29.024300 3.561500
29.044300 3.550400
29.064300 3.548800
29.084300 3.537700
29.104200 3.572800
29.124200 3.586500
29.144200 3.568600
29.164200 3.525200
29.184200 3.617200
29.204200 3.719000
29.224200 3.429600
29.244200 3.263600
29.264200 3.179400
29.284200 3.115100
29.304200 2.958500
29.324200 2.867100
29.344200 2.759300
29.364200 2.667200
29.384100 2.595800
29.404100 2.527900
29.424100 2.459800
29.444100 2.397800
29.464100 2.337000
29.484100 2.264200
29.504100 2.213200
29.524100 2.165900
29.544100 2.117000
29.564100 2.125300
29.584100 2.000000
29.604100 1.810100
29.624100 1.743500
29.644000 1.713100
29.664000 1.641700
29.684000 1.570700
29.704000 1.503700
29.724000 1.422000
29.744000 1.342400
29.764000 1.273000
29.784000 1.213800
29.804000 1.163700
29.824000 1.120900
29.844000 1.078100
29.864000 1.036600
29.884000 1.006900
29.904000 0.942400
29.923900 0.873600
29.943900 0.819700
29.963900 0.768600
29.983900 0.734300
30.003900 0.700700
30.023900 0.671900
30.043900 0.650400
30.063900 0.605400
30.083900 0.572600
30.103900 0.551600
30.123900 0.533800
30.143900 0.516500
30.163900 0.499600
30.183800 0.483200
30.203800 0.468400
30.223800 0.454000
30.243800 0.439600
30.263800 0.425500
30.283800 0.411500
30.303800 0.398000
30.323800 0.386200
30.343800 0.375300
30.363800 0.365300
30.383800 0.356200
30.403800 0.348000
30.423800 0.339200
30.443700 0.330500
30.463700 0.324500
30.483700 0.321300
30.503700 0.314500
30.523700 0.302100
30.543700 0.290900
30.563700 0.281200
30.583700 0.378800
30.603700 0.299800
30.623700 0.292600
30.643700 0.284800
30.663700 0.267800
30.683700 0.241200
30.703700 0.214900
30.723600 0.198900
30.743600 0.187700
30.763600 0.180900
30.783600 0.174700
30.803600 0.168400
30.823600 0.162100
30.843600 0.155700
30.863600 0.149300
30.883600 0.143000
30.903600 0.137400
30.923600 0.131800
30.943600 0.126000
30.963600 0.120700
30.983500 0.120600
31.003500 0.114600
31.023500 0.104700
31.043500 0.095600
31.063500 0.087700
31.083500 0.081000
31.103500 0.075300
31.123500 0.070900
31.143500 0.067500
31.163500 0.064200
31.183500 0.059500
31.203500 0.054900
31.223500 0.050500
31.243400 0.046300
31.263400 0.042200
31.283400 0.038300
31.303400 0.034600
31.323400 0.031100
31.343400 0.027700
31.363400 0.024500
31.383400 0.021400
31.403400 0.018600
31.423400 0.015900
31.443400 0.013300
31.463400 0.011000
31.483400 0.008800
31.503400 0.006700
31.523300 0.005000
31.543300 0.003500
31.563300 0.002200
31.583300 0.001300
31.603300 0.000600
31.623300 0.000200
31.643300 0.000000
31.663300 0.000000
31.683300 0.000000
31.703300 0.000000
31.723300 0.000000
31.743300 0.000000
31.763300 0.000000
31.783200 0.000000
31.803200 0.000000
31.823200 0.000000
31.843200 0.000000
31.863200 0.000000
31.883200 0.000000
31.903200 0.000000
31.923200 0.000000
31.943200 0.000000
31.963200 0.000000
31.983200 0.000000
32.003200 0.000000
32.023200 0.000000
32.043100 0.000000
32.063100 0.000000
32.083100 0.000000
32.103100 0.000000
32.123100 0.000000
32.143100 0.000000
32.163100 0.000000
32.183100 0.000000
32.203100 0.000000
32.223100 0.000000
32.243100 0.000000
32.263100 0.000000
32.283100 0.000000
32.303100 0.000000
32.323000 0.000000
32.343000 0.000000
32.363000 0.000000
32.383000 0.000000
32.403000 0.000000
32.423000 0.000000
32.443000 0.000000
32.463000 0.000000
32.483000 0.000000
32.503000 0.000000
32.523000 0.000000
32.543000 0.000000
32.563000 0.000000
32.582900 0.000000
32.602900 0.000000
32.622900 0.000000
32.642900 0.000000
32.662900 0.000000
32.682900 0.000000
32.702900 0.000000
32.722900 0.000000
32.742900 0.000000
32.762900 0.000000
32.782900 0.000000
32.802900 0.000000
32.822900 0.000000
32.842800 0.000000
32.862800 0.000000
32.882800 0.000000
32.902800 0.000000
32.922800 0.000000
32.942800 0.000000
32.962800 0.000000
32.982800 0.000000
33.002800 0.000000
33.022800 0.000000
33.042800 0.000000
33.062800 0.000000
33.082800 0.000000
33.102800 0.000000
33.122700 0.000000
33.142700 0.000000
33.162700 0.000000
33.182700 0.000000
33.202700 0.000000
33.222700 0.000000
33.242700 0.000000
33.262700 0.000000
33.282700 0.000000
33.302700 0.000000
33.322700 0.000000
33.342700 0.000000
33.362700 0.000000
33.382600 0.000000
33.402600 0.000000
33.422600 0.000000
33.442600 0.000000
33.462600 0.000000
e
