set title 'mp-672673 - Density of States'
set xlabel 'Energy (eV)'
set ylabel 'DOS (states/eV)'
set grid
set xrange [-10:10]
set yrange [0:64.493]
set xzeroaxis lt -1
set terminal png size 800,600
set output 'mp-672673_dos_gnuplot.png'
plot '-' using 1:2 with lines title 'DOS'
-15.135400 0.000000
-15.121800 0.000000
-15.108200 0.000000
-15.094700 0.000000
-15.081100 0.000000
-15.067600 0.000000
-15.054000 0.000000
-15.040500 0.000000
-15.026900 0.000000
-15.013400 0.000000
-14.999800 0.000000
-14.986200 0.000000
-14.972700 0.000000
-14.959100 0.000000
-14.945600 0.000000
-14.932000 0.000000
-14.918500 0.000000
-14.904900 0.000000
-14.891300 0.000000
-14.877800 0.000000
-14.864200 0.000000
-14.850700 0.000000
-14.837100 0.000000
-14.823600 0.000000
-14.810000 0.000000
-14.796500 0.000000
-14.782900 0.000000
-14.769300 0.000000
-14.755800 0.000000
-14.742200 0.000000
-14.728700 0.000000
-14.715100 0.000000
-14.701600 0.000000
-14.688000 0.000000
-14.674500 0.000000
-14.660900 0.000000
-14.647300 0.000000
-14.633800 0.000000
-14.620200 0.000000
-14.606700 0.000000
-14.593100 0.000000
-14.579600 0.000000
-14.566000 0.000000
-14.552500 0.000000
-14.538900 0.000000
-14.525300 0.000000
-14.511800 0.000000
-14.498200 0.000000
-14.484700 0.000000
-14.471100 0.000000
-14.457600 0.000000
-14.444000 0.000000
-14.430400 0.000000
-14.416900 0.000000
-14.403300 0.000000
-14.389800 0.000000
-14.376200 0.000000
-14.362700 0.000000
-14.349100 0.000000
-14.335600 0.000000
-14.322000 0.000000
-14.308400 0.000000
-14.294900 0.000000
-14.281300 0.000000
-14.267800 0.000000
-14.254200 0.000000
-14.240700 0.000000
-14.227100 0.000000
-14.213600 0.000000
-14.200000 0.000000
-14.186400 0.000000
-14.172900 0.000000
-14.159300 0.000000
-14.145800 0.000000
-14.132200 0.000000
-14.118700 0.000000
-14.105100 0.000000
-14.091500 0.000000
-14.078000 0.000000
-14.064400 0.000200
-14.050900 0.001300
-14.037300 0.007000
-14.023800 0.031900
-14.010200 0.126300
-13.996700 0.435800
-13.983100 1.312400
-13.969500 3.454000
-13.956000 7.958600
-13.942400 16.098600
-13.928900 28.695500
-13.915300 45.319300
-13.901800 63.904900
-13.888200 81.277900
-13.874700 94.356900
-13.861100 101.138100
-13.847500 100.847900
-13.834000 93.614100
-13.820400 80.401500
-13.806900 63.284200
-13.793300 45.409100
-13.779800 30.328000
-13.766200 21.213400
-13.752600 20.576000
-13.739100 30.232400
-13.725500 50.592300
-13.712000 78.999500
-13.698400 108.545100
-13.684900 129.538700
-13.671300 134.033100
-13.657800 120.643400
-13.644200 95.878200
-13.630600 70.968500
-13.617100 56.879100
-13.603500 60.878800
-13.590000 85.640100
-13.576400 129.605500
-13.562900 187.327100
-13.549300 249.621800
-13.535800 304.189300
-13.522200 337.630300
-13.508600 339.448200
-13.495100 306.942300
-13.481500 247.776100
-13.468000 177.357900
-13.454400 111.947200
-13.440900 62.039400
-13.427300 30.088400
-13.413700 12.739600
-13.400200 4.700600
-13.386600 1.509400
-13.373100 0.421400
-13.359500 0.102200
-13.346000 0.021500
-13.332400 0.003900
-13.318900 0.000600
-13.305300 0.000100
-13.291700 0.000000
-13.278200 0.000000
-13.264600 0.000000
-13.251100 0.000000
-13.237500 0.000000
-13.224000 0.000000
-13.210400 0.000000
-13.196900 0.000000
-13.183300 0.000000
-13.169700 0.000000
-13.156200 0.000000
-13.142600 0.000000
-13.129100 0.000000
-13.115500 0.000000
-13.102000 0.000000
-13.088400 0.000000
-13.074900 0.000000
-13.061300 0.000000
-13.047700 0.000200
-13.034200 0.001000
-13.020600 0.005000
-13.007100 0.022600
-12.993500 0.087800
-12.980000 0.297300
-12.966400 0.878700
-12.952800 2.274700
-12.939300 5.182600
-12.925700 10.458100
-12.912200 18.839400
-12.898600 30.586600
-12.885100 45.241300
-12.871500 61.666900
-12.858000 78.353500
-12.844400 93.887300
-12.830800 107.599600
-12.817300 120.485300
-12.803700 136.081300
-12.790200 160.218300
-12.776600 198.481400
-12.763100 251.895900
-12.749500 313.805900
-12.736000 371.222900
-12.722400 410.667600
-12.708800 424.453700
-12.695300 412.805500
-12.681700 381.015800
-12.668200 335.112100
-12.654600 279.909600
-12.641100 219.978000
-12.627500 161.024200
-12.613900 109.501700
-12.600400 70.693200
-12.586800 46.953100
-12.573300 37.193800
-12.559700 37.536400
-12.546200 42.662100
-12.532600 47.550700
-12.519100 49.120200
-12.505500 46.919900
-12.491900 42.360300
-12.478400 37.077600
-12.464800 31.768100
-12.451300 26.261700
-12.437700 20.357700
-12.424200 14.397500
-12.410600 9.112700
-12.397100 5.104000
-12.383500 2.515000
-12.369900 1.087100
-12.356400 0.411800
-12.342800 0.136600
-12.329300 0.039700
-12.315700 0.010100
-12.302200 0.002200
-12.288600 0.000400
-12.275000 0.000100
-12.261500 0.000000
-12.247900 0.000000
-12.234400 0.000000
-12.220800 0.000000
-12.207300 0.000000
-12.193700 0.000000
-12.180200 0.000000
-12.166600 0.000000
-12.153000 0.000000
-12.139500 0.000000
-12.125900 0.000000
-12.112400 0.000000
-12.098800 0.000000
-12.085300 0.000000
-12.071700 0.000000
-12.058200 0.000000
-12.044600 0.000000
-12.031000 0.000000
-12.017500 0.000000
-12.003900 0.000000
-11.990400 0.000000
-11.976800 0.000000
-11.963300 0.000000
-11.949700 0.000000
-11.936100 0.000000
-11.922600 0.000000
-11.909000 0.000000
-11.895500 0.000000
-11.881900 0.000000
-11.868400 0.000000
-11.854800 0.000000
-11.841300 0.000000
-11.827700 0.000000
-11.814100 0.000000
-11.800600 0.000000
-11.787000 0.000000
-11.773500 0.000000
-11.759900 0.000000
-11.746400 0.000000
-11.732800 0.000000
-11.719300 0.000000
-11.705700 0.000000
-11.692100 0.000000
-11.678600 0.000000
-11.665000 0.000000
-11.651500 0.000000
-11.637900 0.000000
-11.624400 0.000000
-11.610800 0.000000
-11.597200 0.000000
-11.583700 0.000000
-11.570100 0.000000
-11.556600 0.000000
-11.543000 0.000000
-11.529500 0.000000
-11.515900 0.000000
-11.502400 0.000000
-11.488800 0.000000
-11.475200 0.000000
-11.461700 0.000000
-11.448100 0.000000
-11.434600 0.000000
-11.421000 0.000000
-11.407500 0.000000
-11.393900 0.000000
-11.380400 0.000000
-11.366800 0.000000
-11.353200 0.000000
-11.339700 0.000000
-11.326100 0.000000
-11.312600 0.000000
-11.299000 0.000000
-11.285500 0.000000
-11.271900 0.000000
-11.258400 0.000000
-11.244800 0.000000
-11.231200 0.000000
-11.217700 0.000000
-11.204100 0.000000
-11.190600 0.000000
-11.177000 0.000000
-11.163500 0.000000
-11.149900 0.000000
-11.136300 0.000000
-11.122800 0.000000
-11.109200 0.000000
-11.095700 0.000000
-11.082100 0.000000
-11.068600 0.000000
-11.055000 0.000000
-11.041500 0.000000
-11.027900 0.000000
-11.014300 0.000000
-11.000800 0.000000
-10.987200 0.000000
-10.973700 0.000000
-10.960100 0.000100
-10.946600 0.000400
-10.933000 0.001800
-10.919500 0.008100
-10.905900 0.031900
-10.892300 0.109600
-10.878800 0.332300
-10.865200 0.891500
-10.851700 2.125800
-10.838100 4.522700
-10.824600 8.614500
-10.811000 14.728600
-10.797400 22.646500
-10.783900 31.372000
-10.770300 39.278900
-10.756800 44.750400
-10.743200 47.020400
-10.729700 46.625700
-10.716100 45.071900
-10.702600 43.955600
-10.689000 44.213600
-10.675400 45.941600
-10.661900 48.662000
-10.648300 51.657200
-10.634800 54.132500
-10.621200 55.228500
-10.607700 54.053300
-10.594100 49.915800
-10.580600 42.750900
-10.567000 33.421800
-10.553400 23.534500
-10.539900 14.772800
-10.526300 8.202300
-10.512800 4.005400
-10.499200 1.713200
-10.485700 0.639800
-10.472100 0.208200
-10.458500 0.058900
-10.445000 0.014500
-10.431400 0.003200
-10.417900 0.001400
-10.404300 0.004200
-10.390800 0.018700
-10.377200 0.073600
-10.363700 0.252000
-10.350100 0.750800
-10.336500 1.949500
-10.323000 4.424500
-10.309400 8.811800
-10.295900 15.481600
-10.282300 24.164700
-10.268800 33.817500
-10.255200 42.918600
-10.241700 50.063500
-10.228100 54.479200
-10.214500 56.200800
-10.201000 55.954300
-10.187400 54.910700
-10.173900 54.331700
-10.160300 55.062800
-10.146800 57.002200
-10.133200 58.907100
-10.119600 58.835800
-10.106100 55.135100
-10.092500 47.418800
-10.079000 36.877300
-10.065400 25.682700
-10.051900 15.915400
-10.038300 8.737600
-10.024800 4.236500
-10.011200 1.809700
-9.997600 0.679800
-9.984100 0.224100
-9.970500 0.064800
-9.957000 0.016400
-9.943400 0.003600
-9.929900 0.000700
-9.916300 0.000100
-9.902800 0.000000
-9.889200 0.000000
-9.875600 0.000000
-9.862100 0.000000
-9.848500 0.000000
-9.835000 0.000000
-9.821400 0.000000
-9.807900 0.000000
-9.794300 0.000000
-9.780800 0.000000
-9.767200 0.000000
-9.753600 0.000000
-9.740100 0.000000
-9.726500 0.000000
-9.713000 0.000000
-9.699400 0.000000
-9.685900 0.000000
-9.672300 0.000000
-9.658700 0.000000
-9.645200 0.000000
-9.631600 0.000000
-9.618100 0.000000
-9.604500 0.000000
-9.591000 0.000000
-9.577400 0.000000
-9.563900 0.000000
-9.550300 0.000000
-9.536700 0.000000
-9.523200 0.000000
-9.509600 0.000000
-9.496100 0.000000
-9.482500 0.000000
-9.469000 0.000000
-9.455400 0.000000
-9.441900 0.000000
-9.428300 0.000000
-9.414700 0.000000
-9.401200 0.000000
-9.387600 0.000000
-9.374100 0.000000
-9.360500 0.000000
-9.347000 0.000000
-9.333400 0.000000
-9.319800 0.000000
-9.306300 0.000000
-9.292700 0.000000
-9.279200 0.000000
-9.265600 0.000000
-9.252100 0.000000
-9.238500 0.000000
-9.225000 0.000000
-9.211400 0.000000
-9.197800 0.000000
-9.184300 0.000000
-9.170700 0.000000
-9.157200 0.000000
-9.143600 0.000000
-9.130100 0.000000
-9.116500 0.000000
-9.103000 0.000000
-9.089400 0.000000
-9.075800 0.000000
-9.062300 0.000000
-9.048700 0.000000
-9.035200 0.000000
-9.021600 0.000000
-9.008100 0.000000
-8.994500 0.000000
-8.980900 0.000000
-8.967400 0.000000
-8.953800 0.000000
-8.940300 0.000000
-8.926700 0.000000
-8.913200 0.000000
-8.899600 0.000000
-8.886100 0.000000
-8.872500 0.000000
-8.858900 0.000000
-8.845400 0.000000
-8.831800 0.000000
-8.818300 0.000000
-8.804700 0.000000
-8.791200 0.000000
-8.777600 0.000000
-8.764100 0.000000
-8.750500 0.000000
-8.736900 0.000000
-8.723400 0.000000
-8.709800 0.000000
-8.696300 0.000000
-8.682700 0.000000
-8.669200 0.000000
-8.655600 0.000000
-8.642000 0.000000
-8.628500 0.000000
-8.614900 0.000000
-8.601400 0.000000
-8.587800 0.000000
-8.574300 0.000000
-8.560700 0.000000
-8.547200 0.000000
-8.533600 0.000000
-8.520000 0.000000
-8.506500 0.000000
-8.492900 0.000000
-8.479400 0.000000
-8.465800 0.000000
-8.452300 0.000000
-8.438700 0.000000
-8.425200 0.000000
-8.411600 0.000000
-8.398000 0.000000
-8.384500 0.000000
-8.370900 0.000000
-8.357400 0.000000
-8.343800 0.000000
-8.330300 0.000000
-8.316700 0.000000
-8.303100 0.000000
-8.289600 0.000000
-8.276000 0.000000
-8.262500 0.000000
-8.248900 0.000000
-8.235400 0.000000
-8.221800 0.000000
-8.208300 0.000000
-8.194700 0.000000
-8.181100 0.000000
-8.167600 0.000000
-8.154000 0.000000
-8.140500 0.000000
-8.126900 0.000000
-8.113400 0.000000
-8.099800 0.000000
-8.086300 0.000000
-8.072700 0.000000
-8.059100 0.000000
-8.045600 0.000000
-8.032000 0.000000
-8.018500 0.000000
-8.004900 0.000000
-7.991400 0.000000
-7.977800 0.000000
-7.964300 0.000000
-7.950700 0.000000
-7.937100 0.000000
-7.923600 0.000000
-7.910000 0.000000
-7.896500 0.000000
-7.882900 0.000000
-7.869400 0.000000
-7.855800 0.000000
-7.842200 0.000000
-7.828700 0.000000
-7.815100 0.000000
-7.801600 0.000000
-7.788000 0.000000
-7.774500 0.000000
-7.760900 0.000000
-7.747400 0.000000
-7.733800 0.000000
-7.720200 0.000000
-7.706700 0.000000
-7.693100 0.000000
-7.679600 0.000000
-7.666000 0.000000
-7.652500 0.000000
-7.638900 0.000000
-7.625400 0.000000
-7.611800 0.000000
-7.598200 0.000000
-7.584700 0.000000
-7.571100 0.000000
-7.557600 0.000000
-7.544000 0.000000
-7.530500 0.000000
-7.516900 0.000000
-7.503300 0.000000
-7.489800 0.000000
-7.476200 0.000000
-7.462700 0.000000
-7.449100 0.000000
-7.435600 0.000000
-7.422000 0.000000
-7.408500 0.000000
-7.394900 0.000000
-7.381300 0.000000
-7.367800 0.000000
-7.354200 0.000000
-7.340700 0.000000
-7.327100 0.000000
-7.313600 0.000000
-7.300000 0.000000
-7.286500 0.000000
-7.272900 0.000000
-7.259300 0.000000
-7.245800 0.000000
-7.232200 0.000000
-7.218700 0.000000
-7.205100 0.000000
-7.191600 0.000000
-7.178000 0.000000
-7.164400 0.000000
-7.150900 0.000000
-7.137300 0.000000
-7.123800 0.000000
-7.110200 0.000000
-7.096700 0.000000
-7.083100 0.000000
-7.069600 0.000000
-7.056000 0.000000
-7.042400 0.000000
-7.028900 0.000000
-7.015300 0.000000
-7.001800 0.000000
-6.988200 0.000000
-6.974700 0.000000
-6.961100 0.000000
-6.947600 0.000000
-6.934000 0.000000
-6.920400 0.000000
-6.906900 0.000000
-6.893300 0.000000
-6.879800 0.000000
-6.866200 0.000000
-6.852700 0.000000
-6.839100 0.000000
-6.825500 0.000000
-6.812000 0.000000
-6.798400 0.000000
-6.784900 0.000000
-6.771300 0.000000
-6.757800 0.000000
-6.744200 0.000000
-6.730700 0.000000
-6.717100 0.000000
-6.703500 0.000000
-6.690000 0.000000
-6.676400 0.000000
-6.662900 0.000000
-6.649300 0.000000
-6.635800 0.000000
-6.622200 0.000000
-6.608700 0.000000
-6.595100 0.000000
-6.581500 0.000000
-6.568000 0.000000
-6.554400 0.000000
-6.540900 0.000000
-6.527300 0.000000
-6.513800 0.000000
-6.500200 0.000000
-6.486700 0.000000
-6.473100 0.000000
-6.459500 0.000000
-6.446000 0.000000
-6.432400 0.000000
-6.418900 0.000000
-6.405300 0.000000
-6.391800 0.000000
-6.378200 0.000000
-6.364600 0.000000
-6.351100 0.000000
-6.337500 0.000000
-6.324000 0.000000
-6.310400 0.000000
-6.296900 0.000000
-6.283300 0.000000
-6.269800 0.000000
-6.256200 0.000000
-6.242600 0.000000
-6.229100 0.000000
-6.215500 0.000000
-6.202000 0.000000
-6.188400 0.000000
-6.174900 0.000000
-6.161300 0.000000
-6.147800 0.000000
-6.134200 0.000000
-6.120600 0.000000
-6.107100 0.000000
-6.093500 0.000000
-6.080000 0.000000
-6.066400 0.000000
-6.052900 0.000000
-6.039300 0.000000
-6.025700 0.000000
-6.012200 0.000000
-5.998600 0.000000
-5.985100 0.000000
-5.971500 0.000000
-5.958000 0.000000
-5.944400 0.000000
-5.930900 0.000000
-5.917300 0.000000
-5.903700 0.000000
-5.890200 0.000000
-5.876600 0.000000
-5.863100 0.000000
-5.849500 0.000000
-5.836000 0.000000
-5.822400 0.000000
-5.808900 0.000000
-5.795300 0.000000
-5.781700 0.000000
-5.768200 0.000000
-5.754600 0.000000
-5.741100 0.000000
-5.727500 0.000000
-5.714000 0.000000
-5.700400 0.000000
-5.686800 0.000000
-5.673300 0.000000
-5.659700 0.000000
-5.646200 0.000000
-5.632600 0.000000
-5.619100 0.000000
-5.605500 0.000000
-5.592000 0.000000
-5.578400 0.000000
-5.564800 0.000000
-5.551300 0.000000
-5.537700 0.000000
-5.524200 0.000000
-5.510600 0.000000
-5.497100 0.000000
-5.483500 0.000000
-5.470000 0.000000
-5.456400 0.000000
-5.442800 0.000000
-5.429300 0.000000
-5.415700 0.000000
-5.402200 0.000000
-5.388600 0.000000
-5.375100 0.000000
-5.361500 0.000000
-5.347900 0.000000
-5.334400 0.000000
-5.320800 0.000000
-5.307300 0.000000
-5.293700 0.000000
-5.280200 0.000000
-5.266600 0.000000
-5.253100 0.000000
-5.239500 0.000000
-5.225900 0.000000
-5.212400 0.000000
-5.198800 0.000000
-5.185300 0.000000
-5.171700 0.000000
-5.158200 0.000000
-5.144600 0.000000
-5.131100 0.000000
-5.117500 0.000000
-5.103900 0.000000
-5.090400 0.000000
-5.076800 0.000000
-5.063300 0.000000
-5.049700 0.000000
-5.036200 0.000000
-5.022600 0.000000
-5.009000 0.000200
-4.995500 0.001000
-4.981900 0.004200
-4.968400 0.015200
-4.954800 0.047700
-4.941300 0.129600
-4.927700 0.304800
-4.914200 0.620500
-4.900600 1.096000
-4.887000 1.688600
-4.873500 2.300900
-4.859900 2.864600
-4.846400 3.478100
-4.832800 4.490600
-4.819300 6.413700
-4.805700 9.641700
-4.792200 14.129000
-4.778600 19.254900
-4.765000 23.995700
-4.751500 27.295300
-4.737900 28.411000
-4.724400 27.108400
-4.710800 23.723400
-4.697300 19.101400
-4.683700 14.360800
-4.670200 10.495700
-4.656600 8.002400
-4.643000 6.767200
-4.629500 6.307000
-4.615900 6.207900
-4.602400 6.464900
-4.588800 7.471000
-4.575300 9.641300
-4.561700 12.937300
-4.548100 16.686500
-4.534600 19.906800
-4.521000 21.911600
-4.507500 22.670000
-4.493900 22.614300
-4.480400 22.167800
-4.466800 21.521900
-4.453300 20.788400
-4.439700 20.135000
-4.426100 19.606200
-4.412600 18.875900
-4.399000 17.381500
-4.385500 14.837200
-4.371900 11.640100
-4.358400 8.782200
-4.344800 7.374400
-4.331300 8.154200
-4.317700 11.192400
-4.304100 15.809100
-4.290600 20.724800
-4.277000 24.520600
-4.263500 26.292300
-4.249900 26.077400
-4.236400 24.660600
-4.222800 22.866800
-4.209200 20.963000
-4.195700 18.705100
-4.182100 15.893700
-4.168600 12.801900
-4.155000 10.040200
-4.141500 8.059400
-4.127900 6.821400
-4.114400 5.915300
-4.100800 4.936700
-4.087200 3.762800
-4.073700 2.542600
-4.060100 1.501700
-4.046600 0.770400
-4.033000 0.342400
-4.019500 0.131700
-4.005900 0.043800
-3.992400 0.012600
-3.978800 0.003100
-3.965200 0.000700
-3.951700 0.000100
-3.938100 0.000000
-3.924600 0.000000
-3.911000 0.000000
-3.897500 0.000000
-3.883900 0.000000
-3.870300 0.000000
-3.856800 0.000000
-3.843200 0.000000
-3.829700 0.000000
-3.816100 0.000000
-3.802600 0.000000
-3.789000 0.000000
-3.775500 0.000000
-3.761900 0.000000
-3.748300 0.000000
-3.734800 0.000000
-3.721200 0.000000
-3.707700 0.000000
-3.694100 0.000000
-3.680600 0.000000
-3.667000 0.000000
-3.653500 0.000200
-3.639900 0.001100
-3.626300 0.005600
-3.612800 0.023700
-3.599200 0.087400
-3.585700 0.279200
-3.572100 0.772900
-3.558600 1.857100
-3.545000 3.878500
-3.531400 7.053100
-3.517900 11.197800
-3.504300 15.580300
-3.490800 19.112700
-3.477200 20.889700
-3.463700 20.758700
-3.450100 19.507600
-3.436600 18.489100
-3.423000 18.860200
-3.409400 20.860300
-3.395900 23.586500
-3.382300 25.498800
-3.368800 25.419300
-3.355200 23.347200
-3.341700 20.460100
-3.328100 18.271500
-3.314600 17.593600
-3.301000 18.078000
-3.287400 18.607700
-3.273900 18.135800
-3.260300 16.313900
-3.246800 13.565100
-3.233200 10.762500
-3.219700 8.865300
-3.206100 8.664800
-3.192600 10.554200
-3.179000 14.271100
-3.165400 18.775000
-3.151900 22.517600
-3.138300 24.137200
-3.124800 23.224900
-3.111200 20.639100
-3.097700 18.110500
-3.084100 17.368400
-3.070500 19.326700
-3.057000 23.770900
-3.043400 29.609700
-3.029900 35.410800
-3.016300 39.878900
-3.002800 42.140200
-2.989200 41.932200
-2.975700 39.781700
-2.962100 37.028200
-2.948500 35.422900
-2.935000 36.297100
-2.921400 39.804600
-2.907900 44.902100
-2.894300 50.135200
-2.880800 54.481100
-2.867200 57.459200
-2.853700 58.629600
-2.840100 57.346100
-2.826500 53.253900
-2.813000 46.990800
-2.799400 40.164600
-2.785900 34.420000
-2.772300 30.423800
-2.758800 27.721100
-2.745200 25.515100
-2.731600 23.493500
-2.718100 21.881100
-2.704500 20.825500
-2.691000 19.921700
-2.677400 18.419600
-2.663900 15.844600
-2.650300 12.376300
-2.636800 8.680100
-2.623200 5.448200
-2.609600 3.060900
-2.596100 1.540300
-2.582500 0.694000
-2.569000 0.279300
-2.555400 0.100100
-2.541900 0.032000
-2.528300 0.010100
-2.514800 0.007600
-2.501200 0.021000
-2.487600 0.067800
-2.474100 0.192700
-2.460500 0.474400
-2.447000 1.012300
-2.433400 1.876300
-2.419900 3.037100
-2.406300 4.343300
-2.392700 5.615400
-2.379200 6.826900
-2.365600 8.197000
-2.352100 10.019400
-2.338500 12.281200
-2.325000 14.412800
-2.311400 15.498700
-2.297900 14.884900
-2.284300 12.720200
-2.270700 9.996900
-2.257200 8.097400
-2.243600 8.189300
-2.230100 10.756200
-2.216500 15.343700
-2.203000 20.595400
-2.189400 24.739700
-2.175900 26.474400
-2.162300 25.743800
-2.148700 23.759700
-2.135200 22.162500
-2.121600 21.952600
-2.108100 22.998900
-2.094500 24.391200
-2.081000 25.225500
-2.067400 25.199000
-2.053800 24.702800
-2.040300 24.519500
-2.026700 25.372200
-2.013200 27.496600
-1.999600 30.396000
-1.986100 32.986400
-1.972500 34.136900
-1.959000 33.238000
-1.945400 30.373800
-1.931800 26.098300
-1.918300 21.166000
-1.904700 16.420900
-1.891200 12.717100
-1.877600 10.726300
-1.864100 10.691700
-1.850500 12.286800
-1.837000 14.684500
-1.823400 16.877200
-1.809800 18.165900
-1.796300 18.512800
-1.782700 18.409600
-1.769200 18.297300
-1.755600 18.070000
-1.742100 17.181700
-1.728500 15.277300
-1.714900 12.735500
-1.701400 10.622700
-1.687800 10.113900
-1.674300 11.829600
-1.660700 15.504600
-1.647200 20.152300
-1.633600 24.609600
-1.620100 28.098500
-1.606500 30.375400
-1.592900 31.384900
-1.579400 30.861100
-1.565800 28.394900
-1.552300 23.935100
-1.538700 18.154000
-1.525200 12.246400
-1.511600 7.344300
-1.498100 4.076600
-1.484500 2.579300
-1.470900 2.811300
-1.457400 4.820100
-1.443800 8.711400
-1.430300 14.337100
-1.416700 20.963200
-1.403200 27.234000
-1.389600 31.562900
-1.376100 32.757600
-1.362500 30.513700
-1.348900 25.513500
-1.335400 19.112200
-1.321800 12.792500
-1.308300 7.661900
-1.294700 4.220800
-1.281200 2.460200
-1.267600 2.139200
-1.254000 3.016300
-1.240500 4.910200
-1.226900 7.628300
-1.213400 10.879200
-1.199800 14.228500
-1.186300 17.100100
-1.172700 18.848800
-1.159200 18.984100
-1.145600 17.512700
-1.132000 15.142900
-1.118500 13.058800
-1.104900 12.280800
-1.091400 13.015000
-1.077800 14.480300
-1.064300 15.382100
-1.050700 14.724900
-1.037200 12.391700
-1.023600 9.112400
-1.010000 5.947000
-0.996500 3.752000
-0.982900 2.979100
-0.969400 3.756400
-0.955800 5.970500
-0.942300 9.195100
-0.928700 12.611700
-0.915100 15.188700
-0.901600 16.149200
-0.888000 15.394100
-0.874500 13.504100
-0.860900 11.333300
-0.847400 9.606100
-0.833800 8.854400
-0.820300 9.585500
-0.806700 12.308600
-0.793100 17.244200
-0.779600 23.964600
-0.766000 31.357300
-0.752500 38.012900
-0.738900 42.744700
-0.725400 44.893200
-0.711800 44.362500
-0.698300 41.535100
-0.684700 37.124000
-0.671100 31.957500
-0.657600 26.824400
-0.644000 22.509300
-0.630500 19.861900
-0.616900 19.580600
-0.603400 21.713000
-0.589800 25.343100
-0.576200 28.922700
-0.562700 31.132900
-0.549100 31.587200
-0.535600 30.764300
-0.522000 29.303700
-0.508500 27.431600
-0.494900 25.084900
-0.481400 22.453700
-0.467800 20.192700
-0.454200 18.998700
-0.440700 19.061100
-0.427100 20.063000
-0.413600 21.758600
-0.400000 24.442400
-0.386500 28.688600
-0.372900 34.520100
-0.359400 40.819500
-0.345800 45.624200
-0.332200 47.153700
-0.318700 44.801400
-0.305100 39.423800
-0.291600 32.845000
-0.278000 26.965400
-0.264500 22.964000
-0.250900 20.947800
-0.237300 20.205400
-0.223800 19.914900
-0.210200 19.822700
-0.196700 20.388900
-0.183100 22.331800
-0.169600 25.984200
-0.156000 30.912800
-0.142500 35.942100
-0.128900 39.496700
-0.115300 40.155400
-0.101800 37.259000
-0.088200 31.284200
-0.074700 23.717200
-0.061100 16.463200
-0.047600 11.136000
-0.034000 8.585400
-0.020500 8.761400
-0.006900 10.814100
0.006700 13.372100
0.020200 15.042000
0.033800 15.046000
0.047300 13.668200
0.060900 12.163700
0.074400 12.108700
0.088000 14.522700
0.101600 19.203500
0.115100 24.629200
0.128700 28.583100
0.142200 29.285000
0.155800 26.385700
0.169300 21.149100
0.182900 15.707300
0.196400 11.956200
0.210000 10.814300
0.223600 12.147900
0.237100 15.178000
0.250700 19.008000
0.264200 22.985100
0.277800 26.758700
0.291300 30.089600
0.304900 32.626200
0.318400 33.862200
0.332000 33.320000
0.345600 30.842000
0.359100 26.846900
0.372700 22.406900
0.386200 19.009500
0.399800 17.992600
0.413300 19.893400
0.426900 24.091900
0.440400 28.983500
0.454000 32.612000
0.467600 33.483500
0.481100 31.227800
0.494700 26.815400
0.508200 22.171900
0.521800 19.312800
0.535300 19.423200
0.548900 22.376900
0.562500 26.915400
0.576000 31.310400
0.589600 34.098100
0.603100 34.546800
0.616700 32.744000
0.630200 29.394200
0.643800 25.511300
0.657300 22.170500
0.670900 20.337200
0.684500 20.647100
0.698000 23.094500
0.711600 26.869600
0.725100 30.657000
0.738700 33.333500
0.752200 34.574100
0.765800 34.927800
0.779300 35.392200
0.792900 36.821100
0.806500 39.424900
0.820000 42.506400
0.833600 44.605800
0.847100 44.142500
0.860700 40.279400
0.874200 33.436400
0.887800 25.078300
0.901400 16.952600
0.914900 10.330100
0.928500 5.682600
0.942000 2.826400
0.955600 1.271600
0.969100 0.516800
0.982700 0.189000
0.996200 0.061900
1.009800 0.018000
1.023400 0.004600
1.036900 0.001100
1.050500 0.000200
1.064000 0.000000
1.077600 0.000000
1.091100 0.000000
1.104700 0.000000
1.118200 0.000000
1.131800 0.000000
1.145400 0.000000
1.158900 0.000000
1.172500 0.000000
1.186000 0.000000
1.199600 0.000000
1.213100 0.000000
1.226700 0.000000
1.240300 0.000000
1.253800 0.000000
1.267400 0.000000
1.280900 0.000000
1.294500 0.000000
1.308000 0.000000
1.321600 0.000000
1.335100 0.000000
1.348700 0.000000
1.362300 0.000000
1.375800 0.000000
1.389400 0.000000
1.402900 0.000000
1.416500 0.000000
1.430000 0.000000
1.443600 0.000000
1.457100 0.000000
1.470700 0.000000
1.484300 0.000000
1.497800 0.000000
1.511400 0.000000
1.524900 0.000000
1.538500 0.000000
1.552000 0.000000
1.565600 0.000000
1.579200 0.000000
1.592700 0.000000
1.606300 0.000000
1.619800 0.000000
1.633400 0.000000
1.646900 0.000000
1.660500 0.000000
1.674000 0.000000
1.687600 0.000000
1.701200 0.000000
1.714700 0.000000
1.728300 0.000000
1.741800 0.000100
1.755400 0.000800
1.768900 0.004300
1.782500 0.020000
1.796000 0.079600
1.809600 0.274200
1.823200 0.817500
1.836700 2.108700
1.850300 4.706900
1.863800 9.092300
1.877400 15.199300
1.890900 21.988700
1.904500 27.529800
1.918000 29.829000
1.931600 27.971000
1.945200 22.699300
1.958700 15.943100
1.972300 9.694900
1.985800 5.116400
1.999400 2.381700
2.012900 1.081300
2.026500 0.708400
2.040100 0.921000
2.053600 1.564600
2.067200 2.584600
2.080700 3.942800
2.094300 5.576700
2.107800 7.381600
2.121400 9.182000
2.134900 10.702700
2.148500 11.591100
2.162100 11.532200
2.175600 10.417600
2.189200 8.454200
2.202700 6.110400
2.216300 3.913800
2.229800 2.242000
2.243400 1.247000
2.256900 0.936000
2.270500 1.304800
2.284100 2.389600
2.297600 4.175300
2.311200 6.425700
2.324700 8.616400
2.338300 10.134100
2.351800 10.704800
2.365400 10.760300
2.379000 11.400500
2.392500 13.853900
2.406100 18.690000
2.419600 25.249900
2.433200 31.704300
2.446700 35.822800
2.460300 36.064600
2.473800 32.334500
2.487400 25.957900
2.501000 18.999700
2.514500 13.444500
2.528100 10.668200
2.541600 11.241900
2.555200 14.881600
2.568700 20.471700
2.582300 26.314500
2.595800 30.702100
2.609400 32.574900
2.623000 31.862800
2.636500 29.388000
2.650100 26.571200
2.663600 25.113600
2.677200 26.496800
2.690700 31.199100
2.704300 38.063900
2.717900 44.554400
2.731400 48.042500
2.745000 47.270600
2.758500 42.837900
2.772100 36.450400
2.785600 29.788400
2.799200 23.949700
2.812700 19.568800
2.826300 17.014000
2.839900 16.267500
2.853400 16.735200
2.867000 17.451100
2.880500 17.701100
2.894100 17.532000
2.907600 17.620900
2.921200 18.575500
2.934700 20.292900
2.948300 21.931100
2.961900 22.461200
2.975400 21.307500
2.989000 18.656000
3.002500 15.356800
3.016100 12.569800
3.029600 11.294300
3.043200 11.916400
3.056800 13.974400
3.070300 16.340100
3.083900 17.792900
3.097400 17.661300
3.111000 16.127000
3.124500 14.046600
3.138100 12.470900
3.151600 12.134900
3.165200 13.094500
3.178800 14.645500
3.192300 15.643400
3.205900 15.138700
3.219400 12.932800
3.233000 9.641000
3.246500 6.241400
3.260100 3.507100
3.273600 1.731800
3.287200 0.827600
3.300800 0.593200
3.314300 0.923200
3.327900 1.859800
3.341400 3.490700
3.355000 5.773200
3.368500 8.419700
3.382100 10.986200
3.395700 13.139100
3.409200 14.854200
3.422800 16.302100
3.436300 17.514200
3.449900 18.240800
3.463400 18.248700
3.477000 17.762600
3.490500 17.510200
3.504100 18.229600
3.517700 20.101500
3.531200 22.634300
3.544800 25.023300
3.558300 26.565900
3.571900 26.846600
3.585400 25.807300
3.599000 23.874700
3.612500 21.995300
3.626100 21.277200
3.639700 22.288100
3.653200 24.548500
3.666800 26.768200
3.680300 27.780100
3.693900 27.430800
3.707400 26.618100
3.721000 26.387200
3.734500 26.884900
3.748100 27.133200
3.761700 25.832500
3.775200 22.471100
3.788800 17.802200
3.802300 13.390600
3.815900 10.707600
3.829400 10.435500
3.843000 12.269600
3.856600 15.123500
3.870100 17.575600
3.883700 18.442500
3.897200 17.298300
3.910800 14.673200
3.924300 11.797900
3.937900 10.041100
3.951400 10.319700
3.965000 12.702800
3.978600 16.352100
3.992100 19.920700
4.005700 22.352700
4.019200 23.638300
4.032800 24.886900
4.046300 27.491400
4.059900 31.941000
4.073400 37.221700
4.087000 41.286000
4.100600 42.212000
4.114100 39.207900
4.127700 32.891100
4.141200 24.863800
4.154800 16.983400
4.168300 10.741600
4.181900 6.983900
4.195500 5.958900
4.209000 7.493100
4.222600 11.081400
4.236100 15.894700
4.249700 20.897500
4.263200 25.170400
4.276800 28.213400
4.290300 29.903800
4.303900 30.150100
4.317500 28.697400
4.331000 25.409000
4.344600 20.754700
4.358100 15.923400
4.371700 12.350600
4.385200 11.011300
4.398800 11.967200
4.412300 14.389000
4.425900 17.001600
4.439500 18.742200
4.453000 19.286300
4.466600 19.067300
4.480100 18.729400
4.493700 18.473800
4.507200 17.922400
4.520800 16.633800
4.534400 14.742500
4.547900 13.054900
4.561500 12.472500
4.575000 13.237400
4.588600 14.643400
4.602100 15.457600
4.615700 14.734300
4.629200 12.410400
4.642800 9.284900
4.656400 6.496900
4.669900 4.950200
4.683500 5.013800
4.697000 6.507300
4.710600 8.840700
4.724100 11.257100
4.737700 13.164300
4.751200 14.426200
4.764800 15.393500
4.778400 16.602400
4.791900 18.336500
4.805500 20.386100
4.819000 22.200600
4.832600 23.314200
4.846100 23.676000
4.859700 23.580900
4.873300 23.262400
4.886800 22.550100
4.900400 20.953500
4.913900 18.123200
4.927500 14.277500
4.941000 10.219700
4.954600 6.971900
4.968100 5.359700
4.981700 5.805700
4.995300 8.299300
5.008800 12.398200
5.022400 17.273700
5.035900 21.947500
5.049500 25.709000
5.063000 28.408200
5.076600 30.304800
5.090100 31.573200
5.103700 31.966700
5.117300 31.044700
5.130800 28.801000
5.144400 26.090600
5.157900 24.359400
5.171500 24.753200
5.185000 27.245100
5.198600 30.501600
5.212100 32.664700
5.225700 32.497200
5.239300 30.063900
5.252800 26.549100
5.266400 23.456300
5.279900 21.741200
5.293500 21.335000
5.307000 21.276300
5.320600 20.390500
5.334200 18.126700
5.347700 15.003800
5.361300 12.365300
5.374800 11.627800
5.388400 13.495500
5.401900 17.550300
5.415500 22.418300
5.429000 26.467900
5.442600 28.677700
5.456200 29.105600
5.469700 28.639100
5.483300 28.296200
5.496800 28.655600
5.510400 29.686900
5.523900 30.821000
5.537500 31.113700
5.551000 29.614100
5.564600 25.939100
5.578200 20.667700
5.591700 15.125400
5.605300 10.652000
5.618800 7.923700
5.632400 6.823000
5.645900 6.861900
5.659500 7.761400
5.673100 9.725500
5.686600 13.178400
5.700200 18.128100
5.713700 23.662100
5.727300 28.100000
5.740800 29.889700
5.754400 28.688900
5.767900 25.801200
5.781500 23.538900
5.795100 23.864500
5.808600 27.181900
5.822200 32.057300
5.835700 36.072700
5.849300 37.268000
5.862800 35.206300
5.876400 30.992700
5.889900 26.430100
5.903500 23.101700
5.917100 21.940000
5.930600 23.189500
5.944200 26.429100
5.957700 30.604000
5.971300 34.256200
5.984800 35.984600
5.998400 34.930000
6.012000 31.077100
6.025500 25.288800
6.039100 19.039700
6.052600 13.875900
6.066200 10.800700
6.079700 9.907700
6.093300 10.490700
6.106800 11.574800
6.120400 12.530500
6.134000 13.338200
6.147500 14.299400
6.161100 15.456800
6.174600 16.285700
6.188200 15.991200
6.201700 14.152600
6.215300 11.122200
6.228800 7.857900
6.242400 5.413100
6.256000 4.514300
6.269500 5.403500
6.283100 7.814700
6.296600 10.972800
6.310200 13.725300
6.323700 14.950900
6.337300 14.106800
6.350900 11.515500
6.364400 8.130100
6.378000 4.964100
6.391500 2.621300
6.405100 1.197000
6.418600 0.472800
6.432200 0.161700
6.445700 0.049000
6.459300 0.017800
6.472900 0.022400
6.486400 0.060600
6.500000 0.158200
6.513500 0.359800
6.527100 0.708200
6.540600 1.205700
6.554200 1.775400
6.567700 2.262700
6.581300 2.500200
6.594900 2.409500
6.608400 2.064200
6.622000 1.662000
6.635500 1.423000
6.649100 1.479800
6.662600 1.824600
6.676200 2.342100
6.689800 2.930500
6.703300 3.664200
6.716900 4.890100
6.730400 7.131900
6.744000 10.780600
6.757500 15.734500
6.771100 21.266800
6.784600 26.277300
6.798200 29.778100
6.811800 31.265300
6.825300 30.773500
6.838900 28.726400
6.852400 25.796400
6.866000 22.798100
6.879500 20.505400
6.893100 19.401900
6.906600 19.526900
6.920200 20.512400
6.933800 21.762700
6.947300 22.713900
6.960900 23.125800
6.974400 23.248400
6.988000 23.638500
7.001500 24.641000
7.015100 25.930700
7.028600 26.589700
7.042200 25.776200
7.055800 23.466400
7.069300 20.599100
7.082900 18.440200
7.096400 17.699400
7.110000 18.180200
7.123500 19.257900
7.137100 20.687200
7.150700 22.903500
7.164200 26.463800
7.177800 31.135800
7.191300 35.541200
7.204900 37.784700
7.218400 36.627900
7.232000 32.321500
7.245500 26.524400
7.259100 21.408400
7.272700 18.525300
7.286200 18.089100
7.299800 19.064200
7.313300 19.974200
7.326900 19.867500
7.340400 18.748000
7.354000 17.236400
7.367500 15.898300
7.381100 14.890500
7.394700 14.122700
7.408200 13.581300
7.421800 13.431200
7.435300 13.905400
7.448900 15.235700
7.462400 17.703900
7.476000 21.619000
7.489600 27.043700
7.503100 33.413400
7.516700 39.452100
7.530200 43.651400
7.543800 45.074500
7.557300 43.866700
7.570900 41.047000
7.584400 37.792800
7.598000 34.827400
7.611600 32.316900
7.625100 30.171200
7.638700 28.342200
7.652200 26.842400
7.665800 25.577400
7.679300 24.329400
7.692900 23.045600
7.706400 22.138400
7.720000 22.329600
7.733600 23.993000
7.747100 26.561700
7.760700 28.646400
7.774200 28.906000
7.787800 27.012200
7.801300 23.960600
7.814900 21.520500
7.828500 21.219900
7.842000 23.470500
7.855600 27.288200
7.869100 30.757500
7.882700 32.021300
7.896200 30.259100
7.909800 26.098000
7.923300 21.280500
7.936900 17.867000
7.950500 17.383300
7.964000 20.172100
7.977600 25.140000
7.991100 30.140900
8.004700 33.046700
8.018200 32.990700
8.031800 30.867800
8.045300 28.589600
8.058900 27.597400
8.072500 27.811200
8.086000 27.847600
8.099600 26.278000
8.113100 22.867800
8.126700 18.846600
8.140200 16.139100
8.153800 16.254200
8.167400 19.569300
8.180900 25.258700
8.194500 31.701100
8.208000 37.121800
8.221600 40.256700
8.235100 40.791300
8.248700 39.339100
8.262200 36.948100
8.275800 34.424100
8.289400 31.893100
8.302900 28.893200
8.316500 24.939900
8.330000 20.151500
8.343600 15.447000
8.357100 12.157200
8.370700 11.332500
8.384200 13.170100
8.397800 16.825700
8.411400 20.701400
8.424900 23.154300
8.438500 23.335800
8.452000 21.657200
8.465600 19.507000
8.479100 18.351900
8.492700 18.803200
8.506200 20.256700
8.519800 21.335200
8.533400 20.852500
8.546900 18.670100
8.560500 15.885800
8.574000 14.250300
8.587600 15.207500
8.601100 19.125400
8.614700 25.124100
8.628300 31.580300
8.641800 36.992300
8.655400 40.611500
8.668900 42.413200
8.682500 42.571300
8.696000 41.054800
8.709600 37.761900
8.723100 33.012800
8.736700 27.861200
8.750300 23.845100
8.763800 22.249100
8.777400 23.333000
8.790900 26.056200
8.804500 28.559300
8.818000 29.200800
8.831600 27.551700
8.845100 24.696800
8.858700 22.577200
8.872300 22.733400
8.885800 25.250200
8.899400 28.619600
8.912900 30.641700
8.926500 29.758100
8.940000 25.912500
8.953600 20.431900
8.967200 15.189700
8.980700 11.729000
8.994300 10.801900
9.007800 12.319900
9.021400 15.536500
9.034900 19.372600
9.048500 22.813200
9.062000 25.196300
9.075600 26.258200
9.089200 26.052900
9.102700 24.959600
9.116300 23.766100
9.129800 23.571900
9.143400 25.357200
9.156900 29.374500
9.170500 34.732800
9.184000 39.539600
9.197600 41.717300
9.211200 40.141000
9.224700 35.368100
9.238300 29.411500
9.251800 24.700800
9.265400 22.915600
9.278900 24.300500
9.292500 27.651100
9.306100 30.892600
9.319600 32.053100
9.333200 30.228500
9.346700 25.983400
9.360300 20.920500
9.373800 16.777200
9.387400 14.719000
9.400900 15.155900
9.414500 17.863000
9.428100 22.085100
9.441600 26.632900
9.455200 30.200900
9.468700 31.904200
9.482300 31.663900
9.495800 30.071200
9.509400 27.824800
9.522900 25.282800
9.536500 22.572800
9.550100 20.111300
9.563600 18.912500
9.577200 20.227500
9.590700 24.685500
9.604300 31.596400
9.617800 39.018200
9.631400 44.649200
9.645000 46.975200
9.658500 45.862600
9.672100 42.219000
9.685600 37.131900
9.699200 31.302100
9.712700 25.178000
9.726300 19.422500
9.739800 15.057300
9.753400 13.049000
9.767000 13.667200
9.780500 16.138200
9.794100 18.902700
9.807600 20.414500
9.821200 20.042500
9.834700 18.471800
9.848300 17.257200
9.861800 17.769700
9.875400 20.236700
9.889000 23.544100
9.902500 25.948100
9.916100 26.206300
9.929600 24.327600
9.943200 21.448400
9.956700 19.029300
9.970300 18.034500
9.983900 18.625200
9.997400 20.415800
10.011000 22.953400
10.024500 25.991800
10.038100 29.339900
10.051600 32.474100
10.065200 34.411900
10.078700 34.161100
10.092300 31.468500
10.105900 27.218400
10.119400 23.119500
10.133000 20.919300
10.146500 21.632900
10.160100 25.111400
10.173600 30.069600
10.187200 34.617200
10.200700 37.128600
10.214300 36.966100
10.227900 34.561400
10.241400 30.872700
10.255000 26.791100
10.268500 23.010800
10.282100 20.253100
10.295600 19.312500
10.309200 20.656800
10.322700 23.933400
10.336300 27.943400
10.349900 31.235800
10.363400 32.896200
10.377000 32.937500
10.390500 32.045600
10.404100 30.920000
10.417600 29.710000
10.431200 27.946500
10.444800 25.001100
10.458300 20.710900
10.471900 15.689400
10.485400 11.121400
10.499000 8.261300
10.512500 7.989300
10.526100 10.557900
10.539600 15.461700
10.553200 21.453700
10.566800 26.878300
10.580300 30.316800
10.593900 31.145900
10.607400 29.574800
10.621000 26.219600
10.634500 21.708500
10.648100 16.631600
10.661600 11.652100
10.675200 7.453200
10.688800 4.506900
10.702300 2.895800
10.715900 2.340000
10.729400 2.370500
10.743000 2.524200
10.756500 2.488100
10.770100 2.163800
10.783700 1.636500
10.797200 1.072000
10.810800 0.607500
10.824300 0.297800
10.837900 0.126200
10.851400 0.046300
10.865000 0.014700
10.878500 0.004000
10.892100 0.001000
10.905700 0.000200
10.919200 0.000000
10.932800 0.000000
10.946300 0.000000
10.959900 0.000000
10.973400 0.000000
10.987000 0.000000
11.000500 0.000000
11.014100 0.000000
11.027700 0.000000
11.041200 0.000000
11.054800 0.000000
11.068300 0.000000
11.081900 0.000000
11.095400 0.000000
11.109000 0.000000
11.122600 0.000000
11.136100 0.000000
11.149700 0.000000
11.163200 0.000000
11.176800 0.000000
11.190300 0.000000
11.203900 0.000000
11.217400 0.000000
11.231000 0.000000
11.244600 0.000000
11.258100 0.000000
11.271700 0.000000
11.285200 0.000000
11.298800 0.000000
11.312300 0.000000
11.325900 0.000000
11.339400 0.000000
11.353000 0.000000
11.366600 0.000000
11.380100 0.000000
11.393700 0.000000
11.407200 0.000000
11.420800 0.000000
11.434300 0.000000
11.447900 0.000000
11.461500 0.000000
11.475000 0.000000
11.488600 0.000000
11.502100 0.000000
11.515700 0.000000
11.529200 0.000000
11.542800 0.000000
11.556300 0.000000
11.569900 0.000000
11.583500 0.000000
11.597000 0.000000
11.610600 0.000000
11.624100 0.000000
11.637700 0.000000
11.651200 0.000000
11.664800 0.000000
11.678300 0.000000
11.691900 0.000000
11.705500 0.000000
11.719000 0.000000
11.732600 0.000000
11.746100 0.000000
11.759700 0.000000
11.773200 0.000000
11.786800 0.000000
11.800400 0.000000
11.813900 0.000000
11.827500 0.000000
11.841000 0.000000
11.854600 0.000000
11.868100 0.000000
11.881700 0.000000
11.895200 0.000000
11.908800 0.000000
11.922400 0.000000
11.935900 0.000000
11.949500 0.000000
11.963000 0.000000
11.976600 0.000000
e
